[{"start_time":1552073050062,"click_time":1552073052430,"finger_time":1552073051629,"fix_duration":908.5212432790806,"trial":0,"RT":1567,"MT":801,"sideResp":2,"stimulus":[],"xmouse":[794,794,794,794,794,794,794,794,794,794,794,794,794,794,794,794,794,794,794,794,794,794,794,794,794,794,794,794,794,794,794,794,794,794,794,794,794,794,794,794,794,794,794,794,794,794,794,794,794,794,794,794,794,794,794,794,794,794,794,794,794,794,794,794,794,794,794,794,794,794,794,797,802,805,805,806,819,872,924,967,1050,1099,1157,1205,1235,1263,1272,1283,1290,1295,1301,1302,1302,1302,1302,1297,1293,1293,1292,1286,1263,1253,1243,1239,1237,1227,1211,1203,1201,1201,1201,1197,1182,1170,1167,1166,1162,1157],"ymouse":[543,543,543,543,543,543,543,543,543,543,543,543,543,543,543,543,543,543,543,543,543,543,543,543,543,543,543,543,543,543,543,543,543,543,543,543,543,543,543,543,543,543,543,543,543,543,543,543,543,543,543,543,543,543,543,543,543,543,543,543,543,543,543,543,543,543,543,543,543,543,543,543,540,538,536,536,533,526,512,491,431,400,367,342,323,297,290,282,276,268,243,227,210,189,170,138,128,127,126,125,121,118,116,115,114,111,101,95,92,89,85,82,76,70,70,70,68,67],"timestamp_mouse":[10,55,69,88,108,129,147,169,187,207,229,248,268,287,309,329,348,367,388,409,429,448,468,489,508,528,548,568,588,609,629,648,668,688,707,728,749,768,787,809,829,848,869,888,908,928,949,967,987,1008,1028,1047,1069,1089,1108,1128,1148,1169,1188,1209,1228,1248,1269,1289,1309,1327,1348,1367,1387,1407,1428,1448,1468,1487,1507,1527,1547,1567,1589,1608,1628,1648,1669,1688,1707,1729,1748,1768,1788,1808,1827,1847,1869,1888,1908,1928,1948,1968,1988,2008,2028,2048,2068,2087,2108,2128,2149,2168,2187,2208,2229,2247,2268,2289,2308,2327,2349,2368],"xSR":741.5,"ySR":501.8,"xT1":424.9,"yT1":0,"xT2":1058.1,"yT2":0,"toosoon":0,"cond_shown":"Incongruent","ratio_trial":300,"L_num":13,"L_den":26,"R_num":12,"R_den":15,"correct_side":2,"subjID":"juandavidguerreroforero8","gender":"0","age":"9","school":"4","test":{"fix_dur":[250,1500],"timestim":1000,"targets_dim":[100,100],"targets_relative_coord":[0.3,0.7],"size_stim":[880,420],"start_dim":[100,100],"size_start":[300,300],"size_fix":60,"samplingrate":20,"img_types":["Congruent","Incongruent"],"ratios":[100,200,300],"rep_conds":19,"nTrials":120,"trials_to_rest":500,"Trials_order":[71,24,11,85,68,14,53,102,109,54,66,40,73,7,113,30,70,3,59,79,17,110,22,25,87,34,78,57,6,44,82,83,56,104,1,69,50,84,72,99,94,55,12,77,37,49,10,100,35,21,19,23,18,62,58,116,15,0,26,90,39,27,111,33,107,16,89,38,67,96,117,74,48,91,86,114,95,32,51,43,13,46,4,5,112,105,108,80,101,31,47,119,2,103,42,97,65,92,115,41,88,118,75,93,64,8,45,28,81,76,98,106,63,20,61,52,29,36,60,9],"cond_shown":["Incongruent","Congruent","Incongruent","Incongruent","Congruent","Congruent","Incongruent","Congruent","Incongruent","Congruent","Congruent","Congruent","Incongruent","Incongruent","Incongruent","Congruent","Congruent","Incongruent","Incongruent","Incongruent","Incongruent","Congruent","Congruent","Incongruent","Incongruent","Congruent","Congruent","Incongruent","Congruent","Congruent","Congruent","Incongruent","Congruent","Congruent","Incongruent","Incongruent","Congruent","Congruent","Congruent","Incongruent","Congruent","Incongruent","Congruent","Incongruent","Incongruent","Incongruent","Congruent","Congruent","Incongruent","Incongruent","Incongruent","Incongruent","Congruent","Congruent","Congruent","Congruent","Incongruent","Congruent","Congruent","Congruent","Incongruent","Incongruent","Incongruent","Incongruent","Incongruent","Congruent","Incongruent","Congruent","Incongruent","Congruent","Incongruent","Congruent","Congruent","Incongruent","Congruent","Congruent","Incongruent","Congruent","Incongruent","Incongruent","Incongruent","Congruent","Congruent","Incongruent","Congruent","Incongruent","Congruent","Congruent","Incongruent","Incongruent","Incongruent","Incongruent","Congruent","Incongruent","Congruent","Incongruent","Incongruent","Congruent","Incongruent","Incongruent","Congruent","Congruent","Incongruent","Incongruent","Congruent","Congruent","Incongruent","Congruent","Incongruent","Congruent","Congruent","Congruent","Incongruent","Congruent","Incongruent","Congruent","Incongruent","Congruent","Congruent","Incongruent"],"ratio_trial":[300,100,300,100,200,200,300,100,100,100,100,300,100,100,300,100,300,200,300,100,300,200,300,100,200,300,100,200,100,200,300,300,200,200,100,200,200,100,100,200,300,100,100,300,100,100,300,300,300,200,100,300,100,200,300,200,200,100,200,100,200,200,200,200,300,300,300,200,100,100,200,200,100,100,200,100,300,200,200,100,100,300,300,300,300,200,100,200,300,100,300,300,200,100,100,100,300,200,100,300,300,300,200,200,300,200,200,300,200,300,200,300,200,200,100,300,300,100,100,200],"left_num":[13,6,2,10,3,8,4,6,2,8,4,11,12,13,13,2,12,14,4,9,4,8,1,13,14,8,12,4,12,4,8,4,5,6,6,14,12,15,4,3,20,13,3,4,13,9,18,2,1,11,2,4,12,3,9,3,7,10,16,3,7,3,7,3,4,1,1,7,6,3,1,21,12,11,9,3,1,9,1,9,3,4,3,4,20,7,1,11,8,1,4,4,16,12,9,3,13,9,2,13,1,9,4,7,5,3,7,11,4,1,4,3,14,9,9,5,1,7,9,14],"right_num":[12,5,6,8,9,3,2,5,8,2,6,2,9,6,12,6,2,12,2,14,6,3,8,6,12,10,13,6,13,3,1,2,14,7,11,12,6,13,6,11,13,12,2,8,12,14,9,12,3,3,6,2,13,9,3,9,6,3,12,2,4,11,14,11,8,3,2,2,11,4,2,2,13,9,13,2,3,4,3,14,11,1,4,2,8,8,3,3,14,8,6,8,12,9,8,8,12,13,8,12,8,3,14,8,7,9,4,1,1,3,3,4,6,13,13,7,2,15,8,12],"left_den":[26,20,4,25,12,15,20,20,4,16,8,22,24,26,26,5,24,30,20,15,5,15,30,26,30,15,30,5,30,8,16,20,10,12,10,30,15,25,8,4,25,26,6,5,26,15,20,10,2,20,4,20,30,12,10,12,15,25,20,6,15,4,10,4,5,5,2,21,10,20,3,30,30,22,30,6,2,20,2,15,5,10,6,20,25,10,2,22,10,2,5,5,20,24,15,5,26,30,4,26,30,10,6,10,25,12,15,22,30,5,8,6,30,30,15,25,2,14,15,30],"right_den":[15,25,30,16,20,9,4,25,20,5,10,10,15,10,15,12,10,18,4,28,12,9,24,10,18,12,26,10,26,10,5,4,20,10,22,18,10,26,10,20,26,20,5,16,20,28,15,24,15,4,15,4,26,20,5,20,9,10,20,5,6,20,28,20,16,6,10,15,22,16,15,4,26,15,26,5,15,16,10,28,22,10,5,4,16,16,5,10,28,20,12,16,20,15,16,16,15,26,20,15,24,5,30,16,14,20,6,5,3,6,10,5,9,26,26,14,10,25,16,18],"correct_side":[2,1,1,2,2,1,2,1,1,1,2,1,2,2,2,2,1,2,2,1,1,1,2,2,2,2,2,1,2,1,1,2,2,2,1,2,1,1,2,1,1,2,1,1,2,1,1,2,1,2,1,2,2,2,1,2,2,1,1,1,2,1,1,1,1,2,1,1,1,2,1,1,2,2,2,1,1,1,1,1,1,1,2,2,1,1,2,1,1,1,1,1,1,2,1,1,2,2,1,2,2,1,1,1,2,2,2,1,2,2,1,2,2,2,1,2,1,2,1,2],"img_shown":["img2/300/Incongruent/R/I_Dist_300_LN_13_LD_26_RN_12_RD_15_1.png","img2/100/Congruent/L/C_Dist_100_LN_6_LD_20_RN_5_RD_25_0.png","img2/300/Incongruent/L/I_Dist_300_LN_2_LD_4_RN_6_RD_30_0.png","img2/100/Incongruent/R/I_Dist_100_LN_10_LD_25_RN_8_RD_16_1.png","img2/200/Congruent/R/C_Dist_200_LN_3_LD_12_RN_9_RD_20_1.png","img2/200/Congruent/L/C_Dist_200_LN_8_LD_15_RN_3_RD_9_0.png","img2/300/Incongruent/R/I_Dist_300_LN_4_LD_20_RN_2_RD_4_1.png","img2/100/Congruent/L/C_Dist_100_LN_6_LD_20_RN_5_RD_25_0.png","img2/100/Incongruent/L/I_Dist_100_LN_2_LD_4_RN_8_RD_20_0.png","img2/100/Congruent/L/C_Dist_100_LN_8_LD_16_RN_2_RD_5_0.png","img2/100/Congruent/R/C_Dist_100_LN_4_LD_8_RN_6_RD_10_1.png","img2/300/Congruent/L/C_Dist_300_LN_11_LD_22_RN_2_RD_10_0.png","img2/100/Incongruent/R/I_Dist_100_LN_12_LD_24_RN_9_RD_15_1.png","img2/100/Incongruent/R/I_Dist_100_LN_13_LD_26_RN_6_RD_10_1.png","img2/300/Incongruent/R/I_Dist_300_LN_13_LD_26_RN_12_RD_15_1.png","img2/100/Congruent/R/C_Dist_100_LN_2_LD_5_RN_6_RD_12_1.png","img2/300/Congruent/L/C_Dist_300_LN_12_LD_24_RN_2_RD_10_0.png","img2/200/Incongruent/R/I_Dist_200_LN_14_LD_30_RN_12_RD_18_1.png","img2/300/Incongruent/R/I_Dist_300_LN_4_LD_20_RN_2_RD_4_1.png","img2/100/Incongruent/L/I_Dist_100_LN_9_LD_15_RN_14_RD_28_0.png","img2/300/Incongruent/L/I_Dist_300_LN_4_LD_5_RN_6_RD_12_0.png","img2/200/Congruent/L/C_Dist_200_LN_8_LD_15_RN_3_RD_9_0.png","img2/300/Congruent/R/C_Dist_300_LN_1_LD_30_RN_8_RD_24_1.png","img2/100/Incongruent/R/I_Dist_100_LN_13_LD_26_RN_6_RD_10_1.png","img2/200/Incongruent/R/I_Dist_200_LN_14_LD_30_RN_12_RD_18_1.png","img2/300/Congruent/R/C_Dist_300_LN_8_LD_15_RN_10_RD_12_1.png","img2/100/Congruent/R/C_Dist_100_LN_12_LD_30_RN_13_RD_26_1.png","img2/200/Incongruent/L/I_Dist_200_LN_4_LD_5_RN_6_RD_10_0.png","img2/100/Congruent/R/C_Dist_100_LN_12_LD_30_RN_13_RD_26_1.png","img2/200/Congruent/L/C_Dist_200_LN_4_LD_8_RN_3_RD_10_0.png","img2/300/Congruent/L/C_Dist_300_LN_8_LD_16_RN_1_RD_5_0.png","img2/300/Incongruent/R/I_Dist_300_LN_4_LD_20_RN_2_RD_4_1.png","img2/200/Congruent/R/C_Dist_200_LN_5_LD_10_RN_14_RD_20_1.png","img2/200/Congruent/R/C_Dist_200_LN_6_LD_12_RN_7_RD_10_1.png","img2/100/Incongruent/L/I_Dist_100_LN_6_LD_10_RN_11_RD_22_0.png","img2/200/Incongruent/R/I_Dist_200_LN_14_LD_30_RN_12_RD_18_1.png","img2/200/Congruent/L/C_Dist_200_LN_12_LD_15_RN_6_RD_10_0.png","img2/100/Congruent/L/C_Dist_100_LN_15_LD_25_RN_13_RD_26_0.png","img2/100/Congruent/R/C_Dist_100_LN_4_LD_8_RN_6_RD_10_1.png","img2/200/Incongruent/L/I_Dist_200_LN_3_LD_4_RN_11_RD_20_0.png","img2/300/Congruent/L/C_Dist_300_LN_20_LD_25_RN_13_RD_26_0.png","img2/100/Incongruent/R/I_Dist_100_LN_13_LD_26_RN_12_RD_20_1.png","img2/100/Congruent/L/C_Dist_100_LN_3_LD_6_RN_2_RD_5_0.png","img2/300/Incongruent/L/I_Dist_300_LN_4_LD_5_RN_8_RD_16_0.png","img2/100/Incongruent/R/I_Dist_100_LN_13_LD_26_RN_12_RD_20_1.png","img2/100/Incongruent/L/I_Dist_100_LN_9_LD_15_RN_14_RD_28_0.png","img2/300/Congruent/L/C_Dist_300_LN_18_LD_20_RN_9_RD_15_0.png","img2/300/Congruent/R/C_Dist_300_LN_2_LD_10_RN_12_RD_24_1.png","img2/300/Incongruent/L/I_Dist_300_LN_1_LD_2_RN_3_RD_15_0.png","img2/200/Incongruent/R/I_Dist_200_LN_11_LD_20_RN_3_RD_4_1.png","img2/100/Incongruent/L/I_Dist_100_LN_2_LD_4_RN_6_RD_15_0.png","img2/300/Incongruent/R/I_Dist_300_LN_4_LD_20_RN_2_RD_4_1.png","img2/100/Congruent/R/C_Dist_100_LN_12_LD_30_RN_13_RD_26_1.png","img2/200/Congruent/R/C_Dist_200_LN_3_LD_12_RN_9_RD_20_1.png","img2/300/Congruent/L/C_Dist_300_LN_9_LD_10_RN_3_RD_5_0.png","img2/200/Congruent/R/C_Dist_200_LN_3_LD_12_RN_9_RD_20_1.png","img2/200/Incongruent/R/I_Dist_200_LN_7_LD_15_RN_6_RD_9_1.png","img2/100/Congruent/L/C_Dist_100_LN_10_LD_25_RN_3_RD_10_0.png","img2/200/Congruent/L/C_Dist_200_LN_16_LD_20_RN_12_RD_20_0.png","img2/100/Congruent/L/C_Dist_100_LN_3_LD_6_RN_2_RD_5_0.png","img2/200/Incongruent/R/I_Dist_200_LN_7_LD_15_RN_4_RD_6_1.png","img2/200/Incongruent/L/I_Dist_200_LN_3_LD_4_RN_11_RD_20_0.png","img2/200/Incongruent/L/I_Dist_200_LN_7_LD_10_RN_14_RD_28_0.png","img2/200/Incongruent/L/I_Dist_200_LN_3_LD_4_RN_11_RD_20_0.png","img2/300/Incongruent/L/I_Dist_300_LN_4_LD_5_RN_8_RD_16_0.png","img2/300/Congruent/R/C_Dist_300_LN_1_LD_5_RN_3_RD_6_1.png","img2/300/Incongruent/L/I_Dist_300_LN_1_LD_2_RN_2_RD_10_0.png","img2/200/Congruent/L/C_Dist_200_LN_7_LD_21_RN_2_RD_15_0.png","img2/100/Incongruent/L/I_Dist_100_LN_6_LD_10_RN_11_RD_22_0.png","img2/100/Congruent/R/C_Dist_100_LN_3_LD_20_RN_4_RD_16_1.png","img2/200/Incongruent/L/I_Dist_200_LN_1_LD_3_RN_2_RD_15_0.png","img2/200/Congruent/L/C_Dist_200_LN_21_LD_30_RN_2_RD_4_0.png","img2/100/Congruent/R/C_Dist_100_LN_12_LD_30_RN_13_RD_26_1.png","img2/100/Incongruent/R/I_Dist_100_LN_11_LD_22_RN_9_RD_15_1.png","img2/200/Congruent/R/C_Dist_200_LN_9_LD_30_RN_13_RD_26_1.png","img2/100/Congruent/L/C_Dist_100_LN_3_LD_6_RN_2_RD_5_0.png","img2/300/Incongruent/L/I_Dist_300_LN_1_LD_2_RN_3_RD_15_0.png","img2/200/Congruent/L/C_Dist_200_LN_9_LD_20_RN_4_RD_16_0.png","img2/200/Incongruent/L/I_Dist_200_LN_1_LD_2_RN_3_RD_10_0.png","img2/100/Incongruent/L/I_Dist_100_LN_9_LD_15_RN_14_RD_28_0.png","img2/100/Incongruent/L/I_Dist_100_LN_3_LD_5_RN_11_RD_22_0.png","img2/300/Congruent/L/C_Dist_300_LN_4_LD_10_RN_1_RD_10_0.png","img2/300/Congruent/R/C_Dist_300_LN_3_LD_6_RN_4_RD_5_1.png","img2/300/Incongruent/R/I_Dist_300_LN_4_LD_20_RN_2_RD_4_1.png","img2/300/Congruent/L/C_Dist_300_LN_20_LD_25_RN_8_RD_16_0.png","img2/200/Incongruent/L/I_Dist_200_LN_7_LD_10_RN_8_RD_16_0.png","img2/100/Congruent/R/C_Dist_100_LN_1_LD_2_RN_3_RD_5_1.png","img2/200/Congruent/L/C_Dist_200_LN_11_LD_22_RN_3_RD_10_0.png","img2/300/Incongruent/L/I_Dist_300_LN_8_LD_10_RN_14_RD_28_0.png","img2/100/Incongruent/L/I_Dist_100_LN_1_LD_2_RN_8_RD_20_0.png","img2/300/Incongruent/L/I_Dist_300_LN_4_LD_5_RN_6_RD_12_0.png","img2/300/Incongruent/L/I_Dist_300_LN_4_LD_5_RN_8_RD_16_0.png","img2/200/Congruent/L/C_Dist_200_LN_16_LD_20_RN_12_RD_20_0.png","img2/100/Incongruent/R/I_Dist_100_LN_12_LD_24_RN_9_RD_15_1.png","img2/100/Congruent/L/C_Dist_100_LN_9_LD_15_RN_8_RD_16_0.png","img2/100/Incongruent/L/I_Dist_100_LN_3_LD_5_RN_8_RD_16_0.png","img2/300/Incongruent/R/I_Dist_300_LN_13_LD_26_RN_12_RD_15_1.png","img2/200/Congruent/R/C_Dist_200_LN_9_LD_30_RN_13_RD_26_1.png","img2/100/Incongruent/L/I_Dist_100_LN_2_LD_4_RN_8_RD_20_0.png","img2/300/Incongruent/R/I_Dist_300_LN_13_LD_26_RN_12_RD_15_1.png","img2/300/Congruent/R/C_Dist_300_LN_1_LD_30_RN_8_RD_24_1.png","img2/300/Congruent/L/C_Dist_300_LN_9_LD_10_RN_3_RD_5_0.png","img2/200/Incongruent/L/I_Dist_200_LN_4_LD_6_RN_14_RD_30_0.png","img2/200/Incongruent/L/I_Dist_200_LN_7_LD_10_RN_8_RD_16_0.png","img2/300/Congruent/R/C_Dist_300_LN_5_LD_25_RN_7_RD_14_1.png","img2/200/Congruent/R/C_Dist_200_LN_3_LD_12_RN_9_RD_20_1.png","img2/200/Incongruent/R/I_Dist_200_LN_7_LD_15_RN_4_RD_6_1.png","img2/300/Congruent/L/C_Dist_300_LN_11_LD_22_RN_1_RD_5_0.png","img2/200/Incongruent/R/I_Dist_200_LN_4_LD_30_RN_1_RD_3_1.png","img2/300/Congruent/R/C_Dist_300_LN_1_LD_5_RN_3_RD_6_1.png","img2/200/Congruent/L/C_Dist_200_LN_4_LD_8_RN_3_RD_10_0.png","img2/300/Congruent/R/C_Dist_300_LN_3_LD_6_RN_4_RD_5_1.png","img2/200/Incongruent/R/I_Dist_200_LN_14_LD_30_RN_6_RD_9_1.png","img2/200/Congruent/R/C_Dist_200_LN_9_LD_30_RN_13_RD_26_1.png","img2/100/Incongruent/L/I_Dist_100_LN_9_LD_15_RN_13_RD_26_0.png","img2/300/Congruent/R/C_Dist_300_LN_5_LD_25_RN_7_RD_14_1.png","img2/300/Incongruent/L/I_Dist_300_LN_1_LD_2_RN_2_RD_10_0.png","img2/100/Congruent/R/C_Dist_100_LN_7_LD_14_RN_15_RD_25_1.png","img2/100/Congruent/L/C_Dist_100_LN_9_LD_15_RN_8_RD_16_0.png","img2/200/Incongruent/R/I_Dist_200_LN_14_LD_30_RN_12_RD_18_1.png"],"dist100_C":[["C_Dist_100_LN_10_LD_25_RN_3_RD_10_0.png","C_Dist_100_LN_11_LD_22_RN_4_RD_10_0.png","C_Dist_100_LN_11_LD_22_RN_6_RD_15_0.png","C_Dist_100_LN_15_LD_25_RN_13_RD_26_0.png","C_Dist_100_LN_3_LD_6_RN_2_RD_5_0.png","C_Dist_100_LN_6_LD_20_RN_5_RD_25_0.png","C_Dist_100_LN_8_LD_16_RN_2_RD_5_0.png","C_Dist_100_LN_9_LD_15_RN_8_RD_16_0.png"],["C_Dist_100_LN_1_LD_2_RN_18_RD_30_1.png","C_Dist_100_LN_1_LD_2_RN_3_RD_5_1.png","C_Dist_100_LN_12_LD_30_RN_13_RD_26_1.png","C_Dist_100_LN_2_LD_5_RN_11_RD_22_1.png","C_Dist_100_LN_2_LD_5_RN_6_RD_12_1.png","C_Dist_100_LN_3_LD_20_RN_4_RD_16_1.png","C_Dist_100_LN_4_LD_10_RN_15_RD_30_1.png","C_Dist_100_LN_4_LD_8_RN_6_RD_10_1.png","C_Dist_100_LN_6_LD_12_RN_15_RD_25_1.png","C_Dist_100_LN_7_LD_14_RN_15_RD_25_1.png","C_Dist_100_LN_7_LD_14_RN_9_RD_15_1.png"]],"dist100_I":[["I_Dist_100_LN_1_LD_2_RN_8_RD_20_0.png","I_Dist_100_LN_2_LD_4_RN_6_RD_15_0.png","I_Dist_100_LN_2_LD_4_RN_8_RD_20_0.png","I_Dist_100_LN_3_LD_5_RN_11_RD_22_0.png","I_Dist_100_LN_3_LD_5_RN_8_RD_16_0.png","I_Dist_100_LN_3_LD_6_RN_4_RD_10_0.png","I_Dist_100_LN_3_LD_9_RN_7_RD_30_0.png","I_Dist_100_LN_4_LD_8_RN_8_RD_20_0.png","I_Dist_100_LN_6_LD_10_RN_11_RD_22_0.png","I_Dist_100_LN_6_LD_10_RN_13_RD_26_0.png","I_Dist_100_LN_6_LD_10_RN_7_RD_14_0.png","I_Dist_100_LN_9_LD_10_RN_20_RD_25_0.png","I_Dist_100_LN_9_LD_15_RN_13_RD_26_0.png","I_Dist_100_LN_9_LD_15_RN_14_RD_28_0.png"],["I_Dist_100_LN_10_LD_25_RN_8_RD_16_1.png","I_Dist_100_LN_10_LD_25_RN_9_RD_18_1.png","I_Dist_100_LN_11_LD_22_RN_9_RD_15_1.png","I_Dist_100_LN_12_LD_24_RN_9_RD_15_1.png","I_Dist_100_LN_12_LD_30_RN_2_RD_4_1.png","I_Dist_100_LN_13_LD_26_RN_12_RD_20_1.png","I_Dist_100_LN_13_LD_26_RN_6_RD_10_1.png","I_Dist_100_LN_17_LD_30_RN_10_RD_15_1.png","I_Dist_100_LN_6_LD_12_RN_3_RD_5_1.png","I_Dist_100_LN_8_LD_16_RN_6_RD_10_1.png","I_Dist_100_LN_8_LD_20_RN_1_RD_2_1.png","I_Dist_100_LN_9_LD_18_RN_6_RD_10_1.png"]],"dist100_S":[["E_Dist_100_LN_2_LD_12_RN_2_RD_30_0.png","E_Dist_100_LN_6_LD_10_RN_6_RD_12_0.png"],["E_Dist_100_LN_6_LD_12_RN_6_RD_10_1.png"]],"dist200_C":[["C_Dist_200_LN_11_LD_22_RN_3_RD_10_0.png","C_Dist_200_LN_12_LD_15_RN_6_RD_10_0.png","C_Dist_200_LN_12_LD_20_RN_6_RD_15_0.png","C_Dist_200_LN_14_LD_28_RN_6_RD_20_0.png","C_Dist_200_LN_15_LD_25_RN_4_RD_10_0.png","C_Dist_200_LN_16_LD_20_RN_12_RD_20_0.png","C_Dist_200_LN_16_LD_30_RN_9_RD_27_0.png","C_Dist_200_LN_20_LD_25_RN_9_RD_15_0.png","C_Dist_200_LN_21_LD_30_RN_2_RD_4_0.png","C_Dist_200_LN_4_LD_10_RN_3_RD_15_0.png","C_Dist_200_LN_4_LD_8_RN_3_RD_10_0.png","C_Dist_200_LN_6_LD_15_RN_3_RD_15_0.png","C_Dist_200_LN_7_LD_21_RN_2_RD_15_0.png","C_Dist_200_LN_8_LD_15_RN_2_RD_6_0.png","C_Dist_200_LN_8_LD_15_RN_3_RD_9_0.png","C_Dist_200_LN_8_LD_15_RN_7_RD_21_0.png","C_Dist_200_LN_9_LD_20_RN_4_RD_16_0.png"],["C_Dist_200_LN_1_LD_2_RN_21_RD_30_1.png","C_Dist_200_LN_13_LD_26_RN_14_RD_20_1.png","C_Dist_200_LN_3_LD_10_RN_11_RD_22_1.png","C_Dist_200_LN_3_LD_10_RN_14_RD_28_1.png","C_Dist_200_LN_3_LD_10_RN_7_RD_14_1.png","C_Dist_200_LN_3_LD_12_RN_9_RD_20_1.png","C_Dist_200_LN_3_LD_6_RN_14_RD_20_1.png","C_Dist_200_LN_5_LD_10_RN_14_RD_20_1.png","C_Dist_200_LN_6_LD_12_RN_7_RD_10_1.png","C_Dist_200_LN_6_LD_20_RN_11_RD_22_1.png","C_Dist_200_LN_7_LD_15_RN_18_RD_27_1.png","C_Dist_200_LN_9_LD_30_RN_13_RD_26_1.png"]],"dist200_I":[["I_Dist_200_LN_1_LD_2_RN_3_RD_10_0.png","I_Dist_200_LN_1_LD_3_RN_2_RD_15_0.png","I_Dist_200_LN_3_LD_4_RN_11_RD_20_0.png","I_Dist_200_LN_4_LD_5_RN_6_RD_10_0.png","I_Dist_200_LN_4_LD_6_RN_14_RD_30_0.png","I_Dist_200_LN_7_LD_10_RN_12_RD_24_0.png","I_Dist_200_LN_7_LD_10_RN_14_RD_28_0.png","I_Dist_200_LN_7_LD_10_RN_8_RD_16_0.png"],["I_Dist_200_LN_11_LD_20_RN_3_RD_4_1.png","I_Dist_200_LN_14_LD_30_RN_12_RD_18_1.png","I_Dist_200_LN_14_LD_30_RN_6_RD_9_1.png","I_Dist_200_LN_3_LD_10_RN_1_RD_2_1.png","I_Dist_200_LN_4_LD_30_RN_1_RD_3_1.png","I_Dist_200_LN_6_LD_20_RN_3_RD_6_1.png","I_Dist_200_LN_7_LD_15_RN_4_RD_6_1.png","I_Dist_200_LN_7_LD_15_RN_6_RD_9_1.png","I_Dist_200_LN_9_LD_15_RN_8_RD_10_1.png"]],"dist200_S":[["E_Dist_200_LN_3_LD_6_RN_3_RD_10_0.png"],["E_Dist_200_LN_3_LD_10_RN_3_RD_6_1.png"]],"dist300_C":[["C_Dist_300_LN_11_LD_22_RN_1_RD_5_0.png","C_Dist_300_LN_11_LD_22_RN_2_RD_10_0.png","C_Dist_300_LN_11_LD_22_RN_4_RD_20_0.png","C_Dist_300_LN_12_LD_24_RN_2_RD_10_0.png","C_Dist_300_LN_18_LD_20_RN_9_RD_15_0.png","C_Dist_300_LN_20_LD_25_RN_13_RD_26_0.png","C_Dist_300_LN_20_LD_25_RN_14_RD_28_0.png","C_Dist_300_LN_20_LD_25_RN_5_RD_10_0.png","C_Dist_300_LN_20_LD_25_RN_8_RD_16_0.png","C_Dist_300_LN_20_LD_25_RN_9_RD_18_0.png","C_Dist_300_LN_24_LD_30_RN_2_RD_4_0.png","C_Dist_300_LN_24_LD_30_RN_8_RD_16_0.png","C_Dist_300_LN_3_LD_6_RN_2_RD_10_0.png","C_Dist_300_LN_4_LD_10_RN_1_RD_10_0.png","C_Dist_300_LN_4_LD_5_RN_2_RD_4_0.png","C_Dist_300_LN_8_LD_16_RN_1_RD_5_0.png","C_Dist_300_LN_9_LD_10_RN_3_RD_5_0.png"],["C_Dist_300_LN_1_LD_20_RN_7_RD_20_1.png","C_Dist_300_LN_1_LD_3_RN_19_RD_30_1.png","C_Dist_300_LN_1_LD_30_RN_8_RD_24_1.png","C_Dist_300_LN_1_LD_5_RN_11_RD_22_1.png","C_Dist_300_LN_1_LD_5_RN_3_RD_6_1.png","C_Dist_300_LN_1_LD_5_RN_6_RD_12_1.png","C_Dist_300_LN_2_LD_10_RN_12_RD_24_1.png","C_Dist_300_LN_2_LD_20_RN_10_RD_25_1.png","C_Dist_300_LN_3_LD_12_RN_11_RD_20_1.png","C_Dist_300_LN_3_LD_6_RN_4_RD_5_1.png","C_Dist_300_LN_4_LD_20_RN_13_RD_26_1.png","C_Dist_300_LN_5_LD_25_RN_6_RD_12_1.png","C_Dist_300_LN_5_LD_25_RN_7_RD_14_1.png","C_Dist_300_LN_7_LD_14_RN_20_RD_25_1.png","C_Dist_300_LN_8_LD_15_RN_10_RD_12_1.png"]],"dist300_I":[["I_Dist_300_LN_1_LD_2_RN_2_RD_10_0.png","I_Dist_300_LN_1_LD_2_RN_3_RD_15_0.png","I_Dist_300_LN_2_LD_4_RN_6_RD_30_0.png","I_Dist_300_LN_3_LD_6_RN_4_RD_20_0.png","I_Dist_300_LN_4_LD_5_RN_6_RD_12_0.png","I_Dist_300_LN_4_LD_5_RN_8_RD_16_0.png","I_Dist_300_LN_7_LD_10_RN_8_RD_20_0.png","I_Dist_300_LN_8_LD_10_RN_14_RD_28_0.png","I_Dist_300_LN_8_LD_10_RN_9_RD_18_0.png"],["I_Dist_300_LN_13_LD_26_RN_12_RD_15_1.png","I_Dist_300_LN_4_LD_20_RN_2_RD_4_1.png"]],"dist300_S":[["E_Dist_300_LN_9_LD_12_RN_9_RD_20_0.png"],["E_Dist_300_LN_18_LD_30_RN_18_RD_20_1.png","E_Dist_300_LN_3_LD_10_RN_3_RD_5_1.png","E_Dist_300_LN_9_LD_20_RN_9_RD_12_1.png"]],"dist500_C":[["C_Dist_500_LN_10_LD_13_RN_7_RD_26_0.png","C_Dist_500_LN_10_LD_15_RN_4_RD_24_0.png","C_Dist_500_LN_12_LD_16_RN_3_RD_12_0.png","C_Dist_500_LN_12_LD_18_RN_4_RD_24_0.png","C_Dist_500_LN_15_LD_18_RN_5_RD_15_0.png","C_Dist_500_LN_15_LD_20_RN_1_RD_4_0.png","C_Dist_500_LN_18_LD_27_RN_1_RD_6_0.png","C_Dist_500_LN_20_LD_24_RN_1_RD_3_0.png","C_Dist_500_LN_20_LD_24_RN_3_RD_9_0.png","C_Dist_500_LN_20_LD_24_RN_7_RD_21_0.png","C_Dist_500_LN_20_LD_28_RN_3_RD_14_0.png","C_Dist_500_LN_21_LD_28_RN_6_RD_24_0.png","C_Dist_500_LN_22_LD_28_RN_2_RD_7_0.png","C_Dist_500_LN_25_LD_30_RN_9_RD_27_0.png","C_Dist_500_LN_4_LD_6_RN_1_RD_6_0.png","C_Dist_500_LN_5_LD_6_RN_2_RD_6_0.png","C_Dist_500_LN_6_LD_9_RN_1_RD_6_0.png","C_Dist_500_LN_7_LD_10_RN_1_RD_5_0.png","C_Dist_500_LN_8_LD_12_RN_1_RD_6_0.png","C_Dist_500_LN_8_LD_12_RN_4_RD_24_0.png"],["C_Dist_500_LN_1_LD_4_RN_12_RD_16_1.png","C_Dist_500_LN_1_LD_4_RN_9_RD_12_1.png","C_Dist_500_LN_1_LD_9_RN_11_RD_18_1.png","C_Dist_500_LN_10_LD_24_RN_22_RD_24_1.png","C_Dist_500_LN_2_LD_12_RN_10_RD_15_1.png","C_Dist_500_LN_2_LD_12_RN_12_RD_18_1.png","C_Dist_500_LN_2_LD_12_RN_4_RD_6_1.png","C_Dist_500_LN_2_LD_24_RN_7_RD_12_1.png","C_Dist_500_LN_2_LD_5_RN_18_RD_20_1.png","C_Dist_500_LN_2_LD_5_RN_9_RD_10_1.png","C_Dist_500_LN_2_LD_8_RN_12_RD_16_1.png","C_Dist_500_LN_2_LD_8_RN_21_RD_28_1.png","C_Dist_500_LN_3_LD_10_RN_4_RD_5_1.png","C_Dist_500_LN_3_LD_12_RN_15_RD_20_1.png","C_Dist_500_LN_3_LD_30_RN_6_RD_10_1.png","C_Dist_500_LN_3_LD_8_RN_14_RD_16_1.png","C_Dist_500_LN_4_LD_16_RN_15_RD_20_1.png","C_Dist_500_LN_4_LD_24_RN_12_RD_18_1.png","C_Dist_500_LN_5_LD_14_RN_6_RD_7_1.png","C_Dist_500_LN_7_LD_21_RN_20_RD_24_1.png","C_Dist_500_LN_7_LD_28_RN_12_RD_16_1.png","C_Dist_500_LN_7_LD_28_RN_9_RD_12_1.png","C_Dist_500_LN_9_LD_27_RN_20_RD_24_1.png"]],"dist500_I":[["I_Dist_500_LN_2_LD_3_RN_4_RD_24_0.png","I_Dist_500_LN_5_LD_6_RN_6_RD_18_0.png","I_Dist_500_LN_7_LD_8_RN_9_RD_24_0.png"],["I_Dist_500_LN_7_LD_21_RN_5_RD_6_1.png"]],"dist500_S":[["E_Dist_500_LN_6_LD_8_RN_6_RD_24_0.png"],["E_Dist_500_LN_2_LD_12_RN_2_RD_3_1.png","E_Dist_500_LN_6_LD_24_RN_6_RD_8_1.png"]]}},{"start_time":1552073055768,"click_time":1552073057611,"finger_time":1552073057210,"fix_duration":1055.8700015884128,"trial":1,"RT":1442,"MT":401,"sideResp":2,"stimulus":[],"xmouse":[791,791,791,791,791,791,791,791,791,791,791,791,791,791,791,791,791,791,791,791,791,791,791,791,791,791,791,791,791,791,791,791,791,791,791,791,791,791,791,791,791,791,791,791,791,791,791,791,791,791,791,791,791,791,791,791,791,791,791,791,791,791,791,791,791,791,791,791,791,794,797,810,834,853,875,901,921,949,958,966,966,968,968,969,972,975,979,995,1008,1031,1040,1055,1065],"ymouse":[527,527,527,527,527,527,527,527,527,527,527,527,527,527,527,527,527,527,527,527,527,527,527,527,527,527,527,527,527,527,527,527,527,527,527,527,527,527,527,527,527,527,527,527,527,527,527,527,527,527,527,527,527,527,527,527,527,527,527,527,527,527,527,527,527,527,526,523,518,505,498,474,428,396,361,325,292,240,218,188,181,166,159,156,152,148,142,128,121,110,105,94,82],"timestamp_mouse":[13,22,41,62,81,102,123,141,162,182,203,222,243,261,283,302,323,343,363,381,403,423,442,463,482,502,523,542,562,582,601,621,643,661,683,702,722,741,763,782,803,822,842,862,883,903,921,943,963,982,1002,1022,1042,1062,1081,1102,1123,1143,1163,1183,1202,1223,1243,1263,1282,1302,1322,1342,1363,1382,1403,1421,1442,1462,1482,1502,1522,1542,1562,1582,1603,1622,1642,1662,1682,1702,1721,1742,1762,1782,1802,1822,1842],"xSR":741.5,"ySR":469.95,"xT1":424.9,"yT1":0,"xT2":1058.1,"yT2":0,"toosoon":0,"cond_shown":"Congruent","ratio_trial":100,"L_num":6,"L_den":20,"R_num":5,"R_den":25,"correct_side":1,"subjID":"juandavidguerreroforero8","gender":"0","school":"4","age":"9"},{"start_time":1552073060400,"click_time":1552073062530,"finger_time":1552073061870,"fix_duration":1189.77336133953,"trial":2,"RT":1470,"MT":660,"sideResp":1,"stimulus":[],"xmouse":[807,807,807,807,807,807,807,807,807,807,807,807,807,807,807,807,807,807,807,807,807,807,807,807,807,807,807,807,807,807,807,807,807,807,807,807,807,807,807,807,807,807,807,807,807,807,807,807,807,807,807,807,807,807,807,807,807,807,807,807,807,807,807,807,807,807,807,807,807,807,807,805,802,798,795,794,791,791,791,791,791,790,790,790,790,790,790,790,790,790,790,790,790,790,790,790,756,724,689,651,583,552,530,515,505,496,489],"ymouse":[497,497,497,497,497,497,497,497,497,497,497,497,497,497,497,497,497,497,497,497,497,497,497,497,497,497,497,497,497,497,497,497,497,497,497,497,497,497,497,497,497,497,497,497,497,497,497,497,497,497,497,497,497,497,497,497,497,497,497,497,497,497,497,497,497,497,497,497,497,497,497,494,481,467,453,442,426,424,423,422,422,422,421,420,420,420,420,420,420,420,420,420,420,420,418,418,389,365,336,301,231,196,167,147,130,116,99],"timestamp_mouse":[19,39,51,69,90,110,130,150,169,190,210,230,250,270,290,309,331,351,371,391,409,431,451,469,491,510,531,550,571,590,609,630,650,669,691,710,731,750,770,791,810,831,851,871,890,910,930,950,969,991,1010,1030,1050,1070,1091,1110,1130,1151,1171,1189,1210,1231,1249,1270,1290,1309,1331,1350,1369,1390,1410,1430,1450,1470,1491,1510,1530,1550,1570,1590,1610,1630,1651,1669,1689,1710,1731,1750,1769,1791,1811,1831,1850,1871,1891,1909,1929,1949,1970,1989,2010,2029,2050,2070,2090,2110,2130],"xSR":741.5,"ySR":469.95,"xT1":424.9,"yT1":0,"xT2":1058.1,"yT2":0,"toosoon":0,"cond_shown":"Incongruent","ratio_trial":300,"L_num":2,"L_den":4,"R_num":6,"R_den":30,"correct_side":1,"subjID":"juandavidguerreroforero8","gender":"0","school":"4","age":"9"},{"start_time":1552073064787,"click_time":1552073066530,"finger_time":1552073066190,"fix_duration":956.2192904260038,"trial":3,"RT":1403,"MT":340,"sideResp":2,"stimulus":[],"xmouse":[795,795,795,795,795,795,795,795,795,795,795,795,795,795,795,795,795,795,795,795,795,795,795,795,795,795,795,795,795,795,795,795,795,795,795,795,795,795,795,795,795,795,795,795,795,795,795,795,795,795,795,795,795,795,795,795,795,795,795,795,795,795,795,795,795,795,795,804,810,819,830,843,873,890,905,931,953,1003,1019,1036,1050,1073,1082,1091,1097,1105,1108,1113],"ymouse":[509,509,509,509,509,509,509,509,509,509,509,509,509,509,509,509,509,509,509,509,509,509,509,509,509,509,509,509,509,509,509,509,509,509,509,509,509,509,509,509,509,509,509,509,509,509,509,509,509,509,509,509,509,509,509,509,509,509,509,509,509,509,509,509,509,508,506,492,483,472,457,440,406,387,370,339,315,264,247,227,212,183,169,156,144,124,115,95],"timestamp_mouse":[10,24,43,62,84,103,124,143,163,183,204,223,244,263,284,302,323,344,364,384,403,423,444,463,484,504,524,543,564,584,604,623,644,663,683,702,722,744,763,784,804,823,844,864,882,903,923,944,962,984,1003,1024,1043,1062,1083,1104,1122,1144,1164,1183,1202,1222,1244,1263,1284,1302,1324,1342,1363,1384,1403,1423,1443,1463,1483,1504,1523,1543,1563,1583,1602,1625,1642,1662,1683,1703,1722,1743],"xSR":741.5,"ySR":469.95,"xT1":424.9,"yT1":0,"xT2":1058.1,"yT2":0,"toosoon":0,"cond_shown":"Incongruent","ratio_trial":100,"L_num":10,"L_den":25,"R_num":8,"R_den":16,"correct_side":2,"subjID":"juandavidguerreroforero8","gender":"0","school":"4","age":"9"},{"start_time":1552073069150,"click_time":1552073070530,"finger_time":1552073070109,"fix_duration":1496.8511922920634,"trial":4,"RT":959,"MT":421,"sideResp":2,"stimulus":[],"xmouse":[761,761,761,761,761,761,761,761,761,761,761,761,761,761,761,761,761,761,761,761,761,761,761,761,761,761,761,761,762,762,762,762,762,763,771,776,782,783,783,783,783,783,783,783,784,792,803,816,828,854,869,893,918,941,982,1004,1016,1024,1029,1033,1043,1052,1063,1073,1088,1094,1096,1097,1099,1107],"ymouse":[511,511,511,511,511,511,511,511,511,511,511,511,511,511,511,511,511,511,511,511,511,511,511,511,511,511,511,511,511,511,511,511,511,511,506,503,499,499,499,499,499,499,499,499,498,491,484,474,463,434,414,386,356,331,283,253,238,225,217,212,200,192,183,171,149,139,134,128,122,95],"timestamp_mouse":[10,20,39,59,80,100,121,139,160,179,201,220,241,260,279,300,321,340,361,381,401,420,441,460,479,500,521,541,560,579,601,620,640,661,680,700,719,740,761,779,799,819,839,859,881,900,919,940,959,980,999,1020,1040,1059,1081,1101,1120,1141,1159,1180,1199,1220,1240,1259,1280,1299,1320,1340,1359,1380],"xSR":741.5,"ySR":469.95,"xT1":424.9,"yT1":0,"xT2":1058.1,"yT2":0,"toosoon":0,"cond_shown":"Congruent","ratio_trial":200,"L_num":3,"L_den":12,"R_num":9,"R_den":20,"correct_side":2,"subjID":"juandavidguerreroforero8","gender":"0","school":"4","age":"9"},{"start_time":1552073072790,"click_time":1552073074529,"finger_time":1552073074129,"fix_duration":1156.1103340008399,"trial":5,"RT":1339,"MT":400,"sideResp":1,"stimulus":[],"xmouse":[807,807,807,807,807,807,807,807,807,807,807,807,807,807,807,807,807,807,807,807,807,807,807,807,807,807,807,807,807,807,807,807,807,807,807,807,807,807,807,807,807,807,807,807,807,807,807,807,807,807,807,807,807,807,807,807,807,807,807,807,807,807,807,807,807,806,799,791,772,756,730,685,662,645,636,628,623,621,620,616,594,583,547,532,528,517,492,465],"ymouse":[509,509,509,509,509,509,509,509,509,509,509,509,509,509,509,509,509,509,509,509,509,509,509,509,509,509,509,509,509,509,509,509,509,509,509,509,509,509,509,509,509,509,509,509,509,509,509,509,509,509,509,509,509,509,509,509,509,509,509,509,509,509,509,509,505,496,479,460,418,394,364,323,300,273,259,247,239,235,233,228,211,203,170,143,131,119,104,88],"timestamp_mouse":[11,20,40,61,80,101,121,141,160,181,201,219,239,261,280,300,319,339,360,380,400,420,441,460,479,500,519,541,561,580,600,621,641,660,681,700,720,741,761,781,801,820,841,861,881,901,921,940,960,979,999,1019,1041,1060,1081,1100,1120,1140,1161,1180,1201,1220,1239,1261,1279,1300,1319,1339,1360,1380,1399,1420,1440,1459,1480,1501,1520,1542,1560,1579,1600,1620,1639,1660,1680,1700,1720,1739],"xSR":741.5,"ySR":469.95,"xT1":424.9,"yT1":0,"xT2":1058.1,"yT2":0,"toosoon":0,"cond_shown":"Congruent","ratio_trial":200,"L_num":8,"L_den":15,"R_num":3,"R_den":9,"correct_side":1,"subjID":"juandavidguerreroforero8","gender":"0","school":"4","age":"9"},{"start_time":1552073077692,"click_time":1552073079632,"finger_time":1552073079151,"fix_duration":839.8842422175146,"trial":6,"RT":1459,"MT":481,"sideResp":1,"stimulus":[],"xmouse":[823,823,823,823,823,823,823,823,823,823,823,823,823,823,823,823,823,823,823,823,823,823,823,823,823,823,823,823,823,823,823,823,823,823,823,823,823,823,823,823,823,823,823,823,823,823,823,823,823,823,823,823,823,823,823,823,823,823,823,823,823,823,823,823,822,822,821,821,820,816,805,790,776,764,725,710,690,672,644,638,632,628,623,606,601,597,595,595,578,554,533,516,510,509,506,490,465,435],"ymouse":[520,520,520,520,520,520,520,520,520,520,520,520,520,520,520,520,520,520,520,520,520,520,520,520,520,520,520,520,520,520,520,520,520,520,520,520,520,520,520,520,520,520,520,520,520,520,520,520,520,520,520,520,520,520,520,520,520,520,520,520,519,519,519,519,519,519,518,518,517,512,504,492,477,461,406,384,351,322,262,241,222,207,191,144,131,122,116,116,115,111,108,106,105,105,105,104,100,96],"timestamp_mouse":[1,19,40,58,79,98,118,139,159,179,198,217,239,258,278,297,318,339,358,377,398,417,439,457,479,499,519,538,557,579,598,618,639,659,678,698,720,740,759,779,799,818,839,858,879,900,919,940,959,979,999,1019,1039,1059,1079,1099,1119,1139,1159,1178,1200,1218,1238,1259,1279,1299,1320,1340,1359,1379,1398,1419,1439,1459,1479,1499,1519,1538,1560,1578,1600,1619,1639,1660,1678,1699,1719,1738,1760,1778,1799,1818,1840,1859,1880,1899,1919,1940],"xSR":741.5,"ySR":469.95,"xT1":424.9,"yT1":0,"xT2":1058.1,"yT2":0,"toosoon":0,"cond_shown":"Incongruent","ratio_trial":300,"L_num":4,"L_den":20,"R_num":2,"R_den":4,"correct_side":2,"subjID":"juandavidguerreroforero8","gender":"0","school":"4","age":"9"},{"start_time":1552073081613,"click_time":1552073082671,"finger_time":1552073082231,"fix_duration":540.1011442059018,"trial":7,"RT":618,"MT":440,"sideResp":2,"stimulus":[],"xmouse":[753,753,753,753,753,753,753,753,753,753,753,753,753,753,753,753,753,753,753,753,753,753,753,753,753,753,754,765,783,807,842,882,953,976,993,1019,1036,1070,1087,1107,1133,1164,1210,1222,1227,1229,1231,1232,1231,1217,1198,1170,1115],"ymouse":[494,494,494,494,494,494,494,494,494,494,494,494,494,494,494,494,494,494,494,494,494,494,494,494,494,494,494,492,485,476,461,444,403,389,374,352,339,315,302,287,268,243,208,196,189,185,182,167,153,134,112,89,54],"timestamp_mouse":[19,38,59,78,99,119,138,158,177,197,218,237,257,279,299,317,339,358,378,397,419,438,459,479,499,519,538,557,577,598,618,640,658,678,698,719,738,757,778,798,817,837,858,878,899,919,939,959,977,997,1017,1039,1058],"xSR":741.5,"ySR":469.95,"xT1":424.9,"yT1":0,"xT2":1058.1,"yT2":0,"toosoon":0,"cond_shown":"Congruent","ratio_trial":100,"L_num":6,"L_den":20,"R_num":5,"R_den":25,"correct_side":1,"subjID":"juandavidguerreroforero8","gender":"0","school":"4","age":"9"},{"start_time":1552073084023,"click_time":1552073085131,"finger_time":1552073084710,"fix_duration":250,"trial":8,"RT":687,"MT":421,"sideResp":2,"stimulus":[],"xmouse":[772,772,772,772,772,772,772,772,772,772,772,772,772,772,772,772,772,772,772,772,772,772,772,772,772,772,772,772,772,772,775,778,796,808,833,852,871,893,901,906,907,909,914,918,923,934,944,966,975,985,994,1003,1026,1045,1059,1074],"ymouse":[540,540,540,540,540,540,540,540,540,540,540,540,540,540,540,540,540,540,540,540,540,540,540,540,540,540,540,540,540,540,535,530,506,488,454,426,398,356,341,329,323,316,304,296,287,268,252,214,197,182,171,162,142,120,103,88],"timestamp_mouse":[14,27,48,67,88,108,128,148,169,187,208,228,249,267,288,309,327,349,368,388,408,428,449,468,489,507,528,549,567,589,607,627,647,669,687,708,728,748,768,788,808,827,848,868,888,909,927,948,968,988,1008,1028,1048,1068,1088,1108],"xSR":741.5,"ySR":469.95,"xT1":424.9,"yT1":0,"xT2":1058.1,"yT2":0,"toosoon":0,"cond_shown":"Incongruent","ratio_trial":100,"L_num":2,"L_den":4,"R_num":8,"R_den":20,"correct_side":1,"subjID":"juandavidguerreroforero8","gender":"0","school":"4","age":"9"},{"start_time":1552073088149,"click_time":1552073089111,"finger_time":1552073088931,"fix_duration":515.295642443805,"trial":9,"RT":782,"MT":180,"sideResp":1,"stimulus":[],"xmouse":[780,780,780,780,780,780,780,780,780,780,780,780,780,780,780,780,780,780,780,780,780,780,780,780,780,780,780,780,780,780,780,780,780,780,780,780,780,773,760,739,716,688,617,578,553,541,528,517,510],"ymouse":[524,524,524,524,524,524,524,524,524,524,524,524,524,524,524,524,524,524,524,524,524,524,524,524,524,524,524,524,524,524,524,524,524,524,524,524,524,507,484,453,413,372,273,225,189,168,137,114,97],"timestamp_mouse":[11,22,41,63,82,102,122,143,163,183,203,221,241,263,283,302,322,341,363,383,403,421,442,463,483,501,523,543,561,583,603,622,643,663,683,702,721,743,761,782,801,823,841,862,882,903,923,941,962],"xSR":741.5,"ySR":469.95,"xT1":424.9,"yT1":0,"xT2":1058.1,"yT2":0,"toosoon":0,"cond_shown":"Congruent","ratio_trial":100,"L_num":8,"L_den":16,"R_num":2,"R_den":5,"correct_side":1,"subjID":"juandavidguerreroforero8","gender":"0","school":"4","age":"9"},{"start_time":1552073091246,"click_time":1552073092091,"finger_time":1552073091871,"fix_duration":972.9939686953358,"trial":10,"RT":625,"MT":220,"sideResp":2,"stimulus":[],"xmouse":[784,784,784,784,784,784,784,784,784,784,784,784,784,784,784,784,784,784,784,784,784,784,784,784,784,784,784,789,797,810,827,865,967,1029,1073,1097,1114,1120,1129,1141,1157,1163,1158],"ymouse":[529,529,529,528,528,528,528,528,528,528,528,527,527,527,526,526,526,526,526,526,526,526,526,526,526,526,525,517,506,491,472,430,348,307,277,259,236,224,207,186,153,127,77],"timestamp_mouse":[12,25,45,65,86,104,125,145,166,186,206,225,246,265,286,305,326,345,365,385,406,425,445,465,486,506,524,544,566,584,606,625,645,665,686,704,726,745,766,785,804,824,844],"xSR":741.5,"ySR":469.95,"xT1":424.9,"yT1":0,"xT2":1058.1,"yT2":0,"toosoon":0,"cond_shown":"Congruent","ratio_trial":100,"L_num":4,"L_den":8,"R_num":6,"R_den":10,"correct_side":2,"subjID":"juandavidguerreroforero8","gender":"0","school":"4","age":"9"},{"start_time":1552073094629,"click_time":1552073095570,"finger_time":1552073095191,"fix_duration":1396.4157921803726,"trial":11,"RT":562,"MT":379,"sideResp":1,"stimulus":[],"xmouse":[785,785,785,785,785,785,785,785,785,785,785,785,785,785,785,785,785,785,785,785,785,785,785,785,785,784,783,782,775,760,746,726,700,673,667,663,660,660,659,653,646,634,625,602,586,563,539,522],"ymouse":[485,485,485,485,485,485,485,485,485,485,485,485,485,485,485,485,485,485,485,485,485,485,485,485,485,482,481,477,458,430,409,381,345,284,256,231,208,189,166,156,151,146,143,131,122,107,90,77],"timestamp_mouse":[10,22,41,63,82,102,121,141,161,182,202,223,243,262,283,301,322,343,361,382,403,423,442,462,483,503,522,542,562,582,602,622,642,662,681,702,722,741,762,783,802,823,842,862,881,902,922,941],"xSR":741.5,"ySR":469.95,"xT1":424.9,"yT1":0,"xT2":1058.1,"yT2":0,"toosoon":0,"cond_shown":"Congruent","ratio_trial":300,"L_num":11,"L_den":22,"R_num":2,"R_den":10,"correct_side":1,"subjID":"juandavidguerreroforero8","gender":"0","school":"4","age":"9"},{"start_time":1552073098524,"click_time":1552073100331,"finger_time":1552073099972,"fix_duration":250,"trial":12,"RT":1448,"MT":359,"sideResp":2,"stimulus":[],"xmouse":[767,767,767,767,767,767,767,767,767,767,767,767,767,767,767,767,767,767,767,767,767,767,767,767,767,767,767,767,767,767,767,767,767,767,767,767,767,767,767,767,767,767,767,767,767,767,767,767,767,767,767,767,767,767,767,767,767,767,767,767,767,767,767,767,775,778,779,780,780,780,783,792,820,843,892,927,968,1006,1063,1075,1082,1086,1088,1089,1089,1090,1091,1094,1095,1097,1098],"ymouse":[539,539,539,539,539,539,539,539,539,539,539,539,539,539,539,539,539,539,539,539,539,539,539,539,539,539,538,538,538,538,538,538,538,538,538,538,538,538,538,538,538,538,538,538,538,538,538,538,538,538,538,538,538,538,538,538,538,538,538,538,538,538,538,537,528,523,520,519,518,518,514,501,469,442,387,345,296,249,182,166,156,151,147,144,144,142,137,131,123,106,99],"timestamp_mouse":[12,42,47,67,86,108,126,148,168,188,206,228,248,267,286,308,328,347,368,388,407,427,448,468,487,506,528,548,566,586,608,628,648,668,688,707,727,746,768,787,808,827,847,867,888,908,927,948,968,987,1006,1027,1047,1068,1087,1107,1128,1147,1168,1188,1208,1227,1247,1266,1288,1306,1328,1347,1368,1386,1406,1427,1448,1467,1487,1507,1528,1546,1568,1588,1608,1626,1647,1667,1687,1706,1727,1747,1768,1786,1807],"xSR":741.5,"ySR":469.95,"xT1":424.9,"yT1":0,"xT2":1058.1,"yT2":0,"toosoon":0,"cond_shown":"Incongruent","ratio_trial":100,"L_num":12,"L_den":24,"R_num":9,"R_den":15,"correct_side":2,"subjID":"juandavidguerreroforero8","gender":"0","school":"4","age":"9"},{"start_time":1552073103157,"click_time":1552073104691,"finger_time":1552073104271,"fix_duration":1465.9865424339878,"trial":13,"RT":1114,"MT":420,"sideResp":1,"stimulus":[],"xmouse":[802,802,802,802,802,802,802,802,802,802,802,802,802,802,802,802,802,802,802,802,802,802,802,802,802,802,802,802,802,802,802,802,802,802,802,802,802,802,802,802,801,801,801,801,801,801,801,801,801,801,801,801,801,801,801,801,797,769,749,719,692,663,632,623,612,598,582,572,572,572,572,572,572,572,545,533,519],"ymouse":[510,510,510,510,510,510,510,510,510,510,510,510,510,510,510,510,510,510,510,510,510,510,510,510,510,510,510,510,510,510,510,510,510,510,510,510,510,510,510,510,510,509,507,506,506,506,506,506,506,506,506,505,498,491,482,468,449,369,321,270,220,172,108,86,63,39,18,2,2,2,2,2,2,2,3,9,20],"timestamp_mouse":[15,41,54,75,95,115,135,154,174,194,213,233,254,274,295,313,335,354,373,395,415,435,455,474,495,514,534,554,573,594,615,635,655,675,695,713,733,754,774,794,815,833,853,874,895,915,934,953,975,994,1014,1033,1054,1073,1093,1114,1134,1155,1174,1194,1214,1234,1254,1273,1294,1314,1333,1353,1373,1394,1413,1434,1454,1474,1494,1514,1533],"xSR":741.5,"ySR":469.95,"xT1":424.9,"yT1":0,"xT2":1058.1,"yT2":0,"toosoon":0,"cond_shown":"Incongruent","ratio_trial":100,"L_num":13,"L_den":26,"R_num":6,"R_den":10,"correct_side":2,"subjID":"juandavidguerreroforero8","gender":"0","school":"4","age":"9"},{"start_time":1552073107203,"click_time":1552073107931,"finger_time":1552073107711,"fix_duration":1370.7613733485396,"trial":14,"RT":508,"MT":220,"sideResp":2,"stimulus":[],"xmouse":[771,771,771,771,771,771,771,771,771,771,771,771,771,771,771,771,771,771,771,771,775,786,800,815,829,844,888,905,926,953,979,1048,1077,1103,1121,1142,1158],"ymouse":[500,500,500,500,500,500,500,500,500,500,500,500,500,500,500,500,500,500,500,500,500,499,494,490,482,474,436,417,392,360,324,232,191,155,131,106,84],"timestamp_mouse":[13,38,48,68,89,107,128,149,168,187,209,229,248,268,289,309,329,349,369,387,408,428,448,468,489,508,528,548,569,588,607,627,648,668,687,707,727],"xSR":741.5,"ySR":469.95,"xT1":424.9,"yT1":0,"xT2":1058.1,"yT2":0,"toosoon":0,"cond_shown":"Incongruent","ratio_trial":300,"L_num":13,"L_den":26,"R_num":12,"R_den":15,"correct_side":2,"subjID":"juandavidguerreroforero8","gender":"0","school":"4","age":"9"},{"start_time":1552073109914,"click_time":1552073111071,"finger_time":1552073110932,"fix_duration":580.3914858038729,"trial":15,"RT":1018,"MT":139,"sideResp":2,"stimulus":[],"xmouse":[796,796,796,796,796,796,796,796,796,796,796,796,796,796,796,796,796,796,796,796,796,796,796,796,796,796,796,796,796,796,796,796,796,796,796,796,796,796,796,796,796,796,796,796,796,796,796,801,814,830,899,946,991,1028,1060,1113,1131,1144],"ymouse":[537,537,537,537,537,537,537,537,537,537,537,537,537,537,537,537,537,537,537,537,537,537,537,537,537,537,537,537,537,537,537,537,537,537,537,537,537,537,537,537,537,537,537,537,537,537,537,529,512,489,406,350,296,244,200,127,102,79],"timestamp_mouse":[17,42,57,78,97,118,138,158,178,197,218,238,257,277,297,318,338,357,377,398,418,437,458,477,498,518,537,558,576,597,618,638,658,678,697,718,738,757,778,797,818,837,858,878,898,918,937,956,977,997,1018,1036,1057,1076,1098,1117,1138,1157],"xSR":741.5,"ySR":469.95,"xT1":424.9,"yT1":0,"xT2":1058.1,"yT2":0,"toosoon":0,"cond_shown":"Congruent","ratio_trial":100,"L_num":2,"L_den":5,"R_num":6,"R_den":12,"correct_side":2,"subjID":"juandavidguerreroforero8","gender":"0","school":"4","age":"9"},{"start_time":1552073113055,"click_time":1552073114732,"finger_time":1552073113531,"fix_duration":822.9121015531988,"trial":16,"RT":476,"MT":1201,"sideResp":1,"stimulus":[],"xmouse":[775,775,775,775,775,775,775,775,775,775,776,776,777,778,781,782,782,783,783,784,786,792,802,834,855,874,885,891,893,893,893,893,893,863,840,825,822,818,806,790,776,763,753,746,742,742,742,742,742,742,742,742,742,742,742,735,714,677,625,430,336,279,264,263,263,263,263,264,297,312,328,340,346,352,360,370,381,389,394,403,408,414,421,442],"ymouse":[543,543,543,543,543,543,543,543,543,543,543,543,542,541,538,536,536,535,535,533,530,520,506,462,431,400,379,364,358,358,358,358,358,358,358,358,358,360,368,373,377,381,384,385,386,386,386,386,386,386,386,386,386,386,383,375,360,335,300,186,130,92,78,72,71,71,71,70,58,53,49,48,47,47,51,55,61,64,65,67,67,69,70,72],"timestamp_mouse":[21,38,56,77,97,117,136,156,176,197,216,237,255,276,296,315,335,356,376,396,415,435,456,476,497,515,536,556,576,595,615,635,655,677,695,716,736,757,776,796,816,837,856,876,896,916,936,956,976,997,1017,1037,1056,1076,1096,1116,1136,1157,1176,1196,1216,1236,1256,1277,1295,1315,1336,1356,1376,1396,1416,1436,1455,1476,1495,1516,1536,1555,1575,1596,1616,1636,1656,1676],"xSR":741.5,"ySR":469.95,"xT1":424.9,"yT1":0,"xT2":1058.1,"yT2":0,"toosoon":0,"cond_shown":"Congruent","ratio_trial":300,"L_num":12,"L_den":24,"R_num":2,"R_den":10,"correct_side":1,"subjID":"juandavidguerreroforero8","gender":"0","school":"4","age":"9"},{"start_time":1552073116655,"click_time":1552073117971,"finger_time":1552073117670,"fix_duration":823.0427003303016,"trial":17,"RT":1015,"MT":301,"sideResp":2,"stimulus":[],"xmouse":[800,800,799,799,799,799,799,799,799,799,799,799,799,799,799,799,799,799,799,799,799,799,799,799,799,799,799,799,799,799,799,798,798,798,798,798,798,798,798,798,798,798,798,798,798,801,803,808,824,835,847,858,872,900,913,928,937,958,972,983,993,1003,1016,1050,1076],"ymouse":[523,523,523,523,523,523,523,523,523,523,523,523,523,523,523,523,523,523,523,523,523,523,523,523,523,523,523,523,523,523,523,522,522,522,522,522,522,522,522,522,522,522,521,521,519,515,512,503,475,455,433,411,386,336,313,288,276,249,232,218,199,183,164,115,84],"timestamp_mouse":[44,55,77,95,117,137,156,177,196,217,235,256,277,297,316,337,356,375,397,417,436,457,475,508,515,535,557,576,596,617,636,657,677,695,715,737,757,777,796,817,837,856,877,895,916,935,957,976,996,1015,1036,1056,1077,1096,1116,1136,1156,1178,1196,1215,1237,1257,1276,1296,1315],"xSR":741.5,"ySR":469.95,"xT1":424.9,"yT1":0,"xT2":1058.1,"yT2":0,"toosoon":0,"cond_shown":"Incongruent","ratio_trial":200,"L_num":14,"L_den":30,"R_num":12,"R_den":18,"correct_side":2,"subjID":"juandavidguerreroforero8","gender":"0","school":"4","age":"9"},{"start_time":1552073119792,"click_time":1552073122031,"finger_time":1552073121251,"fix_duration":600.3273159575973,"trial":18,"RT":1459,"MT":780,"sideResp":1,"stimulus":[],"xmouse":[753,753,753,753,753,753,753,753,753,753,753,753,753,753,753,753,753,753,753,753,753,753,753,753,753,753,753,753,753,752,749,747,744,743,743,743,743,744,745,745,745,745,745,745,745,745,745,748,750,751,751,752,755,756,756,756,756,756,756,756,756,756,756,756,756,756,756,756,756,756,756,758,759,759,760,761,764,768,769,769,761,756,752,752,752,751,749,742,736,734,732,730,707,692,677,669,661,634,600,589,589,589,592,592,592,592,586,571,566,557,540,518],"ymouse":[525,525,525,525,525,525,525,525,525,525,525,525,525,525,525,525,525,525,525,525,525,525,525,525,525,525,524,520,516,510,504,500,489,486,482,479,475,473,472,472,472,472,472,472,472,472,472,471,471,471,471,471,471,471,471,471,471,471,471,471,471,471,471,471,471,471,471,471,471,471,471,471,469,467,466,464,458,436,401,376,351,331,302,290,279,268,258,238,227,222,220,218,212,206,199,194,188,164,135,124,115,112,100,95,91,87,85,82,82,82,82,80],"timestamp_mouse":[19,40,59,80,98,119,140,160,179,200,220,239,258,280,299,319,339,358,379,400,420,439,458,479,500,519,539,558,579,598,619,639,659,678,699,718,738,758,780,798,819,840,860,879,899,920,938,958,978,999,1019,1038,1059,1078,1098,1119,1139,1159,1180,1198,1219,1238,1259,1278,1298,1319,1339,1359,1379,1403,1420,1438,1459,1480,1499,1519,1540,1560,1579,1599,1619,1639,1658,1678,1699,1719,1739,1759,1780,1800,1819,1839,1860,1878,1899,1919,1939,1960,1980,1999,2019,2040,2059,2080,2099,2119,2140,2160,2180,2199,2220,2239],"xSR":741.5,"ySR":469.95,"xT1":424.9,"yT1":0,"xT2":1058.1,"yT2":0,"toosoon":0,"cond_shown":"Incongruent","ratio_trial":300,"L_num":4,"L_den":20,"R_num":2,"R_den":4,"correct_side":2,"subjID":"juandavidguerreroforero8","gender":"0","school":"4","age":"9"},{"start_time":1552073125144,"click_time":1552073127054,"finger_time":1552073126611,"fix_duration":991.0081573321013,"trial":19,"RT":1467,"MT":443,"sideResp":2,"stimulus":[],"xmouse":[776,776,776,776,776,776,776,776,776,776,776,776,776,776,776,776,776,776,776,776,776,776,776,776,776,776,776,776,776,776,776,776,776,776,776,776,776,776,776,776,776,776,776,776,776,776,776,776,776,776,776,776,776,776,776,776,776,776,776,776,776,776,776,776,776,776,776,777,777,783,790,816,833,852,868,899,914,926,936,944,948,956,961,966,972,993,1003,1010,1015,1021,1030,1049,1061,1077,1091,1108],"ymouse":[542,542,542,542,542,542,542,542,542,542,542,542,542,542,542,542,542,542,542,542,542,542,542,542,542,542,542,542,542,542,542,542,542,542,542,542,542,542,542,542,542,542,542,542,542,542,542,542,542,542,542,542,542,542,542,542,542,542,542,542,542,542,542,542,542,542,542,541,538,529,522,491,472,448,427,385,364,349,333,321,313,298,289,277,265,237,224,211,198,189,181,168,154,135,119,99],"timestamp_mouse":[10,26,47,67,88,107,127,146,167,186,208,228,247,268,287,307,327,346,367,387,407,427,447,467,487,508,526,546,567,588,606,626,646,667,687,707,727,747,767,787,806,827,847,867,887,907,928,948,967,987,1007,1028,1048,1068,1088,1107,1128,1148,1167,1188,1208,1228,1247,1268,1288,1307,1326,1348,1367,1387,1407,1427,1447,1467,1487,1509,1528,1548,1567,1588,1607,1628,1647,1668,1686,1708,1728,1747,1766,1787,1807,1827,1847,1867,1887,1909],"xSR":741.5,"ySR":469.95,"xT1":424.9,"yT1":0,"xT2":1058.1,"yT2":0,"toosoon":0,"cond_shown":"Incongruent","ratio_trial":100,"L_num":9,"L_den":15,"R_num":14,"R_den":28,"correct_side":1,"subjID":"juandavidguerreroforero8","gender":"0","school":"4","age":"9"},{"start_time":1552073131423,"click_time":1552073140393,"finger_time":1552073131465,"fix_duration":291.1960993906141,"trial":20,"RT":42,"MT":8928,"sideResp":2,"stimulus":[],"xmouse":[807,801,801,788,785,783,780,777,777,777,777,777,777,777,777,777,777,777,777,777,777,777,777,777,777,777,777,777,777,777,777,793,795,795,795,795,795,795,795,795,795,795,795,804,804,804,804,804,804,804,804,804,804,804,804,804,804,804,804,804,1089,1093,1093,1093,1092,1091,1086,1079,1052,1035,1008,973,859,819,788,768,757,755,755,755,753,753,753,753,753,753,753,753,753,753,753,753,753,752,752,752,756,771,786,806,826,851,887,926,937,943,947,951,959,961,962,962,962,962,962,962,962,962,962,962,962,962,962,963,963,962,962,962,962,962,962,962,962,961,961,961,961,961,961,961,960,960,960,960,959,959,959,959,959,959,959,959,959,959,959,959,959,959,959,959,959,959,959,960,961,961,961,961,961,961,961,963,964,966,966,966,966,966,966,966,966,966,966,966,966,966,966,966,966,963,960,956,954,953,953,953,953,953,953,953,953,953,953,953,956,962,969,972,972,972,972,972,972,972,972,972,972,972,972,972,972,972,972,972,972,972,972,972,972,972,972,972,972,972,968,960,956,955,952,951,947,946,946,946,946,946,946,946,946,946,946,946,946,946,946,946,946,946,946,946,946,946,946,946,946,947,953,960,963,957,955,955,955,932,908,888,873,861,836,822,800,786,775,748,738,735,735,735,735,735,735,735,735,735,735,736,736,736,748,757,765,768,772,782,783,783,783,783,783,783,782,775,772,766,766,766,766,766,766,766,766,767,768,768,768,768,768,768,771,772,772,772,773,774,774,774,774,774,774,774,774,774,774,774,774,774,774,774,774,774,774,775,776,783,786,787,787,787,789,791,793,793,793,793,793,793,793,793,793,791,790,789,788,788,788,788,788,788,788,788,788,788,788,788,788,788,788,788,788,788,788,788,788,788,788,788,788,788,788,788,788,788,788,788,788,788,788,788,788,788,788,788,788,788,788,788,788,788,788,788,788,788,790,798,808,817,828,834,847,857,869,884,901,945,976,1003,1032,1060,1091,1102,1113,1120,1125,1128,1129,1129,1124,1111,1069],"ymouse":[567,590,590,640,658,674,696,719,719,719,719,719,719,719,719,719,719,719,719,719,719,719,719,719,719,719,719,719,719,719,719,718,714,713,713,713,713,713,713,713,713,713,713,719,719,719,719,719,719,719,719,719,719,719,719,719,719,719,719,719,720,720,720,720,720,720,719,718,710,696,678,655,625,621,621,621,620,619,618,614,611,610,610,610,610,610,610,610,610,610,610,610,610,612,612,613,614,614,614,614,614,614,616,623,625,625,626,626,627,627,627,627,627,627,627,627,627,627,627,627,627,627,627,628,628,629,629,629,629,629,629,629,629,629,629,629,629,629,629,629,629,630,632,633,634,634,634,634,634,634,634,634,634,634,634,634,634,634,634,634,634,634,636,638,638,638,638,638,638,638,639,641,642,643,643,643,643,643,643,643,643,643,643,643,643,643,644,644,651,658,664,671,675,676,676,676,676,676,676,676,676,676,676,676,676,673,671,669,669,669,669,669,669,669,669,669,669,669,669,669,669,669,669,669,669,669,669,669,669,669,669,669,669,669,669,669,669,669,669,669,670,670,670,670,670,670,670,670,670,670,670,670,670,670,670,670,670,670,670,670,670,670,670,670,669,664,653,635,602,589,587,587,587,587,587,586,586,585,581,576,563,547,524,461,430,409,398,394,394,394,394,394,394,394,405,422,442,466,505,510,510,510,510,507,507,507,507,507,507,507,507,507,507,507,507,507,507,507,507,507,507,507,507,507,507,507,507,507,507,507,507,507,507,507,507,507,507,507,507,507,507,507,507,507,507,507,507,507,507,507,509,511,512,512,512,513,513,513,515,515,515,515,515,515,515,515,515,516,517,518,520,521,521,522,522,522,522,522,522,522,522,522,522,522,522,522,522,522,522,522,522,522,522,522,522,522,522,522,522,524,526,527,528,528,528,528,528,528,528,528,528,528,528,528,528,528,528,528,528,528,528,528,525,510,495,482,469,460,436,421,405,385,363,315,290,267,243,219,191,181,172,166,161,156,152,144,131,112,60],"timestamp_mouse":[14,42,47,67,88,109,129,148,167,187,208,228,248,267,288,308,329,348,367,389,408,429,449,468,488,508,529,549,567,589,608,628,649,667,688,709,728,748,769,788,807,827,847,867,887,908,929,948,968,988,1008,1028,1048,1068,1089,1108,1129,1148,1168,1188,1209,1229,1248,1268,1288,1308,1327,1348,1367,1389,1407,1429,1448,1468,1488,1508,1529,1547,1567,1587,1608,1629,1649,1669,1688,1708,1727,1749,1768,1788,1808,1828,1849,1868,1888,1909,1929,1949,1968,1987,2007,2029,2048,2068,2088,2108,2129,2147,2168,2187,2208,2229,2249,2268,2289,2309,2329,2349,2367,2387,2408,2428,2449,2468,2488,2508,2528,2549,2568,2587,2608,2629,2649,2667,2688,2709,2729,2748,2768,2788,2808,2828,2849,2868,2888,2909,2927,2947,2969,2989,3009,3029,3048,3068,3088,3108,3128,3149,3167,3188,3208,3229,3249,3268,3288,3308,3327,3349,3369,3389,3407,3428,3448,3468,3487,3508,3529,3548,3568,3589,3609,3628,3647,3667,3688,3708,3727,3749,3767,3788,3808,3829,3848,3869,3888,3909,3929,3948,3967,3988,4008,4029,4049,4067,4089,4108,4128,4149,4168,4189,4208,4227,4249,4268,4289,4308,4328,4349,4368,4387,4407,4428,4449,4469,4489,4508,4529,4550,4567,4588,4609,4629,4648,4669,4689,4708,4727,4748,4768,4788,4808,4828,4848,4868,4889,4908,4929,4949,4968,4988,5009,5029,5048,5068,5088,5108,5127,5148,5167,5188,5209,5229,5248,5267,5287,5308,5328,5348,5368,5389,5409,5428,5448,5469,5489,5508,5528,5548,5568,5588,5608,5629,5648,5667,5688,5709,5729,5748,5768,5788,5809,5828,5849,5868,5888,5909,5928,5949,5968,5988,6008,6029,6049,6068,6088,6107,6127,6149,6168,6189,6208,6229,6248,6268,6288,6309,6328,6347,6369,6388,6408,6428,6448,6467,6488,6509,6528,6548,6568,6587,6609,6629,6648,6669,6687,6708,6729,6748,6769,6787,6808,6829,6848,6868,6888,6910,6929,6949,6969,6990,7009,7030,7049,7069,7088,7109,7129,7150,7169,7188,7208,7229,7250,7270,7289,7308,7329,7349,7368,7388,7409,7429,7448,7469,7489,7508,7530,7550,7568,7588,7610,7629,7648,7668,7688,7710,7728,7749,7769,7789,7808,7829,7850,7869,7889,7910,7928,7949,7969,7989,8009,8030,8050,8068,8088,8109,8128,8149,8169,8190,8209,8229,8249,8269,8289,8309,8329,8349,8368,8390,8410,8430,8448,8468,8489,8508,8528,8548,8570,8588,8608,8629,8648,8668,8688,8708,8730,8749,8769,8790,8808,8829,8849,8869,8888,8909,8930,8950,8969],"xSR":741.5,"ySR":469.95,"xT1":424.9,"yT1":0,"xT2":1058.1,"yT2":0,"toosoon":0,"cond_shown":"Incongruent","ratio_trial":300,"L_num":4,"L_den":5,"R_num":6,"R_den":12,"correct_side":1,"subjID":"juandavidguerreroforero8","gender":"0","school":"4","age":"9"},{"start_time":1552073142743,"click_time":1552073144512,"finger_time":1552073144112,"fix_duration":810.6135860614575,"trial":21,"RT":1369,"MT":400,"sideResp":1,"stimulus":[],"xmouse":[785,785,785,785,785,785,785,785,785,785,785,785,785,785,785,785,785,785,785,785,785,785,785,785,785,785,785,785,785,785,785,785,785,785,785,785,785,785,785,785,785,785,785,785,785,785,785,785,785,785,785,785,785,785,785,785,785,785,785,785,785,785,785,785,785,785,785,762,691,620,567,536,531,529,528,527,525,523,521,521,521,523,525,525,525,525,517,506,484],"ymouse":[507,507,507,507,507,507,507,507,507,507,507,507,507,507,507,507,507,507,507,507,507,507,507,507,507,507,507,507,507,507,507,507,507,507,507,507,507,507,507,507,507,507,507,507,507,507,507,507,507,507,507,507,507,507,507,507,507,507,507,507,507,507,507,507,507,507,507,490,434,382,343,303,284,254,243,235,227,215,209,206,201,192,184,179,172,159,143,125,93],"timestamp_mouse":[13,36,49,69,90,109,129,150,169,189,210,228,248,270,288,310,328,348,370,389,409,428,449,468,488,508,529,550,569,589,610,629,650,669,689,708,730,748,769,790,809,828,848,870,889,909,929,948,968,989,1009,1028,1050,1069,1089,1110,1130,1149,1169,1190,1209,1230,1249,1268,1288,1310,1328,1350,1369,1389,1409,1428,1448,1468,1488,1509,1529,1550,1569,1590,1609,1630,1650,1669,1688,1709,1729,1749,1769],"xSR":741.5,"ySR":469.95,"xT1":424.9,"yT1":0,"xT2":1058.1,"yT2":0,"toosoon":0,"cond_shown":"Congruent","ratio_trial":200,"L_num":8,"L_den":15,"R_num":3,"R_den":9,"correct_side":1,"subjID":"juandavidguerreroforero8","gender":"0","school":"4","age":"9"},{"start_time":1552073146297,"click_time":1552073147712,"finger_time":1552073147152,"fix_duration":683.4055441084746,"trial":22,"RT":855,"MT":560,"sideResp":2,"stimulus":[],"xmouse":[781,781,781,781,781,781,781,781,781,781,781,781,781,781,781,781,781,781,781,781,781,781,781,781,782,782,782,782,782,782,782,782,782,782,782,782,784,785,786,788,808,822,848,868,896,948,968,984,1003,1015,1023,1025,1026,1028,1033,1044,1050,1053,1054,1055,1056,1060,1063,1069,1072,1082,1088,1093,1099,1101,1107],"ymouse":[530,530,530,530,530,530,530,530,530,530,530,530,530,530,530,530,530,530,530,530,530,530,530,530,530,530,530,530,530,530,530,530,530,530,530,530,530,530,530,528,519,512,496,480,457,410,388,365,341,322,308,299,296,291,282,261,249,238,229,223,213,201,192,180,170,149,137,128,117,107,86],"timestamp_mouse":[15,34,54,75,96,116,135,155,175,195,216,234,254,275,296,315,334,354,375,396,415,436,455,474,495,516,536,555,576,595,614,635,655,676,695,714,735,755,774,796,814,835,855,876,895,914,935,956,975,996,1016,1034,1054,1075,1094,1115,1134,1155,1174,1195,1214,1234,1254,1275,1295,1315,1334,1355,1375,1396,1415],"xSR":741.5,"ySR":469.95,"xT1":424.9,"yT1":0,"xT2":1058.1,"yT2":0,"toosoon":0,"cond_shown":"Congruent","ratio_trial":300,"L_num":1,"L_den":30,"R_num":8,"R_den":24,"correct_side":2,"subjID":"juandavidguerreroforero8","gender":"0","school":"4","age":"9"},{"start_time":1552073150017,"click_time":1552073151631,"finger_time":1552073151012,"fix_duration":822.1781458733876,"trial":23,"RT":995,"MT":619,"sideResp":1,"stimulus":[],"xmouse":[789,789,789,789,789,789,789,789,789,789,789,789,789,789,789,789,789,789,789,789,789,789,789,789,789,789,789,789,789,789,789,789,789,789,789,789,789,789,789,789,789,789,789,790,790,790,791,792,792,784,774,762,749,730,678,559,515,504,501,501,501,500,497,496,496,496,496,496,496,496,496,496,496,496,496,496,496,496,496,495,479],"ymouse":[518,518,518,518,518,518,518,518,518,518,518,518,518,518,518,518,518,518,518,518,518,518,518,519,519,519,519,519,519,519,519,519,519,519,519,519,519,519,519,517,508,501,494,489,488,486,485,480,472,442,421,400,378,348,279,164,126,110,104,103,103,103,103,103,103,103,103,103,103,103,103,103,103,103,103,103,103,103,103,101,82],"timestamp_mouse":[15,42,55,75,95,115,135,155,175,195,215,236,256,274,295,314,334,354,375,394,416,434,456,475,496,515,535,554,576,595,615,636,654,676,695,714,735,754,776,795,814,836,855,875,894,915,934,954,975,995,1014,1035,1054,1074,1094,1115,1134,1155,1175,1195,1215,1234,1255,1274,1296,1315,1336,1355,1374,1395,1414,1435,1455,1475,1496,1516,1536,1555,1575,1594,1614],"xSR":741.5,"ySR":469.95,"xT1":424.9,"yT1":0,"xT2":1058.1,"yT2":0,"toosoon":0,"cond_shown":"Incongruent","ratio_trial":100,"L_num":13,"L_den":26,"R_num":6,"R_den":10,"correct_side":2,"subjID":"juandavidguerreroforero8","gender":"0","school":"4","age":"9"},{"start_time":1552073153831,"click_time":1552073155113,"finger_time":1552073154091,"fix_duration":1238.2244772488787,"trial":24,"RT":260,"MT":1022,"sideResp":2,"stimulus":[],"xmouse":[805,804,804,802,799,798,796,796,796,794,779,765,747,738,736,736,736,736,736,736,736,736,738,740,744,750,753,757,761,761,761,761,761,761,763,769,775,777,779,779,779,779,779,779,779,779,781,783,792,806,842,864,870,892,906,935,945,958,972,988,1014,1028,1041,1052,1059],"ymouse":[516,516,516,516,516,516,515,515,515,515,515,517,521,521,521,521,521,521,521,521,521,521,521,521,521,521,519,518,517,517,517,517,517,517,516,514,511,509,509,509,509,509,509,509,509,509,509,509,504,493,460,429,417,376,343,280,256,234,210,181,130,96,81,71,69],"timestamp_mouse":[10,39,40,61,81,101,120,142,160,180,201,222,241,260,280,301,321,342,362,381,400,420,440,460,480,501,522,542,562,582,602,620,641,660,681,701,721,741,762,781,802,820,842,862,881,901,921,942,961,980,1000,1020,1040,1061,1080,1101,1120,1141,1161,1181,1200,1220,1240,1262,1282],"xSR":741.5,"ySR":469.95,"xT1":424.9,"yT1":0,"xT2":1058.1,"yT2":0,"toosoon":0,"cond_shown":"Incongruent","ratio_trial":200,"L_num":14,"L_den":30,"R_num":12,"R_den":18,"correct_side":2,"subjID":"juandavidguerreroforero8","gender":"0","school":"4","age":"9"},{"start_time":1552073157018,"click_time":1552073158152,"finger_time":1552073157631,"fix_duration":924.0599442629982,"trial":25,"RT":613,"MT":521,"sideResp":2,"stimulus":[],"xmouse":[786,785,785,784,784,784,782,781,780,779,779,779,778,777,777,776,775,774,773,769,766,765,763,763,763,768,778,790,797,805,807,807,808,812,816,829,840,852,863,892,904,916,928,942,965,975,986,996,1005,1025,1032,1039,1046,1055,1065,1084],"ymouse":[519,515,515,514,514,513,513,513,513,513,513,513,513,513,513,513,513,513,513,513,514,514,515,515,515,513,505,492,479,453,449,447,444,438,432,399,382,365,350,325,316,305,297,286,262,250,238,224,215,188,177,165,155,139,121,83],"timestamp_mouse":[37,54,74,93,114,134,153,174,193,214,234,253,274,294,314,335,354,373,393,414,435,453,475,494,514,534,554,574,593,613,634,653,674,694,714,733,754,773,794,814,833,853,873,893,914,933,953,974,995,1015,1034,1053,1075,1093,1114,1133],"xSR":741.5,"ySR":469.95,"xT1":424.9,"yT1":0,"xT2":1058.1,"yT2":0,"toosoon":0,"cond_shown":"Congruent","ratio_trial":300,"L_num":8,"L_den":15,"R_num":10,"R_den":12,"correct_side":2,"subjID":"juandavidguerreroforero8","gender":"0","school":"4","age":"9"},{"start_time":1552073160012,"click_time":1552073161372,"finger_time":1552073160752,"fix_duration":778.0186754045644,"trial":26,"RT":740,"MT":620,"sideResp":2,"stimulus":[],"xmouse":[786,786,786,786,786,786,786,786,786,786,786,786,786,786,786,786,786,786,786,786,786,786,786,786,786,786,786,786,788,789,792,795,795,796,798,798,801,803,803,800,800,799,797,797,805,815,822,843,860,867,895,919,971,996,1020,1035,1054,1058,1060,1061,1064,1070,1086,1089,1090,1091,1091,1091,1091],"ymouse":[530,530,530,530,530,530,530,530,530,530,530,530,530,530,530,529,529,529,529,529,529,529,529,529,529,529,529,528,525,524,520,515,513,511,506,498,476,461,446,427,424,412,387,370,354,341,334,322,315,312,300,290,265,248,229,215,191,186,181,179,172,161,132,119,111,104,102,100,97],"timestamp_mouse":[11,20,39,59,80,99,121,139,159,180,200,220,240,260,281,300,321,340,360,380,400,421,441,461,480,501,521,541,560,580,600,621,640,660,681,699,720,740,761,779,800,820,840,859,879,900,919,939,959,979,999,1019,1040,1060,1081,1101,1120,1140,1160,1180,1200,1219,1239,1260,1279,1299,1319,1339,1360],"xSR":741.5,"ySR":469.95,"xT1":424.9,"yT1":0,"xT2":1058.1,"yT2":0,"toosoon":0,"cond_shown":"Congruent","ratio_trial":100,"L_num":12,"L_den":30,"R_num":13,"R_den":26,"correct_side":2,"subjID":"juandavidguerreroforero8","gender":"0","school":"4","age":"9"},{"start_time":1552073162384,"click_time":1552073163431,"finger_time":1552073163232,"fix_duration":250,"trial":27,"RT":848,"MT":199,"sideResp":2,"stimulus":[],"xmouse":[791,791,791,791,791,791,791,791,791,791,791,791,791,791,791,791,791,791,791,791,791,791,791,791,791,791,791,791,791,791,791,791,791,791,792,795,797,802,811,817,822,825,829,841,851,864,879,895,934,976,1011,1053,1092],"ymouse":[498,498,498,498,498,498,498,498,498,498,498,498,498,498,498,498,498,498,498,498,498,498,498,498,498,498,498,498,498,498,498,498,498,498,497,494,492,489,481,476,472,470,466,451,440,425,407,387,323,251,188,130,77],"timestamp_mouse":[8,34,49,69,88,108,129,147,168,187,207,229,247,269,288,307,328,349,369,388,408,428,448,469,487,507,527,548,568,588,608,628,649,668,688,708,728,747,768,788,807,829,848,867,887,907,927,948,967,989,1007,1028,1047],"xSR":741.5,"ySR":469.95,"xT1":424.9,"yT1":0,"xT2":1058.1,"yT2":0,"toosoon":0,"cond_shown":"Incongruent","ratio_trial":200,"L_num":4,"L_den":5,"R_num":6,"R_den":10,"correct_side":1,"subjID":"juandavidguerreroforero8","gender":"0","school":"4","age":"9"},{"start_time":1552073165810,"click_time":1552073166672,"finger_time":1552073166332,"fix_duration":1176.8423485792043,"trial":28,"RT":522,"MT":340,"sideResp":1,"stimulus":[],"xmouse":[783,783,783,783,783,783,783,783,783,783,783,783,783,783,783,783,783,783,783,783,783,783,783,778,769,757,740,704,690,678,666,652,640,627,622,617,612,605,579,568,558,549,525,513],"ymouse":[519,519,519,519,519,519,519,519,519,519,519,519,519,519,519,519,519,519,519,519,519,516,508,500,492,484,474,451,440,426,411,395,381,358,347,335,317,293,237,213,190,164,113,92],"timestamp_mouse":[9,22,42,61,82,102,123,142,162,182,203,221,242,261,281,303,322,341,363,383,401,421,441,462,483,501,522,542,562,582,601,622,642,662,682,702,723,742,761,781,802,822,842,862],"xSR":741.5,"ySR":469.95,"xT1":424.9,"yT1":0,"xT2":1058.1,"yT2":0,"toosoon":0,"cond_shown":"Congruent","ratio_trial":100,"L_num":12,"L_den":30,"R_num":13,"R_den":26,"correct_side":2,"subjID":"juandavidguerreroforero8","gender":"0","school":"4","age":"9"},{"start_time":1552073167825,"click_time":1552073169413,"finger_time":1552073168752,"fix_duration":250,"trial":29,"RT":927,"MT":661,"sideResp":2,"stimulus":[],"xmouse":[767,767,767,767,767,767,767,766,764,762,761,758,757,757,757,757,757,757,757,757,757,757,757,757,757,757,757,757,757,757,757,757,759,761,762,763,763,763,764,764,764,764,766,769,776,787,807,811,814,822,832,846,877,891,905,919,944,949,951,954,959,981,991,999,1006,1015,1025,1049,1060,1066,1069,1074,1076,1077,1077,1077,1079,1083,1085,1086],"ymouse":[519,519,519,519,519,519,519,520,520,521,521,522,523,523,523,523,523,523,523,523,523,523,523,523,523,523,523,523,523,523,523,522,520,519,517,517,516,516,516,515,514,513,510,507,499,489,469,460,447,430,411,392,356,340,320,299,247,235,230,226,220,201,194,188,185,181,176,161,154,149,146,144,136,134,132,130,125,115,106,96],"timestamp_mouse":[12,26,46,66,86,108,126,146,167,188,207,227,246,267,288,307,326,347,367,386,407,427,447,466,486,508,527,547,566,587,608,626,646,667,687,707,728,747,767,787,808,828,846,868,887,907,927,947,967,987,1006,1028,1046,1066,1087,1108,1127,1147,1166,1186,1207,1228,1246,1267,1286,1306,1326,1347,1366,1388,1406,1426,1446,1466,1487,1508,1526,1546,1567,1587],"xSR":741.5,"ySR":469.95,"xT1":424.9,"yT1":0,"xT2":1058.1,"yT2":0,"toosoon":0,"cond_shown":"Congruent","ratio_trial":200,"L_num":4,"L_den":8,"R_num":3,"R_den":10,"correct_side":1,"subjID":"juandavidguerreroforero8","gender":"0","school":"4","age":"9"},{"start_time":1552073173108,"click_time":1552073174172,"finger_time":1552073173612,"fix_duration":874.6024427549615,"trial":30,"RT":504,"MT":560,"sideResp":1,"stimulus":[],"xmouse":[790,790,790,790,790,790,790,790,790,790,790,790,790,790,791,792,792,792,792,792,792,792,792,787,758,700,661,649,649,649,649,649,649,649,649,653,657,662,676,678,680,680,676,656,650,644,633,614,578,466,441,430,426,431],"ymouse":[539,539,539,539,539,539,539,539,539,539,539,539,539,539,538,534,531,525,513,513,512,512,512,511,499,479,465,459,459,459,459,459,459,459,456,451,447,443,426,421,398,378,356,315,304,296,290,281,261,173,148,127,104,69],"timestamp_mouse":[9,24,44,64,84,105,123,143,164,185,203,223,245,264,283,304,323,345,364,383,403,424,443,465,484,504,523,544,564,585,605,624,644,664,683,703,724,744,764,784,803,825,843,864,884,903,923,944,964,983,1003,1024,1044,1064],"xSR":741.5,"ySR":469.95,"xT1":424.9,"yT1":0,"xT2":1058.1,"yT2":0,"toosoon":0,"cond_shown":"Congruent","ratio_trial":300,"L_num":8,"L_den":16,"R_num":1,"R_den":5,"correct_side":1,"subjID":"juandavidguerreroforero8","gender":"0","school":"4","age":"9"},{"start_time":1552073175501,"click_time":1552073176932,"finger_time":1552073176372,"fix_duration":528.5192783739536,"trial":31,"RT":871,"MT":560,"sideResp":1,"stimulus":[],"xmouse":[826,826,826,826,826,826,826,826,826,826,826,826,826,826,826,826,826,826,826,826,826,826,826,826,826,826,826,826,826,826,827,827,827,827,827,827,827,827,825,806,786,769,744,638,607,603,603,608,616,610,587,548,514,484,397,361,343,340,340,340,340,340,340,342,355,372,384,393,404,410,421,434],"ymouse":[513,513,513,513,513,513,513,513,513,513,513,513,513,513,513,513,513,513,513,513,513,513,513,513,513,513,513,513,513,509,508,507,507,507,507,507,507,507,506,502,495,491,480,418,395,385,374,362,326,301,259,205,158,118,45,27,18,17,17,17,17,17,17,17,19,21,23,24,25,27,29,34],"timestamp_mouse":[13,39,50,70,91,112,131,151,171,190,210,232,251,271,291,310,332,351,371,392,412,431,451,471,490,510,531,551,570,591,610,632,652,671,691,711,732,752,771,791,810,832,851,871,890,910,931,951,972,990,1011,1030,1050,1071,1090,1111,1131,1151,1171,1191,1212,1231,1251,1271,1291,1310,1332,1351,1371,1390,1410,1431],"xSR":741.5,"ySR":469.95,"xT1":424.9,"yT1":0,"xT2":1058.1,"yT2":0,"toosoon":0,"cond_shown":"Incongruent","ratio_trial":300,"L_num":4,"L_den":20,"R_num":2,"R_den":4,"correct_side":2,"subjID":"juandavidguerreroforero8","gender":"0","school":"4","age":"9"},{"start_time":1552073182563,"click_time":1552073183592,"finger_time":1552073183231,"fix_duration":250,"trial":32,"RT":668,"MT":361,"sideResp":2,"stimulus":[],"xmouse":[800,800,800,800,800,800,800,800,800,800,800,800,800,800,800,800,800,800,800,800,800,800,801,801,801,802,802,802,803,803,808,817,840,862,896,941,1037,1081,1116,1143,1161,1186,1192,1194,1196,1196,1196,1194,1187,1172,1154,1119],"ymouse":[536,536,536,536,536,536,536,536,536,536,536,536,536,536,536,536,536,536,536,536,536,536,536,535,535,534,534,534,532,531,526,508,476,447,407,363,283,250,223,200,182,151,136,129,121,116,112,111,110,107,100,82],"timestamp_mouse":[13,43,48,69,90,109,129,149,170,188,209,229,249,269,290,309,329,348,368,390,410,428,449,468,489,509,529,549,568,588,610,628,649,668,689,708,729,750,769,789,808,829,849,869,890,908,929,948,969,988,1008,1029],"xSR":741.5,"ySR":469.95,"xT1":424.9,"yT1":0,"xT2":1058.1,"yT2":0,"toosoon":0,"cond_shown":"Congruent","ratio_trial":200,"L_num":5,"L_den":10,"R_num":14,"R_den":20,"correct_side":2,"subjID":"juandavidguerreroforero8","gender":"0","school":"4","age":"9"},{"start_time":1552073185480,"click_time":1552073186631,"finger_time":1552073186271,"fix_duration":967.5894646559998,"trial":33,"RT":791,"MT":360,"sideResp":2,"stimulus":[],"xmouse":[788,788,788,788,788,788,788,788,788,788,788,788,788,788,788,788,788,788,788,788,788,788,788,788,788,787,786,786,786,785,785,785,785,787,788,800,808,819,833,853,917,967,1021,1072,1125,1143,1159,1165,1168,1173,1177,1185,1186,1184,1177,1174,1166,1153],"ymouse":[529,529,529,529,529,529,529,529,529,529,529,529,529,529,529,529,529,529,529,529,529,529,529,529,528,528,528,528,528,527,527,527,527,526,525,519,516,509,501,490,449,413,368,320,252,219,180,166,157,147,136,113,99,77,65,61,60,59],"timestamp_mouse":[13,45,53,71,92,112,131,153,172,193,212,232,252,273,292,312,333,351,372,393,413,432,453,471,491,512,531,553,572,591,612,632,653,672,691,712,732,752,771,791,812,832,852,871,892,911,931,951,972,991,1012,1032,1053,1073,1091,1111,1131,1151],"xSR":741.5,"ySR":469.95,"xT1":424.9,"yT1":0,"xT2":1058.1,"yT2":0,"toosoon":0,"cond_shown":"Congruent","ratio_trial":200,"L_num":6,"L_den":12,"R_num":7,"R_den":10,"correct_side":2,"subjID":"juandavidguerreroforero8","gender":"0","school":"4","age":"9"},{"start_time":1552073188733,"click_time":1552073189632,"finger_time":1552073189311,"fix_duration":1139.0271390568985,"trial":34,"RT":578,"MT":321,"sideResp":2,"stimulus":[],"xmouse":[776,776,776,776,776,776,776,776,776,776,776,776,776,776,776,776,776,776,776,776,776,776,776,776,776,776,776,781,786,834,913,971,1023,1074,1147,1165,1179,1187,1192,1195,1196,1196,1196,1196,1162,1144],"ymouse":[501,501,501,501,501,501,501,501,501,501,501,501,501,501,501,501,501,501,501,501,501,501,501,501,501,501,501,499,495,462,410,366,317,260,170,146,123,104,86,53,34,31,30,30,29,29],"timestamp_mouse":[1,19,42,59,80,98,120,140,159,179,199,218,239,259,279,298,318,339,359,380,399,419,439,459,480,499,520,539,559,578,599,619,639,659,678,700,719,739,760,778,798,818,839,858,879,899],"xSR":741.5,"ySR":469.95,"xT1":424.9,"yT1":0,"xT2":1058.1,"yT2":0,"toosoon":0,"cond_shown":"Incongruent","ratio_trial":100,"L_num":6,"L_den":10,"R_num":11,"R_den":22,"correct_side":1,"subjID":"juandavidguerreroforero8","gender":"0","school":"4","age":"9"},{"start_time":1552073190866,"click_time":1552073192492,"finger_time":1552073192093,"fix_duration":352.86683274546095,"trial":35,"RT":1227,"MT":399,"sideResp":2,"stimulus":[],"xmouse":[787,787,787,794,794,794,794,794,794,794,794,794,794,794,794,794,793,793,792,792,792,792,792,792,791,790,789,789,788,788,788,788,788,788,788,788,788,788,788,788,788,788,788,788,788,788,788,788,788,788,788,788,793,796,798,799,801,805,810,817,827,841,899,926,952,976,995,1012,1040,1049,1055,1059,1064,1064,1064,1064,1064,1064,1065,1070,1073,1077],"ymouse":[505,505,505,506,506,506,506,506,506,506,506,506,506,506,506,506,506,506,506,506,506,506,506,506,506,506,506,506,506,506,506,506,506,506,506,506,506,506,506,506,506,506,506,506,506,506,506,506,506,506,506,506,503,502,501,500,499,495,490,482,471,456,386,352,316,287,265,245,208,189,171,158,140,139,139,139,139,138,126,115,107,98],"timestamp_mouse":[6,38,45,66,85,105,126,145,167,187,205,225,246,265,287,305,325,346,365,387,405,427,445,466,486,505,525,545,565,587,606,626,645,666,686,707,725,745,765,787,807,827,845,865,886,905,926,945,966,986,1007,1027,1045,1066,1085,1107,1125,1145,1165,1186,1205,1226,1246,1265,1285,1305,1325,1346,1365,1385,1405,1426,1446,1465,1487,1507,1527,1545,1565,1586,1607,1626],"xSR":741.5,"ySR":469.95,"xT1":424.9,"yT1":0,"xT2":1058.1,"yT2":0,"toosoon":0,"cond_shown":"Incongruent","ratio_trial":200,"L_num":14,"L_den":30,"R_num":12,"R_den":18,"correct_side":2,"subjID":"juandavidguerreroforero8","gender":"0","school":"4","age":"9"},{"start_time":1552073195576,"click_time":1552073196651,"finger_time":1552073196271,"fix_duration":963.4280710805525,"trial":36,"RT":695,"MT":380,"sideResp":1,"stimulus":[],"xmouse":[776,777,777,777,777,777,777,777,777,777,777,777,777,777,777,777,777,778,779,779,780,781,783,785,787,789,790,791,792,792,792,792,792,793,793,789,781,773,773,764,746,727,702,695,675,660,644,616,604,593,580,566,537,522],"ymouse":[533,532,532,532,532,532,532,532,532,532,532,532,532,532,532,532,532,531,531,530,529,528,525,521,517,516,513,512,512,512,512,512,508,487,463,427,369,255,206,168,134,109,81,77,70,64,58,52,51,51,51,51,51,51],"timestamp_mouse":[15,35,56,76,96,115,136,157,177,195,216,236,257,275,295,315,335,355,375,395,415,436,457,475,495,517,536,556,575,596,616,635,655,675,695,716,736,756,775,795,815,837,855,875,895,917,936,955,975,996,1016,1036,1055,1075],"xSR":741.5,"ySR":469.95,"xT1":424.9,"yT1":0,"xT2":1058.1,"yT2":0,"toosoon":0,"cond_shown":"Congruent","ratio_trial":200,"L_num":12,"L_den":15,"R_num":6,"R_den":10,"correct_side":1,"subjID":"juandavidguerreroforero8","gender":"0","school":"4","age":"9"},{"start_time":1552073198717,"click_time":1552073199853,"finger_time":1552073199432,"fix_duration":963.6114502159079,"trial":37,"RT":715,"MT":421,"sideResp":2,"stimulus":[],"xmouse":[793,793,793,793,793,793,793,793,793,793,793,793,793,793,793,793,793,793,793,793,793,794,794,794,794,794,794,794,794,795,795,797,800,804,812,843,881,917,960,998,1041,1050,1055,1060,1063,1065,1067,1069,1070,1070,1070,1070,1071,1071,1073,1081,1098],"ymouse":[514,514,514,514,514,514,514,514,514,514,514,514,514,514,514,514,514,514,514,514,514,513,513,513,513,513,513,513,513,512,511,509,506,502,497,470,428,391,345,297,226,208,197,189,185,181,173,167,162,158,152,148,144,140,135,118,92],"timestamp_mouse":[15,42,56,75,95,115,135,156,176,195,216,235,257,276,295,316,336,356,375,396,415,435,456,475,495,515,536,556,575,595,615,635,656,675,695,715,735,755,775,795,815,835,855,875,896,916,936,955,975,995,1016,1036,1055,1075,1096,1115,1135],"xSR":741.5,"ySR":469.95,"xT1":424.9,"yT1":0,"xT2":1058.1,"yT2":0,"toosoon":0,"cond_shown":"Congruent","ratio_trial":100,"L_num":15,"L_den":25,"R_num":13,"R_den":26,"correct_side":1,"subjID":"juandavidguerreroforero8","gender":"0","school":"4","age":"9"},{"start_time":1552073201701,"click_time":1552073203354,"finger_time":1552073202312,"fix_duration":846.75399628914,"trial":38,"RT":611,"MT":1042,"sideResp":2,"stimulus":[],"xmouse":[750,762,769,769,769,769,769,769,769,769,769,770,774,777,778,778,778,778,778,778,778,778,778,778,778,778,778,778,778,779,779,779,779,779,779,779,769,765,765,765,765,765,765,765,765,765,765,765,764,764,764,764,765,766,766,768,771,774,777,784,800,860,899,939,1006,1054,1106,1187,1187,1187,1187,1187,1187,1187,1187,1187,1187,1187,1187,1187,1187,1187,1110],"ymouse":[519,518,516,516,516,516,516,516,516,516,516,514,507,499,492,491,491,491,491,491,491,491,491,491,491,491,491,491,486,481,469,448,446,446,446,445,432,426,425,425,425,425,425,425,425,425,425,426,429,433,438,446,450,451,453,454,458,458,458,458,455,413,381,341,260,194,123,10,10,10,10,10,10,10,10,10,10,10,10,10,10,10,23],"timestamp_mouse":[13,38,52,71,91,111,131,152,172,192,212,231,251,272,291,312,331,351,371,392,411,431,451,472,492,511,532,552,571,592,611,631,651,671,692,712,732,751,771,792,812,832,852,871,891,911,931,951,971,991,1011,1032,1050,1071,1092,1111,1132,1152,1171,1191,1212,1232,1251,1271,1291,1312,1332,1351,1372,1392,1412,1431,1451,1471,1491,1512,1532,1551,1571,1591,1612,1632,1652],"xSR":741.5,"ySR":469.95,"xT1":424.9,"yT1":0,"xT2":1058.1,"yT2":0,"toosoon":0,"cond_shown":"Congruent","ratio_trial":100,"L_num":4,"L_den":8,"R_num":6,"R_den":10,"correct_side":2,"subjID":"juandavidguerreroforero8","gender":"0","school":"4","age":"9"},{"start_time":1552073205543,"click_time":1552073206613,"finger_time":1552073206252,"fix_duration":1229.0314248860425,"trial":39,"RT":709,"MT":361,"sideResp":2,"stimulus":[],"xmouse":[766,766,766,766,766,766,768,770,777,789,791,791,791,791,791,791,791,791,791,791,791,791,791,791,791,791,791,791,791,791,791,792,799,814,833,890,925,954,979,1001,1031,1047,1053,1065,1069,1071,1071,1071,1071,1071,1071,1070,1070,1070],"ymouse":[526,526,526,526,526,526,526,525,523,519,517,517,517,517,517,517,517,517,517,517,517,517,517,517,517,517,517,517,517,517,517,517,511,499,482,419,378,350,316,287,241,211,202,177,162,140,134,132,131,130,126,120,109,95],"timestamp_mouse":[9,38,49,70,90,109,129,149,169,190,209,229,249,269,290,309,329,349,369,389,410,429,449,469,490,509,529,550,569,589,610,629,649,670,689,709,729,749,769,789,809,830,849,870,889,909,929,950,969,989,1009,1030,1049,1070],"xSR":741.5,"ySR":469.95,"xT1":424.9,"yT1":0,"xT2":1058.1,"yT2":0,"toosoon":0,"cond_shown":"Incongruent","ratio_trial":200,"L_num":3,"L_den":4,"R_num":11,"R_den":20,"correct_side":1,"subjID":"juandavidguerreroforero8","gender":"0","school":"4","age":"9"},{"start_time":1552073207584,"click_time":1552073209313,"finger_time":1552073208773,"fix_duration":250,"trial":40,"RT":1189,"MT":540,"sideResp":1,"stimulus":[],"xmouse":[800,792,792,779,777,775,775,775,775,775,775,775,775,775,775,775,775,775,775,775,775,775,775,775,775,775,775,775,775,775,775,775,775,775,775,775,775,775,775,775,775,775,775,775,775,775,775,775,775,775,775,775,775,776,777,778,780,781,782,783,784,785,785,785,785,785,785,785,785,780,771,758,744,700,677,656,642,624,590,567,556,550,548,545,541,534,524],"ymouse":[499,500,500,506,507,508,508,508,508,508,508,508,508,508,508,508,508,508,508,508,508,508,508,508,508,508,508,508,508,508,508,508,508,508,508,508,508,508,508,508,508,508,508,508,508,508,508,508,508,508,508,507,505,498,492,488,482,477,472,462,457,452,446,425,412,399,384,368,341,328,313,298,280,242,222,206,192,179,155,138,128,121,115,111,109,104,99],"timestamp_mouse":[21,35,49,68,88,108,128,148,169,188,209,228,248,268,288,309,328,349,369,388,409,429,448,468,488,509,528,548,569,588,608,628,648,668,689,708,728,749,769,789,809,828,848,868,888,909,929,948,968,988,1008,1029,1048,1068,1088,1108,1128,1149,1168,1189,1208,1229,1248,1268,1289,1308,1328,1348,1369,1389,1408,1428,1448,1468,1489,1509,1528,1549,1568,1589,1608,1628,1649,1669,1688,1708,1729],"xSR":741.5,"ySR":469.95,"xT1":424.9,"yT1":0,"xT2":1058.1,"yT2":0,"toosoon":0,"cond_shown":"Congruent","ratio_trial":300,"L_num":20,"L_den":25,"R_num":13,"R_den":26,"correct_side":1,"subjID":"juandavidguerreroforero8","gender":"0","school":"4","age":"9"},{"start_time":1552073211020,"click_time":1552073212632,"finger_time":1552073212172,"fix_duration":545.0664639925122,"trial":41,"RT":1152,"MT":460,"sideResp":2,"stimulus":[],"xmouse":[762,762,762,762,762,762,763,768,771,772,772,773,773,773,773,773,773,773,775,777,779,780,781,781,781,781,781,781,781,781,781,781,781,781,781,781,780,780,780,779,779,777,776,776,776,775,773,772,771,769,769,769,769,769,769,767,766,762,760,757,756,757,763,771,780,792,822,899,940,976,1003,1034,1044,1057,1075,1104,1120,1131,1131,1131,1131],"ymouse":[538,538,538,538,538,538,538,537,535,534,534,533,533,533,533,533,533,533,531,531,529,527,525,525,525,524,524,524,524,524,524,524,524,524,524,524,524,524,524,524,523,522,522,521,520,518,516,506,499,491,487,485,485,485,483,481,477,463,456,447,437,414,402,391,381,370,352,309,280,254,234,212,205,195,179,154,139,115,107,101,94],"timestamp_mouse":[13,38,52,72,92,112,132,152,172,192,212,233,253,273,293,313,333,352,372,392,412,432,452,473,492,513,533,553,573,592,612,633,653,673,692,713,732,752,773,793,812,833,853,873,893,913,932,952,972,992,1012,1033,1052,1072,1092,1112,1132,1152,1172,1192,1212,1233,1252,1272,1292,1312,1333,1352,1372,1393,1413,1433,1452,1472,1492,1513,1533,1553,1572,1592,1612],"xSR":741.5,"ySR":469.95,"xT1":424.9,"yT1":0,"xT2":1058.1,"yT2":0,"toosoon":0,"cond_shown":"Incongruent","ratio_trial":100,"L_num":13,"L_den":26,"R_num":12,"R_den":20,"correct_side":2,"subjID":"juandavidguerreroforero8","gender":"0","school":"4","age":"9"},{"start_time":1552073217324,"click_time":1552073218472,"finger_time":1552073218292,"fix_duration":1402.9092884792587,"trial":42,"RT":968,"MT":180,"sideResp":2,"stimulus":[],"xmouse":[805,805,805,805,805,805,805,805,805,805,805,805,805,805,805,805,805,805,805,805,803,803,803,803,803,803,803,803,803,803,803,803,803,803,803,803,803,803,803,803,803,803,803,803,805,807,816,829,869,892,922,957,1032,1060,1081,1093,1099,1104],"ymouse":[519,519,519,519,519,519,519,519,519,519,519,519,519,519,519,519,519,519,519,519,519,519,519,519,519,519,519,519,519,519,519,519,519,519,519,519,519,519,519,519,519,519,519,519,516,512,503,487,429,388,335,286,191,158,134,116,103,89],"timestamp_mouse":[10,37,49,69,88,108,128,150,168,189,209,229,248,269,289,309,329,349,369,389,408,429,448,469,488,508,530,548,569,588,608,629,648,669,689,708,729,748,769,788,808,828,848,868,888,908,929,948,968,988,1008,1029,1048,1069,1088,1108,1128,1148],"xSR":741.5,"ySR":469.95,"xT1":424.9,"yT1":0,"xT2":1058.1,"yT2":0,"toosoon":0,"cond_shown":"Congruent","ratio_trial":100,"L_num":3,"L_den":6,"R_num":2,"R_den":5,"correct_side":1,"subjID":"juandavidguerreroforero8","gender":"0","school":"4","age":"9"},{"start_time":1552073219926,"click_time":1552073220992,"finger_time":1552073220573,"fix_duration":351.9673361469069,"trial":43,"RT":647,"MT":419,"sideResp":2,"stimulus":[],"xmouse":[764,764,764,764,764,764,764,764,764,764,764,764,764,764,764,764,764,764,764,764,764,764,764,764,764,766,768,774,776,780,790,807,854,888,929,976,1036,1149,1165,1170,1171,1171,1171,1171,1171,1170,1152,1109,1103,1102,1102,1102,1109,1118],"ymouse":[541,541,541,541,541,541,541,541,541,541,541,541,541,541,541,541,541,541,541,541,541,541,541,541,541,541,541,541,541,540,537,532,510,489,462,428,372,228,194,176,169,168,168,168,168,167,167,166,163,159,150,136,105,82],"timestamp_mouse":[10,26,46,66,87,107,126,147,167,186,207,227,246,266,286,307,327,347,367,386,407,426,446,466,487,507,527,547,566,586,606,626,647,666,687,706,726,747,766,786,806,826,847,867,886,906,926,947,966,987,1006,1026,1048,1066],"xSR":741.5,"ySR":469.95,"xT1":424.9,"yT1":0,"xT2":1058.1,"yT2":0,"toosoon":0,"cond_shown":"Incongruent","ratio_trial":300,"L_num":4,"L_den":5,"R_num":8,"R_den":16,"correct_side":1,"subjID":"juandavidguerreroforero8","gender":"0","school":"4","age":"9"},{"start_time":1552073223785,"click_time":1552073225232,"finger_time":1552073224592,"fix_duration":250,"trial":44,"RT":807,"MT":640,"sideResp":2,"stimulus":[],"xmouse":[799,799,799,799,799,799,799,799,799,799,799,799,799,799,799,799,799,799,799,799,799,799,799,799,799,799,799,799,799,799,799,799,799,799,799,799,800,803,807,811,820,827,839,851,864,899,915,933,952,970,1010,1013,1023,1028,1036,1055,1070,1091,1110,1123,1129,1129,1129,1129,1129,1129,1129,1129,1129,1129,1129,1130,1131],"ymouse":[516,516,516,516,516,516,516,516,516,516,516,516,516,516,516,516,516,516,516,516,516,516,516,516,516,516,516,516,516,516,516,516,516,516,516,516,512,505,494,480,448,426,388,362,334,280,261,245,229,213,185,182,177,174,170,160,150,138,127,119,114,113,113,113,113,113,113,113,113,113,113,106,96],"timestamp_mouse":[13,36,47,67,87,107,127,148,167,188,207,227,248,268,287,307,328,347,368,387,407,428,447,467,488,507,527,547,568,587,608,627,647,667,687,707,727,747,767,788,807,827,846,868,887,907,927,948,967,987,1009,1028,1047,1067,1087,1107,1127,1148,1168,1188,1207,1227,1248,1267,1287,1307,1327,1347,1367,1387,1407,1427,1447],"xSR":741.5,"ySR":469.95,"xT1":424.9,"yT1":0,"xT2":1058.1,"yT2":0,"toosoon":0,"cond_shown":"Incongruent","ratio_trial":100,"L_num":13,"L_den":26,"R_num":12,"R_den":20,"correct_side":2,"subjID":"juandavidguerreroforero8","gender":"0","school":"4","age":"9"},{"start_time":1552073226165,"click_time":1552073227474,"finger_time":1552073226872,"fix_duration":250,"trial":45,"RT":707,"MT":602,"sideResp":2,"stimulus":[],"xmouse":[793,792,792,792,793,795,800,800,800,800,800,800,800,799,799,799,799,799,799,798,798,796,795,794,792,791,788,788,787,786,784,781,778,778,778,778,781,788,798,807,819,856,893,916,938,957,990,1003,1016,1028,1037,1050,1051,1051,1051,1051,1051,1051,1051,1051,1051,1051,1051,1052,1054,1059],"ymouse":[500,500,500,500,500,500,500,500,500,500,500,500,500,500,500,500,500,500,500,500,500,500,500,501,501,501,501,501,501,501,497,489,482,478,473,467,448,434,418,400,379,322,270,239,210,186,144,125,106,89,75,51,51,51,51,51,51,51,51,51,51,51,51,51,51,51],"timestamp_mouse":[9,31,47,67,87,107,127,147,168,187,208,227,247,268,287,308,327,348,367,387,408,428,447,468,487,509,527,547,568,588,609,627,647,667,687,707,727,747,767,787,808,827,848,869,887,907,928,947,967,988,1007,1027,1047,1067,1087,1108,1127,1148,1167,1188,1208,1227,1247,1267,1287,1308],"xSR":741.5,"ySR":469.95,"xT1":424.9,"yT1":0,"xT2":1058.1,"yT2":0,"toosoon":0,"cond_shown":"Incongruent","ratio_trial":100,"L_num":9,"L_den":15,"R_num":14,"R_den":28,"correct_side":1,"subjID":"juandavidguerreroforero8","gender":"0","school":"4","age":"9"},{"start_time":1552073230345,"click_time":1552073232712,"finger_time":1552073231093,"fix_duration":250,"trial":46,"RT":748,"MT":1619,"sideResp":1,"stimulus":[],"xmouse":[754,750,747,744,744,743,743,743,742,742,743,747,750,756,758,762,766,776,782,786,788,790,790,790,790,790,790,790,790,790,790,790,790,785,782,781,779,776,776,776,776,776,775,765,758,752,749,747,748,749,750,750,751,752,752,753,754,755,757,757,757,762,766,773,774,774,774,774,774,774,774,774,774,774,774,774,774,774,774,774,774,774,774,774,774,774,774,774,774,774,774,774,774,774,774,774,775,776,778,778,779,779,780,781,782,782,782,782,782,782,779,773,763,722,685,646,599,553,469],"ymouse":[514,514,516,520,521,522,523,524,527,527,529,529,529,529,529,529,529,527,524,523,522,521,521,521,521,521,521,520,519,517,514,511,507,491,484,478,472,467,466,465,465,465,465,465,472,480,492,503,515,516,517,517,517,517,517,517,517,517,516,516,516,515,513,509,507,507,507,507,507,507,507,507,507,507,507,507,507,507,507,507,507,507,507,507,507,507,507,507,507,507,507,507,507,507,507,507,505,504,501,500,499,498,497,492,489,486,483,481,473,467,458,438,418,351,299,244,192,141,66],"timestamp_mouse":[7,27,53,67,87,108,128,147,167,188,207,227,247,268,287,308,327,348,367,387,407,428,448,468,488,508,528,547,567,587,608,627,647,667,687,707,727,748,767,787,807,827,847,867,888,907,927,947,967,987,1007,1027,1047,1068,1087,1108,1127,1148,1167,1187,1207,1227,1247,1268,1288,1307,1327,1347,1368,1388,1407,1428,1448,1468,1488,1507,1528,1548,1567,1587,1608,1627,1647,1667,1688,1707,1727,1748,1768,1788,1807,1828,1848,1868,1887,1907,1927,1947,1968,1988,2007,2028,2047,2067,2087,2107,2127,2147,2167,2187,2208,2227,2247,2268,2287,2307,2327,2347,2367],"xSR":741.5,"ySR":469.95,"xT1":424.9,"yT1":0,"xT2":1058.1,"yT2":0,"toosoon":0,"cond_shown":"Congruent","ratio_trial":300,"L_num":18,"L_den":20,"R_num":9,"R_den":15,"correct_side":1,"subjID":"juandavidguerreroforero8","gender":"0","school":"4","age":"9"},{"start_time":1552073234707,"click_time":1552073235913,"finger_time":1552073235712,"fix_duration":933.9245975909291,"trial":47,"RT":1005,"MT":201,"sideResp":1,"stimulus":[],"xmouse":[769,769,769,769,769,769,769,769,769,769,769,769,769,769,769,769,769,769,769,769,769,769,769,769,769,769,769,768,767,766,766,765,765,765,765,765,765,765,765,765,765,765,765,765,765,765,763,761,758,754,747,711,690,668,643,592,560,535,513,495,466],"ymouse":[485,485,485,485,485,485,485,485,485,485,485,485,485,485,485,485,485,485,485,485,485,485,485,485,485,485,485,485,485,485,485,485,485,485,485,485,485,485,485,485,485,485,485,485,486,486,486,486,480,471,455,397,369,336,298,228,192,165,140,121,91],"timestamp_mouse":[13,34,45,65,85,105,125,146,166,185,205,225,246,266,286,305,326,345,365,386,405,425,446,465,485,505,527,546,566,585,605,625,646,666,686,705,726,746,766,786,805,826,845,866,885,905,926,945,965,986,1005,1026,1045,1066,1085,1105,1125,1145,1165,1185,1205],"xSR":741.5,"ySR":469.95,"xT1":424.9,"yT1":0,"xT2":1058.1,"yT2":0,"toosoon":0,"cond_shown":"Congruent","ratio_trial":300,"L_num":2,"L_den":10,"R_num":12,"R_den":24,"correct_side":2,"subjID":"juandavidguerreroforero8","gender":"0","school":"4","age":"9"},{"start_time":1552073237919,"click_time":1552073239654,"finger_time":1552073239132,"fix_duration":1006.1231085741654,"trial":48,"RT":1213,"MT":522,"sideResp":2,"stimulus":[],"xmouse":[781,781,781,781,781,781,781,781,781,781,781,781,781,781,780,780,780,781,783,783,783,783,783,783,783,783,783,783,783,783,783,783,783,783,783,783,783,783,783,783,783,783,781,781,781,781,781,781,781,781,781,781,781,779,778,774,770,768,764,763,763,763,763,763,763,768,774,783,805,840,854,867,879,889,902,924,937,951,982,999,1017,1021,1027,1035,1049,1056,1064],"ymouse":[528,528,528,528,528,528,528,528,528,528,528,528,528,528,528,526,524,521,516,511,507,507,507,507,507,507,507,507,506,505,501,500,500,500,500,500,500,500,500,500,500,499,499,499,499,499,499,499,499,499,499,499,499,497,496,489,483,481,475,471,459,452,441,430,419,394,377,357,318,268,248,230,212,197,180,152,138,126,114,110,106,104,103,101,95,91,86],"timestamp_mouse":[13,42,53,74,93,114,134,153,173,193,214,234,253,274,294,313,333,353,374,393,414,434,453,473,494,514,534,553,574,593,614,633,654,674,694,714,733,754,773,794,813,833,854,873,894,913,933,953,973,994,1013,1034,1053,1073,1093,1114,1134,1153,1174,1194,1213,1233,1253,1273,1293,1313,1334,1353,1373,1394,1413,1434,1453,1473,1494,1513,1533,1553,1573,1593,1613,1633,1653,1673,1694,1713,1734],"xSR":741.5,"ySR":469.95,"xT1":424.9,"yT1":0,"xT2":1058.1,"yT2":0,"toosoon":0,"cond_shown":"Incongruent","ratio_trial":300,"L_num":1,"L_den":2,"R_num":3,"R_den":15,"correct_side":1,"subjID":"juandavidguerreroforero8","gender":"0","school":"4","age":"9"},{"start_time":1552073242987,"click_time":1552073244632,"finger_time":1552073244312,"fix_duration":632.6874106367034,"trial":49,"RT":1325,"MT":320,"sideResp":1,"stimulus":[],"xmouse":[812,812,812,812,812,812,812,812,809,808,803,798,793,787,787,787,787,787,787,787,785,784,781,780,780,780,780,780,780,780,780,780,780,780,780,780,780,780,780,780,780,781,783,784,784,785,786,787,788,789,792,796,802,804,804,804,804,804,804,804,804,804,804,804,804,804,805,808,809,809,806,789,764,726,693,659,631,586,565,549,535,527,522],"ymouse":[510,510,510,510,510,510,510,510,510,510,511,512,513,513,513,513,513,513,513,513,514,514,515,515,515,515,515,515,515,515,515,515,515,515,515,515,515,515,514,513,510,506,501,497,496,495,494,493,490,489,486,481,473,470,470,470,470,470,470,470,470,470,470,470,470,470,468,455,444,431,412,377,335,284,239,193,149,72,44,24,11,6,4],"timestamp_mouse":[13,24,45,66,85,105,125,145,164,185,205,226,245,266,286,305,325,345,365,385,406,425,445,465,486,506,526,546,565,585,606,625,645,666,685,705,726,745,765,785,805,825,845,866,885,905,925,945,965,986,1005,1026,1045,1065,1086,1106,1126,1145,1165,1185,1206,1226,1245,1265,1285,1306,1325,1346,1366,1385,1405,1425,1445,1465,1485,1507,1527,1545,1565,1585,1605,1626,1645],"xSR":741.5,"ySR":469.95,"xT1":424.9,"yT1":0,"xT2":1058.1,"yT2":0,"toosoon":0,"cond_shown":"Incongruent","ratio_trial":200,"L_num":11,"L_den":20,"R_num":3,"R_den":4,"correct_side":2,"subjID":"juandavidguerreroforero8","gender":"0","school":"4","age":"9"},{"start_time":1552073246255,"click_time":1552073247514,"finger_time":1552073246933,"fix_duration":722.8429270817736,"trial":50,"RT":678,"MT":581,"sideResp":2,"stimulus":[],"xmouse":[774,774,775,776,777,778,781,786,789,791,792,792,792,792,792,792,792,792,792,792,792,792,792,792,792,792,792,792,792,792,801,808,824,855,869,881,890,899,931,947,962,969,972,979,989,1000,1012,1028,1032,1037,1039,1046,1056,1081,1090,1098,1102,1102,1104,1113,1121,1127,1130],"ymouse":[541,540,540,539,537,537,534,530,527,525,524,524,524,524,524,524,524,524,524,524,524,524,524,524,524,524,524,524,524,524,514,505,488,447,426,406,386,369,328,317,306,301,297,289,278,266,252,230,219,205,198,187,175,143,130,117,110,108,107,105,102,100,98],"timestamp_mouse":[17,37,58,78,97,117,137,157,178,197,217,238,257,278,297,317,337,357,377,398,417,437,458,477,498,518,537,557,578,597,617,638,657,678,697,717,737,757,778,797,817,837,857,878,897,917,937,957,977,997,1017,1037,1058,1078,1097,1117,1136,1158,1177,1197,1218,1237,1258],"xSR":741.5,"ySR":469.95,"xT1":424.9,"yT1":0,"xT2":1058.1,"yT2":0,"toosoon":0,"cond_shown":"Incongruent","ratio_trial":100,"L_num":2,"L_den":4,"R_num":6,"R_den":15,"correct_side":1,"subjID":"juandavidguerreroforero8","gender":"0","school":"4","age":"9"},{"start_time":1552073249003,"click_time":1552073249773,"finger_time":1552073249494,"fix_duration":348.65608845295935,"trial":51,"RT":491,"MT":279,"sideResp":2,"stimulus":[],"xmouse":[811,811,811,811,811,811,811,811,811,811,811,811,811,811,811,811,811,811,811,811,811,811,811,812,816,822,831,861,882,902,925,932,949,962,980,999,1013,1052,1074],"ymouse":[498,498,498,498,498,498,498,498,498,498,498,498,498,498,498,498,498,498,498,498,498,498,493,485,469,454,433,365,317,271,218,201,177,165,153,141,131,105,88],"timestamp_mouse":[12,38,49,69,90,110,130,149,169,190,210,230,250,270,290,310,330,349,369,390,409,429,450,469,491,509,529,549,569,589,609,629,650,670,690,710,729,749,769],"xSR":741.5,"ySR":469.95,"xT1":424.9,"yT1":0,"xT2":1058.1,"yT2":0,"toosoon":0,"cond_shown":"Incongruent","ratio_trial":300,"L_num":4,"L_den":20,"R_num":2,"R_den":4,"correct_side":2,"subjID":"juandavidguerreroforero8","gender":"0","school":"4","age":"9"},{"start_time":1552073251012,"click_time":1552073253172,"finger_time":1552073252292,"fix_duration":358.7310597506622,"trial":52,"RT":1280,"MT":880,"sideResp":1,"stimulus":[],"xmouse":[776,776,776,776,776,776,776,776,776,776,776,776,776,776,776,776,776,776,776,776,776,777,777,777,777,777,777,777,779,779,780,782,784,784,784,784,784,785,785,785,785,785,785,785,785,785,785,785,785,785,785,785,785,785,785,785,785,786,788,791,794,797,800,803,804,805,807,808,808,808,808,808,808,808,808,808,808,804,796,789,786,782,756,732,706,682,669,664,664,664,665,665,652,638,626,621,617,603,591,577,563,553,548,548,546,540,530,507,502],"ymouse":[526,526,526,526,526,526,526,526,526,526,526,526,526,526,526,525,524,522,521,519,518,517,517,516,515,514,513,513,509,507,504,501,496,495,494,494,494,493,493,493,493,493,493,493,493,493,493,493,493,493,493,493,493,493,493,493,493,492,490,487,483,480,474,471,468,465,463,460,460,460,459,459,459,459,459,459,459,459,460,461,461,461,428,393,350,307,278,237,230,227,226,225,219,214,208,204,199,172,156,140,126,119,116,116,116,116,113,101,97],"timestamp_mouse":[16,25,42,60,81,100,120,140,160,181,200,220,241,260,281,300,321,340,360,380,400,420,440,460,481,500,520,540,560,581,600,620,640,660,680,700,720,740,761,781,801,821,841,861,880,901,920,940,961,980,1001,1020,1040,1060,1080,1100,1121,1140,1161,1180,1200,1221,1240,1260,1280,1300,1320,1340,1361,1380,1401,1420,1440,1460,1480,1500,1520,1540,1560,1580,1600,1620,1641,1660,1680,1701,1720,1740,1762,1781,1801,1821,1840,1860,1880,1901,1920,1940,1961,1981,2001,2020,2040,2061,2081,2100,2120,2140,2160],"xSR":741.5,"ySR":469.95,"xT1":424.9,"yT1":0,"xT2":1058.1,"yT2":0,"toosoon":0,"cond_shown":"Congruent","ratio_trial":100,"L_num":12,"L_den":30,"R_num":13,"R_den":26,"correct_side":2,"subjID":"juandavidguerreroforero8","gender":"0","school":"4","age":"9"},{"start_time":1552073259616,"click_time":1552073261273,"finger_time":1552073260612,"fix_duration":802.7592799913313,"trial":53,"RT":996,"MT":661,"sideResp":2,"stimulus":[],"xmouse":[766,766,766,766,766,766,766,766,766,766,766,766,766,766,766,766,766,766,766,766,766,766,766,766,766,766,766,766,766,766,766,766,766,766,766,766,766,766,766,766,766,766,766,766,766,766,769,796,831,891,949,986,1038,1092,1132,1163,1185,1211,1220,1225,1228,1229,1229,1225,1220,1211,1196,1181,1162,1158,1156,1155,1152,1152,1149,1147,1143,1135,1128,1118,1108,1096,1081],"ymouse":[528,528,528,528,528,528,528,528,528,528,528,528,528,528,528,528,528,528,528,528,528,528,528,528,528,528,528,528,528,528,528,528,528,528,528,528,528,528,528,528,528,528,528,528,528,528,528,518,508,491,470,450,415,389,371,354,341,318,303,291,278,266,236,223,211,195,179,163,135,125,116,111,107,107,107,107,107,107,107,105,103,100,98],"timestamp_mouse":[17,36,56,76,97,116,138,156,176,197,216,236,256,278,297,316,337,358,377,397,417,436,458,477,496,517,537,558,577,596,617,637,657,677,697,718,738,758,777,797,817,838,858,877,898,916,936,956,976,996,1016,1036,1056,1077,1096,1118,1138,1156,1176,1197,1217,1237,1256,1277,1297,1318,1337,1356,1378,1397,1418,1437,1457,1477,1497,1516,1536,1557,1576,1597,1618,1638,1657],"xSR":741.5,"ySR":469.95,"xT1":424.9,"yT1":0,"xT2":1058.1,"yT2":0,"toosoon":0,"cond_shown":"Congruent","ratio_trial":200,"L_num":3,"L_den":12,"R_num":9,"R_den":20,"correct_side":2,"subjID":"juandavidguerreroforero8","gender":"0","school":"4","age":"9"},{"start_time":1552073263741,"click_time":1552073265273,"finger_time":1552073264793,"fix_duration":1426.366321869576,"trial":54,"RT":1052,"MT":480,"sideResp":1,"stimulus":[],"xmouse":[808,808,808,808,808,808,808,808,808,808,808,808,808,808,808,808,808,808,808,808,808,808,808,808,808,808,808,808,808,808,808,808,808,808,808,808,808,808,808,808,808,808,808,808,808,808,808,808,808,808,807,805,805,806,808,813,821,831,836,840,846,850,853,854,854,854,854,849,844,837,828,791,753,707,655,572,507],"ymouse":[514,514,514,514,514,514,514,514,514,514,514,514,514,514,514,514,514,514,514,514,514,514,514,514,514,514,514,514,514,514,514,514,514,514,514,514,514,514,514,514,512,508,506,505,503,502,501,500,497,493,488,476,469,461,451,442,428,412,405,397,388,381,371,368,365,361,357,345,333,316,296,248,216,184,151,109,81],"timestamp_mouse":[13,37,52,72,92,113,132,151,173,193,212,232,252,271,292,313,332,352,371,392,413,432,453,473,492,513,531,553,573,592,612,632,652,672,693,712,732,752,772,791,811,832,853,872,892,911,931,951,973,992,1011,1032,1052,1072,1092,1111,1132,1151,1173,1191,1211,1231,1251,1271,1291,1311,1332,1352,1372,1391,1411,1433,1452,1472,1493,1511,1531],"xSR":741.5,"ySR":469.95,"xT1":424.9,"yT1":0,"xT2":1058.1,"yT2":0,"toosoon":0,"cond_shown":"Congruent","ratio_trial":300,"L_num":9,"L_den":10,"R_num":3,"R_den":5,"correct_side":1,"subjID":"juandavidguerreroforero8","gender":"0","school":"4","age":"9"},{"start_time":1552073266725,"click_time":1552073268192,"finger_time":1552073267573,"fix_duration":250,"trial":55,"RT":848,"MT":619,"sideResp":2,"stimulus":[],"xmouse":[782,782,782,782,782,782,782,782,782,782,782,782,782,782,782,782,782,782,782,782,782,782,782,782,782,782,782,782,782,782,782,782,782,782,782,782,782,782,782,782,783,785,789,802,814,820,827,837,842,847,853,860,864,882,889,915,934,956,1004,1032,1058,1084,1105,1151,1174,1186,1191,1191,1191,1190,1189,1184,1171,1094],"ymouse":[497,497,497,497,497,497,497,497,497,497,497,497,497,497,497,497,497,497,497,497,497,497,497,497,497,497,497,497,497,