[{"start_time":1552309512555,"click_time":1552309516144,"finger_time":1552309512564,"fix_duration":1029.792281943425,"trial":0,"RT":9,"MT":3580,"sideResp":1,"stimulus":"img/900/equaldotanddens/L/4_Ratio_900_L_20_R_18.png","xmouse":[732,732,732,732,732,732,732,735,737,739,740,743,745,747,748,748,750,750,752,752,752,752,753,753,754,754,754,755,757,757,758,760,763,765,767,772,777,781,782,783,783,783,783,783,783,783,783,783,783,783,783,783,783,783,783,783,783,783,783,783,783,783,783,783,783,783,783,783,783,783,783,783,783,783,783,783,783,783,783,783,783,783,783,783,783,783,783,783,783,783,783,783,783,783,783,783,783,783,783,783,783,783,783,783,783,783,783,783,783,783,783,783,782,777,771,768,765,761,756,750,746,741,731,729,729,729,729,729,729,729,734,749,767,774,777,777,777,766,763,760,754,746,715,708,706,706,706,704,703,700,694,680,660,620,573,531,488,476,468,467,465,451,433,416,403,397,397,397,397,397,400,403,404,404,405,407,411,418,421,425],"ymouse":[560,560,560,560,560,560,560,560,560,560,560,559,558,557,556,555,552,549,546,545,543,538,535,533,531,529,528,527,526,524,522,519,519,519,518,518,518,518,518,516,516,516,516,516,516,516,516,516,516,516,516,516,516,516,516,516,516,516,516,516,516,516,516,516,516,516,516,516,516,516,516,516,516,516,516,516,516,516,516,516,516,516,516,516,516,516,516,516,516,516,516,516,516,516,516,516,516,516,516,516,516,516,516,516,516,516,516,516,516,516,516,516,516,516,514,514,513,512,512,512,512,510,509,509,509,509,509,509,509,509,508,504,492,475,445,413,390,358,351,347,333,319,286,280,279,279,279,279,279,279,279,273,266,249,226,195,157,145,138,136,135,123,107,90,75,68,68,68,68,67,65,63,63,62,62,62,62,64,64,65],"timestamp_mouse":[9,28,49,68,89,109,128,148,168,188,208,228,248,269,289,309,328,349,368,389,409,427,447,468,489,508,528,548,568,588,608,627,649,669,689,708,728,749,768,789,808,828,849,868,888,909,929,949,969,989,1008,1029,1049,1068,1088,1108,1129,1148,1168,1189,1209,1229,1247,1269,1289,1308,1329,1349,1368,1389,1408,1429,1448,1467,1487,1509,1528,1549,1569,1589,1609,1629,1649,1669,1687,1709,1728,1748,1768,1787,1809,1828,1848,1868,1889,1907,1929,1948,1968,1989,2009,2027,2047,2068,2089,2109,2129,2147,2168,2189,2209,2228,2248,2269,2287,2309,2329,2349,2369,2389,2408,2428,2448,2468,2488,2508,2528,2548,2568,2588,2608,2629,2649,2668,2688,2708,2728,2749,2769,2789,2808,2827,2849,2868,2889,2909,2929,2949,2969,2987,3008,3029,3047,3069,3087,3108,3129,3148,3167,3188,3209,3229,3248,3269,3287,3308,3329,3349,3368,3389,3408,3429,3448,3469,3487,3509,3528,3549,3569,3589],"xSR":741.5,"ySR":501.8,"xT1":424.9,"yT1":0,"xT2":1058.1,"yT2":0,"toosoon":0,"cond_shown":"equaldotanddens","ratio_trial":900,"smaller_num":"18","larger_num":"20","correct_side":1,"subjID":"alexsantiagoperezsanchez23","gender":"0","age":"8","school":"4","test":{"fix_dur":[250,1500],"timestim":300,"targets_dim":[100,100],"targets_relative_coord":[0.3,0.7],"size_stim":[880,420],"start_dim":[100,100],"size_start":[300,300],"size_fix":60,"samplingrate":20,"img_types":["equaldotsize","equaldotanddens","randomdotsizeEA"],"ratios":[250,500,750,900],"rep_conds":9,"nTrials":120,"trials_to_rest":500,"Trials_order":[70,77,20,13,99,103,48,55,40,50,63,37,114,15,29,49,118,105,43,16,78,59,32,39,31,94,60,53,34,79,104,58,33,30,76,0,28,22,117,19,101,42,51,72,54,92,71,3,7,9,24,91,100,75,44,115,110,73,62,88,17,108,107,35,113,36,89,26,85,4,27,1,82,25,116,67,119,65,83,41,96,74,21,38,93,47,8,14,23,109,98,86,6,12,18,68,84,80,46,95,5,106,66,97,11,2,52,10,102,111,90,64,56,61,69,45,57,112,87,81],"cond_shown":["equaldotanddens","randomdotsizeEA","randomdotsizeEA","equaldotanddens","equaldotsize","equaldotanddens","equaldotsize","equaldotanddens","equaldotanddens","randomdotsizeEA","equaldotsize","equaldotanddens","equaldotsize","equaldotsize","randomdotsizeEA","equaldotanddens","equaldotanddens","equaldotsize","equaldotanddens","equaldotanddens","equaldotsize","randomdotsizeEA","randomdotsizeEA","equaldotsize","equaldotanddens","equaldotanddens","equaldotsize","randomdotsizeEA","equaldotanddens","equaldotanddens","randomdotsizeEA","equaldotanddens","equaldotsize","equaldotsize","equaldotanddens","equaldotsize","equaldotanddens","equaldotanddens","equaldotsize","equaldotanddens","randomdotsizeEA","equaldotsize","equaldotsize","equaldotsize","equaldotsize","randomdotsizeEA","randomdotsizeEA","equaldotsize","equaldotanddens","equaldotsize","equaldotsize","equaldotanddens","equaldotanddens","equaldotsize","randomdotsizeEA","equaldotanddens","randomdotsizeEA","equaldotanddens","randomdotsizeEA","equaldotanddens","randomdotsizeEA","equaldotsize","randomdotsizeEA","randomdotsizeEA","randomdotsizeEA","equaldotsize","randomdotsizeEA","randomdotsizeEA","equaldotanddens","equaldotanddens","equaldotsize","equaldotanddens","equaldotanddens","equaldotanddens","randomdotsizeEA","equaldotanddens","randomdotsizeEA","randomdotsizeEA","randomdotsizeEA","randomdotsizeEA","equaldotsize","randomdotsizeEA","equaldotsize","randomdotsizeEA","equaldotsize","randomdotsizeEA","randomdotsizeEA","randomdotsizeEA","randomdotsizeEA","equaldotanddens","randomdotsizeEA","randomdotsizeEA","equaldotsize","equaldotsize","equaldotsize","randomdotsizeEA","equaldotsize","randomdotsizeEA","equaldotanddens","randomdotsizeEA","randomdotsizeEA","equaldotanddens","equaldotsize","equaldotanddens","randomdotsizeEA","randomdotsizeEA","equaldotanddens","equaldotanddens","equaldotsize","equaldotsize","equaldotsize","equaldotanddens","randomdotsizeEA","equaldotanddens","equaldotsize","equaldotsize","equaldotsize","equaldotanddens","equaldotsize","equaldotsize"],"ratio_trial":[900,500,750,250,500,750,250,750,500,250,500,250,750,500,500,250,900,900,750,500,750,900,750,500,750,900,250,500,900,750,750,900,900,750,500,250,500,900,900,750,500,750,500,250,750,750,900,500,750,900,250,750,500,500,750,750,250,250,250,500,500,250,900,900,500,250,500,250,250,500,500,250,900,250,750,750,900,500,900,500,250,250,900,250,900,900,750,250,900,250,250,250,750,250,750,750,250,750,900,900,500,900,750,250,900,250,500,900,750,500,750,500,750,250,900,900,900,500,500,900],"smaller_num":["18","2","9","3","9","18","2","3","2","3","1","3","6","1","10","6","18","18","6","1","9","9","3","6","15","9","3","6","18","3","3","18","9","6","1","4","1","18","9","3","2","6","1","2","6","18","18","4","6","9","3","3","1","9","15","12","3","3","4","2","5","2","18","18","6","3","2","3","2","3","5","4","9","6","3","15","18","5","18","2","5","6","18","4","18","18","15","6","18","4","2","2","15","2","15","6","2","15","18","18","5","18","3","2","18","2","9","9","9","6","9","10","3","3","18","9","18","5","2","9"],"larger_num":["20","4","12","12","18","24","8","4","4","12","2","12","8","2","20","24","20","20","8","2","12","10","4","12","20","10","12","12","20","4","4","20","10","8","2","16","2","20","10","4","4","8","2","8","8","24","20","8","8","10","12","4","2","18","20","16","12","12","16","4","10","8","20","20","12","12","4","12","8","6","10","16","10","24","4","20","20","10","20","4","20","24","20","16","20","20","20","24","20","16","8","8","20","8","20","8","8","20","20","20","10","20","4","8","20","8","18","10","12","12","12","20","4","12","20","10","20","10","4","10"],"correct_side":[1,1,2,1,2,1,1,1,1,1,2,2,1,2,2,2,2,1,1,2,2,2,1,1,1,2,2,1,2,1,1,1,2,2,2,2,2,1,1,1,1,2,2,1,1,1,1,1,1,1,2,1,2,1,2,2,1,2,1,1,2,2,2,2,1,2,2,1,2,2,1,2,2,1,2,1,1,2,2,1,2,1,2,1,1,2,2,1,1,2,1,1,2,1,2,2,1,1,2,1,1,1,2,2,1,1,1,1,2,1,2,2,1,2,2,2,1,2,1,1],"img_shown":["img/900/equaldotanddens/L/4_Ratio_900_L_20_R_18.png","img/500/randomdotsizeEA/L/5_Ratio_500_L_4_R_2.png","img/750/randomdotsizeEA/R/15_Ratio_750_L_9_R_12.png","img/250/equaldotanddens/L/14_Ratio_250_L_12_R_3.png","img/500/equaldotsize/R/1_Ratio_500_L_9_R_18.png","img/750/equaldotanddens/L/6_Ratio_750_L_24_R_18.png","img/250/equaldotsize/L/3_Ratio_250_L_8_R_2.png","img/750/equaldotanddens/L/10_Ratio_750_L_4_R_3.png","img/500/equaldotanddens/L/10_Ratio_500_L_4_R_2.png","img/250/randomdotsizeEA/L/14_Ratio_250_L_12_R_3.png","img/500/equaldotsize/R/12_Ratio_500_L_1_R_2.png","img/250/equaldotanddens/R/4_Ratio_250_L_3_R_12.png","img/750/equaldotsize/L/13_Ratio_750_L_8_R_6.png","img/500/equaldotsize/R/15_Ratio_500_L_1_R_2.png","img/500/randomdotsizeEA/R/3_Ratio_500_L_10_R_20.png","img/250/equaldotanddens/R/6_Ratio_250_L_6_R_24.png","img/900/equaldotanddens/R/13_Ratio_900_L_18_R_20.png","img/900/equaldotsize/L/8_Ratio_900_L_20_R_18.png","img/750/equaldotanddens/L/13_Ratio_750_L_8_R_6.png","img/500/equaldotanddens/R/15_Ratio_500_L_1_R_2.png","img/750/equaldotsize/R/15_Ratio_750_L_9_R_12.png","img/900/randomdotsizeEA/R/3_Ratio_900_L_9_R_10.png","img/750/randomdotsizeEA/L/9_Ratio_750_L_4_R_3.png","img/500/equaldotsize/L/11_Ratio_500_L_12_R_6.png","img/750/equaldotanddens/L/1_Ratio_750_L_20_R_15.png","img/900/equaldotanddens/R/6_Ratio_900_L_9_R_10.png","img/250/equaldotsize/R/11_Ratio_250_L_3_R_12.png","img/500/randomdotsizeEA/L/11_Ratio_500_L_12_R_6.png","img/900/equaldotanddens/R/11_Ratio_900_L_18_R_20.png","img/750/equaldotanddens/L/9_Ratio_750_L_4_R_3.png","img/750/randomdotsizeEA/L/10_Ratio_750_L_4_R_3.png","img/900/equaldotanddens/L/4_Ratio_900_L_20_R_18.png","img/900/equaldotsize/R/7_Ratio_900_L_9_R_10.png","img/750/equaldotsize/R/2_Ratio_750_L_6_R_8.png","img/500/equaldotanddens/R/12_Ratio_500_L_1_R_2.png","img/250/equaldotsize/R/10_Ratio_250_L_4_R_16.png","img/500/equaldotanddens/R/15_Ratio_500_L_1_R_2.png","img/900/equaldotanddens/L/4_Ratio_900_L_20_R_18.png","img/900/equaldotsize/L/1_Ratio_900_L_10_R_9.png","img/750/equaldotanddens/L/9_Ratio_750_L_4_R_3.png","img/500/randomdotsizeEA/L/5_Ratio_500_L_4_R_2.png","img/750/equaldotsize/R/2_Ratio_750_L_6_R_8.png","img/500/equaldotsize/R/15_Ratio_500_L_1_R_2.png","img/250/equaldotsize/L/1_Ratio_250_L_8_R_2.png","img/750/equaldotsize/L/14_Ratio_750_L_8_R_6.png","img/750/randomdotsizeEA/L/6_Ratio_750_L_24_R_18.png","img/900/randomdotsizeEA/L/10_Ratio_900_L_20_R_18.png","img/500/equaldotsize/L/8_Ratio_500_L_8_R_4.png","img/750/equaldotanddens/L/13_Ratio_750_L_8_R_6.png","img/900/equaldotsize/L/1_Ratio_900_L_10_R_9.png","img/250/equaldotsize/R/4_Ratio_250_L_3_R_12.png","img/750/equaldotanddens/L/8_Ratio_750_L_4_R_3.png","img/500/equaldotanddens/R/15_Ratio_500_L_1_R_2.png","img/500/equaldotsize/L/4_Ratio_500_L_18_R_9.png","img/750/randomdotsizeEA/R/5_Ratio_750_L_15_R_20.png","img/750/equaldotanddens/R/11_Ratio_750_L_12_R_16.png","img/250/randomdotsizeEA/L/15_Ratio_250_L_12_R_3.png","img/250/equaldotanddens/R/11_Ratio_250_L_3_R_12.png","img/250/randomdotsizeEA/L/2_Ratio_250_L_16_R_4.png","img/500/equaldotanddens/L/5_Ratio_500_L_4_R_2.png","img/500/randomdotsizeEA/R/14_Ratio_500_L_5_R_10.png","img/250/equaldotsize/R/13_Ratio_250_L_2_R_8.png","img/900/randomdotsizeEA/R/9_Ratio_900_L_18_R_20.png","img/900/randomdotsizeEA/R/11_Ratio_900_L_18_R_20.png","img/500/randomdotsizeEA/L/11_Ratio_500_L_12_R_6.png","img/250/equaldotsize/R/4_Ratio_250_L_3_R_12.png","img/500/randomdotsizeEA/R/9_Ratio_500_L_2_R_4.png","img/250/randomdotsizeEA/L/15_Ratio_250_L_12_R_3.png","img/250/equaldotanddens/R/13_Ratio_250_L_2_R_8.png","img/500/equaldotanddens/R/2_Ratio_500_L_3_R_6.png","img/500/equaldotsize/L/7_Ratio_500_L_10_R_5.png","img/250/equaldotanddens/R/10_Ratio_250_L_4_R_16.png","img/900/equaldotanddens/R/15_Ratio_900_L_9_R_10.png","img/250/equaldotanddens/L/5_Ratio_250_L_24_R_6.png","img/750/randomdotsizeEA/R/12_Ratio_750_L_3_R_4.png","img/750/equaldotanddens/L/1_Ratio_750_L_20_R_15.png","img/900/randomdotsizeEA/L/4_Ratio_900_L_20_R_18.png","img/500/randomdotsizeEA/R/14_Ratio_500_L_5_R_10.png","img/900/randomdotsizeEA/R/14_Ratio_900_L_18_R_20.png","img/500/randomdotsizeEA/L/5_Ratio_500_L_4_R_2.png","img/250/equaldotsize/R/12_Ratio_250_L_5_R_20.png","img/250/randomdotsizeEA/L/5_Ratio_250_L_24_R_6.png","img/900/equaldotsize/R/12_Ratio_900_L_18_R_20.png","img/250/randomdotsizeEA/L/2_Ratio_250_L_16_R_4.png","img/900/equaldotsize/L/10_Ratio_900_L_20_R_18.png","img/900/randomdotsizeEA/R/12_Ratio_900_L_18_R_20.png","img/750/randomdotsizeEA/R/3_Ratio_750_L_15_R_20.png","img/250/randomdotsizeEA/L/5_Ratio_250_L_24_R_6.png","img/900/randomdotsizeEA/L/4_Ratio_900_L_20_R_18.png","img/250/equaldotanddens/R/10_Ratio_250_L_4_R_16.png","img/250/randomdotsizeEA/L/3_Ratio_250_L_8_R_2.png","img/250/randomdotsizeEA/L/1_Ratio_250_L_8_R_2.png","img/750/equaldotsize/R/5_Ratio_750_L_15_R_20.png","img/250/equaldotsize/L/7_Ratio_250_L_8_R_2.png","img/750/equaldotsize/R/3_Ratio_750_L_15_R_20.png","img/750/randomdotsizeEA/R/2_Ratio_750_L_6_R_8.png","img/250/equaldotsize/L/3_Ratio_250_L_8_R_2.png","img/750/randomdotsizeEA/L/1_Ratio_750_L_20_R_15.png","img/900/equaldotanddens/R/12_Ratio_900_L_18_R_20.png","img/900/randomdotsizeEA/L/8_Ratio_900_L_20_R_18.png","img/500/randomdotsizeEA/L/7_Ratio_500_L_10_R_5.png","img/900/equaldotanddens/L/8_Ratio_900_L_20_R_18.png","img/750/equaldotsize/R/12_Ratio_750_L_3_R_4.png","img/250/equaldotanddens/R/13_Ratio_250_L_2_R_8.png","img/900/randomdotsizeEA/L/8_Ratio_900_L_20_R_18.png","img/250/randomdotsizeEA/L/1_Ratio_250_L_8_R_2.png","img/500/equaldotanddens/L/4_Ratio_500_L_18_R_9.png","img/900/equaldotanddens/L/1_Ratio_900_L_10_R_9.png","img/750/equaldotsize/R/15_Ratio_750_L_9_R_12.png","img/500/equaldotsize/L/13_Ratio_500_L_12_R_6.png","img/750/equaldotsize/R/15_Ratio_750_L_9_R_12.png","img/500/equaldotanddens/R/3_Ratio_500_L_10_R_20.png","img/750/randomdotsizeEA/L/10_Ratio_750_L_4_R_3.png","img/250/equaldotanddens/R/4_Ratio_250_L_3_R_12.png","img/900/equaldotsize/R/12_Ratio_900_L_18_R_20.png","img/900/equaldotsize/R/5_Ratio_900_L_9_R_10.png","img/900/equaldotsize/L/2_Ratio_900_L_20_R_18.png","img/500/equaldotanddens/R/14_Ratio_500_L_5_R_10.png","img/500/equaldotsize/L/10_Ratio_500_L_4_R_2.png","img/900/equaldotsize/L/1_Ratio_900_L_10_R_9.png"],"Rat0":[["12_Ratio_0_L_9_R_0.png","13_Ratio_0_L_6_R_0.png","5_Ratio_0_L_2_R_0.png","6_Ratio_0_L_4_R_0.png","8_Ratio_0_L_6_R_0.png"],["1_Ratio_0_L_0_R_17.png","10_Ratio_0_L_0_R_22.png","11_Ratio_0_L_0_R_1.png","14_Ratio_0_L_0_R_24.png","15_Ratio_0_L_0_R_4.png","2_Ratio_0_L_0_R_5.png","3_Ratio_0_L_0_R_17.png","4_Ratio_0_L_0_R_7.png","7_Ratio_0_L_0_R_19.png","9_Ratio_0_L_0_R_15.png"]],"Rat250":[["1_Ratio_250_L_8_R_2.png","14_Ratio_250_L_12_R_3.png","15_Ratio_250_L_12_R_3.png","2_Ratio_250_L_16_R_4.png","3_Ratio_250_L_8_R_2.png","5_Ratio_250_L_24_R_6.png","7_Ratio_250_L_8_R_2.png"],["10_Ratio_250_L_4_R_16.png","11_Ratio_250_L_3_R_12.png","12_Ratio_250_L_5_R_20.png","13_Ratio_250_L_2_R_8.png","4_Ratio_250_L_3_R_12.png","6_Ratio_250_L_6_R_24.png","8_Ratio_250_L_1_R_4.png","9_Ratio_250_L_3_R_12.png"]],"Rat500":[["10_Ratio_500_L_4_R_2.png","11_Ratio_500_L_12_R_6.png","13_Ratio_500_L_12_R_6.png","4_Ratio_500_L_18_R_9.png","5_Ratio_500_L_4_R_2.png","7_Ratio_500_L_10_R_5.png","8_Ratio_500_L_8_R_4.png"],["1_Ratio_500_L_9_R_18.png","12_Ratio_500_L_1_R_2.png","14_Ratio_500_L_5_R_10.png","15_Ratio_500_L_1_R_2.png","2_Ratio_500_L_3_R_6.png","3_Ratio_500_L_10_R_20.png","6_Ratio_500_L_9_R_18.png","9_Ratio_500_L_2_R_4.png"]],"Rat750":[["1_Ratio_750_L_20_R_15.png","10_Ratio_750_L_4_R_3.png","13_Ratio_750_L_8_R_6.png","14_Ratio_750_L_8_R_6.png","6_Ratio_750_L_24_R_18.png","8_Ratio_750_L_4_R_3.png","9_Ratio_750_L_4_R_3.png"],["11_Ratio_750_L_12_R_16.png","12_Ratio_750_L_3_R_4.png","15_Ratio_750_L_9_R_12.png","2_Ratio_750_L_6_R_8.png","3_Ratio_750_L_15_R_20.png","4_Ratio_750_L_15_R_20.png","5_Ratio_750_L_15_R_20.png","7_Ratio_750_L_3_R_4.png"]],"Rat900":[["1_Ratio_900_L_10_R_9.png","10_Ratio_900_L_20_R_18.png","2_Ratio_900_L_20_R_18.png","4_Ratio_900_L_20_R_18.png","8_Ratio_900_L_20_R_18.png"],["11_Ratio_900_L_18_R_20.png","12_Ratio_900_L_18_R_20.png","13_Ratio_900_L_18_R_20.png","14_Ratio_900_L_18_R_20.png","15_Ratio_900_L_9_R_10.png","3_Ratio_900_L_9_R_10.png","5_Ratio_900_L_9_R_10.png","6_Ratio_900_L_9_R_10.png","7_Ratio_900_L_9_R_10.png","9_Ratio_900_L_18_R_20.png"]],"Rat1000":[["10_Ratio_1000_L_16_R_16.png","11_Ratio_1000_L_6_R_6.png","12_Ratio_1000_L_14_R_14.png","13_Ratio_1000_L_20_R_20.png","15_Ratio_1000_L_15_R_15.png","2_Ratio_1000_L_17_R_17.png","4_Ratio_1000_L_9_R_9.png","5_Ratio_1000_L_6_R_6.png","6_Ratio_1000_L_19_R_19.png","8_Ratio_1000_L_14_R_14.png","9_Ratio_1000_L_25_R_25.png"],["1_Ratio_1000_L_1_R_1.png","14_Ratio_1000_L_17_R_17.png","3_Ratio_1000_L_17_R_17.png","7_Ratio_1000_L_6_R_6.png"]]}},{"start_time":1552309517376,"click_time":1552309519903,"finger_time":1552309518242,"fix_duration":250,"trial":1,"RT":866,"MT":1661,"sideResp":1,"stimulus":"img/500/randomdotsizeEA/L/5_Ratio_500_L_4_R_2.png","xmouse":[821,817,817,815,815,815,815,815,815,815,813,813,813,812,811,811,811,811,811,811,811,811,811,811,811,811,811,811,811,811,811,811,811,811,811,811,811,811,810,810,812,824,834,850,869,883,892,892,892,894,894,894,894,894,894,894,894,894,894,894,894,894,894,894,894,894,895,895,895,896,897,906,906,908,909,911,911,911,911,911,911,893,863,811,777,757,735,729,728,724,717,679,655,639,631,630,630,630,630,630,628,619,612,609,606,606,603,589,572,554,549,549,549,547,547,543,523,519,519,519,519,519,519,519,517,517,501],"ymouse":[545,541,541,541,541,541,541,541,541,541,540,539,539,538,537,537,537,537,537,537,537,537,537,537,537,537,537,537,537,537,537,537,537,537,537,537,537,537,534,531,524,498,476,447,397,346,309,304,300,296,289,272,268,267,266,265,261,261,261,261,261,261,261,261,261,261,261,261,261,259,259,257,257,256,256,256,255,255,255,255,254,243,231,207,188,177,165,163,161,161,159,148,142,135,133,132,132,132,132,132,132,132,132,131,130,130,128,127,121,117,115,115,115,115,115,113,107,105,105,105,105,105,105,105,103,103,96],"timestamp_mouse":[7,27,49,66,87,107,128,148,167,188,207,227,247,267,287,308,327,348,368,386,407,428,448,467,488,507,527,548,568,588,607,627,647,667,687,707,727,748,767,788,808,827,847,866,887,908,926,946,967,987,1008,1028,1047,1068,1088,1108,1127,1147,1166,1187,1207,1227,1248,1268,1287,1307,1326,1347,1367,1387,1408,1427,1448,1467,1487,1506,1527,1547,1567,1588,1607,1626,1648,1668,1688,1708,1727,1748,1767,1787,1808,1827,1847,1868,1887,1907,1927,1947,1967,1988,2006,2027,2048,2067,2088,2107,2127,2147,2167,2187,2208,2227,2247,2267,2287,2307,2327,2347,2366,2387,2407,2427,2448,2467,2486,2507,2527],"xSR":741.5,"ySR":469.95,"xT1":424.9,"yT1":0,"xT2":1058.1,"yT2":0,"toosoon":0,"cond_shown":"randomdotsizeEA","ratio_trial":500,"smaller_num":"2","larger_num":"4","correct_side":1,"subjID":"alexsantiagoperezsanchez23","gender":"0","age":"8","school":"4"},{"start_time":1552309521503,"click_time":1552309522643,"finger_time":1552309522144,"fix_duration":300.12018266745656,"trial":2,"RT":641,"MT":499,"sideResp":2,"stimulus":"img/750/randomdotsizeEA/R/15_Ratio_750_L_9_R_12.png","xmouse":[792,792,792,792,792,792,792,792,792,792,792,792,792,792,792,792,792,792,792,792,792,792,792,792,792,792,792,792,792,792,800,815,823,833,839,856,882,905,916,969,976,976,976,976,976,976,976,976,976,976,976,976,976,976,1026,1033,1067],"ymouse":[484,484,484,484,484,484,484,484,484,484,484,484,484,484,484,484,484,484,484,484,484,484,484,484,484,484,484,484,484,484,482,465,451,432,418,374,271,213,167,9,1,1,1,1,1,1,1,1,1,1,1,1,1,1,10,19,39],"timestamp_mouse":[20,39,60,80,99,120,140,161,180,200,221,239,261,280,301,321,340,360,381,400,421,440,460,479,501,520,540,561,581,601,620,641,661,680,701,720,740,760,781,800,820,840,861,880,900,920,941,960,980,1000,1021,1040,1060,1081,1101,1120,1140],"xSR":741.5,"ySR":469.95,"xT1":424.9,"yT1":0,"xT2":1058.1,"yT2":0,"toosoon":0,"cond_shown":"randomdotsizeEA","ratio_trial":750,"smaller_num":"9","larger_num":"12","correct_side":2,"subjID":"alexsantiagoperezsanchez23","gender":"0","age":"8","school":"4"},{"start_time":1552309525060,"click_time":1552309526003,"finger_time":1552309525704,"fix_duration":975.1969699574306,"trial":3,"RT":644,"MT":299,"sideResp":1,"stimulus":"img/250/equaldotanddens/L/14_Ratio_250_L_12_R_3.png","xmouse":[814,814,814,814,814,814,814,814,814,814,814,814,814,814,814,814,814,814,814,814,814,814,814,814,814,814,814,814,814,814,814,808,794,783,767,747,714,683,624,619,613,611,596,578,563,545,531,522],"ymouse":[499,499,499,499,499,499,499,499,499,499,499,499,499,499,499,499,499,499,499,499,499,499,499,499,499,499,499,499,499,499,499,488,456,429,389,351,302,253,169,164,157,156,146,134,125,111,100,94],"timestamp_mouse":[3,24,43,63,84,103,124,143,164,183,204,223,242,264,283,304,324,343,362,383,404,422,444,464,484,504,524,542,564,584,603,623,643,663,683,703,724,744,762,783,804,823,844,862,883,903,924,942],"xSR":741.5,"ySR":469.95,"xT1":424.9,"yT1":0,"xT2":1058.1,"yT2":0,"toosoon":0,"cond_shown":"equaldotanddens","ratio_trial":250,"smaller_num":"3","larger_num":"12","correct_side":1,"subjID":"alexsantiagoperezsanchez23","gender":"0","age":"8","school":"4"},{"start_time":1552309528335,"click_time":1552309529343,"finger_time":1552309528923,"fix_duration":1089.5229889904895,"trial":4,"RT":588,"MT":420,"sideResp":2,"stimulus":"img/500/equaldotsize/R/1_Ratio_500_L_9_R_18.png","xmouse":[762,762,762,762,762,762,762,762,762,762,762,762,762,762,762,762,762,762,762,762,762,762,762,762,762,762,762,778,787,842,874,894,912,927,1005,1032,1036,1036,1033,1024,1023,1023,1023,1025,1031,1033,1035,1039,1043,1055,1059],"ymouse":[495,495,495,495,495,495,495,495,495,495,495,495,495,495,495,495,495,495,495,495,495,495,495,495,495,495,495,486,479,440,421,412,397,385,279,210,174,141,128,112,111,110,109,106,96,95,93,91,90,88,88],"timestamp_mouse":[8,28,49,68,88,108,128,147,168,189,209,229,247,268,288,309,329,348,369,388,408,428,448,468,489,508,528,549,569,588,608,628,648,668,688,708,729,748,769,787,808,828,849,868,888,908,928,948,968,988,1007],"xSR":741.5,"ySR":469.95,"xT1":424.9,"yT1":0,"xT2":1058.1,"yT2":0,"toosoon":0,"cond_shown":"equaldotsize","ratio_trial":500,"smaller_num":"9","larger_num":"18","correct_side":2,"subjID":"alexsantiagoperezsanchez23","gender":"0","age":"8","school":"4"},{"start_time":1552309531196,"click_time":1552309534084,"finger_time":1552309533143,"fix_duration":1172.1542791276684,"trial":5,"RT":1947,"MT":941,"sideResp":2,"stimulus":"img/750/equaldotanddens/L/6_Ratio_750_L_24_R_18.png","xmouse":[807,807,807,807,807,807,807,807,807,807,807,807,807,807,807,807,807,807,807,807,807,807,807,807,807,807,807,807,807,807,807,807,807,807,807,807,807,807,807,807,807,807,807,807,807,807,807,807,807,807,807,807,807,807,807,807,807,807,807,807,807,807,807,807,807,807,807,807,807,807,807,807,807,807,807,807,807,807,807,807,807,807,807,807,807,807,807,807,807,807,807,807,807,807,807,814,825,861,875,882,883,883,883,883,883,883,883,883,882,880,880,880,880,880,880,880,880,880,879,879,879,879,879,880,891,900,908,933,955,983,1002,1029,1031,1032,1032,1032,1032,1032,1033,1035,1037,1045,1052,1059,1069],"ymouse":[520,520,520,520,520,520,520,520,520,520,520,520,520,520,520,520,520,520,520,520,520,520,520,520,520,520,520,520,520,520,520,520,520,520,520,520,520,520,520,520,520,520,520,520,520,520,520,520,520,520,520,520,520,520,520,520,520,520,520,520,520,520,520,520,520,520,520,520,520,520,520,520,520,520,520,520,520,520,520,520,520,520,520,520,520,520,520,520,520,520,520,520,520,520,520,515,501,440,391,365,352,338,334,332,330,326,323,316,312,308,308,308,308,308,308,308,308,308,307,307,307,307,307,300,291,283,275,259,250,235,222,192,188,187,187,187,179,172,157,153,146,133,121,106,84],"timestamp_mouse":[8,27,48,67,88,107,128,148,167,187,207,228,248,268,287,306,328,348,366,387,408,427,448,466,488,508,527,548,568,587,608,627,648,667,686,708,727,748,768,788,808,827,848,868,887,908,927,947,968,988,1008,1027,1047,1066,1087,1107,1128,1148,1167,1187,1208,1228,1248,1267,1288,1308,1326,1348,1368,1387,1407,1427,1447,1468,1486,1506,1527,1547,1567,1588,1608,1628,1648,1667,1688,1707,1726,1748,1768,1788,1808,1827,1848,1867,1887,1908,1927,1947,1967,1987,2007,2028,2047,2068,2087,2108,2128,2148,2168,2188,2207,2228,2247,2266,2288,2306,2327,2347,2367,2387,2406,2427,2447,2468,2487,2507,2527,2547,2567,2587,2607,2628,2647,2667,2687,2707,2729,2747,2767,2787,2808,2828,2846,2868,2888],"xSR":741.5,"ySR":469.95,"xT1":424.9,"yT1":0,"xT2":1058.1,"yT2":0,"toosoon":0,"cond_shown":"equaldotanddens","ratio_trial":750,"smaller_num":"18","larger_num":"24","correct_side":1,"subjID":"alexsantiagoperezsanchez23","gender":"0","age":"8","school":"4"},{"start_time":1552309538075,"click_time":1552309539063,"finger_time":1552309538822,"fix_duration":1009.454763329426,"trial":6,"RT":747,"MT":241,"sideResp":1,"stimulus":"img/250/equaldotsize/L/3_Ratio_250_L_8_R_2.png","xmouse":[777,777,777,777,777,777,777,777,777,777,777,777,777,777,777,777,777,777,777,777,777,777,777,777,777,777,777,777,777,777,777,777,777,777,776,774,770,761,741,729,718,701,681,626,606,584,564,550,537,517],"ymouse":[500,500,500,500,500,500,500,500,500,500,500,500,500,500,500,500,500,500,500,500,500,500,500,500,500,500,500,500,500,500,500,500,500,500,500,488,474,454,406,380,352,324,291,205,170,133,99,79,60,30],"timestamp_mouse":[8,27,49,68,89,108,128,149,169,189,208,228,249,268,289,309,328,347,368,388,408,427,449,468,488,508,528,549,569,587,609,629,648,668,688,709,728,747,768,788,807,829,848,868,888,908,928,948,968,988],"xSR":741.5,"ySR":469.95,"xT1":424.9,"yT1":0,"xT2":1058.1,"yT2":0,"toosoon":0,"cond_shown":"equaldotsize","ratio_trial":250,"smaller_num":"2","larger_num":"8","correct_side":1,"subjID":"alexsantiagoperezsanchez23","gender":"0","age":"8","school":"4"},{"start_time":1552309543180,"click_time":1552309544463,"finger_time":1552309543964,"fix_duration":1475.009364578113,"trial":7,"RT":784,"MT":499,"sideResp":1,"stimulus":"img/750/equaldotanddens/L/10_Ratio_750_L_4_R_3.png","xmouse":[791,791,791,791,791,791,791,791,791,791,791,791,791,791,791,791,791,791,791,791,791,791,791,791,791,791,791,791,791,791,791,791,791,791,787,780,775,773,769,752,741,723,709,692,652,625,597,582,567,546,540,535,530,527,524,524,524,524,522,517,514,511,508,502,495],"ymouse":[524,524,524,524,524,524,524,524,524,524,524,524,524,524,524,524,524,524,523,523,523,523,523,523,523,523,523,523,523,523,523,523,523,523,519,500,490,483,474,436,414,384,360,333,283,255,220,206,189,168,161,156,151,150,147,147,147,147,145,138,134,129,121,108,87],"timestamp_mouse":[4,22,44,63,83,104,124,144,162,184,204,224,243,263,283,304,322,343,363,384,403,422,444,464,483,504,524,542,564,583,604,623,644,664,684,704,723,744,763,784,804,823,844,863,883,904,924,943,965,983,1003,1023,1043,1064,1082,1103,1123,1143,1165,1183,1203,1223,1243,1263,1283],"xSR":741.5,"ySR":469.95,"xT1":424.9,"yT1":0,"xT2":1058.1,"yT2":0,"toosoon":0,"cond_shown":"equaldotanddens","ratio_trial":750,"smaller_num":"3","larger_num":"4","correct_side":1,"subjID":"alexsantiagoperezsanchez23","gender":"0","age":"8","school":"4"},{"start_time":1552309546966,"click_time":1552309549703,"finger_time":1552309548524,"fix_duration":302.4787105013893,"trial":8,"RT":1558,"MT":1179,"sideResp":2,"stimulus":"img/500/equaldotanddens/L/10_Ratio_500_L_4_R_2.png","xmouse":[792,792,792,792,789,786,786,786,786,786,786,786,786,786,786,786,786,786,786,786,786,786,786,786,789,793,794,794,794,794,794,794,794,794,793,793,793,793,793,793,793,793,793,791,786,780,777,776,775,775,773,771,771,771,771,771,771,771,771,771,771,771,771,771,771,771,771,771,771,771,771,771,773,775,802,815,830,850,869,903,920,934,947,951,952,952,952,952,952,952,952,952,956,960,995,1008,1019,1024,1027,1028,1028,1028,1028,1028,1028,1028,1025,1017,1006,987,987,987,987,987,987,987,987,987,987,987,987,989,996,1006,1020,1023,1026,1027,1031,1039,1042,1045,1047,1053,1055,1058,1060],"ymouse":[482,482,482,482,482,490,498,508,511,512,512,512,512,512,512,512,512,512,512,512,512,512,512,512,513,511,511,511,511,511,511,511,511,512,515,515,515,515,515,515,515,515,515,515,516,519,520,520,521,521,523,525,525,525,525,525,525,525,525,525,525,525,525,525,525,525,525,525,525,525,525,525,525,525,525,524,519,512,504,486,473,462,450,441,432,431,431,431,431,431,431,431,426,420,389,378,369,364,359,352,337,319,294,242,214,162,136,113,88,52,41,38,35,35,35,35,35,35,35,35,35,37,49,61,72,73,74,74,74,74,73,72,72,70,70,68,68],"timestamp_mouse":[17,37,58,77,97,118,138,156,177,197,218,236,258,278,297,318,336,357,378,398,418,437,458,477,496,517,538,558,576,597,618,638,657,677,698,717,737,757,777,797,817,838,858,878,897,917,938,958,977,997,1017,1038,1057,1078,1098,1117,1138,1157,1178,1196,1217,1237,1257,1278,1298,1318,1338,1358,1378,1397,1416,1437,1456,1478,1498,1517,1538,1558,1577,1597,1617,1638,1657,1678,1697,1717,1736,1757,1777,1797,1818,1837,1857,1878,1897,1917,1938,1957,1977,1998,2017,2037,2058,2077,2098,2117,2138,2156,2177,2197,2218,2237,2258,2277,2298,2318,2338,2357,2377,2396,2417,2438,2457,2478,2497,2517,2537,2557,2578,2598,2617,2637,2658,2678,2698,2717,2737],"xSR":741.5,"ySR":469.95,"xT1":424.9,"yT1":0,"xT2":1058.1,"yT2":0,"toosoon":0,"cond_shown":"equaldotanddens","ratio_trial":500,"smaller_num":"2","larger_num":"4","correct_side":1,"subjID":"alexsantiagoperezsanchez23","gender":"0","age":"8","school":"4"},{"start_time":1552309554031,"click_time":1552309555583,"finger_time":1552309554604,"fix_duration":1228.282405555306,"trial":9,"RT":573,"MT":979,"sideResp":1,"stimulus":"img/250/randomdotsizeEA/L/14_Ratio_250_L_12_R_3.png","xmouse":[772,772,772,772,772,772,772,772,772,772,772,772,772,772,772,772,772,772,772,772,772,772,772,772,772,772,771,766,757,754,751,747,741,735,726,713,695,653,632,611,586,567,555,555,555,556,558,558,558,558,558,558,558,558,558,558,558,558,558,558,558,558,558,558,558,558,558,558,558,558,558,558,558,558,558,558,558,524],"ymouse":[519,519,519,519,519,519,519,519,519,519,519,519,519,519,519,519,519,519,519,519,519,519,519,518,515,511,507,490,468,465,459,457,450,444,435,422,406,362,338,310,276,248,230,228,224,209,182,66,28,28,28,28,28,28,28,28,28,28,28,28,28,28,28,28,28,28,28,28,28,28,28,28,28,28,28,28,28,11],"timestamp_mouse":[12,32,52,73,92,112,133,153,172,192,212,231,253,273,292,312,332,352,373,392,411,432,453,472,492,512,532,553,573,593,613,632,651,672,693,713,732,752,772,792,812,833,852,872,891,911,932,952,973,993,1013,1032,1053,1073,1092,1112,1133,1153,1172,1191,1213,1232,1253,1272,1291,1312,1332,1353,1372,1392,1413,1432,1453,1472,1492,1511,1532,1552],"xSR":741.5,"ySR":469.95,"xT1":424.9,"yT1":0,"xT2":1058.1,"yT2":0,"toosoon":0,"cond_shown":"randomdotsizeEA","ratio_trial":250,"smaller_num":"3","larger_num":"12","correct_side":1,"subjID":"alexsantiagoperezsanchez23","gender":"0","age":"8","school":"4"},{"start_time":1552309557569,"click_time":1552309559623,"finger_time":1552309558383,"fix_duration":384.90957867473395,"trial":10,"RT":814,"MT":1240,"sideResp":2,"stimulus":"img/500/equaldotsize/R/12_Ratio_500_L_1_R_2.png","xmouse":[819,819,819,819,819,819,819,819,819,819,819,819,819,819,819,819,819,819,819,819,819,819,819,819,819,819,819,819,819,819,819,819,819,819,819,819,819,819,822,831,842,898,922,936,941,944,947,950,953,960,963,963,963,963,968,981,992,1000,1006,1012,1015,1027,1037,1046,1055,1061,1063,1063,1063,1063,1063,1063,1064,1065,1067,1067,1070,1071,1071,1072,1074,1074,1074,1074,1076,1076,1076,1076,1076,1076,1076,1076,1076,1076,1076,1076,1076,1076,1076,1076,1076,1076,1076],"ymouse":[524,524,524,524,524,524,524,524,524,524,524,524,524,524,524,524,524,524,524,524,524,524,524,524,524,524,524,524,524,524,524,524,524,524,524,524,524,524,524,523,519,483,454,424,404,382,371,354,340,313,297,279,274,271,266,251,242,234,231,227,223,211,205,199,193,188,183,183,183,183,183,183,181,177,172,169,162,159,153,142,135,124,117,115,111,110,107,106,105,105,105,105,105,105,105,105,105,105,105,103,102,100,99],"timestamp_mouse":[18,33,54,74,93,115,134,155,174,195,215,234,253,275,295,315,335,354,374,394,413,434,454,474,495,515,534,555,574,594,615,635,654,675,694,713,734,755,773,794,814,835,854,874,895,915,934,954,975,994,1015,1034,1055,1075,1095,1114,1134,1155,1173,1194,1214,1234,1255,1274,1294,1315,1334,1354,1373,1395,1413,1435,1455,1474,1495,1515,1534,1555,1573,1594,1614,1635,1655,1674,1695,1715,1735,1755,1774,1794,1815,1834,1854,1874,1894,1915,1934,1954,1975,1993,2013,2034,2053],"xSR":741.5,"ySR":469.95,"xT1":424.9,"yT1":0,"xT2":1058.1,"yT2":0,"toosoon":0,"cond_shown":"equaldotsize","ratio_trial":500,"smaller_num":"1","larger_num":"2","correct_side":2,"subjID":"alexsantiagoperezsanchez23","gender":"0","age":"8","school":"4"},{"start_time":1552309561270,"click_time":1552309562743,"finger_time":1552309562104,"fix_duration":465.5425916801681,"trial":11,"RT":834,"MT":639,"sideResp":2,"stimulus":"img/250/equaldotanddens/R/4_Ratio_250_L_3_R_12.png","xmouse":[813,813,813,813,813,813,813,813,813,813,813,813,813,813,813,813,813,813,813,813,813,813,813,813,813,813,813,813,813,813,813,813,813,813,813,813,813,813,813,817,822,871,917,934,945,952,967,973,978,981,984,989,991,992,994,996,1010,1019,1028,1037,1046,1051,1052,1054,1056,1057,1058,1060,1061,1062,1063,1068,1075,1081],"ymouse":[511,511,511,511,511,511,511,511,511,511,511,511,511,511,511,511,511,511,511,511,511,511,511,511,511,511,511,511,511,511,511,511,511,511,511,511,511,511,511,511,509,477,432,410,397,380,349,334,324,315,303,281,272,264,257,248,220,200,188,177,170,167,166,164,162,160,158,156,154,151,145,131,112,96],"timestamp_mouse":[13,32,53,74,93,112,133,153,173,194,213,232,254,273,294,315,332,354,373,394,414,434,454,474,492,513,534,554,574,593,614,633,654,674,693,714,734,754,772,794,813,834,853,872,893,914,933,953,973,994,1015,1033,1054,1074,1093,1114,1133,1153,1173,1193,1213,1232,1253,1273,1293,1314,1333,1354,1372,1394,1413,1433,1453,1473],"xSR":741.5,"ySR":469.95,"xT1":424.9,"yT1":0,"xT2":1058.1,"yT2":0,"toosoon":0,"cond_shown":"equaldotanddens","ratio_trial":250,"smaller_num":"3","larger_num":"12","correct_side":2,"subjID":"alexsantiagoperezsanchez23","gender":"0","age":"8","school":"4"},{"start_time":1552309564277,"click_time":1552309565503,"finger_time":1552309564704,"fix_duration":573.2945383625265,"trial":12,"RT":427,"MT":799,"sideResp":2,"stimulus":"img/750/equaldotsize/L/13_Ratio_750_L_8_R_6.png","xmouse":[822,822,822,822,822,822,822,822,823,824,825,827,827,827,827,827,827,827,827,827,829,841,851,866,882,896,939,961,979,989,996,1001,1001,1001,1004,1005,1007,1007,1007,1007,1007,1007,1007,1007,1007,1008,1009,1010,1012,1015,1019,1035,1041,1046,1050,1051,1057,1060,1061,1064,1066,1069],"ymouse":[476,476,476,476,476,476,476,476,476,476,476,475,475,475,475,475,475,475,475,475,475,468,459,444,427,409,346,302,259,222,201,160,152,141,130,119,110,109,109,109,109,109,109,109,109,109,109,109,109,109,110,112,112,112,112,112,112,110,108,106,102,96],"timestamp_mouse":[7,26,46,66,86,107,127,147,166,187,206,227,246,266,287,306,327,346,366,387,406,427,446,467,486,506,526,545,566,586,606,626,646,666,687,707,726,747,766,786,806,826,846,866,886,906,926,946,966,986,1006,1026,1046,1067,1086,1107,1126,1146,1166,1187,1206,1226],"xSR":741.5,"ySR":469.95,"xT1":424.9,"yT1":0,"xT2":1058.1,"yT2":0,"toosoon":0,"cond_shown":"equaldotsize","ratio_trial":750,"smaller_num":"6","larger_num":"8","correct_side":1,"subjID":"alexsantiagoperezsanchez23","gender":"0","age":"8","school":"4"},{"start_time":1552309566932,"click_time":1552309568344,"finger_time":1552309567704,"fix_duration":429.9780259197825,"trial":13,"RT":772,"MT":640,"sideResp":2,"stimulus":"img/500/equaldotsize/R/15_Ratio_500_L_1_R_2.png","xmouse":[812,812,812,812,812,812,812,812,812,812,812,812,812,812,812,812,812,812,812,812,812,812,812,812,812,812,812,812,812,812,812,812,812,812,812,812,814,822,889,954,1033,1105,1155,1183,1206,1215,1220,1237,1237,1237,1237,1237,1237,1237,1237,1237,1237,1237,1237,1237,1237,1237,1237,1237,1237,1237,1237,1208,1194,1164,1150],"ymouse":[534,534,534,534,534,534,534,534,534,534,534,534,534,534,534,534,534,534,534,534,534,534,534,534,534,534,534,534,534,534,534,534,534,534,534,534,530,523,460,396,321,235,165,112,58,38,24,2,2,2,2,2,2,2,2,2,2,2,2,2,2,2,2,2,2,2,2,4,12,29,37],"timestamp_mouse":[12,31,52,70,91,111,131,151,171,191,212,232,251,271,292,312,332,351,372,392,412,432,451,471,492,512,531,551,570,591,611,632,651,670,691,712,730,751,772,790,812,831,852,872,891,910,932,951,972,991,1011,1031,1051,1072,1091,1110,1132,1152,1172,1191,1211,1231,1252,1271,1292,1310,1332,1352,1371,1392,1412],"xSR":741.5,"ySR":469.95,"xT1":424.9,"yT1":0,"xT2":1058.1,"yT2":0,"toosoon":0,"cond_shown":"equaldotsize","ratio_trial":500,"smaller_num":"1","larger_num":"2","correct_side":2,"subjID":"alexsantiagoperezsanchez23","gender":"0","age":"8","school":"4"},{"start_time":1552309569722,"click_time":1552309571222,"finger_time":1552309570562,"fix_duration":498.0634136878659,"trial":14,"RT":840,"MT":660,"sideResp":2,"stimulus":"img/500/randomdotsizeEA/R/3_Ratio_500_L_10_R_20.png","xmouse":[792,792,792,792,792,792,792,792,792,792,792,792,792,792,792,792,792,792,792,792,792,792,792,792,792,792,792,792,792,792,792,792,792,792,792,792,792,792,792,792,809,836,863,892,927,1008,1079,1126,1179,1243,1331,1343,1346,1348,1349,1349,1351,1351,1351,1351,1344,1337,1329,1322,1315,1308,1305,1301,1292,1280,1260,1253,1243,1229,1206,1132],"ymouse":[508,508,508,508,508,508,508,508,508,508,508,508,508,508,508,508,508,508,508,508,508,508,508,508,508,508,508,508,508,508,508,508,508,508,508,508,508,508,508,508,505,495,483,470,456,412,365,331,284,233,134,115,109,102,97,86,70,66,66,64,62,62,61,59,59,59,59,59,59,59,53,49,42,36,26,2],"timestamp_mouse":[1,21,40,60,80,101,121,141,159,180,200,221,240,261,281,300,321,340,360,381,400,421,439,461,481,501,520,540,561,581,600,620,641,660,681,700,720,740,761,781,800,820,840,860,881,901,920,940,960,980,1001,1020,1040,1061,1081,1100,1120,1140,1160,1180,1200,1221,1240,1261,1280,1300,1320,1340,1360,1380,1400,1420,1441,1461,1480,1500],"xSR":741.5,"ySR":469.95,"xT1":424.9,"yT1":0,"xT2":1058.1,"yT2":0,"toosoon":0,"cond_shown":"randomdotsizeEA","ratio_trial":500,"smaller_num":"10","larger_num":"20","correct_side":2,"subjID":"alexsantiagoperezsanchez23","gender":"0","age":"8","school":"4"},{"start_time":1552309574827,"click_time":1552309576262,"finger_time":1552309575523,"fix_duration":903.6230582049718,"trial":15,"RT":696,"MT":739,"sideResp":2,"stimulus":"img/250/equaldotanddens/R/6_Ratio_250_L_6_R_24.png","xmouse":[767,767,767,767,767,767,767,767,768,768,768,768,768,768,768,768,768,768,768,768,768,768,768,768,768,768,768,768,768,768,768,776,800,835,889,1064,1148,1220,1268,1282,1282,1283,1283,1283,1283,1283,1284,1284,1284,1284,1283,1279,1269,1260,1243,1237,1232,1227,1216,1204,1202,1197,1195,1193,1190,1187,1187,1185,1178,1166,1160,1153],"ymouse":[513,513,513,513,513,513,513,513,513,513,513,513,513,513,513,513,513,513,513,513,513,513,513,513,513,513,513,513,513,513,513,513,508,493,468,373,316,260,206,187,185,184,184,184,184,184,183,181,180,177,172,168,159,154,142,139,136,134,133,129,128,127,126,125,123,121,121,120,114,103,96,89],"timestamp_mouse":[16,36,55,75,95,115,135,155,176,195,216,234,256,276,295,315,336,355,376,396,416,436,455,476,496,515,535,555,576,595,616,636,656,676,696,716,735,755,775,796,815,836,854,875,896,916,936,955,976,995,1015,1036,1055,1076,1096,1116,1135,1155,1175,1196,1215,1235,1256,1276,1296,1316,1336,1355,1375,1396,1416,1435],"xSR":741.5,"ySR":469.95,"xT1":424.9,"yT1":0,"xT2":1058.1,"yT2":0,"toosoon":0,"cond_shown":"equaldotanddens","ratio_trial":250,"smaller_num":"6","larger_num":"24","correct_side":2,"subjID":"alexsantiagoperezsanchez23","gender":"0","age":"8","school":"4"},{"start_time":1552309577813,"click_time":1552309578842,"finger_time":1552309578462,"fix_duration":250,"trial":16,"RT":649,"MT":380,"sideResp":2,"stimulus":"img/900/equaldotanddens/R/13_Ratio_900_L_18_R_20.png","xmouse":[793,793,793,793,793,793,793,793,793,793,793,793,793,793,793,793,793,793,793,793,793,793,793,793,793,793,793,793,793,793,793,802,850,895,935,968,1004,1022,1025,1026,1027,1027,1027,1027,1027,1030,1036,1047,1062,1078,1094,1118],"ymouse":[514,514,514,514,514,514,514,514,514,514,514,514,514,514,514,514,514,514,514,514,514,514,514,514,514,514,514,514,514,514,514,513,495,471,449,427,379,336,321,310,305,301,300,295,288,279,258,227,193,155,115,55],"timestamp_mouse":[9,29,50,70,89,110,130,150,169,189,210,229,249,270,290,310,330,353,369,389,410,429,449,470,489,510,530,550,569,589,609,630,649,670,689,710,729,749,770,789,809,829,849,870,890,910,929,950,970,989,1009,1029],"xSR":741.5,"ySR":469.95,"xT1":424.9,"yT1":0,"xT2":1058.1,"yT2":0,"toosoon":0,"cond_shown":"equaldotanddens","ratio_trial":900,"smaller_num":"18","larger_num":"20","correct_side":2,"subjID":"alexsantiagoperezsanchez23","gender":"0","age":"8","school":"4"},{"start_time":1552309580666,"click_time":1552309582022,"finger_time":1552309581442,"fix_duration":823.2393387559374,"trial":17,"RT":776,"MT":580,"sideResp":2,"stimulus":"img/900/equaldotsize/L/8_Ratio_900_L_20_R_18.png","xmouse":[780,780,780,780,780,780,780,780,780,780,780,780,780,780,780,780,780,780,780,780,780,780,780,780,780,780,780,780,780,780,780,780,780,780,780,786,796,834,922,959,993,1029,1053,1097,1106,1108,1108,1108,1108,1109,1112,1115,1118,1121,1121,1121,1122,1123,1123,1123,1123,1125,1125,1125,1125,1125,1125,1126],"ymouse":[529,529,529,529,529,529,529,529,529,529,529,529,529,529,529,529,529,529,529,529,529,529,529,529,529,529,529,529,529,529,529,529,529,529,529,524,518,498,462,448,435,423,411,351,319,295,276,268,240,222,198,173,149,132,129,126,126,125,123,118,112,108,107,107,107,105,101,94],"timestamp_mouse":[16,37,56,77,96,117,136,157,176,197,217,236,257,277,297,317,336,357,376,397,415,437,456,477,497,516,536,557,577,597,617,636,657,677,696,717,736,756,776,797,816,836,856,876,896,916,936,956,976,996,1017,1036,1056,1076,1096,1117,1136,1157,1176,1196,1217,1236,1256,1276,1297,1315,1337,1356],"xSR":741.5,"ySR":469.95,"xT1":424.9,"yT1":0,"xT2":1058.1,"yT2":0,"toosoon":0,"cond_shown":"equaldotsize","ratio_trial":900,"smaller_num":"18","larger_num":"20","correct_side":1,"subjID":"alexsantiagoperezsanchez23","gender":"0","age":"8","school":"4"},{"start_time":1552309583993,"click_time":1552309585402,"finger_time":1552309584863,"fix_duration":250,"trial":18,"RT":870,"MT":539,"sideResp":1,"stimulus":"img/750/equaldotanddens/L/13_Ratio_750_L_8_R_6.png","xmouse":[770,770,770,770,770,770,770,770,770,770,770,770,770,770,770,770,770,770,770,770,770,770,770,770,770,770,770,770,770,770,770,770,770,770,770,770,770,770,770,770,770,770,776,838,861,875,878,872,865,863,857,854,849,827,804,744,744,744,744,744,744,744,744,744,744,744,744,744,744,744,460],"ymouse":[495,495,495,495,495,495,495,495,495,495,495,495,495,495,495,495,495,495,495,495,495,495,495,495,495,495,495,495,495,495,495,495,495,495,495,495,495,495,495,495,495,496,495,398,342,290,234,187,173,160,150,141,130,99,74,16,16,16,16,16,16,16,16,16,16,16,16,16,16,16,36],"timestamp_mouse":[9,29,50,70,90,109,130,149,169,189,209,230,249,269,290,310,329,350,369,389,409,430,449,469,490,510,529,550,570,589,609,630,650,670,689,709,729,750,769,790,809,830,849,870,890,909,929,949,969,989,1009,1029,1050,1070,1089,1109,1129,1150,1169,1189,1210,1229,1250,1269,1289,1309,1329,1350,1370,1389,1409],"xSR":741.5,"ySR":469.95,"xT1":424.9,"yT1":0,"xT2":1058.1,"yT2":0,"toosoon":0,"cond_shown":"equaldotanddens","ratio_trial":750,"smaller_num":"6","larger_num":"8","correct_side":1,"subjID":"alexsantiagoperezsanchez23","gender":"0","age":"8","school":"4"},{"start_time":1552309587479,"click_time":1552309588562,"finger_time":1552309588063,"fix_duration":795.355019194133,"trial":19,"RT":584,"MT":499,"sideResp":2,"stimulus":"img/500/equaldotanddens/R/15_Ratio_500_L_1_R_2.png","xmouse":[816,827,832,837,840,841,841,841,841,841,841,841,841,841,841,841,841,841,841,841,841,841,841,841,841,841,841,841,841,848,865,900,944,991,1062,1089,1119,1145,1166,1197,1216,1223,1227,1231,1231,1231,1230,1228,1228,1221,1214,1207,1194,1172,1140],"ymouse":[514,509,507,504,503,502,502,502,502,502,502,502,502,502,502,502,502,502,502,502,502,502,502,502,502,502,502,502,502,497,484,458,427,395,340,321,294,272,253,203,156,133,112,87,61,50,47,45,44,43,43,43,44,52,67],"timestamp_mouse":[4,23,43,63,82,103,124,144,163,183,203,223,244,264,282,303,323,344,363,383,403,423,443,462,483,503,524,543,563,584,603,624,643,663,683,704,724,744,763,783,803,823,843,864,883,903,923,943,963,983,1003,1023,1044,1063,1083],"xSR":741.5,"ySR":469.95,"xT1":424.9,"yT1":0,"xT2":1058.1,"yT2":0,"toosoon":0,"cond_shown":"equaldotanddens","ratio_trial":500,"smaller_num":"1","larger_num":"2","correct_side":2,"subjID":"alexsantiagoperezsanchez23","gender":"0","age":"8","school":"4"},{"start_time":1552309590178,"click_time":1552309591242,"finger_time":1552309590702,"fix_duration":513.2823496276541,"trial":20,"RT":524,"MT":540,"sideResp":2,"stimulus":"img/750/equaldotsize/R/15_Ratio_750_L_9_R_12.png","xmouse":[815,815,815,815,815,815,815,815,815,815,815,815,815,815,815,815,815,815,815,815,815,815,815,815,815,820,870,930,990,1124,1170,1209,1243,1276,1299,1300,1300,1300,1300,1300,1300,1300,1300,1300,1268,1247,1227,1215,1207,1197,1190,1176,1159,1143],"ymouse":[498,498,498,498,498,498,498,498,498,498,498,498,498,498,498,498,498,498,498,498,498,498,498,498,498,493,463,421,380,271,217,174,127,82,40,38,38,38,38,38,38,38,37,37,40,46,53,58,61,67,72,82,91,99],"timestamp_mouse":[5,24,44,64,85,104,125,144,164,185,204,225,245,265,284,304,323,344,364,385,404,425,445,465,484,504,524,544,565,584,604,624,645,665,684,704,724,745,765,784,805,824,844,864,884,905,925,944,965,984,1004,1024,1044,1064],"xSR":741.5,"ySR":469.95,"xT1":424.9,"yT1":0,"xT2":1058.1,"yT2":0,"toosoon":0,"cond_shown":"equaldotsize","ratio_trial":750,"smaller_num":"9","larger_num":"12","correct_side":2,"subjID":"alexsantiagoperezsanchez23","gender":"0","age":"8","school":"4"},{"start_time":1552309593051,"click_time":1552309594383,"finger_time":1552309593863,"fix_duration":887.2787258267265,"trial":21,"RT":812,"MT":520,"sideResp":2,"stimulus":"img/900/randomdotsizeEA/R/3_Ratio_900_L_9_R_10.png","xmouse":[754,754,754,754,754,754,754,754,754,754,754,754,754,754,754,754,754,754,754,754,754,754,754,754,754,754,754,754,754,754,754,754,754,754,754,754,754,754,763,806,860,937,956,965,967,976,984,997,1007,1023,1033,1034,1038,1045,1052,1063,1078,1085,1086,1091,1092,1092,1092,1092,1093,1093,1106],"ymouse":[547,547,547,547,547,547,547,547,547,547,547,547,547,547,547,547,547,547,547,547,547,547,547,547,547,547,547,547,547,547,547,547,547,547,547,547,547,547,542,515,479,432,422,417,416,406,396,382,366,344,328,324,315,297,271,243,190,165,158,142,137,136,136,136,133,126,91],"timestamp_mouse":[11,31,51,72,92,112,131,151,171,192,211,232,251,271,292,312,331,351,371,391,412,432,452,471,491,511,531,551,570,592,611,631,651,671,691,711,732,751,772,792,812,831,851,872,892,912,932,951,971,992,1012,1032,1051,1072,1092,1111,1132,1151,1172,1191,1211,1232,1252,1272,1291,1312,1332],"xSR":741.5,"ySR":469.95,"xT1":424.9,"yT1":0,"xT2":1058.1,"yT2":0,"toosoon":0,"cond_shown":"randomdotsizeEA","ratio_trial":900,"smaller_num":"9","larger_num":"10","correct_side":2,"subjID":"alexsantiagoperezsanchez23","gender":"0","age":"8","school":"4"},{"start_time":1552309595655,"click_time":1552309596964,"finger_time":1552309596323,"fix_duration":250,"trial":22,"RT":668,"MT":641,"sideResp":2,"stimulus":"img/750/randomdotsizeEA/L/9_Ratio_750_L_4_R_3.png","xmouse":[801,801,801,801,801,801,801,801,801,801,801,801,803,805,807,808,808,808,808,808,808,808,808,808,808,808,808,808,808,808,808,814,828,850,876,908,987,1024,1037,1047,1053,1058,1058,1061,1066,1073,1085,1090,1092,1092,1092,1092,1092,1092,1092,1092,1092,1092,1092,1092,1092,1095,1096,1099,1103,1109],"ymouse":[556,556,556,556,556,556,556,556,556,556,556,556,552,543,538,538,538,538,538,538,538,538,538,538,538,538,538,538,538,538,538,531,514,488,458,418,331,279,258,239,228,218,216,213,203,193,171,161,158,158,158,158,158,158,157,157,157,157,157,157,156,151,146,134,111,81],"timestamp_mouse":[8,28,47,68,87,107,128,148,168,187,207,226,248,268,287,307,327,347,367,387,408,427,448,468,487,508,527,547,567,588,607,628,648,668,688,708,727,748,768,787,807,828,847,868,887,907,927,948,967,988,1007,1027,1047,1067,1087,1107,1127,1148,1167,1187,1207,1227,1248,1267,1287,1308],"xSR":741.5,"ySR":469.95,"xT1":424.9,"yT1":0,"xT2":1058.1,"yT2":0,"toosoon":0,"cond_shown":"randomdotsizeEA","ratio_trial":750,"smaller_num":"3","larger_num":"4","correct_side":1,"subjID":"alexsantiagoperezsanchez23","gender":"0","age":"8","school":"4"},{"start_time":1552309599023,"click_time":1552309600582,"finger_time":1552309599802,"fix_duration":879.0146287201907,"trial":23,"RT":779,"MT":780,"sideResp":1,"stimulus":"img/500/equaldotsize/L/11_Ratio_500_L_12_R_6.png","xmouse":[762,762,762,762,762,762,762,762,762,762,762,762,762,762,762,762,762,762,762,768,769,769,769,769,770,776,782,797,802,805,808,809,809,809,809,809,809,809,809,809,800,779,739,725,716,710,702,686,679,669,661,656,656,655,655,652,650,629,619,609,600,596,585,580,572,566,559,555,555,554,554,549,540,538,535,531,529,523],"ymouse":[519,519,519,519,519,519,519,519,519,519,519,519,519,519,519,519,519,519,519,520,519,519,519,519,518,516,510,495,487,481,475,473,471,471,471,471,471,471,469,465,447,415,361,342,329,319,309,287,279,267,258,253,252,251,251,249,247,220,202,183,169,159,133,122,108,96,84,78,78,77,77,73,68,66,64,62,62,60],"timestamp_mouse":[19,39,59,79,99,119,140,159,179,200,219,239,259,280,300,319,340,360,380,399,419,439,460,480,500,520,540,559,579,600,620,638,659,680,700,719,740,759,779,799,819,838,859,879,899,919,940,959,980,999,1019,1039,1059,1080,1100,1120,1140,1159,1179,1199,1219,1240,1259,1279,1299,1320,1339,1359,1380,1400,1420,1440,1459,1479,1500,1520,1540,1559],"xSR":741.5,"ySR":469.95,"xT1":424.9,"yT1":0,"xT2":1058.1,"yT2":0,"toosoon":0,"cond_shown":"equaldotsize","ratio_trial":500,"smaller_num":"6","larger_num":"12","correct_side":1,"subjID":"alexsantiagoperezsanchez23","gender":"0","age":"8","school":"4"},{"start_time":1552309602406,"click_time":1552309603782,"finger_time":1552309603122,"fix_duration":523.5734296972213,"trial":24,"RT":716,"MT":660,"sideResp":1,"stimulus":"img/750/equaldotanddens/L/1_Ratio_750_L_20_R_15.png","xmouse":[786,789,792,793,794,794,794,794,794,794,794,794,794,794,794,794,794,794,794,794,794,794,794,794,794,794,794,794,794,794,794,794,794,795,801,809,813,813,808,802,802,802,802,802,802,802,802,802,802,802,800,796,789,760,736,705,633,597,575,566,566,566,566,565,548,536,529,525,524],"ymouse":[549,536,528,522,520,520,520,520,520,520,520,520,520,520,520,520,520,520,520,520,520,520,520,520,520,520,520,520,520,520,520,520,520,519,494,467,434,390,363,340,340,340,340,340,340,340,340,340,340,340,337,331,324,301,282,259,205,179,160,152,152,152,152,152,129,113,102,96,94],"timestamp_mouse":[16,36,57,77,97,116,135,156,177,197,216,236,256,276,297,317,337,355,376,397,417,436,457,476,497,516,537,556,576,596,616,637,656,676,697,716,737,757,776,796,817,836,856,876,897,915,936,956,976,996,1017,1037,1057,1077,1096,1117,1136,1156,1176,1197,1216,1236,1256,1277,1296,1317,1336,1357,1376],"xSR":741.5,"ySR":469.95,"xT1":424.9,"yT1":0,"xT2":1058.1,"yT2":0,"toosoon":0,"cond_shown":"equaldotanddens","ratio_trial":750,"smaller_num":"15","larger_num":"20","correct_side":1,"subjID":"alexsantiagoperezsanchez23","gender":"0","age":"8","school":"4"},{"start_time":1552309606268,"click_time":1552309607283,"finger_time":1552309606943,"fix_duration":1325.3794629776842,"trial":25,"RT":675,"MT":340,"sideResp":1,"stimulus":"img/900/equaldotanddens/R/6_Ratio_900_L_9_R_10.png","xmouse":[777,780,780,780,780,780,780,780,780,780,780,780,780,780,780,780,780,780,780,780,780,780,780,780,780,780,780,780,780,780,780,801,823,839,844,845,845,837,824,814,804,740,696,646,600,559,509,495,482,472,458],"ymouse":[536,536,536,536,536,536,536,536,536,536,536,536,536,536,536,536,536,536,536,536,536,536,536,536,536,536,536,536,536,536,536,517,493,468,456,447,409,390,368,350,337,291,263,234,205,178,134,122,111,103,91],"timestamp_mouse":[15,37,54,75,94,114,134,154,175,194,215,234,255,275,293,314,335,355,375,395,415,435,454,474,495,514,535,554,575,595,615,635,655,675,695,714,734,754,774,795,814,834,854,875,894,914,934,954,974,994,1015],"xSR":741.5,"ySR":469.95,"xT1":424.9,"yT1":0,"xT2":1058.1,"yT2":0,"toosoon":0,"cond_shown":"equaldotanddens","ratio_trial":900,"smaller_num":"9","larger_num":"10","correct_side":2,"subjID":"alexsantiagoperezsanchez23","gender":"0","age":"8","school":"4"},{"start_time":1552309609343,"click_time":1552309610942,"finger_time":1552309610143,"fix_duration":560.4690123407503,"trial":26,"RT":800,"MT":799,"sideResp":2,"stimulus":"img/250/equaldotsize/R/11_Ratio_250_L_3_R_12.png","xmouse":[809,809,809,809,809,809,809,809,809,809,809,809,809,809,809,809,809,809,809,809,809,809,809,809,809,809,809,809,809,809,809,809,809,809,809,809,809,809,823,856,904,984,1155,1215,1245,1264,1272,1273,1273,1273,1275,1276,1277,1277,1277,1277,1271,1264,1254,1248,1244,1239,1238,1231,1225,1219,1215,1210,1197,1186,1178,1173,1167,1167,1166,1165,1163,1160,1159,1157],"ymouse":[548,548,548,548,548,548,548,548,548,548,548,548,548,548,548,548,548,548,548,548,548,548,548,548,548,548,548,548,548,548,548,548,548,548,548,548,548,548,548,537,517,485,420,395,368,327,285,272,272,272,269,262,242,229,219,208,190,182,175,171,169,167,167,162,153,146,139,130,111,90,79,70,62,61,59,59,57,56,56,55],"timestamp_mouse":[19,39,59,80,99,119,139,159,179,199,220,239,259,280,299,319,339,359,380,399,419,440,459,479,499,519,539,560,578,600,620,640,660,679,699,720,739,760,779,800,819,839,860,879,899,920,940,960,980,999,1019,1040,1060,1079,1100,1119,1139,1159,1180,1199,1219,1239,1260,1280,1300,1320,1340,1359,1380,1400,1420,1439,1459,1480,1499,1519,1539,1560,1579,1599],"xSR":741.5,"ySR":469.95,"xT1":424.9,"yT1":0,"xT2":1058.1,"yT2":0,"toosoon":0,"cond_shown":"equaldotsize","ratio_trial":250,"smaller_num":"3","larger_num":"12","correct_side":2,"subjID":"alexsantiagoperezsanchez23","gender":"0","age":"8","school":"4"},{"start_time":1552309612414,"click_time":1552309614122,"finger_time":1552309613702,"fix_duration":250,"trial":27,"RT":1288,"MT":420,"sideResp":2,"stimulus":"img/500/randomdotsizeEA/L/11_Ratio_500_L_12_R_6.png","xmouse":[772,772,772,772,772,772,772,772,772,772,772,772,772,772,772,772,772,772,772,772,772,772,772,772,772,772,772,772,772,772,772,772,772,772,772,772,772,772,772,772,772,772,772,772,772,772,772,772,772,772,772,772,772,772,772,772,772,772,772,772,772,772,783,837,914,1058,1096,1120,1135,1142,1148,1149,1149,1149,1150,1156,1161,1162,1163,1163,1163,1164,1164,1164,1164,1157],"ymouse":[546,546,546,546,546,546,546,546,546,546,546,546,546,546,546,546,546,546,546,546,546,546,546,546,546,546,546,546,546,546,546,546,546,546,546,546,546,546,546,546,546,546,546,546,546,546,546,546,546,546,546,546,546,546,546,546,546,546,546,546,546,546,538,502,461,380,353,334,310,288,266,264,264,264,264,248,237,232,226,218,200,183,165,153,132,97],"timestamp_mouse":[8,28,49,68,88,109,129,149,168,188,209,228,249,269,289,308,328,348,368,389,409,428,449,468,489,509,529,548,569,588,608,627,649,668,689,708,728,749,768,788,808,828,849,869,888,908,928,948,969,988,1008,1029,1048,1069,1089,1108,1129,1149,1169,1188,1209,1228,1248,1268,1288,1308,1328,1348,1368,1388,1408,1429,1448,1468,1488,1508,1529,1548,1569,1589,1608,1628,1648,1668,1688,1708],"xSR":741.5,"ySR":469.95,"xT1":424.9,"yT1":0,"xT2":1058.1,"yT2":0,"toosoon":0,"cond_shown":"randomdotsizeEA","ratio_trial":500,"smaller_num":"6","larger_num":"12","correct_side":1,"subjID":"alexsantiagoperezsanchez23","gender":"0","age":"8","school":"4"},{"start_time":1552309616171,"click_time":1552309618302,"finger_time":1552309617062,"fix_duration":626.7389472625903,"trial":28,"RT":891,"MT":1240,"sideResp":2,"stimulus":"img/900/equaldotanddens/R/11_Ratio_900_L_18_R_20.png","xmouse":[804,804,804,804,804,804,804,804,804,804,804,804,804,804,804,804,804,804,804,804,804,804,804,804,804,804,804,804,804,804,804,804,804,804,804,804,804,804,804,804,805,807,824,837,854,871,887,907,913,917,920,923,941,950,958,965,969,976,983,992,1002,1007,1017,1023,1028,1035,1041,1071,1077,1079,1082,1083,1088,1094,1095,1095,1095,1095,1096,1096,1099,1102,1103,1103,1103,1103,1103,1103,1103,1103,1103,1103,1103,1103,1103,1103,1103,1103,1103,1103,1103,1103,1103,1103,1103,1103,1103],"ymouse":[540,540,540,540,540,540,540,540,540,540,540,540,540,540,540,540,540,540,540,540,540,540,540,540,540,540,540,540,540,540,540,540,540,540,540,540,540,540,540,540,540,537,517,495,470,439,414,379,368,360,356,349,323,311,296,286,281,273,264,253,241,234,223,219,213,205,198,174,167,163,158,158,153,141,136,134,134,134,132,128,121,110,107,107,107,107,107,107,107,107,107,107,107,107,107,107,107,107,107,107,107,107,107,107,107,107,96],"timestamp_mouse":[12,35,51,71,91,111,131,152,172,191,212,232,252,272,291,311,331,351,371,392,412,431,451,472,491,512,532,551,571,591,611,631,652,671,691,711,731,751,771,792,811,831,851,872,891,911,931,951,971,991,1011,1031,1051,1072,1092,1111,1131,1151,1171,1191,1212,1231,1251,1271,1291,1311,1331,1351,1371,1392,1411,1432,1451,1471,1491,1512,1531,1551,1572,1592,1611,1631,1651,1672,1691,1712,1731,1752,1771,1792,1811,1831,1852,1872,1891,1912,1932,1951,1971,1991,2012,2031,2051,2072,2092,2111,2131],"xSR":741.5,"ySR":469.95,"xT1":424.9,"yT1":0,"xT2":1058.1,"yT2":0,"toosoon":0,"cond_shown":"equaldotanddens","ratio_trial":900,"smaller_num":"18","larger_num":"20","correct_side":2,"subjID":"alexsantiagoperezsanchez23","gender":"0","age":"8","school":"4"},{"start_time":1552309622911,"click_time":1552309624022,"finger_time":1552309623563,"fix_duration":409.73727120827954,"trial":29,"RT":652,"MT":459,"sideResp":1,"stimulus":"img/750/equaldotanddens/L/9_Ratio_750_L_4_R_3.png","xmouse":[787,787,787,787,787,787,787,787,787,787,787,787,787,787,787,789,789,790,790,792,792,792,792,792,792,792,792,792,792,792,792,799,822,856,888,905,912,912,912,911,900,848,830,815,809,805,801,779,759,731,695,576,553,539,530,516],"ymouse":[476,476,476,476,476,476,476,476,476,476,476,476,476,476,476,477,477,477,478,478,478,478,478,478,478,478,478,478,478,478,478,478,455,409,362,324,292,290,287,278,261,219,207,199,194,192,191,185,177,168,152,92,78,69,63,58],"timestamp_mouse":[12,32,51,71,91,111,131,152,172,191,211,232,252,271,292,311,331,352,371,391,412,432,452,471,491,512,531,552,571,591,611,631,652,672,691,711,731,751,772,792,811,831,851,872,891,911,931,952,971,991,1012,1030,1051,1072,1091,1111],"xSR":741.5,"ySR":469.95,"xT1":424.9,"yT1":0,"xT2":1058.1,"yT2":0,"toosoon":0,"cond_shown":"equaldotanddens","ratio_trial":750,"smaller_num":"3","larger_num":"4","correct_side":1,"subjID":"alexsantiagoperezsanchez23","gender":"0","age":"8","school":"4"},{"start_time":1552309627902,"click_time":1552309630403,"finger_time":1552309628803,"fix_duration":1138.7732990925774,"trial":30,"RT":901,"MT":1600,"sideResp":1,"stimulus":"img/750/randomdotsizeEA/L/10_Ratio_750_L_4_R_3.png","xmouse":[798,798,798,798,798,798,798,798,798,798,798,798,798,798,798,798,798,798,798,798,798,798,798,798,798,798,798,798,798,798,798,798,798,798,798,798,798,798,805,807,811,813,819,826,835,851,867,913,942,962,978,993,997,998,1003,1011,1026,1039,1059,1062,1062,1064,1072,1072,1073,1073,1075,1075,1075,1075,1075,1071,1054,1004,979,952,923,847,797,739,661,625,603,587,586,584,579,561,554,551,548,548,548,548,548,547,544,536,494,483,481,481,481,481,480,480,480,480,480,480,480,480,480,480,480,480,480,480,480,480,480,480,480,480,480,481],"ymouse":[521,521,521,521,521,521,521,521,521,521,521,521,521,521,521,521,521,521,521,521,521,521,521,521,521,521,521,521,521,521,521,521,521,521,521,521,521,521,514,512,509,508,505,502,494,486,476,444,420,400,383,368,365,362,349,329,303,284,252,248,247,245,232,230,229,228,225,221,221,221,220,219,217,206,196,187,178,162,153,143,131,126,123,121,121,121,121,121,121,122,122,122,122,122,122,122,122,118,104,101,101,101,101,101,101,101,101,101,101,101,101,101,101,101,101,101,101,101,101,101,101,101,101,101,100,91],"timestamp_mouse":[2,21,40,61,80,101,121,140,160,181,200,220,241,260,281,300,320,341,360,381,401,420,441,461,481,501,519,540,560,581,600,620,641,661,681,700,721,740,760,781,801,820,840,860,881,901,920,941,960,980,1001,1019,1041,1060,1080,1101,1121,1140,1161,1180,1200,1220,1241,1260,1280,1300,1320,1341,1361,1380,1400,1421,1440,1461,1481,1501,1521,1541,1560,1580,1600,1621,1640,1660,1681,1701,1720,1741,1761,1780,1801,1820,1839,1861,1880,1899,1919,1939,1959,1979,2000,2020,2039,2061,2080,2100,2120,2139,2160,2179,2200,2220,2241,2259,2279,2299,2320,2340,2360,2381,2401,2420,2439,2459,2480,2501],"xSR":741.5,"ySR":469.95,"xT1":424.9,"yT1":0,"xT2":1058.1,"yT2":0,"toosoon":0,"cond_shown":"randomdotsizeEA","ratio_trial":750,"smaller_num":"3","larger_num":"4","correct_side":1,"subjID":"alexsantiagoperezsanchez23","gender":"0","age":"8","school":"4"},{"start_time":1552309632916,"click_time":1552309633921,"finger_time":1552309633662,"fix_duration":1251.2972313659864,"trial":31,"RT":746,"MT":259,"sideResp":2,"stimulus":"img/900/equaldotanddens/L/4_Ratio_900_L_20_R_18.png","xmouse":[797,797,797,797,797,797,797,797,797,797,797,797,797,797,797,797,797,797,797,797,797,797,797,797,797,797,797,797,797,797,797,797,797,797,797,797,801,846,891,933,962,978,1011,1025,1047,1082,1106,1121,1123,1124,1125],"ymouse":[502,502,502,502,502,502,502,502,502,502,502,502,502,502,502,502,502,502,502,502,502,502,502,502,502,502,502,502,502,502,502,502,502,502,502,502,499,472,445,416,395,381,348,332,302,247,201,120,108,103,98],"timestamp_mouse":[6,25,45,67,85,106,126,147,166,185,206,225,246,265,287,306,326,347,365,386,406,426,447,466,486,505,526,547,565,585,605,626,647,665,685,705,727,746,765,786,806,825,845,867,885,906,925,945,966,986,1005],"xSR":741.5,"ySR":469.95,"xT1":424.9,"yT1":0,"xT2":1058.1,"yT2":0,"toosoon":0,"cond_shown":"equaldotanddens","ratio_trial":900,"smaller_num":"18","larger_num":"20","correct_side":1,"subjID":"alexsantiagoperezsanchez23","gender":"0","age":"8","school":"4"},{"start_time":1552309636507,"click_time":1552309637541,"finger_time":1552309637223,"fix_duration":1304.432413505247,"trial":32,"RT":716,"MT":318,"sideResp":1,"stimulus":"img/900/equaldotsize/R/7_Ratio_900_L_9_R_10.png","xmouse":[779,779,779,779,779,779,779,779,779,779,779,779,779,779,779,779,779,779,779,779,779,779,779,779,779,779,779,779,779,779,779,779,779,779,785,795,795,793,789,784,784,782,777,768,755,726,688,651,584,553,528,505],"ymouse":[526,526,526,526,526,526,526,526,526,526,526,526,526,526,526,526,526,526,526,526,526,526,526,526,526,526,526,526,526,526,526,526,526,526,480,409,368,339,330,321,319,316,310,300,285,252,219,191,132,109,91,76],"timestamp_mouse":[15,35,55,75,95,114,134,156,174,194,215,236,256,275,295,315,334,354,374,395,415,436,455,475,494,515,535,555,575,596,615,634,654,675,695,716,734,755,774,795,814,834,856,875,896,914,935,954,974,995,1015,1034],"xSR":741.5,"ySR":469.95,"xT1":424.9,"yT1":0,"xT2":1058.1,"yT2":0,"toosoon":0,"cond_shown":"equaldotsize","ratio_trial":900,"smaller_num":"9","larger_num":"10","correct_side":2,"subjID":"alexsantiagoperezsanchez23","gender":"0","age":"8","school":"4"},{"start_time":1552309639256,"click_time":1552309640401,"finger_time":1552309640121,"fix_duration":354.4482379936814,"trial":33,"RT":865,"MT":280,"sideResp":2,"stimulus":"img/750/equaldotsize/R/2_Ratio_750_L_6_R_8.png","xmouse":[794,794,794,794,794,794,794,794,794,794,794,794,797,798,798,798,798,798,799,803,807,810,812,812,812,812,812,812,812,812,812,812,812,812,812,812,812,812,812,812,812,814,829,848,878,916,1022,1057,1089,1109,1120,1130,1133,1135,1137,1140,1146,1148],"ymouse":[515,515,515,515,515,515,515,515,515,515,515,515,515,517,517,517,517,517,517,517,518,519,520,520,520,520,520,520,520,520,520,520,520,520,520,520,520,520,520,520,520,520,509,494,469,438,310,261,215,178,161,142,138,135,131,123,105,97],"timestamp_mouse":[5,25,45,66,85,106,125,145,167,186,206,225,246,266,286,306,326,346,367,385,405,425,445,465,486,506,525,545,566,587,607,627,646,666,687,706,727,746,766,786,807,825,845,865,886,907,925,945,966,986,1006,1025,1046,1065,1085,1106,1126,1145],"xSR":741.5,"ySR":469.95,"xT1":424.9,"yT1":0,"xT2":1058.1,"yT2":0,"toosoon":0,"cond_shown":"equaldotsize","ratio_trial":750,"smaller_num":"6","larger_num":"8","correct_side":2,"subjID":"alexsantiagoperezsanchez23","gender":"0","age":"8","school":"4"},{"start_time":1552309643614,"click_time":1552309644782,"finger_time":1552309644242,"fix_duration":250,"trial":34,"RT":628,"MT":540,"sideResp":2,"stimulus":"img/500/equaldotanddens/R/12_Ratio_500_L_1_R_2.png","xmouse":[822,822,822,822,822,822,822,822,822,822,822,822,822,822,822,822,822,822,822,822,822,822,822,822,822,822,822,822,822,822,823,829,838,848,867,876,885,895,920,948,994,1053,1094,1112,1115,1116,1117,1119,1123,1123,1124,1124,1124,1124,1124,1123,1121,1117,1108],"ymouse":[484,484,484,484,484,484,484,484,484,484,484,484,484,484,484,484,484,484,484,484,484,484,484,484,484,484,484,484,484,484,479,469,453,435,405,393,384,378,366,347,313,278,265,262,258,255,252,245,229,222,217,210,197,163,147,140,130,117,77],"timestamp_mouse":[8,27,47,69,88,107,128,147,169,188,209,228,248,268,288,308,328,347,369,388,408,428,447,468,489,508,529,548,567,587,608,628,648,668,687,708,728,747,767,788,809,827,847,867,888,908,928,947,967,988,1008,1028,1047,1068,1087,1107,1127,1148,1168],"xSR":741.5,"ySR":469.95,"xT1":424.9,"yT1":0,"xT2":1058.1,"yT2":0,"toosoon":0,"cond_shown":"equaldotanddens","ratio_trial":500,"smaller_num":"1","larger_num":"2","correct_side":2,"subjID":"alexsantiagoperezsanchez23","gender":"0","age":"8","school":"4"},{"start_time":1552309646381,"click_time":1552309647701,"finger_time":1552309647301,"fix_duration":457.019636053706,"trial":35,"RT":920,"MT":400,"sideResp":2,"stimulus":"img/250/equaldotsize/R/10_Ratio_250_L_4_R_16.png","xmouse":[783,783,783,783,783,783,783,783,783,783,783,783,783,783,783,783,783,783,783,783,783,783,783,783,783,783,783,783,783,783,783,783,783,783,785,790,804,807,808,808,808,808,808,808,808,804,767,750,734,730,730,730,730,730,730,730,730,736,787,829,869,936,964,991,1010,1050,1062],"ymouse":[523,523,523,523,523,523,523,523,523,523,523,523,523,523,523,523,523,523,523,523,523,523,523,523,523,523,523,523,523,523,523,523,523,523,523,519,508,504,503,503,503,503,503,503,501,497,443,421,402,397,397,397,397,397,397,397,397,381,347,316,282,212,184,161,143,79,57],"timestamp_mouse":[0,21,41,60,80,102,122,140,160,180,201,222,241,261,281,300,322,342,361,380,401,422,440,461,481,500,522,541,560,581,602,621,641,661,682,701,721,741,760,781,802,821,840,862,882,901,920,940,960,980,1000,1020,1042,1061,1081,1101,1121,1142,1161,1181,1200,1221,1240,1261,1280,1301,1320],"xSR":741.5,"ySR":469.95,"xT1":424.9,"yT1":0,"xT2":1058.1,"yT2":0,"toosoon":0,"cond_shown":"equaldotsize","ratio_trial":250,"smaller_num":"4","larger_num":"16","correct_side":2,"subjID":"alexsantiagoperezsanchez23","gender":"0","age":"8","school":"4"},{"start_time":1552309649897,"click_time":1552309650681,"finger_time":1552309650542,"fix_duration":1075.1699117906437,"trial":36,"RT":645,"MT":139,"sideResp":2,"stimulus":"img/500/equaldotanddens/R/15_Ratio_500_L_1_R_2.png","xmouse":[769,769,769,769,769,770,770,770,770,770,770,770,770,770,770,770,770,770,770,770,770,770,770,770,770,770,770,770,770,770,770,779,834,894,955,1019,1039,1055,1063,1072],"ymouse":[490,490,490,490,490,490,490,490,490,490,490,490,490,490,490,490,490,490,490,490,490,490,490,490,490,490,490,490,490,490,490,483,440,375,290,191,152,121,101,87],"timestamp_mouse":[4,24,46,64,85,104,124,145,166,184,204,224,245,266,284,304,324,344,366,384,404,424,446,464,485,504,525,545,564,585,604,624,645,664,685,704,724,745,764,784],"xSR":741.5,"ySR":469.95,"xT1":424.9,"yT1":0,"xT2":1058.1,"yT2":0,"toosoon":0,"cond_shown":"equaldotanddens","ratio_trial":500,"smaller_num":"1","larger_num":"2","correct_side":2,"subjID":"alexsantiagoperezsanchez23","gender":"0","age":"8","school":"4"},{"start_time":1552309652828,"click_time":1552309654103,"finger_time":1552309653601,"fix_duration":1266.0400512934602,"trial":37,"RT":773,"MT":502,"sideResp":1,"stimulus":"img/900/equaldotanddens/L/4_Ratio_900_L_20_R_18.png","xmouse":[834,834,834,834,834,834,834,834,834,834,834,834,834,834,834,834,834,834,834,834,834,834,834,834,834,834,834,832,830,828,824,820,817,815,815,813,808,801,789,780,762,709,676,653,644,644,644,644,644,644,644,643,643,633,628,620,608,597,572,565,557,542,533,521],"ymouse":[504,504,504,504,504,504,504,504,504,504,504,504,504,504,504,504,504,504,504,504,504,504,504,504,504,504,504,504,504,504,502,497,493,490,489,485,478,471,455,441,421,362,329,307,298,298,298,298,298,298,298,298,287,234,221,204,186,165,132,121,111,94,83,67],"timestamp_mouse":[15,34,54,74,93,113,133,153,173,193,213,233,254,273,294,315,334,354,374,393,414,435,454,473,494,514,534,554,574,594,614,634,654,673,693,713,734,754,773,793,813,833,853,874,894,915,934,953,974,993,1013,1035,1053,1074,1093,1113,1134,1155,1174,1193,1214,1234,1254,1275],"xSR":741.5,"ySR":469.95,"xT1":424.9,"yT1":0,"xT2":1058.1,"yT2":0,"toosoon":0,"cond_shown":"equaldotanddens","ratio_trial":900,"smaller_num":"18","larger_num":"20","correct_side":1,"subjID":"alexsantiagoperezsanchez23","gender":"0","age":"8","school":"4"},{"start_time":1552309656896,"click_time":1552309658102,"finger_time":1552309657523,"fix_duration":1213.9300035240628,"trial":38,"RT":627,"MT":579,"sideResp":2,"stimulus":"img/900/equaldotsize/L/1_Ratio_900_L_10_R_9.png","xmouse":[782,782,782,782,782,782,782,782,782,782,782,782,782,782,782,782,782,782,782,782,782,782,782,782,782,782,782,782,782,782,803,857,886,909,924,933,947,954,966,976,988,1003,1005,1005,1005,1005,1005,1005,1005,1005,1006,1006,1008,1008,1008,1008,1008,1016,1031,1056,1128],"ymouse":[511,511,511,511,511,511,511,511,511,511,511,511,511,511,511,511,511,511,511,511,511,511,511,511,511,511,511,511,511,511,496,445,408,372,344,327,294,278,260,236,212,175,172,172,171,171,171,171,171,171,171,171,169,169,169,169,169,161,149,128,88],"timestamp_mouse":[5,25,45,65,87,106,125,146,167,187,207,227,245,266,285,306,327,347,365,386,406,425,446,467,485,506,526,546,567,587,606,627,645,665,686,706,725,747,766,785,806,825,845,866,886,905,926,945,966,987,1005,1025,1046,1065,1086,1106,1125,1145,1166,1186,1206],"xSR":741.5,"ySR":469.95,"xT1":424.9,"yT1":0,"xT2":1058.1,"yT2":0,"toosoon":0,"cond_shown":"equaldotsize","ratio_trial":900,"smaller_num":"9","larger_num":"10","correct_side":1,"subjID":"alexsantiagoperezsanchez23","gender":"0","age":"8","school":"4"},{"start_time":1552309659827,"click_time":1552309661021,"finger_time":1552309660522,"fix_duration":305.33071826545466,"trial":39,"RT":695,"MT":499,"sideResp":1,"stimulus":"img/750/equaldotanddens/L/9_Ratio_750_L_4_R_3.png","xmouse":[784,784,784,784,784,784,784,784,784,784,784,784,784,784,784,784,784,784,784,784,784,784,784,784,784,784,784,784,784,784,781,776,769,756,728,719,713,708,705,690,684,676,665,653,635,628,625,617,604,581,569,559,553,550,545,542,539,536,528,514],"ymouse":[503,503,503,503,503,503,503,503,503,503,503,503,503,503,503,503,503,503,503,503,503,503,503,503,503,503,503,503,503,503,504,502,494,480,447,435,423,417,408,370,346,318,289,266,227,217,212,204,181,148,131,120,111,109,106,105,103,102,99,93],"timestamp_mouse":[16,35,56,75,94,114,134,155,174,194,215,236,256,274,295,315,334,355,375,394,414,435,454,475,495,515,535,555,574,595,614,635,654,675,695,715,734,754,774,794,814,834,854,876,895,914,935,954,975,995,1014,1034,1054,1076,1095,1114,1134,1156,1174,1194],"xSR":741.5,"ySR":469.95,"xT1":424.9,"yT1":0,"xT2":1058.1,"yT2":0,"toosoon":0,"cond_shown":"equaldotanddens","ratio_trial":750,"smaller_num":"3","larger_num":"4","correct_side":1,"subjID":"alexsantiagoperezsanchez23","gender":"0","age":"8","school":"4"},{"start_time":1552309665200,"click_time":1552309666842,"finger_time":1552309665981,"fix_duration":1496.5657798984973,"trial":40,"RT":781,"MT":861,"sideResp":1,"stimulus":"img/500/randomdotsizeEA/L/5_Ratio_500_L_4_R_2.png","xmouse":[791,791,791,791,791,791,791,791,791,791,791,791,791,791,791,791,791,791,791,791,791,791,791,791,791,791,791,791,791,791,791,791,791,791,791,791,792,788,781,772,760,751,745,743,742,739,737,722,711,699,686,672,644,633,625,618,612,591,582,581,581,581,581,581,581,581,581,581,581,581,581,581,581,581,581,581,581,581,581,581,581,581,487],"ymouse":[543,543,543,543,543,543,543,543,543,543,543,543,543,543,543,543,543,543,543,543,543,543,543,543,543,543,543,543,543,543,543,543,543,543,543,543,542,506,478,451,426,408,391,387,384,381,380,370,364,359,353,347,335,331,327,321,315,291,271,243,178,31,31,31,31,31,31,31,31,31,31,31,31,31,31,31,31,31,31,31,31,31,2],"timestamp_mouse":[3,22,42,62,81,102,123,142,161,181,201,222,241,262,281,302,321,342,361,382,403,422,441,462,481,501,521,542,562,581,603,621,642,661,683,702,722,742,761,781,801,822,841,861,881,902,921,941,961,981,1001,1021,1042,1061,1082,1102,1123,1141,1163,1182,1202,1221,1242,1262,1282,1301,1322,1342,1363,1383,1402,1422,1442,1462,1482,1502,1523,1542,1562,1582,1602,1622,1642],"xSR":741.5,"ySR":469.95,"xT1":424.9,"yT1":0,"xT2":1058.1,"yT2":0,"toosoon":0,"cond_shown":"randomdotsizeEA","ratio_trial":500,"smaller_num":"2","larger_num":"4","correct_side":1,"subjID":"alexsantiagoperezsanchez23","gender":"0","age":"8","school":"4"},{"start_time":1552309670073,"click_time":1552309671322,"finger_time":1552309670623,"fix_duration":790.1630858243534,"trial":41,"RT":550,"MT":699,"sideResp":2,"stimulus":"img/750/equaldotsize/R/2_Ratio_750_L_6_R_8.png","xmouse":[797,797,797,797,797,797,797,797,797,797,797,797,797,797,797,797,797,797,797,797,797,797,797,797,797,810,827,854,890,903,911,918,931,953,966,982,1003,1031,1091,1115,1136,1147,1155,1155,1155,1155,1155,1155,1155,1155,1157,1157,1157,1157,1157,1155,1155,1155,1155,1155,1155,1153,1150],"ymouse":[533,533,533,533,533,533,533,533,533,533,533,533,533,533,533,533,533,533,533,533,533,533,533,533,533,509,483,442,388,371,360,351,332,313,308,302,298,296,281,270,256,247,240,239,239,239,239,239,239,239,233,222,218,213,210,203,193,186,167,149,129,103,93],"timestamp_mouse":[8,29,49,68,88,108,130,148,169,189,209,229,250,268,289,308,329,349,368,388,408,429,448,468,488,508,529,550,569,588,609,629,649,669,689,708,729,749,769,788,810,829,849,869,889,908,928,948,969,990,1008,1029,1049,1069,1088,1109,1129,1149,1169,1188,1208,1230,1249],"xSR":741.5,"ySR":469.95,"xT1":424.9,"yT1":0,"xT2":1058.1,"yT2":0,"toosoon":0,"cond_shown":"equaldotsize","ratio_trial":750,"smaller_num":"6","larger_num":"8","correct_side":2,"subjID":"alexsantiagoperezsanchez23","gender":"0","age":"8","school":"4"},{"start_time":1552309673740,"click_time":1552309674962,"finger_time":1552309674461,"fix_duration":1237.6058267008743,"trial":42,"RT":721,"MT":501,"sideResp":2,"stimulus":"img/500/equaldotsize/R/15_Ratio_500_L_1_R_2.png","xmouse":[799,799,799,799,799,799,799,799,799,799,799,799,799,799,799,799,799,799,799,799,799,799,799,799,799,799,799,799,799,799,799,799,800,803,811,827,883,944,1000,1049,1096,1159,1170,1171,1173,1173,1170,1163,1154,1147,1142,1135,1132,1131,1129,1122,1117,1114,1113,1113,1113,1113],"ymouse":[520,520,520,520,520,520,520,520,520,520,520,520,520,520,520,520,520,520,520,520,520,520,520,520,520,520,520,520,520,520,520,520,520,520,520,517,507,486,458,423,387,311,284,264,252,247,238,228,215,203,191,176,170,166,161,153,138,133,125,116,105,95],"timestamp_mouse":[6,23,41,61,82,102,121,141,161,181,202,222,242,262,281,301,322,343,363,382,402,422,443,462,481,501,523,541,561,581,602,623,641,661,681,701,721,741,761,781,801,821,842,861,883,901,921,941,961,982,1001,1022,1042,1061,1082,1101,1121,1141,1161,1183,1202,1222],"xSR":741.5,"ySR":469.95,"xT1":424.9,"yT1":0,"xT2":1058.1,"yT2":0,"toosoon":0,"cond_shown":"equaldotsize","ratio_trial":500,"smaller_num":"1","larger_num":"2","correct_side":2,"subjID":"alexsantiagoperezsanchez23","gender":"0","age":"8","school":"4"},{"start_time":1552309676154,"click_time":1552309678542,"finger_time":1552309676801,"fix_duration":250,"trial":43,"RT":647,"MT":1741,"sideResp":1,"stimulus":"img/250/equaldotsize/L/1_Ratio_250_L_8_R_2.png","xmouse":[821,821,821,821,821,821,821,821,821,821,821,821,821,821,821,821,821,821,821,821,821,821,821,821,821,821,821,821,821,824,827,838,847,857,873,889,905,926,954,987,1022,1022,1022,1022,1022,1022,1022,1022,1022,1022,1022,1022,1022,1022,1022,1022,1018,1004,974,935,857,833,814,787,736,407,229,229,229,229,229,229,229,229,229,229,229,229,229,229,229,229,229,229,229,229,229,229,229,229,229,229,229,229,229,359,391,428,463,484,486,487,495,505,513,517,518,520,521,523,523,523,522,520,514,502,499,495,494,494],"ymouse":[525,525,525,525,525,525,525,525,525,525,525,525,525,525,525,525,525,525,525,525,525,525,525,525,525,525,525,525,525,521,519,505,492,473,443,391,339,268,215,171,139,138,138,138,138,138,138,138,138,138,138,138,138,138,138,138,139,144,152,159,167,167,167,166,152,64,10,10,10,10,10,10,10,10,10,10,10,10,10,10,10,10,10,10,10,10,10,10,10,10,10,10,10,10,10,151,219,262,284,293,293,293,287,274,263,253,248,237,217,193,163,156,150,147,139,116,109,102,101,99],"timestamp_mouse":[9,30,47,69,89,108,128,147,168,188,207,228,247,267,288,308,327,347,369,389,408,428,448,468,487,507,528,549,568,588,607,629,647,668,688,707,727,748,767,788,807,827,848,869,889,907,928,948,969,988,1008,1028,1048,1067,1088,1108,1128,1149,1168,1188,1207,1227,1247,1268,1288,1307,1327,1349,1369,1388,1408,1427,1448,1467,1488,1508,1528,1547,1567,1588,1607,1628,1647,1668,1688,1707,1727,1748,1767,1789,1809,1828,1848,1868,1887,1908,1927,1948,1967,1987,2008,2027,2049,2069,2087,2108,2128,2149,2169,2188,2207,2227,2248,2268,2287,2308,2327,2349,2367,2388],"xSR":741.5,"ySR":469.95,"xT1":424.9,"yT1":0,"xT2":1058.1,"yT2":0,"toosoon":0,"cond_shown":"equaldotsize","ratio_trial":250,"smaller_num":"2","larger_num":"8","correct_side":1,"subjID":"alexsantiagoperezsanchez23","gender":"0","age":"8","school":"4"},{"start_time":1552309679794,"click_time":1552309682063,"finger_time":1552309680342,"fix_duration":250,"trial":44,"RT":548,"MT":1721,"sideResp":2,"stimulus":"img/750/equaldotsize/L/14_Ratio_750_L_8_R_6.png","xmouse":[832,831,830,830,830,830,830,830,830,830,830,830,830,830,830,830,830,830,830,830,830,830,830,830,830,830,834,842,852,874,887,903,927,988,1014,1033,1034,1034,1035,1035,1035,1035,1036,1036,1038,1040,1041,1044,1047,1048,1048,1050,1053,1053,1053,1053,1053,1053,1053,1053,1053,1053,1053,1053,1053,1053,1053,1053,1053,1053,1053,1053,1053,1053,1053,1053,1053,1053,1053,1053,1053,1053,1053,1053,1052,1052,1053,1053,1055,1075,1090,1096,1099,1101,1107,1109,1111,1112,1113,1114,1114,1114,1114,1114,1114,1114,1115,1115,1115,1115,1115,1115,1115,1115],"ymouse":[506,507,507,507,507,507,507,507,507,507,507,507,507,507,507,507,507,507,507,507,507,507,507,507,507,507,506,500,490,462,450,430,410,362,351,342,341,341,340,340,340,340,340,336,328,325,320,314,295,286,280,277,266,251,246,243,242,242,242,242,242,242,242,241,241,241,241,241,241,240,240,239,239,239,239,239,239,239,239,239,239,239,239,239,235,233,233,232,230,214,200,195,192,190,179,176,170,167,162,155,150,146,143,141,136,133,129,124,118,110,109,106,102,96],"timestamp_mouse":[8,28,48,68,88,108,129,149,167,188,207,228,249,267,288,307,327,349,367,387,408,428,449,468,488,508,527,548,567,588,607,629,649,668,688,708,728,748,768,788,808,829,848,867,888,909,929,949,968,987,1007,1027,1047,1068,1087,1108,1128,1148,1167,1188,1208,1227,1247,1268,1288,1307,1327,1348,1369,1388,1408,1429,1448,1467,1489,1509,1527,1548,1568,1587,1607,1627,1648,1668,1688,1708,1729,1748,1768,1787,1807,1828,1849,1868,1888,1908,1927,1949,1968,1987,2008,2028,2047,2068,2088,2108,2128,2149,2168,2189,2208,2228,2247,2268],"xSR":741.5,"ySR":469.95,"xT1":424.9,"yT1":0,"xT2":1058.1,"yT2":0,"toosoon":0,"cond_shown":"equaldotsize","ratio_trial":750,"smaller_num":"6","larger_num":"8","correct_side":1,"subjID":"alexsantiagoperezsanchez23","gender":"0","age":"8","school":"4"},{"start_time":1552309684994,"click_time":1552309686682,"finger_time":1552309685742,"fix_duration":250,"trial":45,"RT":748,"MT":940,"sideResp":1,"stimulus":"img/750/randomdotsizeEA/L/6_Ratio_750_L_24_R_18.png","xmouse":[817,817,817,817,817,817,817,817,817,817,817,817,817,817,817,817,817,817,817,817,817,817,817,817,817,817,817,817,817,817,817,817,817,817,817,823,841,871,888,874,833,770,739,739,739,739,739,739,739,739,739,739,739,739,739,577,571,561,557,554,554,554,554,554,554,554,554,554,554,554,554,554,554,554,553,553,552,550,549,544,543,539,536,531,524],"ymouse":[506,506,506,506,506,506,506,506,506,506,506,506,506,506,506,506,506,506,506,506,506,506,506,506,506,506,506,506,506,506,506,506,506,506,506,502,476,430,376,300,203,83,27,27,27,27,27,27,27,27,27,27,27,27,27,2,17,38,65,112,122,126,126,126,126,126,126,126,126,126,126,126,126,126,126,124,121,119,118,111,109,106,100,93,80],"timestamp_mouse":[8,31,48,68,88,108,127,149,167,188,209,229,248,267,288,308,328,347,368,388,407,429,449,467,488,507,528,547,567,588,607,628,649,668,689,708,727,748,768,787,807,828,848,867,888,908,927,947,968,989,1009,1028,1049,1068,1088,1108,1129,1148,1168,1187,1208,1228,1247,1267,1287,1308,1329,1347,1367,1387,1407,1429,1448,1468,1487,1508,1528,1548,1568,1587,1608,1628,1648,1668,1687],"xSR":741.5,"ySR":469.95,"xT1":424.9,"yT1":0,"xT2":1058.1,"yT2":0,"toosoon":0,"cond_shown":"randomdotsizeEA","ratio_trial":750,"smaller_num":"18","larger_num":"24","correct_side":1,"subjID":"alexsantiagoperezsanchez23","gender":"0","age":"8","school":"4"},{"start_time":1552309690550,"click_time":1552309691700,"finger_time":1552309691120,"fix_duration":908.3882058700002,"trial":46,"RT":570,"MT":580,"sideResp":1,"stimulus":"img/900/randomdotsizeEA/L/10_Ratio_900_L_20_R_18.png","xmouse":[790,790,790,790,790,790,790,790,790,790,790,790,790,790,790,790,790,790,790,790,790,790,790,790,790,785,781,765,757,756,756,755,753,743,733,725,719,709,694,678,664,649,623,616,609,600,589,558,542,533,531,530,530,529,526,523,510,487],"ymouse":[507,507,507,507,507,507,507,507,507,507,507,507,507,507,507,507,507,507,507,507,507,507,507,507,507,501,494,472,461,460,460,459,453,438,421,404,389,371,348,328,310,293,272,266,262,255,246,223,209,203,201,199,199,198,187,167,137,88],"timestamp_mouse":[10,31,52,70,91,111,130,151,170,190,211,231,252,271,291,312,331,351,370,390,411,432,451,470,490,510,531,551,570,590,610,631,651,671,690,711,730,751,771,790,811,832,851,871,890,911,930,950,970,991,1010,1030,1050,1072,1091,1110,1130,1150],"xSR":741.5,"ySR":469.95,"xT1":424.9,"yT1":0,"xT2":1058.1,"yT2":0,"toosoon":0,"cond_shown":"randomdotsizeEA","ratio_trial":900,"smaller_num":"18","larger_num":"20","correct_side":1,"subjID":"alexsantiagoperezsanchez23","gender":"0","age":"8","school":"4"},{"start_time":1552309693822,"click_time":1552309695121,"finger_time":1552309694780,"fix_duration":901.5089596030994,"trial":47,"RT":958,"MT":341,"sideResp":1,"stimulus":"img/500/equaldotsize/L/8_Ratio_500_L_8_R_4.png","xmouse":[756,756,756,756,756,756,756,756,756,756,756,756,756,756,756,756,756,756,756,756,756,756,756,756,756,756,756,756,756,756,756,756,756,756,756,756,756,756,756,756,756,756,756,756,756,756,750,736,687,663,650,642,635,627,619,614,605,599,590,589,585,579,564,534,520],"ymouse":[521,521,521,521,521,521,521,521,521,521,521,521,521,521,521,521,521,521,521,521,521,521,521,521,521,521,521,521,521,521,521,521,521,521,521,521,521,521,521,521,521,521,521,521,521,519,511,488,421,390,371,360,347,327,310,295,275,260,233,224,215,201,169,122,97],"timestamp_mouse":[19,39,59,78,98,118,139,158,178,198,218,238,258,278,299,318,340,358,378,399,419,440,460,479,499,518,540,558,578,599,619,638,658,679,699,718,739,758,778,799,819,838,859,878,899,918,938,958,978,999,1018,1038,1058,1078,1098,1119,1138,1158,1178,1198,1219,1238,1258,1278,1299],"xSR":741.5,"ySR":469.95,"xT1":424.9,"yT1":0,"xT2":1058.1,"yT2":0,"toosoon":0,"cond_shown":"equaldotsize","ratio_trial":500,"smaller_num":"4","larger_num":"8","correct_side":1,"subjID":"alexsantiagoperezsanchez23","gender":"0","age":"8","school":"4"},{"start_time":1552309698843,"click_time":1552309700721,"finger_time":1552309699520,"fix_duration":1499.2257155420061,"trial":48,"RT":677,"MT":1201,"sideResp":1,"stimulus":"img/750/equaldotanddens/L/13_Ratio_750_L_8_R_6.png","xmouse":[793,793,793,793,793,793,793,793,793,794,794,794,794,794,794,794,794,794,794,794,794,794,794,794,796,797,801,802,806,808,818,827,839,861,871,878,886,889,894,896,898,898,899,904,905,907,910,913,915,915,915,915,915,915,910,896,863,817,721,682,675,670,666,660,659,658,658,658,658,658,655,635,596,540,540,540,540,540,540,540,540,540,540,540,540,540,540,540,540,540,540,540,540,487],"ymouse":[524,524,524,524,524,524,524,524,524,525,525,525,525,525,525,525,525,525,525,525,525,525,525,525,525,527,529,530,531,533,533,533,529,514,507,501,492,486,473,462,450,437,423,406,397,386,371,356,339,337,337,336,336,335,335,335,328,322,299,293,292,290,290,288,288,288,288,288,288,287,276,205,106,5,5,5,5,5,5,5,5,5,5,5,5,5,5,5,5,5,5,5,5,2],"timestamp_mouse":[18,37,57,77,97,118,139,158,178,198,218,238,258,277,298,318,337,358,377,397,417,438,457,477,498,518,538,558,578,597,617,639,657,677,697,717,737,757,777,797,819,838,859,878,898,918,938,958,977,998,1017,1038,1058,1078,1097,1118,1137,1159,1177,1198,1217,1237,1257,1278,1297,1317,1338,1358,1378,1398,1417,1438,1457,1478,1497,1518,1538,1558,1578,1597,1617,1638,1657,1677,1697,1718,1737,1758,1777,1798,1817,1838,1859,1878],"xSR":741.5,"ySR":469.95,"xT1":424.9,"yT1":0,"xT2":1058.1,"yT2":0,"toosoon":0,"cond_shown":"equaldotanddens","ratio_trial":750,"smaller_num":"6","larger_num":"8","correct_side":1,"subjID":"alexsantiagoperezsanchez23","gender":"0","age":"8","school":"4"},{"start_time":1552309702112,"click_time":1552309703740,"finger_time":1552309702821,"fix_duration":250,"trial":49,"RT":709,"MT":919,"sideResp":1,"stimulus":"img/900/equaldotsize/L/1_Ratio_900_L_10_R_9.png","xmouse":[752,752,752,752,752,754,754,754,754,754,755,755,755,755,755,755,755,755,755,755,755,755,755,755,755,755,755,755,755,755,755,755,762,769,785,801,807,811,814,814,814,814,814,814,805,766,743,727,708,692,647,620,585,568,556,552,552,552,549,540,523,517,513,510,508,499,497,493,489,486,486,486,486,486,486,486,486,486,486,486,486,486],"ymouse":[504,504,504,504,504,504,504,504,504,504,504,504,504,504,504,504,504,504,504,504,504,504,504,504,504,504,504,504,504,504,504,504,504,500,478,447,432,415,399,387,384,383,383,381,376,375,372,369,360,353,319,296,265,243,228,220,219,214,205,186,151,142,136,133,130,119,116,112,106,102,102,102,102,102,102,102,101,101,101,101,100,98],"timestamp_mouse":[12,29,48,68,89,108,129,148,169,189,209,228,248,269,289,308,328,349,369,388,408,428,448,469,488,510,528,549,568,589,608,629,649,669,688,709,728,748,768,788,809,828,849,868,890,908,928,949,970,988,1008,1028,1048,1068,1089,1108,1128,1150,1169,1188,1208,1228,1248,1269,1289,1308,1328,1349,1368,1388,1409,1428,1449,1468,1488,1508,1528,1549,1568,1590,1608,1628],"xSR":741.5,"ySR":469.95,"xT1":424.9,"yT1":0,"xT2":1058.1,"yT2":0,"toosoon":0,"cond_shown":"equaldotsize","ratio_trial":900,"smaller_num":"9","larger_num":"10","correct_side":1,"subjID":"alexsantiagoperezsanchez23","gender":"0","age":"8","school":"4"},{"start_time":1552309705432,"click_time":1552309707421,"finger_time":1552309706061,"fix_duration":610.0175806694766,"trial":50,"RT":629,"MT":1360,"sideResp":2,"stimulus":"img/250/equaldotsize/R/4_Ratio_250_L_3_R_12.png","xmouse":[765,765,765,765,765,765,765,765,765,765,765,765,765,765,765,765,765,765,765,765,765,765,765,765,765,765,765,765,765,765,765,763,739,704,620,620,620,620,620,620,620,620,620,620,595,658,715,770,863,970,993,1002,1005,1008,1010,1019,1027,1038,1058,1074,1085,1085,1087,1087,1088,1088,1087,1084,1082,1082,1082,1081,1081,1081,1083,1085,1088,1097,1107,1125,1128,1131,1131,1131,1131,1131,1131,1131,1131,1131,1131,1131,1131,1131,1131,1131,1131,1131,1131,1131],"ymouse":[519,519,519,519,519,519,519,519,519,519,519,519,519,519,519,519,519,519,519,519,519,519,519,519,519,519,519,519,519,519,507,462,347,231,41,41,41,41,41,41,41,41,41,41,10,63,103,156,253,343,359,365,366,366,366,360,353,343,327,314,299,295,293,291,274,261,244,223,215,211,211,210,208,204,197,195,188,170,155,127,115,110,110,110,110,110,110,110,110,110,110,110,110,110,110,110,110,109,107,96],"timestamp_mouse":[8,29,48,69,88,110,129,148,168,188,210,228,248,268,288,309,329,349,369,388,408,428,448,469,489,509,529,549,569,590,609,629,648,668,689,709,728,748,768,788,809,828,849,869,889,909,929,949,969,988,1008,1029,1049,1069,1088,1108,1129,1149,1169,1189,1208,1228,1248,1269,1288,1309,1329,1349,1368,1389,1409,1429,1448,1468,1489,1508,1529,1549,1568,1589,1608,1628,1649,1669,1689,1709,1728,1748,1768,1789,1809,1828,1848,1868,1888,1909,1928,1948,1968,1989],"xSR":741.5,"ySR":469.95,"xT1":424.9,"yT1":0,"xT2":1058.1,"yT2":0,"toosoon":0,"cond_shown":"equaldotsize","ratio_trial":250,"smaller_num":"3","larger_num":"12","correct_side":2,"subjID":"alexsantiagoperezsanchez23","gender":"0","age":"8","school":"4"},{"start_time":1552309710023,"click_time":1552309711301,"finger_time":1552309710741,"fix_duration":362.5703481815744,"trial":51,"RT":718,"MT":560,"sideResp":1,"stimulus":"img/750/equaldotanddens/L/8_Ratio_750_L_4_R_3.png","xmouse":[786,786,786,786,786,786,786,786,786,786,786,786,786,786,786,786,789,790,792,795,797,798,798,798,798,798,798,798,798,798,798,798,800,802,803,806,792,764,725,695,656,640,621,600,584,557,557,557,557,555,551,547,545,543,539,531,528,526,526,525,525,525,525,524],"ymouse":[501,501,501,501,501,501,501,501,501,501,501,501,501,501,501,501,503,503,503,503,503,503,503,503,503,503,503,503,503,503,503,503,501,496,485,434,393,326,254,206,151,130,107,82,63,42,42,42,42,42,42,42,42,42,42,43,43,43,43,43,43,43,43,43],"timestamp_mouse":[21,37,58,77,97,118,138,158,179,198,217,237,258,277,297,317,337,358,378,397,418,438,458,477,498,518,538,557,577,598,617,638,657,678,698,718,737,758,777,797,818,837,857,878,898,917,937,957,978,998,1018,1038,1058,1077,1097,1117,1137,1157,1177,1198,1217,1238,1257,1278],"xSR":741.5,"ySR":469.95,"xT1":424.9,"yT1":0,"xT2":1058.1,"yT2":0,"toosoon":0,"cond_shown":"equaldotanddens","ratio_trial":750,"smaller_num":"3","larger_num":"4","correct_side":1,"subjID":"alexsantiagoperezsanchez23","gender":"0","age":"8","school":"4"},{"start_time":1552309712792,"click_time":1552309714441,"finger_time":1552309713641,"fix_duration":250,"trial":52,"RT":849,"MT":800,"sideResp":2,"stimulus":"img/500/equaldotanddens/R/15_Ratio_500_L_1_R_2.png","xmouse":[784,784,784,784,784,784,784,784,784,784,784,784,784,784,784,784,784,784,784,784,784,784,784,784,784,784,784,784,784,784,784,784,784,784,784,784,784,784,784,784,784,786,818,849,889,939,996,1005,1006,1007,1009,1010,1013,1014,1015,1018,1018,1018,1018,1018,1018,1018,1018,1018,1019,1023,1023,1026,1026,1026,1026,1027,1028,1032,1035,1042,1047,1050,1051,1052,1054,1056,1059],"ymouse":[479,479,479,479,479,479,479,479,479,479,479,479,479,479,479,479,479,479,479,479,479,479,479,479,479,479,479,479,479,479,479,479,479,479,479,479,479,479,479,479,479,479,456,428,392,336,249,226,223,219,215,212,202,194,188,182,176,166,134,124,122,122,118,112,103,94,90,83,81,81,81,81,81,82,84,91,94,96,96,96,97,97,97],"timestamp_mouse":[9,28,49,69,88,108,128,148,168,188,209,229,249,269,289,309,329,349,369,389,408,428,449,468,489,509,530,549,569,589,608,628,648,669,689,708,728,748,769,788,808,828,849,869,889,909,929,948,968,988,1009,1028,1049,1069,1089,1108,1128,1148,1168,1188,1209,1228,1248,1269,1288,1308,1328,1348,1368,1389,1408,1429,1449,1468,1489,1508,1528,1549,1568,1589,1608,1629,1649],"xSR":741.5,"ySR":469.95,"xT1":424.9,"yT1":0,"xT2":1058.1,"yT2":0,"toosoon":0,"cond_shown":"equaldotanddens","ratio_trial":500,"smaller_num":"1","larger_num":"2","correct_side":2,"subjID":"alexsantiagoperezsanchez23","gender":"0","age":"8","school":"4"},{"start_time":1552309716010,"click_time":1552309716920,"finger_time":1552309716680,"fix_duration":468.833939328406,"trial":53,"RT":670,"MT":240,"sideResp":1,"stimulus":"img/500/equaldotsize/L/4_Ratio_500_L_18_R_9.png","xmouse":[789,789,789,789,789,789,789,789,789,789,789,789,789,789,789,789,789,789,789,789,789,789,789,789,789,789,789,789,789,789,789,789,785,776,763,745,717,670,650,632,616,602,567,539,526,519],"ymouse":[506,506,506,506,506,506,506,506,506,506,506,506,506,506,506,506,506,506,506,506,506,506,506,506,506,506,506,506,506,506,506,505,491,467,437,390,328,210,171,146,125,107,73,50,40,38],"timestamp_mouse":[11,31,51,70,91,112,131,151,170,190,211,231,250,270,290,310,331,351,370,391,411,431,451,471,490,511,531,551,570,590,611,630,650,670,690,710,731,751,771,790,811,830,850,870,891,910],"xSR":741.5,"ySR":469.95,"xT1":424.9,"yT1":0,"xT2":1058.1,"yT2":0,"toosoon":0,"cond_shown":"equaldotsize","ratio_trial":500,"smaller_num":"9","larger_num":"18","correct_side":1,"subjID":"alexsantiagoperezsanchez23","gender":"0","age":"8","school":"4"},{"start_time":1552309719023,"click_time":1552309720221,"finger_time":1552309719660,"fix_duration":1121.3278648387784,"trial":54,"RT":637,"MT":561,"sideResp":2,"stimulus":"img/750/randomdotsizeEA/R/5_Ratio_750_L_15_R_20.png","xmouse":[809,809,809,809,809,809,809,809,809,809,809,809,809,809,809,809,812,816,817,818,821,825,825,826,826,826,826,826,826,826,827,845,869,926,1011,1080,1136,1144,1149,1149,1151,1154,1154,1154,1154,1154,1152,1148,1143,1137,1136,1134,1134,1132,1130,1128,1125,1124,1121,1117],"ymouse":[500,500,500,500,500,500,500,500,500,500,500,500,500,500,500,500,500,501,502,502,502,502,503,503,503,503,503,503,503,503,503,500,488,450,384,326,283,275,267,262,253,219,214,211,210,204,173,158,145,128,119,117,115,114,110,107,105,103,100,94],"timestamp_mouse":[18,40,59,78,97,117,138,157,178,198,219,238,258,278,298,317,337,358,378,398,418,437,457,477,498,517,537,557,577,597,617,637,658,678,698,717,737,758,778,798,818,838,857,877,897,918,937,958,977,998,1018,1037,1057,1078,1097,1118,1137,1157,1177,1198],"xSR":741.5,"ySR":469.95,"xT1":424.9,"yT1":0,"xT2":1058.1,"yT2":0,"toosoon":0,"cond_shown":"randomdotsizeEA","ratio_trial":750,"smaller_num":"15","larger_num":"20","correct_side":2,"subjID":"alexsantiagoperezsanchez23","gender":"0","age":"8","school":"4"},{"start_time":1552309721412,"click_time":1552309722861,"finger_time":1552309722381,"fix_duration":250,"trial":55,"RT":969,"MT":480,"sideResp":2,"stimulus":"img/750/equaldotanddens/R/11_Ratio_750_L_12_R_16.png","xmouse":[809,809,809,809,809,809,809,809,809,809,809,809,809,809,809,809,809,809,809,809,809,809,809,809,809,809,809,809,809,809,809,809,809,809,809,809,809,809,809,809,809,809,809,809,809,809,811,823,873,942,970,1056,1114,1130,1141,1151,1159,1166,1167,1167,1167,1167,1166,1164,1161,1159,1157,1154,1149,1147,1147,1147,1143],"ymouse":[513,513,513,513,513,513,513,513,513,513,513,513,513,513,513,513,513,513,513,513,513,513,513,513,513,513,513,513,513,513,513,513,513,513,513,513,513,513,513,513,513,513,513,513,513,513,507,490,415,346,323,268,242,232,220,205,191,169,163,158,152,149,141,136,131,126,123,118,110,107,105,105,98],"timestamp_mouse":[8,29,52,68,89,109,129,149,168,189,209,228,250,269,288,308,329,349,369,388,409,428,448,469,489,508,529,549,569,588,608,628,649,669,689,710,729,749,768,789,808,828,849,868,890,908,929,948,969,989,1008,1028,1049,1069,1089,1110,1128,1149,1168,1188,1208,1229,1249,1269,1289,1309,1328,1348,1368,1390,1409,1428,1449],"xSR":741.5,"ySR":469.95,"xT1":424.9,"yT1":0,"xT2":1058.1,"yT2":0,"toosoon":0,"cond_shown":"equaldotanddens","ratio_trial":750,"smaller_num":"12","larger_num":"16","correct_side":2,"subjID":"alexsantiagoperezsanchez23","gender":"0","age":"8","school":"4"},{"start_time":1552309725347,"click_time":1552309726380,"finger_time":1552309725841,"fix_duration":1305.678855020157,"trial":56,"RT":494,"MT":539,"sideResp":1,"stimulus":"img/250/randomdotsizeEA/L/15_Ratio_250_L_12_R_3.png","xmouse":[806,806,806,806,806,806,806,806,806,806,806,806,806,806,806,806,806,806,806,806,806,806,806,821,844,890,951,957,957,956,949,915,873,843,817,787,739,719,697,672,650,617,604,592,583,550,543,538,538,535,532,519],"ymouse":[534,534,534,534,534,534,534,534,534,534,534,534,534,534,534,534,534,534,534,534,534,534,534,532,524,491,410,387,374,365,356,338,323,315,307,299,287,282,275,267,259,241,228,209,192,128,105,89,77,61,51,24],"timestamp_mouse":[14,34,53,74,93,113,133,154,173,193,214,234,253,273,294,313,333,354,374,394,414,435,454,474,494,514,534,554,573,594,613,633,654,674,693,714,733,754,773,793,813,834,853,874,894,914,933,954,973,994,1013,1033],"xSR":741.5,"ySR":469.95,"xT1":424.9,"yT1":0,"xT2":1058.1,"yT2":0,"toosoon":0,"cond_shown":"randomdotsizeEA","ratio_trial":250,"smaller_num":"3","larger_num":"12","correct_side":1,"subjID":"alexsantiagoperezsanchez23","gender":"0","age":"8","school":"4"},{"start_time":1552309728348,"click_time":1552309729421,"finger_time":1552309729041,"fix_duration":907.097922103271,"trial":57,"RT":693,"MT":380,"sideResp":2,"stimulus":"img/250/equaldotanddens/R/11_Ratio_250_L_3_R_12.png","xmouse":[798,798,798,798,798,798,798,798,798,798,798,798,798,798,798,798,798,798,798,798,798,798,798,798,798,798,798,799,800,801,801,813,823,840,861,883,923,949,973,994,1003,1014,1014,1016,1017,1017,1017,1017,1020,1024,1028,1043,1051,1059],"ymouse":[526,526,526,526,526,526,526,526,526,526,526,526,526,526,526,526,526,526,526,526,526,526,526,526,526,526,526,526,526,526,526,526,526,524,517,507,473,434,382,322,267,189,165,145,132,118,80,65,55,44,38,30,28,28],"timestamp_mouse":[13,34,52,74,92,112,132,152,172,193,212,233,252,272,293,313,333,353,373,393,412,433,452,473,492,513,533,553,573,592,612,633,652,673,693,713,732,752,773,793,814,832,852,873,893,913,932,952,972,992,1012,1032,1053,1072],"xSR":741.5,"ySR":469.95,"xT1":424.9,"yT1":0,"xT2":1058.1,"yT2":0,"toosoon":0,"cond_shown":"equaldotanddens","ratio_trial":250,"smaller_num":"3","larger_num":"12","correct_side":2,"subjID":"alexsantiagoperezsanchez23","gender":"0","age":"8","school":"4"},{"start_time":1552309733529,"click_time":1552309734580,"finger_time":1552309734201,"fix_duration":1487.7569182109482,"trial":58,"RT":672,"MT":379,"sideResp":1,"stimulus":"img/250/randomdotsizeEA/L/2_Ratio_250_L_16_R_4.png","xmouse":[759,760,762,762,762,763,763,763,763,763,764,764,764,764,764,765,765,765,765,765,765,765,765,765,765,765,765,765,765,765,765,767,767,740,684,628,578,556,549,549,549,549,549,549,549,549,549,549,548,544,536,527,516],"ymouse":[540,540,541,541,541,541,541,541,541,541,541,541,541,541,541,541,541,541,541,541,541,541,541,541,541,541,541,541,541,541,541,540,534,423,312,218,150,117,104,104,102,100,99,99,99,99,99,99,98,97,97,96,93],"timestamp_mouse":[12,32,51,72,91,113,131,152,171,192,211,231,252,271,292,312,331,352,372,392,411,431,451,473,491,513,531,551,572,592,611,631,651,672,692,712,733,751,772,792,812,832,852,871,892,911,932,953,972,991,1012,1031,1051],"xSR":741.5,"ySR":469.95,"xT1":424.9,"yT1":0,"xT2":1058.1,"yT2":0,"toosoon":0,"cond_shown":"randomdotsizeEA","ratio_trial":250,"smaller_num":"4","larger_num":"16","correct_side":1,"subjID":"alexsantiagoperezsanchez23","gender":"0","age":"8","school":"4"},{"start_time":1552309736030,"click_time":1552309737301,"finger_time":1552309736800,"fix_duration":528.4921780475207,"trial":59,"RT":770,"MT":501,"sideResp":1,"stimulus":"img/500/equaldotanddens/L/5_Ratio_500_L_4_R_2.png","xmouse":[782,782,782,782,782,782,782,782,782,782,782,782,782,782,782,782,782,782,782,782,782,782,782,782,782,782,782,782,782,782,782,782,782,782,782,782,782,773,702,632,556,510,493,493,493,493,493,493,493,493,493,493,493,493,493,493,493,493,493,493,493,493,493,493],"ymouse":[556,555,553,542,539,538,538,538,538,538,538,538,538,538,538,538,538,538,538,538,538,538,538,538,538,538,538,538,538,538,538,538,538,538,538,538,538,506,398,297,196,136,116,116,116,116,116,116,116,116,116,116,116,116,116,115,113,113,113,113,112,109,102,83],"timestamp_mouse":[10,30,50,70,91,110,130,151,170,192,212,231,251,270,291,311,330,351,370,391,411,430,450,472,490,510,530,551,570,591,611,631,651,671,690,710,730,750,770,791,811,831,851,870,890,911,931,951,970,990,1011,1030,1050,1071,1092,1111,1130,1150,1172,1190,1210,1230,1251,1271],"xSR":741.5,"ySR":469.95,"xT1":424.9,"yT1":0,"xT2":1058.1,"yT2":0,"toosoon":0,"cond_shown":"equaldotanddens","ratio_trial":500,"smaller_num":"2","larger_num":"4","correct_side":1,"subjID":"alexsantiagoperezsanchez23","gender":"0","age":"8","school":"4"},{"start_time":1552309740037,"click_time":1552309741020,"finger_time":1552309740600,"fix_duration":1455.3418232127067,"trial":60,"RT":563,"MT":420,"sideResp":2,"stimulus":"img/500/randomdotsizeEA/R/14_Ratio_500_L_5_R_10.png","xmouse":[781,781,781,781,781,781,781,781,781,781,781,781,781,781,781,781,781,781,781,781,781,781,781,781,781,773,763,748,714,704,698,697,685,664,656,650,648,648,648,650,664,705,750,860,900,942,977,1019,1048,1078],"ymouse":[487,487,487,487,487,487,487,487,487,487,487,487,487,487,487,487