[{"start_time":1552308652773,"click_time":1552308655300,"finger_time":1552308652780,"fix_duration":431.1933441946989,"trial":0,"RT":7,"MT":2520,"sideResp":2,"stimulus":[],"xmouse":[771,773,775,775,775,775,775,775,775,776,776,776,776,776,776,776,776,776,776,776,776,776,776,776,776,776,776,776,776,776,776,776,776,776,776,776,776,776,776,776,776,776,776,776,776,776,776,776,776,776,778,779,784,787,795,798,801,802,802,802,802,802,802,802,802,802,802,802,802,802,800,800,798,797,797,793,791,789,781,780,780,780,780,780,780,780,780,780,780,780,780,784,798,852,884,910,925,937,938,938,938,938,938,938,938,938,938,938,938,938,938,938,940,944,950,960,976,1034,1083,1089,1094,1096,1096,1096,1096,1096,1096],"ymouse":[520,520,520,520,520,520,520,520,520,520,520,520,521,525,529,533,535,538,539,539,539,539,539,539,539,539,539,539,545,547,547,547,551,553,554,555,555,556,558,558,558,558,560,562,563,565,567,569,573,577,579,581,589,598,608,614,617,618,618,618,618,618,618,618,618,618,618,618,618,618,617,617,616,615,615,615,613,613,613,613,613,613,613,613,613,613,613,613,612,608,601,583,552,457,408,372,347,315,297,281,269,262,258,258,258,258,258,258,258,258,258,258,254,247,238,218,182,50,0,0,0,0,0,0,0,0,2],"timestamp_mouse":[7,27,47,67,87,107,127,147,168,187,208,227,248,268,287,307,327,347,368,387,408,428,447,468,487,509,527,547,567,587,607,628,648,668,687,708,727,747,768,787,808,828,847,867,888,907,927,947,967,987,1007,1027,1048,1067,1087,1107,1127,1148,1167,1187,1207,1228,1247,1268,1287,1307,1327,1348,1368,1387,1407,1428,1448,1467,1488,1508,1527,1547,1568,1588,1608,1627,1648,1667,1688,1707,1727,1747,1768,1787,1807,1827,1847,1867,1887,1907,1927,1947,1967,1987,2007,2027,2048,2067,2088,2107,2127,2147,2168,2187,2207,2227,2247,2268,2288,2307,2327,2347,2368,2387,2408,2427,2447,2468,2487,2508,2527],"xSR":741.5,"ySR":501.8,"xT1":424.9,"yT1":0,"xT2":1058.1,"yT2":0,"toosoon":0,"cond_shown":"Incongruent","ratio_trial":200,"L_num":14,"L_den":30,"R_num":12,"R_den":18,"correct_side":2,"subjID":"ALEXSANTIAGOPEREZSANCHEZ23","gender":"0","age":"8","school":"4","test":{"fix_dur":[250,1500],"timestim":1000,"targets_dim":[100,100],"targets_relative_coord":[0.3,0.7],"size_stim":[880,420],"start_dim":[100,100],"size_start":[300,300],"size_fix":60,"samplingrate":20,"img_types":["Congruent","Incongruent"],"ratios":[100,200,300],"rep_conds":19,"nTrials":120,"trials_to_rest":500,"Trials_order":[51,70,36,27,78,77,83,16,38,53,6,48,59,26,95,80,108,17,46,81,60,71,21,44,8,107,47,69,101,4,113,116,100,33,103,3,90,42,79,64,19,20,15,102,88,92,76,61,52,66,106,30,73,18,84,91,43,1,96,62,109,56,105,45,99,114,118,72,24,32,28,87,112,14,55,86,85,5,97,117,29,111,75,12,40,13,104,82,74,11,9,63,22,89,0,7,50,68,57,35,37,31,41,93,115,65,2,34,23,54,25,110,94,10,39,58,119,67,98,49],"cond_shown":["Incongruent","Congruent","Congruent","Incongruent","Congruent","Incongruent","Incongruent","Congruent","Congruent","Incongruent","Congruent","Congruent","Incongruent","Congruent","Incongruent","Congruent","Congruent","Incongruent","Congruent","Incongruent","Congruent","Incongruent","Incongruent","Congruent","Congruent","Incongruent","Incongruent","Incongruent","Incongruent","Congruent","Incongruent","Congruent","Congruent","Incongruent","Incongruent","Incongruent","Congruent","Congruent","Incongruent","Congruent","Incongruent","Congruent","Incongruent","Congruent","Congruent","Congruent","Congruent","Incongruent","Congruent","Congruent","Congruent","Congruent","Incongruent","Congruent","Congruent","Incongruent","Incongruent","Incongruent","Congruent","Congruent","Incongruent","Congruent","Incongruent","Incongruent","Incongruent","Congruent","Congruent","Congruent","Congruent","Congruent","Congruent","Incongruent","Congruent","Congruent","Incongruent","Congruent","Incongruent","Incongruent","Incongruent","Incongruent","Incongruent","Incongruent","Incongruent","Congruent","Congruent","Incongruent","Congruent","Congruent","Congruent","Incongruent","Incongruent","Incongruent","Congruent","Incongruent","Congruent","Incongruent","Congruent","Congruent","Incongruent","Incongruent","Incongruent","Incongruent","Incongruent","Incongruent","Incongruent","Incongruent","Congruent","Congruent","Incongruent","Congruent","Incongruent","Congruent","Congruent","Congruent","Incongruent","Congruent","Incongruent","Incongruent","Congruent","Incongruent"],"ratio_trial":[200,300,100,200,100,300,300,300,200,300,100,100,300,200,300,200,100,300,300,200,100,300,200,200,200,300,300,200,300,300,300,200,300,200,100,200,100,100,100,300,100,200,200,100,300,200,300,100,300,100,300,100,100,100,100,100,100,100,100,200,100,200,200,200,200,100,300,100,100,200,300,200,300,200,100,200,100,300,100,200,300,200,200,100,300,100,200,300,200,300,200,200,300,300,100,100,200,200,200,300,100,100,300,200,100,300,200,300,300,100,100,200,300,300,200,300,300,100,200,100],"left_num":[14,11,11,1,7,8,7,7,12,13,2,8,4,20,4,4,4,13,1,3,2,1,1,3,3,4,1,4,13,18,4,9,20,7,8,4,7,9,1,20,13,3,11,2,8,3,24,1,11,11,2,10,6,11,15,6,2,2,8,3,1,16,1,14,4,6,4,11,11,1,3,7,2,20,6,1,13,1,6,7,2,7,7,7,8,13,3,1,3,13,3,1,1,1,7,8,20,6,14,4,17,3,8,9,13,4,5,1,4,6,9,8,4,3,14,5,4,2,3,11],"right_num":[12,2,4,3,15,9,8,20,6,12,6,2,2,9,8,3,15,12,7,1,6,2,3,11,9,2,2,6,12,9,2,4,5,12,6,14,15,8,8,9,6,11,3,6,10,9,2,8,4,6,10,3,3,4,13,3,6,6,2,9,8,9,2,12,6,5,13,6,6,21,11,14,12,9,3,21,6,2,13,8,6,4,4,9,1,12,9,8,9,12,11,2,8,2,15,1,9,3,6,2,10,11,14,8,6,2,14,8,6,15,6,7,2,4,6,6,2,6,11,9],"left_den":[30,22,22,2,14,10,10,14,15,26,5,16,20,25,5,10,10,26,20,10,5,2,2,10,12,20,2,5,26,20,20,20,25,10,16,6,14,15,2,25,26,10,20,5,15,12,30,2,22,22,20,25,12,22,25,12,4,4,16,12,2,30,3,30,5,20,20,22,22,2,12,10,10,25,12,2,26,2,10,10,4,15,15,14,16,26,12,30,12,26,4,3,30,2,14,20,25,15,30,20,30,5,10,15,26,20,10,30,5,12,18,15,5,6,30,25,20,4,10,22],"right_den":[18,10,10,10,25,18,20,25,10,15,12,5,4,15,16,15,30,15,20,2,12,10,10,22,20,4,10,10,15,15,4,16,10,24,10,30,25,16,20,18,10,22,4,12,12,20,4,20,20,15,25,10,5,10,26,5,15,15,5,20,20,27,15,18,10,25,26,15,15,30,20,28,24,15,5,30,10,10,26,16,30,6,6,15,5,20,20,24,20,15,20,15,24,10,25,2,15,15,9,4,15,22,28,10,10,4,20,24,12,25,10,21,4,5,9,12,4,15,22,15],"correct_side":[2,1,1,1,2,1,1,2,1,2,2,1,2,1,1,1,2,2,2,2,2,1,1,2,2,2,1,1,2,1,2,1,1,1,2,1,2,1,1,1,2,2,2,2,2,2,1,1,1,1,2,1,2,1,1,2,1,1,1,2,1,1,1,2,1,1,2,1,1,2,2,1,2,1,2,2,2,1,1,1,1,2,2,2,1,2,2,2,2,2,1,1,2,1,2,2,1,1,2,2,2,1,1,2,2,2,2,2,1,2,2,1,1,2,2,2,2,1,2,2],"img_shown":["img2/200/Incongruent/R/I_Dist_200_LN_14_LD_30_RN_12_RD_18_1.png","img2/300/Congruent/L/C_Dist_300_LN_11_LD_22_RN_2_RD_10_0.png","img2/100/Congruent/L/C_Dist_100_LN_11_LD_22_RN_4_RD_10_0.png","img2/200/Incongruent/L/I_Dist_200_LN_1_LD_2_RN_3_RD_10_0.png","img2/100/Congruent/R/C_Dist_100_LN_7_LD_14_RN_15_RD_25_1.png","img2/300/Incongruent/L/I_Dist_300_LN_8_LD_10_RN_9_RD_18_0.png","img2/300/Incongruent/L/I_Dist_300_LN_7_LD_10_RN_8_RD_20_0.png","img2/300/Congruent/R/C_Dist_300_LN_7_LD_14_RN_20_RD_25_1.png","img2/200/Congruent/L/C_Dist_200_LN_12_LD_15_RN_6_RD_10_0.png","img2/300/Incongruent/R/I_Dist_300_LN_13_LD_26_RN_12_RD_15_1.png","img2/100/Congruent/R/C_Dist_100_LN_2_LD_5_RN_6_RD_12_1.png","img2/100/Congruent/L/C_Dist_100_LN_8_LD_16_RN_2_RD_5_0.png","img2/300/Incongruent/R/I_Dist_300_LN_4_LD_20_RN_2_RD_4_1.png","img2/200/Congruent/L/C_Dist_200_LN_20_LD_25_RN_9_RD_15_0.png","img2/300/Incongruent/L/I_Dist_300_LN_4_LD_5_RN_8_RD_16_0.png","img2/200/Congruent/L/C_Dist_200_LN_4_LD_10_RN_3_RD_15_0.png","img2/100/Congruent/R/C_Dist_100_LN_4_LD_10_RN_15_RD_30_1.png","img2/300/Incongruent/R/I_Dist_300_LN_13_LD_26_RN_12_RD_15_1.png","img2/300/Congruent/R/C_Dist_300_LN_1_LD_20_RN_7_RD_20_1.png","img2/200/Incongruent/R/I_Dist_200_LN_3_LD_10_RN_1_RD_2_1.png","img2/100/Congruent/R/C_Dist_100_LN_2_LD_5_RN_6_RD_12_1.png","img2/300/Incongruent/L/I_Dist_300_LN_1_LD_2_RN_2_RD_10_0.png","img2/200/Incongruent/L/I_Dist_200_LN_1_LD_2_RN_3_RD_10_0.png","img2/200/Congruent/R/C_Dist_200_LN_3_LD_10_RN_11_RD_22_1.png","img2/200/Congruent/R/C_Dist_200_LN_3_LD_12_RN_9_RD_20_1.png","img2/300/Incongruent/R/I_Dist_300_LN_4_LD_20_RN_2_RD_4_1.png","img2/300/Incongruent/L/I_Dist_300_LN_1_LD_2_RN_2_RD_10_0.png","img2/200/Incongruent/L/I_Dist_200_LN_4_LD_5_RN_6_RD_10_0.png","img2/300/Incongruent/R/I_Dist_300_LN_13_LD_26_RN_12_RD_15_1.png","img2/300/Congruent/L/C_Dist_300_LN_18_LD_20_RN_9_RD_15_0.png","img2/300/Incongruent/R/I_Dist_300_LN_4_LD_20_RN_2_RD_4_1.png","img2/200/Congruent/L/C_Dist_200_LN_9_LD_20_RN_4_RD_16_0.png","img2/300/Congruent/L/C_Dist_300_LN_20_LD_25_RN_5_RD_10_0.png","img2/200/Incongruent/L/I_Dist_200_LN_7_LD_10_RN_12_RD_24_0.png","img2/100/Incongruent/R/I_Dist_100_LN_8_LD_16_RN_6_RD_10_1.png","img2/200/Incongruent/L/I_Dist_200_LN_4_LD_6_RN_14_RD_30_0.png","img2/100/Congruent/R/C_Dist_100_LN_7_LD_14_RN_15_RD_25_1.png","img2/100/Congruent/L/C_Dist_100_LN_9_LD_15_RN_8_RD_16_0.png","img2/100/Incongruent/L/I_Dist_100_LN_1_LD_2_RN_8_RD_20_0.png","img2/300/Congruent/L/C_Dist_300_LN_20_LD_25_RN_9_RD_18_0.png","img2/100/Incongruent/R/I_Dist_100_LN_13_LD_26_RN_6_RD_10_1.png","img2/200/Congruent/R/C_Dist_200_LN_3_LD_10_RN_11_RD_22_1.png","img2/200/Incongruent/R/I_Dist_200_LN_11_LD_20_RN_3_RD_4_1.png","img2/100/Congruent/R/C_Dist_100_LN_2_LD_5_RN_6_RD_12_1.png","img2/300/Congruent/R/C_Dist_300_LN_8_LD_15_RN_10_RD_12_1.png","img2/200/Congruent/R/C_Dist_200_LN_3_LD_12_RN_9_RD_20_1.png","img2/300/Congruent/L/C_Dist_300_LN_24_LD_30_RN_2_RD_4_0.png","img2/100/Incongruent/L/I_Dist_100_LN_1_LD_2_RN_8_RD_20_0.png","img2/300/Congruent/L/C_Dist_300_LN_11_LD_22_RN_4_RD_20_0.png","img2/100/Congruent/L/C_Dist_100_LN_11_LD_22_RN_6_RD_15_0.png","img2/300/Congruent/R/C_Dist_300_LN_2_LD_20_RN_10_RD_25_1.png","img2/100/Congruent/L/C_Dist_100_LN_10_LD_25_RN_3_RD_10_0.png","img2/100/Incongruent/R/I_Dist_100_LN_6_LD_12_RN_3_RD_5_1.png","img2/100/Congruent/L/C_Dist_100_LN_11_LD_22_RN_4_RD_10_0.png","img2/100/Congruent/L/C_Dist_100_LN_15_LD_25_RN_13_RD_26_0.png","img2/100/Incongruent/R/I_Dist_100_LN_6_LD_12_RN_3_RD_5_1.png","img2/100/Incongruent/L/I_Dist_100_LN_2_LD_4_RN_6_RD_15_0.png","img2/100/Incongruent/L/I_Dist_100_LN_2_LD_4_RN_6_RD_15_0.png","img2/100/Congruent/L/C_Dist_100_LN_8_LD_16_RN_2_RD_5_0.png","img2/200/Congruent/R/C_Dist_200_LN_3_LD_12_RN_9_RD_20_1.png","img2/100/Incongruent/L/I_Dist_100_LN_1_LD_2_RN_8_RD_20_0.png","img2/200/Congruent/L/C_Dist_200_LN_16_LD_30_RN_9_RD_27_0.png","img2/200/Incongruent/L/I_Dist_200_LN_1_LD_3_RN_2_RD_15_0.png","img2/200/Incongruent/R/I_Dist_200_LN_14_LD_30_RN_12_RD_18_1.png","img2/200/Incongruent/L/I_Dist_200_LN_4_LD_5_RN_6_RD_10_0.png","img2/100/Congruent/L/C_Dist_100_LN_6_LD_20_RN_5_RD_25_0.png","img2/300/Congruent/R/C_Dist_300_LN_4_LD_20_RN_13_RD_26_1.png","img2/100/Congruent/L/C_Dist_100_LN_11_LD_22_RN_6_RD_15_0.png","img2/100/Congruent/L/C_Dist_100_LN_11_LD_22_RN_6_RD_15_0.png","img2/200/Congruent/R/C_Dist_200_LN_1_LD_2_RN_21_RD_30_1.png","img2/300/Congruent/R/C_Dist_300_LN_3_LD_12_RN_11_RD_20_1.png","img2/200/Incongruent/L/I_Dist_200_LN_7_LD_10_RN_14_RD_28_0.png","img2/300/Congruent/R/C_Dist_300_LN_2_LD_10_RN_12_RD_24_1.png","img2/200/Congruent/L/C_Dist_200_LN_20_LD_25_RN_9_RD_15_0.png","img2/100/Incongruent/R/I_Dist_100_LN_6_LD_12_RN_3_RD_5_1.png","img2/200/Congruent/R/C_Dist_200_LN_1_LD_2_RN_21_RD_30_1.png","img2/100/Incongruent/R/I_Dist_100_LN_13_LD_26_RN_6_RD_10_1.png","img2/300/Incongruent/L/I_Dist_300_LN_1_LD_2_RN_2_RD_10_0.png","img2/100/Incongruent/L/I_Dist_100_LN_6_LD_10_RN_13_RD_26_0.png","img2/200/Incongruent/L/I_Dist_200_LN_7_LD_10_RN_8_RD_16_0.png","img2/300/Incongruent/L/I_Dist_300_LN_2_LD_4_RN_6_RD_30_0.png","img2/200/Incongruent/R/I_Dist_200_LN_7_LD_15_RN_4_RD_6_1.png","img2/200/Incongruent/R/I_Dist_200_LN_7_LD_15_RN_4_RD_6_1.png","img2/100/Congruent/R/C_Dist_100_LN_7_LD_14_RN_9_RD_15_1.png","img2/300/Congruent/L/C_Dist_300_LN_8_LD_16_RN_1_RD_5_0.png","img2/100/Incongruent/R/I_Dist_100_LN_13_LD_26_RN_12_RD_20_1.png","img2/200/Congruent/R/C_Dist_200_LN_3_LD_12_RN_9_RD_20_1.png","img2/300/Congruent/R/C_Dist_300_LN_1_LD_30_RN_8_RD_24_1.png","img2/200/Congruent/R/C_Dist_200_LN_3_LD_12_RN_9_RD_20_1.png","img2/300/Incongruent/R/I_Dist_300_LN_13_LD_26_RN_12_RD_15_1.png","img2/200/Incongruent/L/I_Dist_200_LN_3_LD_4_RN_11_RD_20_0.png","img2/200/Incongruent/L/I_Dist_200_LN_1_LD_3_RN_2_RD_15_0.png","img2/300/Congruent/R/C_Dist_300_LN_1_LD_30_RN_8_RD_24_1.png","img2/300/Incongruent/L/I_Dist_300_LN_1_LD_2_RN_2_RD_10_0.png","img2/100/Congruent/R/C_Dist_100_LN_7_LD_14_RN_15_RD_25_1.png","img2/100/Incongruent/R/I_Dist_100_LN_8_LD_20_RN_1_RD_2_1.png","img2/200/Congruent/L/C_Dist_200_LN_20_LD_25_RN_9_RD_15_0.png","img2/200/Congruent/L/C_Dist_200_LN_6_LD_15_RN_3_RD_15_0.png","img2/200/Incongruent/R/I_Dist_200_LN_14_LD_30_RN_6_RD_9_1.png","img2/300/Incongruent/R/I_Dist_300_LN_4_LD_20_RN_2_RD_4_1.png","img2/100/Incongruent/R/I_Dist_100_LN_17_LD_30_RN_10_RD_15_1.png","img2/100/Incongruent/L/I_Dist_100_LN_3_LD_5_RN_11_RD_22_0.png","img2/300/Incongruent/L/I_Dist_300_LN_8_LD_10_RN_14_RD_28_0.png","img2/200/Incongruent/R/I_Dist_200_LN_9_LD_15_RN_8_RD_10_1.png","img2/100/Incongruent/R/I_Dist_100_LN_13_LD_26_RN_6_RD_10_1.png","img2/300/Incongruent/R/I_Dist_300_LN_4_LD_20_RN_2_RD_4_1.png","img2/200/Congruent/R/C_Dist_200_LN_5_LD_10_RN_14_RD_20_1.png","img2/300/Congruent/R/C_Dist_300_LN_1_LD_30_RN_8_RD_24_1.png","img2/300/Incongruent/L/I_Dist_300_LN_4_LD_5_RN_6_RD_12_0.png","img2/100/Congruent/R/C_Dist_100_LN_6_LD_12_RN_15_RD_25_1.png","img2/100/Incongruent/R/I_Dist_100_LN_9_LD_18_RN_6_RD_10_1.png","img2/200/Congruent/L/C_Dist_200_LN_8_LD_15_RN_7_RD_21_0.png","img2/300/Congruent/L/C_Dist_300_LN_4_LD_5_RN_2_RD_4_0.png","img2/300/Congruent/R/C_Dist_300_LN_3_LD_6_RN_4_RD_5_1.png","img2/200/Incongruent/R/I_Dist_200_LN_14_LD_30_RN_6_RD_9_1.png","img2/300/Congruent/R/C_Dist_300_LN_5_LD_25_RN_6_RD_12_1.png","img2/300/Incongruent/R/I_Dist_300_LN_4_LD_20_RN_2_RD_4_1.png","img2/100/Incongruent/L/I_Dist_100_LN_2_LD_4_RN_6_RD_15_0.png","img2/200/Congruent/R/C_Dist_200_LN_3_LD_10_RN_11_RD_22_1.png","img2/100/Incongruent/R/I_Dist_100_LN_11_LD_22_RN_9_RD_15_1.png"],"dist100_C":[["C_Dist_100_LN_10_LD_25_RN_3_RD_10_0.png","C_Dist_100_LN_11_LD_22_RN_4_RD_10_0.png","C_Dist_100_LN_11_LD_22_RN_6_RD_15_0.png","C_Dist_100_LN_15_LD_25_RN_13_RD_26_0.png","C_Dist_100_LN_3_LD_6_RN_2_RD_5_0.png","C_Dist_100_LN_6_LD_20_RN_5_RD_25_0.png","C_Dist_100_LN_8_LD_16_RN_2_RD_5_0.png","C_Dist_100_LN_9_LD_15_RN_8_RD_16_0.png"],["C_Dist_100_LN_1_LD_2_RN_18_RD_30_1.png","C_Dist_100_LN_1_LD_2_RN_3_RD_5_1.png","C_Dist_100_LN_12_LD_30_RN_13_RD_26_1.png","C_Dist_100_LN_2_LD_5_RN_11_RD_22_1.png","C_Dist_100_LN_2_LD_5_RN_6_RD_12_1.png","C_Dist_100_LN_3_LD_20_RN_4_RD_16_1.png","C_Dist_100_LN_4_LD_10_RN_15_RD_30_1.png","C_Dist_100_LN_4_LD_8_RN_6_RD_10_1.png","C_Dist_100_LN_6_LD_12_RN_15_RD_25_1.png","C_Dist_100_LN_7_LD_14_RN_15_RD_25_1.png","C_Dist_100_LN_7_LD_14_RN_9_RD_15_1.png"]],"dist100_I":[["I_Dist_100_LN_1_LD_2_RN_8_RD_20_0.png","I_Dist_100_LN_2_LD_4_RN_6_RD_15_0.png","I_Dist_100_LN_2_LD_4_RN_8_RD_20_0.png","I_Dist_100_LN_3_LD_5_RN_11_RD_22_0.png","I_Dist_100_LN_3_LD_5_RN_8_RD_16_0.png","I_Dist_100_LN_3_LD_6_RN_4_RD_10_0.png","I_Dist_100_LN_3_LD_9_RN_7_RD_30_0.png","I_Dist_100_LN_4_LD_8_RN_8_RD_20_0.png","I_Dist_100_LN_6_LD_10_RN_11_RD_22_0.png","I_Dist_100_LN_6_LD_10_RN_13_RD_26_0.png","I_Dist_100_LN_6_LD_10_RN_7_RD_14_0.png","I_Dist_100_LN_9_LD_10_RN_20_RD_25_0.png","I_Dist_100_LN_9_LD_15_RN_13_RD_26_0.png","I_Dist_100_LN_9_LD_15_RN_14_RD_28_0.png"],["I_Dist_100_LN_10_LD_25_RN_8_RD_16_1.png","I_Dist_100_LN_10_LD_25_RN_9_RD_18_1.png","I_Dist_100_LN_11_LD_22_RN_9_RD_15_1.png","I_Dist_100_LN_12_LD_24_RN_9_RD_15_1.png","I_Dist_100_LN_12_LD_30_RN_2_RD_4_1.png","I_Dist_100_LN_13_LD_26_RN_12_RD_20_1.png","I_Dist_100_LN_13_LD_26_RN_6_RD_10_1.png","I_Dist_100_LN_17_LD_30_RN_10_RD_15_1.png","I_Dist_100_LN_6_LD_12_RN_3_RD_5_1.png","I_Dist_100_LN_8_LD_16_RN_6_RD_10_1.png","I_Dist_100_LN_8_LD_20_RN_1_RD_2_1.png","I_Dist_100_LN_9_LD_18_RN_6_RD_10_1.png"]],"dist100_S":[["E_Dist_100_LN_2_LD_12_RN_2_RD_30_0.png","E_Dist_100_LN_6_LD_10_RN_6_RD_12_0.png"],["E_Dist_100_LN_6_LD_12_RN_6_RD_10_1.png"]],"dist200_C":[["C_Dist_200_LN_11_LD_22_RN_3_RD_10_0.png","C_Dist_200_LN_12_LD_15_RN_6_RD_10_0.png","C_Dist_200_LN_12_LD_20_RN_6_RD_15_0.png","C_Dist_200_LN_14_LD_28_RN_6_RD_20_0.png","C_Dist_200_LN_15_LD_25_RN_4_RD_10_0.png","C_Dist_200_LN_16_LD_20_RN_12_RD_20_0.png","C_Dist_200_LN_16_LD_30_RN_9_RD_27_0.png","C_Dist_200_LN_20_LD_25_RN_9_RD_15_0.png","C_Dist_200_LN_21_LD_30_RN_2_RD_4_0.png","C_Dist_200_LN_4_LD_10_RN_3_RD_15_0.png","C_Dist_200_LN_4_LD_8_RN_3_RD_10_0.png","C_Dist_200_LN_6_LD_15_RN_3_RD_15_0.png","C_Dist_200_LN_7_LD_21_RN_2_RD_15_0.png","C_Dist_200_LN_8_LD_15_RN_2_RD_6_0.png","C_Dist_200_LN_8_LD_15_RN_3_RD_9_0.png","C_Dist_200_LN_8_LD_15_RN_7_RD_21_0.png","C_Dist_200_LN_9_LD_20_RN_4_RD_16_0.png"],["C_Dist_200_LN_1_LD_2_RN_21_RD_30_1.png","C_Dist_200_LN_13_LD_26_RN_14_RD_20_1.png","C_Dist_200_LN_3_LD_10_RN_11_RD_22_1.png","C_Dist_200_LN_3_LD_10_RN_14_RD_28_1.png","C_Dist_200_LN_3_LD_10_RN_7_RD_14_1.png","C_Dist_200_LN_3_LD_12_RN_9_RD_20_1.png","C_Dist_200_LN_3_LD_6_RN_14_RD_20_1.png","C_Dist_200_LN_5_LD_10_RN_14_RD_20_1.png","C_Dist_200_LN_6_LD_12_RN_7_RD_10_1.png","C_Dist_200_LN_6_LD_20_RN_11_RD_22_1.png","C_Dist_200_LN_7_LD_15_RN_18_RD_27_1.png","C_Dist_200_LN_9_LD_30_RN_13_RD_26_1.png"]],"dist200_I":[["I_Dist_200_LN_1_LD_2_RN_3_RD_10_0.png","I_Dist_200_LN_1_LD_3_RN_2_RD_15_0.png","I_Dist_200_LN_3_LD_4_RN_11_RD_20_0.png","I_Dist_200_LN_4_LD_5_RN_6_RD_10_0.png","I_Dist_200_LN_4_LD_6_RN_14_RD_30_0.png","I_Dist_200_LN_7_LD_10_RN_12_RD_24_0.png","I_Dist_200_LN_7_LD_10_RN_14_RD_28_0.png","I_Dist_200_LN_7_LD_10_RN_8_RD_16_0.png"],["I_Dist_200_LN_11_LD_20_RN_3_RD_4_1.png","I_Dist_200_LN_14_LD_30_RN_12_RD_18_1.png","I_Dist_200_LN_14_LD_30_RN_6_RD_9_1.png","I_Dist_200_LN_3_LD_10_RN_1_RD_2_1.png","I_Dist_200_LN_4_LD_30_RN_1_RD_3_1.png","I_Dist_200_LN_6_LD_20_RN_3_RD_6_1.png","I_Dist_200_LN_7_LD_15_RN_4_RD_6_1.png","I_Dist_200_LN_7_LD_15_RN_6_RD_9_1.png","I_Dist_200_LN_9_LD_15_RN_8_RD_10_1.png"]],"dist200_S":[["E_Dist_200_LN_3_LD_6_RN_3_RD_10_0.png"],["E_Dist_200_LN_3_LD_10_RN_3_RD_6_1.png"]],"dist300_C":[["C_Dist_300_LN_11_LD_22_RN_1_RD_5_0.png","C_Dist_300_LN_11_LD_22_RN_2_RD_10_0.png","C_Dist_300_LN_11_LD_22_RN_4_RD_20_0.png","C_Dist_300_LN_12_LD_24_RN_2_RD_10_0.png","C_Dist_300_LN_18_LD_20_RN_9_RD_15_0.png","C_Dist_300_LN_20_LD_25_RN_13_RD_26_0.png","C_Dist_300_LN_20_LD_25_RN_14_RD_28_0.png","C_Dist_300_LN_20_LD_25_RN_5_RD_10_0.png","C_Dist_300_LN_20_LD_25_RN_8_RD_16_0.png","C_Dist_300_LN_20_LD_25_RN_9_RD_18_0.png","C_Dist_300_LN_24_LD_30_RN_2_RD_4_0.png","C_Dist_300_LN_24_LD_30_RN_8_RD_16_0.png","C_Dist_300_LN_3_LD_6_RN_2_RD_10_0.png","C_Dist_300_LN_4_LD_10_RN_1_RD_10_0.png","C_Dist_300_LN_4_LD_5_RN_2_RD_4_0.png","C_Dist_300_LN_8_LD_16_RN_1_RD_5_0.png","C_Dist_300_LN_9_LD_10_RN_3_RD_5_0.png"],["C_Dist_300_LN_1_LD_20_RN_7_RD_20_1.png","C_Dist_300_LN_1_LD_3_RN_19_RD_30_1.png","C_Dist_300_LN_1_LD_30_RN_8_RD_24_1.png","C_Dist_300_LN_1_LD_5_RN_11_RD_22_1.png","C_Dist_300_LN_1_LD_5_RN_3_RD_6_1.png","C_Dist_300_LN_1_LD_5_RN_6_RD_12_1.png","C_Dist_300_LN_2_LD_10_RN_12_RD_24_1.png","C_Dist_300_LN_2_LD_20_RN_10_RD_25_1.png","C_Dist_300_LN_3_LD_12_RN_11_RD_20_1.png","C_Dist_300_LN_3_LD_6_RN_4_RD_5_1.png","C_Dist_300_LN_4_LD_20_RN_13_RD_26_1.png","C_Dist_300_LN_5_LD_25_RN_6_RD_12_1.png","C_Dist_300_LN_5_LD_25_RN_7_RD_14_1.png","C_Dist_300_LN_7_LD_14_RN_20_RD_25_1.png","C_Dist_300_LN_8_LD_15_RN_10_RD_12_1.png"]],"dist300_I":[["I_Dist_300_LN_1_LD_2_RN_2_RD_10_0.png","I_Dist_300_LN_1_LD_2_RN_3_RD_15_0.png","I_Dist_300_LN_2_LD_4_RN_6_RD_30_0.png","I_Dist_300_LN_3_LD_6_RN_4_RD_20_0.png","I_Dist_300_LN_4_LD_5_RN_6_RD_12_0.png","I_Dist_300_LN_4_LD_5_RN_8_RD_16_0.png","I_Dist_300_LN_7_LD_10_RN_8_RD_20_0.png","I_Dist_300_LN_8_LD_10_RN_14_RD_28_0.png","I_Dist_300_LN_8_LD_10_RN_9_RD_18_0.png"],["I_Dist_300_LN_13_LD_26_RN_12_RD_15_1.png","I_Dist_300_LN_4_LD_20_RN_2_RD_4_1.png"]],"dist300_S":[["E_Dist_300_LN_9_LD_12_RN_9_RD_20_0.png"],["E_Dist_300_LN_18_LD_30_RN_18_RD_20_1.png","E_Dist_300_LN_3_LD_10_RN_3_RD_5_1.png","E_Dist_300_LN_9_LD_20_RN_9_RD_12_1.png"]],"dist500_C":[["C_Dist_500_LN_10_LD_13_RN_7_RD_26_0.png","C_Dist_500_LN_10_LD_15_RN_4_RD_24_0.png","C_Dist_500_LN_12_LD_16_RN_3_RD_12_0.png","C_Dist_500_LN_12_LD_18_RN_4_RD_24_0.png","C_Dist_500_LN_15_LD_18_RN_5_RD_15_0.png","C_Dist_500_LN_15_LD_20_RN_1_RD_4_0.png","C_Dist_500_LN_18_LD_27_RN_1_RD_6_0.png","C_Dist_500_LN_20_LD_24_RN_1_RD_3_0.png","C_Dist_500_LN_20_LD_24_RN_3_RD_9_0.png","C_Dist_500_LN_20_LD_24_RN_7_RD_21_0.png","C_Dist_500_LN_20_LD_28_RN_3_RD_14_0.png","C_Dist_500_LN_21_LD_28_RN_6_RD_24_0.png","C_Dist_500_LN_22_LD_28_RN_2_RD_7_0.png","C_Dist_500_LN_25_LD_30_RN_9_RD_27_0.png","C_Dist_500_LN_4_LD_6_RN_1_RD_6_0.png","C_Dist_500_LN_5_LD_6_RN_2_RD_6_0.png","C_Dist_500_LN_6_LD_9_RN_1_RD_6_0.png","C_Dist_500_LN_7_LD_10_RN_1_RD_5_0.png","C_Dist_500_LN_8_LD_12_RN_1_RD_6_0.png","C_Dist_500_LN_8_LD_12_RN_4_RD_24_0.png"],["C_Dist_500_LN_1_LD_4_RN_12_RD_16_1.png","C_Dist_500_LN_1_LD_4_RN_9_RD_12_1.png","C_Dist_500_LN_1_LD_9_RN_11_RD_18_1.png","C_Dist_500_LN_10_LD_24_RN_22_RD_24_1.png","C_Dist_500_LN_2_LD_12_RN_10_RD_15_1.png","C_Dist_500_LN_2_LD_12_RN_12_RD_18_1.png","C_Dist_500_LN_2_LD_12_RN_4_RD_6_1.png","C_Dist_500_LN_2_LD_24_RN_7_RD_12_1.png","C_Dist_500_LN_2_LD_5_RN_18_RD_20_1.png","C_Dist_500_LN_2_LD_5_RN_9_RD_10_1.png","C_Dist_500_LN_2_LD_8_RN_12_RD_16_1.png","C_Dist_500_LN_2_LD_8_RN_21_RD_28_1.png","C_Dist_500_LN_3_LD_10_RN_4_RD_5_1.png","C_Dist_500_LN_3_LD_12_RN_15_RD_20_1.png","C_Dist_500_LN_3_LD_30_RN_6_RD_10_1.png","C_Dist_500_LN_3_LD_8_RN_14_RD_16_1.png","C_Dist_500_LN_4_LD_16_RN_15_RD_20_1.png","C_Dist_500_LN_4_LD_24_RN_12_RD_18_1.png","C_Dist_500_LN_5_LD_14_RN_6_RD_7_1.png","C_Dist_500_LN_7_LD_21_RN_20_RD_24_1.png","C_Dist_500_LN_7_LD_28_RN_12_RD_16_1.png","C_Dist_500_LN_7_LD_28_RN_9_RD_12_1.png","C_Dist_500_LN_9_LD_27_RN_20_RD_24_1.png"]],"dist500_I":[["I_Dist_500_LN_2_LD_3_RN_4_RD_24_0.png","I_Dist_500_LN_5_LD_6_RN_6_RD_18_0.png","I_Dist_500_LN_7_LD_8_RN_9_RD_24_0.png"],["I_Dist_500_LN_7_LD_21_RN_5_RD_6_1.png"]],"dist500_S":[["E_Dist_500_LN_6_LD_8_RN_6_RD_24_0.png"],["E_Dist_500_LN_2_LD_12_RN_2_RD_3_1.png","E_Dist_500_LN_6_LD_24_RN_6_RD_8_1.png"]]}},{"start_time":1552308658089,"click_time":1552308659341,"finger_time":1552308659300,"fix_duration":1346.0209237938689,"trial":1,"RT":1211,"MT":41,"sideResp":1,"stimulus":[],"xmouse":[799,799,799,799,799,799,799,799,799,799,799,799,798,798,798,798,798,798,798,798,798,798,798,798,798,798,798,798,798,798,798,798,798,798,798,798,798,798,798,798,798,798,798,798,798,798,798,798,798,798,798,798,798,798,798,797,797,797,796,791,749,677,493],"ymouse":[623,623,623,623,623,623,623,623,623,623,623,622,621,621,621,621,621,621,621,621,621,621,621,621,621,618,613,608,604,600,598,597,597,597,597,597,597,597,597,597,597,597,597,597,597,597,597,597,597,597,597,597,597,596,596,596,596,596,596,591,494,348,50],"timestamp_mouse":[12,32,56,71,92,112,132,152,171,191,212,231,251,271,292,311,332,352,371,391,411,431,452,471,492,511,532,551,572,591,611,632,652,671,691,711,731,751,771,791,811,832,851,871,892,912,932,951,972,991,1012,1031,1051,1071,1092,1112,1132,1152,1171,1191,1211,1231,1252],"xSR":741.5,"ySR":573.95,"xT1":424.9,"yT1":0,"xT2":1058.1,"yT2":0,"toosoon":0,"cond_shown":"Congruent","ratio_trial":300,"L_num":11,"L_den":22,"R_num":2,"R_den":10,"correct_side":1,"subjID":"ALEXSANTIAGOPEREZSANCHEZ23","gender":"0","school":"4","age":"8"},{"start_time":1552308661313,"click_time":1552308664840,"finger_time":1552308664201,"fix_duration":330.3268395683547,"trial":2,"RT":2888,"MT":639,"sideResp":1,"stimulus":[],"xmouse":[799,799,799,799,799,799,799,799,799,799,799,799,799,799,799,799,799,799,799,799,799,799,799,799,799,799,799,799,799,799,799,799,799,799,799,799,799,799,799,799,799,799,799,799,799,799,799,799,799,799,799,799,799,799,799,799,799,799,799,799,799,799,799,799,799,799,799,799,799,799,799,798,798,798,798,798,798,798,798,798,798,798,798,798,798,798,798,798,798,798,798,798,798,798,798,798,798,798,798,798,798,798,798,798,798,798,798,798,798,798,798,798,798,798,798,798,798,798,798,798,798,798,798,798,798,798,798,798,798,798,798,798,798,798,798,798,798,798,798,798,798,798,798,798,798,798,738,670,641,635,635,635,635,635,635,635,634,633,629,625,616,595,588,581,577,576,573,570,564,560,558,556,555,553,547,537,524],"ymouse":[645,645,645,645,645,645,645,645,645,645,645,645,645,645,645,645,645,645,645,645,645,645,645,645,645,645,645,645,645,645,645,645,645,645,645,645,645,645,645,645,645,645,645,645,645,645,645,645,645,645,645,645,645,645,645,645,645,645,645,645,645,645,645,645,645,645,645,645,645,645,645,645,645,645,645,645,645,645,645,645,645,645,645,645,645,645,645,645,645,645,645,645,645,645,645,645,645,645,645,645,645,645,645,645,645,645,645,645,645,645,645,645,645,645,645,645,645,645,645,645,645,645,645,645,645,645,645,645,645,645,645,645,645,645,645,645,645,645,645,645,645,644,628,596,526,404,160,51,20,15,15,15,15,15,15,15,13,13,12,11,10,10,10,10,11,11,11,12,13,15,15,15,15,15,15,15,12],"timestamp_mouse":[8,27,48,67,88,108,127,147,167,187,208,228,248,268,287,307,327,348,368,387,407,428,448,468,488,507,527,547,568,587,607,627,647,667,687,707,728,748,767,787,807,828,847,867,887,907,927,947,967,987,1007,1027,1047,1067,1087,1107,1127,1147,1168,1187,1209,1227,1247,1267,1287,1308,1327,1347,1367,1388,1407,1427,1447,1467,1487,1509,1527,1548,1568,1587,1608,1628,1648,1667,1688,1707,1728,1748,1767,1787,1807,1827,1848,1868,1887,1907,1928,1947,1968,1988,2007,2028,2047,2067,2087,2107,2128,2147,2167,2187,2208,2227,2248,2267,2287,2307,2328,2348,2368,2388,2408,2428,2448,2468,2487,2509,2528,2547,2567,2587,2608,2627,2648,2668,2687,2708,2728,2748,2768,2787,2808,2827,2847,2867,2888,2907,2927,2947,2967,2987,3008,3027,3048,3067,3087,3107,3127,3147,3167,3187,3207,3227,3247,3268,3287,3307,3327,3347,3367,3387,3407,3427,3447,3467,3487,3508,3527],"xSR":741.5,"ySR":573.95,"xT1":424.9,"yT1":0,"xT2":1058.1,"yT2":0,"toosoon":0,"cond_shown":"Congruent","ratio_trial":100,"L_num":11,"L_den":22,"R_num":4,"R_den":10,"correct_side":1,"subjID":"ALEXSANTIAGOPEREZSANCHEZ23","gender":"0","school":"4","age":"8"},{"start_time":1552308668091,"click_time":1552308670061,"finger_time":1552308669400,"fix_duration":1009.5424253320715,"trial":3,"RT":1309,"MT":661,"sideResp":2,"stimulus":[],"xmouse":[812,812,812,812,812,812,812,812,812,812,812,812,812,812,813,814,815,817,817,817,817,817,817,817,817,817,817,817,817,817,817,817,817,817,817,819,821,822,822,822,822,822,822,822,822,822,822,822,822,822,822,822,822,822,822,822,822,822,822,822,822,822,822,826,841,848,867,884,936,960,980,997,999,997,997,997,997,997,997,997,997,997,997,997,997,997,997,1002,1016,1019,1021,1022,1024,1027,1031,1034,1040,1047,1071],"ymouse":[625,625,625,625,625,625,625,625,625,625,625,625,625,625,625,625,625,625,625,625,625,625,625,625,625,625,625,625,625,625,625,625,625,625,625,625,625,624,623,623,623,623,623,623,623,623,623,623,623,623,623,623,623,623,623,623,623,622,622,622,622,622,622,617,603,598,572,544,442,378,300,199,98,0,0,0,0,0,0,0,0,0,0,0,0,0,4,13,28,31,33,34,34,35,35,35,35,35,32],"timestamp_mouse":[9,29,50,70,89,109,130,149,170,190,210,230,250,270,289,309,330,350,369,389,409,430,449,469,489,510,530,550,570,590,609,630,650,669,689,709,730,750,770,790,809,829,849,869,890,909,930,950,970,990,1009,1029,1049,1069,1089,1110,1129,1150,1170,1190,1210,1229,1250,1269,1289,1309,1330,1349,1370,1389,1409,1429,1450,1469,1490,1509,1529,1550,1570,1589,1609,1629,1650,1669,1689,1709,1730,1749,1769,1789,1809,1829,1850,1870,1889,1909,1930,1949,1970],"xSR":741.5,"ySR":573.95,"xT1":424.9,"yT1":0,"xT2":1058.1,"yT2":0,"toosoon":0,"cond_shown":"Incongruent","ratio_trial":200,"L_num":1,"L_den":2,"R_num":3,"R_den":10,"correct_side":1,"subjID":"ALEXSANTIAGOPEREZSANCHEZ23","gender":"0","school":"4","age":"8"},{"start_time":1552308684621,"click_time":1552308686600,"finger_time":1552308686021,"fix_duration":619.7621211856163,"trial":4,"RT":1400,"MT":579,"sideResp":2,"stimulus":[],"xmouse":[797,797,797,797,797,797,797,797,797,797,797,797,797,797,797,797,797,797,797,797,797,797,797,797,797,797,797,797,797,797,797,797,797,797,797,797,797,797,797,797,797,797,797,797,797,797,797,797,797,797,797,797,797,797,797,797,797,797,797,797,797,797,797,797,797,797,797,797,802,811,819,828,840,882,896,905,911,915,918,918,920,922,922,924,924,924,925,926,932,936,947,960,976,1013,1032,1049,1066,1084,1111],"ymouse":[599,599,599,599,599,599,599,599,599,599,599,599,599,599,599,599,599,599,599,599,599,599,599,599,599,599,599,599,599,599,599,599,599,599,599,599,599,599,599,599,599,599,599,599,599,599,599,599,599,599,599,599,599,599,599,599,599,599,599,599,599,599,599,599,599,598,597,594,583,568,535,504,465,363,324,293,274,262,253,251,247,243,241,237,237,237,234,232,224,220,213,206,195,168,154,138,124,108,82],"timestamp_mouse":[22,40,60,81,99,119,139,159,179,199,220,240,259,279,299,319,339,359,379,400,419,439,459,479,499,520,539,560,579,599,619,639,660,680,700,719,739,759,780,799,819,839,860,880,899,919,940,960,979,999,1019,1040,1059,1079,1099,1119,1140,1159,1179,1200,1220,1239,1260,1279,1299,1319,1340,1359,1379,1400,1419,1439,1459,1479,1499,1519,1539,1560,1579,1599,1619,1639,1659,1679,1699,1719,1739,1759,1779,1799,1819,1840,1859,1879,1899,1919,1939,1959,1979],"xSR":741.5,"ySR":573.95,"xT1":424.9,"yT1":0,"xT2":1058.1,"yT2":0,"toosoon":0,"cond_shown":"Congruent","ratio_trial":100,"L_num":7,"L_den":14,"R_num":15,"R_den":25,"correct_side":2,"subjID":"ALEXSANTIAGOPEREZSANCHEZ23","gender":"0","school":"4","age":"8"},{"start_time":1552308689644,"click_time":1552308692120,"finger_time":1552308690700,"fix_duration":841.3714687945698,"trial":5,"RT":1056,"MT":1420,"sideResp":2,"stimulus":[],"xmouse":[774,774,774,775,775,777,779,782,783,783,783,783,783,783,783,783,783,783,783,783,783,783,783,783,783,783,783,783,783,783,783,783,783,783,783,783,783,783,783,783,783,783,783,783,783,783,787,796,803,809,820,828,861,865,867,867,867,867,867,867,867,867,867,867,867,867,867,873,878,887,895,911,932,995,1051,1121,1158,1166,1166,1167,1165,1158,1130,1105,1075,1048,1022,996,996,996,996,996,996,995,995,995,997,1001,1004,1006,1008,1013,1016,1024,1024,1024,1023,1023,1023,1023,1023,1023,1023,1023,1023,1023,1023,1023,1023,1025,1025,1026,1039,1062],"ymouse":[631,631,631,631,631,632,633,635,636,636,636,637,638,638,638,638,638,638,638,639,641,641,641,641,641,641,641,641,641,642,642,642,642,642,642,642,642,642,642,643,643,643,643,643,643,643,643,639,639,639,639,639,639,639,639,639,639,639,639,639,639,639,639,636,632,621,611,579,559,534,504,461,420,379,349,317,304,304,304,302,295,283,250,233,212,195,179,165,165,165,165,165,165,164,163,161,160,156,154,153,152,149,146,135,132,130,127,127,127,127,127,127,127,127,127,127,127,126,126,126,125,125,115,96],"timestamp_mouse":[17,36,57,76,96,116,137,157,176,197,217,237,257,277,297,316,337,356,376,396,416,437,457,476,497,516,537,556,576,597,616,637,657,676,696,717,736,756,777,796,817,837,856,877,897,917,936,956,976,996,1017,1036,1056,1076,1096,1117,1136,1156,1176,1196,1216,1236,1256,1277,1297,1316,1337,1356,1377,1396,1417,1436,1456,1476,1496,1516,1536,1556,1577,1597,1616,1636,1657,1676,1696,1717,1737,1756,1777,1796,1816,1837,1856,1876,1897,1916,1936,1956,1977,1996,2016,2036,2056,2076,2096,2116,2136,2157,2176,2197,2217,2236,2257,2277,2297,2316,2336,2356,2376,2396,2417,2436,2456,2476],"xSR":741.5,"ySR":573.95,"xT1":424.9,"yT1":0,"xT2":1058.1,"yT2":0,"toosoon":0,"cond_shown":"Incongruent","ratio_trial":300,"L_num":8,"L_den":10,"R_num":9,"R_den":18,"correct_side":1,"subjID":"ALEXSANTIAGOPEREZSANCHEZ23","gender":"0","school":"4","age":"8"},{"start_time":1552308696449,"click_time":1552308698340,"finger_time":1552308697760,"fix_duration":528.4704104546698,"trial":6,"RT":1311,"MT":580,"sideResp":1,"stimulus":[],"xmouse":[768,768,768,768,768,768,768,768,768,768,768,768,768,768,768,768,768,768,768,768,768,768,768,768,768,768,768,768,768,768,768,768,768,768,768,768,768,768,768,768,768,768,768,768,768,768,768,768,768,768,768,768,768,768,768,768,768,768,768,768,768,768,768,768,768,768,768,768,716,670,623,585,566,560,560,560,560,560,560,560,560,560,560,560,560,560,559,559,555,550,543,538,533,526,522],"ymouse":[618,618,618,618,618,618,618,618,618,618,618,618,618,618,618,618,618,618,618,618,618,618,618,618,618,618,618,618,618,618,618,618,618,618,618,618,618,618,618,618,618,618,618,618,618,618,618,618,618,618,618,618,618,618,618,618,618,618,618,618,618,618,618,618,608,563,487,419,235,133,57,16,0,0,0,0,0,0,0,0,0,0,0,0,0,0,0,0,0,0,0,0,1,1,1],"timestamp_mouse":[11,33,51,72,91,111,131,152,172,192,212,232,252,272,292,312,331,351,372,391,411,431,451,471,491,511,531,551,571,592,611,631,651,671,692,711,731,752,771,791,811,831,851,871,891,912,932,951,971,991,1012,1031,1051,1072,1091,1111,1131,1153,1172,1191,1211,1232,1252,1272,1291,1311,1332,1351,1371,1391,1411,1432,1451,1471,1491,1511,1531,1551,1571,1591,1611,1632,1651,1671,1691,1711,1731,1751,1772,1791,1811,1831,1851,1871,1891],"xSR":741.5,"ySR":573.95,"xT1":424.9,"yT1":0,"xT2":1058.1,"yT2":0,"toosoon":0,"cond_shown":"Incongruent","ratio_trial":300,"L_num":7,"L_den":10,"R_num":8,"R_den":20,"correct_side":1,"subjID":"ALEXSANTIAGOPEREZSANCHEZ23","gender":"0","school":"4","age":"8"},{"start_time":1552308701085,"click_time":1552308703420,"finger_time":1552308702480,"fix_duration":563.8188102564986,"trial":7,"RT":1395,"MT":940,"sideResp":2,"stimulus":[],"xmouse":[796,796,797,800,803,804,804,804,804,804,804,804,804,804,804,804,804,804,804,804,804,804,804,804,804,804,804,804,804,804,804,804,804,804,804,804,804,804,804,804,804,804,804,804,804,804,804,804,804,804,804,804,804,804,804,804,804,804,804,804,804,804,804,804,804,804,804,808,818,854,889,922,959,969,975,984,991,997,997,997,999,1001,1009,1016,1023,1032,1038,1050,1054,1060,1066,1075,1087,1094,1101,1107,1110,1113,1113,1113,1113,1113,1113,1113,1113,1113,1113,1113,1113,1113,1113,1113,1113,1113,1113,1113,1113],"ymouse":[629,629,629,628,627,627,627,627,627,627,627,627,627,627,627,627,627,627,627,627,627,627,627,627,627,627,627,627,627,627,627,627,627,627,627,627,627,627,627,627,627,627,627,627,627,627,627,627,627,627,627,627,627,627,627,627,627,627,627,627,627,627,627,627,627,627,627,626,619,571,526,484,435,419,405,393,386,381,381,381,380,379,367,357,349,337,324,293,275,258,238,221,183,163,143,126,112,102,102,102,102,102,102,102,102,102,102,102,102,102,102,102,102,102,102,101,99],"timestamp_mouse":[16,36,57,75,95,115,135,156,175,195,215,235,255,275,295,315,336,355,375,396,415,436,455,475,495,515,535,556,575,596,615,636,656,676,696,716,735,756,775,795,816,836,855,876,895,915,935,956,975,996,1016,1035,1056,1075,1095,1115,1136,1156,1176,1195,1215,1235,1255,1275,1296,1315,1335,1355,1375,1395,1415,1435,1455,1476,1495,1515,1536,1556,1575,1596,1615,1635,1655,1675,1695,1715,1736,1755,1775,1795,1816,1835,1855,1875,1896,1915,1936,1955,1976,1995,2016,2035,2056,2075,2096,2116,2136,2155,2176,2196,2216,2235,2255,2275,2295,2315,2335],"xSR":741.5,"ySR":573.95,"xT1":424.9,"yT1":0,"xT2":1058.1,"yT2":0,"toosoon":0,"cond_shown":"Congruent","ratio_trial":300,"L_num":7,"L_den":14,"R_num":20,"R_den":25,"correct_side":2,"subjID":"ALEXSANTIAGOPEREZSANCHEZ23","gender":"0","school":"4","age":"8"},{"start_time":1552308711921,"click_time":1552308714919,"finger_time":1552308714139,"fix_duration":1081.4127191380205,"trial":8,"RT":2218,"MT":780,"sideResp":2,"stimulus":[],"xmouse":[787,787,787,787,787,787,787,787,787,787,787,787,787,787,787,787,787,787,787,787,787,787,787,787,787,787,787,787,787,787,787,787,787,787,787,787,787,787,787,787,787,787,787,787,787,787,787,787,787,787,787,787,787,787,787,787,787,787,787,787,787,787,787,787,787,787,787,787,787,787,787,787,787,787,787,787,787,787,787,787,787,787,787,787,787,787,787,787,787,787,787,787,787,787,787,787,787,787,787,787,787,787,787,787,787,787,787,787,802,812,860,922,930,931,933,937,946,950,955,960,965,979,981,994,1005,1019,1038,1045,1050,1054,1061,1077,1087,1093,1096,1098,1098,1098,1098,1098,1098,1098,1098,1098,1098,1098,1098,1098,1098,1098],"ymouse":[608,608,608,608,608,608,608,608,608,608,608,608,608,608,608,608,608,608,608,608,608,608,608,608,608,608,608,608,608,608,608,608,608,608,608,608,608,608,608,608,608,608,608,608,608,608,608,608,608,608,608,608,608,608,608,608,608,608,608,608,608,608,608,608,608,608,608,608,608,608,608,608,608,608,608,608,608,608,608,608,608,608,608,608,608,608,608,608,608,608,608,608,608,608,608,608,608,608,608,608,608,608,608,608,608,608,608,608,596,587,549,498,483,479,475,467,445,430,413,395,380,351,344,331,320,306,281,270,262,253,241,204,178,157,142,132,128,127,127,127,127,127,127,127,127,127,125,118,107,90],"timestamp_mouse":[18,38,59,78,98,118,139,159,178,199,219,239,258,278,298,318,338,359,378,398,418,438,458,480,498,518,538,558,578,598,618,638,658,678,698,718,738,758,779,798,818,838,858,878,898,918,939,958,978,998,1019,1038,1059,1079,1098,1118,1138,1158,1178,1198,1218,1238,1258,1278,1298,1318,1339,1358,1378,1398,1419,1438,1459,1478,1498,1518,1538,1559,1578,1599,1619,1638,1658,1678,1698,1718,1738,1759,1779,1799,1819,1838,1859,1878,1898,1918,1938,1958,1979,1999,2018,2038,2059,2078,2098,2118,2138,2158,2178,2198,2218,2238,2258,2279,2299,2318,2338,2358,2379,2398,2418,2438,2458,2478,2498,2518,2539,2558,2578,2598,2619,2638,2658,2678,2698,2718,2738,2758,2779,2798,2818,2839,2858,2879,2899,2919,2938,2957,2979,2998],"xSR":741.5,"ySR":573.95,"xT1":424.9,"yT1":0,"xT2":1058.1,"yT2":0,"toosoon":0,"cond_shown":"Congruent","ratio_trial":200,"L_num":12,"L_den":15,"R_num":6,"R_den":10,"correct_side":1,"subjID":"ALEXSANTIAGOPEREZSANCHEZ23","gender":"0","school":"4","age":"8"},{"start_time":1552308719061,"click_time":1552308721619,"finger_time":1552308720700,"fix_duration":421.65144033294945,"trial":9,"RT":1639,"MT":919,"sideResp":1,"stimulus":[],"xmouse":[793,793,791,787,786,786,786,786,786,786,786,786,786,786,786,786,786,786,786,786,786,786,786,786,786,786,786,786,786,786,785,785,784,783,783,783,783,783,783,783,783,782,782,782,782,782,780,780,780,779,779,779,779,779,779,779,778,778,778,778,778,778,778,778,778,778,778,778,778,778,778,778,778,778,778,778,777,776,772,765,744,730,705,668,649,625,612,594,574,557,516,501,492,490,487,469,453,422,386,364,351,351,351,351,351,351,352,352,352,352,352,353,360,369,374,377,378,378,380,380,386,389,397,401,407,417,421,427],"ymouse":[649,648,645,640,639,639,639,637,637,636,633,633,633,633,633,633,633,633,633,633,633,633,633,633,633,633,633,633,633,633,633,633,633,633,633,633,633,633,633,633,633,633,633,633,633,633,633,633,633,634,635,635,635,635,635,635,635,635,635,635,635,635,635,635,635,635,635,635,635,635,635,635,635,635,635,635,635,634,628,620,595,585,572,546,530,498,479,459,436,417,374,356,336,324,299,235,193,133,85,59,41,41,41,41,41,39,39,39,39,39,39,39,43,49,51,52,52,52,52,52,52,51,48,46,44,40,37,35],"timestamp_mouse":[18,39,58,79,99,118,139,158,178,198,218,239,258,278,299,319,338,358,379,398,418,439,459,478,498,519,538,559,578,599,618,639,658,678,698,720,739,759,778,799,819,839,858,879,899,919,938,959,978,999,1018,1038,1059,1078,1099,1119,1138,1159,1178,1199,1219,1239,1258,1278,1299,1318,1338,1358,1379,1398,1419,1438,1459,1478,1499,1518,1538,1558,1578,1598,1618,1639,1658,1678,1698,1718,1739,1759,1778,1798,1818,1838,1858,1879,1898,1918,1938,1958,1978,1999,2018,2039,2058,2079,2098,2119,2138,2158,2178,2199,2218,2238,2258,2278,2298,2318,2338,2358,2378,2399,2418,2438,2458,2479,2499,2519,2538,2558],"xSR":741.5,"ySR":573.95,"xT1":424.9,"yT1":0,"xT2":1058.1,"yT2":0,"toosoon":0,"cond_shown":"Incongruent","ratio_trial":300,"L_num":13,"L_den":26,"R_num":12,"R_den":15,"correct_side":2,"subjID":"ALEXSANTIAGOPEREZSANCHEZ23","gender":"0","school":"4","age":"8"},{"start_time":1552308727041,"click_time":1552308729999,"finger_time":1552308728759,"fix_duration":1481.2245100460052,"trial":10,"RT":1718,"MT":1240,"sideResp":2,"stimulus":[],"xmouse":[812,812,812,812,813,813,813,813,813,812,812,812,811,811,811,811,811,811,810,810,810,810,808,808,808,808,808,808,808,808,808,808,808,808,808,808,808,808,808,808,808,807,807,806,806,806,806,806,806,806,805,803,800,800,800,800,800,800,800,800,800,800,800,800,800,800,800,800,800,800,800,800,800,800,800,800,800,801,803,805,809,812,822,825,833,847,860,884,891,893,894,897,902,904,905,905,908,911,914,914,915,915,917,918,923,930,935,948,951,951,952,952,953,953,957,959,960,962,963,963,963,963,963,963,963,963,963,967,977,1005,1052,1060,1060,1060,1060,1061,1061,1066,1068,1070,1070,1071,1071,1071,1071,1071,1071,1076],"ymouse":[642,642,642,642,641,639,637,632,631,630,629,627,626,626,626,626,626,624,623,623,623,623,620,620,620,620,620,620,620,620,620,620,620,620,620,620,620,620,620,620,620,620,620,620,622,625,626,626,628,629,632,634,635,635,635,635,635,635,635,635,635,635,635,635,635,635,635,635,635,635,634,632,632,632,632,632,632,631,629,625,618,612,600,593,582,566,551,513,501,494,479,467,438,428,418,412,404,397,387,386,384,382,376,373,366,359,353,339,335,334,333,332,331,330,322,317,316,315,313,313,313,313,313,313,313,313,313,310,302,286,258,254,254,254,254,253,252,246,243,231,221,210,186,158,131,113,102,78],"timestamp_mouse":[18,39,59,79,98,118,138,158,178,198,218,238,258,278,298,318,338,358,379,399,418,438,458,478,498,519,538,559,578,598,618,638,658,679,698,719,738,758,778,799,819,839,859,879,899,919,939,959,978,998,1018,1038,1059,1078,1098,1119,1138,1159,1179,1198,1219,1238,1259,1279,1299,1319,1339,1358,1380,1398,1419,1438,1459,1478,1499,1519,1539,1559,1578,1598,1619,1638,1658,1678,1699,1718,1739,1758,1778,1798,1818,1838,1859,1878,1898,1918,1938,1958,1978,1998,2018,2038,2058,2078,2098,2118,2138,2158,2178,2198,2219,2238,2258,2278,2299,2318,2339,2358,2378,2398,2419,2438,2458,2478,2499,2519,2538,2558,2578,2598,2618,2639,2658,2679,2699,2719,2739,2758,2778,2798,2819,2838,2858,2878,2898,2918,2939,2958],"xSR":741.5,"ySR":573.95,"xT1":424.9,"yT1":0,"xT2":1058.1,"yT2":0,"toosoon":0,"cond_shown":"Congruent","ratio_trial":100,"L_num":2,"L_den":5,"R_num":6,"R_den":12,"correct_side":2,"subjID":"ALEXSANTIAGOPEREZSANCHEZ23","gender":"0","school":"4","age":"8"},{"start_time":1552308734570,"click_time":1552308739599,"finger_time":1552308737799,"fix_duration":250,"trial":11,"RT":3229,"MT":1800,"sideResp":1,"stimulus":[],"xmouse":[777,777,777,777,777,777,777,777,777,777,777,777,777,777,777,777,777,777,777,777,777,777,777,777,777,777,777,777,777,777,777,777,777,777,777,777,777,777,777,777,777,777,777,777,777,777,777,777,781,783,792,801,803,803,803,803,803,803,803,803,803,803,803,803,803,803,803,803,803,803,803,803,803,803,803,803,803,803,803,803,803,803,803,803,803,803,803,803,802,802,801,801,801,801,801,801,800,800,799,799,799,799,799,798,798,798,796,795,795,795,795,795,793,789,788,786,786,785,785,785,785,785,785,785,785,785,785,785,785,785,785,785,785,785,785,787,789,796,798,800,801,801,801,801,801,801,801,801,801,801,801,801,801,801,801,801,801,801,801,799,779,695,472,387,364,381,461,893,1165,1395,1395,1395,1395,1560,1520,1462,1325,1262,1219,1201,1201,1201,1201,1201,1172,1054,840,277,56,0,0,0,0,0,0,0,0,0,0,3,7,12,18,19,23,29,34,45,48,50,51,55,73,84,97,107,113,129,150,171,199,229,272,289,305,326,340,357,366,373,376,377,377,377,377,377,377,379,385,396,401,404,405,405,407,408,409,413,415,419,422,429],"ymouse":[608,608,608,608,608,608,608,608,608,608,608,608,608,608,608,608,608,608,608,608,608,608,608,608,608,608,608,608,608,608,608,608,608,608,608,608,608,608,608,608,608,608,608,608,608,608,608,608,608,608,608,605,605,604,604,604,604,604,604,604,604,604,604,604,604,604,604,604,604,604,604,604,604,604,604,604,604,604,604,604,604,604,604,604,604,604,604,606,606,607,608,608,608,608,608,608,608,609,611,612,612,612,612,612,612,613,613,613,613,613,613,613,613,616,617,618,618,619,619,619,619,619,619,619,619,619,619,619,619,619,619,619,619,619,619,618,616,610,608,607,606,605,605,605,605,605,605,605,605,605,605,605,605,605,605,605,605,605,605,604,596,556,394,297,229,200,194,303,439,600,600,600,600,878,874,843,755,710,676,639,628,617,611,596,551,434,259,0,0,0,0,0,0,0,0,0,0,0,0,0,0,3,7,7,10,12,15,21,22,22,23,23,25,28,31,33,33,34,34,37,39,39,39,39,39,34,29,21,16,14,13,13,13,13,13,13,13,13,13,18,23,25,26,26,27,28,29,31,32,34,36,40],"timestamp_mouse":[9,31,49,69,90,110,130,149,170,190,209,229,249,270,290,309,330,350,369,390,409,429,450,470,489,509,530,550,570,590,610,629,650,670,690,709,730,750,769,790,809,829,850,869,889,909,930,950,969,989,1009,1029,1050,1069,1090,1109,1130,1149,1170,1190,1210,1230,1249,1270,1289,1310,1329,1350,1370,1390,1409,1430,1449,1469,1489,1509,1530,1549,1569,1589,1609,1630,1650,1669,1690,1709,1729,1749,1770,1789,1810,1829,1850,1870,1889,1909,1929,1950,1970,1990,2009,2029,2050,2069,2089,2109,2130,2150,2169,2190,2209,2229,2249,2269,2289,2310,2329,2350,2370,2390,2409,2429,2450,2470,2490,2510,2530,2550,2569,2589,2610,2629,2650,2670,2689,2710,2729,2749,2769,2790,2810,2829,2850,2870,2889,2910,2929,2950,2969,2990,3009,3029,3049,3070,3090,3109,3129,3149,3169,3189,3209,3229,3249,3269,3289,3309,3329,3349,3369,3389,3409,3429,3449,3469,3489,3509,3529,3549,3569,3589,3609,3629,3649,3669,3690,3709,3729,3749,3770,3789,3809,3829,3849,3870,3889,3909,3930,3949,3970,3989,4010,4029,4050,4070,4089,4109,4129,4149,4169,4189,4209,4231,4250,4269,4289,4309,4329,4350,4369,4389,4409,4429,4450,4469,4489,4509,4530,4549,4569,4589,4610,4631,4649,4670,4690,4710,4730,4749,4769,4789,4809,4829,4850,4869,4890,4909,4930,4950,4969,4989,5009,5029],"xSR":741.5,"ySR":573.95,"xT1":424.9,"yT1":0,"xT2":1058.1,"yT2":0,"toosoon":0,"cond_shown":"Congruent","ratio_trial":100,"L_num":8,"L_den":16,"R_num":2,"R_den":5,"correct_side":1,"subjID":"ALEXSANTIAGOPEREZSANCHEZ23","gender":"0","school":"4","age":"8"},{"start_time":1552308742091,"click_time":1552308744479,"finger_time":1552308743700,"fix_duration":250,"trial":12,"RT":1609,"MT":779,"sideResp":1,"stimulus":[],"xmouse":[805,803,803,803,803,803,803,803,803,803,803,803,803,803,803,803,803,803,803,803,803,803,803,803,803,803,803,803,803,803,803,803,803,803,803,803,803,803,803,803,803,803,803,803,803,803,803,803,803,803,803,803,803,803,803,803,803,803,803,803,803,803,803,803,803,803,803,803,803,803,803,803,803,803,803,802,802,802,801,801,783,772,699,682,679,679,679,679,679,679,679,679,679,679,679,679,679,677,675,673,667,666,653,650,647,646,642,640,636,630,624,612,598,596,592,587,565,549,534,521],"ymouse":[621,623,623,623,623,623,623,623,624,624,624,624,624,624,624,624,624,624,624,624,624,624,624,624,624,624,624,624,624,624,624,624,624,624,624,624,624,624,624,624,624,624,624,624,624,624,624,624,624,624,624,624,624,624,624,624,624,624,624,624,624,624,624,624,624,624,624,624,624,624,624,624,624,624,624,624,624,624,623,618,539,504,340,310,302,302,302,302,302,302,302,302,302,302,302,302,302,299,296,293,285,284,264,260,257,255,250,247,244,238,232,217,200,191,179,168,141,122,103,87],"timestamp_mouse":[8,31,49,69,88,109,128,149,168,189,209,229,249,269,289,308,328,349,369,389,408,428,449,469,488,508,528,548,568,588,608,628,649,668,688,709,729,748,769,788,808,829,849,869,889,908,929,949,968,989,1008,1028,1049,1069,1089,1109,1128,1148,1169,1189,1209,1228,1248,1269,1289,1309,1329,1349,1369,1389,1409,1428,1449,1468,1489,1508,1529,1549,1568,1588,1609,1628,1649,1668,1688,1708,1729,1748,1769,1789,1809,1829,1849,1869,1889,1909,1929,1949,1969,1988,2009,2028,2048,2068,2088,2108,2128,2148,2169,2188,2208,2228,2248,2268,2289,2309,2328,2349,2368,2388],"xSR":741.5,"ySR":573.95,"xT1":424.9,"yT1":0,"xT2":1058.1,"yT2":0,"toosoon":0,"cond_shown":"Incongruent","ratio_trial":300,"L_num":4,"L_den":20,"R_num":2,"R_den":4,"correct_side":2,"subjID":"ALEXSANTIAGOPEREZSANCHEZ23","gender":"0","school":"4","age":"8"},{"start_time":1552308757626,"click_time":1552308760779,"finger_time":1552308759879,"fix_duration":284.1356033899686,"trial":13,"RT":2253,"MT":900,"sideResp":2,"stimulus":[],"xmouse":[808,808,808,807,807,806,806,806,805,805,805,805,805,805,805,805,805,805,805,805,805,805,805,805,805,805,805,805,805,805,805,805,805,805,805,805,805,805,805,805,805,805,805,805,805,805,805,805,805,805,805,805,805,805,805,805,805,805,805,805,805,805,804,802,802,801,800,800,800,800,800,800,800,800,800,800,800,800,800,800,800,800,800,800,800,800,800,800,800,800,800,800,800,800,800,800,800,800,800,800,800,800,800,800,800,800,800,801,805,809,817,840,850,854,858,862,875,893,902,906,909,910,915,921,926,936,975,981,986,988,991,997,999,1001,1001,1002,1002,1002,1002,1002,1002,1002,1007,1018,1030,1045,1066,1072,1076,1085,1089,1095,1096,1097,1097,1097,1097,1097],"ymouse":[629,620,617,614,612,612,611,611,611,611,611,611,611,611,611,611,611,611,611,611,611,611,611,611,611,611,611,611,611,611,611,611,611,611,611,611,611,611,611,611,611,611,611,611,611,611,611,611,611,611,611,611,611,611,611,611,611,611,611,611,611,611,611,611,611,611,611,611,611,611,611,611,611,611,611,611,611,611,611,611,611,611,611,611,611,611,611,611,611,611,611,611,611,611,611,611,611,611,611,611,611,611,611,611,611,611,611,611,611,611,607,579,562,550,541,528,492,457,438,427,422,418,410,401,396,386,356,348,340,332,327,313,304,293,274,266,265,257,251,246,241,237,231,216,203,187,170,166,161,156,149,139,134,129,122,115,101,98],"timestamp_mouse":[13,36,53,74,93,113,134,154,173,193,213,234,253,273,293,314,333,354,374,394,413,433,454,474,494,513,533,554,573,594,614,633,654,674,694,714,734,755,774,793,814,833,854,873,893,914,934,953,974,994,1014,1033,1054,1074,1093,1114,1134,1153,1173,1194,1213,1233,1253,1274,1294,1313,1333,1354,1373,1393,1413,1434,1454,1473,1493,1513,1534,1553,1573,1593,1613,1634,1653,1673,1693,1713,1734,1753,1773,1794,1813,1834,1853,1874,1894,1914,1934,1953,1973,1994,2014,2033,2053,2074,2093,2114,2133,2154,2174,2193,2213,2233,2253,2274,2293,2314,2333,2353,2374,2394,2413,2433,2453,2473,2493,2513,2533,2554,2573,2593,2613,2634,2653,2673,2694,2714,2733,2754,2774,2793,2813,2834,2854,2874,2893,2913,2933,2954,2973,2994,3013,3033,3053,3073,3093,3114,3133,3153],"xSR":741.5,"ySR":573.95,"xT1":424.9,"yT1":0,"xT2":1058.1,"yT2":0,"toosoon":0,"cond_shown":"Congruent","ratio_trial":200,"L_num":20,"L_den":25,"R_num":9,"R_den":15,"correct_side":1,"subjID":"ALEXSANTIAGOPEREZSANCHEZ23","gender":"0","school":"4","age":"8"},{"start_time":1552308765036,"click_time":1552308768539,"finger_time":1552308766379,"fix_duration":1337.7572657070905,"trial":14,"RT":1343,"MT":2160,"sideResp":1,"stimulus":[],"xmouse":[803,803,803,803,803,803,803,803,803,803,803,803,803,803,803,803,803,803,803,803,803,803,803,803,803,803,803,803,803,803,803,803,803,803,803,803,805,812,817,817,817,817,817,817,817,817,817,817,817,817,817,817,817,817,817,817,817,817,817,817,817,817,817,817,818,821,824,831,834,834,834,834,832,832,832,832,832,832,832,832,832,832,832,832,832,832,832,832,832,832,832,832,832,830,824,815,802,779,767,754,745,741,735,732,728,723,721,721,719,719,717,712,705,701,691,687,683,680,675,665,660,653,632,612,605,574,555,525,519,517,517,517,517,517,517,517,517,517,517,517,517,517,517,517,517,517,517,517,517,517,516,516,514,513,512,510,510,508,508,508,508,508,508,508,508,508,508,508,508,508,508,508,507,506,504,502],"ymouse":[618,618,618,618,618,618,618,618,618,618,618,618,618,618,618,618,618,618,618,618,618,618,618,618,618,618,618,618,618,618,618,618,618,618,618,618,618,618,618,618,618,618,618,618,618,618,618,618,618,618,618,618,618,618,618,618,618,618,618,618,618,618,618,618,618,614,596,535,502,478,464,457,450,450,450,450,450,450,450,450,448,447,447,447,447,447,447,447,447,447,447,447,447,444,433,421,404,369,352,335,323,314,304,297,290,283,279,279,278,277,276,273,268,263,257,253,251,248,245,241,235,231,214,202,197,179,169,152,148,146,146,146,146,146,146,146,146,146,146,146,146,146,146,146,146,146,146,146,146,146,145,145,134,128,122,119,117,116,115,115,115,114,112,112,111,111,111,111,111,111,111,111,111,109,103,99],"timestamp_mouse":[5,24,43,63,84,104,123,143,163,184,203,224,244,264,284,303,324,343,363,383,404,424,443,463,484,504,523,543,563,584,603,624,643,663,683,705,723,743,763,784,804,824,843,863,883,903,923,943,964,984,1003,1024,1043,1063,1084,1103,1124,1143,1163,1183,1204,1223,1244,1263,1283,1304,1324,1343,1363,1383,1404,1423,1444,1464,1483,1503,1523,1543,1563,1583,1609,1623,1644,1663,1683,1703,1723,1743,1764,1783,1804,1823,1844,1864,1883,1904,1923,1943,1964,1984,2003,2023,2043,2063,2083,2104,2124,2143,2163,2183,2203,2223,2243,2263,2283,2303,2324,2343,2363,2383,2403,2423,2444,2464,2483,2504,2523,2543,2563,2583,2603,2623,2644,2663,2683,2704,2725,2743,2763,2784,2804,2823,2843,2863,2884,2904,2923,2943,2963,2983,3003,3024,3043,3063,3084,3103,3123,3143,3163,3184,3203,3224,3244,3263,3284,3303,3323,3343,3364,3383,3404,3424,3443,3464,3484,3503],"xSR":741.5,"ySR":573.95,"xT1":424.9,"yT1":0,"xT2":1058.1,"yT2":0,"toosoon":0,"cond_shown":"Incongruent","ratio_trial":300,"L_num":4,"L_den":5,"R_num":8,"R_den":16,"correct_side":1,"subjID":"ALEXSANTIAGOPEREZSANCHEZ23","gender":"0","school":"4","age":"8"},{"start_time":1552308772985,"click_time":1552308775400,"finger_time":1552308774900,"fix_duration":984.1557196871474,"trial":15,"RT":1915,"MT":500,"sideResp":1,"stimulus":[],"xmouse":[798,798,798,798,798,798,798,798,798,798,798,798,798,798,798,798,798,798,798,798,798,798,798,798,798,798,798,798,798,798,798,798,798,798,798,798,798,798,798,798,798,798,798,798,798,798,798,798,798,798,798,798,798,798,798,798,798,798,798,798,798,798,798,798,798,798,798,798,798,798,798,798,798,798,798,798,798,798,798,798,798,798,798,798,798,798,798,798,798,798,798,798,801,804,805,805,805,804,797,778,764,740,712,680,614,600,593,590,588,584,582,580,578,578,577,574,569,562,553,541,515],"ymouse":[612,612,612,612,612,612,612,612,612,612,612,612,612,612,612,612,612,612,612,612,612,612,612,612,612,612,612,612,612,612,612,612,612,612,612,612,612,612,612,612,612,612,612,612,612,612,612,612,612,612,612,612,612,612,612,612,612,612,612,612,612,612,612,612,612,612,612,612,612,612,612,612,612,612,612,612,612,612,612,612,612,612,612,612,612,612,612,612,612,612,612,612,612,602,587,537,510,486,462,395,343,277,212,149,50,35,29,26,24,20,18,18,17,16,16,16,16,16,16,16,15],"timestamp_mouse":[15,36,56,75,95,115,136,156,175,196,216,236,255,275,296,315,336,355,376,396,416,436,455,476,496,516,536,555,576,595,615,635,655,675,695,715,735,756,776,795,815,836,855,875,895,915,935,955,975,995,1015,1035,1055,1075,1095,1115,1135,1156,1176,1196,1216,1235,1255,1275,1295,1315,1337,1356,1375,1396,1416,1436,1455,1476,1495,1515,1536,1555,1575,1595,1616,1636,1656,1677,1696,1716,1735,1756,1776,1796,1816,1835,1855,1875,1895,1915,1935,1957,1976,1995,2015,2035,2056,2076,2095,2116,2135,2155,2175,2195,2215,2236,2255,2276,2295,2315,2337,2356,2376,2395,2415],"xSR":741.5,"ySR":573.95,"xT1":424.9,"yT1":0,"xT2":1058.1,"yT2":0,"toosoon":0,"cond_shown":"Congruent","ratio_trial":200,"L_num":4,"L_den":10,"R_num":3,"R_den":15,"correct_side":1,"subjID":"ALEXSANTIAGOPEREZSANCHEZ23","gender":"0","school":"4","age":"8"},{"start_time":1552308777132,"click_time":1552308779000,"finger_time":1552308778401,"fix_duration":250,"trial":16,"RT":1269,"MT":599,"sideResp":1,"stimulus":[],"xmouse":[823,822,822,821,821,821,821,821,821,821,821,821,821,821,821,821,821,821,821,821,821,821,821,821,821,821,821,821,821,821,821,821,821,821,821,821,821,821,821,821,821,821,821,821,821,821,821,821,821,821,821,821,821,821,821,821,821,821,821,821,821,821,816,758,711,699,672,664,662,662,660,659,656,649,644,638,629,620,599,591,584,581,578,571,565,560,556,554,553,553,551,547,535,508],"ymouse":[605,605,605,606,606,606,606,606,606,606,606,606,606,606,606,606,606,606,606,606,606,606,606,606,606,606,606,606,606,606,606,606,606,606,606,606,606,606,606,606,606,606,606,606,606,606,606,606,606,606,606,606,606,606,606,606,606,606,606,606,606,604,594,522,455,436,395,380,375,374,372,369,365,353,344,332,317,298,266,248,230,215,196,161,148,139,133,130,130,130,128,123,115,95],"timestamp_mouse":[8,28,49,68,88,108,128,149,168,189,208,228,249,269,289,308,328,348,368,389,408,429,449,468,489,509,529,548,568,588,609,628,650,668,688,710,729,748,769,789,808,829,849,868,889,909,928,949,968,989,1008,1029,1049,1068,1088,1109,1129,1148,1168,1188,1209,1228,1249,1269,1290,1308,1329,1348,1368,1388,1409,1430,1449,1468,1489,1509,1529,1548,1569,1588,1609,1628,1649,1668,1688,1709,1729,1748,1768,1788,1809,1828,1848,1868],"xSR":741.5,"ySR":573.95,"xT1":424.9,"yT1":0,"xT2":1058.1,"yT2":0,"toosoon":0,"cond_shown":"Congruent","ratio_trial":100,"L_num":4,"L_den":10,"R_num":15,"R_den":30,"correct_side":2,"subjID":"ALEXSANTIAGOPEREZSANCHEZ23","gender":"0","school":"4","age":"8"},{"start_time":1552308783722,"click_time":1552308785921,"finger_time":1552308785340,"fix_duration":1160.4697909733159,"trial":17,"RT":1618,"MT":581,"sideResp":2,"stimulus":[],"xmouse":[818,818,818,818,818,818,818,818,818,818,818,818,818,818,818,818,818,818,818,818,818,818,818,818,818,818,818,818,818,818,818,818,818,818,818,818,818,818,818,818,818,818,818,818,818,818,818,818,818,818,818,818,818,818,818,818,818,818,818,818,818,818,818,818,818,818,818,818,818,818,818,818,818,818,818,818,818,821,824,834,843,853,861,866,882,894,916,931,944,944,938,936,933,929,926,926,926,928,933,946,953,959,965,972,987,998,1009,1025,1043,1085],"ymouse":[607,607,607,607,607,607,607,607,607,607,607,607,607,607,607,607,607,607,607,607,607,607,607,607,607,607,607,607,607,607,607,607,607,607,607,607,607,607,607,607,607,607,607,607,607,607,607,607,607,607,607,607,607,607,607,607,607,607,607,607,607,607,607,607,607,607,607,607,607,607,607,607,607,607,607,607,607,604,600,577,550,528,509,491,449,423,376,332,285,253,183,166,150,136,125,119,115,108,104,94,91,90,89,89,89,89,89,86,83,73],"timestamp_mouse":[18,38,58,78,98,118,138,159,178,199,218,239,258,279,299,318,338,358,379,398,418,439,458,478,498,518,538,558,579,598,618,638,659,678,698,719,738,759,778,798,818,838,858,878,898,918,938,958,979,999,1020,1038,1058,1078,1099,1118,1139,1158,1179,1199,1218,1238,1258,1278,1298,1319,1338,1359,1378,1399,1419,1438,1459,1478,1499,1518,1538,1558,1579,1599,1618,1639,1659,1679,1698,1718,1738,1758,1778,1798,1820,1839,1858,1878,1898,1918,1938,1958,1978,1998,2018,2038,2058,2078,2098,2118,2138,2158,2179,2198],"xSR":741.5,"ySR":573.95,"xT1":424.9,"yT1":0,"xT2":1058.1,"yT2":0,"toosoon":0,"cond_shown":"Incongruent","ratio_trial":300,"L_num":13,"L_den":26,"R_num":12,"R_den":15,"correct_side":2,"subjID":"ALEXSANTIAGOPEREZSANCHEZ23","gender":"0","school":"4","age":"8"},{"start_time":1552308789432,"click_time":1552308792740,"finger_time":1552308791221,"fix_duration":250,"trial":18,"RT":1789,"MT":1519,"sideResp":2,"stimulus":[],"xmouse":[800,800,800,800,800,800,800,800,800,798,796,791,789,789,787,787,787,787,787,787,787,787,787,787,787,787,787,787,787,787,787,787,787,787,787,787,787,787,787,787,787,787,787,787,787,787,787,787,787,787,787,787,787,787,787,787,787,787,787,787,787,787,787,787,787,787,787,787,787,787,787,787,787,788,788,788,788,788,788,788,788,789,792,802,809,817,820,825,830,842,849,858,863,866,868,875,878,883,893,909,979,1029,1034,1037,1037,1037,1037,1037,1037,1027,1007,984,964,934,923,922,922,922,922,922,922,934,989,1042,1189,1248,1271,1270,1220,1127,928,873,856,854,849,843,840,840,840,842,845,848,851,854,855,862,866,870,873,878,892,902,908,913,918,921,925,927,932,938,950,975,990,1010,1032,1077],"ymouse":[657,657,657,657,657,657,657,657,657,656,654,649,647,647,644,644,643,643,643,643,643,643,643,643,643,643,643,643,643,643,643,643,643,643,643,643,643,643,643,643,643,643,643,643,643,643,643,643,643,643,643,643,643,643,643,643,643,643,643,642,642,642,642,642,642,642,642,642,642,642,642,642,642,642,642,642,642,642,642,642,642,642,642,642,642,641,640,638,636,629,623,615,610,606,604,596,591,581,566,538,457,386,371,341,334,333,333,333,332,328,322,312,304,295,293,292,292,292,292,292,292,292,292,283,188,89,0,0,0,0,0,0,0,0,3,23,33,41,48,56,63,67,73,76,77,78,78,78,78,78,78,78,78,78,78,77,75,75,73,73,73,72,72,72,73,73],"timestamp_mouse":[8,28,48,69,88,109,130,148,168,188,208,229,248,268,288,309,328,348,368,388,410,429,448,468,488,509,529,549,568,589,608,628,648,668,688,709,728,748,768,788,809,829,849,869,888,908,929,949,968,988,1009,1028,1048,1069,1089,1109,1128,1148,1168,1189,1209,1228,1248,1269,1289,1309,1329,1348,1368,1388,1408,1428,1449,1469,1489,1509,1530,1548,1568,1589,1608,1628,1649,1668,1688,1709,1729,1748,1768,1789,1808,1828,1848,1869,1888,1908,1928,1950,1968,1989,2008,2028,2048,2068,2089,2109,2129,2148,2168,2189,2208,2228,2249,2269,2289,2309,2328,2349,2368,2388,2408,2428,2449,2469,2489,2509,2529,2549,2568,2588,2608,2629,2648,2668,2689,2709,2728,2748,2768,2788,2809,2828,2849,2868,2889,2908,2928,2949,2968,2988,3010,3028,3049,3068,3089,3108,3129,3148,3168,3189,3208,3228,3248,3268,3289,3308],"xSR":741.5,"ySR":573.95,"xT1":424.9,"yT1":0,"xT2":1058.1,"yT2":0,"toosoon":0,"cond_shown":"Congruent","ratio_trial":300,"L_num":1,"L_den":20,"R_num":7,"R_den":20,"correct_side":2,"subjID":"ALEXSANTIAGOPEREZSANCHEZ23","gender":"0","school":"4","age":"8"},{"start_time":1552308794877,"click_time":1552308796861,"finger_time":1552308796081,"fix_duration":436.1436513147524,"trial":19,"RT":1204,"MT":780,"sideResp":2,"stimulus":[],"xmouse":[816,816,816,816,816,816,816,816,816,816,816,816,816,816,816,816,816,816,816,816,816,816,816,816,816,816,816,816,816,816,816,816,814,812,812,812,812,812,812,812,812,812,812,812,812,812,812,812,812,812,812,812,812,812,812,812,812,812,812,813,838,873,910,959,966,967,969,969,975,981,983,986,988,990,991,993,995,1001,1004,1011,1012,1016,1020,1027,1039,1044,1050,1050,1054,1057,1059,1062,1064,1066,1069,1070,1072,1073,1079,1083],"ymouse":[618,618,618,618,618,618,618,618,618,618,618,618,618,618,618,618,618,618,618,618,618,618,618,618,618,618,618,618,618,618,618,618,618,618,618,618,618,618,618,618,618,618,618,618,618,618,618,618,618,618,618,618,618,618,618,618,618,618,618,608,550,476,412,300,265,247,235,228,208,199,195,189,187,184,183,181,177,173,170,167,166,165,163,161,156,153,149,149,143,139,136,132,129,125,122,120,117,114,104,95],"timestamp_mouse":[3,23,44,64,83,103,123,144,163,183,204,223,244,263,283,304,324,344,364,384,404,423,444,463,483,504,523,543,564,584,603,624,643,664,684,704,723,744,764,784,804,825,843,864,884,904,925,944,963,984,1004,1023,1043,1063,1085,1104,1124,1144,1164,1184,1204,1224,1243,1263,1284,1304,1323,1344,1363,1385,1403,1424,1443,1463,1483,1503,1523,1543,1563,1583,1604,1623,1643,1663,1683,1704,1723,1743,1763,1783,1804,1824,1843,1863,1884,1903,1923,1945,1963,1984],"xSR":741.5,"ySR":573.95,"xT1":424.9,"yT1":0,"xT2":1058.1,"yT2":0,"toosoon":0,"cond_shown":"Incongruent","ratio_trial":200,"L_num":3,"L_den":10,"R_num":1,"R_den":2,"correct_side":2,"subjID":"ALEXSANTIAGOPEREZSANCHEZ23","gender":"0","school":"4","age":"8"},{"start_time":1552308800536,"click_time":1552308802941,"finger_time":1552308802021,"fix_duration":614.4658651589508,"trial":20,"RT":1485,"MT":920,"sideResp":1,"stimulus":[],"xmouse":[804,804,804,804,804,804,804,804,804,804,804,804,804,804,804,804,804,804,804,804,804,804,804,804,804,804,804,804,804,804,804,804,804,804,804,804,804,804,804,803,801,801,801,801,799,799,799,799,798,798,798,798,798,798,798,798,798,798,798,798,798,798,798,798,798,798,798,798,798,798,798,797,797,797,794,790,777,768,762,755,750,741,733,727,719,712,693,683,676,667,659,646,641,634,626,616,601,596,591,586,585,573,564,557,551,545,540,535,530,526,524,520,520,520,520,520,517,516,514,512,511],"ymouse":[622,622,622,622,622,622,622,622,622,622,622,622,622,622,622,622,622,622,622,622,622,622,622,622,622,622,622,622,622,622,622,622,622,622,622,622,622,622,622,622,622,622,622,622,622,622,622,622,622,622,622,622,622,622,622,622,622,622,622,622,622,622,622,622,622,622,622,622,622,622,622,615,604,592,573,546,482,455,441,426,415,398,384,373,359,346,319,303,292,278,267,250,243,233,223,210,190,184,180,170,167,156,150,143,140,136,131,127,123,120,118,113,112,112,112,112,108,107,102,101,98],"timestamp_mouse":[4,24,45,64,84,104,125,146,164,185,204,224,244,264,285,305,326,346,364,384,405,424,445,464,485,506,524,545,565,584,604,624,644,664,684,704,724,745,765,784,804,824,845,864,886,904,925,945,964,985,1005,1025,1044,1065,1084,1104,1124,1145,1165,1184,1206,1224,1245,1265,1284,1305,1324,1345,1364,1384,1405,1424,1445,1464,1485,1504,1525,1544,1565,1584,1605,1625,1645,1664,1685,1704,1725,1744,1764,1784,1804,1824,1845,1864,1885,1904,1924,1944,1965,1986,2004,2024,2044,2065,2084,2105,2125,2144,2165,2184,2204,2225,2246,2264,2284,2304,2324,2344,2365,2384,2405],"xSR":741.5,"ySR":573.95,"xT1":424.9,"yT1":0,"xT2":1058.1,"yT2":0,"toosoon":0,"cond_shown":"Congruent","ratio_trial":100,"L_num":2,"L_den":5,"R_num":6,"R_den":12,"correct_side":2,"subjID":"ALEXSANTIAGOPEREZSANCHEZ23","gender":"0","school":"4","age":"8"},{"start_time":1552308805949,"click_time":1552308808120,"finger_time":1552308807460,"fix_duration":907.4946634797566,"trial":21,"RT":1511,"MT":660,"sideResp":1,"stimulus":[],"xmouse":[799,799,799,799,799,799,799,799,799,799,799,799,799,799,799,799,799,799,799,799,799,799,799,799,799,799,799,799,799,799,799,799,799,799,799,799,799,799,799,799,799,799,799,799,799,799,799,799,799,799,799,799,799,799,799,799,799,799,799,799,799,799,799,799,799,799,799,799,799,799,799,799,799,785,774,748,678,648,628,624,623,623,623,623,624,627,633,636,637,639,639,627,608,581,560,540,539,539,539,538,538,538,537,537,536,535,529,526,522],"ymouse":[612,612,612,612,612,612,612,612,612,612,612,612,612,612,612,612,612,612,612,612,612,612,612,612,612,612,612,612,612,612,612,612,612,612,612,612,612,612,612,612,612,612,612,612,612,612,612,612,612,612,612,612,612,612,612,612,612,612,612,612,612,612,612,612,612,612,612,612,612,612,612,612,612,598,581,552,495,474,458,456,456,456,456,455,450,442,417,400,381,353,316,281,230,183,145,110,106,104,104,101,100,99,98,98,97,97,91,87,84],"timestamp_mouse":[11,32,52,71,91,112,131,152,171,192,211,232,252,272,291,312,331,352,372,392,412,432,451,471,491,511,531,552,571,592,612,631,651,671,692,711,733,752,772,791,811,832,851,872,891,911,932,951,972,992,1011,1032,1051,1072,1091,1111,1131,1151,1171,1192,1212,1231,1251,1271,1291,1311,1331,1351,1372,1392,1412,1431,1451,1472,1491,1511,1531,1551,1572,1591,1612,1632,1652,1671,1692,1711,1731,1751,1771,1791,1812,1831,1851,1871,1891,1911,1932,1951,1971,1992,2012,2031,2051,2071,2091,2112,2131,2152,2171],"xSR":741.5,"ySR":573.95,"xT1":424.9,"yT1":0,"xT2":1058.1,"yT2":0,"toosoon":0,"cond_shown":"Incongruent","ratio_trial":300,"L_num":1,"L_den":2,"R_num":2,"R_den":10,"correct_side":1,"subjID":"ALEXSANTIAGOPEREZSANCHEZ23","gender":"0","school":"4","age":"8"},{"start_time":1552308811967,"click_time":1552308813700,"finger_time":1552308813060,"fix_duration":386.9028548094975,"trial":22,"RT":1093,"MT":640,"sideResp":1,"stimulus":[],"xmouse":[783,783,783,783,784,784,786,786,786,786,786,786,786,786,786,786,786,786,786,786,786,786,786,786,786,786,786,786,786,786,786,786,786,786,786,786,786,786,786,786,786,786,786,786,786,786,786,786,786,786,786,786,786,776,750,649,567,538,523,520,520,520,520,517,515,509,507,506,506,506,506,506,506,503,501,493,491,486,480,476,468,467,465,465,465,465,465],"ymouse":[622,622,622,622,622,622,622,620,619,618,617,617,617,617,617,617,617,617,617,617,617,617,617,617,617,617,617,617,617,617,617,617,617,617,617,617,617,617,617,617,617,617,617,617,617,617,617,617,617,617,617,617,609,585,546,411,311,281,263,260,259,259,259,253,247,235,230,227,227,226,225,223,220,212,203,186,179,170,156,143,120,113,107,106,104,100,97],"timestamp_mouse":[15,34,53,74,93,113,133,153,173,194,214,234,254,274,293,313,334,354,373,393,414,434,453,473,493,514,534,554,573,593,614,633,653,674,693,713,733,753,773,794,813,833,853,873,893,913,934,953,973,994,1014,1033,1054,1074,1093,1113,1134,1153,1173,1193,1213,1234,1253,1273,1294,1313,1334,1355,1373,1394,1413,1433,1454,1473,1494,1513,1533,1553,1573,1594,1614,1633,1653,1673,1694,1713,1733],"xSR":741.5,"ySR":573.95,"xT1":424.9,"yT1":0,"xT2":1058.1,"yT2":0,"toosoon":0,"cond_shown":"Incongruent","ratio_trial":200,"L_num":1,"L_den":2,"R_num":3,"R_den":10,"correct_side":1,"subjID":"ALEXSANTIAGOPEREZSANCHEZ23","gender":"0","school":"4","age":"8"},{"start_time":1552308818042,"click_time":1552308820441,"finger_time":1552308819700,"fix_duration":1299.6219570973135,"trial":23,"RT":1658,"MT":741,"sideResp":1,"stimulus":[],"xmouse":[788,788,788,788,788,788,788,788,788,788,788,788,788,788,788,788,788,788,788,788,788,788,788,788,788,788,788,788,788,788,788,788,788,788,788,788,788,788,788,788,788,788,788,788,788,788,788,788,788,788,788,788,788,788,788,788,788,788,788,788,788,788,788,788,788,788,788,788,788,788,788,788,788,788,788,788,788,788,788,788,784,761,694,664,649,641,637,637,637,631,623,609,582,574,566,558,555,537,531,522,517,517,517,517,517,517,517,517,517,517,517,515,512,511,509,506,506,499,499,495],"ymouse":[630,630,630,630,630,630,630,630,630,630,630,630,630,630,630,630,630,630,630,630,630,630,630,630,630,630,630,630,630,630,630,630,630,630,630,630,630,630,630,630,630,630,630,630,630,630,630,630,630,630,630,630,630,630,630,630,630,630,630,630,630,630,630,630,630,630,630,630,630,630,630,630,630,630,630,630,630,630,630,629,622,574,466,413,389,372,367,367,366,352,332,310,263,247,234,220,211,180,173,156,151,151,150,150,150,150,150,150,150,150,147,145,138,134,130,125,121,108,106,99],"timestamp_mouse":[19,38,58,78,98,118,139,158,178,199,219,238,259,279,298,319,338,358,378,399,418,438,458,478,499,518,538,559,578,598,618,638,659,678,698,719,738,758,779,798,818,838,858,878,898,919,938,959,978,999,1018,1038,1058,1079,1099,1119,1138,1158,1178,1199,1218,1238,1259,1278,1300,1319,1338,1359,1379,1400,1418,1438,1458,1480,1498,1520,1538,1559,1578,1598,1618,1638,1658,1678,1698,1719,1739,1759,1779,1798,1818,1838,1858,1878,1898,1919,1938,1958,1978,1998,2018,2039,2058,2078,2098,2119,2139,2159,2178,2198,2218,2239,2258,2278,2299,2318,2339,2358,2378,2399],"xSR":741.5,"ySR":573.95,"xT1":424.9,"yT1":0,"xT2":1058.1,"yT2":0,"toosoon":0,"cond_shown":"Congruent","ratio_trial":200,"L_num":3,"L_den":10,"R_num":11,"R_den":22,"correct_side":2,"subjID":"ALEXSANTIAGOPEREZSANCHEZ23","gender":"0","school":"4","age":"8"},{"start_time":1552308823366,"click_time":1552308827100,"finger_time":1552308825861,"fix_duration":905.9300612710992,"trial":24,"RT":2495,"MT":1239,"sideResp":2,"stimulus":[],"xmouse":[805,805,805,805,805,805,805,805,805,805,805,805,805,805,805,805,805,805,805,805,805,805,805,805,805,805,805,805,805,805,805,805,805,805,805,805,805,805,805,805,805,805,805,805,805,805,805,805,805,805,805,805,805,805,805,805,805,805,805,805,805,805,805,805,805,805,805,805,805,805,805,805,805,805,805,805,805,805,805,805,805,805,805,805,805,805,805,805,805,805,805,805,805,805,805,805,805,805,805,805,805,805,805,805,805,805,805,805,805,805,805,805,805,805,805,805,805,805,807,810,817,827,832,838,843,848,855,857,863,882,885,895,895,895,895,895,895,895,898,900,902,904,904,905,907,909,921,934,977,1013,1017,1018,1018,1018,1018,1018,1018,1019,1020,1022,1022,1025,1036,1047,1059,1074,1089,1094,1096,1099,1100,1102,1103,1105,1106,1106,1107,1108,1109,1109,1109,1109,1102,1093,1089,1079,1073],"ymouse":[644,644,644,644,644,644,644,644,644,644,644,644,644,644,644,644,644,644,644,644,644,644,644,644,644,644,644,644,644,644,644,644,644,644,644,644,644,644,644,644,644,644,644,644,644,644,644,644,644,644,644,644,644,644,644,644,644,644,644,644,644,644,644,644,644,644,644,644,644,644,644,644,644,644,644,644,644,644,644,644,644,644,644,644,644,644,644,644,644,644,644,644,644,644,644,644,644,644,644,644,644,644,644,644,644,644,644,644,644,644,644,644,644,644,644,644,644,642,641,638,633,628,624,619,616,612,604,600,592,566,555,504,485,473,462,452,434,427,422,413,411,405,403,402,400,399,390,389,379,361,354,353,352,352,351,350,344,342,340,337,336,329,308,289,273,267,262,260,259,255,254,249,243,241,237,235,233,229,222,215,205,190,161,141,127,109,80],"timestamp_mouse":[15,34,54,75,94,114,135,154,174,195,215,234,254,274,295,314,335,354,374,395,415,434,454,475,494,514,535,555,575,595,615,635,654,675,694,714,734,754,775,795,814,836,855,875,894,914,934,955,974,994,1014,1035,1056,1074,1095,1114,1135,1154,1174,1195,1215,1234,1254,1275,1295,1314,1334,1354,1376,1394,1415,1434,1456,1474,1494,1514,1534,1555,1574,1595,1614,1635,1654,1675,1695,1714,1734,1755,1775,1795,1815,1835,1854,1874,1894,1915,1934,1954,1975,1995,2014,2035,2055,2075,2094,2115,2134,2154,2175,2194,2214,2234,2254,2275,2294,2315,2334,2354,2374,2394,2415,2434,2454,2474,2495,2516,2534,2554,2574,2595,2614,2634,2654,2674,2694,2715,2734,2754,2774,2795,2814,2834,2854,2874,2894,2914,2934,2955,2974,2995,3014,3034,3054,3074,3095,3114,3134,3154,3175,3195,3215,3234,3254,3274,3294,3315,3334,3354,3374,3395,3415,3435,3454,3474,3494,3515,3534,3554,3575,3594,3615,3635,3655,3675,3695,3714,3734],"xSR":741.5,"ySR":573.95,"xT1":424.9,"yT1":0,"xT2":1058.1,"yT2":0,"toosoon":0,"cond_shown":"Congruent","ratio_trial":200,"L_num":3,"L_den":12,"R_num":9,"R_den":20,"correct_side":2,"subjID":"ALEXSANTIAGOPEREZSANCHEZ23","gender":"0","school":"4","age":"8"},{"start_time":1552308829980,"click_time":1552308832420,"finger_time":1552308831261,"fix_duration":1277.5475289777453,"trial":25,"RT":1281,"MT":1159,"sideResp":2,"stimulus":[],"xmouse":[801,801,801,801,801,801,801,801,801,801,801,801,801,801,801,801,801,801,801,801,801,801,801,801,801,801,801,801,801,801,801,801,801,801,801,801,801,801,801,801,801,801,801,801,801,801,801,801,801,801,801,801,801,801,801,801,802,804,807,809,811,816,829,837,846,855,864,880,897,910,929,945,966,971,974,979,988,1023,1033,1037,1037,1037,1037,1037,1037,1037,1037,1034,1034,1040,1043,1044,1046,1047,1047,1049,1049,1050,1051,1054,1055,1055,1055,1055,1055,1055,1057,1057,1057,1057,1057,1057,1057,1057,1057,1057,1057,1057,1057,1057,1057,1057,1059],"ymouse":[617,617,617,617,617,617,617,617,617,617,617,617,617,617,617,617,617,617,617,617,617,617,617,617,617,617,617,617,617,617,617,617,617,617,617,617,617,617,617,617,617,617,617,617,617,617,617,617,617,617,617,617,617,617,617,617,617,617,614,612,609,604,587,576,563,553,542,523,507,495,474,451,402,384,369,352,331,266,241,212,199,192,181,178,171,164,147,91,85,81,78,76,74,74,73,72,71,68,68,66,66,66,66,66,66,66,66,66,66,65,65,65,65,65,65,65,65,65,65,65,65,65,65],"timestamp_mouse":[0,20,41,61,81,100,120,141,161,180,200,220,241,260,280,300,320,340,360,380,401,420,440,460,481,502,521,540,561,581,600,621,640,660,680,700,720,740,760,781,800,820,841,860,880,900,920,941,961,981,1000,1020,1040,1060,1080,1101,1120,1141,1160,1180,1200,1221,1241,1261,1281,1300,1320,1340,1360,1380,1400,1421,1441,1460,1480,1501,1520,1541,1560,1581,1601,1620,1640,1660,1681,1700,1720,1740,1760,1780,1800,1820,1841,1861,1881,1901,1921,1941,1960,1980,2001,2020,2041,2060,2082,2101,2121,2141,2161,2180,2201,2220,2240,2261,2281,2300,2321,2341,2361,2381,2400,2420,2440],"xSR":741.5,"ySR":573.95,"xT1":424.9,"yT1":0,"xT2":1058.1,"yT2":0,"toosoon":0,"cond_shown":"Incongruent","ratio_trial":300,"L_num":4,"L_den":20,"R_num":2,"R_den":4,"correct_side":2,"subjID":"ALEXSANTIAGOPEREZSANCHEZ23","gender":"0","school":"4","age":"8"},{"start_time":1552308836153,"click_time":1552308841422,"finger_time":1552308837581,"fix_duration":250,"trial":26,"RT":1428,"MT":3841,"sideResp":1,"stimulus":[],"xmouse":[785,785,785,785,785,785,785,785,785,785,785,785,785,785,785,785,785,785,785,785,787,788,788,789,789,789,789,789,789,789,789,789,789,789,789,789,789,789,789,789,789,789,789,789,789,789,789,789,789,789,789,789,789,789,789,789,789,789,789,789,789,789,789,789,789,789,790,793,814,833,837,840,842,844,846,848,850,851,853,853,853,853,853,853,853,853,853,853,853,853,853,853,853,853,853,853,853,853,853,853,853,854,856,881,891,900,911,913,929,956,965,973,978,981,981,979,978,978,978,978,978,978,980,983,983,983,983,983,983,983,983,983,983,983,984,988,990,991,993,994,1000,1004,1007,1007,1011,1012,1017,1020,1020,1023,1025,1027,1029,1030,1032,1033,1035,1037,1038,1042,1043,1045,1047,1048,1054,1058,1062,1067,1069,1074,1076,1078,1079,1079,1079,1079,1079,1077,1072,1072,1072,1072,1070,1070,1068,1068,1066,1066,1066,1066,1066,1066,1066,1066,1066,1066,1066,1066,1067,1067,1067,1067,1067,1067,1062,1053,1048,1034,1012,936,890,831,764,652,460,365,274,214,190,181,170,168,164,163,163,163,164,165,165,165,171,180,194,208,222,264,292,318,338,355,382,391,395,398,400,400,400,400,400,400,400,400,400,400,400,402,405,408,411,417,419,420,422,425],"ymouse":[628,628,628,628,628,628,628,628,628,628,627,627,627,627,627,627,627,627,627,627,627,628,628,628,628,628,628,628,628,628,628,628,628,628,628,628,628,628,628,628,628,628,628,628,628,628,628,628,628,628,628,628,628,628,628,628,628,628,628,628,628,628,628,628,628,628,628,628,615,587,574,566,560,555,553,548,544,541,540,540,540,540,540,540,540,540,540,540,540,540,540,540,540,540,540,540,540,540,540,540,540,540,537,526,518,511,499,494,472,436,423,406,389,372,342,323,317,309,303,292,288,279,273,267,266,266,266,266,266,266,266,266,266,266,265,265,266,266,267,268,268,268,268,268,267,267,265,264,263,262,260,259,259,257,256,255,252,251,250,248,246,246,245,243,238,234,229,222,219,208,202,196,189,186,181,181,176,170,157,155,154,153,151,149,146,146,144,144,144,142,141,140,139,138,135,135,135,135,134,134,134,134,134,134,134,134,134,132,126,100,78,52,28,0,0,0,0,0,0,0,7,9,15,22,30,44,47,50,50,50,53,56,62,65,68,75,78,85,89,89,86,82,79,74,72,71,71,71,71,71,71,71,71,71,71,71,71,71,70,68,68,68,68,68],"timestamp_mouse":[8,28,48,67,88,108,128,148,169,188,209,228,247,268,289,308,328,348,368,387,408,428,448,467,488,507,529,548,568,588,608,628,648,669,688,708,728,748,768,788,809,828,847,868,889,908,927,949,968,989,1007,1027,1048,1069,1088,1107,1129,1148,1169,1187,1208,1229,1248,1268,1287,1309,1329,1348,1367,1388,1408,1428,1449,1468,1488,1508,1528,1548,1567,1588,1609,1628,1648,1669,1687,1709,1728,1749,1768,1789,1807,1827,1848,1869,1888,1908,1929,1948,1969,1989,2007,2027,2047,2068,2089,2109,2129,2148,2169,2187,2208,2229,2249,2268,2289,2307,2329,2349,2367,2387,2408,2429,2448,2468,2488,2508,2528,2548,2569,2589,2609,2628,2648,2667,2687,2709,2728,2749,2768,2787,2808,2828,2847,2868,2887,2907,2928,2948,2967,2987,3007,3027,3048,3067,3087,3107,3127,3148,3168,3188,3208,3227,3248,3267,3288,3308,3329,3348,3368,3387,3407,3428,3448,3468,3488,3508,3527,3549,3568,3588,3607,3628,3648,3669,3689,3709,3728,3748,3769,3789,3809,3829,3849,3868,3887,3907,3928,3949,3968,3988,4007,4029,4048,4069,4088,4108,4129,4147,4169,4188,4209,4228,4247,4268,4290,4309,4327,4348,4369,4389,4408,4428,4449,4469,4489,4509,4528,4548,4569,4588,4608,4628,4649,4668,4689,4708,4728,4748,4767,4787,4807,4828,4848,4869,4889,4907,4927,4948,4969,4988,5009,5029,5049,5068,5089,5108,5128,5147,5168,5189,5207,5228,5248,5269],"xSR":741.5,"ySR":573.95,"xT1":424.9,"yT1":0,"xT2":1058.1,"yT2":0,"toosoon":0,"cond_shown":"Incongruent","ratio_trial":300,"L_num":1,"L_den":2,"R_num":2,"R_den":10,"correct_side":1,"subjID":"ALEXSANTIAGOPEREZSANCHEZ23","gender":"0","school":"4","age":"8"},{"start_time":1552308843614,"click_time":1552308846062,"finger_time":1552308845160,"fix_duration":250,"trial":27,"RT":1546,"MT":902,"sideResp":1,"stimulus":[],"xmouse":[782,782,782,782,782,782,782,783,783,783,784,784,784,784,784,784,784,784,784,784,784,784,784,784,784,784,784,784,784,784,784,784,784,784,784,784,784,784,784,784,784,784,784,783,782,779,777,791,806,813,819,825,831,831,833,833,833,833,833,833,833,833,833,833,833,833,833,833,833,833,833,833,833,833,833,833,831,821,749,701,669,648,627,627,627,627,627,627,627,627,627,627,627,627,627,627,626,624,623,619,616,613,607,605,605,604,603,600,599,596,592,588,583,578,575,571,564,546,538,534,529,525,519],"ymouse":[626,626,626,626,626,626,626,626,626,626,626,626,626,626,626,626,626,626,626,626,626,626,626,626,626,626,626,626,626,626,626,626,626,626,626,626,626,626,626,626,626,626,626,626,625,624,624,619,610,604,598,594,591,591,591,591,591,591,591,591,591,591,591,591,591,591,591,591,591,591,591,591,591,591,591,589,584,561,369,254,148,72,8,2,0,0,0,0,0,0,0,0,0,0,0,0,0,0,0,2,5,7,12,13,14,14,15,15,16,16,16,17,17,18,18,18,18,18,18,18,18,18,18],"timestamp_mouse":[8,27,47,68,86,106,128,147,168,187,207,227,248,267,286,306,328,348,368,388,407,426,448,468,487,507,527,547,567,587,607,628,647,668,688,708,726,748,767,787,807,827,846,866,888,907,927,948,967,986,1007,1027,1048,1068,1087,1107,1128,1147,1168,1187,1207,1228,1247,1266,1288,1308,1326,1348,1368,1387,1407,1427,1447,1467,1488,1506,1526,1546,1567,1586,1608,1628,1647,1667,1687,1707,1728,1747,1767,1787,1807,1828,1847,1866,1887,1907,1926,1947,1966,1986,2007,2028,2047,2067,2087,2108,2127,2147,2166,2187,2207,2227,2247,2268,2287,2307,2328,2347,2368,2387,2407,2427,2448],"xSR":741.5,"ySR":573.95,"xT1":424.9,"yT1":0,"xT2":1058.1,"yT2":0,"toosoon":0,"cond_shown":"Incongruent","ratio_trial":200,"L_num":4,"L_den":5,"R_num":6,"R_den":10,"correct_side":1,"subjID":"ALEXSANTIAGOPEREZSANCHEZ23","gender":"0","school":"4","age":"8"},{"start_time":1552308849892,"click_time":1552308852201,"finger_time":1552308851481,"fix_duration":1089.0205085727237,"trial":28,"RT":1589,"MT":720,"sideResp":2,"stimulus":[],"xmouse":[785,785,785,785,785,785,785,785,785,785,785,785,785,785,785,785,785,785,785,785,785,785,785,785,785,785,785,785,785,785,785,785,785,785,785,785,785,785,785,785,785,785,785,785,785,785,785,785,785,785,785,785,785,785,785,785,785,785,785,785,785,785,785,785,785,785,785,785,785,785,785,785,785,785,785,786,788,793,823,847,874,906,922,931,942,948,957,966,973,990,1000,1007,1019,1032,1056,1073,1092,1111,1136,1144,1146,1148,1148,1148,1148,1148,1149,1149,1148,1140,1134,1129,1126,1123,1120,1119],"ymouse":[635,635,635,635,635,635,635,635,635,635,635,635,635,635,635,635,635,635,635,635,635,635,635,635,635,635,635,635,635,635,635,635,635,635,635,635,635,635,635,635,635,635,635,635,635,635,635,635,635,635,635,635,635,635,635,635,635,635,635,635,635,635,635,635,635,635,635,635,635,635,635,635,635,635,635,635,634,630,603,571,524,449,424,412,396,385,373,363,355,337,325,314,294,278,249,230,214,198,177,169,167,165,165,165,163,162,160,156,151,138,127,118,110,105,100,98],"timestamp_mouse":[9,30,50,69,89,109,129,149,170,189,209,229,249,270,288,309,330,350,369,390,409,429,449,470,489,509,528,550,569,590,609,629,650,670,689,709,730,749,768,789,809,828,850,869,889,908,929,949,970,988,1008,1030,1049,1069,1089,1109,1129,1149,1170,1190,1209,1229,1249,1268,1289,1308,1328,1350,1369,1389,1408,1430,1450,1469,1489,1508,1530,1550,1569,1589,1609,1629,1649,1670,1689,1709,1729,1749,1769,1790,1809,1830,1850,1869,1889,1909,1929,1949,1969,1989,2009,2030,2050,2069,2090,2109,2129,2150,2170,2190,2209,2229,2249,2269,2290,2309],"xSR":741.5,"ySR":573.95,"xT1":424.9,"yT1":0,"xT2":1058.1,"yT2":0,"toosoon":0,"cond_shown":"Incongruent","ratio_trial":300,"L_num":13,"L_den":26,"R_num":12,"R_den":15,"correct_side":2,"subjID":"ALEXSANTIAGOPEREZSANCHEZ23","gender":"0","school":"4","age":"8"},{"start_time":1552308856906,"click_time":1552308859441,"finger_time":1552308858180,"fix_duration":1184.1862113373081,"trial":29,"RT":1274,"MT":1261,"sideResp":1,"stimulus":[],"xmouse":[795,795,796,797,798,798,798,798,798,798,798,798,798,798,798,798,798,798,798,798,798,798,798,798,798,798,798,798,798,798,798,798,798,798,798,798,798,798,798,798,798,798,798,798,798,798,798,798,798,798,798,798,798,798,798,798,798,798,798,802,804,805,805,799,794,792,791,791,791,790,790,790,788,785,785,785,784,783,780,774,768,758,749,732,722,715,706,694,689,686,685,683,681,671,666,664,662,659,646,645,636,626,616,601,598,597,596,596,590,587,583,580,580,580,580,580,580,580,580,568,563,559,554,550,538,532,523],"ymouse":[617,617,617,618,618,618,618,618,618,618,618,618,618,618,618,618,618,618,618,618,618,618,618,618,618,618,618,618,618,618,618,618,618,618,618,618,618,618,618,618,618,618,618,618,618,618,618,618,618,618,618,618,618,618,618,618,618,618,618,618,613,602,587,566,555,550,548,547,547,546,546,544,542,538,538,538,536,536,531,522,513,496,480,451,439,428,416,399,393,386,385,381,377,361,353,350,347,341,324,321,309,295,282,258,253,249,248,246,233,226,220,216,216,216,213,213,212,208,201,176,166,157,147,141,122,112,99],"timestamp_mouse":[16,36,55,76,96,116,136,154,174,196,216,234,255,274,296,316,336,354,376,395,416,434,454,476,496,515,534,555,575,596,614,636,655,675,696,715,735,755,774,795,815,835,855,874,895,915,935,954,975,995,1015,1036,1054,1074,1095,1116,1134,1156,1175,1195,1215,1236,1256,1274,1295,1315,1336,1355,1376,1395,1414,1436,1455,1474,1495,1516,1534,1554,1575,1595,1615,1635,1655,1675,1695,1716,1736,1754,1775,1795,1815,1835,1855,1874,1895,1915,1936,1955,1974,1995,2014,2036,2056,2074,2095,2115,2136,2155,2175,2195,2215,2235,2255,2274,2295,2314,2336,2355,2376,2396,2416,2435,2455,2476,2496,2516,2535],"xSR":741.5,"ySR":573.95,"xT1":424.9,"yT1":0,"xT2":1058.1,"yT2":0,"toosoon":0,"cond_shown":"Congruent","ratio_trial":300,"L_num":18,"L_den":20,"R_num":9,"R_den":15,"correct_side":1,"subjID":"ALEXSANTIAGOPEREZSANCHEZ23","gender":"0","school":"4","age":"8"},{"start_time":1552308865036,"click_time":1552308866561,"finger_time":1552308866041,"fix_duration":1172.9057235096575,"trial":30,"RT":1005,"MT":520,"sideResp":2,"stimulus":[],"xmouse":[784,784,784,784,784,784,784,784,784,784,786,787,788,789,791,791,791,798,809,809,809,809,809,809,809,809,809,809,809,809,809,809,809,809,809,809,809,809,809,809,809,809,810,810,810,810,810,810,810,818,847,875,905,926,951,957,966,973,979,981,982,984,988,997,1001,1004,1006,1014,1018,1024,1029,1031,1035,1046,1053,1066,1076],"ymouse":[631,631,631,631,631,631,631,631,631,631,633,634,635,636,637,637,637,642,648,648,648,648,648,648,648,648,648,648,648,648,648,648,648,648,648,648,648,648,648,648,648,648,648,648,648,648,648,648,648,642,602,559,515,478,400,368,333,292,250,234,219,205,196,172,161,151,141,125,118,110,108,108,108,106,104,101,98],"timestamp_mouse":[5,25,45,64,85,105,126,146,165,185,206,225,246,264,286,305,326,344,365,385,406,425,446,466,485,505,526,546,564,585,605,625,644,666,686,705,726,745,764,785,805,825,846,864,886,905,924,946,965,985,1005,1026,1046,1065,1085,1104,1124,1146,1165,1185,1206,1225,1246,1265,1284,1305,1324,1346,1366,1385,1405,1425,1445,1464,1484,1505,1525],"xSR":741.5,"ySR":573.95,"xT1":424.9,"yT1":0,"xT2":1058.1,"yT2":0,"toosoon":0,"cond_shown":"Incongruent","ratio_trial":300,"L_num":4,"L_den":20,"R_num":2,"R_den":4,"correct_side":2,"subjID":"ALEXSANTIAGOPEREZSANCHEZ23","gender":"0","school":"4","age":"8"},{"start_time":1552308869298,"click_time":1552308871502,"finger_time":1552308870922,"fix_duration":1294.7847015282125,"trial":31,"RT":1624,"MT":580,"sideResp":1,"stimulus":[],"xmouse":[789,789,789,789,789,789,789,789,789,789,789,789,789,789,789,789,789,789,789,789,789,789,789,789,789,789,789,789,789,789,789,789,789,789,789,789,789,789,789,789,789,789,789,789,789,789,789,789,789,789,789,789,789,789,789,789,789,789,789,789,789,789,789,789,789,789,789,789,789,789,789,789,789,789,789,789,789,789,790,793,793,779,749,725,706,694,687,685,684,682,679,670,666,664,662,660,656,655,654,652,645,609,576,556,547,546,546,544,542,535,524],"ymouse":[650,650,650,650,650,650,650,650,650,650,650,650,650,650,650,650,650,650,650,650,650,650,650,650,650,650,650,650,650,650,650,650,650,650,650,650,650,650,650,650,650,650,650,650,650,650,650,650,650,650,650,650,650,650,650,650,650,650,650,650,650,650,650,650,650,650,650,650,650,650,650,650,650,650,650,650,650,650,648,635,588,469,358,282,229,192,158,147,132,117,101,69,57,54,52,50,50,50,50,50,52,53,53,46,44,43,43,42,41,39,36],"timestamp_mouse":[3,23,42,63,83,102,122,143,164,182,204,223,243,263,283,304,322,343,363,382,404,422,444,462,482,503,524,544,563,583,604,624,644,664,682,704,723,742,762,784,802,824,844,863,882,903,924,944,962,982,1003,1024,1044,1063,1082,1103,1123,1143,1164,1184,1203,1223,1244,1264,1282,1303,1323,1343,1364,1384,1402,1424,1444,1462,1482,1504,1524,1543,1563,1584,1604,1624,1642,1663,1683,1704,1723,1743,1763,1782,1803,1824,1843,1863,1883,1902,1922,1942,1963,1983,2002,2023,2043,2064,2082,2103,2123,2143,2164,2183,2204],"xSR":741.5,"ySR":573.95,"xT1":424.9,"yT1":0,"xT2":1058.1,"yT2":0,"toosoon":0,"cond_shown":"Congruent","ratio_trial":200,"L_num":9,"L_den":20,"R_num":4,"R_den":16,"correct_side":1,"subjID":"ALEXSANTIAGOPEREZSANCHEZ23","gender":"0","school":"4","age":"8"},{"start_time":1552308877143,"click_time":1552308878622,"finger_time":1552308878002,"fix_duration":440.3915614511924,"trial":32,"RT":859,"MT":620,"sideResp":2,"stimulus":[],"xmouse":[810,810,810,810,810,810,810,810,810,810,810,810,810,810,812,812,812,812,812,812,814,815,817,819,822,826,827,829,830,830,830,830,830,830,830,830,830,830,827,826,826,826,843,863,1053,1188,1253,1286,1295,1303,1309,1314,1318,1319,1320,1320,1308,1300,1287,1255,1239,1221,1206,1198,1193,1191,1187,1182,1181,1175,1167,1162,1155,1149],"ymouse":[644,644,644,644,644,644,644,644,644,644,644,644,644,644,644,644,644,644,644,644,644,644,641,632,622,609,602,600,598,598,598,598,598,598,598,598,598,598,598,599,599,599,596,593,546,523,506,499,496,494,491,490,487,481,454,436,401,374,326,199,130,64,20,0,0,0,0,0,0,0,0,0,0,2],"timestamp_mouse":[17,37,57,78,98,118,137,158,179,199,219,238,258,278,298,319,338,359,379,399,417,438,459,478,498,518,537,559,579,598,618,637,658,678,699,718,737,758,779,799,818,838,859,878,899,918,939,958,978,999,1018,1038,1057,1077,1098,1118,1139,1157,1178,1199,1218,1239,1258,1277,1298,1318,1338,1358,1379,1399,1417,1437,1458,1479],"xSR":741.5,"ySR":573.95,"xT1":424.9,"yT1":0,"xT2":1058.1,"yT2":0,"toosoon":0,"cond_shown":"Congruent","ratio_trial":300,"L_num":20,"L_den":25,"R_num":5,"R_den":10,"correct_side":1,"subjID":"ALEXSANTIAGOPEREZSANCHEZ23","gender":"0","school":"4","age":"8"},{"start_time":1552308883053,"click_time":1552308884961,"finger_time":1552308884502,"fix_duration":1230.2409529027368,"trial":33,"RT":1449,"MT":459,"sideResp":1,"stimulus":[],"xmouse":[786,786,787,787,787,789,789,789,789,789,789,789,789,789,789,789,789,789,789,789,789,789,789,789,789,789,789,789,789,789,789,789,789,789,789,789,789,789,789,789,789,789,789,789,789,789,789,789,789,789,789,789,789,789,789,789,789,789,789,789,789,789,789,789,789,789,789,789,789,789,790,792,792,792,763,750,742,737,736,733,730,724,717,707,673,658,636,607,591,569,556,548,540,532,525,512],"ymouse":[622,622,622,622,622,622,622,622,622,622,622,622,622,622,622,622,622,622,622,622,622,622,622,622,622,622,622,622,622,622,622,622,622,622,622,622,622,622,622,622,622,622,622,622,622,622,622,622,622,622,622,622,622,622,622,622,622,622,622,622,622,622,622,622,622,622,622,622,622,622,623,596,560,513,395,351,313,298,291,278,272,260,249,232,188,166,141,114,102,87,75,69,64,60,57,51],"timestamp_mouse":[7,28,49,68,88,107,127,148,168,188,209,229,248,267,289,308,327,348,368,388,409,428,449,468,487,509,529,549,568,588,608,628,648,667,689,708,728,748,767,787,808,829,848,869,888,908,927,948,969,988,1008,1028,1049,1068,1088,1109,1129,1147,1167,1187,1209,1227,1248,1268,1288,1308,1327,1349,1369,1388,1407,1428,1449,1468,1488,1509,1528,1547,1568,1588,1608,1628,1648,1668,1688,1708,1728,1749,1767,1788,1808,1828,1849,1869,1887,1908],"xSR":741.5,"ySR":573.95,"xT1":424.9,"yT1":0,"xT2":1058.1,"yT2":0,"toosoon":0,"cond_shown":"Incongruent","ratio_trial":200,"L_num":7,"L_den":10,"R_num":12,"R_den":24,"correct_side":1,"subjID":"ALEXSANTIAGOPEREZSANCHEZ23","gender":"0","school":"4","age":"8"},{"start_time":1552308891821,"click_time":1552308893502,"finger_time":1552308892760,"fix_duration":838.1013996037252,"trial":34,"RT":939,"MT":742,"sideResp":2,"stimulus":[],"xmouse":[787,787,787,787,787,787,787,787,787,787,787,787,787,787,787,787,787,787,787,787,787,787,787,787,787,788,789,790,790,790,790,790,790,790,790,790,790,790,790,790,790,790,792,801,810,821,824,842,854,859,862,866,870,884,893,894,894,896,897,904,912,918,933,943,949,956,967,1013,1041,1060,1068,1072,1073,1077,1078,1080,1082,1082,1084,1084,1084,1084,1084,1084,1084],"ymouse":[633,633,633,633,633,633,633,633,633,633,633,633,633,633,633,633,633,633,633,633,633,633,633,633,634,634,634,634,634,634,634,634,634,634,634,634,634,634,634,634,634,634,633,629,625,614,611,583,540,515,490,463,439,360,303,289,243,206,191,179,174,170,162,158,155,153,152,143,139,138,138,138,138,138,137,133,127,125,120,118,115,113,108,100,98],"timestamp_mouse":[0,21,43,61,80,99,120,140,160,180,200,219,241,261,279,301,321,340,360,380,399,420,441,461,481,501,521,540,559,581,600,621,640,659,681,700,721,741,760,781,801,820,840,861,881,901,920,939,960,979,1000,1021,1040,1060,1080,1100,1120,1140,1159,1180,1200,1220,1240,1259,1280,1301,1320,1340,1360,1380,1399,1421,1440,1460,1480,1500,1520,1540,1560,1580,1600,1620,1640,1660,1681],"xSR":741.5,"ySR":573.95,"xT1":424.9,"yT1":0,"xT2":1058.1,"yT2":0,"toosoon":0,"cond_shown":"Incongruent","ratio_trial":100,"L_num":8,"L_den":16,"R_num":6,"R_den":10,"correct_side":2,"subjID":"ALEXSANTIAGOPEREZSANCHEZ23","gender":"0","school":"4","age":"8"},{"start_time":1552308897047,"click_time":1552308898480,"finger_time":1552308897962,"fix_duration":666.6617095286829,"trial":35,"RT":915,"MT":518,"sideResp":1,"stimulus":[],"xmouse":[782,782,782,782,782,782,782,782,782,782,782,782,782,782,782,782,782,782,782,782,782,782,782,782,782,782,782,782,782,782,782,782,782,782,782,782,782,782,782,782,782,782,774,771,769,766,754,738,710,682,664,653,647,640,632,626,608,602,597,592,588,582,582,577,574,569,555,552,548,546,543,521],"ymouse":[609,609,609,609,609,609,609,609,609,609,609,609,609,609,609,609,609,609,609,609,609,609,609,609,609,609,609,609,609,609,609,609,609,609,609,609,609,609,609,609,609,603,587,582,577,571,533,488,411,326,271,231,210,190,165,143,113,103,99,94,92,87,87,85,84,84,81,81,80,80,79,71],"timestamp_mouse":[13,34,53,74,94,115,133,154,174,193,214,235,255,273,293,314,333,354,375,393,414,433,455,475,495,513,534,554,574,594,613,634,654,673,693,715,734,753,774,794,814,834,854,875,894,915,933,953,973,994,1013,1035,1055,1074,1094,1114,1134,1153,1174,1194,1214,1234,1253,1275,1294,1314,1333,1354,1375,1394,1415,1433],"xSR":741.5,"ySR":573.95,"xT1":424.9,"yT1":0,"xT2":1058.1,"yT2":0,"toosoon":0,"cond_shown":"Incongruent","ratio_trial":200,"L_num":4,"L_den":6,"R_num":14,"R_den":30,"correct_side":1,"subjID":"ALEXSANTIAGOPEREZSANCHEZ23","gender":"0","school":"4","age":"8"},{"start_time":1552308901681,"click_time":1552308907281,"finger_time":1552308904582,"fix_duration":1000.8030568073416,"trial":36,"RT":2901,"MT":2699,"sideResp":2,"stimulus":[],"xmouse":[780,780,780,780,780,780,780,780,780,780,780,780,780,780,780,780,780,780,780,780,780,780,780,780,780,780,780,780,780,780,780,780,780,780,780,780,780,780,780,780,780,780,780,780,780,780,780,780,780,780,780,780,780,780,780,780,780,780,780,780,780,780,780,780,780,780,780,780,780,780,780,780,780,780,780,780,780,780,780,780,780,780,780,780,780,780,780,780,780,780,781,781,781,781,781,781,781,781,781,781,781,781,781,781,781,781,781,781,781,781,781,781,781,781,781,781,781,781,781,781,781,781,781,781,781,781,781,781,781,781,781,781,781,781,781,781,781,781,782,782,781,777,771,765,756,738,726,714,706,699,676,665,652,642,636,636,636,636,636,636,636,636,636,636,636,636,636,636,636,636,636,637,645,658,669,696,714,723,728,730,733,737,739,742,745,750,751,751,751,751,753,753,754,756,759,779,811,864,918,957,1032,1047,1061,1073,1084,1109,1117,1121,1123,1124,1124,1124,1124,1124,1124,1124,1124,1124,1123,1123,1121,1117,1113,1111,1109,1104,1104,1104,1104,1104,1104,1104,1104,1104,1101,1091,1079,1075,1072,1072,1072,1072,1071,1071,1071,1071,1071,1072,1072,1072,1072,1072,1072,1072,1072,1072,1072,1072,1072,1072,1072,1072,1072,1072,1072,1072,1072,1072,1072,1072,1072,1072,1072,1072,1072,1072,1073,1073,1074,1075],"ymouse":[621,621,621,621,621,621,621,621,621,621,621,621,621,621,621,621,621,621,621,621,621,621,621,621,621,621,621,621,621,621,621,621,621,621,621,621,621,621,621,621,621,621,621,621,621,621,621,621,621,621,621,621,621,621,621,621,621,621,621,621,621,621,621,621,621,621,621,621,621,621,621,621,621,621,621,621,621,621,621,621,621,621,621,621,621,621,621,621,621,620,620,620,620,620,620,620,620,620,620,620,620,620,620,620,620,620,620,620,620,620,620,620,620,620,620,620,620,620,620,620,620,620,620,620,620,620,620,620,620,620,620,620,620,620,620,620,620,620,618,614,607,598,589,577,560,530,516,498,487,474,435,422,407,395,388,386,386,386,386,386,386,386,386,386,386,386,386,386,386,386,386,392,400,414,427,453,472,483,490,493,497,501,503,507,511,515,515,515,515,515,517,517,517,517,517,510,495,465,442,420,393,388,382,377,372,361,355,352,349,348,346,345,344,342,342,339,337,334,332,329,318,312,303,294,286,271,266,264,260,256,248,245,242,236,222,189,161,151,141,135,125,122,117,114,112,109,107,106,106,105,104,104,104,104,104,104,104,104,104,104,104,104,104,104,104,104,104,104,104,104,104,104,104,104,104,104,103,102,100,97],"timestamp_mouse":[21,41,60,80,100,121,141,159,180,201,221,240,259,280,301,321,341,359,380,401,420,439,459,481,500,520,539,559,580,601,620,640,660,679,701,721,740,759,781,801,820,839,861,881,900,919,940,961,980,1000,1019,1039,1061,1080,1099,1119,1141,1159,1181,1200,1219,1240,1261,1280,1300,1320,1341,1359,1380,1400,1420,1439,1459,1479,1501,1519,1540,1559,1579,1599,1620,1639,1659,1679,1700,1719,1740,1760,1780,1799,1820,1839,1861,1880,1899,1920,1940,1961,1979,2000,2020,2041,2060,2081,2099,2120,2139,2160,2180,2201,2220,2239,2261,2281,2300,2319,2340,2360,2379,2399,2420,2441,2460,2479,2500,2520,2540,2561,2581,2601,2621,2640,2659,2679,2700,2720,2740,2760,2780,2800,2820,2840,2860,2879,2901,2921,2940,2960,2979,2999,3019,3039,3060,3080,3099,3120,3140,3161,3180,3200,3220,3240,3261,3280,3300,3320,3340,3361,3380,3399,3421,3440,3459,3481,3501,3521,3539,3560,3580,3601,3620,3640,3659,3680,3701,3721,3740,3761,3780,3799,3820,3840,3860,3881,3900,3921,3939,3961,3981,4001,4019,4040,4059,4079,4100,4120,4140,4160,4181,4201,4219,4239,4260,4280,4300,4319,4340,4359,4381,4399,4421,4439,4460,4481,4500,4520,4540,4559,4581,4599,4619,4639,4659,4681,4700,4719,4740,4759,4780,4800,4819,4839,4860,4880,4900,4920,4939,4959,4979,5000,5021,5041,5060,5080,5100,5120,5140,5161,5181,5200,5220,5239,5260,5280,5300,5319,5340,5360,5381,5400,5421,5440,5460,5481,5501,5521,5541,5559,5580,5600],"xSR":741.5,"ySR":573.95,"xT1":424.9,"yT1":0,"xT2":1058.1,"yT2":0,"toosoon":0,"cond_shown":"Congruent","ratio_trial":100,"L_num":7,"L_den":14,"R_num":15,"R_den":25,"correct_side":2,"subjID":"ALEXSANTIAGOPEREZSANCHEZ23","gender":"0","school":"4","age":"8"},{"start_time":1552308911789,"click_time":1552308913741,"finger_time":1552308913281,"fix_duration":827.1978851404776,"trial":37,"RT":1492,"MT":460,"sideResp":1,"stimulus":[],"xmouse":[808,808,808,808,807,806,805,803,803,802,801,800,800,800,799,799,799,798,797,797,797,797,797,797,797,797,797,797,797,797,797,797,797,797,797,797,797,797,797,797,797,797,797,797,797,797,797,797,797,797,797,797,797,797,797,797,797,797,797,797,797,797,797,797,797,797,797,797,797,797,797,797,797,797,790,774,697,674,636,588,570,564,564,564,564,564,563,563,562,562,561,557,555,554,553,552,538,521],"ymouse":[622,622,622,622,621,621,620,619,619,619,618,617,617,617,617,617,617,616,616,616,616,616,616,616,616,616,616,616,616,616,616,616,616,616,616,616,616,616,616,616,616,616,616,616,616,616,616,616,616,616,616,616,616,616,616,616,616,616,616,616,616,616,616,616,616,616,616,616,616,616,616,616,614,599,534,428,96,30,0,0,0,0,0,0,0,0,0,0,0,0,0,1,1,2,2,2,6,10],"timestamp_mouse":[13,32,52,71,92,112,132,151,172,192,212,232,251,273,293,312,333,352,372,393,412,433,453,471,492,513,533,553,571,591,612,632,652,672,691,712,732,752,773,791,812,832,851,871,893,912,931,952,973,991,1011,1031,1053,1073,1091,1111,1131,1153,1172,1192,1211,1231,1252,1272,1292,1313,1332,1351,1371,1392,1412,1432,1451,1472,1492,1513,1533,1552,1572,1592,1611,1632,1651,1671,1691,1711,1732,1752,1773,1792,1812,1831,1851,1871,1893,1913,1931,1952],"xSR":741.5,"ySR":573.95,"xT1":424.9,"yT1":0,"xT2":1058.1,"yT2":0,"toosoon":0,"cond_shown":"Congruent","ratio_trial":100,"L_num":9,"L_den":15,"R_num":8,"R_den":16,"correct_side":1,"subjID":"ALEXSANTIAGOPEREZSANCHEZ23","gender":"0","school":"4","age":"8"},{"start_time":1552308917096,"click_time":1552308918420,"finger_time":1552308917962,"fix_duration":414.2591619394911,"trial":38,"RT":866,"MT":458,"sideResp":1,"stimulus":[],"xmouse":[794,794,794,794,794,794,794,794,794,794,794,794,794,794,794,794,794,794,794,794,794,794,794,794,794,794,794,794,794,794,794,794,794,794,794,794,794,794,794,794,794,794,794,794,793,783,739,712,691,671,661,657,656,654,651,649,636,624,598,588,565,547,539,533,530,528,520],"ymouse":[610,610,610,610,610,610,610,610,610,610,610,610,610,610,610,610,610,610,610,610,610,610,610,610,610,610,610,610,610,610,610,610,610,610,610,610,610,610,610,610,610,610,595,565,518,448,293,199,125,79,61,54,54,54,54,53,53,53,53,53,50,44,38,35,33,32,29],"timest