[{"start_time":1552313174773,"click_time":1552313176857,"finger_time":1552313176198,"fix_duration":393.6766007900453,"trial":0,"RT":1425,"MT":659,"sideResp":1,"stimulus":"img/250/equaldotsize/L/14_Ratio_250_L_12_R_3.png","xmouse":[823,823,823,823,823,823,823,823,823,823,823,823,823,823,823,823,823,823,823,823,823,823,823,823,823,823,823,823,823,823,823,823,823,823,823,823,823,823,823,823,823,823,823,823,823,823,823,823,823,823,823,823,823,823,823,823,823,823,823,823,823,823,823,823,823,823,823,823,823,823,830,847,848,836,783,757,722,692,673,673,675,696,709,715,730,735,738,741,753,776,777,771,757,718,699,678,666,656,645,620,597,584,561,539,518],"ymouse":[525,525,525,525,525,525,525,525,525,525,525,525,525,525,525,525,525,525,525,525,525,525,525,525,525,525,525,525,525,525,525,525,525,525,525,525,525,525,525,525,525,525,525,525,525,525,525,525,525,525,525,525,525,525,525,525,525,525,525,525,525,525,525,525,525,525,525,525,525,525,518,496,485,451,403,394,384,381,381,381,379,368,357,346,306,285,268,249,210,132,98,81,65,40,33,24,18,13,8,3,2,2,6,11,15],"timestamp_mouse":[5,24,45,65,85,104,124,145,165,184,204,224,245,265,284,304,324,345,364,384,404,424,444,464,484,504,525,544,565,585,605,624,645,665,684,704,724,744,764,784,804,824,845,865,884,904,924,944,965,984,1005,1025,1045,1065,1085,1104,1125,1144,1165,1184,1205,1225,1244,1264,1285,1304,1325,1345,1365,1385,1404,1425,1444,1464,1484,1504,1524,1545,1565,1584,1604,1624,1644,1665,1685,1704,1724,1744,1765,1784,1804,1824,1845,1865,1884,1904,1925,1944,1964,1984,2004,2024,2044,2065,2084],"xSR":741.5,"ySR":469.95,"xT1":424.9,"yT1":0,"xT2":1058.1,"yT2":0,"toosoon":0,"cond_shown":"equaldotsize","ratio_trial":250,"smaller_num":"3","larger_num":"12","correct_side":1,"subjID":"juandavidserrano18","gender":"0","age":"9","school":"4","test":{"fix_dur":[250,1500],"timestim":300,"targets_dim":[100,100],"targets_relative_coord":[0.3,0.7],"size_stim":[880,420],"start_dim":[100,100],"size_start":[300,300],"size_fix":60,"samplingrate":20,"img_types":["equaldotsize","equaldotanddens","randomdotsizeEA"],"ratios":[250,500,750,900],"rep_conds":9,"nTrials":120,"trials_to_rest":500,"Trials_order":[96,58,62,13,87,3,60,7,106,19,98,69,89,84,114,82,102,1,30,107,36,95,28,79,101,46,29,80,49,41,81,27,74,52,75,118,37,103,112,47,92,14,66,50,54,32,17,34,71,94,16,61,35,21,55,20,38,93,63,42,117,109,119,83,115,104,22,77,73,40,23,10,31,2,90,97,39,68,105,85,11,111,4,88,108,43,113,110,91,86,26,6,51,99,100,25,116,57,12,67,64,78,5,9,65,33,8,18,44,45,0,70,59,48,56,76,72,15,24,53],"cond_shown":["equaldotsize","equaldotanddens","randomdotsizeEA","equaldotanddens","equaldotsize","equaldotsize","equaldotsize","equaldotanddens","equaldotanddens","equaldotanddens","randomdotsizeEA","equaldotsize","randomdotsizeEA","equaldotsize","equaldotsize","equaldotanddens","equaldotsize","equaldotanddens","equaldotsize","randomdotsizeEA","equaldotsize","randomdotsizeEA","equaldotanddens","equaldotanddens","randomdotsizeEA","equaldotanddens","randomdotsizeEA","randomdotsizeEA","equaldotanddens","randomdotsizeEA","equaldotsize","equaldotsize","randomdotsizeEA","equaldotanddens","equaldotsize","equaldotanddens","equaldotanddens","equaldotanddens","equaldotanddens","randomdotsizeEA","randomdotsizeEA","randomdotsizeEA","equaldotsize","randomdotsizeEA","equaldotsize","randomdotsizeEA","randomdotsizeEA","equaldotanddens","randomdotsizeEA","equaldotanddens","equaldotanddens","equaldotanddens","randomdotsizeEA","equaldotsize","equaldotanddens","randomdotsizeEA","randomdotsizeEA","equaldotsize","equaldotsize","equaldotsize","equaldotsize","equaldotanddens","randomdotsizeEA","randomdotsizeEA","equaldotanddens","randomdotsizeEA","equaldotanddens","randomdotsizeEA","equaldotanddens","equaldotanddens","randomdotsizeEA","equaldotanddens","equaldotanddens","randomdotsizeEA","equaldotsize","equaldotanddens","equaldotsize","randomdotsizeEA","equaldotsize","equaldotanddens","randomdotsizeEA","equaldotsize","equaldotanddens","equaldotanddens","equaldotsize","equaldotanddens","randomdotsizeEA","randomdotsizeEA","equaldotanddens","randomdotsizeEA","randomdotsizeEA","equaldotsize","equaldotsize","equaldotsize","equaldotanddens","equaldotanddens","randomdotsizeEA","equaldotsize","equaldotsize","equaldotanddens","equaldotanddens","equaldotsize","randomdotsizeEA","equaldotsize","randomdotsizeEA","equaldotsize","randomdotsizeEA","equaldotsize","randomdotsizeEA","equaldotsize","equaldotsize","equaldotanddens","randomdotsizeEA","equaldotsize","randomdotsizeEA","equaldotanddens","equaldotsize","equaldotsize","equaldotsize","randomdotsizeEA"],"ratio_trial":[250,900,250,250,500,500,250,750,900,750,250,900,500,250,750,900,750,250,750,900,250,900,500,750,500,900,500,750,250,500,900,500,250,500,500,900,250,750,500,900,750,250,750,250,750,750,500,900,900,900,500,250,900,900,750,750,250,900,500,750,900,250,900,900,750,750,900,500,250,500,900,900,750,250,750,250,500,750,900,250,900,500,500,500,250,750,500,250,750,250,250,750,500,500,500,250,750,900,250,750,500,750,500,900,500,900,750,750,750,900,250,900,900,250,750,500,250,500,250,500],"smaller_num":["3","18","2","2","5","5","3","3","18","18","2","18","9","2","3","18","9","6","15","18","2","9","1","3","5","18","6","9","5","9","18","4","6","1","1","18","5","15","6","18","15","4","6","3","15","15","6","18","18","9","2","2","18","18","6","3","2","18","6","15","18","2","18","18","6","3","18","2","3","9","9","18","3","1","3","3","4","12","9","3","18","1","2","1","1","6","1","2","18","2","3","3","9","9","1","2","18","18","4","6","2","3","3","18","1","18","15","9","18","9","3","18","18","6","6","5","4","6","6","9"],"larger_num":["12","20","8","8","10","10","12","4","20","24","8","20","18","8","4","20","12","24","20","20","8","10","2","4","10","20","12","12","20","18","20","8","24","2","2","20","20","20","12","20","20","16","8","12","20","20","12","20","20","10","4","8","20","20","8","4","8","20","12","20","20","8","20","20","8","4","20","4","12","18","10","20","4","4","4","12","8","16","10","12","20","2","4","2","4","8","2","8","24","8","12","4","18","18","2","8","24","20","16","8","4","4","6","20","2","20","20","12","24","10","12","20","20","24","8","10","16","12","24","18"],"correct_side":[1,1,1,2,2,2,1,2,2,1,1,2,1,1,2,1,2,1,2,1,1,2,2,1,2,1,1,2,2,1,2,1,2,2,2,2,2,1,1,2,1,2,1,2,2,2,1,1,2,1,2,1,1,2,1,1,1,1,1,1,1,1,1,1,2,1,1,2,1,2,2,1,2,2,1,2,1,2,2,2,1,2,2,2,2,2,2,1,1,1,2,2,2,1,2,2,1,2,1,1,2,1,2,2,2,2,2,2,1,2,1,2,2,1,1,2,2,1,1,2],"img_shown":["img/250/equaldotsize/L/14_Ratio_250_L_12_R_3.png","img/900/equaldotanddens/L/2_Ratio_900_L_20_R_18.png","img/250/randomdotsizeEA/L/3_Ratio_250_L_8_R_2.png","img/250/equaldotanddens/R/13_Ratio_250_L_2_R_8.png","img/500/equaldotsize/R/14_Ratio_500_L_5_R_10.png","img/500/equaldotsize/R/14_Ratio_500_L_5_R_10.png","img/250/equaldotsize/L/14_Ratio_250_L_12_R_3.png","img/750/equaldotanddens/R/12_Ratio_750_L_3_R_4.png","img/900/equaldotanddens/R/13_Ratio_900_L_18_R_20.png","img/750/equaldotanddens/L/6_Ratio_750_L_24_R_18.png","img/250/randomdotsizeEA/L/1_Ratio_250_L_8_R_2.png","img/900/equaldotsize/R/9_Ratio_900_L_18_R_20.png","img/500/randomdotsizeEA/L/4_Ratio_500_L_18_R_9.png","img/250/equaldotsize/L/3_Ratio_250_L_8_R_2.png","img/750/equaldotsize/R/7_Ratio_750_L_3_R_4.png","img/900/equaldotanddens/L/2_Ratio_900_L_20_R_18.png","img/750/equaldotsize/R/15_Ratio_750_L_9_R_12.png","img/250/equaldotanddens/L/5_Ratio_250_L_24_R_6.png","img/750/equaldotsize/R/3_Ratio_750_L_15_R_20.png","img/900/randomdotsizeEA/L/8_Ratio_900_L_20_R_18.png","img/250/equaldotsize/L/7_Ratio_250_L_8_R_2.png","img/900/randomdotsizeEA/R/3_Ratio_900_L_9_R_10.png","img/500/equaldotanddens/R/12_Ratio_500_L_1_R_2.png","img/750/equaldotanddens/L/10_Ratio_750_L_4_R_3.png","img/500/randomdotsizeEA/R/14_Ratio_500_L_5_R_10.png","img/900/equaldotanddens/L/2_Ratio_900_L_20_R_18.png","img/500/randomdotsizeEA/L/13_Ratio_500_L_12_R_6.png","img/750/randomdotsizeEA/R/15_Ratio_750_L_9_R_12.png","img/250/equaldotanddens/R/12_Ratio_250_L_5_R_20.png","img/500/randomdotsizeEA/L/4_Ratio_500_L_18_R_9.png","img/900/equaldotsize/R/12_Ratio_900_L_18_R_20.png","img/500/equaldotsize/L/8_Ratio_500_L_8_R_4.png","img/250/randomdotsizeEA/R/6_Ratio_250_L_6_R_24.png","img/500/equaldotanddens/R/15_Ratio_500_L_1_R_2.png","img/500/equaldotsize/R/12_Ratio_500_L_1_R_2.png","img/900/equaldotanddens/R/12_Ratio_900_L_18_R_20.png","img/250/equaldotanddens/R/12_Ratio_250_L_5_R_20.png","img/750/equaldotanddens/L/1_Ratio_750_L_20_R_15.png","img/500/equaldotanddens/L/13_Ratio_500_L_12_R_6.png","img/900/randomdotsizeEA/R/11_Ratio_900_L_18_R_20.png","img/750/randomdotsizeEA/L/1_Ratio_750_L_20_R_15.png","img/250/randomdotsizeEA/R/10_Ratio_250_L_4_R_16.png","img/750/equaldotsize/L/13_Ratio_750_L_8_R_6.png","img/250/randomdotsizeEA/R/9_Ratio_250_L_3_R_12.png","img/750/equaldotsize/R/3_Ratio_750_L_15_R_20.png","img/750/randomdotsizeEA/R/4_Ratio_750_L_15_R_20.png","img/500/randomdotsizeEA/L/13_Ratio_500_L_12_R_6.png","img/900/equaldotanddens/L/10_Ratio_900_L_20_R_18.png","img/900/randomdotsizeEA/R/12_Ratio_900_L_18_R_20.png","img/900/equaldotanddens/L/1_Ratio_900_L_10_R_9.png","img/500/equaldotanddens/R/9_Ratio_500_L_2_R_4.png","img/250/equaldotanddens/L/1_Ratio_250_L_8_R_2.png","img/900/randomdotsizeEA/L/4_Ratio_900_L_20_R_18.png","img/900/equaldotsize/R/13_Ratio_900_L_18_R_20.png","img/750/equaldotanddens/L/14_Ratio_750_L_8_R_6.png","img/750/randomdotsizeEA/L/8_Ratio_750_L_4_R_3.png","img/250/randomdotsizeEA/L/3_Ratio_250_L_8_R_2.png","img/900/equaldotsize/L/2_Ratio_900_L_20_R_18.png","img/500/equaldotsize/L/11_Ratio_500_L_12_R_6.png","img/750/equaldotsize/L/1_Ratio_750_L_20_R_15.png","img/900/equaldotsize/L/10_Ratio_900_L_20_R_18.png","img/250/equaldotanddens/L/3_Ratio_250_L_8_R_2.png","img/900/randomdotsizeEA/L/2_Ratio_900_L_20_R_18.png","img/900/randomdotsizeEA/L/2_Ratio_900_L_20_R_18.png","img/750/equaldotanddens/R/2_Ratio_750_L_6_R_8.png","img/750/randomdotsizeEA/L/10_Ratio_750_L_4_R_3.png","img/900/equaldotanddens/L/10_Ratio_900_L_20_R_18.png","img/500/randomdotsizeEA/R/9_Ratio_500_L_2_R_4.png","img/250/equaldotanddens/L/14_Ratio_250_L_12_R_3.png","img/500/equaldotanddens/R/6_Ratio_500_L_9_R_18.png","img/900/randomdotsizeEA/R/6_Ratio_900_L_9_R_10.png","img/900/equaldotanddens/L/10_Ratio_900_L_20_R_18.png","img/750/equaldotanddens/R/7_Ratio_750_L_3_R_4.png","img/250/randomdotsizeEA/R/8_Ratio_250_L_1_R_4.png","img/750/equaldotsize/L/10_Ratio_750_L_4_R_3.png","img/250/equaldotanddens/R/11_Ratio_250_L_3_R_12.png","img/500/equaldotsize/L/8_Ratio_500_L_8_R_4.png","img/750/randomdotsizeEA/R/11_Ratio_750_L_12_R_16.png","img/900/equaldotsize/R/7_Ratio_900_L_9_R_10.png","img/250/equaldotanddens/R/4_Ratio_250_L_3_R_12.png","img/900/randomdotsizeEA/L/10_Ratio_900_L_20_R_18.png","img/500/equaldotsize/R/12_Ratio_500_L_1_R_2.png","img/500/equaldotanddens/R/9_Ratio_500_L_2_R_4.png","img/500/equaldotanddens/R/15_Ratio_500_L_1_R_2.png","img/250/equaldotsize/R/8_Ratio_250_L_1_R_4.png","img/750/equaldotanddens/R/2_Ratio_750_L_6_R_8.png","img/500/randomdotsizeEA/R/15_Ratio_500_L_1_R_2.png","img/250/randomdotsizeEA/L/1_Ratio_250_L_8_R_2.png","img/750/equaldotanddens/L/6_Ratio_750_L_24_R_18.png","img/250/randomdotsizeEA/L/7_Ratio_250_L_8_R_2.png","img/250/randomdotsizeEA/R/9_Ratio_250_L_3_R_12.png","img/750/equaldotsize/R/12_Ratio_750_L_3_R_4.png","img/500/equaldotsize/R/1_Ratio_500_L_9_R_18.png","img/500/equaldotsize/L/4_Ratio_500_L_18_R_9.png","img/500/equaldotanddens/R/15_Ratio_500_L_1_R_2.png","img/250/equaldotanddens/R/13_Ratio_250_L_2_R_8.png","img/750/randomdotsizeEA/L/6_Ratio_750_L_24_R_18.png","img/900/equaldotsize/R/11_Ratio_900_L_18_R_20.png","img/250/equaldotsize/L/2_Ratio_250_L_16_R_4.png","img/750/equaldotanddens/L/14_Ratio_750_L_8_R_6.png","img/500/equaldotanddens/R/9_Ratio_500_L_2_R_4.png","img/750/equaldotsize/L/10_Ratio_750_L_4_R_3.png","img/500/randomdotsizeEA/R/2_Ratio_500_L_3_R_6.png","img/900/equaldotsize/R/14_Ratio_900_L_18_R_20.png","img/500/randomdotsizeEA/R/12_Ratio_500_L_1_R_2.png","img/900/equaldotsize/R/14_Ratio_900_L_18_R_20.png","img/750/randomdotsizeEA/R/4_Ratio_750_L_15_R_20.png","img/750/equaldotsize/R/15_Ratio_750_L_9_R_12.png","img/750/randomdotsizeEA/L/6_Ratio_750_L_24_R_18.png","img/900/equaldotsize/R/5_Ratio_900_L_9_R_10.png","img/250/equaldotsize/L/15_Ratio_250_L_12_R_3.png","img/900/equaldotanddens/R/9_Ratio_900_L_18_R_20.png","img/900/randomdotsizeEA/R/11_Ratio_900_L_18_R_20.png","img/250/equaldotsize/L/5_Ratio_250_L_24_R_6.png","img/750/randomdotsizeEA/L/13_Ratio_750_L_8_R_6.png","img/500/equaldotanddens/R/14_Ratio_500_L_5_R_10.png","img/250/equaldotsize/R/10_Ratio_250_L_4_R_16.png","img/500/equaldotsize/L/11_Ratio_500_L_12_R_6.png","img/250/equaldotsize/L/5_Ratio_250_L_24_R_6.png","img/500/randomdotsizeEA/R/6_Ratio_500_L_9_R_18.png"],"Rat0":[["12_Ratio_0_L_9_R_0.png","13_Ratio_0_L_6_R_0.png","5_Ratio_0_L_2_R_0.png","6_Ratio_0_L_4_R_0.png","8_Ratio_0_L_6_R_0.png"],["1_Ratio_0_L_0_R_17.png","10_Ratio_0_L_0_R_22.png","11_Ratio_0_L_0_R_1.png","14_Ratio_0_L_0_R_24.png","15_Ratio_0_L_0_R_4.png","2_Ratio_0_L_0_R_5.png","3_Ratio_0_L_0_R_17.png","4_Ratio_0_L_0_R_7.png","7_Ratio_0_L_0_R_19.png","9_Ratio_0_L_0_R_15.png"]],"Rat250":[["1_Ratio_250_L_8_R_2.png","14_Ratio_250_L_12_R_3.png","15_Ratio_250_L_12_R_3.png","2_Ratio_250_L_16_R_4.png","3_Ratio_250_L_8_R_2.png","5_Ratio_250_L_24_R_6.png","7_Ratio_250_L_8_R_2.png"],["10_Ratio_250_L_4_R_16.png","11_Ratio_250_L_3_R_12.png","12_Ratio_250_L_5_R_20.png","13_Ratio_250_L_2_R_8.png","4_Ratio_250_L_3_R_12.png","6_Ratio_250_L_6_R_24.png","8_Ratio_250_L_1_R_4.png","9_Ratio_250_L_3_R_12.png"]],"Rat500":[["10_Ratio_500_L_4_R_2.png","11_Ratio_500_L_12_R_6.png","13_Ratio_500_L_12_R_6.png","4_Ratio_500_L_18_R_9.png","5_Ratio_500_L_4_R_2.png","7_Ratio_500_L_10_R_5.png","8_Ratio_500_L_8_R_4.png"],["1_Ratio_500_L_9_R_18.png","12_Ratio_500_L_1_R_2.png","14_Ratio_500_L_5_R_10.png","15_Ratio_500_L_1_R_2.png","2_Ratio_500_L_3_R_6.png","3_Ratio_500_L_10_R_20.png","6_Ratio_500_L_9_R_18.png","9_Ratio_500_L_2_R_4.png"]],"Rat750":[["1_Ratio_750_L_20_R_15.png","10_Ratio_750_L_4_R_3.png","13_Ratio_750_L_8_R_6.png","14_Ratio_750_L_8_R_6.png","6_Ratio_750_L_24_R_18.png","8_Ratio_750_L_4_R_3.png","9_Ratio_750_L_4_R_3.png"],["11_Ratio_750_L_12_R_16.png","12_Ratio_750_L_3_R_4.png","15_Ratio_750_L_9_R_12.png","2_Ratio_750_L_6_R_8.png","3_Ratio_750_L_15_R_20.png","4_Ratio_750_L_15_R_20.png","5_Ratio_750_L_15_R_20.png","7_Ratio_750_L_3_R_4.png"]],"Rat900":[["1_Ratio_900_L_10_R_9.png","10_Ratio_900_L_20_R_18.png","2_Ratio_900_L_20_R_18.png","4_Ratio_900_L_20_R_18.png","8_Ratio_900_L_20_R_18.png"],["11_Ratio_900_L_18_R_20.png","12_Ratio_900_L_18_R_20.png","13_Ratio_900_L_18_R_20.png","14_Ratio_900_L_18_R_20.png","15_Ratio_900_L_9_R_10.png","3_Ratio_900_L_9_R_10.png","5_Ratio_900_L_9_R_10.png","6_Ratio_900_L_9_R_10.png","7_Ratio_900_L_9_R_10.png","9_Ratio_900_L_18_R_20.png"]],"Rat1000":[["10_Ratio_1000_L_16_R_16.png","11_Ratio_1000_L_6_R_6.png","12_Ratio_1000_L_14_R_14.png","13_Ratio_1000_L_20_R_20.png","15_Ratio_1000_L_15_R_15.png","2_Ratio_1000_L_17_R_17.png","4_Ratio_1000_L_9_R_9.png","5_Ratio_1000_L_6_R_6.png","6_Ratio_1000_L_19_R_19.png","8_Ratio_1000_L_14_R_14.png","9_Ratio_1000_L_25_R_25.png"],["1_Ratio_1000_L_1_R_1.png","14_Ratio_1000_L_17_R_17.png","3_Ratio_1000_L_17_R_17.png","7_Ratio_1000_L_6_R_6.png"]]}},{"start_time":1552313179424,"click_time":1552313181038,"finger_time":1552313180339,"fix_duration":565.3719166199415,"trial":1,"RT":915,"MT":699,"sideResp":2,"stimulus":"img/900/equaldotanddens/L/2_Ratio_900_L_20_R_18.png","xmouse":[825,825,825,825,825,825,825,825,825,825,825,825,825,825,825,825,825,825,825,825,825,825,825,825,825,825,825,825,825,825,825,825,825,825,825,825,825,824,821,820,820,819,818,818,831,850,902,921,923,938,960,1015,1046,1078,1118,1125,1160,1170,1177,1181,1184,1185,1190,1193,1193,1193,1181,1174,1168,1166,1166,1167,1168,1168,1168,1168,1168,1167,1163,1160,1158],"ymouse":[524,524,524,523,523,523,523,523,523,523,523,523,523,523,523,523,523,523,523,523,523,523,523,523,523,523,523,523,523,523,523,523,523,523,523,523,523,523,523,523,523,524,524,522,509,495,463,449,449,437,421,382,365,346,323,317,287,274,265,257,247,236,209,198,190,184,173,169,163,155,144,125,116,109,103,96,82,77,71,67,64],"timestamp_mouse":[13,33,53,73,94,113,134,153,174,194,214,233,253,274,293,313,333,353,373,393,413,433,454,474,493,513,533,553,573,593,614,633,654,674,694,714,733,753,774,793,813,833,853,874,893,915,933,953,973,994,1014,1033,1053,1074,1094,1113,1133,1154,1173,1193,1214,1233,1253,1273,1293,1313,1333,1353,1373,1394,1414,1433,1454,1473,1493,1513,1533,1553,1574,1593,1614],"xSR":741.5,"ySR":469.95,"xT1":424.9,"yT1":0,"xT2":1058.1,"yT2":0,"toosoon":0,"cond_shown":"equaldotanddens","ratio_trial":900,"smaller_num":"18","larger_num":"20","correct_side":1,"subjID":"juandavidserrano18","gender":"0","age":"9","school":"4"},{"start_time":1552313183380,"click_time":1552313185278,"finger_time":1552313184397,"fix_duration":1102.5078218550068,"trial":2,"RT":1017,"MT":881,"sideResp":1,"stimulus":"img/250/randomdotsizeEA/L/3_Ratio_250_L_8_R_2.png","xmouse":[775,775,775,775,775,775,775,775,775,775,775,775,775,775,775,775,775,775,775,775,775,775,775,775,775,775,775,775,775,775,775,775,775,775,775,775,775,775,775,775,775,775,775,775,775,775,775,775,779,809,873,933,980,1022,1069,1077,1084,1086,1086,1087,1087,1087,1087,1087,1087,1087,1087,1087,1087,1078,1067,1057,1046,1029,991,956,918,903,865,815,791,769,745,721,670,629,601,586,573,561,557,552,547,538,520],"ymouse":[495,495,495,495,495,495,495,495,495,495,495,495,495,495,495,495,495,495,495,495,495,495,495,495,495,495,495,495,495,495,495,495,495,495,495,495,495,495,495,495,495,495,495,495,495,495,495,495,495,482,458,430,407,383,358,351,345,343,343,342,341,341,341,341,341,341,341,341,340,340,340,338,330,309,262,232,215,212,204,196,194,192,192,191,182,171,163,156,146,121,106,87,66,41,1],"timestamp_mouse":[17,37,57,77,97,118,137,157,178,197,217,237,258,278,297,317,338,358,377,398,418,437,457,478,498,517,538,558,578,597,617,638,658,678,698,717,738,758,778,798,817,838,857,878,897,917,938,958,977,997,1017,1039,1057,1077,1097,1118,1138,1157,1177,1197,1217,1237,1258,1277,1297,1317,1337,1358,1377,1397,1418,1437,1457,1477,1497,1518,1537,1557,1578,1597,1617,1639,1657,1678,1697,1717,1737,1758,1778,1797,1818,1837,1857,1877,1897],"xSR":741.5,"ySR":469.95,"xT1":424.9,"yT1":0,"xT2":1058.1,"yT2":0,"toosoon":0,"cond_shown":"randomdotsizeEA","ratio_trial":250,"smaller_num":"2","larger_num":"8","correct_side":1,"subjID":"juandavidserrano18","gender":"0","age":"9","school":"4"},{"start_time":1552313187793,"click_time":1552313189077,"finger_time":1552313188518,"fix_duration":1215.2502670885792,"trial":3,"RT":725,"MT":559,"sideResp":2,"stimulus":"img/250/equaldotanddens/R/13_Ratio_250_L_2_R_8.png","xmouse":[807,807,807,807,807,807,807,807,807,807,807,807,807,807,807,807,807,807,807,807,807,807,807,807,807,807,807,807,807,807,807,808,810,816,828,835,846,856,874,953,1001,1048,1072,1086,1095,1099,1102,1106,1111,1123,1131,1137,1140,1140,1140,1141,1151,1159,1167,1172,1172,1172,1172,1172,1129],"ymouse":[531,531,531,531,531,531,531,531,531,531,531,531,531,531,531,531,531,531,531,531,531,531,531,531,531,531,531,531,531,531,531,530,523,509,483,478,472,466,453,396,354,318,298,284,267,262,256,249,240,219,204,194,186,182,156,133,101,64,33,4,4,4,4,4,24],"timestamp_mouse":[4,25,45,64,84,105,125,144,164,184,205,225,245,264,285,304,325,344,364,384,405,424,445,464,485,505,524,544,564,584,605,624,644,664,684,704,725,745,765,784,804,825,844,864,884,904,924,945,964,984,1004,1024,1045,1064,1084,1104,1125,1144,1164,1184,1204,1224,1245,1264,1284],"xSR":741.5,"ySR":469.95,"xT1":424.9,"yT1":0,"xT2":1058.1,"yT2":0,"toosoon":0,"cond_shown":"equaldotanddens","ratio_trial":250,"smaller_num":"2","larger_num":"8","correct_side":2,"subjID":"juandavidserrano18","gender":"0","age":"9","school":"4"},{"start_time":1552313191639,"click_time":1552313193057,"finger_time":1552313192238,"fix_duration":1400.2408890858542,"trial":4,"RT":599,"MT":819,"sideResp":2,"stimulus":"img/500/equaldotsize/R/14_Ratio_500_L_5_R_10.png","xmouse":[788,788,788,788,788,788,788,788,788,788,788,788,788,788,788,788,788,788,788,788,788,788,788,792,795,799,803,808,822,859,899,1012,1056,1085,1101,1114,1122,1123,1126,1139,1153,1181,1192,1198,1200,1201,1201,1201,1201,1195,1190,1190,1190,1190,1181,1181,1181,1181,1181,1181,1181,1181,1181,1181,1181,1181,1181,1181,1181,1181,1107],"ymouse":[507,507,507,507,507,507,507,507,507,507,507,507,507,507,507,507,507,507,507,507,507,507,507,507,507,506,505,505,503,493,479,431,410,386,372,362,351,349,344,327,310,277,262,254,250,245,239,219,214,201,177,155,96,60,15,15,15,15,15,15,15,15,15,15,15,15,15,15,15,15,6],"timestamp_mouse":[18,39,58,79,98,118,139,158,178,199,218,239,258,278,298,318,338,358,379,398,418,439,459,479,498,518,538,558,579,599,618,640,658,678,698,719,740,758,778,798,818,839,858,879,898,918,939,959,979,999,1018,1038,1058,1078,1099,1118,1139,1158,1178,1199,1219,1238,1259,1278,1298,1319,1339,1358,1379,1398,1418],"xSR":741.5,"ySR":469.95,"xT1":424.9,"yT1":0,"xT2":1058.1,"yT2":0,"toosoon":0,"cond_shown":"equaldotsize","ratio_trial":500,"smaller_num":"5","larger_num":"10","correct_side":2,"subjID":"juandavidserrano18","gender":"0","age":"9","school":"4"},{"start_time":1552313195807,"click_time":1552313197177,"finger_time":1552313196538,"fix_duration":250,"trial":5,"RT":731,"MT":639,"sideResp":2,"stimulus":"img/500/equaldotsize/R/14_Ratio_500_L_5_R_10.png","xmouse":[812,813,814,814,814,814,814,814,814,814,814,814,814,814,814,814,814,814,814,814,814,814,814,814,814,814,814,814,814,814,814,814,814,814,814,825,865,938,1015,1113,1117,1119,1120,1120,1120,1120,1121,1127,1133,1159,1166,1170,1173,1174,1175,1175,1175,1174,1172,1164,1163,1163,1163,1163,1160,1159,1159,1158,1158],"ymouse":[551,546,542,537,531,530,529,529,529,529,529,529,529,529,529,529,529,529,529,529,529,529,529,529,529,529,529,529,529,529,529,529,529,529,529,515,476,425,384,333,328,325,324,324,324,322,319,307,293,249,234,223,214,208,195,190,186,182,180,174,168,158,145,135,123,118,111,102,86],"timestamp_mouse":[10,30,50,70,90,110,130,150,170,190,211,231,251,271,291,311,330,351,370,390,410,430,451,470,490,511,530,551,570,591,611,630,650,671,690,711,731,750,771,790,810,831,850,871,890,910,931,950,971,990,1010,1031,1050,1071,1090,1110,1130,1151,1171,1190,1210,1230,1251,1271,1290,1310,1330,1350,1370],"xSR":741.5,"ySR":469.95,"xT1":424.9,"yT1":0,"xT2":1058.1,"yT2":0,"toosoon":0,"cond_shown":"equaldotsize","ratio_trial":500,"smaller_num":"5","larger_num":"10","correct_side":2,"subjID":"juandavidserrano18","gender":"0","age":"9","school":"4"},{"start_time":1552313199213,"click_time":1552313200558,"finger_time":1552313199917,"fix_duration":714.18399679384,"trial":6,"RT":704,"MT":641,"sideResp":1,"stimulus":"img/250/equaldotsize/L/14_Ratio_250_L_12_R_3.png","xmouse":[824,824,824,824,824,824,824,824,824,824,824,824,824,824,824,824,824,824,824,824,824,824,824,824,824,824,824,824,824,824,824,824,823,823,822,819,817,816,813,795,783,772,761,752,729,712,685,651,611,581,576,576,576,576,576,576,576,576,576,576,555,554,553,552,546,538,526,510],"ymouse":[477,477,477,477,477,477,477,477,477,477,477,477,477,477,477,477,477,477,477,477,477,477,477,477,477,477,477,477,477,477,477,477,477,476,472,463,451,428,404,359,336,316,293,274,223,192,151,111,66,15,7,7,7,7,7,7,7,7,7,7,4,5,7,7,8,9,11,13],"timestamp_mouse":[6,24,44,64,84,104,124,145,165,184,204,225,244,264,285,304,324,345,364,385,405,424,445,464,484,505,524,544,565,584,604,625,644,664,685,704,724,745,764,784,804,824,844,865,885,904,924,944,965,985,1005,1025,1044,1064,1085,1104,1124,1145,1164,1184,1205,1224,1244,1265,1285,1304,1324,1345],"xSR":741.5,"ySR":469.95,"xT1":424.9,"yT1":0,"xT2":1058.1,"yT2":0,"toosoon":0,"cond_shown":"equaldotsize","ratio_trial":250,"smaller_num":"3","larger_num":"12","correct_side":1,"subjID":"juandavidserrano18","gender":"0","age":"9","school":"4"},{"start_time":1552313203618,"click_time":1552313205017,"finger_time":1552313204337,"fix_duration":278.15868591923254,"trial":7,"RT":719,"MT":680,"sideResp":2,"stimulus":"img/750/equaldotanddens/R/12_Ratio_750_L_3_R_4.png","xmouse":[819,819,818,817,815,814,814,814,814,814,814,814,814,814,814,814,814,814,814,814,814,814,814,814,814,814,814,814,814,814,814,814,814,812,815,833,854,870,881,893,916,933,953,976,992,1021,1027,1030,1031,1031,1031,1032,1032,1036,1043,1047,1049,1049,1049,1049,1049,1049,1049,1049,1049,1049,1049,1049,1052,1055,1076],"ymouse":[528,528,528,528,528,528,528,528,528,528,528,528,528,528,528,528,528,528,528,528,528,528,528,528,528,528,528,528,528,528,528,528,528,528,521,494,461,418,377,334,270,243,217,191,169,131,123,119,118,118,118,116,116,115,112,110,110,110,110,110,110,110,110,110,110,110,110,110,109,107,98],"timestamp_mouse":[0,19,40,60,79,99,119,139,159,179,200,219,239,259,279,299,319,339,359,379,400,420,439,459,480,499,520,539,559,580,599,619,640,659,680,700,719,739,760,780,799,819,840,860,879,899,919,939,959,979,999,1019,1040,1059,1080,1099,1119,1140,1159,1179,1199,1219,1239,1259,1279,1299,1319,1341,1360,1379,1399],"xSR":741.5,"ySR":469.95,"xT1":424.9,"yT1":0,"xT2":1058.1,"yT2":0,"toosoon":0,"cond_shown":"equaldotanddens","ratio_trial":750,"smaller_num":"3","larger_num":"4","correct_side":2,"subjID":"juandavidserrano18","gender":"0","age":"9","school":"4"},{"start_time":1552313206709,"click_time":1552313207837,"finger_time":1552313207417,"fix_duration":250,"trial":8,"RT":708,"MT":420,"sideResp":2,"stimulus":"img/900/equaldotanddens/R/13_Ratio_900_L_18_R_20.png","xmouse":[793,793,793,793,793,793,793,793,793,793,793,793,793,793,793,793,793,793,793,793,793,793,793,793,793,793,793,793,793,793,793,793,796,805,822,858,875,893,907,921,950,961,969,977,986,1005,1011,1018,1024,1032,1051,1060,1067,1072,1075,1079,1082],"ymouse":[531,531,531,531,531,531,531,531,531,531,531,531,531,531,531,531,531,531,531,531,531,531,531,531,531,531,531,531,531,531,531,531,528,515,500,469,451,430,412,394,356,341,329,313,298,267,253,238,225,210,157,140,125,114,108,101,98],"timestamp_mouse":[9,28,48,68,89,108,129,149,168,188,208,229,249,268,288,309,329,349,369,388,409,429,448,469,488,508,528,549,569,588,608,629,648,668,688,708,728,748,768,789,808,829,849,869,889,909,928,948,968,988,1009,1029,1048,1068,1089,1109,1128],"xSR":741.5,"ySR":469.95,"xT1":424.9,"yT1":0,"xT2":1058.1,"yT2":0,"toosoon":0,"cond_shown":"equaldotanddens","ratio_trial":900,"smaller_num":"18","larger_num":"20","correct_side":2,"subjID":"juandavidserrano18","gender":"0","age":"9","school":"4"},{"start_time":1552313209802,"click_time":1552313211137,"finger_time":1552313210478,"fix_duration":982.6388127397205,"trial":9,"RT":676,"MT":659,"sideResp":1,"stimulus":"img/750/equaldotanddens/L/6_Ratio_750_L_24_R_18.png","xmouse":[818,818,818,818,818,818,818,818,818,818,818,818,818,818,818,818,818,818,818,818,818,818,818,818,818,818,818,818,818,818,818,818,815,810,807,804,797,785,767,753,734,723,706,696,692,687,684,680,674,664,640,625,608,587,569,548,514,503,501,501,501,501,501,501,501,501,504],"ymouse":[488,488,488,488,488,488,488,488,488,488,488,488,488,488,488,488,488,488,488,488,488,488,488,488,488,488,488,488,488,488,488,488,475,457,441,423,400,380,350,324,284,260,233,223,218,213,211,209,205,200,190,182,172,157,148,138,121,113,111,110,109,109,109,109,109,107,91],"timestamp_mouse":[15,35,56,75,96,115,136,155,176,195,216,236,256,275,295,315,335,355,375,396,415,435,456,476,496,516,536,555,575,595,615,636,655,676,695,715,735,755,776,795,816,835,855,875,895,916,935,956,975,996,1016,1036,1055,1075,1095,1116,1135,1156,1176,1195,1215,1235,1255,1276,1295,1316,1335],"xSR":741.5,"ySR":469.95,"xT1":424.9,"yT1":0,"xT2":1058.1,"yT2":0,"toosoon":0,"cond_shown":"equaldotanddens","ratio_trial":750,"smaller_num":"18","larger_num":"24","correct_side":1,"subjID":"juandavidserrano18","gender":"0","age":"9","school":"4"},{"start_time":1552313214682,"click_time":1552313215697,"finger_time":1552313215237,"fix_duration":1403.743437665224,"trial":10,"RT":555,"MT":460,"sideResp":2,"stimulus":"img/250/randomdotsizeEA/L/1_Ratio_250_L_8_R_2.png","xmouse":[787,787,787,787,787,787,787,787,787,787,787,787,787,787,787,787,787,787,787,787,787,787,787,787,787,787,787,784,781,781,783,783,769,756,744,737,734,734,734,734,734,734,734,740,762,799,847,907,1015,1070,1114],"ymouse":[501,501,501,501,501,501,501,501,501,501,501,501,501,501,501,501,501,501,501,501,501,501,501,501,498,495,487,469,432,402,355,313,252,231,218,213,212,212,212,212,212,212,212,212,209,203,193,175,125,107,93],"timestamp_mouse":[16,36,57,76,96,116,135,155,176,195,216,236,255,275,296,315,335,356,375,395,415,435,455,476,495,515,536,555,575,596,616,635,656,675,695,717,737,756,776,796,815,835,855,876,895,917,935,955,975,997,1015],"xSR":741.5,"ySR":469.95,"xT1":424.9,"yT1":0,"xT2":1058.1,"yT2":0,"toosoon":0,"cond_shown":"randomdotsizeEA","ratio_trial":250,"smaller_num":"2","larger_num":"8","correct_side":1,"subjID":"juandavidserrano18","gender":"0","age":"9","school":"4"},{"start_time":1552313217650,"click_time":1552313219218,"finger_time":1552313218778,"fix_duration":250,"trial":11,"RT":1128,"MT":440,"sideResp":1,"stimulus":"img/900/equaldotsize/R/9_Ratio_900_L_18_R_20.png","xmouse":[794,793,793,793,793,792,792,792,792,792,792,792,792,792,792,792,792,792,792,792,792,792,792,792,792,792,792,792,792,792,795,798,802,805,805,806,806,806,806,806,806,806,806,806,806,806,806,806,806,806,806,806,806,806,806,805,778,746,738,726,715,699,674,645,592,467,431,411,409,409,403,397,395,395,395,404,414,424,438],"ymouse":[543,542,541,540,540,538,538,538,538,538,538,538,538,538,538,538,538,538,538,538,538,538,538,538,538,538,538,538,538,537,534,529,524,520,519,519,519,519,519,519,519,519,519,519,519,519,519,519,519,519,519,519,519,519,519,506,451,339,290,232,216,205,196,188,178,160,155,153,152,152,147,141,136,131,123,104,95,86,74],"timestamp_mouse":[11,28,49,67,88,108,127,148,169,187,208,227,247,268,287,308,327,348,368,389,407,428,447,468,487,507,527,547,567,587,608,627,647,669,689,709,727,747,768,788,807,828,848,868,887,907,927,947,967,988,1007,1027,1049,1068,1088,1107,1128,1147,1168,1189,1207,1227,1249,1267,1288,1307,1327,1347,1367,1387,1407,1427,1448,1468,1488,1508,1528,1548,1568],"xSR":741.5,"ySR":469.95,"xT1":424.9,"yT1":0,"xT2":1058.1,"yT2":0,"toosoon":0,"cond_shown":"equaldotsize","ratio_trial":900,"smaller_num":"18","larger_num":"20","correct_side":2,"subjID":"juandavidserrano18","gender":"0","age":"9","school":"4"},{"start_time":1552313222121,"click_time":1552313223717,"finger_time":1552313222838,"fix_duration":960.9153774817554,"trial":12,"RT":717,"MT":879,"sideResp":1,"stimulus":"img/500/randomdotsizeEA/L/4_Ratio_500_L_18_R_9.png","xmouse":[755,755,755,755,755,755,755,755,755,755,755,755,755,755,755,755,755,755,755,755,755,755,755,755,755,755,755,755,755,755,755,755,755,762,771,803,884,912,927,941,952,961,963,964,965,965,965,965,966,967,969,971,971,971,971,971,944,930,925,924,922,890,870,847,828,804,756,734,718,685,677,632,617,603,588,575,566,545,531,518],"ymouse":[513,513,513,513,513,513,513,513,513,513,513,513,513,513,513,513,513,513,513,513,513,513,513,513,513,513,513,513,513,513,513,513,513,504,491,451,364,336,319,300,283,244,233,225,223,222,221,220,218,215,211,209,209,209,209,208,208,208,207,207,205,190,181,173,165,155,139,132,130,126,125,117,114,110,107,104,102,97,94,90],"timestamp_mouse":[17,37,56,77,97,117,136,157,176,197,216,236,256,277,298,317,337,356,376,396,417,436,456,476,498,517,536,556,576,598,616,638,656,676,696,717,737,756,776,797,818,837,856,876,896,916,938,957,976,996,1016,1036,1057,1076,1098,1118,1136,1156,1177,1196,1217,1236,1256,1276,1296,1316,1336,1356,1377,1396,1417,1436,1458,1477,1498,1518,1537,1556,1577,1596],"xSR":741.5,"ySR":469.95,"xT1":424.9,"yT1":0,"xT2":1058.1,"yT2":0,"toosoon":0,"cond_shown":"randomdotsizeEA","ratio_trial":500,"smaller_num":"9","larger_num":"18","correct_side":1,"subjID":"juandavidserrano18","gender":"0","age":"9","school":"4"},{"start_time":1552313226023,"click_time":1552313227439,"finger_time":1552313226838,"fix_duration":644.294641655418,"trial":13,"RT":815,"MT":601,"sideResp":1,"stimulus":"img/250/equaldotsize/L/3_Ratio_250_L_8_R_2.png","xmouse":[790,790,790,790,790,790,790,790,790,790,790,790,790,790,790,790,790,790,790,790,790,790,790,790,790,790,790,790,790,790,790,790,789,789,789,789,786,779,771,766,760,725,695,666,645,638,633,630,627,624,620,617,614,613,611,601,584,579,574,569,563,558,550,549,548,545,536,530,523,515,510],"ymouse":[501,501,501,501,501,501,501,501,501,501,501,501,501,501,501,501,501,501,501,501,501,501,501,501,501,501,501,501,501,501,501,501,502,502,502,502,502,495,482,470,449,398,363,336,311,302,292,282,276,271,266,262,252,243,231,211,188,182,176,171,165,160,152,150,149,144,131,124,113,103,94],"timestamp_mouse":[15,35,55,75,96,116,134,154,174,196,215,234,255,275,294,315,334,354,375,396,416,434,454,475,495,516,534,555,574,595,615,636,654,674,695,715,735,755,774,794,815,835,855,874,894,915,936,955,975,994,1015,1035,1054,1074,1094,1115,1136,1154,1176,1194,1215,1234,1254,1276,1294,1315,1335,1354,1374,1396,1416],"xSR":741.5,"ySR":469.95,"xT1":424.9,"yT1":0,"xT2":1058.1,"yT2":0,"toosoon":0,"cond_shown":"equaldotsize","ratio_trial":250,"smaller_num":"2","larger_num":"8","correct_side":1,"subjID":"juandavidserrano18","gender":"0","age":"9","school":"4"},{"start_time":1552313229040,"click_time":1552313230677,"finger_time":1552313229778,"fix_duration":822.5446807352973,"trial":14,"RT":738,"MT":899,"sideResp":2,"stimulus":"img/750/equaldotsize/R/7_Ratio_750_L_3_R_4.png","xmouse":[790,790,790,790,790,790,790,790,790,790,790,790,790,790,790,790,790,790,790,790,790,790,790,790,790,790,790,790,790,790,790,793,800,806,815,826,847,866,886,908,927,951,970,981,991,1001,1014,1019,1027,1034,1038,1041,1041,1041,1041,1041,1045,1050,1058,1070,1079,1097,1104,1110,1113,1115,1116,1116,1116,1117,1117,1117,1117,1117,1117,1117,1117,1117,1117,1117,1118,1123],"ymouse":[547,547,547,547,547,547,547,547,547,547,547,547,547,547,547,547,547,547,547,547,547,547,547,547,547,547,547,547,547,547,547,539,524,511,497,481,455,440,427,412,397,368,339,319,299,277,232,212,184,162,147,137,137,137,137,137,136,136,133,129,125,116,112,110,108,106,105,104,103,102,101,101,101,101,101,101,101,101,101,101,100,96],"timestamp_mouse":[18,37,57,78,97,118,138,158,178,197,219,237,257,279,299,318,338,357,377,398,418,438,459,477,497,517,537,557,578,598,618,637,658,677,698,717,738,757,779,798,817,837,857,877,897,917,938,957,979,997,1017,1037,1057,1077,1097,1117,1137,1157,1178,1198,1218,1237,1257,1277,1298,1319,1337,1358,1377,1399,1419,1438,1458,1478,1497,1517,1538,1557,1578,1598,1618,1637],"xSR":741.5,"ySR":469.95,"xT1":424.9,"yT1":0,"xT2":1058.1,"yT2":0,"toosoon":0,"cond_shown":"equaldotsize","ratio_trial":750,"smaller_num":"3","larger_num":"4","correct_side":2,"subjID":"juandavidserrano18","gender":"0","age":"9","school":"4"},{"start_time":1552313232027,"click_time":1552313233278,"finger_time":1552313232797,"fix_duration":250,"trial":15,"RT":770,"MT":481,"sideResp":2,"stimulus":"img/900/equaldotanddens/L/2_Ratio_900_L_20_R_18.png","xmouse":[783,783,783,783,783,783,783,783,783,783,783,783,783,783,783,783,783,783,783,783,783,783,783,783,783,783,783,783,783,783,783,783,783,783,783,783,789,795,820,831,853,859,886,898,913,928,944,972,987,1001,1016,1036,1058,1069,1077,1087,1099,1116,1124,1130,1136,1138,1145],"ymouse":[525,525,525,525,525,525,525,525,525,525,525,525,525,525,525,525,525,525,525,525,525,525,525,525,525,525,525,525,525,525,525,525,525,525,525,525,514,505,462,442,412,404,363,349,332,318,306,279,266,253,240,223,205,197,190,181,172,150,137,126,115,107,87],"timestamp_mouse":[11,30,50,71,92,110,131,150,171,190,210,231,250,272,291,311,330,351,371,390,411,430,450,470,491,512,531,551,570,591,611,630,651,670,690,711,731,750,770,791,810,830,850,871,891,911,930,950,970,992,1012,1031,1051,1070,1091,1110,1130,1151,1170,1190,1210,1230,1250],"xSR":741.5,"ySR":469.95,"xT1":424.9,"yT1":0,"xT2":1058.1,"yT2":0,"toosoon":0,"cond_shown":"equaldotanddens","ratio_trial":900,"smaller_num":"18","larger_num":"20","correct_side":1,"subjID":"juandavidserrano18","gender":"0","age":"9","school":"4"},{"start_time":1552313235559,"click_time":1552313236718,"finger_time":1552313236218,"fix_duration":1358.6830423502824,"trial":16,"RT":659,"MT":500,"sideResp":2,"stimulus":"img/750/equaldotsize/R/15_Ratio_750_L_9_R_12.png","xmouse":[802,802,802,802,802,802,802,803,804,804,805,806,806,806,806,806,806,806,806,806,806,806,806,806,806,806,806,806,806,806,806,811,829,835,856,886,900,911,921,932,955,964,973,993,1005,1020,1027,1033,1042,1052,1069,1075,1082,1084,1086,1087,1095,1102],"ymouse":[503,503,503,503,503,503,503,503,502,501,500,499,499,499,499,499,499,499,499,499,499,499,499,499,499,499,499,499,499,499,499,491,468,462,444,414,397,384,369,355,324,314,304,284,272,247,236,225,213,201,168,153,136,130,125,120,107,96],"timestamp_mouse":[18,38,58,78,100,119,139,160,178,200,219,239,258,279,299,319,339,359,379,398,418,439,459,479,500,519,539,559,578,599,619,639,659,680,698,719,739,758,779,798,820,838,858,879,898,919,938,958,979,1000,1019,1039,1058,1078,1098,1120,1140,1158],"xSR":741.5,"ySR":469.95,"xT1":424.9,"yT1":0,"xT2":1058.1,"yT2":0,"toosoon":0,"cond_shown":"equaldotsize","ratio_trial":750,"smaller_num":"9","larger_num":"12","correct_side":2,"subjID":"juandavidserrano18","gender":"0","age":"9","school":"4"},{"start_time":1552313239002,"click_time":1552313239957,"finger_time":1552313239637,"fix_duration":1303.1839902055635,"trial":17,"RT":635,"MT":320,"sideResp":1,"stimulus":"img/250/equaldotanddens/L/5_Ratio_250_L_24_R_6.png","xmouse":[838,838,838,838,838,838,838,838,838,838,838,838,838,838,838,838,838,838,838,838,838,838,838,838,838,838,838,838,838,833,826,818,807,795,752,736,721,718,703,648,620,590,568,557,546,534,528,523],"ymouse":[506,506,506,506,506,506,506,506,506,506,506,506,506,506,506,506,506,506,506,506,506,506,506,506,506,506,506,506,506,497,482,461,440,423,374,349,327,323,302,234,207,180,155,131,111,78,66,58],"timestamp_mouse":[15,36,55,75,95,116,135,156,175,195,215,235,257,276,295,315,336,356,375,395,415,437,456,476,495,515,536,555,576,597,615,635,656,676,695,715,735,756,775,795,816,835,855,876,895,916,936,955],"xSR":741.5,"ySR":469.95,"xT1":424.9,"yT1":0,"xT2":1058.1,"yT2":0,"toosoon":0,"cond_shown":"equaldotanddens","ratio_trial":250,"smaller_num":"6","larger_num":"24","correct_side":1,"subjID":"juandavidserrano18","gender":"0","age":"9","school":"4"},{"start_time":1552313244707,"click_time":1552313245658,"finger_time":1552313245278,"fix_duration":1408.0955007926095,"trial":18,"RT":571,"MT":380,"sideResp":2,"stimulus":"img/750/equaldotsize/R/3_Ratio_750_L_15_R_20.png","xmouse":[786,786,786,786,786,786,786,786,786,786,786,786,786,786,786,786,786,786,786,786,786,786,786,786,786,786,788,789,791,796,811,820,826,831,840,852,866,886,901,913,922,928,939,961,1018,1038,1057,1070],"ymouse":[490,490,490,490,490,490,490,490,490,490,490,490,490,490,490,490,490,490,490,490,490,490,490,490,490,490,489,481,468,451,418,396,386,375,353,337,319,295,273,254,236,228,217,198,157,137,117,98],"timestamp_mouse":[10,31,52,70,91,110,131,151,171,191,211,231,252,270,290,311,330,350,371,391,411,431,451,471,490,512,530,552,571,591,611,632,652,672,691,710,730,751,770,792,811,830,850,871,892,910,930,951],"xSR":741.5,"ySR":469.95,"xT1":424.9,"yT1":0,"xT2":1058.1,"yT2":0,"toosoon":0,"cond_shown":"equaldotsize","ratio_trial":750,"smaller_num":"15","larger_num":"20","correct_side":2,"subjID":"juandavidserrano18","gender":"0","age":"9","school":"4"},{"start_time":1552313248006,"click_time":1552313249598,"finger_time":1552313248717,"fix_duration":1408.7581995423038,"trial":19,"RT":711,"MT":881,"sideResp":2,"stimulus":"img/900/randomdotsizeEA/L/8_Ratio_900_L_20_R_18.png","xmouse":[776,776,776,776,776,776,776,776,776,776,776,776,776,776,776,776,776,776,776,776,777,777,777,777,777,777,777,777,777,777,777,777,778,779,780,782,796,806,815,823,844,851,857,862,865,866,866,866,866,866,861,842,836,834,820,777,753,733,715,702,699,698,698,702,722,821,846,871,895,922,965,983,993,994,997,1005,1015,1029,1045,1064],"ymouse":[505,505,505,505,505,505,505,505,505,505,505,505,505,505,505,505,505,505,505,505,505,505,505,505,505,505,505,505,502,500,488,483,480,475,474,468,447,434,418,405,377,367,361,356,354,353,353,353,353,353,353,353,353,352,347,336,331,324,317,312,310,309,309,308,306,289,279,267,255,237,205,192,182,176,172,153,139,122,105,91],"timestamp_mouse":[14,31,52,72,92,113,133,152,172,191,211,233,253,271,291,312,333,352,372,391,412,432,451,473,491,511,532,551,571,593,611,633,652,671,691,711,732,751,772,793,812,833,852,871,891,911,931,951,971,991,1012,1031,1052,1071,1091,1111,1133,1152,1171,1193,1212,1232,1251,1271,1292,1311,1332,1352,1372,1393,1411,1431,1452,1472,1491,1511,1531,1553,1571,1592],"xSR":741.5,"ySR":469.95,"xT1":424.9,"yT1":0,"xT2":1058.1,"yT2":0,"toosoon":0,"cond_shown":"randomdotsizeEA","ratio_trial":900,"smaller_num":"18","larger_num":"20","correct_side":1,"subjID":"juandavidserrano18","gender":"0","age":"9","school":"4"},{"start_time":1552313253049,"click_time":1552313254737,"finger_time":1552313253959,"fix_duration":1109.1220937339608,"trial":20,"RT":910,"MT":778,"sideResp":1,"stimulus":"img/250/equaldotsize/L/7_Ratio_250_L_8_R_2.png","xmouse":[800,800,800,800,800,800,800,800,800,800,800,800,800,800,800,800,800,800,800,800,800,800,800,800,800,800,800,800,800,800,800,800,800,800,800,800,800,800,800,800,800,794,789,783,770,759,749,739,729,698,678,646,631,615,584,573,568,564,559,549,539,537,536,536,536,536,536,536,535,531,525,519,512,509,506,506,506,506,505,505,505,505,504,504,503],"ymouse":[518,518,518,518,518,518,518,518,518,518,518,518,518,518,518,518,518,518,518,518,518,518,518,518,518,518,518,518,518,518,518,518,518,518,518,518,518,518,518,516,512,501,492,485,470,451,429,404,377,321,295,258,238,219,193,181,176,171,167,154,144,139,138,137,137,137,137,137,135,132,127,124,120,117,115,115,115,114,113,112,109,107,103,101,98],"timestamp_mouse":[9,30,49,68,88,109,129,149,170,189,209,228,248,268,288,310,328,348,368,389,408,430,448,468,488,509,529,550,569,588,609,630,649,668,689,709,729,750,770,788,808,830,848,870,889,910,929,950,969,988,1009,1028,1050,1070,1090,1109,1128,1149,1168,1188,1209,1228,1249,1270,1289,1310,1329,1349,1368,1389,1409,1430,1449,1468,1488,1508,1528,1549,1569,1588,1608,1629,1649,1669,1688],"xSR":741.5,"ySR":469.95,"xT1":424.9,"yT1":0,"xT2":1058.1,"yT2":0,"toosoon":0,"cond_shown":"equaldotsize","ratio_trial":250,"smaller_num":"2","larger_num":"8","correct_side":1,"subjID":"juandavidserrano18","gender":"0","age":"9","school":"4"},{"start_time":1552313256240,"click_time":1552313257519,"finger_time":1552313257157,"fix_duration":261.33969686927463,"trial":21,"RT":917,"MT":362,"sideResp":1,"stimulus":"img/900/randomdotsizeEA/R/3_Ratio_900_L_9_R_10.png","xmouse":[761,761,761,761,761,761,761,761,761,761,761,761,761,761,761,761,761,761,761,761,761,761,761,761,761,761,761,761,761,761,761,761,761,761,761,761,761,761,761,761,761,761,761,761,757,740,716,701,689,652,635,616,600,587,576,568,560,545,529,512,511,509,509,508],"ymouse":[530,530,530,530,530,530,530,530,530,530,530,530,530,530,530,530,530,530,530,530,530,530,530,530,530,530,530,530,530,530,530,530,530,530,530,530,530,530,530,530,530,530,530,530,520,495,452,408,369,248,215,193,180,172,166,162,155,146,136,121,117,111,105,99],"timestamp_mouse":[19,37,58,77,98,118,137,157,178,197,219,237,258,277,299,319,337,358,379,398,418,438,458,477,497,517,537,557,577,597,617,638,657,678,698,717,737,757,777,797,819,837,858,877,897,917,938,958,978,997,1017,1038,1057,1078,1098,1117,1137,1157,1178,1197,1217,1237,1258,1279],"xSR":741.5,"ySR":469.95,"xT1":424.9,"yT1":0,"xT2":1058.1,"yT2":0,"toosoon":0,"cond_shown":"randomdotsizeEA","ratio_trial":900,"smaller_num":"9","larger_num":"10","correct_side":2,"subjID":"juandavidserrano18","gender":"0","age":"9","school":"4"},{"start_time":1552313258983,"click_time":1552313260338,"finger_time":1552313259737,"fix_duration":445.78329317812495,"trial":22,"RT":754,"MT":601,"sideResp":2,"stimulus":"img/500/equaldotanddens/R/12_Ratio_500_L_1_R_2.png","xmouse":[802,802,802,802,802,802,802,802,802,802,802,802,802,802,802,802,802,802,802,802,802,802,802,802,802,802,802,802,802,802,802,802,802,802,801,805,820,930,1012,1089,1156,1205,1222,1244,1255,1265,1278,1298,1301,1301,1297,1289,1254,1237,1218,1202,1193,1189,1189,1189,1188,1183,1180,1178,1175,1168,1159,1142],"ymouse":[523,523,523,523,523,523,523,523,523,523,523,523,523,523,523,523,523,523,523,523,523,523,523,523,523,523,523,523,523,523,523,523,523,523,517,512,492,418,376,333,293,258,244,223,212,197,179,137,116,96,79,66,52,50,47,46,46,46,46,46,46,46,46,46,46,46,46,48],"timestamp_mouse":[14,34,54,75,95,114,134,154,175,196,214,234,254,275,294,315,334,354,376,395,414,435,455,475,495,514,534,554,575,595,614,634,654,675,694,718,736,754,776,795,814,835,854,874,895,915,934,955,974,994,1014,1034,1055,1075,1094,1115,1134,1156,1176,1195,1214,1235,1256,1275,1295,1314,1334,1355],"xSR":741.5,"ySR":469.95,"xT1":424.9,"yT1":0,"xT2":1058.1,"yT2":0,"toosoon":0,"cond_shown":"equaldotanddens","ratio_trial":500,"smaller_num":"1","larger_num":"2","correct_side":2,"subjID":"juandavidserrano18","gender":"0","age":"9","school":"4"},{"start_time":1552313262661,"click_time":1552313263998,"finger_time":1552313263399,"fix_duration":1022.6931818887064,"trial":23,"RT":738,"MT":599,"sideResp":1,"stimulus":"img/750/equaldotanddens/L/10_Ratio_750_L_4_R_3.png","xmouse":[811,811,811,811,811,811,811,811,811,811,811,811,811,811,811,811,811,811,811,811,811,811,811,811,811,811,811,811,811,811,811,810,810,810,810,814,819,827,835,857,866,873,876,877,877,877,877,877,877,855,820,773,721,668,599,571,557,546,543,537,536,534,531,528,525,525,524],"ymouse":[501,501,501,501,501,501,501,501,501,501,501,501,501,501,501,501,501,501,501,501,501,501,501,501,501,501,501,501,501,501,500,498,498,498,491,482,468,451,432,391,376,364,357,355,355,355,355,355,354,347,332,307,270,229,153,113,94,80,73,64,60,55,51,46,46,46,46],"timestamp_mouse":[16,36,58,76,97,116,136,157,177,198,216,236,257,276,296,317,336,357,376,396,416,436,456,478,498,516,537,557,578,596,616,637,657,676,696,716,738,757,776,796,816,837,856,877,898,916,936,956,976,996,1017,1038,1056,1077,1096,1116,1137,1157,1177,1197,1217,1238,1256,1276,1296,1316,1337],"xSR":741.5,"ySR":469.95,"xT1":424.9,"yT1":0,"xT2":1058.1,"yT2":0,"toosoon":0,"cond_shown":"equaldotanddens","ratio_trial":750,"smaller_num":"3","larger_num":"4","correct_side":1,"subjID":"juandavidserrano18","gender":"0","age":"9","school":"4"},{"start_time":1552313266466,"click_time":1552313267417,"finger_time":1552313267197,"fix_duration":988.4208958919965,"trial":24,"RT":731,"MT":220,"sideResp":2,"stimulus":"img/500/randomdotsizeEA/R/14_Ratio_500_L_5_R_10.png","xmouse":[809,809,809,809,809,809,809,809,809,809,809,809,809,809,809,809,809,809,809,809,809,809,809,809,809,809,809,809,809,809,809,809,809,809,809,815,835,872,910,983,1012,1037,1054,1062,1069,1070,1073,1077],"ymouse":[499,499,499,499,499,499,499,499,499,499,499,499,499,499,499,499,499,499,499,499,499,499,499,499,499,499,499,499,499,499,499,499,499,499,499,491,462,425,392,320,285,258,234,216,162,139,117,99],"timestamp_mouse":[11,31,52,73,91,112,132,151,172,192,212,231,252,271,293,311,331,352,372,391,413,431,452,471,493,511,532,552,572,592,612,632,652,673,691,711,731,753,773,792,811,832,851,871,891,913,933,951],"xSR":741.5,"ySR":469.95,"xT1":424.9,"yT1":0,"xT2":1058.1,"yT2":0,"toosoon":0,"cond_shown":"randomdotsizeEA","ratio_trial":500,"smaller_num":"5","larger_num":"10","correct_side":2,"subjID":"juandavidserrano18","gender":"0","age":"9","school":"4"},{"start_time":1552313269632,"click_time":1552313270878,"finger_time":1552313270317,"fix_duration":1313.2535038295068,"trial":25,"RT":685,"MT":561,"sideResp":2,"stimulus":"img/900/equaldotanddens/L/2_Ratio_900_L_20_R_18.png","xmouse":[794,794,794,794,794,794,794,794,794,794,794,794,794,794,794,794,794,794,794,794,794,794,794,794,794,794,794,794,794,794,794,794,795,799,809,830,848,879,898,917,939,958,987,999,1001,1005,1007,1007,1009,1010,1013,1016,1019,1028,1048,1063,1085,1092,1097,1100,1102,1104,1112],"ymouse":[479,479,479,479,479,479,479,479,479,479,479,479,479,479,479,479,479,479,479,479,479,479,479,479,479,479,479,479,479,479,479,479,478,474,464,445,430,393,370,351,331,311,281,267,265,259,257,256,253,249,243,235,229,217,191,171,140,128,118,112,108,101,87],"timestamp_mouse":[6,25,46,66,87,106,126,146,165,186,205,225,246,266,287,305,326,347,366,386,407,427,446,465,486,507,525,546,566,585,605,625,645,665,685,707,725,746,766,785,806,826,845,866,886,906,926,946,965,987,1006,1027,1047,1066,1086,1107,1127,1146,1165,1186,1205,1227,1246],"xSR":741.5,"ySR":469.95,"xT1":424.9,"yT1":0,"xT2":1058.1,"yT2":0,"toosoon":0,"cond_shown":"equaldotanddens","ratio_trial":900,"smaller_num":"18","larger_num":"20","correct_side":1,"subjID":"juandavidserrano18","gender":"0","age":"9","school":"4"},{"start_time":1552313272620,"click_time":1552313275219,"finger_time":1552313273638,"fix_duration":742.8206584910333,"trial":26,"RT":1018,"MT":1581,"sideResp":1,"stimulus":"img/500/randomdotsizeEA/L/13_Ratio_500_L_12_R_6.png","xmouse":[773,773,773,773,773,773,773,773,773,773,773,773,773,773,773,773,773,773,773,773,773,773,773,773,773,773,773,773,773,773,773,773,773,773,773,773,773,773,773,773,773,773,773,773,773,773,773,773,772,769,760,750,725,714,704,695,691,686,685,683,683,681,672,664,658,651,643,633,632,632,632,632,632,640,657,682,699,726,738,745,752,758,765,767,771,785,809,859,864,865,865,863,786,755,732,713,694,661,650,642,633,626,614,587,578,567,556,536,524,515,507,503,502,502,502,506,516,534,538,539,539,539,539,539,539,538,536,530,527,524],"ymouse":[483,483,483,483,483,483,483,483,483,483,483,483,483,483,483,483,483,483,483,483,483,483,483,483,483,483,483,483,483,483,483,483,483,483,483,483,483,483,483,483,483,483,483,483,483,483,483,483,480,472,455,436,392,379,367,358,353,349,348,347,345,343,332,322,311,299,289,275,273,273,273,273,272,270,268,265,261,254,251,248,243,240,237,236,235,231,224,208,205,205,205,205,205,206,209,210,210,209,205,202,198,195,190,179,175,170,167,160,154,149,145,141,135,134,133,127,119,100,96,92,91,90,89,89,88,88,88,88,88,88],"timestamp_mouse":[17,38,57,77,98,119,137,157,177,197,218,238,258,278,298,319,338,358,379,398,417,438,458,477,497,518,538,557,578,599,617,638,658,677,698,719,738,757,777,798,817,838,858,877,898,918,937,959,978,998,1018,1038,1057,1077,1097,1118,1138,1157,1177,1197,1219,1238,1257,1278,1297,1318,1337,1358,1378,1398,1417,1437,1457,1477,1497,1517,1538,1557,1577,1599,1617,1638,1657,1678,1698,1718,1739,1757,1778,1798,1817,1838,1857,1877,1898,1918,1938,1958,1979,1998,2017,2038,2057,2077,2097,2119,2139,2157,2178,2197,2217,2237,2257,2278,2297,2317,2337,2357,2377,2399,2417,2438,2457,2478,2497,2518,2537,2558,2577,2599],"xSR":741.5,"ySR":469.95,"xT1":424.9,"yT1":0,"xT2":1058.1,"yT2":0,"toosoon":0,"cond_shown":"randomdotsizeEA","ratio_trial":500,"smaller_num":"6","larger_num":"12","correct_side":1,"subjID":"juandavidserrano18","gender":"0","age":"9","school":"4"},{"start_time":1552313278013,"click_time":1552313279836,"finger_time":1552313278897,"fix_duration":655.2858249283896,"trial":27,"RT":884,"MT":939,"sideResp":1,"stimulus":"img/750/randomdotsizeEA/R/15_Ratio_750_L_9_R_12.png","xmouse":[760,760,760,760,760,760,760,760,760,760,760,760,760,760,760,760,760,760,760,760,760,760,760,760,760,760,760,760,760,760,760,760,760,760,760,760,760,760,760,760,760,760,759,768,799,811,823,832,836,836,836,836,834,831,810,793,775,758,723,704,685,667,638,607,534,475,421,353,353,353,353,353,353,353,353,353,353,353,353,353,353,353,353,353,353,353,353,353,353,353,353,450],"ymouse":[513,513,513,513,513,513,513,513,513,513,513,513,513,513,513,513,513,513,513,513,513,513,513,513,513,513,513,513,513,513,513,513,513,513,513,513,513,513,513,513,513,513,513,495,458,447,436,429,425,423,423,423,423,423,423,423,423,425,425,417,402,380,339,304,202,150,90,9,9,9,9,9,9,9,9,9,9,9,9,9,9,9,9,9,9,9,9,9,9,9,9,5],"timestamp_mouse":[3,23,44,63,84,104,124,143,163,184,205,225,244,264,285,303,324,343,364,384,403,425,443,465,484,505,523,544,565,584,603,624,643,665,684,703,724,745,765,785,804,823,844,863,884,904,925,945,964,984,1004,1025,1044,1063,1083,1103,1123,1143,1164,1184,1204,1224,1244,1263,1284,1304,1324,1344,1365,1384,1404,1424,1444,1464,1484,1504,1525,1545,1564,1584,1603,1623,1645,1663,1685,1704,1725,1744,1764,1783,1804,1823],"xSR":741.5,"ySR":469.95,"xT1":424.9,"yT1":0,"xT2":1058.1,"yT2":0,"toosoon":0,"cond_shown":"randomdotsizeEA","ratio_trial":750,"smaller_num":"9","larger_num":"12","correct_side":2,"subjID":"juandavidserrano18","gender":"0","age":"9","school":"4"},{"start_time":1552313282152,"click_time":1552313283057,"finger_time":1552313282798,"fix_duration":1195.1021888961789,"trial":28,"RT":646,"MT":259,"sideResp":2,"stimulus":"img/250/equaldotanddens/R/12_Ratio_250_L_5_R_20.png","xmouse":[805,805,805,805,805,805,805,805,805,805,805,805,805,805,805,805,805,805,805,805,805,805,805,805,805,805,805,805,805,805,805,805,819,871,913,957,989,1035,1041,1042,1042,1042,1042,1048,1057,1067],"ymouse":[494,494,494,494,494,494,494,494,494,494,494,494,494,494,494,494,494,494,494,494,494,494,494,494,494,494,494,494,494,494,494,494,463,375,326,283,258,213,199,185,173,165,158,136,117,98],"timestamp_mouse":[4,24,45,65,84,104,125,146,164,184,204,226,245,265,286,304,324,344,365,386,406,425,445,464,484,505,524,544,566,585,604,626,646,665,684,705,726,745,765,784,805,826,844,864,885,905],"xSR":741.5,"ySR":469.95,"xT1":424.9,"yT1":0,"xT2":1058.1,"yT2":0,"toosoon":0,"cond_shown":"equaldotanddens","ratio_trial":250,"smaller_num":"5","larger_num":"20","correct_side":2,"subjID":"juandavidserrano18","gender":"0","age":"9","school":"4"},{"start_time":1552313287168,"click_time":1552313288218,"finger_time":1552313288037,"fix_duration":250,"trial":29,"RT":869,"MT":181,"sideResp":1,"stimulus":"img/500/randomdotsizeEA/L/4_Ratio_500_L_18_R_9.png","xmouse":[775,775,775,775,775,775,775,775,775,775,775,775,775,775,775,775,775,775,775,775,775,775,775,774,774,774,774,774,774,774,774,774,774,774,774,773,776,785,786,786,785,783,778,772,762,747,727,658,622,580,549,524,479],"ymouse":[534,534,534,534,534,534,534,534,534,534,534,534,534,534,534,534,534,534,534,534,534,534,534,534,534,534,534,534,534,534,534,534,534,534,534,527,521,501,492,482,478,475,472,469,463,454,441,399,374,331,282,223,73],"timestamp_mouse":[8,29,49,68,88,108,129,149,170,189,209,229,249,269,288,309,330,348,368,389,409,429,450,469,488,509,529,549,570,589,608,628,650,670,688,708,729,749,770,789,809,829,848,869,889,908,929,948,968,989,1008,1029,1050],"xSR":741.5,"ySR":469.95,"xT1":424.9,"yT1":0,"xT2":1058.1,"yT2":0,"toosoon":0,"cond_shown":"randomdotsizeEA","ratio_trial":500,"smaller_num":"9","larger_num":"18","correct_side":1,"subjID":"juandavidserrano18","gender":"0","age":"9","school":"4"},{"start_time":1552313291176,"click_time":1552313293356,"finger_time":1552313292316,"fix_duration":1477.0347098917578,"trial":30,"RT":1140,"MT":1040,"sideResp":1,"stimulus":"img/900/equaldotsize/R/12_Ratio_900_L_18_R_20.png","xmouse":[782,782,782,782,782,782,782,782,782,782,782,782,782,782,782,782,782,782,782,782,782,782,781,781,781,781,781,780,777,769,765,765,765,765,765,765,765,765,765,765,765,765,765,765,765,764,764,764,764,764,764,764,764,764,764,762,757,718,697,675,658,640,614,598,582,566,556,550,549,550,552,555,557,557,557,554,551,535,526,520,519,518,516,514,513,513,513,512,512,512,512,512,511,510,510,510,510,509,509,508,508,508,508,507,507,507,507,507,507,507],"ymouse":[527,527,527,527,527,527,527,527,527,527,527,527,527,527,527,527,527,527,527,527,527,527,527,527,527,527,527,527,527,528,529,529,529,529,529,529,529,529,529,529,529,529,529,529,529,529,529,529,529,529,529,529,529,529,529,529,525,499,484,464,440,417,371,342,318,295,277,261,223,204,184,165,152,135,132,128,126,117,114,111,111,110,109,108,107,106,106,106,105,105,105,105,105,105,105,105,105,105,105,105,105,104,104,103,103,103,102,101,101,99],"timestamp_mouse":[3,22,41,60,81,101,120,141,161,182,201,220,241,261,280,300,322,342,360,381,401,422,442,461,480,502,521,540,561,580,601,621,641,661,681,700,721,741,760,780,801,820,840,861,880,901,921,940,961,982,1000,1021,1040,1061,1080,1101,1122,1140,1161,1182,1201,1221,1241,1261,1280,1300,1321,1340,1361,1380,1402,1421,1441,1461,1481,1500,1521,1540,1561,1581,1601,1621,1641,1661,1681,1700,1721,1740,1761,1781,1801,1820,1840,1861,1881,1901,1921,1941,1960,1980,2000,2022,2041,2061,2081,2101,2121,2141,2161,2180],"xSR":741.5,"ySR":469.95,"xT1":424.9,"yT1":0,"xT2":1058.1,"yT2":0,"toosoon":0,"cond_shown":"equaldotsize","ratio_trial":900,"smaller_num":"18","larger_num":"20","correct_side":2,"subjID":"juandavidserrano18","gender":"0","age":"9","school":"4"},{"start_time":1552313296682,"click_time":1552313297957,"finger_time":1552313297356,"fix_duration":703.6014385595943,"trial":31,"RT":674,"MT":601,"sideResp":1,"stimulus":"img/500/equaldotsize/L/8_Ratio_500_L_8_R_4.png","xmouse":[820,820,820,820,820,820,820,820,820,820,820,820,820,820,820,820,820,820,820,820,820,820,820,820,820,820,820,820,820,820,820,820,820,819,817,812,804,765,715,690,669,655,631,621,612,602,591,565,552,548,548,548,548,548,548,548,548,548,548,548,547,547,541,517],"ymouse":[472,472,472,472,472,472,472,472,472,472,472,472,472,472,472,472,472,472,472,472,472,472,472,472,472,472,472,472,472,472,472,472,472,468,465,457,445,400,342,302,263,228,177,160,149,137,126,91,70,52,45,43,42,42,42,42,42,42,42,42,42,42,42,42],"timestamp_mouse":[14,34,54,75,96,114,134,154,175,194,214,234,256,274,294,315,335,355,374,394,415,436,454,475,495,516,534,555,575,594,616,634,654,674,696,715,735,755,774,794,815,835,854,874,894,915,935,954,975,996,1014,1035,1054,1074,1095,1116,1135,1154,1174,1194,1214,1234,1254,1275],"xSR":741.5,"ySR":469.95,"xT1":424.9,"yT1":0,"xT2":1058.1,"yT2":0,"toosoon":0,"cond_shown":"equaldotsize","ratio_trial":500,"smaller_num":"4","larger_num":"8","correct_side":1,"subjID":"juandavidserrano18","gender":"0","age":"9","school":"4"},{"start_time":1552313299969,"click_time":1552313301076,"finger_time":1552313300658,"fix_duration":1231.9703165042267,"trial":32,"RT":689,"MT":418,"sideResp":2,"stimulus":"img/250/randomdotsizeEA/R/6_Ratio_250_L_6_R_24.png","xmouse":[775,775,775,775,775,775,775,775,775,775,775,775,775,775,775,775,775,775,775,775,775,775,775,775,775,775,775,775,775,775,775,775,775,788,805,830,867,913,1004,1026,1042,1051,1061,1076,1083,1087,1095,1100,1108,1113,1116,1116,1116,1117,1120,1122],"ymouse":[490,490,490,490,490,490,490,490,490,490,490,490,490,490,490,490,490,490,490,490,490,490,490,490,490,490,490,490,490,490,490,490,490,476,456,427,388,345,262,233,209,193,181,156,146,138,127,119,108,105,104,104,104,103,100,98],"timestamp_mouse":[10,29,47,68,88,109,128,147,169,188,207,227,247,268,287,309,328,348,367,389,408,428,447,468,487,508,528,547,569,587,608,628,647,667,689,709,728,747,768,788,807,827,847,868,888,909,929,949,968,987,1007,1029,1049,1068,1088,1107],"xSR":741.5,"ySR":469.95,"xT1":424.9,"yT1":0,"xT2":1058.1,"yT2":0,"toosoon":0,"cond_shown":"randomdotsizeEA","ratio_trial":250,"smaller_num":"6","larger_num":"24","correct_side":2,"subjID":"juandavidserrano18","gender":"0","age":"9","school":"4"},{"start_time":1552313302915,"click_time":1552313304157,"finger_time":1552313303756,"fix_duration":678.0743929028318,"trial":33,"RT":841,"MT":401,"sideResp":2,"stimulus":"img/500/equaldotanddens/R/15_Ratio_500_L_1_R_2.png","xmouse":[791,791,791,793,793,793,793,793,793,793,793,793,793,793,793,793,793,793,793,793,793,793,793,793,793,793,793,793,793,793,793,793,793,793,793,793,793,793,792,788,780,768,751,747,744,740,738,738,785,894,986,1029,1029,1031,1033,1034,1042,1049,1058,1071,1088,1121,1142],"ymouse":[511,511,509,505,505,505,505,505,505,505,505,505,505,505,505,505,505,505,505,505,505,505,505,505,505,505,505,505,505,505,505,505,505,505,505,505,505,505,506,506,503,489,460,449,437,418,404,394,369,330,303,289,286,282,271,267,245,234,222,204,184,125,90],"timestamp_mouse":[3,23,43,62,81,101,121,142,162,182,201,223,241,261,281,301,323,342,362,382,402,422,441,461,482,501,522,543,561,581,601,621,642,662,683,701,721,741,761,782,803,822,841,863,881,902,923,943,962,982,1001,1022,1041,1063,1083,1103,1123,1142,1161,1181,1201,1222,1242],"xSR":741.5,"ySR":469.95,"xT1":424.9,"yT1":0,"xT2":1058.1,"yT2":0,"toosoon":0,"cond_shown":"equaldotanddens","ratio_trial":500,"smaller_num":"1","larger_num":"2","correct_side":2,"subjID":"juandavidserrano18","gender":"0","age":"9","school":"4"},{"start_time":1552313306954,"click_time":1552313307936,"finger_time":1552313307537,"fix_duration":937.6741661685476,"trial":34,"RT":583,"MT":399,"sideResp":2,"stimulus":"img/500/equaldotsize/R/12_Ratio_500_L_1_R_2.png","xmouse":[766,766,766,766,766,766,766,766,766,766,767,770,774,778,783,789,791,793,796,801,805,805,805,805,806,806,808,809,812,823,880,923,956,974,991,1017,1028,1034,1042,1053,1077,1093,1103,1105,1107,1107,1109,1110,1111,1111],"ymouse":[494,494,494,494,494,494,494,494,494,494,493,490,489,487,485,484,484,483,482,481,479,479,479,479,478,478,477,476,470,458,402,365,335,320,302,278,267,258,246,228,190,161,145,136,131,125,120,110,103,96],"timestamp_mouse":[4,22,44,64,83,103,123,143,163,182,202,222,244,263,284,302,323,342,362,383,404,424,442,463,482,503,523,542,562,583,602,622,642,663,683,703,722,742,762,784,802,823,842,863,884,902,923,943,962,982],"xSR":741.5,"ySR":469.95,"xT1":424.9,"yT1":0,"xT2":1058.1,"yT2":0,"toosoon":0,"cond_shown":"equaldotsize","ratio_trial":500,"smaller_num":"1","larger_num":"2","correct_side":2,"subjID":"juandavidserrano18","gender":"0","age":"9","school":"4"},{"start_time":1552313311395,"click_time":1552313313278,"finger_time":1552313312338,"fix_duration":1117.978918170442,"trial":35,"RT":943,"MT":940,"sideResp":2,"stimulus":"img/900/equaldotanddens/R/12_Ratio_900_L_18_R_20.png","xmouse":[786,786,786,786,786,786,786,786,786,786,786,786,786,786,786,786,786,786,786,786,786,786,786,786,786,786,786,786,786,786,786,786,786,786,786,786,786,786,786,786,786,786,786,786,786,785,774,768,751,743,736,728,716,691,679,666,660,656,656,656,656,656,656,656,656,656,656,656,656,656,656,656,656,656,656,656,656,656,656,657,659,664,681,698,737,760,786,800,818,832,853,893,947,1009,1084],"ymouse":[514,514,514,514,514,514,514,514,514,514,514,514,514,514,514,514,514,514,514,514,514,514,514,514,514,514,514,514,514,514,514,514,514,514,514,514,514,514,514,514,514,514,514,514,510,503,480,460,408,380,357,336,318,290,277,263,250,235,229,228,228,228,228,228,228,228,228,228,228,228,228,228,228,228,227,227,227,227,227,227,226,224,222,216,194,180,166,159,149,141,132,123,107,92,70],"timestamp_mouse":[2,21,41,61,81,103,123,141,162,182,203,223,242,262,282,302,322,342,362,381,402,422,441,462,482,503,521,542,562,582,601,622,641,662,682,702,721,742,762,782,801,822,841,863,882,902,921,943,963,982,1001,1022,1041,1063,1082,1101,1121,1143,1163,1182,1201,1222,1241,1263,1281,1302,1322,1342,1363,1381,1402,1422,1441,1462,1481,1502,1523,1543,1562,1582,1602,1622,1641,1661,1683,1703,1721,1741,1762,1782,1803,1822,1842,1862,1883],"xSR":741.5,"ySR":469.95,"xT1":424.9,"yT1":0,"xT2":1058.1,"yT2":0,"toosoon":0,"cond_shown":"equaldotanddens","ratio_trial":900,"smaller_num":"18","larger_num":"20","correct_side":2,"subjID":"juandavidserrano18","gender":"0","age":"9","school":"4"},{"start_time":1552313314858,"click_time":1552313316297,"finger_time":1552313315578,"fix_duration":560.5893256669788,"trial":36,"RT":720,"MT":719,"sideResp":2,"stimulus":"img/250/equaldotanddens/R/12_Ratio_250_L_5_R_20.png","xmouse":[819,819,820,820,821,822,822,822,822,822,822,822,822,822,822,823,824,824,824,825,825,825,825,825,825,825,825,825,825,825,825,825,825,829,831,846,928,1062,1187,1272,1321,1325,1328,1329,1330,1335,1339,1344,1347,1351,1354,1354,1354,1345,1324,1264,1240,1224,1212,1199,1181,1177,1175,1174,1174,1174,1174,1173,1171,1168,1160,1155],"ymouse":[532,532,531,530,530,529,529,529,529,529,529,529,529,529,529,528,527,527,527,527,526,526,526,526,526,526,526,526,526,526,526,526,526,522,519,504,448,375,304,239,183,173,165,163,159,147,138,130,122,112,95,89,87,86,85,84,83,82,80,79,79,78,78,78,78,78,78,78,78,77,77,76],"timestamp_mouse":[20,39,58,80,99,119,139,159,180,200,220,239,258,279,299,318,339,358,380,399,419,440,458,479,498,519,539,558,579,599,618,638,658,680,700,720,740,758,778,800,818,838,858,879,900,919,939,958,978,998,1018,1039,1059,1078,1100,1119,1139,1159,1178,1198,1218,1239,1259,1278,1298,1318,1340,1360,1379,1399,1419,1439],"xSR":741.5,"ySR":469.95,"xT1":424.9,"yT1":0,"xT2":1058.1,"yT2":0,"toosoon":0,"cond_shown":"equaldotanddens","ratio_trial":250,"smaller_num":"5","larger_num":"20","correct_side":2,"subjID":"juandavidserrano18","gender":"0","age":"9","school":"4"},{"start_time":1552313317349,"click_time":1552313318618,"finger_time":1552313318137,"fix_duration":250,"trial":37,"RT":788,"MT":481,"sideResp":1,"stimulus":"img/750/equaldotanddens/L/1_Ratio_750_L_20_R_15.png","xmouse":[807,807,807,807,807,807,807,807,807,807,807,807,807,807,807,807,807,807,807,807,807,807,807,807,807,807,807,807,807,807,807,807,807,807,807,807,807,806,804,798,789,775,772,770,770,770,770,770,770,770,770,760,753,741,727,714,681,662,643,630,622,598,566,500],"ymouse":[488,488,488,488,488,488,488,488,488,488,488,488,488,488,488,488,488,488,488,488,488,488,488,488,488,488,488,488,488,488,488,488,488,488,488,488,488,489,480,458,429,390,383,381,381,381,381,381,381,381,380,377,370,360,346,329,242,201,173,150,134,113,103,84],"timestamp_mouse":[9,29,48,67,87,107,129,147,168,189,208,227,247,268,289,307,328,348,368,387,407,427,449,469,488,507,527,548,568,588,608,627,647,667,688,708,727,748,768,788,809,828,848,867,887,908,928,948,969,989,1008,1028,1048,1067,1089,1108,1128,1148,1167,1188,1208,1228,1248,1269],"xSR":741.5,"ySR":469.95,"xT1":424.9,"yT1":0,"xT2":1058.1,"yT2":0,"toosoon":0,"cond_shown":"equaldotanddens","ratio_trial":750,"smaller_num":"15","larger_num":"20","correct_side":1,"subjID":"juandavidserrano18","gender":"0","age":"9","school":"4"},{"start_time":1552313322032,"click_time":1552313323417,"finger_time":1552313322798,"fix_duration":1215.35707425576,"trial":38,"RT":766,"MT":619,"sideResp":1,"stimulus":"img/500/equaldotanddens/L/13_Ratio_500_L_12_R_6.png","xmouse":[792,789,786,786,786,785,785,785,785,785,785,785,785,785,785,785,785,785,785,785,785,785,785,785,785,785,785,785,785,782,779,778,778,777,775,772,766,753,670,608,538,440,409,392,392,392,399,404,412,413,415,421,436,533,585,633,672,672,672,672,672,672,672,672,672,672,672,672,526,515],"ymouse":[504,504,504,504,504,504,504,504,504,504,504,504,504,504,504,504,504,504,504,504,504,504,504,504,504,504,504,504,504,504,504,504,504,504,504,502,500,491,460,441,414,370,352,333,327,320,311,303,284,276,266,255,238,165,117,60,5,5,5,5,5,5,5,5,5,5,5,5,5,12],"timestamp_mouse":[4,25,45,65,84,106,126,145,165,186,205,224,246,265,286,306,324,345,364,384,406,424,444,464,485,504,525,545,566,585,604,625,644,665,685,705,724,744,766,786,806,826,846,865,886,904,924,945,965,986,1004,1024,1044,1064,1086,1104,1124,1146,1165,1185,1205,1225,1244,1265,1284,1304,1324,1344,1364,1385],"xSR":741.5,"ySR":469.95,"xT1":424.9,"yT1":0,"xT2":1058.1,"yT2":0,"toosoon":0,"cond_shown":"equaldotanddens","ratio_trial":500,"smaller_num":"6","larger_num":"12","correct_side":1,"subjID":"juandavidserrano18","gender":"0","age":"9","school":"4"},{"start_time":1552313324689,"click_time":1552313325897,"finger_time":1552313324797,"fix_duration":250,"trial":39,"RT":108,"MT":1100,"sideResp":2,"stimulus":"img/900/randomdotsizeEA/R/11_Ratio_900_L_18_R_20.png","xmouse":[834,834,834,835,838,846,856,859,859,859,860,860,860,864,868,868,868,868,868,859,849,844,843,842,838,807,793,780,774,771,771,771,771,771,770,778,779,784,791,799,820,832,845,857,870,899,925,943,960,975,1005,1019,1034,1048,1063,1084,1098,1105,1111,1118,1134],"ymouse":[543,538,533,530,525,522,519,518,518,518,519,527,535,542,547,549,549,549,549,551,553,553,553,553,554,560,564,566,567,567,567,567,567,567,567,557,545,530,514,498,470,453,437,419,400,360,334,320,306,291,263,250,235,220,202,169,143,131,118,104,75],"timestamp_mouse":[9,27,47,67,87,108,128,148,168,188,207,228,247,269,287,307,327,347,367,388,407,427,447,467,487,507,529,549,569,589,607,628,647,668,689,707,729,747,768,787,808,827,847,867,889,908,928,947,968,989,1007,1027,1047,1069,1088,1107,1128,1147,1169,1189,1208],"xSR":741.5,"ySR":469.95,"xT1":424.9,"yT1":0,"xT2":1058.1,"yT2":0,"toosoon":0,"cond_shown":"randomdotsizeEA","ratio_trial":900,"smaller_num":"18","larger_num":"20","correct_side":2,"subjID":"juandavidserrano18","gender":"0","age":"9","school":"4"},{"start_time":1552313331477,"click_time":1552313333616,"finger_time":1552313332857,"fix_duration":920.2670575204587,"trial":40,"RT":1380,"MT":759,"sideResp":2,"stimulus":"img/750/randomdotsizeEA/L/1_Ratio_750_L_20_R_15.png","xmouse":[768,768,768,768,768,768,768,768,768,768,768,768,768,768,768,768,768,768,768,768,768,768,768,768,768,768,768,768,768,768,768,768,768,768,768,768,768,768,768,768,768,768,768,768,768,768,768,768,768,768,768,768,768,768,768,768,768,768,768,768,768,769,769,772,775,779,788,798,814,831,848,881,891,894,900,912,941,952,962,968,973,987,993,1000,1014,1033,1062,1068,1069,1069,1069,1070,1071,1075,1080,1085,1094,1097,1101,1102,1103,1103,1103,1103,1103,1102,1100],"ymouse":[513,513,513,513,513,513,513,513,513,513,513,513,513,513,513,513,513,513,513,513,513,513,513,513,513,513,513,513,513,513,513,513,513,513,513,513,513,513,513,513,513,513,513,513,513,513,513,513,513,513,513,513,513,513,513,513,513,513,513,513,513,511,507,501,497,491,482,475,463,452,439,411,398,392,382,369,343,333,323,317,313,305,298,288,273,260,239,234,233,233,233,232,227,219,207,193,161,150,138,134,129,121,115,113,109,103,92],"timestamp_mouse":[21,40,60,80,101,120,141,160,180,200,221,239,260,279,300,320,341,360,379,399,420,439,460,480,500,519,541,560,579,600,619,639,659,679,700,719,739,761,779,800,820,839,861,881,900,920,939,961,981,999,1019,1041,1061,1079,1100,1120,1140,1159,1179,1200,1221,1239,1260,1279,1300,1319,1340,1359,1380,1400,1420,1440,1460,1479,1499,1520,1540,1560,1580,1599,1620,1639,1659,1679,1699,1720,1740,1759,1779,1800,1821,1839,1859,1879,1900,1920,1939,1960,1981,1999,2019,2039,2060,2079,2100,2120,2139],"xSR":741.5,"ySR":469.95,"xT1":424.9,"yT1":0,"xT2":1058.1,"yT2":0,"toosoon":0,"cond_shown":"randomdotsizeEA","ratio_trial":750,"smaller_num":"15","larger_num":"20","correct_side":1,"subjID":"juandavidserrano18","gender":"0","age":"9","school":"4"},{"start_time":1552313336474,"click_time":1552313337556,"finger_time":1552313337197,"fix_duration":334.215409677723,"trial":41,"RT":723,"MT":359,"sideResp":2,"stimulus":"img/250/randomdotsizeEA/R/10_Ratio_250_L_4_R_16.png","xmouse":[798,798,798,798,798,798,798,798,798,798,798,798,798,798,798,798,798,798,798,798,798,798,798,798,798,798,798,798,798,798,798,798,798,798,803,817,841,883,903,921,939,957,976,989,995,1001,1009,1022,1027,1032,1034,1040,1059,1078,1103],"ymouse":[515,515,515,515,515,515,515,515,515,515,515,515,515,515,515,515,515,515,515,515,515,515,515,515,515,515,515,515,515,515,515,515,515,512,499,479,444,387,361,339,318,301,278,255,242,226,209,183,173,166,160,151,128,114,94],"timestamp_mouse":[4,23,43,63,82,102,124,144,162,183,203,224,243,262,282,302,323,343,363,382,403,423,443,464,484,504,523,542,562,583,603,623,643,664,682,702,723,742,762,782,803,823,842,862,882,902,922,944,962,982,1003,1022,1044,1064,1082],"xSR":741.5,"ySR":469.95,"xT1":424.9,"yT1":0,"xT2":1058.1,"yT2":0,"toosoon":0,"cond_shown":"randomdotsizeEA","ratio_trial":250,"smaller_num":"4","larger_num":"16","correct_side":2,"subjID":"juandavidserrano18","gender":"0","age":"9","school":"4"},{"start_time":1552313339273,"click_time":1552313340876,"finger_time":1552313340156,"fix_duration":815.9292538909177,"trial":42,"RT":883,"MT":720,"sideResp":1,"stimulus":"img/750/equaldotsize/L/13_Ratio_750_L_8_R_6.png","xmouse":[786,786,786,786,786,786,786,786,786,786,786,786,786,786,786,786,786,786,786,786,786,786,786,786,786,786,786,786,786,786,786,786,786,786,786,786,786,784,784,784,784,784,778,753,738,731,729,729,728,728,728,726,726,725,725,729,733,735,735,735,731,722,711,682,661,642,619,594,553,527,516,511,509,517,524,528,529,529,524,519,515],"ymouse":[519,519,519,519,519,519,519,519,519,519,519,519,519,519,519,519,519,519,519,519,519,519,519,519,519,519,519,519,519,519,519,519,519,519,519,519,519,519,519,519,519,519,519,519,519,519,519,519,519,519,519,518,512,492,478,464,445,426,376,335,314,298,286,271,263,257,249,239,215,190,180,173,166,144,132,123,118,112,104,101,98],"timestamp_mouse":[5,23,44,64,83,104,123,144,163,183,203,224,243,263,284,303,324,343,363,384,403,423,443,464,483,504,524,544,564,583,604,623,643,663,683,703,724,744,764,783,803,823,843,863,883,904,923,944,963,983,1003,1023,1043,1063,1083,1103,1123,1144,1163,1183,1203,1224,1243,1264,1283,1304,1323,1343,1363,1383,1403,1424,1443,1464,1483,1503,1523,1543,1562,1583,1603],"xSR":741.5,"ySR":469.95,"xT1":424.9,"yT1":0,"xT2":1058.1,"yT2":0,"toosoon":0,"cond_shown":"equaldotsize","ratio_trial":750,"smaller_num":"6","larger_num":"8","correct_side":1,"subjID":"juandavidserrano18","gender":"0","age":"9","school":"4"},{"start_time":1552313344623,"click_time":1552313345877,"finger_time":1552313345476,"fix_duration":664.2433831743381,"trial":43,"RT":853,"MT":401,"sideResp":2,"stimulus":"img/250/randomdotsizeEA/R/9_Ratio_250_L_3_R_12.png","xmouse":[784,784,784,784,784,784,784,784,784,784,784,784,784,784,784,784,784,784,784,784,784,784,784,784,784,784,784,784,784,784,784,787,792,793,794,800,806,814,821,824,826,826,826,827,831,888,943,992,1036,1062,1085,1095,1098,1104,1112,1123,1137,1139,1141,1142,1142,1142,1142],"ymouse":[521,521,521,521,521,521,521,521,521,521,521,521,521,521,521,521,521,521,521,521,521,521,521,521,521,521,521,521,521,521,520,517,511,509,509,501,496,488,482,479,472,470,468,465,456,413,376,341,310,290,268,240,229,215,198,178,146,136,127,120,107,103,97],"timestamp_mouse":[13,32,54,74,92,113,133,154,174,193,213,233,253,273,294,314,333,353,373,393,413,434,453,474,494,513,534,554,573,594,613,634,653,674,693,713,734,753,773,793,813,833,853,874,894,913,933,954,973,994,1013,1034,1053,1073,1094,1113,1133,1153,1173,1193,1213,1234,1253],"xSR":741.5,"ySR":469.95,"xT1":424.9,"yT1":0,"xT2":1058.1,"yT2":0,"toosoon":0,"cond_shown":"randomdotsizeEA","ratio_trial":250,"smaller_num":"3","larger_num":"12","correct_side":2,"subjID":"juandavidserrano18","gender":"0","age":"9","school":"4"},{"start_time":1552313347548,"click_time":1552313348977,"finger_time":1552313348516,"fix_duration":290.4668802773286,"trial":44,"RT":968,"MT":461,"sideResp":2,"stimulus":"img/750/equaldotsize/R/3_Ratio_750_L_15_R_20.png","xmouse":[782,782,782,782,782,782,782,782,782,782,782,782,783,784,785,786,786,786,786,786,783,782,782,782,782,782,782,782,782,782,782,782,782,782,782,782,782,782,782,782,782,782,782,782,782,790,805,819,829,840,867,895,936,968,1016,1123,1143,1146,1146,1146,1145,1145,1145,1145,1145,1145,1146,1146,1146,1141,1125,1113],"ymouse":[551,551,551,551,551,551,551,551,551,551,551,551,546,542,539,535,535,535,535,535,535,535,535,535,535,535,535,535,535,535,535,535,535,535,535,535,535,535,535,535,535,535,533,529,522,505,486,475,466,455,421,381,335,302,260,186,170,164,157,150,148,147,146,143,141,135,133,132,131,123,107,99],"timestamp_mouse":[10,29,48,68,88,109,129,148,168,188,208,228,249,268,288,308,329,348,368,388,408,428,449,468,489,509,528,548,569,588,609,628,648,668,689,709,728,748,769,788,808,828,848,869,888,908,929,948,968,989,1008,1028,1048,1068,1088,1108,1129,1148,1168,1189,1208,1228,1248,1268,1288,1308,1329,1348,1368,1388,1408,1429],"xSR":741.5,"ySR":469.95,"xT1":424.9,"yT1":0,"xT2":1058.1,"yT2":0,"toosoon":0,"cond_shown":"equaldotsize","ratio_trial":750,"smaller_num":"15","larger_num":"20","correct_side":2,"subjID":"juandavidserrano18","gender":"0","age":"9","school":"4"},{"start_time":1552313351486,"click_time":1552313352836,"finger_time":1552313352416,"fix_duration":250,"trial":45,"RT":930,"MT":420,"sideResp":2,"stimulus":"img/750/randomdotsizeEA/R/4_Ratio_750_L_15_R_20.png","xmouse":[812,812,812,812,812,812,812,812,811,809,807,807,807,806,806,806,806,806,806,806,806,806,806,806,806,806,806,806,806,806,806,806,806,806,806,806,806,806,806,806,806,806,806,806,806,818,845,866,908,935,963,1000,1031,1085,1090,1093,1094,1096,1099,1101,1103,1104,1106,1108,1111,1114,1118,1123],"ymouse":[511,511,511,510,510,510,510,510,509,509,509,509,509,508,508,508,508,508,508,508,508,508,508,508,508,508,508,508,508,508,508,508,508,508,508,508,508,508,508,508,508,508,508,508,505,488,454,430,393,374,359,337,316,271,257,245,237,224,205,192,178,167,156,148,126,115,103,90],"timestamp_mouse":[11,30,50,71,90,110,130,151,171,191,210,230,251,270,291,311,331,350,371,391,410,430,451,470,490,510,531,550,570,591,610,630,650,670,691,711,730,750,770,791,810,831,851,870,891,910,930,950,970,990,1011,1030,1051,1070,1090,1110,1131,1150,1170,1191,1211,1230,1250,1270,1291,1310,1331,1350],"xSR":741.5,"ySR":469.95,"xT1":424.9,"yT1":0,"xT2":1058.1,"yT2":0,"toosoon":0,"cond_shown":"randomdotsizeEA","ratio_trial":750,"smaller_num":"15","larger_num":"20","correct_side":2,"subjID":"juandavidserrano18","gender":"0","age":"9","school":"4"},{"start_time":1552313355386,"click_time":1552313356457,"finger_time":1552313356197,"fix_duration":1228.0340138391723,"trial":46,"RT":811,"MT":260,"sideResp":1,"stimulus":"img/500/randomdotsizeEA/L/13_Ratio_500_L_12_R_6.png","xmouse":[802,802,802,802,802,802,802,802,802,802,802,802,802,802,802,802,802,802,802,803,803,805,805,805,805,805,805,805,805,805,805,805,805,805,805,805,805,805,804,797,791,787,779,770,759,745,717,701,682,638,611,583,536,457],"ymouse":[507,507,507,507,507,507,507,507,507,507,507,507,507,507,507,507,507,507,507,507,505,504,503,503,503,503,503,503,503,503,503,503,503,503,503,503,500,498,495,478,463,446,423,397,347,309,259,240,221,190,168,142,108,48],"timestamp_mouse":[10,30,50,70,90,110,131,151,171,190,211,230,251,271,291,311,329,351,370,391,410,430,450,470,491,510,530,551,570,590,610,630,650,670,690,711,730,750,770,791,811,830,850,871,890,910,930,951,970,990,1010,1030,1050,1071],"xSR":741.5,"ySR":469.95,"xT1":424.9,"yT1":0,"xT2":1058.1,"yT2":0,"toosoon":0,"cond_shown":"randomdotsizeEA","ratio_trial":500,"smaller_num":"6","larger_num":"12","correct_side":1,"subjID":"juandavidserrano18","gender":"0","age":"9","school":"4"},{"start_time":1552313359062,"click_time":1552313360156,"finger_time":1552313359796,"fix_duration":1405.1742845002416,"trial":47,"RT":734,"MT":360,"sideResp":2,"stimulus":"img/900/equaldotanddens/L/10_Ratio_900_L_20_R_18.png","xmouse":[782,783,783,783,783,783,783,783,783,783,783,783,783,783,783,783,783,783,783,783,783,783,783,783,783,783,783,783,783,783,783,783,785,789,796,836,869,913,943,965,988,992,993,994,996,1002,1009,1019,1028,1036,1044,1051,1064,1082,1098],"ymouse":[518,517,517,517,517,517,517,517,517,517,515,515,515,515,515,515,515,515,515,514,514,514,514,514,514,514,514,514,514,514,514,514,510,506,501,476,451,412,373,333,288,275,271,267,261,242,229,215,204,193,183,172,152,118,71],"timestamp_mouse":[16,34,55,74,94,115,135,155,175,194,214,235,255,274,295,314,334,354,374,394,415,434,454,475,494,514,535,554,575,594,614,635,654,674,694,714,734,754,775,794,814,835,854,875,895,914,934,954,974,995,1014,1034,1054,1073,1094],"xSR":741.5,"ySR":469.95,"xT1":424.9,"yT1":0,"xT2":1058.1,"yT2":0,"toosoon":0,"cond_shown":"equaldotanddens","ratio_trial":900,"smaller_num":"18","larger_num":"20","correct_side":1,"subjID":"juandavidserrano18","gender":"0","age":"9","school":"4"},{"start_time":1552313361886,"click_time":1552313363996,"finger_time":1552313362336,"fix_duration":708.8134782862613,"trial":48,"RT":450,"MT":1660,"sideResp":2,"stimulus":"img/900/randomdotsizeEA/R/12_Ratio_900_L_18_R_20.png","xmouse":[803,803,803,803,803,803,803,803,803,803,803,798,783,770,761,759,757,755,754,752,751,749,747,744,741,725,717,705,692,680,660,656,652,649,647,647,647,647,647,647,647,647,647,647,647,647,647,647,647,647,647,647,647,647,644,634,623,613,600,561,553,545,538,532,526,526,526,526,525,525,525,525,525,525,525,525,525,525,531,588,797,866,881,884,886,898,907,914,927,938,944,948,951,954,957,959,959,959,959,960,961,966,977,1001,1028,1077],"ymouse":[552,552,552,552,552,552,552,552,552,552,552,552,550,549,548,539,528,518,511,496,487,476,461,442,416,341,314,287,258,232,176,162,149,140,134,134,134,134,134,134,134,134,134,134,134,134,134,134,134,134,134,134,134,134,132,132,131,129,127,122,121,120,119,118,117,117,117,117,116,115,115,115,115,115,115,115,115,115,115,107,74,58,51,48,45,39,35,34,30,27,25,24,23,22,21,21,21,21,21,21,21,21,21,21,21,21],"timestamp_mouse":[10,31,51,70,91,111,131,150,171,191,211,231,250,270,291,310,330,350,370,390,411,430,450,470,490,510,530,550,570,590,611,630,650,670,691,711,730,751,770,790,811,831,850,871,891,910,931,950,970,991,1011,1031,1050,1070,1090,1110,1130,1150,1170,1190,1210,1230,1251,1270,1291,1311,1330,1350,1370,1390,1410,1430,1450,1471,1491,1511,1530,1550,1571,1591,1611,1630,1651,1670,1690,1710,1731,1751,1770,1791,1810,1830,1850,1871,1891,1910,1930,1951,1970,1990,2010,2030,2050,2070,2091,2110],"xSR":741.5,"ySR":469.95,"xT1":424.9,"yT1":0,"xT2":1058.1,"yT2":0,"toosoon":0,"cond_shown":"randomdotsizeEA","ratio_trial":900,"smaller_num":"18","larger_num":"20","correct_side":2,"subjID":"juandavidserrano18","gender":"0","age":"9","school":"4"},{"start_time":1552313365931,"click_time":1552313367477,"finger_time":1552313366596,"fix_duration":294.467683934479,"trial":49,"RT":665,"MT":881,"sideResp":2,"stimulus":"img/900/equaldotanddens/L/1_Ratio_900_L_10_R_9.png","xmouse":[811,811,811,812,812,812,812,812,812,812,812,812,812,812,812,812,812,812,812,812,812,812,812,812,812,812,812,812,812,812,811,811,809,805,802,790,784,777,762,754,746,740,734,723,718,714,714,714,713,713,713,714,723,763,788,821,838,856,892,907,921,936,946,966,977,993,1000,1002,1010,1012,1018,1024,1029,1041,1047,1052,1058,1065],"ymouse":[546,546,546,546,546,546,545,545,545,545,545,545,545,544,543,543,543,542,542,541,541,541,541,541,541,539,538,538,538,536,534,527,511,454,401,359,337,317,279,264,252,244,238,227,226,224,224,224,223,223,221,215,204,185,178,169,163,155,130,117,108,100,97,90,86,81,78,78,76,76,75,72,70,64,61,60,57,54],"timestamp_mouse":[6,26,46,66,85,105,125,146,165,185,206,225,246,265,285,305,325,346,365,385,406,426,445,466,485,505,525,545,566,585,606,626,645,665,686,706,726,745,765,785,805,825,845,865,885,906,925,946,965,986,1006,1025,1046,1065,1085,1106,1125,1145,1166,1185,1204,1225,1245,1265,1286,1306,1326,1345,1365,1385,1405,1424,1445,1465,1485,1505,1525,1546],"xSR":741.5,"ySR":469.95,"xT1":424.9,"yT1":0,"xT2":1058.1,"yT2":0,"toosoon":0,"cond_shown":"equaldotanddens","ratio_trial":900,"smaller_num":"9","larger_num":"10","correct_side":1,"subjID":"juandavidserrano18","gender":"0","age":"9","school":"4"},{"start_time":1552313368928,"click_time":1552313370016,"finger_time":1552313369596,"fix_duration":310.5051207457635,"trial":50,"RT":668,"MT":420,"sideResp":2,"stimulus":"img/500/equaldotanddens/R/9_Ratio_500_L_2_R_4.png","xmouse":[785,787,789,789,790,790,791,791,791,791,791,791,791,791,791,791,791,791,791,791,791,791,791,791,791,791,791,791,792,793,795,797,804,849,881,925,975,1025,1077,1096,1111,1123,1135,1157,1160,1161,1161,1159,1145,1136,1134,1131,1130,1130,1130],"ymouse":[499,499,499,499,499,499,499,499,499,499,499,499,499,499,499,499,499,499,499,499,499,499,499,499,499,499,499,499,499,498,496,495,485,439,411,373,332,296,248,226,206,189,173,142,137,135,135,133,131,130,130,128,126,106,92],"timestamp_mouse":[8,28,48,67,88,108,129,148,169,188,208,229,248,269,288,308,328,348,368,388,408,429,448,468,489,509,529,548,568,588,608,628,649,668,688,708,728,749,768,788,808,829,849,868,888,908,929,948,968,988,1008,1028,1049,1068,1088],"xSR":741.5,"ySR":469.95,"xT1":424.9,"yT1":0,"xT2":1058.1,"yT2":0,"toosoon":0,"cond_shown":"equaldotanddens","ratio_trial":500,"smaller_num":"2","larger_num":"4","correct_side":2,"subjID":"juandavidserrano18","gender":"0","age":"9","school":"4"},{"start_time":1552313371646,"click_time":1552313372756,"finger_time":1552313372336,"fix_duration":250,"trial":51,"RT":690,"MT":420,"sideResp":1,"stimulus":"img/250/equaldotanddens/L/1_Ratio_250_L_8_R_2.png","xmouse":[783,783,783,783,783,783,783,783,783,783,783,783,783,783,783,783,783,783,783,782,782,781,781,780,780,779,778,776,776,775,774,771,768,754,739,723,707,681,631,597,565,538,512,436,399,376,361,359,358,358,358,359,362,388,419,430],"ymouse":[509,509,509,509,509,509,509,509,509,509,509,509,509,509,509,509,509,509,509,509,509,509,509,509,508,507,505,502,502,501,499,497,494,478,462,436,407,367,310,276,239,208,186,142,129,120,114,112,108,106,104,103,100,97,91,90],"timestamp_mouse":[11,30,50,70,90,110,130,151,170,190,210,231,250,270,290,310,330,351,371,390,411,431,449,470,491,510,531,551,570,590,610,630,650,670,690,710,730,750,771,790,811,830,851,870,891,911,930,950,971,990,1010,1031,1051,1070,1090,1110],"xSR":741.5,"ySR":469.95,"xT1":424.9,"yT1":0,"xT2":1058.1,"yT2":0,"toosoon":0,"cond_shown":"equaldotanddens","ratio_trial":250,"smaller_num":"2","larger_num":"8","correct_side":1,"subjID":"juandavidserrano18","gender":"0","age":"9","school":"4"},{"start_time":1552313374402,"click_time":1552313375817,"finger_time":1552313374916,"fix_duration":445.554323710732,"trial":52,"RT":514,"MT":901,"sideResp":2,"stimulus":"img/900/randomdotsizeEA/L/4_Ratio_900_L_20_R_18.png","xmouse":[780,780,780,780,780,780,780,780,780,780,780,780,780,780,780,779,778,777,773,772,771,773,777,780,784,789,792,801,809,819,846,860,872,884,897,929,948,984,1020,1051,1090,1100,1103,1103,1103,1103,1103,1103,1103,1103,1103,1103,1103,1103,1103,1104,1105,1105,1105,1105,1105,1105,1105,1106,1106,1106,1106,1106,1107,1107,1107],"ymouse":[546,546,546,546,546,546,546,546,546,546,546,546,546,546,546,546,546,546,541,535,513,502,494,487,480,463,453,434,419,403,368,349,333,318,302,267,248,216,188,165,132,121,116,114,112,112,112,112,112,112,112,112,111,111,111,110,110,110,110,110,108,108,108,107,107,104,103,101,100,100,99],"timestamp_mouse":[15,34,55,74,94,114,134,154,174,194,215,235,254,275,294,314,335,354,375,394,415,434,455,474,495,514,535,555,575,596,614,634,655,674,694,714,735,754,775,795,814,834,854,874,894,914,935,955,975,994,1014,1034,1055,1075,1094,1113,1134,1155,1174,1194,1214,1234,1253,1275,1296,1313,1334,1354,1374,1396,1414],"xSR":741.5,"ySR":469.95,"xT1":424.9,"yT1":0,"xT2":1058.1,"yT2":0,"toosoon":0,"cond_shown":"randomdotsizeEA","ratio_trial":900,"smaller_num":"18","larger_num":"20","correct_side":1,"subjID":"juandavidserrano18","gender":"0","age":"9","school":"4"},{"start_time":1552313379864,"click_time":1552313380897,"finger_time":1552313380336,"fix_duration":287.4909471345477,"trial":53,"RT":472,"MT":561,"sideResp":2,"stimulus":"img/900/equaldotsize/R/13_Ratio_900_L_18_R_20.png","xmouse":[771,773,778,779,781,782,783,784,784,784,784,784,784,784,784,784,784,784,788,793,795,801,804,815,824,833,841,847,856,861,871,876,934,970,1016,1066,1130,1194,1292,1309,1316,1317,1317,1317,1316,1310,1304,1288,1269,1232,1167,1150],"ymouse":[504,506,506,506,506,506,506,506,506,506,506,506,506,506,506,506,506,506,505,498,492,478,472,449,436,421,408,395,381,375,357,348,270,230,187,150,113,77,23,11,5,4,4,4,3,3,2,2,2,11,30,35],"timestamp_mouse":[12,32,52,72,93,112,132,153,173,193,213,232,252,273,293,312,333,352,372,392,413,433,452,472,493,512,532,552,572,592,612,633,652,672,692,712,732,752,772,792,812,831,853,872,893,913,932,953,973,993,1013,1032],"xSR":741.5,"ySR":469.95,"xT1":424.9,"yT1":0,"xT2":1058.1,"yT2":0,"toosoon":0,"cond_shown":"equaldotsize","ratio_trial":900,"smaller_num":"18","larger_num":"20","correct_side":2,"subjID":"juandavidserrano18","gender":"0","age":"9","school":"4"},{"start_time":1552313383814,"click_time":1552313384836,"finger_time":1552313384516,"fix_duration":337.2873961767071,"trial":54,"RT":702,"MT":320,"sideResp":1,"stimulus":"img/750/equaldotanddens/L/14_Ratio_750_L_8_R_6.png","xmouse":[812,812,812,812,812,812,812,812,812,812,812,812,812,812,812,812,812,812,812,812,812,812,812,812,812,812,812,812,812,812,812,812,812,810,799,778,704,657,607,555,514,470,460,457,453,451,448,448,448,448,452,464],"ymouse":[489,489,489,489,489,489,489,489,489,489,489,489,489,489,489,489,489,489,489,489,489,489,489,489,489,489,489,489,489,489,489,489,489,489,483,467,410,374,335,299,273,240,214,195,174,153,128,124,121,116,110,94],"timestamp_mouse":[4,24,42,63,81,102,123,143,163,183,203,222,243,263,283,301,322,342,362,383,403,423,443,463,483,502,522,543,563,583,601,623,643,662,683,702,722,742,762,782,803,822,843,862,883,902,921,942,962,983,1003,1022],"xSR":741.5,"ySR":469.95,"xT1":424.9,"yT1":0,"xT2":1058.1,"yT2":0,"toosoon":0,"cond_shown":"equaldotanddens","ratio_trial":750,"smaller_num":"6","larger_num":"8","correct_side":1,"subjID":"juandavidserrano18","gender":"0","age":"9","school":"4"},{"start_time":1552313387939,"click_time":1552313389016,"finger_time":1552313388657,"fix_duration":763.0238056176813,"trial":55,"RT":718,"MT":359,"sideResp":1,"stimulus":"img/750/randomdotsizeEA/L/8_Ratio_750_L_4_R_3.png","xmouse":[818,818,818,818,818,818,818,818,818,818,818,818,818,818,818,818,819,822,823,823,823,823,823,823,823,823,823,823,823,823,822,822,822,822,822,821,817,809,801,781,770,755,740,723,649,608,583,563,547,534,511,505,503,500],"ymouse":[544,544,544,544,544,544,543,543,543,543,543,543,543,542,541,533,528,522,517,511,511,510,510,510,510,510,510,508,507,507,505,503,499,493,474,467,458,449,439,407,384,360,337,316,262,241,223,207,189,170,135,122,110,97],"timestamp_mouse":[18,38,57,77,98,117,137,157,177,197,218,237,258,277,297,317,338,358,377,397,418,437,457,477,497,517,538,558,577,597,617,638,657,678,697,718,737,758,777,797,818,838,857,878,897,917,937,958,977,997,1017,1037,1058,1077],"xSR":741.5,"ySR":469.95,"xT1":424.9,"yT1":0,"xT2":1058.1,"yT2":0,"toosoon":0,"cond_shown":"randomdotsizeEA","ratio_trial":750,"smaller_num":"3","larger_num":"4","correct_side":1,"subjID":"juandavidserrano18","gender":"0","age":"9","school":"4"},{"start_time":1552313390547,"click_time":1552313391436,"finger_time":1552313391256,"fix_duration":431.458880691076,"trial":56,"RT":709,"MT":180,"sideResp":1,"stimulus":"img/250/randomdotsizeEA/L/3_Ratio_250_L_8_R_2.png","xmouse":[775,775,775,775,775,775,775,775,775,775,776,776,776,776,776,776,776,776,776,776,776,776,776,776,776,777,778,778,778,778,778,778,778,773,749,731,699,657,613,573,514,497,485,474,469],"ymouse":[544,544,544,544,544,544,544,544,544,544,544,544,543,543,543,543,543,543,543,543,543,543,543,543,543,541,538,537,536,535,535,534,532,522,487,458,402,335,275,220,145,130,120,108,95],"timestamp_mouse":[10,30,49,69,90,109,129,149,169,189,209,230,250,269,290,310,329,349,370,390,409,429,450,470,489,510,530,550,570,590,610,629,650,669,690,709,729,749,770,790,809,830,849,869,889],"xSR":741.5,"ySR":469.95,"xT1":424.9,"yT1":0,"xT2":1058.1,"yT2":0,"toosoon":0,"cond_shown":"randomdotsizeEA","ratio_trial":250,"smaller_num":"2","larger_num":"8","correct_side":1,"subjID":"juandavidserrano18","gender":"0","age":"9","school":"4"},{"start_time":1552313393260,"click_time":1552313394116,"finger_time":1552313393877,"fix_duration":1003.6454877030983,"trial":57,"RT":617,"MT":239,"sideResp":2,"stimulus":"img/900/equaldotsize/L/2_Ratio_900_L_20_R_18.png","xmouse":[776,776,776,776,776,776,776,776,776,776,776,776,776,776,776,776,776,776,776,776,776,777,778,778,778,778,778,778,778,797,823,861,893,927,964,971,978,981,983,1002,1025,1048,1068],"ymouse":[514,514,514,514,514,514,514,514,514,514,514,514,514,514,514,514,514,514,514,514,514,514,514,514,513,513,513,511,510,481,450,409,369,320,226,202,179,154,128,67,38,18,5],"timestamp_mouse":[17,36,56,76,97,116,137,157,177,197,217,236,257,276,296,316,337,357,376,396,416,437,457,476,496,516,537,557,576,596,617,636,656,676,696,716,736,756,777,796,816,836,856],"xSR":741.5,"ySR":469.95,"xT1":424.9,"yT1":0,"xT2":1058.1,"yT2":0,"toosoon":0,"cond_shown":"equaldotsize","ratio_trial":900,"smaller_num":"18","larger_num":"20","correct_side":1,"subjID":"juandavidserrano18","gender":"0","age":"9","school":"4"},{"start_time":1552313396257,"click_time":1552313397116,"finger_time":1552313396756,"fix_duration":260.6362951202912,"trial":58,"RT":499,"MT":360,"sideResp":1,"stimulus":"img/500/equaldotsize/L/11_Ratio_500_L_12_R_6.png","xmouse":[800,800,800,800,800,800,800,800,800,800,800,800,800,800,800,800,800,800,799,796,795,791,786,781,765,756,744,732,718,694,683,672,663,647,634,608,594,581,570,549,538,531,523],"ymouse":[534,534,534,534,534,534,534,534,534,534,534,534,534,534,534,534,534,534,530,523,518,511,500,491,453,431,402,375,350,311,298,286,275,250,228,177,155,136,124,101,87,75,62],"timestamp_mouse":[19,39,59,80,99,120,138,160,180,199,219,239,259,280,299,320,340,359,379,399,420,440,459,480,499,519,540,560,579,599,619,639,659,679,700,719,740,759,779,800,818,840,859],"xSR":741.5,"ySR":469.95,"xT1":424.9,"yT1":0,"xT2":1058.1,"yT2":0,"toosoon":0,"cond_shown":"equaldotsize","ratio_trial":500,"smaller_num":"6","larger_num":"12","correct_side":1,"subjID":"juandavidserrano18","gender":"0","age":"9","school":"4"},{"start_time":1552313399955,"click_time":1552313400876,"finger_time":1552313400756,"fix_duration":458.0094172756914,"trial":59,"RT":801,"MT":120,"sideResp":1,"stimulus":"img/750/equaldotsize/L/1_Ratio_750_L_20_R_15.png","xmouse":[799,799,799,799,799,799,799,799,799,799,799,799,799,799,799,799,799,799,799,799,799,799,799,799,799,799,799,799,799,799,799,799,799,799,799,799,799,798,789,779,760,673,602,536,495,478,471],"ymouse":[532,532,532,532,532,532,532,532,532,532,532,532,532,532,532,532,532,532,532,532,532,532,532,532,532,532,532,532,532,532,532,532,532,532,532,532,531,528,502,479,441,304,223,152,117,102,94],"timestamp_mouse":[4,22,40,62,81,101,121,141,162,181,200,220,242,260,280,301,322,341,360,380,401,421,440,462,480,500,522,541,561,580,602,620,640,660,682,700,720,740,761,781,801,822,841,862,880,901,921],"xSR":741.5,"ySR":469.95,"xT1":424.9,"yT1":0,"xT2":1058.1,"yT2":0,"toosoon":0,"cond_shown":"equaldotsize","ratio_trial":750,"smaller_num":"15","larger_num":"20","correct_side":1,"subjID":"juandavidserrano18","gender":"0","age":"9","school":"4"},{"start_time":1552313402912,"click_time":1552313403776,"finger_time":1552313403396,"fix_duration":1054.5742781734527,"trial":60,"RT":484,"MT":380,"sideResp":2,"stimulus":"img/900/equaldotsize/L/10_Ratio_900_L_20_R_18.png","xmouse":[816,816,816,816,816,816,816,816,816,816,816,816,816,816,816,816,816,816,816,816,817,818,819,819,820,822,823,824,827,848,858,875,904,956,972,983,990,997,1014,1027,1038,1044,1055,1092],"ymouse":[514,514,514,514,514,514,514,514,514,514,514,514,514,514,514,514,514,514,510,497,488,483,478,473,467,461,455,449,437,380,356,319,271,199,181,167,155,144,119,105,97,93,87,74],"timestamp_mouse":[4,24,43,65,84,104,124,144,165,183,205,223,243,263,284,304,323,343,365,384,403,424,445,463,484,503,524,544,564,584,604,624,645,664,683,705,724,745,764,784,804,823,843,864],"xSR":741.5,"ySR":469.95,"xT1":424.9,"yT1":0,"xT2":1058.1,"yT2":0,"toosoon":0,"cond_shown":"equaldotsize","ratio_trial":900,"smaller_num":"18","larger_num":"20","correct_side":1,"subjID":"juandavidserrano18","gender":"0","age":"9","school":"4"},{"start_time":1552313404943,"click_time":1552313406036,"finger_time":1552313405595,"fix_duration":367.1310717308721,"trial":61,"RT":652,"MT":441,"sideResp":1,"stimulus":"img/250/equaldotanddens/L/3_Ratio_250_L_8_R_2.png","xmouse":[765,765,765,765,765,765,765,765,765,765,765,765,765,765,765,765,765,765,765,765,765,765,765,765,765,765,765,765,770,773,778,785,796,800,805,807,807,805,795,782,765,706,683,670,661,641,631,631,631,631,631,631,631,538,503],"ymouse":[533,533,533,533,533,533,533,533,533,533,533,533,533,533,533,533,533,533,533,533,533,533,533,533,533,533,533,533,532,523,504,481,414,386,364,344,306,291,273,249,210,97,62,43,30,10,3,3,3,3,3,3,3,7,32],"timestamp_mouse":[14,33,53,73,92,112,132,154,174,192,214,233,254,274,293,312,333,354,374,393,412,433,454,472,494,514,532,553,573,592,614,633,652,673,693,713,733,753,773,793,813,832,853,874,892,913,932,953,973,993,1012,1033,1053,1073,1093],"xSR":741.5,"ySR":469.95,"xT1":424.9,"yT1":0,"xT2":1058.1,"yT2":0,"toosoon":0,"cond_shown":"equaldotanddens","ratio_trial":250,"smaller_num":"2","larger_num":"8","correct_side":1,"subjID":"juandavidserrano18","gender":"0","age":"9","school":"4"},{"start_time":1552313407747,"click_time":1552313408996,"finger_time":1552313408176,"fix_duration":250,"trial":62,"RT":429,"MT":820,"sideResp":1,"stimulus":"img/900/randomdotsizeEA/L/2_Ratio_900_L_20_R_18.png","xmouse":[820,820,819,816,816,816,815,815,814,814,813,813,812,812,812,812,810,809,807,804,800,786,776,766,757,748,742,731,725,722,718,712,695,687,682,681,681,681,681,680,680,678,643,626,611,587,553,537,523,512,508,507,506,506,506,506,504,503,501,495,490,488,486],"ymouse":[538,538,537,536,536,536,535,535,535,534,534,533,533,533,533,533,530,530,528,523,514,466,426,393,366,336,323,303,295,287,278,266,241,231,225,224,222,222,222,221,221,220,209,198,185,165,139,130,124,120,118,118,118,118,117,116,113,112,110,108,106,105,99],"timestamp_mouse":[9,29,49,70,88,109,129,148,168,189,209,228,249,268,289,308,329,348,369,389,409,429,448,470,488,508,528,550,569,590,608,629,648,669,689,709,730,750,769,789,808,828,848,869,890,910,929,948,968,989,1008,1029,1048,1068,1089,1110,1130,1149,1169,1189,1208,1229,1249],"xSR":741.5,"ySR":469.95,"xT1":424.9,"yT1":0,"xT2":1058.1,"yT2":0,"toosoon":0,"cond_shown":"randomdotsizeEA","ratio_trial":900,"smaller_num":"18","larger_num":"20","correct_side":1,"subjID":"juandavidserrano18","gender":"0","age":"9","school":"4"},{"start_time":1552313410993,"click_time":1552313411955,"finger_time":1552313411696,"fix_duration":836.9913062284634,"trial":63,"RT":703,"MT":259,"sideResp":2,"stimulus":"img/900/randomdotsizeEA/L/2_Ratio_900_L_20_R_18.png","xmouse":[777,777,777,777,777,777,777,777,777,777,777,777,777,777,777,777,777,777,777,777,777,777,777,777,777,777,777,777,777,777,777,777,777,784,789,827,853,877,899,916,931,953,962,974,990,1030,1050,1065,1079],"ymouse":[509,509,509,509,509,509,509,509,509,509,509,509,509,509,509,509,509,509,509,509,509,509,509,509,509,509,509,509,509,509,509,509,509,502,495,443,406,364,315,268,233,190,182,175,166,137,119,106,95],"timestamp_mouse":[3,23,44,62,82,103,123,142,163,184,203,223,242,262,284,303,324,342,363,383,404,424,442,462,483,504,524,542,563,583,603,622,642,662,682,703,723,743,762,782,802,823,843,863,882,903,923,943,962],"xSR":741.5,"ySR":469.95,"xT1":424.9,"yT1":0,"xT2":1058.1,"yT2":0,"toosoon":0,"cond_shown":"randomdotsizeEA","ratio_trial":900,"smaller_num":"18","larger_num":"20","correct_side":1,"subjID":"juandavidserrano18","gender":"0","age":"9","school":"4"},{"start_time":1552313414048,"click_time":1552313415676,"finger_time":1552313414755,"fix_duration":1371.5741236049728,"trial":64,"RT":707,"MT":921,"sideResp":2,"stimulus":"img/750/equaldotanddens/R/2_Ratio_750_L_6_R_8.png","xmouse":[786,786,786,786,786,786,786,786,786,786,786,786,786,786,786,786,786,786,786,786,786,786,786,786,786,786,786,786,786,786,786,786,786,786,786,786,782,766,751,737,721,711,705,703,703,703,703,703,702,702,702,702,702,702,702,705,710,745,772,804,845,880,934,961,985,1010,1034,1057,1074,1081,1086,1089,1095,1100,1105,1109,1112,1113,1114,1117,1121,1123],"ymouse":[507,507,507,507,507,507,507,507,507,507,507,507,507,507,507,507,507,507,507,507,507,507,507,507,507,507,507,507,507,507,507,507,507,503,493,465,415,359,324,291,264,246,238,235,235,235,234,234,234,234,234,234,234,234,234,234,234,234,234,234,230,225,219,219,218,215,208,197,184,179,173,169,162,156,149,145,141,134,127,117,104,89],"timestamp_mouse":[9,28,49,68,89,107,128,148,169,189,207,228,249,267,288,308,329,348,367,389,408,428,448,468,488,508,529,548,568,589,609,628,647,668,689,707,728,749,768,788,809,827,847,869,888,908,928,949,968,988,1007,1028,1049,1068,1088,1107,1128,1149,1167,1187,1208,1227,1249,1268,1289,1307,1328,1347,1369,1389,1408,1427,1449,1467,1488,1508,1529,1549,1569,1588,1608,1628],"xSR":741.5,"ySR":469.95,"xT1":424.9,"yT1":0,"xT2":1058.1,"yT2":0,"toosoon":0,"cond_shown":"equaldotanddens","ratio_trial":750,"smaller_num":"6","larger_num":"8","c