[{"start_time":1552073633857,"click_time":1552073634265,"finger_time":1552073633866,"fix_duration":250,"trial":0,"RT":9,"MT":399,"sideResp":1,"stimulus":[],"xmouse":[781,781,781,781,781,781,781,781,781,781,781,781,781,781,781,776,754,710,653,588,494],"ymouse":[539,539,539,539,539,539,539,539,539,539,539,539,539,539,539,519,451,346,214,114,15],"timestamp_mouse":[9,26,47,66,87,106,126,145,167,186,206,227,246,266,285,306,325,346,366,386,407],"xSR":741.5,"ySR":500.5,"xT1":424.9,"yT1":0,"xT2":1058.1,"yT2":0,"toosoon":0,"cond_shown":"Incongruent","ratio_trial":300,"L_num":4,"L_den":5,"R_num":8,"R_den":16,"correct_side":1,"subjID":"juanzubieta2","gender":"0","age":"9","school":"4","test":{"fix_dur":[250,1500],"timestim":1000,"targets_dim":[100,100],"targets_relative_coord":[0.3,0.7],"size_stim":[880,420],"start_dim":[100,100],"size_start":[300,300],"size_fix":60,"samplingrate":20,"img_types":["Congruent","Incongruent"],"ratios":[100,200,300],"rep_conds":19,"nTrials":120,"trials_to_rest":500,"Trials_order":[77,91,65,62,9,117,19,36,71,37,41,75,33,111,55,67,35,80,95,20,46,61,70,84,85,89,24,21,40,47,27,82,104,15,39,22,56,13,81,51,50,1,63,29,99,74,3,64,7,44,59,92,78,116,72,118,102,57,112,93,2,42,28,109,45,30,16,5,10,8,106,105,60,69,17,23,11,58,34,66,4,108,107,25,52,88,97,49,26,31,115,53,87,101,48,73,96,32,54,14,98,83,90,119,100,12,43,86,79,38,94,0,113,103,6,68,110,114,18,76],"cond_shown":["Incongruent","Incongruent","Incongruent","Congruent","Incongruent","Incongruent","Incongruent","Congruent","Incongruent","Incongruent","Incongruent","Incongruent","Incongruent","Incongruent","Incongruent","Incongruent","Incongruent","Congruent","Incongruent","Congruent","Congruent","Incongruent","Congruent","Congruent","Incongruent","Incongruent","Congruent","Incongruent","Congruent","Incongruent","Incongruent","Congruent","Congruent","Incongruent","Incongruent","Congruent","Congruent","Incongruent","Incongruent","Incongruent","Congruent","Incongruent","Incongruent","Incongruent","Incongruent","Congruent","Incongruent","Congruent","Incongruent","Congruent","Incongruent","Congruent","Congruent","Congruent","Congruent","Congruent","Congruent","Incongruent","Congruent","Incongruent","Congruent","Congruent","Congruent","Incongruent","Incongruent","Congruent","Congruent","Incongruent","Congruent","Congruent","Congruent","Incongruent","Congruent","Incongruent","Incongruent","Incongruent","Incongruent","Congruent","Congruent","Congruent","Congruent","Congruent","Incongruent","Incongruent","Congruent","Congruent","Incongruent","Incongruent","Congruent","Incongruent","Incongruent","Incongruent","Incongruent","Incongruent","Congruent","Incongruent","Congruent","Congruent","Congruent","Congruent","Congruent","Incongruent","Congruent","Incongruent","Congruent","Congruent","Incongruent","Congruent","Incongruent","Congruent","Congruent","Congruent","Incongruent","Incongruent","Congruent","Congruent","Congruent","Congruent","Congruent","Congruent"],"ratio_trial":[300,100,300,200,200,200,100,100,300,100,300,200,200,200,100,100,300,200,300,200,300,100,300,100,100,300,100,200,300,300,200,300,200,200,200,300,200,100,200,200,200,100,200,300,200,200,200,300,100,200,300,200,100,200,100,300,100,200,300,200,200,100,300,100,200,100,300,300,300,200,300,200,100,200,300,300,300,300,300,100,300,100,300,100,300,300,100,100,200,100,100,300,200,300,100,100,100,200,100,200,200,300,100,300,300,100,100,200,100,200,300,100,300,100,100,200,200,100,100,300],"left_num":[4,4,3,13,11,9,9,9,3,3,4,1,3,4,3,12,7,20,4,4,3,13,1,12,2,8,7,6,3,13,4,2,3,4,4,4,5,13,11,14,15,9,3,4,7,7,7,1,17,8,1,3,10,3,3,5,3,14,3,7,4,4,1,6,4,3,1,8,1,6,4,7,6,1,4,13,8,18,24,8,1,3,2,9,20,24,10,6,6,10,2,3,14,1,10,10,11,7,12,7,7,13,7,13,20,10,8,5,2,3,24,11,1,10,11,3,9,4,11,1],"right_num":[8,8,4,14,3,8,14,8,4,4,2,3,11,1,11,9,8,9,8,3,4,12,3,13,8,9,15,3,11,12,14,10,11,1,6,2,14,6,3,12,4,20,11,2,4,18,12,11,10,2,3,14,3,11,4,6,4,6,11,8,3,6,3,11,14,2,8,14,19,7,1,4,5,2,2,12,9,9,8,2,7,2,6,20,14,2,9,3,7,8,6,4,12,3,3,8,4,18,13,2,18,12,15,12,8,3,1,14,6,14,2,6,3,8,6,14,13,6,6,11],"left_den":[5,8,6,26,20,15,15,15,6,6,20,2,4,30,5,24,10,25,5,10,6,26,5,30,4,10,14,20,12,26,6,20,10,30,5,5,10,26,20,30,25,10,4,20,15,15,10,5,30,15,2,6,25,10,20,25,20,30,12,10,8,8,5,10,6,6,30,10,3,12,10,15,20,3,20,26,10,20,30,16,20,6,4,10,25,30,25,12,12,25,4,6,30,2,25,25,22,15,30,21,15,26,14,26,25,25,20,10,4,6,30,22,2,25,22,10,30,8,22,5],"right_den":[16,20,20,20,4,10,28,16,20,10,4,10,20,3,22,15,20,15,16,15,5,20,6,26,20,18,25,6,20,15,30,25,22,3,10,4,20,10,4,18,10,25,20,4,6,27,24,22,15,6,15,20,10,22,16,12,16,9,20,16,10,10,6,22,30,5,24,28,30,10,10,6,25,15,4,15,18,15,16,5,20,5,30,25,28,4,18,5,10,16,15,20,18,15,10,16,10,27,26,15,27,15,25,15,16,10,2,20,15,20,4,15,15,16,15,28,26,10,15,22],"correct_side":[1,1,1,2,2,2,1,1,1,1,2,1,1,2,1,2,1,1,1,1,2,2,2,2,1,1,2,2,2,2,1,2,2,2,1,1,2,2,2,2,1,1,1,2,2,2,1,2,2,1,1,2,1,2,2,2,2,2,2,1,1,2,2,1,1,1,2,1,2,2,1,2,1,1,2,2,1,1,1,1,2,1,1,1,1,1,2,2,2,2,1,1,2,1,1,2,1,2,2,1,2,2,2,2,1,1,2,2,1,2,1,1,1,2,1,2,2,2,1,2],"img_shown":["img2/300/Incongruent/L/I_Dist_300_LN_4_LD_5_RN_8_RD_16_0.png","img2/100/Incongruent/L/I_Dist_100_LN_4_LD_8_RN_8_RD_20_0.png","img2/300/Incongruent/L/I_Dist_300_LN_3_LD_6_RN_4_RD_20_0.png","img2/200/Congruent/R/C_Dist_200_LN_13_LD_26_RN_14_RD_20_1.png","img2/200/Incongruent/R/I_Dist_200_LN_11_LD_20_RN_3_RD_4_1.png","img2/200/Incongruent/R/I_Dist_200_LN_9_LD_15_RN_8_RD_10_1.png","img2/100/Incongruent/L/I_Dist_100_LN_9_LD_15_RN_14_RD_28_0.png","img2/100/Congruent/L/C_Dist_100_LN_9_LD_15_RN_8_RD_16_0.png","img2/300/Incongruent/L/I_Dist_300_LN_3_LD_6_RN_4_RD_20_0.png","img2/100/Incongruent/L/I_Dist_100_LN_3_LD_6_RN_4_RD_10_0.png","img2/300/Incongruent/R/I_Dist_300_LN_4_LD_20_RN_2_RD_4_1.png","img2/200/Incongruent/L/I_Dist_200_LN_1_LD_2_RN_3_RD_10_0.png","img2/200/Incongruent/L/I_Dist_200_LN_3_LD_4_RN_11_RD_20_0.png","img2/200/Incongruent/R/I_Dist_200_LN_4_LD_30_RN_1_RD_3_1.png","img2/100/Incongruent/L/I_Dist_100_LN_3_LD_5_RN_11_RD_22_0.png","img2/100/Incongruent/R/I_Dist_100_LN_12_LD_24_RN_9_RD_15_1.png","img2/300/Incongruent/L/I_Dist_300_LN_7_LD_10_RN_8_RD_20_0.png","img2/200/Congruent/L/C_Dist_200_LN_20_LD_25_RN_9_RD_15_0.png","img2/300/Incongruent/L/I_Dist_300_LN_4_LD_5_RN_8_RD_16_0.png","img2/200/Congruent/L/C_Dist_200_LN_4_LD_10_RN_3_RD_15_0.png","img2/300/Congruent/R/C_Dist_300_LN_3_LD_6_RN_4_RD_5_1.png","img2/100/Incongruent/R/I_Dist_100_LN_13_LD_26_RN_12_RD_20_1.png","img2/300/Congruent/R/C_Dist_300_LN_1_LD_5_RN_3_RD_6_1.png","img2/100/Congruent/R/C_Dist_100_LN_12_LD_30_RN_13_RD_26_1.png","img2/100/Incongruent/L/I_Dist_100_LN_2_LD_4_RN_8_RD_20_0.png","img2/300/Incongruent/L/I_Dist_300_LN_8_LD_10_RN_9_RD_18_0.png","img2/100/Congruent/R/C_Dist_100_LN_7_LD_14_RN_15_RD_25_1.png","img2/200/Incongruent/R/I_Dist_200_LN_6_LD_20_RN_3_RD_6_1.png","img2/300/Congruent/R/C_Dist_300_LN_3_LD_12_RN_11_RD_20_1.png","img2/300/Incongruent/R/I_Dist_300_LN_13_LD_26_RN_12_RD_15_1.png","img2/200/Incongruent/L/I_Dist_200_LN_4_LD_6_RN_14_RD_30_0.png","img2/300/Congruent/R/C_Dist_300_LN_2_LD_20_RN_10_RD_25_1.png","img2/200/Congruent/R/C_Dist_200_LN_3_LD_10_RN_11_RD_22_1.png","img2/200/Incongruent/R/I_Dist_200_LN_4_LD_30_RN_1_RD_3_1.png","img2/200/Incongruent/L/I_Dist_200_LN_4_LD_5_RN_6_RD_10_0.png","img2/300/Congruent/L/C_Dist_300_LN_4_LD_5_RN_2_RD_4_0.png","img2/200/Congruent/R/C_Dist_200_LN_5_LD_10_RN_14_RD_20_1.png","img2/100/Incongruent/R/I_Dist_100_LN_13_LD_26_RN_6_RD_10_1.png","img2/200/Incongruent/R/I_Dist_200_LN_11_LD_20_RN_3_RD_4_1.png","img2/200/Incongruent/R/I_Dist_200_LN_14_LD_30_RN_12_RD_18_1.png","img2/200/Congruent/L/C_Dist_200_LN_15_LD_25_RN_4_RD_10_0.png","img2/100/Incongruent/L/I_Dist_100_LN_9_LD_10_RN_20_RD_25_0.png","img2/200/Incongruent/L/I_Dist_200_LN_3_LD_4_RN_11_RD_20_0.png","img2/300/Incongruent/R/I_Dist_300_LN_4_LD_20_RN_2_RD_4_1.png","img2/200/Incongruent/R/I_Dist_200_LN_7_LD_15_RN_4_RD_6_1.png","img2/200/Congruent/R/C_Dist_200_LN_7_LD_15_RN_18_RD_27_1.png","img2/200/Incongruent/L/I_Dist_200_LN_7_LD_10_RN_12_RD_24_0.png","img2/300/Congruent/R/C_Dist_300_LN_1_LD_5_RN_11_RD_22_1.png","img2/100/Incongruent/R/I_Dist_100_LN_17_LD_30_RN_10_RD_15_1.png","img2/200/Congruent/L/C_Dist_200_LN_8_LD_15_RN_2_RD_6_0.png","img2/300/Incongruent/L/I_Dist_300_LN_1_LD_2_RN_3_RD_15_0.png","img2/200/Congruent/R/C_Dist_200_LN_3_LD_6_RN_14_RD_20_1.png","img2/100/Congruent/L/C_Dist_100_LN_10_LD_25_RN_3_RD_10_0.png","img2/200/Congruent/R/C_Dist_200_LN_3_LD_10_RN_11_RD_22_1.png","img2/100/Congruent/R/C_Dist_100_LN_3_LD_20_RN_4_RD_16_1.png","img2/300/Congruent/R/C_Dist_300_LN_5_LD_25_RN_6_RD_12_1.png","img2/100/Congruent/R/C_Dist_100_LN_3_LD_20_RN_4_RD_16_1.png","img2/200/Incongruent/R/I_Dist_200_LN_14_LD_30_RN_6_RD_9_1.png","img2/300/Congruent/R/C_Dist_300_LN_3_LD_12_RN_11_RD_20_1.png","img2/200/Incongruent/L/I_Dist_200_LN_7_LD_10_RN_8_RD_16_0.png","img2/200/Congruent/L/C_Dist_200_LN_4_LD_8_RN_3_RD_10_0.png","img2/100/Congruent/R/C_Dist_100_LN_4_LD_8_RN_6_RD_10_1.png","img2/300/Congruent/R/C_Dist_300_LN_1_LD_5_RN_3_RD_6_1.png","img2/100/Incongruent/L/I_Dist_100_LN_6_LD_10_RN_11_RD_22_0.png","img2/200/Incongruent/L/I_Dist_200_LN_4_LD_6_RN_14_RD_30_0.png","img2/100/Congruent/L/C_Dist_100_LN_3_LD_6_RN_2_RD_5_0.png","img2/300/Congruent/R/C_Dist_300_LN_1_LD_30_RN_8_RD_24_1.png","img2/300/Incongruent/L/I_Dist_300_LN_8_LD_10_RN_14_RD_28_0.png","img2/300/Congruent/R/C_Dist_300_LN_1_LD_3_RN_19_RD_30_1.png","img2/200/Congruent/R/C_Dist_200_LN_6_LD_12_RN_7_RD_10_1.png","img2/300/Congruent/L/C_Dist_300_LN_4_LD_10_RN_1_RD_10_0.png","img2/200/Incongruent/R/I_Dist_200_LN_7_LD_15_RN_4_RD_6_1.png","img2/100/Congruent/L/C_Dist_100_LN_6_LD_20_RN_5_RD_25_0.png","img2/200/Incongruent/L/I_Dist_200_LN_1_LD_3_RN_2_RD_15_0.png","img2/300/Incongruent/R/I_Dist_300_LN_4_LD_20_RN_2_RD_4_1.png","img2/300/Incongruent/R/I_Dist_300_LN_13_LD_26_RN_12_RD_15_1.png","img2/300/Incongruent/L/I_Dist_300_LN_8_LD_10_RN_9_RD_18_0.png","img2/300/Congruent/L/C_Dist_300_LN_18_LD_20_RN_9_RD_15_0.png","img2/300/Congruent/L/C_Dist_300_LN_24_LD_30_RN_8_RD_16_0.png","img2/100/Congruent/L/C_Dist_100_LN_8_LD_16_RN_2_RD_5_0.png","img2/300/Congruent/R/C_Dist_300_LN_1_LD_20_RN_7_RD_20_1.png","img2/100/Congruent/L/C_Dist_100_LN_3_LD_6_RN_2_RD_5_0.png","img2/300/Incongruent/L/I_Dist_300_LN_2_LD_4_RN_6_RD_30_0.png","img2/100/Incongruent/L/I_Dist_100_LN_9_LD_10_RN_20_RD_25_0.png","img2/300/Congruent/L/C_Dist_300_LN_20_LD_25_RN_14_RD_28_0.png","img2/300/Congruent/L/C_Dist_300_LN_24_LD_30_RN_2_RD_4_0.png","img2/100/Incongruent/R/I_Dist_100_LN_10_LD_25_RN_9_RD_18_1.png","img2/100/Incongruent/R/I_Dist_100_LN_6_LD_12_RN_3_RD_5_1.png","img2/200/Congruent/R/C_Dist_200_LN_6_LD_12_RN_7_RD_10_1.png","img2/100/Incongruent/R/I_Dist_100_LN_10_LD_25_RN_8_RD_16_1.png","img2/100/Incongruent/L/I_Dist_100_LN_2_LD_4_RN_6_RD_15_0.png","img2/300/Incongruent/L/I_Dist_300_LN_3_LD_6_RN_4_RD_20_0.png","img2/200/Incongruent/R/I_Dist_200_LN_14_LD_30_RN_12_RD_18_1.png","img2/300/Incongruent/L/I_Dist_300_LN_1_LD_2_RN_3_RD_15_0.png","img2/100/Congruent/L/C_Dist_100_LN_10_LD_25_RN_3_RD_10_0.png","img2/100/Incongruent/R/I_Dist_100_LN_10_LD_25_RN_8_RD_16_1.png","img2/100/Congruent/L/C_Dist_100_LN_11_LD_22_RN_4_RD_10_0.png","img2/200/Congruent/R/C_Dist_200_LN_7_LD_15_RN_18_RD_27_1.png","img2/100/Congruent/R/C_Dist_100_LN_12_LD_30_RN_13_RD_26_1.png","img2/200/Congruent/L/C_Dist_200_LN_7_LD_21_RN_2_RD_15_0.png","img2/200/Congruent/R/C_Dist_200_LN_7_LD_15_RN_18_RD_27_1.png","img2/300/Incongruent/R/I_Dist_300_LN_13_LD_26_RN_12_RD_15_1.png","img2/100/Congruent/R/C_Dist_100_LN_7_LD_14_RN_15_RD_25_1.png","img2/300/Incongruent/R/I_Dist_300_LN_13_LD_26_RN_12_RD_15_1.png","img2/300/Congruent/L/C_Dist_300_LN_20_LD_25_RN_8_RD_16_0.png","img2/100/Congruent/L/C_Dist_100_LN_10_LD_25_RN_3_RD_10_0.png","img2/100/Incongruent/R/I_Dist_100_LN_8_LD_20_RN_1_RD_2_1.png","img2/200/Congruent/R/C_Dist_200_LN_5_LD_10_RN_14_RD_20_1.png","img2/100/Incongruent/L/I_Dist_100_LN_2_LD_4_RN_6_RD_15_0.png","img2/200/Congruent/R/C_Dist_200_LN_3_LD_6_RN_14_RD_20_1.png","img2/300/Congruent/L/C_Dist_300_LN_24_LD_30_RN_2_RD_4_0.png","img2/100/Congruent/L/C_Dist_100_LN_11_LD_22_RN_6_RD_15_0.png","img2/300/Incongruent/L/I_Dist_300_LN_1_LD_2_RN_3_RD_15_0.png","img2/100/Incongruent/R/I_Dist_100_LN_10_LD_25_RN_8_RD_16_1.png","img2/100/Congruent/L/C_Dist_100_LN_11_LD_22_RN_6_RD_15_0.png","img2/200/Congruent/R/C_Dist_200_LN_3_LD_10_RN_14_RD_28_1.png","img2/200/Congruent/R/C_Dist_200_LN_9_LD_30_RN_13_RD_26_1.png","img2/100/Congruent/R/C_Dist_100_LN_4_LD_8_RN_6_RD_10_1.png","img2/100/Congruent/L/C_Dist_100_LN_11_LD_22_RN_6_RD_15_0.png","img2/300/Congruent/R/C_Dist_300_LN_1_LD_5_RN_11_RD_22_1.png"],"dist100_C":[["C_Dist_100_LN_10_LD_25_RN_3_RD_10_0.png","C_Dist_100_LN_11_LD_22_RN_4_RD_10_0.png","C_Dist_100_LN_11_LD_22_RN_6_RD_15_0.png","C_Dist_100_LN_15_LD_25_RN_13_RD_26_0.png","C_Dist_100_LN_3_LD_6_RN_2_RD_5_0.png","C_Dist_100_LN_6_LD_20_RN_5_RD_25_0.png","C_Dist_100_LN_8_LD_16_RN_2_RD_5_0.png","C_Dist_100_LN_9_LD_15_RN_8_RD_16_0.png"],["C_Dist_100_LN_1_LD_2_RN_18_RD_30_1.png","C_Dist_100_LN_1_LD_2_RN_3_RD_5_1.png","C_Dist_100_LN_12_LD_30_RN_13_RD_26_1.png","C_Dist_100_LN_2_LD_5_RN_11_RD_22_1.png","C_Dist_100_LN_2_LD_5_RN_6_RD_12_1.png","C_Dist_100_LN_3_LD_20_RN_4_RD_16_1.png","C_Dist_100_LN_4_LD_10_RN_15_RD_30_1.png","C_Dist_100_LN_4_LD_8_RN_6_RD_10_1.png","C_Dist_100_LN_6_LD_12_RN_15_RD_25_1.png","C_Dist_100_LN_7_LD_14_RN_15_RD_25_1.png","C_Dist_100_LN_7_LD_14_RN_9_RD_15_1.png"]],"dist100_I":[["I_Dist_100_LN_1_LD_2_RN_8_RD_20_0.png","I_Dist_100_LN_2_LD_4_RN_6_RD_15_0.png","I_Dist_100_LN_2_LD_4_RN_8_RD_20_0.png","I_Dist_100_LN_3_LD_5_RN_11_RD_22_0.png","I_Dist_100_LN_3_LD_5_RN_8_RD_16_0.png","I_Dist_100_LN_3_LD_6_RN_4_RD_10_0.png","I_Dist_100_LN_3_LD_9_RN_7_RD_30_0.png","I_Dist_100_LN_4_LD_8_RN_8_RD_20_0.png","I_Dist_100_LN_6_LD_10_RN_11_RD_22_0.png","I_Dist_100_LN_6_LD_10_RN_13_RD_26_0.png","I_Dist_100_LN_6_LD_10_RN_7_RD_14_0.png","I_Dist_100_LN_9_LD_10_RN_20_RD_25_0.png","I_Dist_100_LN_9_LD_15_RN_13_RD_26_0.png","I_Dist_100_LN_9_LD_15_RN_14_RD_28_0.png"],["I_Dist_100_LN_10_LD_25_RN_8_RD_16_1.png","I_Dist_100_LN_10_LD_25_RN_9_RD_18_1.png","I_Dist_100_LN_11_LD_22_RN_9_RD_15_1.png","I_Dist_100_LN_12_LD_24_RN_9_RD_15_1.png","I_Dist_100_LN_12_LD_30_RN_2_RD_4_1.png","I_Dist_100_LN_13_LD_26_RN_12_RD_20_1.png","I_Dist_100_LN_13_LD_26_RN_6_RD_10_1.png","I_Dist_100_LN_17_LD_30_RN_10_RD_15_1.png","I_Dist_100_LN_6_LD_12_RN_3_RD_5_1.png","I_Dist_100_LN_8_LD_16_RN_6_RD_10_1.png","I_Dist_100_LN_8_LD_20_RN_1_RD_2_1.png","I_Dist_100_LN_9_LD_18_RN_6_RD_10_1.png"]],"dist100_S":[["E_Dist_100_LN_2_LD_12_RN_2_RD_30_0.png","E_Dist_100_LN_6_LD_10_RN_6_RD_12_0.png"],["E_Dist_100_LN_6_LD_12_RN_6_RD_10_1.png"]],"dist200_C":[["C_Dist_200_LN_11_LD_22_RN_3_RD_10_0.png","C_Dist_200_LN_12_LD_15_RN_6_RD_10_0.png","C_Dist_200_LN_12_LD_20_RN_6_RD_15_0.png","C_Dist_200_LN_14_LD_28_RN_6_RD_20_0.png","C_Dist_200_LN_15_LD_25_RN_4_RD_10_0.png","C_Dist_200_LN_16_LD_20_RN_12_RD_20_0.png","C_Dist_200_LN_16_LD_30_RN_9_RD_27_0.png","C_Dist_200_LN_20_LD_25_RN_9_RD_15_0.png","C_Dist_200_LN_21_LD_30_RN_2_RD_4_0.png","C_Dist_200_LN_4_LD_10_RN_3_RD_15_0.png","C_Dist_200_LN_4_LD_8_RN_3_RD_10_0.png","C_Dist_200_LN_6_LD_15_RN_3_RD_15_0.png","C_Dist_200_LN_7_LD_21_RN_2_RD_15_0.png","C_Dist_200_LN_8_LD_15_RN_2_RD_6_0.png","C_Dist_200_LN_8_LD_15_RN_3_RD_9_0.png","C_Dist_200_LN_8_LD_15_RN_7_RD_21_0.png","C_Dist_200_LN_9_LD_20_RN_4_RD_16_0.png"],["C_Dist_200_LN_1_LD_2_RN_21_RD_30_1.png","C_Dist_200_LN_13_LD_26_RN_14_RD_20_1.png","C_Dist_200_LN_3_LD_10_RN_11_RD_22_1.png","C_Dist_200_LN_3_LD_10_RN_14_RD_28_1.png","C_Dist_200_LN_3_LD_10_RN_7_RD_14_1.png","C_Dist_200_LN_3_LD_12_RN_9_RD_20_1.png","C_Dist_200_LN_3_LD_6_RN_14_RD_20_1.png","C_Dist_200_LN_5_LD_10_RN_14_RD_20_1.png","C_Dist_200_LN_6_LD_12_RN_7_RD_10_1.png","C_Dist_200_LN_6_LD_20_RN_11_RD_22_1.png","C_Dist_200_LN_7_LD_15_RN_18_RD_27_1.png","C_Dist_200_LN_9_LD_30_RN_13_RD_26_1.png"]],"dist200_I":[["I_Dist_200_LN_1_LD_2_RN_3_RD_10_0.png","I_Dist_200_LN_1_LD_3_RN_2_RD_15_0.png","I_Dist_200_LN_3_LD_4_RN_11_RD_20_0.png","I_Dist_200_LN_4_LD_5_RN_6_RD_10_0.png","I_Dist_200_LN_4_LD_6_RN_14_RD_30_0.png","I_Dist_200_LN_7_LD_10_RN_12_RD_24_0.png","I_Dist_200_LN_7_LD_10_RN_14_RD_28_0.png","I_Dist_200_LN_7_LD_10_RN_8_RD_16_0.png"],["I_Dist_200_LN_11_LD_20_RN_3_RD_4_1.png","I_Dist_200_LN_14_LD_30_RN_12_RD_18_1.png","I_Dist_200_LN_14_LD_30_RN_6_RD_9_1.png","I_Dist_200_LN_3_LD_10_RN_1_RD_2_1.png","I_Dist_200_LN_4_LD_30_RN_1_RD_3_1.png","I_Dist_200_LN_6_LD_20_RN_3_RD_6_1.png","I_Dist_200_LN_7_LD_15_RN_4_RD_6_1.png","I_Dist_200_LN_7_LD_15_RN_6_RD_9_1.png","I_Dist_200_LN_9_LD_15_RN_8_RD_10_1.png"]],"dist200_S":[["E_Dist_200_LN_3_LD_6_RN_3_RD_10_0.png"],["E_Dist_200_LN_3_LD_10_RN_3_RD_6_1.png"]],"dist300_C":[["C_Dist_300_LN_11_LD_22_RN_1_RD_5_0.png","C_Dist_300_LN_11_LD_22_RN_2_RD_10_0.png","C_Dist_300_LN_11_LD_22_RN_4_RD_20_0.png","C_Dist_300_LN_12_LD_24_RN_2_RD_10_0.png","C_Dist_300_LN_18_LD_20_RN_9_RD_15_0.png","C_Dist_300_LN_20_LD_25_RN_13_RD_26_0.png","C_Dist_300_LN_20_LD_25_RN_14_RD_28_0.png","C_Dist_300_LN_20_LD_25_RN_5_RD_10_0.png","C_Dist_300_LN_20_LD_25_RN_8_RD_16_0.png","C_Dist_300_LN_20_LD_25_RN_9_RD_18_0.png","C_Dist_300_LN_24_LD_30_RN_2_RD_4_0.png","C_Dist_300_LN_24_LD_30_RN_8_RD_16_0.png","C_Dist_300_LN_3_LD_6_RN_2_RD_10_0.png","C_Dist_300_LN_4_LD_10_RN_1_RD_10_0.png","C_Dist_300_LN_4_LD_5_RN_2_RD_4_0.png","C_Dist_300_LN_8_LD_16_RN_1_RD_5_0.png","C_Dist_300_LN_9_LD_10_RN_3_RD_5_0.png"],["C_Dist_300_LN_1_LD_20_RN_7_RD_20_1.png","C_Dist_300_LN_1_LD_3_RN_19_RD_30_1.png","C_Dist_300_LN_1_LD_30_RN_8_RD_24_1.png","C_Dist_300_LN_1_LD_5_RN_11_RD_22_1.png","C_Dist_300_LN_1_LD_5_RN_3_RD_6_1.png","C_Dist_300_LN_1_LD_5_RN_6_RD_12_1.png","C_Dist_300_LN_2_LD_10_RN_12_RD_24_1.png","C_Dist_300_LN_2_LD_20_RN_10_RD_25_1.png","C_Dist_300_LN_3_LD_12_RN_11_RD_20_1.png","C_Dist_300_LN_3_LD_6_RN_4_RD_5_1.png","C_Dist_300_LN_4_LD_20_RN_13_RD_26_1.png","C_Dist_300_LN_5_LD_25_RN_6_RD_12_1.png","C_Dist_300_LN_5_LD_25_RN_7_RD_14_1.png","C_Dist_300_LN_7_LD_14_RN_20_RD_25_1.png","C_Dist_300_LN_8_LD_15_RN_10_RD_12_1.png"]],"dist300_I":[["I_Dist_300_LN_1_LD_2_RN_2_RD_10_0.png","I_Dist_300_LN_1_LD_2_RN_3_RD_15_0.png","I_Dist_300_LN_2_LD_4_RN_6_RD_30_0.png","I_Dist_300_LN_3_LD_6_RN_4_RD_20_0.png","I_Dist_300_LN_4_LD_5_RN_6_RD_12_0.png","I_Dist_300_LN_4_LD_5_RN_8_RD_16_0.png","I_Dist_300_LN_7_LD_10_RN_8_RD_20_0.png","I_Dist_300_LN_8_LD_10_RN_14_RD_28_0.png","I_Dist_300_LN_8_LD_10_RN_9_RD_18_0.png"],["I_Dist_300_LN_13_LD_26_RN_12_RD_15_1.png","I_Dist_300_LN_4_LD_20_RN_2_RD_4_1.png"]],"dist300_S":[["E_Dist_300_LN_9_LD_12_RN_9_RD_20_0.png"],["E_Dist_300_LN_18_LD_30_RN_18_RD_20_1.png","E_Dist_300_LN_3_LD_10_RN_3_RD_5_1.png","E_Dist_300_LN_9_LD_20_RN_9_RD_12_1.png"]],"dist500_C":[["C_Dist_500_LN_10_LD_13_RN_7_RD_26_0.png","C_Dist_500_LN_10_LD_15_RN_4_RD_24_0.png","C_Dist_500_LN_12_LD_16_RN_3_RD_12_0.png","C_Dist_500_LN_12_LD_18_RN_4_RD_24_0.png","C_Dist_500_LN_15_LD_18_RN_5_RD_15_0.png","C_Dist_500_LN_15_LD_20_RN_1_RD_4_0.png","C_Dist_500_LN_18_LD_27_RN_1_RD_6_0.png","C_Dist_500_LN_20_LD_24_RN_1_RD_3_0.png","C_Dist_500_LN_20_LD_24_RN_3_RD_9_0.png","C_Dist_500_LN_20_LD_24_RN_7_RD_21_0.png","C_Dist_500_LN_20_LD_28_RN_3_RD_14_0.png","C_Dist_500_LN_21_LD_28_RN_6_RD_24_0.png","C_Dist_500_LN_22_LD_28_RN_2_RD_7_0.png","C_Dist_500_LN_25_LD_30_RN_9_RD_27_0.png","C_Dist_500_LN_4_LD_6_RN_1_RD_6_0.png","C_Dist_500_LN_5_LD_6_RN_2_RD_6_0.png","C_Dist_500_LN_6_LD_9_RN_1_RD_6_0.png","C_Dist_500_LN_7_LD_10_RN_1_RD_5_0.png","C_Dist_500_LN_8_LD_12_RN_1_RD_6_0.png","C_Dist_500_LN_8_LD_12_RN_4_RD_24_0.png"],["C_Dist_500_LN_1_LD_4_RN_12_RD_16_1.png","C_Dist_500_LN_1_LD_4_RN_9_RD_12_1.png","C_Dist_500_LN_1_LD_9_RN_11_RD_18_1.png","C_Dist_500_LN_10_LD_24_RN_22_RD_24_1.png","C_Dist_500_LN_2_LD_12_RN_10_RD_15_1.png","C_Dist_500_LN_2_LD_12_RN_12_RD_18_1.png","C_Dist_500_LN_2_LD_12_RN_4_RD_6_1.png","C_Dist_500_LN_2_LD_24_RN_7_RD_12_1.png","C_Dist_500_LN_2_LD_5_RN_18_RD_20_1.png","C_Dist_500_LN_2_LD_5_RN_9_RD_10_1.png","C_Dist_500_LN_2_LD_8_RN_12_RD_16_1.png","C_Dist_500_LN_2_LD_8_RN_21_RD_28_1.png","C_Dist_500_LN_3_LD_10_RN_4_RD_5_1.png","C_Dist_500_LN_3_LD_12_RN_15_RD_20_1.png","C_Dist_500_LN_3_LD_30_RN_6_RD_10_1.png","C_Dist_500_LN_3_LD_8_RN_14_RD_16_1.png","C_Dist_500_LN_4_LD_16_RN_15_RD_20_1.png","C_Dist_500_LN_4_LD_24_RN_12_RD_18_1.png","C_Dist_500_LN_5_LD_14_RN_6_RD_7_1.png","C_Dist_500_LN_7_LD_21_RN_20_RD_24_1.png","C_Dist_500_LN_7_LD_28_RN_12_RD_16_1.png","C_Dist_500_LN_7_LD_28_RN_9_RD_12_1.png","C_Dist_500_LN_9_LD_27_RN_20_RD_24_1.png"]],"dist500_I":[["I_Dist_500_LN_2_LD_3_RN_4_RD_24_0.png","I_Dist_500_LN_5_LD_6_RN_6_RD_18_0.png","I_Dist_500_LN_7_LD_8_RN_9_RD_24_0.png"],["I_Dist_500_LN_7_LD_21_RN_5_RD_6_1.png"]],"dist500_S":[["E_Dist_500_LN_6_LD_8_RN_6_RD_24_0.png"],["E_Dist_500_LN_2_LD_12_RN_2_RD_3_1.png","E_Dist_500_LN_6_LD_24_RN_6_RD_8_1.png"]]}},{"start_time":1552073636544,"click_time":1552073638683,"finger_time":1552073637983,"fix_duration":1238.1860904747416,"trial":1,"RT":1439,"MT":700,"sideResp":2,"stimulus":[],"xmouse":[768,768,768,768,768,768,768,768,768,768,768,768,768,768,768,768,768,768,768,768,768,768,768,768,768,768,768,768,768,768,768,768,768,768,768,768,768,768,768,768,768,768,768,768,768,768,768,768,768,768,768,768,768,768,768,768,768,768,768,768,768,768,768,768,768,768,768,768,768,768,768,778,794,807,823,843,879,1000,1054,1109,1166,1261,1285,1300,1312,1328,1396,1435,1437,1433,1404,1295,1287,1287,1287,1287,1263,1227,1200,1189,1187,1187,1187,1187,1187,1180,1159,1156],"ymouse":[597,597,597,597,597,597,597,597,597,597,597,597,597,597,597,597,597,597,597,597,597,597,597,597,597,597,597,597,597,597,597,597,597,597,597,597,597,597,597,597,597,597,597,597,597,597,597,597,597,597,597,597,597,597,597,597,597,597,597,597,597,597,597,597,597,597,597,597,597,597,597,581,563,552,547,542,531,455,404,349,300,239,222,211,201,193,172,148,134,124,119,129,134,134,134,134,108,74,49,37,32,32,32,32,31,31,32,33],"timestamp_mouse":[1,19,42,60,79,99,119,138,159,180,199,220,239,260,279,298,320,339,358,380,399,418,440,460,478,499,519,538,560,579,599,619,639,659,679,698,720,739,759,780,800,819,840,858,880,900,920,940,960,980,999,1019,1039,1059,1078,1100,1120,1138,1160,1180,1200,1220,1239,1259,1280,1298,1320,1340,1359,1379,1399,1419,1439,1460,1479,1498,1520,1540,1559,1579,1599,1619,1638,1659,1680,1699,1719,1739,1760,1779,1799,1820,1838,1859,1879,1899,1920,1939,1960,1980,2000,2020,2039,2060,2079,2099,2119,2138],"xSR":741.5,"ySR":573.95,"xT1":424.9,"yT1":0,"xT2":1058.1,"yT2":0,"toosoon":0,"cond_shown":"Incongruent","ratio_trial":100,"L_num":4,"L_den":8,"R_num":8,"R_den":20,"correct_side":1,"subjID":"juanzubieta2","gender":"0","school":"4","age":"9"},{"start_time":1552073643230,"click_time":1552073646083,"finger_time":1552073645463,"fix_duration":1144.9398327975498,"trial":2,"RT":2233,"MT":620,"sideResp":1,"stimulus":[],"xmouse":[786,786,786,786,786,786,786,786,786,786,786,786,786,786,786,786,786,786,786,786,786,786,786,786,786,786,786,786,786,786,786,786,786,786,786,786,786,786,786,786,786,786,786,786,786,786,786,786,786,786,786,786,786,786,786,786,786,786,786,786,786,786,786,786,786,786,786,786,786,786,786,786,786,786,786,786,786,786,789,792,792,792,792,792,792,792,792,792,792,792,792,792,792,792,792,792,792,792,792,792,792,791,790,789,789,789,789,785,779,765,752,736,709,687,675,665,659,655,654,650,642,632,599,588,582,577,574,570,544,523,501,487,473,470,469,469,469,469,476,495,508,513,495],"ymouse":[611,611,611,611,611,611,611,611,611,611,611,611,611,611,611,611,611,611,611,611,611,611,611,611,611,611,611,611,611,611,611,611,611,611,611,611,611,611,611,611,611,611,611,611,611,611,611,611,611,611,611,611,611,611,611,611,611,611,611,611,611,611,611,611,611,611,611,611,611,611,611,611,611,611,611,611,611,611,613,616,623,627,627,627,627,627,627,627,627,627,627,627,627,627,627,627,627,627,627,627,627,627,619,618,618,618,617,617,613,594,576,555,506,469,440,415,397,376,362,347,328,305,256,241,235,233,230,225,198,188,180,173,158,151,148,148,148,148,146,142,138,131,89],"timestamp_mouse":[13,34,53,74,92,113,134,152,172,192,213,234,254,272,293,313,334,354,374,394,413,434,452,473,494,513,534,552,573,593,614,634,653,674,694,714,733,754,773,794,814,834,853,873,893,913,933,954,973,993,1013,1033,1054,1074,1093,1114,1134,1154,1173,1194,1213,1233,1252,1272,1293,1313,1334,1352,1372,1393,1412,1434,1452,1472,1493,1513,1534,1553,1573,1592,1614,1634,1654,1674,1693,1713,1734,1754,1773,1793,1813,1833,1854,1874,1894,1913,1933,1954,1974,1994,2014,2033,2052,2074,2094,2114,2133,2153,2173,2193,2213,2233,2253,2273,2294,2313,2334,2352,2373,2393,2413,2433,2453,2473,2494,2513,2534,2553,2574,2593,2613,2633,2653,2673,2694,2713,2733,2753,2772,2793,2814,2834,2853],"xSR":741.5,"ySR":573.95,"xT1":424.9,"yT1":0,"xT2":1058.1,"yT2":0,"toosoon":0,"cond_shown":"Incongruent","ratio_trial":300,"L_num":3,"L_den":6,"R_num":4,"R_den":20,"correct_side":1,"subjID":"juanzubieta2","gender":"0","school":"4","age":"9"},{"start_time":1552073647738,"click_time":1552073649623,"finger_time":1552073649123,"fix_duration":593.2406347592357,"trial":3,"RT":1385,"MT":500,"sideResp":2,"stimulus":[],"xmouse":[794,796,807,818,818,818,818,819,824,825,825,825,826,826,826,826,826,826,826,826,826,826,826,826,826,826,826,826,826,826,826,826,826,826,825,825,825,825,824,824,822,821,820,820,820,820,820,820,820,820,820,820,820,820,820,820,820,820,820,820,820,820,820,820,820,820,820,820,831,845,875,906,931,958,972,989,1002,1013,1022,1023,1023,1023,1023,1023,1026,1034,1046,1072,1084,1085,1087,1089,1092,1095,1097],"ymouse":[632,634,646,654,654,654,654,654,654,654,653,650,648,648,648,648,648,648,648,648,648,648,648,648,648,648,648,648,648,648,648,648,648,648,648,648,648,648,648,648,648,648,648,648,648,648,648,648,648,648,648,648,648,648,648,648,648,648,648,648,648,648,648,648,648,648,648,643,615,586,530,482,444,397,378,361,351,341,327,320,311,303,290,283,270,254,236,205,183,179,175,168,155,115,73],"timestamp_mouse":[5,26,46,66,85,105,125,146,165,186,205,225,245,265,286,304,325,345,366,385,406,426,445,466,486,505,525,545,566,586,606,625,645,665,685,706,725,746,766,785,805,826,845,866,886,905,925,946,966,985,1005,1026,1045,1066,1086,1106,1125,1146,1164,1185,1204,1226,1245,1264,1285,1305,1325,1345,1365,1385,1405,1425,1445,1466,1485,1504,1525,1545,1565,1585,1605,1625,1645,1664,1685,1705,1725,1746,1765,1785,1805,1824,1845,1866,1885],"xSR":741.5,"ySR":573.95,"xT1":424.9,"yT1":0,"xT2":1058.1,"yT2":0,"toosoon":0,"cond_shown":"Congruent","ratio_trial":200,"L_num":13,"L_den":26,"R_num":14,"R_den":20,"correct_side":2,"subjID":"juanzubieta2","gender":"0","school":"4","age":"9"},{"start_time":1552073655937,"click_time":1552073658004,"finger_time":1552073657403,"fix_duration":1252.3559610329442,"trial":4,"RT":1466,"MT":601,"sideResp":2,"stimulus":[],"xmouse":[790,790,790,790,790,790,790,790,790,790,790,790,790,790,790,790,790,790,790,790,790,790,790,790,790,790,790,790,790,790,790,790,790,790,790,790,790,790,790,790,790,790,790,790,790,790,790,790,790,790,790,790,790,790,790,790,790,790,790,790,790,790,790,790,790,790,790,790,790,790,790,790,798,845,905,981,1068,1130,1162,1165,1170,1176,1183,1193,1194,1194,1194,1194,1195,1198,1199,1199,1212,1206,1218,1232,1252,1258,1256,1234,1223,1196,1165,1133],"ymouse":[650,650,650,650,650,650,650,650,650,650,650,650,650,650,650,650,650,650,650,650,650,650,650,650,650,650,650,650,650,650,650,650,650,650,650,650,650,650,650,650,650,650,650,650,650,650,650,650,650,650,650,650,650,650,650,650,650,650,650,650,650,650,650,650,650,650,650,650,650,650,650,650,643,603,574,548,522,507,483,473,461,450,440,425,421,420,420,420,416,401,379,353,265,84,0,0,0,0,0,0,0,11,34,59],"timestamp_mouse":[12,26,46,66,86,106,127,146,166,187,207,226,247,266,287,307,325,347,367,387,405,427,447,467,485,507,527,546,567,586,607,627,646,667,685,706,726,745,767,787,805,826,846,865,887,905,926,947,966,986,1006,1026,1047,1066,1087,1107,1127,1147,1165,1187,1207,1225,1247,1267,1286,1307,1327,1346,1367,1387,1407,1427,1446,1466,1485,1506,1526,1546,1566,1587,1606,1625,1647,1666,1685,1707,1726,1747,1766,1786,1805,1826,1846,1865,1886,1906,1925,1947,1967,1987,2006,2027,2046,2067],"xSR":741.5,"ySR":573.95,"xT1":424.9,"yT1":0,"xT2":1058.1,"yT2":0,"toosoon":0,"cond_shown":"Incongruent","ratio_trial":200,"L_num":11,"L_den":20,"R_num":3,"R_den":4,"correct_side":2,"subjID":"juanzubieta2","gender":"0","school":"4","age":"9"},{"start_time":1552073659674,"click_time":1552073661484,"finger_time":1552073660803,"fix_duration":250,"trial":5,"RT":1129,"MT":681,"sideResp":2,"stimulus":[],"xmouse":[794,794,794,794,794,794,794,794,794,793,792,791,791,791,791,791,791,791,791,791,791,790,790,790,790,790,790,790,790,790,790,790,790,790,790,790,790,790,790,790,790,790,790,790,790,790,790,790,790,790,790,790,790,790,793,810,963,1404,1404,1404,1404,1404,1404,1404,1404,1404,1404,1573,1551,1470,1406,1343,1252,1212,1186,1168,1159,1201,1292,1323,1331,1332,1296,1182,1039,917,863,862,915,1005,1106],"ymouse":[638,638,638,638,638,638,638,638,638,638,638,638,638,638,638,638,638,638,638,638,638,638,638,638,638,638,638,638,638,638,638,638,638,638,638,638,638,638,638,638,638,638,638,638,638,638,638,638,638,638,638,638,638,638,633,623,566,369,369,369,369,369,369,369,369,369,369,2,3,0,0,0,0,0,0,1,9,38,63,69,70,70,71,74,72,54,43,42,37,37,33],"timestamp_mouse":[9,29,50,69,89,110,130,149,170,189,209,230,248,269,290,308,329,349,370,388,409,430,449,469,490,509,530,549,570,589,609,630,649,670,688,709,728,749,770,790,810,828,850,870,889,908,930,950,970,990,1008,1028,1049,1070,1090,1109,1129,1149,1169,1189,1209,1229,1251,1269,1289,1309,1328,1351,1370,1389,1408,1429,1450,1469,1489,1509,1529,1549,1569,1589,1609,1629,1649,1669,1689,1709,1730,1749,1769,1788,1810],"xSR":741.5,"ySR":573.95,"xT1":424.9,"yT1":0,"xT2":1058.1,"yT2":0,"toosoon":0,"cond_shown":"Incongruent","ratio_trial":200,"L_num":9,"L_den":15,"R_num":8,"R_den":10,"correct_side":2,"subjID":"juanzubieta2","gender":"0","school":"4","age":"9"},{"start_time":1552073663700,"click_time":1552073665004,"finger_time":1552073664823,"fix_duration":595.2599128819974,"trial":6,"RT":1123,"MT":181,"sideResp":1,"stimulus":[],"xmouse":[775,775,775,775,775,775,775,775,775,775,775,775,775,775,775,775,775,775,775,775,775,775,775,775,775,775,775,775,775,775,775,775,775,775,775,775,775,775,775,775,775,775,775,775,775,775,775,775,775,775,775,774,772,768,764,750,682,654,648,642,631,612,568,542,513,482],"ymouse":[604,604,604,604,604,604,604,604,604,604,604,604,604,604,604,604,604,604,604,604,604,604,604,604,604,604,604,604,604,604,604,604,604,604,604,604,604,604,604,604,604,604,604,604,604,604,604,604,604,604,604,604,604,604,602,589,498,428,396,370,332,281,200,164,127,91],"timestamp_mouse":[11,23,44,64,83,102,123,144,162,183,204,223,244,263,283,303,323,344,363,384,403,424,442,464,484,504,523,543,563,584,603,624,642,664,684,704,724,742,764,783,802,823,844,864,883,904,924,943,964,984,1004,1023,1043,1064,1083,1104,1123,1143,1163,1184,1203,1222,1243,1264,1283,1304],"xSR":741.5,"ySR":573.95,"xT1":424.9,"yT1":0,"xT2":1058.1,"yT2":0,"toosoon":0,"cond_shown":"Incongruent","ratio_trial":100,"L_num":9,"L_den":15,"R_num":14,"R_den":28,"correct_side":1,"subjID":"juanzubieta2","gender":"0","school":"4","age":"9"},{"start_time":1552073666925,"click_time":1552073668604,"finger_time":1552073668043,"fix_duration":519.4339569906274,"trial":7,"RT":1118,"MT":561,"sideResp":1,"stimulus":[],"xmouse":[835,835,835,835,835,835,835,835,835,835,835,835,835,835,835,835,834,834,833,833,833,833,833,833,833,833,833,833,833,833,833,833,833,833,833,833,833,833,833,833,833,833,833,833,833,833,833,833,833,833,833,833,831,815,778,736,709,691,685,682,678,678,677,672,667,655,643,627,609,595,580,573,559,551,518,479,471,470,469,469,469,465,458,446],"ymouse":[617,617,617,617,617,617,617,617,617,617,617,617,617,617,617,617,617,617,617,617,617,617,617,617,617,617,617,617,617,617,617,617,617,617,617,617,617,617,617,617,617,617,617,617,617,617,617,617,617,617,617,617,617,613,602,543,498,459,435,412,373,352,328,302,267,235,218,198,185,176,173,172,171,171,170,160,155,154,154,153,141,127,111,88],"timestamp_mouse":[18,39,58,79,99,119,139,159,179,198,218,238,259,279,300,318,338,359,379,399,419,438,458,478,499,518,540,558,579,598,619,638,658,679,699,718,738,758,779,800,818,839,859,878,898,919,939,959,980,998,1019,1039,1058,1079,1099,1118,1138,1159,1179,1198,1218,1238,1259,1278,1298,1318,1338,1358,1378,1399,1418,1438,1458,1479,1499,1520,1538,1558,1578,1599,1618,1638,1658,1678],"xSR":741.5,"ySR":573.95,"xT1":424.9,"yT1":0,"xT2":1058.1,"yT2":0,"toosoon":0,"cond_shown":"Congruent","ratio_trial":100,"L_num":9,"L_den":15,"R_num":8,"R_den":16,"correct_side":1,"subjID":"juanzubieta2","gender":"0","school":"4","age":"9"},{"start_time":1552073672006,"click_time":1552073673904,"finger_time":1552073673003,"fix_duration":439.4396750116712,"trial":8,"RT":997,"MT":901,"sideResp":1,"stimulus":[],"xmouse":[744,744,744,744,744,744,744,744,744,744,744,744,744,744,744,744,744,744,744,744,744,744,744,744,744,744,744,744,744,744,744,744,744,744,744,744,744,744,744,744,744,744,744,744,744,744,744,766,802,842,887,953,989,1020,1038,1042,1044,1044,1045,1045,1046,1046,1046,1046,1046,1046,1046,1046,1041,1035,1027,1006,995,983,972,959,930,906,889,865,838,787,772,769,762,747,680,657,647,642,635,598,565,533,512],"ymouse":[619,619,619,619,619,619,619,619,619,619,619,619,619,619,619,619,619,619,619,619,619,619,619,619,619,619,619,619,619,619,619,619,619,619,619,619,619,619,619,619,619,619,619,619,619,619,619,610,591,567,541,461,392,319,276,253,231,227,225,222,219,217,217,217,217,217,217,217,219,225,235,267,284,304,329,358,441,476,486,488,488,488,488,487,457,380,191,137,116,103,91,59,37,18,6],"timestamp_mouse":[19,39,57,78,98,119,138,158,178,198,217,237,257,278,299,318,338,358,378,398,418,438,457,478,498,518,538,558,578,598,617,637,658,677,698,718,738,758,777,797,817,838,858,879,898,918,937,957,977,997,1018,1038,1057,1077,1098,1117,1138,1157,1177,1198,1217,1238,1259,1278,1298,1318,1338,1358,1377,1397,1417,1437,1457,1477,1498,1518,1537,1557,1577,1599,1618,1637,1657,1677,1697,1718,1738,1758,1777,1797,1818,1838,1857,1877,1898],"xSR":741.5,"ySR":573.95,"xT1":424.9,"yT1":0,"xT2":1058.1,"yT2":0,"toosoon":0,"cond_shown":"Incongruent","ratio_trial":300,"L_num":3,"L_den":6,"R_num":4,"R_den":20,"correct_side":1,"subjID":"juanzubieta2","gender":"0","school":"4","age":"9"},{"start_time":1552073685092,"click_time":1552073687984,"finger_time":1552073687283,"fix_duration":1066.545131849347,"trial":9,"RT":2191,"MT":701,"sideResp":1,"stimulus":[],"xmouse":[798,798,798,797,796,796,796,796,796,796,796,796,796,796,792,788,786,785,783,775,773,773,773,773,773,773,773,773,773,773,773,773,773,773,773,773,773,773,773,773,773,773,773,773,773,773,773,773,773,773,773,773,773,773,773,773,773,773,773,774,774,774,774,774,774,774,774,774,774,774,774,774,774,774,774,774,774,774,774,774,774,774,774,774,774,774,774,774,774,774,774,774,774,773,771,766,765,761,760,760,760,760,760,759,760,760,762,764,766,778,785,787,788,788,747,724,604,499,420,384,384,384,384,384,385,385,378,377,392,564,636,673,675,664,629,614,601,598,598,593,585,571,550,528,482],"ymouse":[623,623,624,624,625,625,625,625,625,625,625,625,625,625,625,625,625,625,625,626,626,626,626,626,626,626,626,626,626,626,626,626,626,626,626,626,626,626,626,626,626,626,626,626,626,626,626,626,626,626,626,626,626,626,626,626,624,622,620,620,620,620,620,620,620,620,620,620,620,620,620,620,620,620,620,620,620,620,620,620,620,620,620,620,620,620,620,619,619,619,619,619,619,619,619,620,620,622,622,622,622,622,622,622,619,617,612,595,581,537,516,493,470,441,373,360,312,282,256,239,238,238,238,238,226,217,195,175,147,24,0,0,0,0,0,0,0,0,0,0,1,4,11,17,38],"timestamp_mouse":[13,34,51,72,91,111,131,152,172,193,212,231,252,272,291,311,331,353,371,392,411,433,451,472,491,512,533,552,571,592,613,632,651,672,692,711,733,752,771,791,813,832,852,871,892,911,932,952,972,991,1011,1032,1052,1073,1091,1111,1131,1151,1172,1191,1211,1232,1251,1272,1292,1311,1332,1351,1372,1391,1411,1431,1453,1472,1492,1511,1532,1553,1572,1592,1612,1631,1651,1673,1691,1712,1731,1751,1771,1792,1811,1832,1851,1872,1891,1911,1932,1952,1971,1992,2012,2031,2051,2071,2091,2111,2131,2151,2171,2191,2212,2231,2251,2273,2292,2312,2331,2353,2372,2391,2411,2431,2453,2472,2491,2511,2531,2552,2572,2591,2612,2631,2651,2672,2692,2712,2731,2751,2772,2794,2811,2831,2851,2871,2891],"xSR":741.5,"ySR":573.95,"xT1":424.9,"yT1":0,"xT2":1058.1,"yT2":0,"toosoon":0,"cond_shown":"Incongruent","ratio_trial":100,"L_num":3,"L_den":6,"R_num":4,"R_den":10,"correct_side":1,"subjID":"juanzubieta2","gender":"0","school":"4","age":"9"},{"start_time":1552073690388,"click_time":1552073692444,"finger_time":1552073692023,"fix_duration":622.7052268226117,"trial":10,"RT":1635,"MT":421,"sideResp":2,"stimulus":[],"xmouse":[808,808,808,808,808,808,808,808,808,808,808,808,808,808,808,808,808,808,808,808,808,808,808,808,808,808,808,808,808,808,808,808,808,808,808,808,808,808,808,808,808,808,808,808,808,808,808,808,808,808,808,808,808,808,808,808,808,808,808,808,808,808,808,808,808,808,808,808,808,808,808,808,808,808,808,808,808,808,808,808,816,858,919,971,1006,1045,1060,1078,1091,1103,1111,1116,1116,1113,1107,1094,1089,1087,1086,1086,1082,1081,1080],"ymouse":[605,605,605,605,605,605,605,605,605,605,605,605,605,605,605,605,605,605,605,605,605,605,605,605,605,605,605,605,605,605,605,605,605,605,605,605,605,605,605,605,605,605,605,605,605,605,605,605,605,605,605,605,605,605,605,605,605,605,605,605,605,605,605,605,605,605,605,605,605,605,605,605,605,605,605,605,605,605,605,605,599,568,535,518,504,473,449,413,379,338,291,236,195,177,164,144,139,136,135,132,115,105,98],"timestamp_mouse":[22,41,56,77,96,116,135,156,177,196,216,237,256,275,295,316,335,355,376,396,417,435,455,476,496,515,536,556,576,595,616,635,656,676,696,717,736,755,776,796,817,836,855,876,896,916,936,956,976,995,1016,1036,1055,1076,1096,1116,1135,1155,1176,1196,1217,1237,1257,1277,1296,1315,1336,1355,1375,1396,1417,1437,1457,1475,1496,1516,1537,1556,1575,1596,1616,1635,1657,1676,1695,1715,1735,1755,1775,1795,1816,1836,1856,1875,1895,1915,1936,1955,1976,1996,2015,2036,2055],"xSR":741.5,"ySR":573.95,"xT1":424.9,"yT1":0,"xT2":1058.1,"yT2":0,"toosoon":0,"cond_shown":"Incongruent","ratio_trial":300,"L_num":4,"L_den":20,"R_num":2,"R_den":4,"correct_side":2,"subjID":"juanzubieta2","gender":"0","school":"4","age":"9"},{"start_time":1552073697540,"click_time":1552073702324,"finger_time":1552073697623,"fix_duration":355.0465016510693,"trial":11,"RT":83,"MT":4701,"sideResp":1,"stimulus":[],"xmouse":[797,790,778,749,735,726,719,716,715,715,715,715,715,715,711,709,709,709,709,709,709,709,709,709,709,709,709,709,709,709,709,709,709,709,709,709,709,709,709,709,709,709,709,709,709,709,709,709,709,709,709,709,709,709,709,709,710,713,733,749,756,762,766,770,771,772,773,773,773,774,776,777,781,789,791,793,794,795,799,806,807,809,809,810,811,811,811,811,811,811,811,811,811,809,793,774,763,761,759,757,755,755,755,755,755,755,754,754,753,753,753,753,750,748,747,747,747,748,752,753,753,753,753,753,753,753,752,751,751,753,753,753,755,756,758,759,759,759,760,764,772,780,788,794,795,797,801,806,808,809,809,809,809,809,809,809,809,809,809,806,805,804,804,803,803,803,802,801,799,792,788,783,781,779,778,778,778,778,778,778,778,778,778,784,793,798,800,801,802,802,802,802,802,802,802,802,802,802,802,802,802,802,802,802,802,802,802,802,802,802,802,802,802,802,802,802,802,802,802,802,802,802,802,795,780,746,694,636,590,513,499,485,469,448,410,404,403,404,411,425],"ymouse":[640,640,640,640,640,640,641,641,641,641,641,641,641,641,642,642,642,642,642,642,642,642,642,642,642,642,642,642,642,642,642,642,642,642,642,642,642,642,642,642,642,642,642,642,642,642,642,642,642,642,642,642,642,642,642,642,642,642,642,642,642,642,642,641,641,641,640,640,640,640,639,639,638,637,636,635,634,633,629,620,619,616,614,613,612,612,611,611,611,611,611,611,611,611,611,607,603,601,598,594,590,589,589,589,589,588,588,588,587,587,587,587,587,587,587,587,587,587,587,587,587,587,587,587,587,587,588,589,590,596,598,600,605,608,612,613,613,615,616,625,637,646,655,659,660,661,664,667,667,668,668,668,668,668,668,668,666,665,661,651,648,646,645,645,645,644,644,644,644,644,643,642,641,641,641,641,641,641,641,641,641,641,641,639,639,638,637,637,637,637,637,637,637,637,637,637,637,637,637,637,637,637,637,637,637,637,637,637,637,637,637,637,637,637,637,637,637,637,637,637,637,637,636,613,579,522,461,403,351,244,220,194,165,135,81,68,63,61,61,61],"timestamp_mouse":[3,24,43,63,83,104,124,143,163,183,204,224,244,263,283,304,324,344,364,385,404,423,443,463,483,505,524,543,564,584,603,624,644,664,684,704,723,744,763,783,804,824,844,864,885,903,923,943,964,983,1003,1023,1043,1064,1083,1103,1123,1145,1163,1184,1203,1224,1243,1263,1283,1303,1323,1343,1363,1384,1403,1424,1443,1463,1483,1504,1524,1544,1563,1589,1603,1624,1643,1664,1683,1705,1724,1743,1764,1784,1805,1824,1843,1863,1883,1904,1924,1943,1963,1983,2003,2023,2044,2064,2083,2104,2123,2143,2165,2185,2203,2223,2243,2263,2283,2305,2324,2344,2363,2384,2403,2423,2443,2465,2485,2504,2523,2544,2563,2584,2603,2623,2643,2663,2683,2703,2723,2743,2764,2784,2803,2824,2843,2864,2883,2903,2924,2943,2964,2983,3003,3025,3044,3064,3084,3104,3123,3143,3164,3183,3204,3223,3243,3265,3283,3304,3324,3343,3363,3384,3403,3425,3443,3463,3483,3504,3523,3543,3563,3583,3605,3625,3643,3664,3683,3704,3723,3745,3764,3783,3804,3823,3844,3865,3883,3904,3924,3943,3964,3984,4003,4024,4043,4064,4084,4105,4124,4144,4165,4184,4204,4224,4245,4264,4283,4304,4323,4344,4363,4383,4404,4423,4443,4464,4483,4504,4524,4543,4564,4583,4604,4623,4643,4664,4683,4704,4723,4743,4763,4784],"xSR":741.5,"ySR":573.95,"xT1":424.9,"yT1":0,"xT2":1058.1,"yT2":0,"toosoon":0,"cond_shown":"Incongruent","ratio_trial":200,"L_num":1,"L_den":2,"R_num":3,"R_den":10,"correct_side":1,"subjID":"juanzubieta2","gender":"0","school":"4","age":"9"},{"start_time":1552073704403,"click_time":1552073709203,"finger_time":1552073705824,"fix_duration":578.2726378989297,"trial":12,"RT":1421,"MT":3379,"sideResp":1,"stimulus":[],"xmouse":[801,801,801,801,801,801,801,801,801,801,801,801,801,801,801,801,801,801,801,801,801,801,801,801,801,801,801,801,801,801,801,801,801,801,801,801,801,801,801,801,801,801,801,801,801,801,801,801,801,801,801,801,801,801,801,801,801,801,801,801,801,801,801,801,801,801,801,801,801,801,801,868,898,921,926,929,929,929,929,929,929,929,929,929,929,929,929,929,929,929,929,929,929,929,929,929,929,929,929,929,929,929,929,929,929,929,929,929,929,929,929,929,929,929,929,929,929,929,929,929,929,929,929,929,929,929,929,929,929,929,929,929,929,929,929,929,929,929,929,929,850,383,72,35,63,102,155,168,179,186,191,191,191,191,191,191,183,146,137,135,135,135,136,137,139,139,144,147,150,154,159,186,195,202,205,208,222,229,238,244,251,278,290,305,318,325,326,326,326,326,326,325,308,304,303,303,303,303,303,303,303,303,303,304,306,307,309,311,312,315,317,321,333,339,344,352,363,388,402,413,421,430,450,457,462,467,474,475,477,480,481,486,487,487,487,487,487,487,487,486,486],"ymouse":[636,636,636,636,636,636,636,636,636,636,636,636,636,636,636,636,636,636,636,636,636,636,636,636,636,636,636,636,636,636,636,636,636,636,636,636,636,636,636,636,636,636,636,636,636,636,636,636,636,636,636,636,636,636,636,636,636,636,636,636,636,636,636,636,636,636,636,636,636,636,636,529,461,412,396,388,387,387,387,387,387,387,387,387,387,387,387,387,387,387,387,387,387,387,387,387,387,387,387,387,387,387,387,387,387,387,387,387,387,387,387,387,387,387,387,387,387,387,387,387,387,387,387,387,387,387,387,387,387,387,387,387,387,387,387,387,387,387,387,387,357,190,15,0,0,0,0,0,0,0,0,0,0,0,1,4,17,61,72,75,75,75,75,75,75,74,70,65,61,57,53,34,27,22,20,19,8,2,0,0,0,0,0,0,0,0,0,0,0,0,0,1,20,25,27,28,29,30,32,34,35,37,37,38,38,38,38,38,39,40,40,40,35,33,29,25,18,0,0,0,0,0,0,0,0,0,0,0,0,0,0,0,0,0,0,0,0,0,0,0,1],"timestamp_mouse":[9,32,40,61,81,101,121,141,160,180,201,222,241,260,280,301,321,341,361,380,400,422,441,460,481,500,521,541,560,581,601,620,640,661,680,701,721,740,761,781,801,822,840,860,881,900,920,940,962,980,1001,1020,1041,1062,1081,1100,1121,1140,1160,1180,1201,1222,1241,1261,1281,1300,1321,1341,1361,1381,1402,1421,1440,1460,1481,1500,1520,1540,1560,1581,1600,1620,1640,1660,1681,1701,1720,1742,1761,1780,1801,1821,1840,1860,1881,1901,1922,1942,1960,1981,2000,2020,2040,2062,2081,2100,2120,2141,2160,2180,2202,2221,2240,2260,2280,2301,2320,2341,2360,2380,2401,2420,2441,2461,2480,2500,2521,2541,2561,2580,2600,2621,2641,2661,2680,2701,2721,2741,2761,2780,2802,2820,2840,2860,2880,2900,2920,2940,2961,2981,3001,3021,3041,3060,3081,3100,3122,3140,3160,3182,3201,3221,3240,3261,3280,3300,3323,3340,3361,3381,3401,3421,3440,3461,3480,3501,3522,3540,3561,3581,3600,3621,3640,3660,3680,3700,3722,3741,3762,3780,3800,3820,3840,3860,3880,3900,3922,3940,3960,3980,4000,4022,4040,4061,4081,4100,4121,4140,4161,4180,4200,4221,4240,4260,4280,4301,4322,4341,4361,4381,4400,4421,4441,4461,4481,4500,4522,4540,4560,4580,4601,4621,4641,4661,4680,4701,4721,4741,4762,4780,4800],"xSR":741.5,"ySR":573.95,"xT1":424.9,"yT1":0,"xT2":1058.1,"yT2":0,"toosoon":0,"cond_shown":"Incongruent","ratio_trial":200,"L_num":3,"L_den":4,"R_num":11,"R_den":20,"correct_side":1,"subjID":"juanzubieta2","gender":"0","school":"4","age":"9"},{"start_time":1552073713962,"click_time":1552073715584,"finger_time":1552073715183,"fix_duration":1317.6841280387034,"trial":13,"RT":1221,"MT":401,"sideResp":2,"stimulus":[],"xmouse":[791,791,792,792,792,792,792,792,792,792,792,792,792,792,792,792,792,792,792,792,794,794,796,798,798,798,798,798,798,798,798,798,798,798,798,798,798,798,798,798,798,798,798,798,798,798,798,798,798,798,798,798,798,798,798,798,798,798,798,798,801,820,834,858,876,912,925,937,946,956,960,968,975,980,986,986,987,989,994,1023,1052,1063],"ymouse":[634,634,633,633,633,633,633,633,633,633,633,633,633,633,633,633,633,633,633,633,632,628,622,614,608,608,608,608,608,608,608,608,608,608,608,608,608,608,608,608,608,608,608,608,608,608,608,608,608,608,608,608,608,608,608,608,608,608,608,608,598,570,553,525,501,440,408,372,342,303,290,270,257,246,231,228,224,218,206,139,75,42],"timestamp_mouse":[1,24,45,62,83,102,122,143,162,182,201,222,241,262,282,302,321,341,361,382,402,421,442,461,481,502,521,541,562,583,602,622,641,662,682,702,722,741,761,782,801,821,843,862,881,901,923,941,962,981,1001,1021,1042,1063,1081,1102,1122,1141,1161,1181,1202,1221,1241,1262,1281,1301,1321,1341,1361,1382,1403,1422,1442,1462,1481,1501,1522,1542,1562,1581,1602,1621],"xSR":741.5,"ySR":573.95,"xT1":424.9,"yT1":0,"xT2":1058.1,"yT2":0,"toosoon":0,"cond_shown":"Incongruent","ratio_trial":200,"L_num":4,"L_den":30,"R_num":1,"R_den":3,"correct_side":2,"subjID":"juanzubieta2","gender":"0","school":"4","age":"9"},{"start_time":1552073718681,"click_time":1552073720163,"finger_time":1552073719623,"fix_duration":375.9394027307198,"trial":14,"RT":942,"MT":540,"sideResp":1,"stimulus":[],"xmouse":[816,816,816,816,816,816,816,816,816,816,816,816,816,816,816,816,816,816,816,816,816,816,816,816,816,816,816,816,816,816,816,816,816,816,816,816,816,816,816,816,816,816,816,816,804,786,760,727,681,590,543,531,490,463,432,429,425,425,428,443,460,462,462,464,464,464,464,464,464,464,464,464,464,464,464],"ymouse":[616,616,616,616,616,616,616,616,616,616,616,616,616,616,616,616,616,616,616,616,616,616,616,616,616,616,616,616,616,616,616,616,616,616,616,616,616,616,616,616,616,616,616,616,607,594,577,555,523,458,412,394,329,281,211,198,179,168,159,147,131,127,123,113,105,105,105,105,105,105,105,105,105,105,96],"timestamp_mouse":[12,25,42,63,82,103,122,143,164,183,203,223,242,264,282,302,322,342,362,382,403,424,442,463,482,504,522,542,564,582,602,622,643,662,682,704,723,742,763,782,802,822,843,862,882,902,922,942,963,982,1004,1023,1042,1062,1082,1102,1122,1142,1163,1182,1204,1222,1243,1262,1282,1303,1324,1343,1363,1382,1403,1423,1443,1462,1482],"xSR":741.5,"ySR":573.95,"xT1":424.9,"yT1":0,"xT2":1058.1,"yT2":0,"toosoon":0,"cond_shown":"Incongruent","ratio_trial":100,"L_num":3,"L_den":5,"R_num":11,"R_den":22,"correct_side":1,"subjID":"juanzubieta2","gender":"0","school":"4","age":"9"},{"start_time":1552073721832,"click_time":1552073723283,"finger_time":1552073723124,"fix_duration":666.5988382674457,"trial":15,"RT":1292,"MT":159,"sideResp":2,"stimulus":[],"xmouse":[792,792,792,792,792,792,792,792,792,792,792,792,792,792,792,792,792,792,792,792,792,792,792,792,792,792,792,792,792,792,792,792,792,792,792,792,792,792,792,792,792,792,792,792,792,792,792,792,792,792,792,792,792,792,792,792,792,792,792,792,792,792,805,823,845,882,954,994,1022,1052,1072,1089,1089],"ymouse":[619,619,619,619,619,619,619,619,619,619,619,619,619,619,619,619,619,619,619,619,619,619,619,619,619,619,619,619,619,619,619,619,619,619,619,619,619,619,619,619,619,619,619,619,619,619,619,619,619,619,619,619,619,619,619,619,619,619,619,619,619,619,609,593,571,528,401,334,266,206,156,105,99],"timestamp_mouse":[11,35,51,71,91,113,131,151,171,191,211,231,251,271,291,312,333,352,371,393,412,432,452,472,492,512,532,551,572,593,612,633,652,672,692,712,732,752,773,792,811,831,852,872,891,912,932,951,971,992,1011,1032,1052,1072,1092,1112,1132,1152,1173,1193,1212,1232,1251,1271,1292,1312,1331,1351,1372,1391,1411,1431,1451],"xSR":741.5,"ySR":573.95,"xT1":424.9,"yT1":0,"xT2":1058.1,"yT2":0,"toosoon":0,"cond_shown":"Incongruent","ratio_trial":100,"L_num":12,"L_den":24,"R_num":9,"R_den":15,"correct_side":2,"subjID":"juanzubieta2","gender":"0","school":"4","age":"9"},{"start_time":1552073727481,"click_time":1552073728685,"finger_time":1552073728284,"fix_duration":676.5334475358528,"trial":16,"RT":803,"MT":401,"sideResp":1,"stimulus":[],"xmouse":[782,782,782,782,782,782,782,782,782,782,782,782,782,782,782,782,782,782,782,782,782,782,782,782,782,782,782,782,782,782,782,782,782,782,782,782,782,782,782,780,748,715,680,651,611,596,571,537,506,491,490,492,495,495,495,495,497,504,512,514,513],"ymouse":[613,613,613,613,613,613,613,613,613,613,613,613,613,613,613,613,613,613,613,613,613,613,613,613,613,613,613,613,613,613,613,613,613,613,613,613,613,613,612,608,546,497,452,414,360,337,302,256,216,192,172,156,139,131,130,130,128,127,115,105,88],"timestamp_mouse":[9,23,43,64,82,103,124,142,162,182,204,223,242,262,282,303,322,342,363,382,402,423,442,463,483,504,522,542,563,582,602,623,643,662,684,704,723,742,763,782,803,823,843,863,883,902,922,942,962,983,1002,1023,1042,1063,1082,1102,1122,1142,1162,1182,1203],"xSR":741.5,"ySR":573.95,"xT1":424.9,"yT1":0,"xT2":1058.1,"yT2":0,"toosoon":0,"cond_shown":"Incongruent","ratio_trial":300,"L_num":7,"L_den":10,"R_num":8,"R_den":20,"correct_side":1,"subjID":"juanzubieta2","gender":"0","school":"4","age":"9"},{"start_time":1552073734502,"click_time":1552073736164,"finger_time":1552073735445,"fix_duration":1276.221289495331,"trial":17,"RT":943,"MT":719,"sideResp":2,"stimulus":[],"xmouse":[754,754,754,754,754,754,754,754,754,754,754,754,754,754,754,754,754,754,754,754,754,754,754,754,754,754,754,754,753,753,753,753,753,753,753,753,753,753,753,753,753,753,753,758,779,810,839,876,910,970,1001,1019,1027,1030,1030,1030,1013,997,985,972,967,967,967,967,967,984,998,1023,1058,1101,1186,1202,1206,1206,1207,1200,1186,1162,1127,1101,1076,1073,1072,1070],"ymouse":[642,642,642,642,642,642,642,642,642,642,642,642,642,642,642,642,642,642,642,642,642,642,642,642,642,643,646,647,647,647,647,647,647,647,647,647,647,647,647,647,647,647,647,647,641,636,628,613,583,469,399,339,281,234,44,0,0,0,0,0,0,0,0,5,13,43,62,89,121,149,182,184,184,183,171,134,103,47,0,0,0,0,0,1],"timestamp_mouse":[6,25,42,63,82,102,121,141,162,181,202,222,241,261,281,303,322,341,361,383,402,422,441,462,481,502,521,541,562,582,601,622,641,663,681,702,722,742,763,782,802,823,841,862,881,902,921,943,962,981,1002,1022,1041,1062,1082,1101,1121,1141,1161,1182,1201,1222,1242,1262,1281,1301,1321,1341,1362,1383,1401,1422,1441,1462,1481,1501,1521,1542,1561,1582,1601,1621,1641,1662],"xSR":741.5,"ySR":573.95,"xT1":424.9,"yT1":0,"xT2":1058.1,"yT2":0,"toosoon":0,"cond_shown":"Congruent","ratio_trial":200,"L_num":20,"L_den":25,"R_num":9,"R_den":15,"correct_side":1,"subjID":"juanzubieta2","gender":"0","school":"4","age":"9"},{"start_time":1552073741013,"click_time":1552073743144,"finger_time":1552073742303,"fix_duration":347.1471804130465,"trial":18,"RT":1290,"MT":841,"sideResp":1,"stimulus":[],"xmouse":[789,789,789,789,789,789,789,789,789,789,789,789,789,789,789,789,789,789,789,789,789,789,789,789,789,789,789,789,789,789,789,789,789,789,789,789,789,789,789,789,789,789,789,789,789,789,789,789,789,789,789,789,789,789,789,789,789,789,789,789,789,786,779,767,745,730,718,700,677,603,547,478,412,349,291,232,228,228,232,250,299,322,338,344,350,354,355,355,355,355,355,358,364,378,393,397,397,397,396,395,393,393,397,401,433,459,491],"ymouse":[606,606,606,606,606,606,606,606,606,606,606,606,606,606,606,606,606,606,606,606,606,606,606,606,606,606,606,606,606,606,606,606,606,606,606,606,606,606,606,606,606,606,606,606,606,606,606,606,606,606,606,606,606,606,606,606,606,606,606,606,606,606,602,593,570,550,528,499,459,326,235,137,45,0,0,0,0,0,0,0,0,0,8,13,28,36,41,41,41,41,51,61,74,92,108,108,105,84,63,32,19,9,1,0,0,0,4],"timestamp_mouse":[11,33,50,70,90,110,130,150,170,192,211,231,250,270,290,310,330,350,370,392,411,430,450,470,490,510,530,550,571,590,610,632,650,670,692,711,732,751,770,790,810,830,850,870,890,911,930,950,971,991,1010,1031,1052,1071,1091,1111,1130,1151,1172,1191,1210,1231,1250,1271,1290,1311,1330,1351,1371,1391,1410,1430,1451,1471,1490,1510,1530,1550,1570,1590,1610,1631,1650,1670,1690,1710,1731,1751,1771,1790,1810,1831,1850,1870,1890,1911,1931,1951,1971,1992,2010,2032,2051,2071,2091,2110,2131],"xSR":741.5,"ySR":573.95,"xT1":424.9,"yT1":0,"xT2":1058.1,"yT2":0,"toosoon":0,"cond_shown":"Incongruent","ratio_trial":300,"L_num":4,"L_den":5,"R_num":8,"R_den":16,"correct_side":1,"subjID":"juanzubieta2","gender":"0","school":"4","age":"9"},{"start_time":1552073745725,"click_time":1552073747964,"finger_time":1552073747264,"fix_duration":321.31993492411937,"trial":19,"RT":1539,"MT":700,"sideResp":1,"stimulus":[],"xmouse":[785,785,785,785,785,785,785,785,785,785,785,785,785,785,785,785,785,785,785,785,785,779,773,759,752,752,752,752,751,748,745,744,743,742,742,742,742,742,742,742,742,742,742,742,742,742,742,742,742,742,742,742,742,742,742,742,742,742,742,742,742,742,742,742,742,742,742,742,742,742,742,742,742,742,742,742,741,742,742,747,751,754,755,755,725,689,633,585,532,414,387,377,376,376,380,381,383,384,384,384,384,385,387,396,428,452,483,496,506,510,493,475],"ymouse":[608,608,608,608,608,608,608,608,608,608,608,608,608,608,608,608,608,608,608,608,608,608,609,612,615,615,615,615,616,616,617,617,617,617,617,617,617,617,617,617,617,617,617,617,617,617,617,617,617,617,617,617,617,617,617,617,617,617,617,617,617,617,617,617,617,617,617,617,617,617,617,617,617,617,617,617,617,616,612,600,591,580,568,550,493,451,385,326,267,178,158,148,142,137,125,124,122,122,122,122,122,122,131,147,181,194,203,204,201,149,108,90],"timestamp_mouse":[19,38,58,78,98,118,139,160,179,198,218,238,259,280,298,320,339,359,378,399,418,438,459,478,498,518,540,558,578,598,619,640,660,680,699,718,738,759,778,799,818,838,858,879,899,918,940,958,979,998,1018,1038,1060,1079,1098,1119,1139,1158,1178,1199,1218,1239,1260,1279,1299,1319,1338,1359,1379,1399,1418,1439,1459,1480,1500,1519,1539,1559,1578,1598,1618,1639,1658,1680,1699,1718,1738,1759,1778,1798,1818,1838,1858,1879,1898,1918,1938,1958,1978,1999,2019,2040,2058,2079,2098,2119,2138,2158,2178,2198,2219,2238],"xSR":741.5,"ySR":573.95,"xT1":424.9,"yT1":0,"xT2":1058.1,"yT2":0,"toosoon":0,"cond_shown":"Congruent","ratio_trial":200,"L_num":4,"L_den":10,"R_num":3,"R_den":15,"correct_side":1,"subjID":"juanzubieta2","gender":"0","school":"4","age":"9"},{"start_time":1552073751728,"click_time":1552073753964,"finger_time":1552073751770,"fix_duration":802.0624803565742,"trial":20,"RT":42,"MT":2194,"sideResp":2,"stimulus":[],"xmouse":[744,739,737,737,737,737,737,737,737,737,737,737,737,737,737,737,737,737,737,737,737,737,737,737,737,736,736,736,736,736,736,736,736,736,736,736,736,737,738,740,742,742,742,742,742,742,742,742,742,742,743,744,746,753,762,794,806,814,818,818,818,818,818,818,818,818,818,815,813,803,797,796,794,794,794,794,794,794,805,830,927,966,972,972,966,962,968,977,978,980,985,991,1023,1058,1134,1157,1164,1168,1173,1174,1157,1123,1056,1020,1008,1007,1007,1007,1007,1008,1042,1064],"ymouse":[639,639,639,639,639,639,639,639,639,639,639,639,639,639,639,639,639,639,639,639,639,639,639,639,639,639,639,639,639,639,639,639,639,639,639,639,636,633,626,616,612,610,610,610,610,610,610,610,610,610,609,609,609,609,613,624,627,628,630,630,630,630,630,630,630,630,630,630,630,630,630,630,630,630,630,615,595,570,529,460,212,95,23,0,0,0,0,0,0,0,8,24,82,146,244,259,259,258,254,241,175,109,11,0,0,0,0,0,2,9,58,79],"timestamp_mouse":[22,42,55,76,97,116,136,156,176,196,216,237,255,275,296,315,335,357,377,395,416,436,456,475,495,515,536,555,575,596,616,636,656,675,696,716,736,756,776,796,815,835,856,876,897,917,936,955,975,996,1017,1036,1056,1076,1096,1115,1135,1155,1175,1197,1215,1236,1257,1276,1296,1317,1335,1355,1376,1396,1415,1436,1456,1475,1495,1515,1535,1556,1575,1595,1615,1636,1656,1675,1695,1715,1735,1755,1775,1795,1816,1835,1855,1875,1897,1915,1936,1957,1975,1996,2016,2035,2055,2076,2095,2116,2135,2156,2176,2196,2216,2236],"xSR":741.5,"ySR":573.95,"xT1":424.9,"yT1":0,"xT2":1058.1,"yT2":0,"toosoon":0,"cond_shown":"Congruent","ratio_trial":300,"L_num":3,"L_den":6,"R_num":4,"R_den":5,"correct_side":2,"subjID":"juanzubieta2","gender":"0","school":"4","age":"9"},{"start_time":1552073756397,"click_time":1552073758243,"finger_time":1552073758003,"fix_duration":1293.57980114763,"trial":21,"RT":1606,"MT":240,"sideResp":2,"stimulus":[],"xmouse":[785,785,785,785,785,785,785,785,785,785,785,785,785,785,785,785,785,785,785,785,785,785,785,785,785,785,785,785,785,785,785,785,785,785,785,785,785,785,785,785,785,785,785,785,785,785,785,785,785,785,785,785,785,785,785,785,785,785,785,785,785,785,785,785,785,785,785,785,785,785,785,785,785,785,785,785,786,786,786,790,799,810,844,862,871,879,885,911,949,978,1001,1021,1078],"ymouse":[605,605,605,605,605,605,605,605,605,605,605,605,605,605,605,605,605,605,605,605,605,605,605,605,605,605,605,605,605,605,605,605,605,605,605,605,605,605,605,605,605,605,605,605,605,605,605,605,605,605,605,605,605,605,605,605,605,605,605,605,605,605,605,605,605,605,605,605,605,605,605,605,605,605,605,605,605,605,605,598,573,532,423,368,335,309,278,195,142,119,106,89,37],"timestamp_mouse":[9,36,47,66,86,107,128,147,167,187,206,227,247,267,287,306,328,348,367,387,408,426,446,466,486,507,527,546,567,587,607,627,648,667,686,706,727,746,767,787,808,827,846,867,886,907,926,948,967,987,1006,1027,1047,1066,1086,1107,1128,1148,1166,1187,1207,1226,1247,1268,1287,1306,1326,1346,1367,1388,1408,1426,1446,1466,1486,1506,1527,1547,1568,1586,1606,1626,1646,1667,1688,1707,1727,1746,1766,1786,1806,1826,1846],"xSR":741.5,"ySR":573.95,"xT1":424.9,"yT1":0,"xT2":1058.1,"yT2":0,"toosoon":0,"cond_shown":"Incongruent","ratio_trial":100,"L_num":13,"L_den":26,"R_num":12,"R_den":20,"correct_side":2,"subjID":"juanzubieta2","gender":"0","school":"4","age":"9"},{"start_time":1552073759396,"click_time":1552073761244,"finger_time":1552073760944,"fix_duration":250,"trial":22,"RT":1548,"MT":300,"sideResp":2,"stimulus":[],"xmouse":[787,787,787,787,787,787,787,787,787,787,787,787,787,787,787,787,787,787,787,787,787,787,787,787,787,787,787,787,787,787,787,787,787,787,787,787,787,787,787,787,787,787,787,787,787,787,787,787,787,787,787,787,787,787,787,787,787,787,787,787,787,787,787,787,787,787,787,787,787,787,787,787,787,787,787,787,790,840,904,994,1089,1167,1205,1227,1232,1236,1241,1243,1244,1233,1212,1186,1134],"ymouse":[620,620,620,620,620,620,620,620,620,620,620,620,620,620,620,620,620,620,620,620,620,620,620,620,620,620,620,620,620,620,620,620,620,620,620,620,620,620,620,620,620,620,620,620,620,620,620,620,620,620,620,620,620,620,620,620,620,620,620,620,620,620,620,620,620,620,620,620,620,620,620,620,620,620,620,620,617,559,472,362,254,190,171,165,164,164,163,163,158,145,125,104,55],"timestamp_mouse":[8,27,48,67,88,108,128,148,169,188,209,227,248,267,288,308,328,348,369,387,408,427,448,467,487,507,527,547,568,588,609,628,648,667,689,707,728,747,768,789,808,827,848,867,887,907,928,949,969,988,1008,1029,1048,1068,1088,1109,1128,1148,1167,1188,1207,1227,1248,1267,1289,1307,1328,1348,1367,1387,1408,1428,1448,1468,1488,1508,1529,1548,1567,1588,1608,1627,1647,1667,1687,1708,1728,1748,1768,1787,1807,1828,1848],"xSR":741.5,"ySR":573.95,"xT1":424.9,"yT1":0,"xT2":1058.1,"yT2":0,"toosoon":0,"cond_shown":"Congruent","ratio_trial":300,"L_num":1,"L_den":5,"R_num":3,"R_den":6,"correct_side":2,"subjID":"juanzubieta2","gender":"0","school":"4","age":"9"},{"start_time":1552073765001,"click_time":1552073766924,"finger_time":1552073766583,"fix_duration":815.405893686917,"trial":23,"RT":1582,"MT":341,"sideResp":2,"stimulus":[],"xmouse":[816,816,816,816,816,816,816,816,816,816,816,816,816,816,816,816,816,816,816,816,816,816,816,816,816,816,816,816,816,816,816,816,816,816,816,816,816,816,816,816,816,816,816,816,816,816,816,816,816,816,816,816,816,816,816,816,816,816,816,816,816,816,816,816,816,816,816,816,816,816,816,816,816,816,816,816,816,816,830,856,861,857,850,861,887,919,940,949,953,953,953,955,958,974,1002,1041,1094],"ymouse":[625,625,625,625,625,625,625,625,625,625,625,625,625,625,625,625,625,625,625,625,625,625,625,625,625,625,625,625,625,625,625,625,625,625,625,625,625,625,625,625,625,625,625,625,625,625,625,625,625,625,625,625,625,625,625,625,625,625,625,625,625,625,625,625,625,625,625,625,625,625,625,625,625,625,625,625,625,625,607,567,513,441,371,211,124,13,0,0,0,0,0,1,5,9,9,9,12],"timestamp_mouse":[8,22,42,63,82,102,122,142,164,183,203,222,243,263,283,303,322,343,364,383,402,423,442,463,482,503,523,543,562,582,602,622,643,662,682,702,722,742,763,782,802,823,842,863,883,902,922,943,963,983,1002,1022,1043,1063,1084,1103,1122,1143,1163,1183,1204,1223,1243,1263,1283,1304,1324,1344,1363,1383,1403,1423,1444,1462,1483,1503,1522,1542,1563,1582,1603,1623,1642,1663,1682,1703,1723,1743,1763,1782,1802,1822,1843,1864,1884,1902,1923],"xSR":741.5,"ySR":573.95,"xT1":424.9,"yT1":0,"xT2":1058.1,"yT2":0,"toosoon":0,"cond_shown":"Congruent","ratio_trial":100,"L_num":12,"L_den":30,"R_num":13,"R_den":26,"correct_side":2,"subjID":"juanzubieta2","gender":"0","school":"4","age":"9"},{"start_time":1552073768917,"click_time":1552073770284,"finger_time":1552073769864,"fix_duration":1012.6422254753962,"trial":24,"RT":947,"MT":420,"sideResp":1,"stimulus":[],"xmouse":[789,789,789,789,789,789,789,789,789,789,789,789,789,789,789,789,789,789,789,789,789,789,789,789,789,789,789,789,789,789,789,789,789,789,789,789,789,789,789,789,789,789,789,789,789,789,793,796,795,785,775,767,764,764,764,764,763,754,710,679,656,641,634,632,630,627,621,601,516],"ymouse":[632,632,632,632,632,632,632,632,632,632,632,632,632,632,632,632,632,632,632,632,632,632,632,632,632,632,632,632,632,632,632,632,632,632,632,632,632,632,632,632,632,632,632,632,632,632,618,573,545,515,494,482,478,478,478,478,477,470,431,408,389,376,365,340,321,297,270,208,76],"timestamp_mouse":[8,36,47,68,88,107,126,146,167,186,207,228,248,266,286,307,328,346,366,388,406,427,446,466,487,506,528,547,566,586,607,627,648,666,686,706,726,746,766,786,807,826,846,866,888,906,926,947,966,987,1006,1026,1046,1066,1087,1107,1127,1146,1167,1187,1206,1227,1247,1267,1286,1306,1327,1346,1367],"xSR":741.5,"ySR":573.95,"xT1":424.9,"yT1":0,"xT2":1058.1,"yT2":0,"toosoon":0,"cond_shown":"Incongruent","ratio_trial":100,"L_num":2,"L_den":4,"R_num":8,"R_den":20,"correct_side":1,"subjID":"juanzubieta2","gender":"0","school":"4","age":"9"},{"start_time":1552073774740,"click_time":1552073775783,"finger_time":1552073775604,"fix_duration":634.6655895309049,"trial":25,"RT":864,"MT":179,"sideResp":1,"stimulus":[],"xmouse":[786,786,786,786,786,786,786,786,786,786,786,786,786,786,786,786,786,786,786,786,786,786,786,786,786,786,786,786,786,786,786,786,786,786,786,786,786,786,786,786,786,786,784,749,689,621,537,437,425,422,421,422,425],"ymouse":[635,635,635,635,635,635,635,635,635,635,635,635,635,635,635,635,635,635,635,635,635,635,635,635,635,635,635,635,635,635,635,635,635,635,635,635,635,635,635,635,635,635,631,560,465,373,281,166,142,128,117,107,94],"timestamp_mouse":[9,24,43,65,83,103,124,145,164,184,203,223,244,263,284,303,323,343,364,383,403,425,443,463,483,503,524,544,565,583,604,623,645,664,684,704,725,744,764,784,803,824,843,864,884,904,923,944,963,983,1004,1023,1043],"xSR":741.5,"ySR":573.95,"xT1":424.9,"yT1":0,"xT2":1058.1,"yT2":0,"toosoon":0,"cond_shown":"Incongruent","ratio_trial":300,"L_num":8,"L_den":10,"R_num":9,"R_den":18,"correct_side":1,"subjID":"juanzubieta2","gender":"0","school":"4","age":"9"},{"start_time":1552073778533,"click_time":1552073779443,"finger_time":1552073779384,"fix_duration":1148.402333295744,"trial":26,"RT":851,"MT":59,"sideResp":1,"stimulus":[],"xmouse":[773,773,773,773,773,773,773,773,773,773,773,773,773,773,773,773,773,773,773,773,773,773,773,773,773,773,773,773,773,773,773,773,773,773,773,773,773,773,773,773,773,774,747,627,529,427],"ymouse":[632,632,632,632,632,632,632,632,632,632,632,632,632,632,632,632,632,632,632,632,632,632,632,632,632,632,632,632,632,632,632,632,632,632,632,632,632,632,632,632,632,624,554,307,172,48],"timestamp_mouse":[10,36,51,70,91,111,130,152,171,190,210,232,251,271,291,310,330,351,372,390,410,432,451,470,490,510,532,551,570,590,611,632,650,670,690,712,732,751,770,790,811,830,851,870,890,910],"xSR":741.5,"ySR":573.95,"xT1":424.9,"yT1":0,"xT2":1058.1,"yT2":0,"toosoon":0,"cond_shown":"Congruent","ratio_trial":100,"L_num":7,"L_den":14,"R_num":15,"R_den":25,"correct_side":2,"subjID":"juanzubieta2","gender":"0","school":"4","age":"9"},{"start_time":1552073781738,"click_time":1552073783005,"finger_time":1552073782703,"fix_duration":1213.7777883547255,"trial":27,"RT":965,"MT":302,"sideResp":2,"stimulus":[],"xmouse":[770,770,770,770,770,770,770,770,770,770,770,770,770,770,770,770,770,770,770,770,770,770,770,770,770,770,770,770,770,770,770,770,770,770,770,770,770,770,770,770,770,770,770,770,770,770,772,775,790,802,820,853,874,912,927,944,971,1005,1037,1087,1088,1088,1088,1104],"ymouse":[647,647,647,647,647,647,647,647,647,647,647,647,647,647,647,647,647,647,647,647,647,647,647,647,647,647,647,647,647,647,647,647,647,647,647,647,647,647,647,647,647,647,647,647,645,630,614,594,520,449,368,257,189,93,57,8,0,0,0,0,0,0,0,45],"timestamp_mouse":[8,25,46,65,85,105,126,147,165,186,207,226,246,266,287,307,326,346,367,387,406,426,446,466,485,506,526,546,567,587,606,626,647,665,685,705,726,746,765,787,806,827,845,867,885,905,926,946,965,986,1006,1025,1046,1065,1085,1106,1125,1145,1165,1186,1206,1226,1245,1267],"xSR":741.5,"ySR":573.95,"xT1":424.9,"yT1":0,"xT2":1058.1,"yT2":0,"toosoon":0,"cond_shown":"Incongruent","ratio_trial":200,"L_num":6,"L_den":20,"R_num":3,"R_den":6,"correct_side":2,"subjID":"juanzubieta2","gender":"0","school":"4","age":"9"},{"start_time":1552073784773,"click_time":1552073785763,"finger_time":1552073785703,"fix_duration":507.3885355975687,"trial":28,"RT":930,"MT":60,"sideResp":1,"stimulus":[],"xmouse":[809,809,809,809,809,809,809,809,809,809,809,809,809,809,809,809,809,809,809,809,809,809,809,809,809,809,809,809,809,809,809,809,809,809,809,809,809,809,809,809,809,809,809,808,806,794,762,611,534,460],"ymouse":[620,620,620,620,620,620,620,620,620,620,620,620,620,620,620,620,620,620,620,620,620,620,620,620,620,620,620,620,620,620,620,620,620,620,620,620,620,620,620,620,620,620,620,618,611,584,528,271,143,37],"timestamp_mouse":[11,30,60,71,91,110,130,151,170,190,211,232,251,270,291,310,331,352,370,391,410,431,452,471,491,512,530,551,570,592,611,632,652,671,691,710,731,751,771,790,811,831,850,871,890,911,930,951,970,990],"xSR":741.5,"ySR":573.95,"xT1":424.9,"yT1":0,"xT2":1058.1,"yT2":0,"toosoon":0,"cond_shown":"Congruent","ratio_trial":300,"L_num":3,"L_den":12,"R_num":11,"R_den":20,"correct_side":2,"subjID":"juanzubieta2","gender":"0","school":"4","age":"9"},{"start_time":1552073788240,"click_time":1552073790103,"finger_time":1552073788424,"fix_duration":1294.9392679686034,"trial":29,"RT":184,"MT":1679,"sideResp":1,"stimulus":[],"xmouse":[805,805,805,805,805,805,805,805,805,805,805,805,805,805,805,801,799,799,799,799,799,799,799,799,799,799,799,799,796,792,789,788,787,787,784,781,778,772,768,764,764,764,764,764,764,764,764,764,764,769,790,814,842,857,867,867,867,867,867,867,867,867,858,842,799,772,750,738,734,721,675,649,561,517,466,454,448,444,443,443,436,421,412,404,388,383,383,393,410,447,464,486,495,503],"ymouse":[575,575,575,575,575,575,575,575,574,572,572,572,572,572,570,570,569,569,569,569,569,569,569,569,569,569,569,569,569,568,568,568,568,567,567,567,567,567,567,568,568,568,568,568,568,568,568,568,568,568,566,566,566,570,575,575,575,575,576,576,576,577,583,590,599,603,604,604,603,568,403,319,49,0,0,0,0,0,0,0,0,1,14,36,99,137,173,202,225,232,218,178,137,78],"timestamp_mouse":[4,24,46,64,83,104,124,143,163,184,203,223,245,265,284,304,324,345,364,384,404,423,445,463,483,504,524,543,564,583,604,624,644,663,685,704,723,743,763,783,803,824,844,864,884,903,923,945,963,983,1003,1024,1043,1063,1083,1103,1123,1143,1165,1184,1204,1223,1244,1265,1283,1303,1324,1343,1364,1383,1404,1423,1443,1464,1484,1504,1523,1543,1563,1583,1603,1624,1644,1665,1684,1704,1723,1743,1764,1784,1804,1823,1843,1863],"xSR":741.5,"ySR":573.95,"xT1":424.9,"yT1":0,"xT2":1058.1,"yT2":0,"toosoon":0,"cond_shown":"Incongruent","ratio_trial":300,"L_num":13,"L_den":26,"R_num":12,"R_den":15,"correct_side":2,"subjID":"juanzubieta2","gender":"0","school":"4","age":"9"},{"start_time":1552073799594,"click_time":1552073800644,"finger_time":1552073800243,"fix_duration":250,"trial":30,"RT":649,"MT":401,"sideResp":2,"stimulus":[],"xmouse":[799,799,799,799,799,799,799,799,799,799,799,799,799,799,797,797,797,797,797,797,797,797,797,797,797,797,795,792,791,789,786,782,761,752,747,746,747,757,763,768,776,797,863,910,947,968,982,991,998,1010,1036,1070,1145],"ymouse":[615,615,615,615,615,615,615,615,615,615,615,615,615,615,615,615,615,615,615,615,615,615,615,615,615,615,615,615,615,614,606,595,552,530,511,492,474,435,419,411,406,399,385,372,357,341,327,299,281,259,218,164,36],"timestamp_mouse":[9,34,49,71,90,109,129,149,170,191,210,229,250,271,290,310,330,349,369,389,410,431,450,469,490,509,530,549,569,590,610,629,649,669,691,709,730,749,771,789,809,829,849,869,889,910,929,949,969,989,1010,1030,1050],"xSR":741.5,"ySR":573.95,"xT1":424.9,"yT1":0,"xT2":1058.1,"yT2":0,"toosoon":0,"cond_shown":"Incongruent","ratio_trial":200,"L_num":4,"L_den":6,"R_num":14,"R_den":30,"correct_side":1,"subjID":"juanzubieta2","gender":"0","school":"4","age":"9"},{"start_time":1552073802765,"click_time":1552073804763,"finger_time":1552073804363,"fix_duration":638.9264978049182,"trial":31,"RT":1598,"MT":400,"sideResp":1,"stimulus":[],"xmouse":[805,805,805,805,805,805,805,805,805,805,805,805,805,805,805,805,805,805,805,804,804,805,806,808,808,808,808,808,808,808,808,808,808,808,808,808,808,808,808,808,808,808,808,808,808,808,808,808,808,808,808,808,808,808,808,808,808,808,808,808,808,808,808,808,808,808,808,808,808,808,808,808,808,808,808,808,808,802,797,753,738,725,715,706,696,692,689,685,680,654,638,614,592,581,570,568,564,557,527,524],"ymouse":[629,629,629,629,629,629,629,629,629,629,629,629,629,629,629,629,629,629,629,628,626,624,622,619,619,619,618,618,618,618,618,618,618,618,618,618,618,618,618,618,618,618,618,618,618,618,618,618,618,618,618,618,618,618,618,618,618,618,618,618,618,618,618,618,618,618,618,618,618,618,618,618,618,618,618,618,618,610,603,530,500,469,433,400,339,316,295,272,251,192,167,138,114,101,92,90,88,83,63,60],"timestamp_mouse":[19,38,60,78,98,118,139,159,178,199,218,239,259,279,300,319,339,358,378,399,418,439,459,478,499,519,538,558,578,598,619,638,658,678,699,719,738,760,778,798,819,839,860,879,898,919,939,958,978,1000,1020,1038,1058,1079,1099,1118,1138,1159,1179,1198,1218,1239,1258,1278,1299,1320,1338,1358,1379,1399,1419,1438,1458,1478,1498,1518,1538,1559,1579,1598,1619,1639,1659,1678,1698,1718,1739,1758,1779,1800,1818,1838,1859,1879,1898,1919,1939,1958,1979,1998],"xSR":741.5,"ySR":573.95,"xT1":424.9,"yT1":0,"xT2":1058.1,"yT2":0,"toosoon":0,"cond_shown":"Congruent","ratio_trial":300,"L_num":2,"L_den":20,"R_num":10,"R_den":25,"correct_side":2,"subjID":"juanzubieta2","gender":"0","school":"4","age":"9"},{"start_time":1552073808275,"click_time":1552073809403,"finger_time":1552073808563,"fix_duration":509.3018041181524,"trial":32,"RT":288,"MT":840,"sideResp":2,"stimulus":[],"xmouse":[757,757,757,757,757,757,757,757,757,757,757,757,759,760,773,784,794,810,834,946,988,1013,1031,1034,1039,1042,1047,1053,1059,1072,1079,1082,1084,1085,1086,1086,1084,1081,1073,1045,1040,1039,1039,1039,1039,1039,1039,1039,1040,1040,1042,1043,1045,1049,1054,1057,1061],"ymouse":[626,626,626,626,626,626,626,626,626,626,626,626,626,616,526,453,395,357,329,287,277,270,260,255,238,230,220,210,200,181,169,161,157,155,154,154,153,153,151,136,130,120,117,117,117,117,115,112,110,104,103,99,98,97,95,93,91],"timestamp_mouse":[9,33,48,69,89,108,128,148,170,189,209,228,249,268,288,308,329,349,368,388,408,428,448,469,489,508,529,549,568,588,608,628,648,668,688,708,728,748,769,789,808,828,848,869,888,908,929,948,970,988,1008,1028,1048,1069,1093,1108,1128],"xSR":741.5,"ySR":573.95,"xT1":424.9,"yT1":0,"xT2":1058.1,"yT2":0,"toosoon":0,"cond_shown":"Congruent","ratio_trial":200,"L_num":3,"L_den":10,"R_num":11,"R_den":22,"correct_side":2,"subjID":"juanzubieta2","gender":"0","school":"4","age":"9"},{"start_time":1552073813244,"click_time":1552073814823,"finger_time":1552073814683,"fix_duration":859.978157820711,"trial":33,"RT":1439,"MT":140,"sideResp":2,"stimulus":[],"xmouse":[801,801,801,801,801,801,801,801,801,801,801,801,801,801,801,801,801,801,801,801,801,801,801,801,801,801,801,801,801,801,801,801,801,801,801,801,801,801,801,801,801,801,801,801,801,801,801,801,801,801,801,801,801,800,799,799,799,799,799,799,799,799,799,799,799,800,800,800,801,801,811,824,851,899,954,1062,1089,1104,1111],"ymouse":[637,637,637,637,637,637,637,637,637,637,637,637,637,637,637,637,637,637,637,637,637,637,637,637,637,637,637,637,637,637,637,637,637,637,637,637,637,637,637,637,637,637,637,637,637,637,637,637,637,637,637,637,637,637,633,626,616,614,612,612,612,612,611,609,608,606,606,606,605,604,587,569,528,472,405,253,179,114,78],"timestamp_mouse":[20,40,59,80,99,120,140,160,180,199,220,241,260,280,300,320,341,360,380,399,420,441,460,479,499,519,539,561,580,599,620,640,659,680,700,719,740,760,779,799,820,840,860,880,901,920,941,960,980,1000,1019,1040,1060,1079,1100,1120,1139,1160,1179,1199,1220,1239,1260,1280,1300,1320,1340,1360,1379,1400,1420,1439,1459,1479,1499,1521,1539,1559,1579],"xSR":741.5,"ySR":573.95,"xT1":424.9,"yT1":0,"xT2":1058.1,"yT2":0,"toosoon":0,"cond_shown":"Incongruent","ratio_trial":200,"L_num":4,"L_den":30,"R_num":1,"R_den":3,"correct_side":2,"subjID":"juanzubieta2","gender":"0","school":"4","age":"9"},{"start_time":1552073819836,"click_time":1552073821823,"finger_time":1552073821323,"fix_duration":250,"trial":34,"RT":1487,"MT":500,"sideResp":1,"stimulus":[],"xmouse":[835,835,835,835,835,835,835,835,821,806,796,794,794,794,794,794,794,794,794,794,794,794,794,794,794,794,794,794,794,794,793,793,793,793,793,793,793,793,793,793,794,794,795,797,797,798,799,799,799,799,799,799,800,802,802,802,802,802,802,802,802,802,802,802,802,802,802,802,802,802,802,800,786,769,737,687,621,524,408,374,343,324,310,310,314,317,318,318,319,321,325,335,353,397,416,428,437,443,453,454],"ymouse":[648,648,648,648,648,648,649,649,648,645,644,644,644,644,644,644,644,644,644,644,644,644,644,644,644,644,644,644,644,644,644,644,644,644,644,644,644,644,644,643,640,638,637,634,633,631,629,628,628,628,628,627,626,625,625,625,625,625,625,625,625,625,625,625,625,625,625,625,625,625,625,623,615,597,561,492,402,244,21,0,0,0,0,0,0,0,0,0,0,8,25,46,75,122,132,135,134,125,100,90],"timestamp_mouse":[9,34,48,68,87,108,128,147,168,187,208,228,249,268,287,307,328,349,368,388,408,428,448,468,488,508,527,548,568,588,608,627,648,668,689,708,728,748,767,787,808,828,848,867,888,907,928,948,968,987,1009,1027,1048,1068,1088,1107,1127,1147,1167,1187,1207,1228,1248,1268,1288,1308,1327,1348,1367,1388,1407,1427,1448,1467,1487,1507,1527,1547,1569,1587,1607,1627,1649,1667,1688,1707,1728,1749,1769,1788,1808,1828,1847,1867,1887,1908,1927,1947,1968,1987],"xSR":741.5,"ySR":573.95,"xT1":424.9,"yT1":0,"xT2":1058.1,"yT2":0,"toosoon":0,"cond_shown":"Incongruent","ratio_trial":200,"L_num":4,"L_den":5,"R_num":6,"R_den":10,"correct_side":1,"subjID":"juanzubieta2","gender":"0","school":"4","age":"9"},{"start_time":1552073826336,"click_time":1552073828424,"finger_time":1552073828223,"fix_duration":250,"trial":35,"RT":1887,"MT":201,"sideResp":1,"stimulus":[],"xmouse":[775,775,775,775,775,775,775,774,764,757,751,751,751,751,751,751,751,751,751,751,751,751,751,751,751,751,751,751,751,751,751,751,751,751,751,751,751,751,751,751,751,751,751,751,751,751,751,751,751,751,751,751,751,751,751,751,751,751,751,751,751,751,751,751,751,751,751,751,751,751,751,751,751,751,751,751,751,751,751,751,751,751,751,751,751,751,751,751,751,751,751,751,750,754,763,777,777,750,632,552,513,499,497,497,497],"ymouse":[644,644,644,644,644,644,644,644,644,644,644,644,644,644,644,644,644,644,644,644,644,644,644,644,644,644,644,644,644,644,644,644,644,644,644,644,644,644,644,644,644,644,644,644,644,644,644,644,644,644,644,644,644,644,644,644,644,644,644,644,644,644,644,644,644,644,644,644,644,644,644,644,644,644,644,644,644,644,644,644,644,644,644,644,644,644,644,644,644,644,644,644,643,602,529,426,302,147,0,0,0,0,0,0,3],"timestamp_mouse":[8,29,48,67,87,108,127,147,167,188,207,227,247,267,287,307,327,347,368,388,407,429,447,468,488,507,527,548,569,587,608,628,647,669,688,708,728,747,768,787,807,829,847,868,887,907,928,948,969,988,1008,1028,1048,1068,1088,1107,1128,1148,1167,1188,1208,1229,1248,1268,1287,1307,1327,1348,1367,1389,1408,1428,1448,1468,1489,1509,1528,1548,1568,1589,1608,1629,1648,1668,1688,1708,1727,1749,1767,1788,1807,1828,1847,1867,1887,1909,1927,1948,1968,1987,2007,2029,2048,2068,2087],"xSR":741.5,"ySR":573.95,"xT1":424.9,"yT1":0,"xT2":1058.1,"yT2":0,"toosoon":0,"cond_shown":"Congruent","ratio_trial":300,"L_num":4,"L_den":5,"R_num":2,"R_den":4,"correct_side":1,"subjID":"juanzubieta2","gender":"0","school":"4","age":"9"},{"start_time":1552073830428,"click_time":1552073832183,"finger_time":1552073831623,"fix_duration":823.9875715339365,"trial":36,"RT":1195,"MT":560,"sideResp":2,"stimulus":[],"xmouse":[797,797,797,797,797,797,797,797,797,797,797,797,797,797,797,797,797,797,797,797,797,797,797,797,797,797,797,797,795,794,793,793,793,793,793,793,793,793,793,793,793,793,793,793,793,793,793,793,793,793,793,793,793,794,798,803,810,818,829,864,885,909,969,1015,1100,1147,1189,1222,1246,1269,1280,1290,1301,1304,1287,1234,1192,1138,1082,999,987,986,986,986,996,1014,1053,1145],"ymouse":[614,614,614,614,614,614,614,614,614,614,614,614,614,614,614,614,614,614,614,614,614,614,614,614,614,614,614,614,614,614,614,614,614,614,614,614,614,614,614,614,614,614,614,614,614,614,614,614,614,614,614,614,614,614,614,613,613,611,605,581,563,542,491,452,363,312,259,210,170,133,117,101,74,54,17,0,0,0,0,0,0,0,0,0,3,9,27,68],"timestamp_mouse":[17,48,57,76,95,115,136,157,175,197,215,235,256,275,295,316,336,356,376,404,415,435,455,476,496,515,535,555,575,595,615,635,656,676,695,716,737,755,776,795,816,836,855,875,895,916,935,955,976,996,1016,1035,1057,1075,1095,1116,1135,1155,1176,1195,1216,1236,1257,1276,1296,1316,1337,1356,1377,1395,1415,1435,1456,1475,1495,1516,1537,1556,1576,1597,1615,1635,1655,1675,1695,1715,1736,1755],"xSR":741.5,"ySR":573.95,"xT1":424.9,"yT1":0,"xT2":1058.1,"yT2":0,"toosoon":0,"cond_shown":"Congruent","ratio_trial":200,"L_num":5,"L_den":10,"R_num":14,"R_den":20,"correct_side":2,"subjID":"juanzubieta2","gender":"0","school":"4","age":"9"},{"start_time":1552073835001,"click_time":1552073836743,"finger_time":1552073836404,"fix_duration":255.57524036171685,"trial":37,"RT":1403,"MT":339,"sideResp":1,"stimulus":[],"xmouse":[754,754,754,754,754,754,754,754,756,757,757,757,757,757,757,757,757,757,757,757,757,757,757,757,757,757,757,757,757,757,757,757,757,757,757,757,757,757,757,757,757,757,757,757,757,757,757,757,757,757,757,757,757,757,757,757,757,757,757,757,757,757,757,757,757,757,757,757,758,759,759,751,718,686,643,602,530,507,491,482,476,475,475,475,475,475,474,473],"ymouse":[595,595,595,595,595,595,595,595,595,595,595,595,595,595,595,595,595,595,595,595,595,595,595,595,595,595,595,595,595,595,595,595,595,595,595,595,595,595,595,595,595,595,595,595,595,595,595,595,595,595,595,595,595,595,595,595,595,595,595,595,595,595,595,595,595,595,595,595,595,589,564,454,335,250,163,86,0,0,0,0,0,0,0,0,0,0,0,6],"timestamp_mouse":[9,35,42,64,83,103,122,142,164,182,203,222,243,263,282,302,323,344,363,382,403,423,442,462,483,503,523,542,562,582,604,623,642,663,683,702,722,743,763,784,803,822,842,864,883,903,922,943,963,982,1002,1023,1044,1063,1082,1102,1123,1144,1164,1182,1203,1222,1243,1262,1283,1303,1324,1342,1362,1383,1402,1422,1443,1463,1482,1503,1523,1543,1563,1582,1602,1623,1642,1663,1683,1703,1723,1742],"xSR":741.5,"ySR":573.95,"xT1":424.9,"yT1":0,"xT2":1058.1,"yT2":0,"toosoon":0,"cond_shown":"Incongruent","ratio_trial":100,"L_num":13,"L_den":26,"R_num":6,"R_den":10,"correct_side":2,"subjID":"juanzubieta2","gender":"0","school":"4","age":"9"},{"start_time":1552073838831,"click_time":1552073840544,"finger_time":1552073839644,"fix_duration":524.8411619544311,"trial":38,"RT":813,"MT":900,"sideResp":2,"stimulus":[],"xmouse":[803,803,804,805,805,805,804,802,796,788,786,786,786,788,790,801,804,807,809,810,812,812,812,812,812,813,814,814,814,814,814,814,814,814,814,814,814,815,816,819,835,848,871,902,923,943,946,948,949,949,949,943,932,918,890,852,846,846,846,856,881,889,890,890,890,890,892,898,917,937,953,954,954,954,954,954,954,954,955,956,979,1001,1014,1021,1056,1060],"ymouse":[655,655,655,656,656,656,658,659,662,666,667,667,667,667,667,660,656,653,649,648,645,644,642,641,636,619,618,618,617,617,617,617,617,617,617,617,615,614,605,593,561,541,514,491,476,454,445,439,434,427,418,403,380,350,281,143,107,82,59,22,0,0,0,0,0,4,11,24,46,55,55,52,52,52,52,52,52,52,51,51,62,68,71,72,77,78],"timestamp_mouse":[13,38,53,73,92,112,133,153,173,192,213,233,252,272,292,312,332,353,372,392,412,433,452,472,492,512,532,552,573,593,612,632,654,674,693,713,732,752,772,792,813,833,852,873,892,912,932,952,972,993,1013,1032,1052,1072,1092,1112,1133,1152,1173,1192,1212,1232,1252,1272,1294,1313,1333,1354,1374,1392,1413,1433,1453,1472,1493,1512,1532,1552,1574,1592,1613,1633,1653,1672,1693,1713],"xSR":741.5,"ySR":573.95,"xT1":424.9,"yT1":0,"xT2":1058.1,"yT2":0,"toosoon":0,"cond_shown":"Incongruent","ratio_trial":200,"L_num":11,"L_den":20,"R_num":3,"R_den":4,"correct_side":2,"subjID":"juanzubieta2","gender":"0","school":"4","age":"9"},{"start_time":1552073846055,"click_time":1552073847744,"finger_time":1552073847323,"fix_duration":250,"trial":39,"RT":1268,"MT":421,"sideResp":2,"stimulus":[],"xmouse":[800,800,800,800,800,800,800,800,800,800,797,792,792,792,792,792,790,788,787,787,787,787,787,787,787,787,787,787,787,787,787,787,787,787,787,787,787,787,787,787,787,787,787,787,787,787,787,787,787,787,787,788,789,790,790,790,791,791,791,791,793,810,832,866,888,917,934,956,994,1034,1097,1104,1105,1105,1105,1105,1108,1112,1116,1128,1146,1148,1148,1141,1127],"ymouse":[638,638,638,638,638,638,638,638,638,638,641,643,644,644,644,644,646,649,651,651,651,651,651,649,649,649,649,649,649,649,649,649,649,649,649,649,649,649,649,649,649,649,649,649,649,649,649,649,649,649,642,636,633,632,632,632,632,632,632,632,632,632,632,631,624,595,566,529,463,391,277,248,226,205,200,197,196,195,192,184,161,142,121,104,86],"timestamp_mouse":[9,36,49,69,89,110,128,149,169,189,208,229,249,270,289,309,328,349,369,390,409,428,448,468,489,509,529,549,569,588,608,629,648,668,689,709,728,750,770,789,809,828,848,870,889,909,930,949,970,989,1008,1029,1048,1069,1090,1108,1129,1149,1170,1189,1208,1229,1248,1268,1288,1308,1329,1349,1369,1389,1408,1430,1449,1469,1488,1508,1528,1548,1568,1588,1608,1629,1649,1668,1689],"xSR":741.5,"ySR":573.95,"xT1":424.9,"yT1":0,"xT2":1058.1,"yT2":0,"toosoon":0,"cond_shown":"Incongruent","ratio_trial":200,"L_num":14,"L_den":30,"R_num":12,"R_den":18,"correct_side":2,"subjID":"juanzubieta2","gender":"0","school":"4","age":"9"},{"start_time":1552073850035,"click_time":1552073851823,"finger_time":1552073851183,"fix_duration":250,"trial":40,"RT":1148,"MT":640,"sideResp":2,"stimulus":[],"xmouse":[799,799,799,799,799,799,799,799,799,799,799,799,801,801,801,801,801,801,801,801,801,801,801,801,802,802,802,802,802,802,802,802,802,802,804,804,804,804,805,805,805,805,805,805,805,805,805,805,805,805,805,804,802,801,801,801,803,824,868,932,1012,1183,1248,1296,1301,1303,1300,1300,1300,1300,1300,1300,1298,1289,1266,1223,1082,1022,1008,1008,1009,1014,1017,1019,1020,1025,1035,1044,1053,1067],"ymouse":[600,600,600,600,600,600,600,600,600,600,600,602,606,606,606,606,606,606,606,606,606,606,606,607,607,607,607,607,607,607,607,607,607,607,603,599,593,592,590,590,590,590,590,590,590,590,590,590,590,590,590,590,590,590,590,590,585,566,526,471,404,245,162,51,22,0,0,0,0,0,0,0,0,0,0,0,0,0,0,1,2,3,4,4,5,6,11,15,18,22],"timestamp_mouse":[8,29,48,69,89,109,130,150,168,190,209,228,249,269,290,308,330,350,368,390,409,430,449,469,490,510,528,550,570,589,610,629,650,668,688,709,728,749,769,789,809,828,848,868,890,909,930,948,969,990,1010,1028,1050,1068,1090,1109,1129,1148,1169,1189,1210,1228,1249,1268,1290,1308,1329,1349,1370,1389,1409,1428,1449,1469,1489,1509,1530,1548,1568,1588,1608,1630,1648,1669,1689,1709,1729,1748,1769,1788],"xSR":741.5,"ySR":573.95,"xT1":424.9,"yT1":0,"xT2":1058.1,"yT2":0,"toosoon":0,"cond_shown":"Congruent","ratio_trial":200,"L_num":15,"L_den":25,"R_num":4,"R_den":10,"correct_side":1,"subjID":"juanzubieta2","gender":"0","school":"4","age":"9"},{"start_time":1552073854121,"click_time":1552073855243,"finger_time":1552073854444,"fix_duration":1136.837832998672,"trial":41,"RT":323,"MT":799,"sideResp":1,"stimulus":[],"xmouse":[813,813,813,813,813,813,813,813,813,813,813,813,813,813,808,799,787,759,746,737,726,714,696,663,650,642,634,628,609,604,602,600,598,595,588,577,568,563,563,563,563,563,558,546,540,536,532,532,530,527,527,527,527,527,525,520,515],"ymouse":[609,609,609,609,609,609,609,609,609,609,609,609,609,606,597,585,570,533,518,505,488,467,436,394,375,363,349,331,287,277,268,262,239,216,184,157,136,125,125,125,125,125,125,125,124,122,119,118,118,117,117,117,117,117,114,106,96],"timestamp_mouse":[8,23,43,62,82,103,124,144,163,184,204,224,243,262,282,303,323,343,362,383,404,423,442,462,483,503,524,542,563,583,603,622,643,662,683,703,722,743,762,783,803,823,842,862,882,903,923,943,964,983,1002,1023,1043,1062,1084,1103,1122],"xSR":741.5,"ySR":573.95,"xT1":424.9,"yT1":0,"xT2":1058.1,"yT2":0,"toosoon":0,"cond_shown":"Incongruent","ratio_trial":100,"L_num":9,"L_den":10,"R_num":20,"R_den":25,"correct_side":1,"subjID":"juanzubieta2","gender":"0","school":"4","age":"9"},{"start_time":1552073858718,"click_time":1552073860043,"finger_time":1552073859683,"fix_duration":651.7960844180305,"trial":42,"RT":965,"MT":360,"sideResp":1,"stimulus":[],"xmouse":[758,758,758,758,758,758,758,758,758,758,758,758,758,758,758,758,758,758,758,758,758,758,758,758,758,758,758,758,758,758,758,758,758,758,758,758,758,758,758,758,758,758,758,758,758,758,758,768,786,786,781,762,749,734,732,730,725,717,691,681,677,675,673,648,591,535,501],"ymouse":[647,647,647,647,647,647,647,647,647,647,647,647,647,647,647,647,647,647,647,647,647,647,647,647,647,647,647,647,647,647,647,647,647,647,647,647,647,647,647,647,647,647,647,647,647,647,645,607,479,390,302,231,190,156,151,143,134,121,95,88,86,85,84,75,54,32,19],"timestamp_mouse":[17,25,47,66,87,107,127,146,165,185,206,226,246,266,285,305,325,346,366,385,406,427,445,465,485,506,526,546,565,587,607,627,646,667,687,707,726,745,766,787,807,827,845,866,887,906,925,945,965,985,1005,1026,1046,1065,1086,1106,1126,1147,1165,1186,1206,1226,1246,1265,1286,1305,1325],"xSR":741.5,"ySR":573.95,"xT1":424.9,"yT1":0,"xT2":1058.1,"yT2":0,"toosoon":0,"cond_shown":"Incongruent","ratio_trial":200,"L_num":3,"L_den":4,"R_num":11,"R_den":20,"correct_side":1,"subjID":"juanzubieta2","gender":"0","school":"4","age":"9"},{"start_time":1552073863647,"click_time":1552073865303,"finger_time":1552073864964,"fix_duration":662.429134058029,"trial":43,"RT":1317,"MT":339,"sideResp":2,"stimulus":[],"xmouse":[764,764,764,764,764,764,764,764,764,764,764,764,764,764,764,764,764,764,764,764,764,764,764,764,764,764,764,764,764,764,764,764,764,764,764,764,764,764,764,764,764,764,764,764,764,764,764,764,764,764,764,764,764,764,764,764,764,764,764,764,764,764,761,754,743,729,708,761,824,892,955,1030,1052,1064,1072,1074,1076,1076,1076,1082,1090,1104,1104],"ymouse":[636,636,636,636,636,636,636,636,636,636,636,636,636,636,636,636,636,636,636,636,636,636,636,636,636,636,636,636,636,636,636,636,636,636,636,636,636,636,636,636,636,636,636,636,636,636,636,636,636,636,636,636,636,636,636,636,636,636,636,636,636,635,634,626,607,581,510,470,436,406,371,320,299,282,263,252,242,234,228,216,196,112,47],"timestamp_mouse":[17,37,57,76,96,118,137,158,176,197,218,236,257,277,298,317,336,358,376,396,418,438,457,478,498,517,536,557,577,596,617,637,658,677,698,717,737,757,777,798,816,838,856,878,896,916,938,956,977,997,1016,1037,1056,1076,1096,1116,1137,1158,1178,1197,1218,1237,1256,1277,1297,1317,1337,1357,1376,1397,1416,1437,1456,1478,1496,1516,1536,1557,1577,1596,1617,1637,1656],"xSR":741.5,"ySR":573.95,"xT1":424.9,"yT1":0,"xT2":1058.1,"yT2":0,"toosoon":0,"cond_shown":"Incongruent","ratio_trial":300,"L_num":4,"L_den":20,"R_num":2,"R_den":4,"correct_side":2,"subjID":"juanzubieta2","gender":"0","school":"4","age":"9"},{"start_time":1552073874582,"click_time":1552073876085,"finger_time":1552073875543,"fix_duration":457.0916709694284,"trial":44,"RT":961,"MT":542,"sideResp":2,"stimulus":[],"xmouse":[792,792,792,792,792,792,792,792,792,792,792,792,792,792,792,792,792,792,792,792,792,792,792,792,792,792,792,792,792,793,793,793,794,794,794,794,794,794,794,794,794,794,794,794,794,794,797,822,844,884,936,986,1060,1076,1081,1081,1081,1090,1093,1094,1094,1089,1062,1054,1051,1051,1053,1076,1089,1097,1103,1105,1110,1112,1112,1108],"ymouse":[656,656,656,656,656,656,656,656,656,656,656,656,656,656,656,656,656,656,656,656,656,656,656,656,653,651,650,650,650,649,649,649,649,649,649,649,649,649,649,649,649,648,648,647,647,647,641,618,601,570,533,493,409,360,305,292,264,240,235,226,218,201,167,156,147,140,136,130,128,127,126,124,119,112,100,78],"timestamp_mouse":[8,23,43,63,82,103,123,142,161,181,202,223,243,262,281,302,323,341,363,383,401,421,441,462,481,502,523,541,562,582,603,622,641,662,683,703,721,741,762,782,803,822,841,863,883,901,921,942,961,982,1002,1022,1041,1063,1081,1103,1122,1142,1162,1181,1202,1222,1242,1261,1282,1303,1322,1342,1362,1382,1402,1422,1441,1461,1481,1503],"xSR":741.5,"ySR":573.95,"xT1":424.9,"yT1":0,"xT2":1058.1,"yT2":0,"toosoon":0,"cond_shown":"Incongruent","ratio_trial":200,"L_num":7,"L_den":15,"R_num":4,"R_den":6,"correct_side":2,"subjID":"juanzubieta2","gender":"0","school":"4","age":"9"},{"start_time":1552073877875,"click_time":1552073885445,"finger_time":1552073878863,"fix_duration":250,"trial":45,"RT":988,"MT":6582,"sideResp":1,"stimulus":[],"xmouse":[763,764,764,765,765,766,766,766,767,768,769,769,769,769,769,769,769,769,769,769,769,769,769,769,769,769,769,769,770,769,767,766,766,766,766,765,764,764,764,764,764,764,764,764,764,764,764,764,764,764,767,769,770,770,770,770,770,770,770,770,770,770,770,770,770,770,770,770,774,775,776,777,783,784,784,784,785,788,788,788,788,788,788,788,788,788,788,789,789,789,789,789,789,790,790,790,790,790,790,790,789,789,789,789,789,789,789,789,789,789,789,789,789,789,789,789,789,789,789,789,789,789,789,789,788,788,787,786,786,785,784,784,784,784,784,784,784,784,784,784,784,784,784,784,784,784,784,784,784,784,784,784,784,784,784,784,784,784,784,784,784,784,784,784,784,784,784,784,784,784,784,784,784,784,784,784,784,784,784,784,784,784,784,784,784,784,784,784,784,784,784,784,784,784,784,784,784,784,784,784,784,784,784,784,784,784,784,784,784,784,784,784,784,784,784,784,784,784,784,784,784,784,784,784,784,784,784,784,784,784,784,784,784,784,784,784,784,784,784,784,784,784,784,784,784,784,784,784,784,784,784,784,784,784,784,784,784,784,784,784,784,784,784,784,784,784,784,784,784,784,784,784,784,784,784,784,784,784,784,784,784,784,784,784,784,784,784,784,784,784,784,784,784,784,784,784,784,784,784,784,784,784,784,784,784,784,784,784,784,784,784,784,784,784,784,784,784,784,784,784,784,784,784,784,784,784,784,784,784,784,784,784,784,784,784,784,784,784,784,784,784,784,784,784,784,784,784,786,790,792,792,792,792,792,792,792,792,792,792,792,793,793,793,789,784,762,740,708,642,612,588,574,564,552,548,540,534,526,510],"ymouse":[626,627,627,627,627,627,627,627,627,626,626,626,626,626,626,626,626,626,626,626,626,626,626,626,626,626,626,626,626,630,631,632,633,634,634,636,642,649,649,649,649,649,649,649,649,650,652,658,670,678,687,691,692,692,692,691,689,688,688,688,688,688,683,674,666,662,662,660,658,656,650,645,635,633,633,633,633,633,633,633,633,633,633,633,633,633,633,633,633,633,633,633,633,632,632,632,631,631,630,630,630,629,629,629,629,628,626,620,620,620,620,620,620,620,620,620,620,620,620,620,620,620,620,620,619,619,619,619,619,615,612,611,610,610,610,610,610,610,610,610,610,610,610,610,610,610,610,610,610,610,610,610,610,610,610,610,610,610,610,610,610,610,610,610,610,610,610,610,610,610,610,610,610,610,610,610,610,610,610,610,610,610,610,610,610,610,610,610,610,610,610,610,610,610,610,610,610,610,610,610,610,610,610,610,610,610,610,610,610,610,610,610,610,610,610,610,610,610,610,610,610,610,610,610,610,610,610,610,610,610,610,610,610,610,610,610,610,610,610,610,610,610,610,610,610,610,610,610,610,610,610,610,610,610,610,610,610,610,610,610,610,610,610,610,610,610,610,610,610,610,610,610,610,610,610,610,610,610,610,610,610,610,610,610,610,610,610,610,610,610,610,610,610,610,610,610,610,610,610,610,610,610,610,610,610,610,610,610,610,610,610,610,610,610,610,610,610,610,610,610,610,610,610,610,610,610,610,610,610,610,610,610,610,610,610,610,610,610,610,610,610,610,610,610,610,610,614,620,637,639,639,639,639,639,639,639,639,639,639,639,640,638,635,616,595,539,488,434,322,271,229,196,173,136,120,100,86,68,30],"timestamp_mouse":[8,29,49,69,88,109,129,150,168,188,210,228,249,269,290,309,329,350,369,388,409,430,450,470,489,508,529,548,568,588,608,629,648,668,689,709,729,748,770,789,809,828,848,869,890,908,929,949,970,988,1010,1029,1050,1069,1089,1108,1128,1148,1170,1189,1209,1228,1249,1268,1290,1309,1330,1348,1369,1389,1410,1430,1449,1469,1489,1508,1529,1549,1570,1589,1609,1628,1650,1670,1689,1709,1728,1750,1768,1790,1809,1829,1849,1870,1889,1908,1929,1950,1969,1988,2008,2029,2050,2069,2089,2108,2129,2148,2169,2188,2209,2228,2250,2270,2289,2309,2329,2350,2368,2389,2410,2430,2449,2469,2490,2508,2528,2548,2570,2588,2608,2628,2649,2670,2690,2708,2729,2748,2770,2788,2809,2829,2849,2868,2889,2910,2930,2948,2969,2988,3010,3030,3049,3069,3089,3109,3129,3149,3170,3189,3209,3229,3249,3270,3289,3309,3328,3350,3370,3390,3410,3428,3448,3468,3488,3510,3529,3548,3569,3590,3609,3630,3649,3668,3688,3709,3729,3750,3770,3789,3809,3829,3850,3868,3889,3908,3930,3950,3968,3990,4010,4030,4049,4069,4089,4110,4130,4150,4170,4190,4209,4230,4250,4269,4288,4309,4329,4349,4369,4389,4409,4428,4450,4470,4488,4510,4529,4548,4568,4589,4610,4630,4648,4668,4688,4708,4728,4749,4768,4789,4810,4829,4848,4868,4890,4910,4930,4948,4968,4990,5010,5030,5048,5068,5088,5109,5128,5148,5170,5188,5208,5229,5250,5268,5288,5308,5329,5350,5368,5389,5410,5430,5449,5468,5490,5510,5528,5548,5569,5590,5608,5629,5649,5668,5689,5710,5729,5748,5769,5788,5809,5829,5848,5870,5889,5909,5929,5950,5970,5989,6010,6029,6048,6068,6089,6110,6130,6149,6169,6188,6209,6229,6248,6269,6288,6308,6328,6350,6369,6388,6410,6430,6448,6468,6489,6510,6530,6548,6568,6590,6610,6628,6648,6669,6689,6710,6728,6749,6768,6789,6810,6828,6849,6868,6890,6909,6929,6949,6968,6988,7009,7029,7049,7070,7089,7109,7129,7148,7169,7188,7209,7228,7249,7268,7289,7308,7329,7349,7369,7388,7409,7429,7449,7468,7489,7508,7529,7550,7570],"xSR":741.5,"ySR":573.95,"xT1":424.9,"yT1":0,"xT2":1058.1,"yT2":0,"toosoon":0,"cond_shown":"Congruent","ratio_trial":200,"L_num":7,"L_den":15,"R_num":18,"R_den":27,"correct_side":2,"subjID":"juanzubieta2","gender":"0","school":"4","age":"9"},{"start_time":1552073891582,"click_time":1552073893463,"finger_time":1552073893183,"fix_duration":918.0584216256253,"trial":46,"RT":1601,"MT":280,"sideResp":1,"stimulus":[],"xmouse":[793,793,793,793,793,793,793,793,793,793,793,793,793,793,793,793,793,793,793,793,793,793,793,793,793,793,793,793,793,793,793,793,793,793,793,793,793,793,793,793,793,793,793,793,793,793,793,793,793,793,793,793,793,793,793,793,793,793,793,793,793,793,793,793,793,793,793,793,793,793,793,793,793,793,793,793,793,792,789,756,706,639,563,503,451,450,452,455,457,457,457,452,447,444,438],"ymouse":[618,618,618,618,618,618,618,619,619,619,619,619,619,619,619,619,619,619,619,619,619,619,619,619,619,619,619,619,619,619,619,619,619,619,619,619,619,619,619,619,619,619,619,619,619,619,619,619,619,619,619,619,619,619,619,619,619,619,619,619,619,619,619,619,619,619,619,619,619,619,619,619,619,619,619,619,619,619,618,577,518,447,375,307,233,218,209,198,188,162,149,134,122,113,98],"timestamp_mouse":[14,21,42,63,83,103,121,141,163,181,201,221,241,263,281,302,322,343,363,381,403,423,442,461,483,502,522,543,563,581,603,622,643,662,682,703,721,741,762,781,801,823,841,862,882,902,923,943,962,981,1002,1023,1043,1063,1082,1103,1121,1142,1162,1181,1203,1223,1241,1261,1281,1303,1322,1342,1363,1382,1403,1421,1443,1461,1482,1503,1521,1542,1561,1581,1601,1623,1641,1663,1681,1702,1722,1743,1761,1781,1801,1821,1842,1862,1881],"xSR":741.5,"ySR":573.95,"xT1":424.9,"yT1":0,"xT2":1058.1,"yT2":0,"toosoon":0,"cond_shown":"Incongruent","ratio_trial":200,"L_num":7,"L_den":10,"R_num":12,"R_den":24,"correct_side":1,"subjID":"juanzubieta2","gender":"0","school":"4","age":"9"},{"start_time":1552073897512,"click_time":1552073898925,"finger_time":1552073898245,"fix_duration":1347.7991939138226,"trial":47,"RT":733,"MT":680,"sideResp":1,"stimulus":[],"xmouse":[785,785,785,785,785,785,785,785,785,785,785,785,785,785,785,784,784,784,784,784,784,784,784,784,784,784,784,784,784,784,784,784,784,783,776,761,729,615,590,538,522,514,503,491,469,442,419,409,412,414,415,415,415,415,415,415,415,415,415,415,417,418,419,419,419,419,419,419,419,422,428],"ymouse":[648,648,648,648,648,648,648,648,648,648,650,654,658,659,659,660,661,661,661,661,661,661,661,661,661,661,661,661,661,661,661,661,661,657,639,608,540,355,326,274,258,244,210,188,152,113,78,46,39,37,37,37,37,37,37,37,37,37,37,37,38,40,42,42,42,42,42,42,42,47,54],"timestamp_mouse":[12,39,52,73,91,113,132,152,173,191,213,232,251,271,292,311,332,353,371,392,413,432,452,472,493,511,533,552,573,592,612,631,653,671,692,712,733,752,772,791,811,831,852,871,892,911,933,951,973,991,1011,1032,1052,1072,1091,1112,1131,1153,1172,1192,1213,1231,1251,1272,1292,1313,1333,1351,1371,1392,1413],"xSR":741.5,"ySR":573.95,"xT1":424.9,"yT1":0,"xT2":1058.1,"yT2":0,"toosoon":0,"cond_shown":"Congruent","ratio_trial":300,"L_num":1,"L_den":5,"R_num":11,"R_den":22,"correct_side":2,"subjID":"juanzubieta2","gender":"0","school":"4","age":"9"},{"start_time":1552073904431,"click_time":1552073906443,"finger_time":1552073905563,"fix_duration":704.5038811228994,"trial":48,"RT":1132,"MT":880,"sideResp":1,"stimulus":[],"xmouse":[781,781,781,781,781,781,781,781,781,781,781,781,781,781,781,781,781,781,781,781,781,781,780,778,776,776,776,776,776,776,776,776,776,776,776,776,776,776,776,776,776,776,775,775,775,775,775,775,775,775,775,775,775,775,775,775,775,775,775,775,775,774,774,774,774,774,774,763,746,719,692,683,682,682,682,682,682,680,628,551,475,422,402,400,400,400