[{"start_time":1552074461950,"click_time":1552074463156,"finger_time":1552074462696,"fix_duration":449.21817414797505,"trial":0,"RT":746,"MT":460,"sideResp":2,"stimulus":"img/900/randomdotsizeEA/L/2_Ratio_900_L_20_R_18.png","xmouse":[777,777,777,777,781,781,781,781,781,781,781,781,781,781,782,783,783,783,783,783,783,783,783,783,783,783,783,783,783,783,783,783,783,783,783,784,794,812,835,917,989,1037,1079,1112,1119,1122,1123,1123,1121,1121,1121,1121,1121,1121,1104,1103,1103,1103,1105,1105,1098],"ymouse":[510,510,510,509,504,504,504,504,504,504,504,504,504,504,501,500,500,500,500,500,499,499,499,499,499,499,499,499,499,499,499,499,499,499,499,492,474,447,416,341,288,259,235,206,191,179,171,164,155,154,152,149,144,139,126,124,124,124,120,111,89],"timestamp_mouse":[8,38,47,66,86,105,127,147,166,186,205,226,246,265,286,306,327,347,366,387,406,426,446,466,487,506,526,547,566,587,606,627,646,665,687,706,727,746,766,786,806,826,846,866,886,906,927,947,966,986,1005,1025,1046,1066,1086,1106,1126,1146,1167,1186,1206],"xSR":741.5,"ySR":469.95,"xT1":424.9,"yT1":0,"xT2":1058.1,"yT2":0,"toosoon":0,"cond_shown":"randomdotsizeEA","ratio_trial":900,"smaller_num":"18","larger_num":"20","correct_side":1,"subjID":"juandavidzubieta2","gender":"0","age":"9","school":"4","test":{"fix_dur":[250,1500],"timestim":300,"targets_dim":[100,100],"targets_relative_coord":[0.3,0.7],"size_stim":[880,420],"start_dim":[100,100],"size_start":[300,300],"size_fix":60,"samplingrate":20,"img_types":["equaldotsize","equaldotanddens","randomdotsizeEA"],"ratios":[250,500,750,900],"rep_conds":9,"nTrials":120,"trials_to_rest":500,"Trials_order":[59,38,47,5,108,18,95,45,80,58,21,72,117,26,49,9,41,88,112,1,89,24,99,35,77,50,55,70,84,57,2,33,81,4,69,115,61,113,114,20,40,12,91,65,62,85,96,98,31,79,64,23,25,43,103,6,119,19,71,66,54,86,48,44,116,22,74,67,46,42,83,27,68,17,53,107,60,100,10,97,34,76,13,7,92,104,111,37,0,56,39,30,78,87,93,94,3,29,82,63,11,110,101,106,75,52,15,32,14,109,51,36,73,102,90,105,118,28,16,8],"cond_shown":["randomdotsizeEA","randomdotsizeEA","randomdotsizeEA","randomdotsizeEA","equaldotsize","equaldotsize","randomdotsizeEA","equaldotsize","randomdotsizeEA","equaldotanddens","equaldotsize","equaldotsize","equaldotsize","randomdotsizeEA","equaldotanddens","equaldotsize","randomdotsizeEA","equaldotanddens","equaldotanddens","equaldotanddens","randomdotsizeEA","equaldotsize","equaldotsize","randomdotsizeEA","randomdotsizeEA","randomdotsizeEA","equaldotanddens","equaldotanddens","equaldotsize","equaldotsize","randomdotsizeEA","equaldotsize","equaldotsize","equaldotanddens","equaldotsize","equaldotanddens","equaldotanddens","randomdotsizeEA","equaldotsize","randomdotsizeEA","equaldotanddens","equaldotsize","equaldotanddens","randomdotsizeEA","randomdotsizeEA","equaldotanddens","equaldotsize","randomdotsizeEA","equaldotanddens","equaldotanddens","equaldotanddens","randomdotsizeEA","equaldotanddens","equaldotanddens","equaldotanddens","equaldotsize","randomdotsizeEA","equaldotanddens","randomdotsizeEA","equaldotsize","equaldotsize","randomdotsizeEA","equaldotsize","randomdotsizeEA","randomdotsizeEA","equaldotanddens","randomdotsizeEA","equaldotanddens","equaldotanddens","equaldotsize","randomdotsizeEA","equaldotsize","randomdotsizeEA","randomdotsizeEA","randomdotsizeEA","randomdotsizeEA","equaldotsize","equaldotanddens","equaldotanddens","equaldotanddens","equaldotanddens","equaldotanddens","equaldotanddens","equaldotanddens","randomdotsizeEA","randomdotsizeEA","equaldotsize","equaldotanddens","equaldotsize","randomdotsizeEA","equaldotsize","equaldotsize","equaldotsize","equaldotsize","equaldotsize","equaldotanddens","equaldotsize","randomdotsizeEA","equaldotanddens","equaldotsize","randomdotsizeEA","randomdotsizeEA","randomdotsizeEA","equaldotanddens","equaldotsize","equaldotanddens","equaldotsize","randomdotsizeEA","randomdotsizeEA","equaldotanddens","equaldotsize","equaldotsize","equaldotanddens","equaldotsize","equaldotsize","equaldotsize","equaldotanddens","equaldotanddens","equaldotanddens","randomdotsizeEA"],"ratio_trial":[900,250,900,500,250,750,900,900,750,900,900,250,900,250,250,900,500,500,500,250,500,250,500,900,500,250,750,900,250,900,250,900,900,500,900,750,250,500,750,750,500,250,750,500,250,250,250,250,750,750,500,900,250,750,750,750,900,750,900,750,750,250,250,750,750,900,250,750,900,750,900,500,750,500,500,900,250,500,900,250,900,500,250,750,750,750,500,250,250,750,500,750,750,500,900,900,500,500,900,500,900,250,500,900,500,500,500,750,250,250,500,250,250,750,750,900,900,500,500,750],"smaller_num":["18","2","9","1","2","15","18","18","3","9","9","3","18","6","3","9","2","1","2","6","2","3","1","9","9","5","15","18","2","9","2","9","18","9","18","15","3","5","15","15","9","5","15","4","2","1","6","3","6","15","2","9","4","3","3","9","9","3","9","3","3","3","1","12","3","18","5","18","18","3","9","4","9","6","4","18","4","9","18","2","18","6","2","6","15","15","5","2","2","15","9","12","3","3","18","9","5","3","18","5","18","2","5","18","1","6","10","9","2","3","2","3","2","15","15","18","18","9","5","15"],"larger_num":["20","8","10","2","8","20","20","20","4","10","10","12","20","24","12","10","4","2","4","24","4","12","2","10","18","20","20","20","8","10","8","10","20","18","20","20","12","10","20","20","18","20","20","8","8","4","24","12","8","20","4","10","16","4","4","12","10","4","10","4","4","12","4","16","4","20","20","24","20","4","10","8","12","12","8","20","16","18","20","8","20","12","8","8","20","20","10","8","8","20","18","16","4","6","20","10","10","6","20","10","20","8","10","20","2","12","20","12","8","12","4","12","8","20","20","20","20","18","10","20"],"correct_side":[1,2,2,2,2,2,1,1,2,2,2,2,1,1,1,2,1,2,2,2,1,2,2,2,2,2,2,2,1,2,1,1,1,2,1,2,1,1,2,2,1,2,2,1,1,2,1,2,2,2,1,2,1,1,1,2,1,1,2,2,1,1,2,2,1,2,2,1,1,1,2,1,2,1,1,2,2,2,1,1,1,1,1,1,1,2,2,2,1,1,1,2,1,2,1,2,2,2,1,2,1,1,2,2,2,1,2,2,1,2,2,1,1,2,1,2,2,2,1,2],"img_shown":["img/900/randomdotsizeEA/L/2_Ratio_900_L_20_R_18.png","img/250/randomdotsizeEA/R/13_Ratio_250_L_2_R_8.png","img/900/randomdotsizeEA/R/3_Ratio_900_L_9_R_10.png","img/500/randomdotsizeEA/R/12_Ratio_500_L_1_R_2.png","img/250/equaldotsize/R/13_Ratio_250_L_2_R_8.png","img/750/equaldotsize/R/3_Ratio_750_L_15_R_20.png","img/900/randomdotsizeEA/L/4_Ratio_900_L_20_R_18.png","img/900/equaldotsize/L/2_Ratio_900_L_20_R_18.png","img/750/randomdotsizeEA/R/7_Ratio_750_L_3_R_4.png","img/900/equaldotanddens/R/7_Ratio_900_L_9_R_10.png","img/900/equaldotsize/R/7_Ratio_900_L_9_R_10.png","img/250/equaldotsize/R/4_Ratio_250_L_3_R_12.png","img/900/equaldotsize/L/2_Ratio_900_L_20_R_18.png","img/250/randomdotsizeEA/L/5_Ratio_250_L_24_R_6.png","img/250/equaldotanddens/L/15_Ratio_250_L_12_R_3.png","img/900/equaldotsize/R/7_Ratio_900_L_9_R_10.png","img/500/randomdotsizeEA/L/10_Ratio_500_L_4_R_2.png","img/500/equaldotanddens/R/12_Ratio_500_L_1_R_2.png","img/500/equaldotanddens/R/9_Ratio_500_L_2_R_4.png","img/250/equaldotanddens/R/6_Ratio_250_L_6_R_24.png","img/500/randomdotsizeEA/L/10_Ratio_500_L_4_R_2.png","img/250/equaldotsize/R/11_Ratio_250_L_3_R_12.png","img/500/equaldotsize/R/12_Ratio_500_L_1_R_2.png","img/900/randomdotsizeEA/R/7_Ratio_900_L_9_R_10.png","img/500/randomdotsizeEA/R/1_Ratio_500_L_9_R_18.png","img/250/randomdotsizeEA/R/12_Ratio_250_L_5_R_20.png","img/750/equaldotanddens/R/3_Ratio_750_L_15_R_20.png","img/900/equaldotanddens/R/13_Ratio_900_L_18_R_20.png","img/250/equaldotsize/L/1_Ratio_250_L_8_R_2.png","img/900/equaldotsize/R/3_Ratio_900_L_9_R_10.png","img/250/randomdotsizeEA/L/1_Ratio_250_L_8_R_2.png","img/900/equaldotsize/L/1_Ratio_900_L_10_R_9.png","img/900/equaldotsize/L/10_Ratio_900_L_20_R_18.png","img/500/equaldotanddens/R/1_Ratio_500_L_9_R_18.png","img/900/equaldotsize/L/10_Ratio_900_L_20_R_18.png","img/750/equaldotanddens/R/5_Ratio_750_L_15_R_20.png","img/250/equaldotanddens/L/15_Ratio_250_L_12_R_3.png","img/500/randomdotsizeEA/L/7_Ratio_500_L_10_R_5.png","img/750/equaldotsize/R/3_Ratio_750_L_15_R_20.png","img/750/randomdotsizeEA/R/5_Ratio_750_L_15_R_20.png","img/500/equaldotanddens/L/4_Ratio_500_L_18_R_9.png","img/250/equaldotsize/R/12_Ratio_250_L_5_R_20.png","img/750/equaldotanddens/R/4_Ratio_750_L_15_R_20.png","img/500/randomdotsizeEA/L/8_Ratio_500_L_8_R_4.png","img/250/randomdotsizeEA/L/7_Ratio_250_L_8_R_2.png","img/250/equaldotanddens/R/8_Ratio_250_L_1_R_4.png","img/250/equaldotsize/L/5_Ratio_250_L_24_R_6.png","img/250/randomdotsizeEA/R/11_Ratio_250_L_3_R_12.png","img/750/equaldotanddens/R/2_Ratio_750_L_6_R_8.png","img/750/equaldotanddens/R/5_Ratio_750_L_15_R_20.png","img/500/equaldotanddens/L/5_Ratio_500_L_4_R_2.png","img/900/randomdotsizeEA/R/6_Ratio_900_L_9_R_10.png","img/250/equaldotanddens/L/2_Ratio_250_L_16_R_4.png","img/750/equaldotanddens/L/8_Ratio_750_L_4_R_3.png","img/750/equaldotanddens/L/8_Ratio_750_L_4_R_3.png","img/750/equaldotsize/R/15_Ratio_750_L_9_R_12.png","img/900/randomdotsizeEA/L/1_Ratio_900_L_10_R_9.png","img/750/equaldotanddens/L/10_Ratio_750_L_4_R_3.png","img/900/randomdotsizeEA/R/5_Ratio_900_L_9_R_10.png","img/750/equaldotsize/R/7_Ratio_750_L_3_R_4.png","img/750/equaldotsize/L/10_Ratio_750_L_4_R_3.png","img/250/randomdotsizeEA/L/14_Ratio_250_L_12_R_3.png","img/250/equaldotsize/R/8_Ratio_250_L_1_R_4.png","img/750/randomdotsizeEA/R/11_Ratio_750_L_12_R_16.png","img/750/randomdotsizeEA/L/8_Ratio_750_L_4_R_3.png","img/900/equaldotanddens/R/9_Ratio_900_L_18_R_20.png","img/250/randomdotsizeEA/R/12_Ratio_250_L_5_R_20.png","img/750/equaldotanddens/L/6_Ratio_750_L_24_R_18.png","img/900/equaldotanddens/L/4_Ratio_900_L_20_R_18.png","img/750/equaldotsize/L/9_Ratio_750_L_4_R_3.png","img/900/randomdotsizeEA/R/5_Ratio_900_L_9_R_10.png","img/500/equaldotsize/L/8_Ratio_500_L_8_R_4.png","img/750/randomdotsizeEA/R/15_Ratio_750_L_9_R_12.png","img/500/randomdotsizeEA/L/11_Ratio_500_L_12_R_6.png","img/500/randomdotsizeEA/L/8_Ratio_500_L_8_R_4.png","img/900/randomdotsizeEA/R/9_Ratio_900_L_18_R_20.png","img/250/equaldotsize/R/10_Ratio_250_L_4_R_16.png","img/500/equaldotanddens/R/6_Ratio_500_L_9_R_18.png","img/900/equaldotanddens/L/10_Ratio_900_L_20_R_18.png","img/250/equaldotanddens/L/1_Ratio_250_L_8_R_2.png","img/900/equaldotanddens/L/2_Ratio_900_L_20_R_18.png","img/500/equaldotanddens/L/13_Ratio_500_L_12_R_6.png","img/250/equaldotanddens/L/3_Ratio_250_L_8_R_2.png","img/750/equaldotanddens/L/14_Ratio_750_L_8_R_6.png","img/750/randomdotsizeEA/L/1_Ratio_750_L_20_R_15.png","img/750/randomdotsizeEA/R/3_Ratio_750_L_15_R_20.png","img/500/equaldotsize/R/14_Ratio_500_L_5_R_10.png","img/250/equaldotanddens/R/13_Ratio_250_L_2_R_8.png","img/250/equaldotsize/L/7_Ratio_250_L_8_R_2.png","img/750/randomdotsizeEA/L/1_Ratio_750_L_20_R_15.png","img/500/equaldotsize/L/4_Ratio_500_L_18_R_9.png","img/750/equaldotsize/R/11_Ratio_750_L_12_R_16.png","img/750/equaldotsize/L/8_Ratio_750_L_4_R_3.png","img/500/equaldotsize/R/2_Ratio_500_L_3_R_6.png","img/900/equaldotsize/L/8_Ratio_900_L_20_R_18.png","img/900/equaldotanddens/R/5_Ratio_900_L_9_R_10.png","img/500/equaldotsize/R/14_Ratio_500_L_5_R_10.png","img/500/randomdotsizeEA/R/2_Ratio_500_L_3_R_6.png","img/900/equaldotanddens/L/4_Ratio_900_L_20_R_18.png","img/500/equaldotsize/R/14_Ratio_500_L_5_R_10.png","img/900/randomdotsizeEA/L/4_Ratio_900_L_20_R_18.png","img/250/randomdotsizeEA/L/7_Ratio_250_L_8_R_2.png","img/500/randomdotsizeEA/R/14_Ratio_500_L_5_R_10.png","img/900/equaldotanddens/R/14_Ratio_900_L_18_R_20.png","img/500/equaldotsize/R/12_Ratio_500_L_1_R_2.png","img/500/equaldotanddens/L/13_Ratio_500_L_12_R_6.png","img/500/equaldotsize/R/3_Ratio_500_L_10_R_20.png","img/750/randomdotsizeEA/R/15_Ratio_750_L_9_R_12.png","img/250/randomdotsizeEA/L/7_Ratio_250_L_8_R_2.png","img/250/equaldotanddens/R/4_Ratio_250_L_3_R_12.png","img/500/equaldotsize/R/9_Ratio_500_L_2_R_4.png","img/250/equaldotsize/L/15_Ratio_250_L_12_R_3.png","img/250/equaldotanddens/L/1_Ratio_250_L_8_R_2.png","img/750/equaldotsize/R/4_Ratio_750_L_15_R_20.png","img/750/equaldotsize/L/1_Ratio_750_L_20_R_15.png","img/900/equaldotsize/R/13_Ratio_900_L_18_R_20.png","img/900/equaldotanddens/R/9_Ratio_900_L_18_R_20.png","img/500/equaldotanddens/R/1_Ratio_500_L_9_R_18.png","img/500/equaldotanddens/L/7_Ratio_500_L_10_R_5.png","img/750/randomdotsizeEA/R/5_Ratio_750_L_15_R_20.png"],"Rat0":[["12_Ratio_0_L_9_R_0.png","13_Ratio_0_L_6_R_0.png","5_Ratio_0_L_2_R_0.png","6_Ratio_0_L_4_R_0.png","8_Ratio_0_L_6_R_0.png"],["1_Ratio_0_L_0_R_17.png","10_Ratio_0_L_0_R_22.png","11_Ratio_0_L_0_R_1.png","14_Ratio_0_L_0_R_24.png","15_Ratio_0_L_0_R_4.png","2_Ratio_0_L_0_R_5.png","3_Ratio_0_L_0_R_17.png","4_Ratio_0_L_0_R_7.png","7_Ratio_0_L_0_R_19.png","9_Ratio_0_L_0_R_15.png"]],"Rat250":[["1_Ratio_250_L_8_R_2.png","14_Ratio_250_L_12_R_3.png","15_Ratio_250_L_12_R_3.png","2_Ratio_250_L_16_R_4.png","3_Ratio_250_L_8_R_2.png","5_Ratio_250_L_24_R_6.png","7_Ratio_250_L_8_R_2.png"],["10_Ratio_250_L_4_R_16.png","11_Ratio_250_L_3_R_12.png","12_Ratio_250_L_5_R_20.png","13_Ratio_250_L_2_R_8.png","4_Ratio_250_L_3_R_12.png","6_Ratio_250_L_6_R_24.png","8_Ratio_250_L_1_R_4.png","9_Ratio_250_L_3_R_12.png"]],"Rat500":[["10_Ratio_500_L_4_R_2.png","11_Ratio_500_L_12_R_6.png","13_Ratio_500_L_12_R_6.png","4_Ratio_500_L_18_R_9.png","5_Ratio_500_L_4_R_2.png","7_Ratio_500_L_10_R_5.png","8_Ratio_500_L_8_R_4.png"],["1_Ratio_500_L_9_R_18.png","12_Ratio_500_L_1_R_2.png","14_Ratio_500_L_5_R_10.png","15_Ratio_500_L_1_R_2.png","2_Ratio_500_L_3_R_6.png","3_Ratio_500_L_10_R_20.png","6_Ratio_500_L_9_R_18.png","9_Ratio_500_L_2_R_4.png"]],"Rat750":[["1_Ratio_750_L_20_R_15.png","10_Ratio_750_L_4_R_3.png","13_Ratio_750_L_8_R_6.png","14_Ratio_750_L_8_R_6.png","6_Ratio_750_L_24_R_18.png","8_Ratio_750_L_4_R_3.png","9_Ratio_750_L_4_R_3.png"],["11_Ratio_750_L_12_R_16.png","12_Ratio_750_L_3_R_4.png","15_Ratio_750_L_9_R_12.png","2_Ratio_750_L_6_R_8.png","3_Ratio_750_L_15_R_20.png","4_Ratio_750_L_15_R_20.png","5_Ratio_750_L_15_R_20.png","7_Ratio_750_L_3_R_4.png"]],"Rat900":[["1_Ratio_900_L_10_R_9.png","10_Ratio_900_L_20_R_18.png","2_Ratio_900_L_20_R_18.png","4_Ratio_900_L_20_R_18.png","8_Ratio_900_L_20_R_18.png"],["11_Ratio_900_L_18_R_20.png","12_Ratio_900_L_18_R_20.png","13_Ratio_900_L_18_R_20.png","14_Ratio_900_L_18_R_20.png","15_Ratio_900_L_9_R_10.png","3_Ratio_900_L_9_R_10.png","5_Ratio_900_L_9_R_10.png","6_Ratio_900_L_9_R_10.png","7_Ratio_900_L_9_R_10.png","9_Ratio_900_L_18_R_20.png"]],"Rat1000":[["10_Ratio_1000_L_16_R_16.png","11_Ratio_1000_L_6_R_6.png","12_Ratio_1000_L_14_R_14.png","13_Ratio_1000_L_20_R_20.png","15_Ratio_1000_L_15_R_15.png","2_Ratio_1000_L_17_R_17.png","4_Ratio_1000_L_9_R_9.png","5_Ratio_1000_L_6_R_6.png","6_Ratio_1000_L_19_R_19.png","8_Ratio_1000_L_14_R_14.png","9_Ratio_1000_L_25_R_25.png"],["1_Ratio_1000_L_1_R_1.png","14_Ratio_1000_L_17_R_17.png","3_Ratio_1000_L_17_R_17.png","7_Ratio_1000_L_6_R_6.png"]]}},{"start_time":1552074464388,"click_time":1552074465737,"finger_time":1552074465316,"fix_duration":250,"trial":1,"RT":928,"MT":421,"sideResp":2,"stimulus":"img/250/randomdotsizeEA/R/13_Ratio_250_L_2_R_8.png","xmouse":[788,788,788,788,788,788,788,788,788,788,788,788,788,788,788,788,788,788,788,788,788,788,788,788,788,788,788,788,788,788,788,788,788,788,788,788,788,788,788,788,788,788,788,791,806,832,887,1040,1135,1231,1304,1340,1335,1327,1327,1327,1327,1327,1327,1327,1327,1327,1327,1327,1327,1327,1327,1144],"ymouse":[517,517,517,517,517,517,517,517,517,517,517,517,517,517,517,517,517,517,517,517,517,517,517,517,517,517,517,517,517,517,517,517,517,517,517,517,517,517,517,517,517,517,517,515,504,485,447,337,268,190,111,49,15,1,1,1,1,1,1,1,1,1,1,1,1,1,1,4],"timestamp_mouse":[11,30,48,68,88,109,129,147,168,189,208,227,249,269,287,307,329,349,368,388,409,428,448,468,489,508,529,549,568,588,608,628,648,669,689,708,727,748,767,787,808,828,847,868,889,908,928,947,967,988,1009,1029,1048,1068,1088,1109,1127,1148,1168,1187,1207,1229,1248,1267,1288,1308,1327,1348],"xSR":741.5,"ySR":469.95,"xT1":424.9,"yT1":0,"xT2":1058.1,"yT2":0,"toosoon":0,"cond_shown":"randomdotsizeEA","ratio_trial":250,"smaller_num":"2","larger_num":"8","correct_side":2,"subjID":"juandavidzubieta2","gender":"0","age":"9","school":"4"},{"start_time":1552074468649,"click_time":1552074469776,"finger_time":1552074469436,"fix_duration":1312.7881961852584,"trial":2,"RT":787,"MT":340,"sideResp":1,"stimulus":"img/900/randomdotsizeEA/R/3_Ratio_900_L_9_R_10.png","xmouse":[794,794,794,794,794,794,794,794,794,794,794,794,794,794,794,794,794,794,794,794,794,794,794,794,794,794,794,794,794,794,794,794,794,794,794,794,794,794,795,792,773,739,696,638,556,556,556,556,556,556,556,556,556,556,556,556,476],"ymouse":[524,524,524,524,524,524,524,524,524,524,524,524,524,524,524,524,524,524,524,524,524,524,524,524,524,524,524,524,524,524,524,524,524,524,524,524,520,506,485,410,345,269,189,113,17,17,17,17,17,17,17,17,17,17,17,17,1],"timestamp_mouse":[10,33,46,66,87,108,127,148,167,187,207,228,248,267,288,307,326,348,367,388,406,427,446,468,488,508,527,547,567,587,607,626,648,666,687,707,727,747,768,787,807,827,847,867,887,906,927,947,966,987,1006,1026,1047,1068,1088,1107,1127],"xSR":741.5,"ySR":469.95,"xT1":424.9,"yT1":0,"xT2":1058.1,"yT2":0,"toosoon":0,"cond_shown":"randomdotsizeEA","ratio_trial":900,"smaller_num":"9","larger_num":"10","correct_side":2,"subjID":"juandavidzubieta2","gender":"0","age":"9","school":"4"},{"start_time":1552074471692,"click_time":1552074472737,"finger_time":1552074472557,"fix_duration":834.8759054833951,"trial":3,"RT":865,"MT":180,"sideResp":2,"stimulus":"img/500/randomdotsizeEA/R/12_Ratio_500_L_1_R_2.png","xmouse":[820,820,820,820,820,820,820,820,820,820,820,820,820,820,820,820,820,820,820,820,820,820,820,820,820,820,820,820,820,820,820,820,820,820,820,820,820,820,820,822,823,824,834,844,859,877,901,950,979,999,1019,1045,1065],"ymouse":[516,516,518,518,518,518,518,518,518,518,518,518,518,518,518,518,518,518,518,518,518,518,518,518,518,518,518,518,518,518,518,518,518,518,518,518,518,518,518,518,518,518,515,506,483,447,404,320,271,232,196,126,68],"timestamp_mouse":[11,24,44,63,85,103,125,144,165,183,205,224,244,264,283,305,325,344,365,384,404,425,444,463,484,505,525,544,565,584,605,624,644,665,684,704,723,745,764,784,803,824,844,865,884,904,924,945,964,984,1004,1025,1044],"xSR":741.5,"ySR":469.95,"xT1":424.9,"yT1":0,"xT2":1058.1,"yT2":0,"toosoon":0,"cond_shown":"randomdotsizeEA","ratio_trial":500,"smaller_num":"1","larger_num":"2","correct_side":2,"subjID":"juandavidzubieta2","gender":"0","age":"9","school":"4"},{"start_time":1552074473958,"click_time":1552074474796,"finger_time":1552074474656,"fix_duration":341.4284579061919,"trial":4,"RT":698,"MT":140,"sideResp":2,"stimulus":"img/250/equaldotsize/R/13_Ratio_250_L_2_R_8.png","xmouse":[794,794,794,794,794,794,794,794,794,794,794,794,794,794,794,794,794,794,794,794,794,794,794,794,794,794,794,794,794,794,794,794,794,794,807,828,859,879,905,975,1027,1071],"ymouse":[493,493,493,493,493,493,493,493,493,493,493,493,493,493,493,493,493,493,493,493,493,493,493,493,493,493,493,493,493,493,493,493,493,491,466,420,321,241,159,67,51,46],"timestamp_mouse":[32,37,57,79,98,118,138,158,179,199,219,239,259,278,299,318,338,358,377,398,419,439,458,477,498,518,537,559,579,597,618,637,659,679,698,719,738,759,778,798,818,838],"xSR":741.5,"ySR":469.95,"xT1":424.9,"yT1":0,"xT2":1058.1,"yT2":0,"toosoon":0,"cond_shown":"equaldotsize","ratio_trial":250,"smaller_num":"2","larger_num":"8","correct_side":2,"subjID":"juandavidzubieta2","gender":"0","age":"9","school":"4"},{"start_time":1552074476877,"click_time":1552074478077,"finger_time":1552074477756,"fix_duration":1199.2577560598145,"trial":5,"RT":879,"MT":321,"sideResp":2,"stimulus":"img/750/equaldotsize/R/3_Ratio_750_L_15_R_20.png","xmouse":[795,795,795,795,795,795,795,795,795,795,795,795,795,795,795,795,795,795,795,795,795,795,795,795,795,795,795,795,795,795,795,795,795,795,795,795,795,795,795,795,795,801,820,869,903,922,948,968,994,998,1001,1002,1004,1005,1007,1010,1016,1027,1093,1136],"ymouse":[518,518,518,518,518,518,518,518,518,518,518,518,518,518,518,518,518,518,518,518,518,518,518,518,518,518,518,518,518,518,518,518,518,518,518,518,518,518,518,518,518,516,505,479,460,441,403,354,291,278,266,260,250,214,195,182,172,161,119,88],"timestamp_mouse":[20,38,58,78,99,119,139,160,178,199,220,239,260,278,300,319,339,359,380,399,420,439,460,479,500,519,540,559,580,599,620,639,660,680,699,719,739,760,779,800,819,840,859,879,898,919,940,960,979,999,1019,1038,1059,1080,1099,1120,1139,1160,1179,1199],"xSR":741.5,"ySR":469.95,"xT1":424.9,"yT1":0,"xT2":1058.1,"yT2":0,"toosoon":0,"cond_shown":"equaldotsize","ratio_trial":750,"smaller_num":"15","larger_num":"20","correct_side":2,"subjID":"juandavidzubieta2","gender":"0","age":"9","school":"4"},{"start_time":1552074479669,"click_time":1552074480776,"finger_time":1552074480396,"fix_duration":250,"trial":6,"RT":727,"MT":380,"sideResp":1,"stimulus":"img/900/randomdotsizeEA/L/4_Ratio_900_L_20_R_18.png","xmouse":[812,812,812,812,812,812,812,812,812,812,812,812,812,812,812,812,812,812,812,812,812,812,812,812,812,812,812,812,812,812,812,812,812,812,812,799,759,679,583,388,330,326,326,327,331,333,339,349,364,376,402,409,412,414,423,432],"ymouse":[522,522,522,522,522,522,522,522,522,522,522,522,522,522,522,522,522,522,522,522,522,522,522,522,522,522,522,522,522,522,522,522,522,522,521,504,460,383,301,149,97,92,92,91,90,90,88,86,84,82,74,71,68,67,61,58],"timestamp_mouse":[8,27,50,67,87,108,127,146,166,188,208,227,248,267,288,307,327,346,367,386,408,427,448,468,487,507,528,546,568,587,607,628,646,667,688,707,727,746,767,788,807,826,846,866,888,906,927,947,967,986,1007,1027,1047,1067,1087,1106],"xSR":741.5,"ySR":469.95,"xT1":424.9,"yT1":0,"xT2":1058.1,"yT2":0,"toosoon":0,"cond_shown":"randomdotsizeEA","ratio_trial":900,"smaller_num":"18","larger_num":"20","correct_side":1,"subjID":"juandavidzubieta2","gender":"0","age":"9","school":"4"},{"start_time":1552074482696,"click_time":1552074483756,"finger_time":1552074483496,"fix_duration":937.8673615058692,"trial":7,"RT":800,"MT":260,"sideResp":1,"stimulus":"img/900/equaldotsize/L/2_Ratio_900_L_20_R_18.png","xmouse":[774,774,774,774,774,774,774,774,774,774,774,774,774,774,774,775,775,776,777,778,778,778,778,778,778,778,778,778,778,778,778,778,778,778,778,778,778,778,775,764,752,724,681,603,577,565,559,559,557,541,528,519,514,512],"ymouse":[500,500,500,500,500,500,500,500,500,500,500,500,500,500,500,500,500,500,500,500,500,500,500,500,500,500,500,500,500,500,500,500,500,499,497,496,495,493,489,478,461,424,361,228,185,165,157,157,157,149,135,117,105,98],"timestamp_mouse":[8,20,41,59,79,100,120,139,160,180,200,221,241,261,280,300,321,340,359,381,401,421,440,461,481,500,519,541,561,581,600,619,640,661,681,701,720,740,761,781,800,821,840,861,880,900,920,940,961,980,1000,1021,1040,1060],"xSR":741.5,"ySR":469.95,"xT1":424.9,"yT1":0,"xT2":1058.1,"yT2":0,"toosoon":0,"cond_shown":"equaldotsize","ratio_trial":900,"smaller_num":"18","larger_num":"20","correct_side":1,"subjID":"juandavidzubieta2","gender":"0","age":"9","school":"4"},{"start_time":1552074486267,"click_time":1552074487576,"finger_time":1552074487276,"fix_duration":250,"trial":8,"RT":1009,"MT":300,"sideResp":2,"stimulus":"img/750/randomdotsizeEA/R/7_Ratio_750_L_3_R_4.png","xmouse":[826,826,826,826,826,826,826,826,826,826,826,826,826,826,826,826,826,826,826,826,826,826,826,826,826,826,826,826,826,826,826,826,826,826,826,826,826,826,826,826,826,826,826,826,826,826,826,826,825,826,864,899,935,961,972,976,976,977,980,982,988,994,1001,1010,1021,1062],"ymouse":[517,517,517,517,517,517,517,517,517,517,517,517,517,517,517,517,517,517,517,517,517,517,517,517,517,517,517,517,517,517,517,517,517,517,517,517,517,517,517,517,517,517,517,517,517,517,517,517,517,512,457,421,384,355,330,281,269,256,242,225,190,173,156,137,118,77],"timestamp_mouse":[10,38,48,68,88,109,128,149,169,189,210,228,249,270,288,308,329,350,369,390,410,429,450,469,489,509,529,549,570,588,610,628,649,670,690,710,730,749,768,789,809,829,850,868,888,910,929,949,969,989,1009,1028,1050,1069,1089,1109,1129,1148,1168,1189,1209,1229,1249,1268,1289,1309],"xSR":741.5,"ySR":469.95,"xT1":424.9,"yT1":0,"xT2":1058.1,"yT2":0,"toosoon":0,"cond_shown":"randomdotsizeEA","ratio_trial":750,"smaller_num":"3","larger_num":"4","correct_side":2,"subjID":"juandavidzubieta2","gender":"0","age":"9","school":"4"},{"start_time":1552074489444,"click_time":1552074490456,"finger_time":1552074490195,"fix_duration":967.9836263373776,"trial":9,"RT":751,"MT":261,"sideResp":1,"stimulus":"img/900/equaldotanddens/R/7_Ratio_900_L_9_R_10.png","xmouse":[801,799,797,793,792,791,793,794,794,794,793,792,792,792,792,792,792,792,790,790,788,787,778,776,775,775,775,775,775,775,775,775,775,775,775,772,756,738,708,668,626,584,509,482,469,463,459,453,451,448,444],"ymouse":[493,495,500,519,523,523,525,525,527,530,532,532,532,532,532,532,532,532,532,532,532,532,532,532,532,532,532,532,532,532,532,532,532,532,532,531,516,500,477,443,402,358,239,194,167,151,139,118,111,102,90],"timestamp_mouse":[11,32,52,73,92,113,133,153,172,191,213,232,253,271,291,312,333,352,373,392,412,432,452,473,492,511,531,553,571,593,613,632,651,673,692,713,732,751,771,793,813,832,851,872,893,912,932,953,972,993,1012],"xSR":741.5,"ySR":469.95,"xT1":424.9,"yT1":0,"xT2":1058.1,"yT2":0,"toosoon":0,"cond_shown":"equaldotanddens","ratio_trial":900,"smaller_num":"9","larger_num":"10","correct_side":2,"subjID":"juandavidzubieta2","gender":"0","age":"9","school":"4"},{"start_time":1552074492723,"click_time":1552074494496,"finger_time":1552074494155,"fix_duration":985.5809405712951,"trial":10,"RT":1432,"MT":341,"sideResp":1,"stimulus":"img/900/equaldotsize/R/7_Ratio_900_L_9_R_10.png","xmouse":[768,767,767,767,767,767,767,767,767,767,767,767,767,767,767,767,767,767,767,767,767,767,767,767,767,767,767,767,767,767,767,767,767,767,767,767,767,767,767,767,767,767,767,767,767,767,767,767,767,767,767,767,767,767,767,767,767,767,767,767,767,767,767,767,767,767,767,767,767,763,758,739,711,650,634,630,628,625,611,595,576,556,542,540,540,540,535,522,503],"ymouse":[522,521,521,521,521,521,521,521,521,521,521,521,521,521,521,521,521,521,521,521,521,521,521,521,521,521,521,521,521,521,521,521,521,521,521,521,521,521,521,521,521,521,521,521,521,521,521,521,521,521,521,521,521,521,521,521,521,521,521,521,521,521,521,521,521,521,521,521,521,508,498,453,389,273,246,235,232,224,204,186,168,151,139,137,136,132,124,109,93],"timestamp_mouse":[12,32,54,73,94,113,132,154,172,193,214,234,253,273,294,313,334,352,372,394,413,433,453,473,492,512,533,553,574,592,614,633,653,672,694,713,732,754,774,793,814,834,853,873,892,913,933,954,973,993,1012,1033,1053,1073,1094,1114,1132,1153,1172,1194,1214,1232,1252,1273,1293,1312,1334,1352,1372,1393,1413,1432,1454,1473,1493,1513,1534,1554,1572,1594,1613,1632,1653,1672,1693,1712,1734,1754,1773],"xSR":741.5,"ySR":469.95,"xT1":424.9,"yT1":0,"xT2":1058.1,"yT2":0,"toosoon":0,"cond_shown":"equaldotsize","ratio_trial":900,"smaller_num":"9","larger_num":"10","correct_side":2,"subjID":"juandavidzubieta2","gender":"0","age":"9","school":"4"},{"start_time":1552074498547,"click_time":1552074499598,"finger_time":1552074499397,"fix_duration":250,"trial":11,"RT":850,"MT":201,"sideResp":2,"stimulus":"img/250/equaldotsize/R/4_Ratio_250_L_3_R_12.png","xmouse":[795,795,795,795,795,795,795,795,795,795,795,795,795,795,795,795,795,795,795,795,795,795,795,795,795,795,795,795,795,795,795,795,795,795,795,795,795,795,795,799,809,825,865,892,924,955,978,1017,1059,1086,1108,1128,1146],"ymouse":[523,523,523,523,523,523,523,523,523,523,523,523,523,523,523,523,523,523,523,523,523,523,523,523,523,523,523,523,523,523,523,523,523,523,523,523,523,523,523,523,521,513,478,444,388,327,268,199,154,139,126,113,97],"timestamp_mouse":[13,30,50,68,89,108,128,149,170,189,209,229,249,268,290,310,330,349,370,390,410,430,448,468,488,510,530,550,568,588,609,630,649,668,690,710,729,750,770,789,810,829,849,868,889,909,928,948,968,989,1009,1030,1050],"xSR":741.5,"ySR":469.95,"xT1":424.9,"yT1":0,"xT2":1058.1,"yT2":0,"toosoon":0,"cond_shown":"equaldotsize","ratio_trial":250,"smaller_num":"3","larger_num":"12","correct_side":2,"subjID":"juandavidzubieta2","gender":"0","age":"9","school":"4"},{"start_time":1552074502086,"click_time":1552074503617,"finger_time":1552074503077,"fix_duration":1267.1043907537696,"trial":12,"RT":991,"MT":540,"sideResp":2,"stimulus":"img/900/equaldotsize/L/2_Ratio_900_L_20_R_18.png","xmouse":[799,799,799,799,799,799,798,798,798,798,798,801,801,801,801,801,801,801,801,802,804,805,805,805,805,805,805,805,805,805,805,805,805,805,805,801,788,781,780,780,780,782,784,787,790,796,805,805,805,805,807,821,833,857,885,901,903,903,903,903,903,903,903,904,904,906,910,930,961,990,1020,1036,1043,1043,1047,1054,1086],"ymouse":[482,482,482,482,482,482,482,482,482,481,479,474,474,474,474,474,474,474,474,474,474,474,474,474,474,474,474,474,474,474,474,474,474,474,474,474,474,474,475,475,475,476,476,476,476,476,470,470,470,469,467,451,444,434,426,421,421,421,421,421,421,421,421,421,421,420,419,393,354,315,288,270,225,196,163,131,22],"timestamp_mouse":[11,31,51,71,90,111,130,150,169,190,210,230,250,271,291,310,331,349,369,390,411,431,451,471,490,511,530,551,570,591,609,630,651,670,690,710,729,750,770,789,811,830,850,871,890,910,930,950,970,990,1011,1029,1050,1069,1090,1111,1130,1149,1169,1190,1210,1229,1250,1271,1290,1311,1329,1349,1369,1390,1410,1430,1450,1470,1490,1511,1531],"xSR":741.5,"ySR":469.95,"xT1":424.9,"yT1":0,"xT2":1058.1,"yT2":0,"toosoon":0,"cond_shown":"equaldotsize","ratio_trial":900,"smaller_num":"18","larger_num":"20","correct_side":1,"subjID":"juandavidzubieta2","gender":"0","age":"9","school":"4"},{"start_time":1552074505662,"click_time":1552074506835,"finger_time":1552074506335,"fix_duration":565.5926896692962,"trial":13,"RT":673,"MT":500,"sideResp":1,"stimulus":"img/250/randomdotsizeEA/L/5_Ratio_250_L_24_R_6.png","xmouse":[813,813,813,814,816,817,820,823,823,823,823,823,823,823,823,822,820,812,803,799,797,796,796,796,796,796,796,796,799,799,800,800,799,789,779,763,729,580,563,562,567,572,574,574,573,566,558,548,538,527,512,494,475,474,474,476,482,491,491],"ymouse":[511,511,510,510,510,510,510,505,501,500,498,497,497,495,493,490,489,488,486,486,486,486,486,486,486,485,485,484,481,480,478,474,470,456,444,428,395,257,227,217,214,213,213,211,202,189,181,174,173,167,156,143,132,132,132,131,129,114,97],"timestamp_mouse":[23,33,54,73,93,115,135,154,174,194,214,234,254,274,293,314,334,354,373,394,414,435,455,474,493,515,534,554,574,594,614,634,653,673,693,714,734,755,774,794,814,834,854,873,894,913,934,953,973,993,1014,1034,1054,1075,1093,1114,1135,1155,1173],"xSR":741.5,"ySR":469.95,"xT1":424.9,"yT1":0,"xT2":1058.1,"yT2":0,"toosoon":0,"cond_shown":"randomdotsizeEA","ratio_trial":250,"smaller_num":"6","larger_num":"24","correct_side":1,"subjID":"juandavidzubieta2","gender":"0","age":"9","school":"4"},{"start_time":1552074508639,"click_time":1552074509576,"finger_time":1552074509436,"fix_duration":582.97202437522,"trial":14,"RT":797,"MT":140,"sideResp":1,"stimulus":"img/250/equaldotanddens/L/15_Ratio_250_L_12_R_3.png","xmouse":[815,815,815,815,815,815,815,815,815,815,815,815,815,815,815,815,815,815,815,815,815,815,815,815,815,815,815,815,815,815,815,815,815,815,815,816,812,782,750,680,655,637,621,605,552,513,463],"ymouse":[543,543,543,543,543,543,543,543,543,543,543,543,543,543,543,543,543,543,543,543,543,543,543,543,543,543,543,543,543,543,543,543,543,543,543,541,535,510,482,424,400,377,355,326,231,164,79],"timestamp_mouse":[17,41,57,78,96,117,137,157,176,198,216,237,258,276,297,317,337,358,378,398,416,438,457,478,498,517,538,557,578,597,617,638,658,676,696,717,737,757,777,797,817,836,856,878,897,917,937],"xSR":741.5,"ySR":469.95,"xT1":424.9,"yT1":0,"xT2":1058.1,"yT2":0,"toosoon":0,"cond_shown":"equaldotanddens","ratio_trial":250,"smaller_num":"3","larger_num":"12","correct_side":1,"subjID":"juandavidzubieta2","gender":"0","age":"9","school":"4"},{"start_time":1552074511800,"click_time":1552074512856,"finger_time":1552074512535,"fix_duration":1282.4188199432465,"trial":15,"RT":735,"MT":321,"sideResp":2,"stimulus":"img/900/equaldotsize/R/7_Ratio_900_L_9_R_10.png","xmouse":[775,774,774,774,774,774,774,774,774,774,774,774,774,774,774,774,774,774,774,774,774,774,774,774,774,774,774,774,774,774,774,774,774,774,780,789,872,930,1001,1031,1043,1052,1055,1058,1063,1070,1085,1088,1090,1090,1090,1090,1090],"ymouse":[500,500,500,500,500,500,500,500,500,500,500,500,500,500,500,500,500,500,500,500,500,500,500,500,500,500,500,500,500,500,500,500,500,500,497,489,427,381,310,273,253,230,220,207,196,184,161,154,149,145,140,126,91],"timestamp_mouse":[17,38,57,76,96,116,137,156,175,197,217,235,257,277,296,316,335,355,376,396,417,437,457,476,497,516,537,556,575,595,616,636,657,677,696,716,735,756,776,796,816,836,856,876,896,917,936,956,976,997,1016,1035,1056],"xSR":741.5,"ySR":469.95,"xT1":424.9,"yT1":0,"xT2":1058.1,"yT2":0,"toosoon":0,"cond_shown":"equaldotsize","ratio_trial":900,"smaller_num":"9","larger_num":"10","correct_side":2,"subjID":"juandavidzubieta2","gender":"0","age":"9","school":"4"},{"start_time":1552074514269,"click_time":1552074515376,"finger_time":1552074515056,"fix_duration":692.2191042687103,"trial":16,"RT":787,"MT":320,"sideResp":1,"stimulus":"img/500/randomdotsizeEA/L/10_Ratio_500_L_4_R_2.png","xmouse":[789,789,789,789,789,789,789,789,789,789,789,789,789,789,789,789,789,789,789,789,789,789,789,789,789,789,789,789,789,789,789,789,789,789,789,789,785,779,751,723,679,634,599,541,532,526,523,519,516,497,486,475,466,457,456,456],"ymouse":[536,536,536,536,536,536,536,536,536,536,536,536,536,536,536,536,536,536,536,536,536,536,536,536,536,536,536,536,536,536,536,536,536,536,536,536,536,536,524,504,472,437,408,343,328,310,295,275,253,196,168,147,130,103,100,96],"timestamp_mouse":[9,32,46,66,88,108,128,146,167,188,207,226,247,267,288,307,328,347,367,386,406,428,448,466,486,508,526,547,568,588,607,628,647,667,686,707,727,747,767,787,808,827,848,868,887,907,927,946,968,987,1008,1027,1047,1068,1088,1106],"xSR":741.5,"ySR":469.95,"xT1":424.9,"yT1":0,"xT2":1058.1,"yT2":0,"toosoon":0,"cond_shown":"randomdotsizeEA","ratio_trial":500,"smaller_num":"2","larger_num":"4","correct_side":1,"subjID":"juandavidzubieta2","gender":"0","age":"9","school":"4"},{"start_time":1552074516927,"click_time":1552074518555,"finger_time":1552074517737,"fix_duration":848.3516398465787,"trial":17,"RT":810,"MT":818,"sideResp":2,"stimulus":"img/500/equaldotanddens/R/12_Ratio_500_L_1_R_2.png","xmouse":[768,768,768,768,768,768,768,768,768,768,768,768,768,768,768,768,768,768,768,768,768,768,768,768,768,768,768,768,768,768,768,768,768,768,768,768,773,785,802,822,864,903,919,931,942,950,969,972,974,976,978,989,997,1003,1008,1012,1023,1031,1042,1044,1049,1051,1052,1052,1054,1055,1061,1062,1062,1056,1052,1049,1049,1049,1049,1050,1050,1050,1050,1050,1050,1062],"ymouse":[536,536,536,536,536,536,536,536,536,536,536,536,536,536,536,536,536,536,536,536,536,536,536,536,536,536,536,536,536,536,536,536,536,536,536,536,536,527,509,481,406,340,317,299,285,274,247,239,235,230,227,219,214,209,205,201,194,190,185,183,180,178,175,174,172,169,157,149,129,118,114,113,113,111,108,105,99,99,99,98,96,85],"timestamp_mouse":[8,38,49,69,90,108,128,149,170,189,208,230,250,269,290,310,330,348,370,390,410,428,450,469,490,509,529,549,570,590,609,629,649,670,689,708,729,750,769,789,810,829,849,868,889,909,929,949,969,989,1009,1029,1049,1068,1089,1109,1128,1149,1169,1190,1209,1230,1248,1269,1290,1310,1329,1348,1368,1389,1410,1429,1449,1469,1489,1508,1528,1548,1568,1590,1608,1628],"xSR":741.5,"ySR":469.95,"xT1":424.9,"yT1":0,"xT2":1058.1,"yT2":0,"toosoon":0,"cond_shown":"equaldotanddens","ratio_trial":500,"smaller_num":"1","larger_num":"2","correct_side":2,"subjID":"juandavidzubieta2","gender":"0","age":"9","school":"4"},{"start_time":1552074521598,"click_time":1552074522637,"finger_time":1552074522256,"fix_duration":620.534935768605,"trial":18,"RT":658,"MT":381,"sideResp":2,"stimulus":"img/500/equaldotanddens/R/9_Ratio_500_L_2_R_4.png","xmouse":[790,790,790,790,790,790,790,790,791,792,794,795,796,796,796,796,796,796,797,797,797,797,798,799,799,800,801,802,802,804,808,820,835,931,966,985,992,996,999,1004,1007,1014,1014,1014,1014,1014,1014,1014,1014,1014,1047,1060],"ymouse":[482,482,482,482,482,482,482,482,482,482,482,482,482,482,482,482,482,482,482,482,482,482,482,482,482,482,482,482,482,482,481,472,449,267,189,126,77,39,30,21,14,0,0,0,0,0,0,0,0,0,1,7],"timestamp_mouse":[17,38,58,79,99,119,138,158,178,199,218,238,257,278,299,318,338,358,378,398,418,438,458,478,498,517,538,558,577,598,618,639,658,678,698,719,738,759,777,797,818,837,857,877,898,918,938,959,978,998,1017,1039],"xSR":741.5,"ySR":469.95,"xT1":424.9,"yT1":0,"xT2":1058.1,"yT2":0,"toosoon":0,"cond_shown":"equaldotanddens","ratio_trial":500,"smaller_num":"2","larger_num":"4","correct_side":2,"subjID":"juandavidzubieta2","gender":"0","age":"9","school":"4"},{"start_time":1552074526400,"click_time":1552074527576,"finger_time":1552074527076,"fix_duration":1481.8892876598227,"trial":19,"RT":676,"MT":500,"sideResp":2,"stimulus":"img/250/equaldotanddens/R/6_Ratio_250_L_6_R_24.png","xmouse":[804,804,799,795,794,794,794,793,791,791,791,791,791,791,791,791,791,791,791,791,791,791,791,791,791,791,791,791,791,791,791,793,799,877,919,945,957,963,967,969,970,969,968,968,968,970,979,990,1039,1066,1131,1218,1238,1229,1211,1193,1173,1159,1154],"ymouse":[517,516,509,503,502,502,502,502,502,502,502,502,502,502,502,502,502,502,502,502,502,502,502,502,502,502,502,502,502,502,502,498,487,393,344,313,298,287,277,269,252,246,243,240,239,235,231,225,199,189,163,113,87,55,49,46,46,46,46],"timestamp_mouse":[16,37,56,76,97,117,136,156,177,196,217,237,257,277,296,316,337,356,377,396,416,435,455,476,497,516,536,556,576,596,615,636,655,676,696,717,736,756,776,796,816,835,856,875,895,916,936,957,976,996,1017,1036,1055,1075,1095,1116,1136,1155,1176],"xSR":741.5,"ySR":469.95,"xT1":424.9,"yT1":0,"xT2":1058.1,"yT2":0,"toosoon":0,"cond_shown":"equaldotanddens","ratio_trial":250,"smaller_num":"6","larger_num":"24","correct_side":2,"subjID":"juandavidzubieta2","gender":"0","age":"9","school":"4"},{"start_time":1552074530184,"click_time":1552074531596,"finger_time":1552074531076,"fix_duration":1466.563302511354,"trial":20,"RT":892,"MT":520,"sideResp":1,"stimulus":"img/500/randomdotsizeEA/L/10_Ratio_500_L_4_R_2.png","xmouse":[774,774,774,774,774,774,774,774,774,774,774,774,774,774,774,774,774,774,774,774,774,774,774,774,774,774,774,774,774,774,774,774,774,774,774,774,774,774,774,779,789,798,800,802,802,801,797,790,775,730,675,638,588,531,445,423,407,405,405,405,405,405,405,405,405,405,405,405,405,405,478],"ymouse":[520,520,520,520,520,520,520,520,520,520,520,520,520,520,520,520,520,520,520,520,520,520,520,520,520,520,520,520,520,520,520,520,520,520,520,520,520,520,520,520,509,486,478,472,463,459,454,448,436,394,340,299,253,199,100,60,20,5,5,5,5,5,5,5,5,5,5,5,5,5,4],"timestamp_mouse":[12,38,53,72,91,111,133,153,171,191,212,232,252,271,292,312,332,351,371,392,413,433,452,473,491,513,533,553,571,592,612,633,651,671,691,711,731,751,771,792,812,832,852,872,892,911,932,953,971,992,1011,1032,1053,1073,1092,1112,1132,1152,1172,1193,1213,1232,1253,1272,1293,1312,1333,1351,1372,1393,1412],"xSR":741.5,"ySR":469.95,"xT1":424.9,"yT1":0,"xT2":1058.1,"yT2":0,"toosoon":0,"cond_shown":"randomdotsizeEA","ratio_trial":500,"smaller_num":"2","larger_num":"4","correct_side":1,"subjID":"juandavidzubieta2","gender":"0","age":"9","school":"4"},{"start_time":1552074532769,"click_time":1552074533977,"finger_time":1552074533597,"fix_duration":250,"trial":21,"RT":828,"MT":380,"sideResp":2,"stimulus":"img/250/equaldotsize/R/11_Ratio_250_L_3_R_12.png","xmouse":[782,782,782,782,782,782,782,782,782,782,782,782,782,782,782,782,782,782,782,782,782,782,782,782,782,782,782,782,782,782,782,782,782,782,782,782,782,782,782,782,786,853,884,908,924,944,948,951,953,958,960,984,997,1012,1024,1039,1056,1058,1058,1058,1069],"ymouse":[498,498,498,498,498,498,498,498,498,498,498,498,498,498,498,498,498,498,498,498,498,498,498,498,498,498,498,498,498,498,498,498,498,498,498,498,498,498,498,498,497,446,411,377,349,291,267,249,232,208,204,179,168,151,134,116,96,96,96,96,92],"timestamp_mouse":[8,37,47,67,87,107,127,148,168,187,207,228,248,267,288,307,328,347,366,386,406,427,447,468,488,508,527,548,567,587,607,628,647,668,687,707,728,747,767,788,807,828,847,868,887,908,927,947,967,987,1008,1028,1047,1067,1087,1106,1126,1146,1167,1186,1208],"xSR":741.5,"ySR":469.95,"xT1":424.9,"yT1":0,"xT2":1058.1,"yT2":0,"toosoon":0,"cond_shown":"equaldotsize","ratio_trial":250,"smaller_num":"3","larger_num":"12","correct_side":2,"subjID":"juandavidzubieta2","gender":"0","age":"9","school":"4"},{"start_time":1552074535564,"click_time":1552074536397,"finger_time":1552074536216,"fix_duration":584.939870723931,"trial":22,"RT":652,"MT":181,"sideResp":2,"stimulus":"img/500/equaldotsize/R/12_Ratio_500_L_1_R_2.png","xmouse":[789,789,789,789,789,789,789,789,789,789,789,789,789,789,789,789,789,789,789,789,789,789,789,789,789,789,790,791,793,796,804,833,857,893,931,979,1060,1083,1092,1094,1096,1102],"ymouse":[527,527,527,527,527,527,527,527,527,527,527,527,527,527,527,527,527,527,527,527,527,527,527,527,527,527,527,525,521,518,508,470,437,393,342,284,176,143,128,114,105,85],"timestamp_mouse":[16,38,52,72,91,113,131,151,171,193,213,232,251,273,293,312,332,351,372,392,413,432,452,473,492,513,533,552,572,593,613,632,652,672,693,712,732,752,771,791,812,832],"xSR":741.5,"ySR":469.95,"xT1":424.9,"yT1":0,"xT2":1058.1,"yT2":0,"toosoon":0,"cond_shown":"equaldotsize","ratio_trial":500,"smaller_num":"1","larger_num":"2","correct_side":2,"subjID":"juandavidzubieta2","gender":"0","age":"9","school":"4"},{"start_time":1552074537629,"click_time":1552074538736,"finger_time":1552074538496,"fix_duration":250,"trial":23,"RT":867,"MT":240,"sideResp":1,"stimulus":"img/900/randomdotsizeEA/R/7_Ratio_900_L_9_R_10.png","xmouse":[801,801,801,801,801,801,801,801,801,801,801,801,801,801,801,801,801,801,801,801,801,801,801,801,801,801,801,801,801,801,801,801,801,801,801,801,801,801,801,801,801,792,781,681,603,498,456,436,423,423,423,424,426,428,428,428],"ymouse":[522,522,522,522,522,522,522,522,522,522,522,522,522,522,522,522,522,522,522,522,522,522,522,522,522,522,522,522,522,522,522,522,522,522,522,522,522,522,522,522,522,513,502,431,379,317,284,264,227,209,193,177,161,124,106,95],"timestamp_mouse":[8,37,47,67,87,107,127,147,168,188,206,228,248,268,288,308,327,346,368,387,407,426,448,468,487,507,527,548,568,587,607,626,648,667,687,708,727,747,766,786,807,826,848,867,888,906,928,947,967,987,1008,1027,1046,1067,1086,1106],"xSR":741.5,"ySR":469.95,"xT1":424.9,"yT1":0,"xT2":1058.1,"yT2":0,"toosoon":0,"cond_shown":"randomdotsizeEA","ratio_trial":900,"smaller_num":"9","larger_num":"10","correct_side":2,"subjID":"juandavidzubieta2","gender":"0","age":"9","school":"4"},{"start_time":1552074540314,"click_time":1552074541956,"finger_time":1552074540496,"fix_duration":736.6842790485325,"trial":24,"RT":182,"MT":1460,"sideResp":2,"stimulus":"img/500/randomdotsizeEA/R/1_Ratio_500_L_9_R_18.png","xmouse":[776,776,776,776,776,776,776,776,776,770,766,766,766,766,766,766,766,766,766,766,766,766,766,766,766,766,766,766,766,766,766,766,768,770,776,778,778,777,775,779,787,802,815,822,824,824,824,824,824,824,824,824,825,825,827,829,829,831,834,861,907,951,1006,1068,1128,1208,1228,1228,1228,1228,1228,1228,1228,1228,1228,1228,1228,1228,1228,1228,1228,1228,1084],"ymouse":[515,515,515,515,515,515,509,497,477,437,423,422,422,422,422,422,422,422,422,422,424,427,432,440,452,454,455,455,455,466,489,505,517,525,535,540,547,561,575,582,581,575,567,561,555,555,555,555,555,555,555,554,553,550,547,542,539,536,530,497,450,411,356,288,219,70,12,12,12,12,12,12,12,12,12,12,12,12,12,12,12,12,13],"timestamp_mouse":[8,33,42,63,83,102,121,143,162,182,202,221,243,263,282,302,322,342,361,382,402,422,442,461,482,503,523,541,562,582,603,621,641,661,681,703,723,742,762,783,801,822,842,861,883,901,923,943,962,981,1003,1022,1042,1062,1082,1102,1122,1142,1163,1182,1201,1222,1242,1262,1282,1302,1321,1341,1362,1383,1403,1423,1442,1462,1483,1503,1522,1542,1562,1582,1602,1622,1641],"xSR":741.5,"ySR":469.95,"xT1":424.9,"yT1":0,"xT2":1058.1,"yT2":0,"toosoon":0,"cond_shown":"randomdotsizeEA","ratio_trial":500,"smaller_num":"9","larger_num":"18","correct_side":2,"subjID":"juandavidzubieta2","gender":"0","age":"9","school":"4"},{"start_time":1552074545037,"click_time":1552074546076,"finger_time":1552074545236,"fix_duration":1421.5115053361087,"trial":25,"RT":199,"MT":840,"sideResp":2,"stimulus":"img/250/randomdotsizeEA/R/12_Ratio_250_L_5_R_20.png","xmouse":[807,807,806,806,806,806,806,806,806,806,806,806,806,806,806,806,806,806,806,806,806,806,806,806,806,806,806,806,806,806,806,806,806,816,842,877,920,955,994,1002,1010,1015,1020,1036,1045,1051,1055,1057,1058,1058,1058,1059],"ymouse":[484,482,480,480,479,478,477,476,472,469,468,467,466,465,464,463,462,460,455,454,452,452,451,451,451,451,451,449,443,438,428,419,409,371,336,284,222,161,72,46,28,22,19,14,12,10,9,8,8,8,8,8],"timestamp_mouse":[21,39,59,80,98,120,139,159,178,199,218,239,259,279,299,319,340,360,379,399,419,439,459,479,499,520,538,559,578,599,618,639,658,678,698,719,739,760,778,799,818,839,858,878,898,918,940,959,979,999,1020,1039],"xSR":741.5,"ySR":469.95,"xT1":424.9,"yT1":0,"xT2":1058.1,"yT2":0,"toosoon":0,"cond_shown":"randomdotsizeEA","ratio_trial":250,"smaller_num":"5","larger_num":"20","correct_side":2,"subjID":"juandavidzubieta2","gender":"0","age":"9","school":"4"},{"start_time":1552074549087,"click_time":1552074550056,"finger_time":1552074549896,"fix_duration":250,"trial":26,"RT":809,"MT":160,"sideResp":2,"stimulus":"img/750/equaldotanddens/R/3_Ratio_750_L_15_R_20.png","xmouse":[831,831,831,831,831,831,831,831,831,831,831,831,831,832,832,832,832,832,832,832,832,832,832,832,832,832,832,832,832,832,832,832,832,832,832,832,832,832,834,838,846,879,912,961,1006,1047,1077,1101,1103],"ymouse":[505,505,505,505,505,505,505,505,505,505,505,505,505,505,505,505,504,504,504,504,504,504,504,504,504,504,504,504,504,504,504,504,504,504,504,504,504,504,504,496,484,452,428,383,322,257,195,105,96],"timestamp_mouse":[8,28,59,69,89,109,129,148,168,190,209,228,248,270,289,308,329,350,368,388,410,430,449,470,490,509,529,550,570,589,608,629,649,669,690,709,729,749,768,789,809,829,848,869,888,909,929,950,969],"xSR":741.5,"ySR":469.95,"xT1":424.9,"yT1":0,"xT2":1058.1,"yT2":0,"toosoon":0,"cond_shown":"equaldotanddens","ratio_trial":750,"smaller_num":"15","larger_num":"20","correct_side":2,"subjID":"juandavidzubieta2","gender":"0","age":"9","school":"4"},{"start_time":1552074551502,"click_time":1552074552336,"finger_time":1552074552196,"fix_duration":344.60868745476193,"trial":27,"RT":694,"MT":140,"sideResp":1,"stimulus":"img/900/equaldotanddens/R/13_Ratio_900_L_18_R_20.png","xmouse":[780,780,780,780,780,780,780,780,780,780,780,780,782,783,785,786,786,786,787,788,789,790,790,791,791,793,793,793,793,793,793,794,794,794,794,787,722,660,597,547,498,427],"ymouse":[484,484,484,484,484,484,484,484,484,484,484,484,483,483,483,482,482,482,481,481,481,480,479,479,478,476,476,476,476,474,474,473,472,470,467,459,418,381,336,275,199,30],"timestamp_mouse":[14,33,53,74,95,113,134,153,175,194,214,234,253,274,294,315,334,354,374,393,414,434,454,473,495,515,534,553,574,595,613,633,655,674,694,714,733,753,774,794,814,834],"xSR":741.5,"ySR":469.95,"xT1":424.9,"yT1":0,"xT2":1058.1,"yT2":0,"toosoon":0,"cond_shown":"equaldotanddens","ratio_trial":900,"smaller_num":"18","larger_num":"20","correct_side":2,"subjID":"juandavidzubieta2","gender":"0","age":"9","school":"4"},{"start_time":1552074555902,"click_time":1552074556736,"finger_time":1552074556596,"fix_duration":1424.5923483286717,"trial":28,"RT":694,"MT":140,"sideResp":1,"stimulus":"img/250/equaldotsize/L/1_Ratio_250_L_8_R_2.png","xmouse":[779,779,779,779,779,779,779,779,779,779,779,779,779,779,779,779,779,779,779,779,779,779,779,779,779,779,779,779,779,779,778,777,770,759,732,695,627,595,570,551,531,494],"ymouse":[550,550,550,550,550,550,550,550,550,550,550,550,550,550,550,550,550,550,550,550,550,550,550,550,550,550,550,550,550,550,549,541,517,488,442,388,294,248,203,162,116,46],"timestamp_mouse":[14,35,53,74,93,115,134,154,174,195,214,235,255,274,294,313,334,355,375,393,413,433,455,474,495,513,534,555,573,606,613,634,653,673,694,713,733,753,774,794,814,834],"xSR":741.5,"ySR":469.95,"xT1":424.9,"yT1":0,"xT2":1058.1,"yT2":0,"toosoon":0,"cond_shown":"equaldotsize","ratio_trial":250,"smaller_num":"2","larger_num":"8","correct_side":1,"subjID":"juandavidzubieta2","gender":"0","age":"9","school":"4"},{"start_time":1552074558900,"click_time":1552074560755,"finger_time":1552074560435,"fix_duration":1164.718340532497,"trial":29,"RT":1535,"MT":320,"sideResp":2,"stimulus":"img/900/equaldotsize/R/3_Ratio_900_L_9_R_10.png","xmouse":[782,793,793,794,794,794,794,794,794,794,794,795,795,795,795,795,795,795,795,795,795,795,795,795,795,795,794,793,791,790,790,789,788,788,788,788,788,788,788,788,788,788,788,788,788,788,788,788,788,788,788,788,788,788,788,788,788,788,788,788,788,788,788,788,788,788,788,788,788,788,788,788,788,788,790,794,803,850,889,932,970,1006,1037,1042,1048,1052,1056,1071,1076,1083,1089,1094,1096],"ymouse":[493,490,490,490,490,490,490,490,490,490,490,489,489,489,489,489,489,489,489,489,489,489,489,489,489,489,489,489,489,489,490,490,490,490,490,490,490,490,490,490,490,490,490,490,490,490,490,490,490,490,490,490,490,490,490,490,490,490,490,490,490,490,490,490,490,490,490,490,490,490,490,490,490,490,481,471,448,373,325,274,233,200,177,173,167,161,153,131,121,113,105,100,97],"timestamp_mouse":[17,48,56,75,97,115,137,157,175,197,215,236,256,277,295,316,335,355,376,395,417,435,455,477,497,515,536,555,576,597,616,636,657,676,697,716,735,756,776,796,817,835,856,877,897,917,936,955,977,996,1017,1037,1055,1075,1096,1116,1137,1157,1176,1196,1216,1236,1257,1276,1296,1316,1337,1356,1376,1396,1416,1436,1455,1475,1497,1516,1535,1555,1575,1595,1615,1637,1656,1675,1695,1716,1735,1755,1776,1797,1817,1837,1855],"xSR":741.5,"ySR":469.95,"xT1":424.9,"yT1":0,"xT2":1058.1,"yT2":0,"toosoon":0,"cond_shown":"equaldotsize","ratio_trial":900,"smaller_num":"9","larger_num":"10","correct_side":2,"subjID":"juandavidzubieta2","gender":"0","age":"9","school":"4"},{"start_time":1552074564338,"click_time":1552074565677,"finger_time":1552074565055,"fix_duration":1180.679469093983,"trial":30,"RT":717,"MT":622,"sideResp":1,"stimulus":"img/250/randomdotsizeEA/L/1_Ratio_250_L_8_R_2.png","xmouse":[783,783,783,783,783,783,783,783,783,783,783,783,783,783,783,783,783,783,783,783,783,783,783,783,783,783,783,783,783,783,783,783,783,782,775,709,635,603,587,584,583,582,577,565,551,512,486,474,463,452,423,415,415,415,415,415,415,415,415,415,415,415,415,415,415,415,492],"ymouse":[531,531,531,531,531,531,531,531,531,531,531,531,531,531,531,531,531,531,531,531,531,531,531,531,531,531,531,531,531,531,531,531,531,530,527,498,467,454,445,443,440,436,428,412,395,333,279,251,215,174,61,6,6,6,6,6,6,6,6,6,6,6,6,6,6,6,14],"timestamp_mouse":[29,39,59,79,98,119,137,157,177,198,219,237,257,278,298,318,337,359,379,398,418,438,459,479,497,517,538,557,578,599,617,637,659,677,698,717,737,758,778,798,817,837,858,878,898,917,937,958,978,999,1018,1038,1057,1078,1098,1118,1138,1157,1177,1197,1218,1237,1258,1279,1298,1318,1338],"xSR":741.5,"ySR":469.95,"xT1":424.9,"yT1":0,"xT2":1058.1,"yT2":0,"toosoon":0,"cond_shown":"randomdotsizeEA","ratio_trial":250,"smaller_num":"2","larger_num":"8","correct_side":1,"subjID":"juandavidzubieta2","gender":"0","age":"9","school":"4"},{"start_time":1552074568161,"click_time":1552074569358,"finger_time":1552074568876,"fix_duration":1283.7433590047651,"trial":31,"RT":715,"MT":482,"sideResp":1,"stimulus":"img/900/equaldotsize/L/1_Ratio_900_L_10_R_9.png","xmouse":[764,764,764,763,761,761,760,760,759,759,759,759,759,759,759,759,759,759,759,759,759,759,759,759,759,759,759,759,759,759,759,759,759,759,758,740,726,713,699,689,681,677,673,667,651,630,627,625,623,620,598,583,573,570,561,472,471,471,467,446],"ymouse":[525,525,524,523,522,521,519,518,516,516,516,516,516,516,516,516,516,516,516,516,516,516,516,516,516,516,516,516,516,516,516,516,516,514,513,489,476,464,450,433,385,358,335,310,278,247,240,236,233,228,204,191,183,180,176,140,135,128,119,91],"timestamp_mouse":[15,36,54,75,96,114,134,155,174,196,216,235,254,276,296,316,335,354,375,394,416,435,455,474,496,516,534,554,575,595,616,635,655,676,695,715,734,754,774,794,814,835,855,875,895,914,935,954,975,995,1014,1035,1055,1075,1095,1114,1134,1154,1175,1196],"xSR":741.5,"ySR":469.95,"xT1":424.9,"yT1":0,"xT2":1058.1,"yT2":0,"toosoon":0,"cond_shown":"equaldotsize","ratio_trial":900,"smaller_num":"9","larger_num":"10","correct_side":1,"subjID":"juandavidzubieta2","gender":"0","age":"9","school":"4"},{"start_time":1552074572824,"click_time":1552074573936,"finger_time":1552074573597,"fix_duration":1225.087559849827,"trial":32,"RT":773,"MT":339,"sideResp":1,"stimulus":"img/900/equaldotsize/L/10_Ratio_900_L_20_R_18.png","xmouse":[763,759,757,756,755,754,754,754,754,754,752,751,749,749,749,749,749,749,749,749,749,749,749,749,749,749,749,749,749,749,749,749,749,749,749,749,749,747,735,704,677,650,629,625,622,617,612,593,566,556,551,550,548,543,528,512],"ymouse":[551,551,551,551,551,551,551,551,551,551,551,551,551,551,551,551,551,551,551,551,551,551,551,551,551,551,551,551,551,551,551,551,551,551,551,551,551,549,532,503,480,456,421,404,383,353,314,181,86,59,44,38,27,20,10,3],"timestamp_mouse":[11,31,51,72,92,111,132,152,173,191,212,233,252,271,292,313,333,351,372,392,413,431,453,473,491,513,533,551,572,593,613,633,651,672,693,712,732,752,773,792,812,831,852,872,892,912,932,952,971,992,1011,1032,1052,1072,1093,1112],"xSR":741.5,"ySR":469.95,"xT1":424.9,"yT1":0,"xT2":1058.1,"yT2":0,"toosoon":0,"cond_shown":"equaldotsize","ratio_trial":900,"smaller_num":"18","larger_num":"20","correct_side":1,"subjID":"juandavidzubieta2","gender":"0","age":"9","school":"4"},{"start_time":1552074576427,"click_time":1552074577457,"finger_time":1552074577196,"fix_duration":250,"trial":33,"RT":769,"MT":261,"sideResp":2,"stimulus":"img/500/equaldotanddens/R/1_Ratio_500_L_9_R_18.png","xmouse":[759,759,759,759,759,759,759,759,759,759,759,759,759,759,759,759,759,759,759,759,759,759,759,759,759,759,759,759,759,759,759,759,759,759,759,759,763,813,897,985,1062,1102,1129,1158,1163,1166,1166,1166,1164,1163,1159,1154],"ymouse":[500,500,500,500,500,500,500,500,500,500,500,500,500,500,500,500,500,500,500,500,500,500,500,500,500,500,500,500,500,500,500,500,500,500,500,500,500,489,467,428,387,350,309,235,194,159,134,113,105,102,96,89],"timestamp_mouse":[11,29,50,70,88,110,129,149,170,190,209,229,250,269,290,310,330,349,369,388,409,429,448,468,488,510,530,549,569,590,610,629,648,669,690,709,730,749,769,789,809,828,850,868,890,909,930,949,969,989,1010,1029],"xSR":741.5,"ySR":469.95,"xT1":424.9,"yT1":0,"xT2":1058.1,"yT2":0,"toosoon":0,"cond_shown":"equaldotanddens","ratio_trial":500,"smaller_num":"9","larger_num":"18","correct_side":2,"subjID":"juandavidzubieta2","gender":"0","age":"9","school":"4"},{"start_time":1552074578817,"click_time":1552074579676,"finger_time":1552074579536,"fix_duration":478.65799174263026,"trial":34,"RT":719,"MT":140,"sideResp":1,"stimulus":"img/900/equaldotsize/L/10_Ratio_900_L_20_R_18.png","xmouse":[784,784,784,784,784,784,784,784,784,784,784,784,784,784,784,784,784,784,784,784,784,784,784,784,784,784,784,784,784,784,784,784,784,784,778,765,749,719,691,622,584,534,492,458],"ymouse":[501,501,501,501,501,501,501,501,501,501,501,501,501,501,501,501,501,501,501,501,501,501,501,501,501,501,501,501,501,501,501,501,501,501,493,472,450,411,371,272,222,165,114,74],"timestamp_mouse":[0,20,39,60,80,100,120,139,159,179,198,219,240,260,280,298,319,339,358,378,399,419,438,459,479,498,518,538,559,578,598,618,639,658,678,698,719,739,759,778,799,818,838,859],"xSR":741.5,"ySR":469.95,"xT1":424.9,"yT1":0,"xT2":1058.1,"yT2":0,"toosoon":0,"cond_shown":"equaldotsize","ratio_trial":900,"smaller_num":"18","larger_num":"20","correct_side":1,"subjID":"juandavidzubieta2","gender":"0","age":"9","school":"4"},{"start_time":1552074582002,"click_time":1552074583136,"finger_time":1552074582757,"fix_duration":1305.267071752487,"trial":35,"RT":755,"MT":379,"sideResp":2,"stimulus":"img/750/equaldotanddens/R/5_Ratio_750_L_15_R_20.png","xmouse":[793,793,793,793,793,793,793,793,793,793,793,793,793,793,793,793,793,793,793,793,793,793,793,793,793,793,793,793,793,793,793,793,793,794,800,809,816,826,839,862,874,880,887,891,901,907,917,928,943,980,1001,1017,1027,1038,1047,1078,1095],"ymouse":[527,527,527,527,527,527,527,527,527,527,527,527,527,527,527,527,527,527,527,527,527,527,527,527,527,527,527,527,527,527,527,527,527,527,521,506,490,469,446,377,323,279,233,203,177,175,173,171,166,149,137,128,124,120,116,100,88],"timestamp_mouse":[15,41,54,75,93,114,135,153,173,194,215,233,254,274,295,315,335,355,375,395,414,433,454,475,494,514,534,555,574,593,613,633,654,674,693,714,733,755,774,793,813,834,854,873,895,913,934,955,974,994,1013,1033,1053,1075,1094,1114,1134],"xSR":741.5,"ySR":469.95,"xT1":424.9,"yT1":0,"xT2":1058.1,"yT2":0,"toosoon":0,"cond_shown":"equaldotanddens","ratio_trial":750,"smaller_num":"15","larger_num":"20","correct_side":2,"subjID":"juandavidzubieta2","gender":"0","age":"9","school":"4"},{"start_time":1552074584252,"click_time":1552074586315,"finger_time":1552074585995,"fix_duration":314.819943245065,"trial":36,"RT":1743,"MT":320,"sideResp":1,"stimulus":"img/250/equaldotanddens/L/15_Ratio_250_L_12_R_3.png","xmouse":[784,784,784,784,784,784,784,784,784,784,784,784,784,784,784,784,784,784,784,784,784,784,784,784,784,784,784,783,783,783,783,783,783,783,783,783,783,783,783,783,783,783,783,783,783,783,783,783,783,783,783,783,783,783,783,783,783,783,783,783,783,783,783,783,783,783,783,783,783,783,783,783,783,783,783,783,783,783,783,783,783,783,783,783,781,781,775,761,701,665,632,609,592,582,576,565,553,540,516,512,510,509,509,508],"ymouse":[543,543,542,542,542,542,542,542,542,542,542,542,542,542,542,542,542,542,542,542,542,542,542,542,542,542,542,542,542,542,542,542,542,542,542,542,542,542,542,542,542,542,542,542,542,542,542,542,542,542,542,542,542,542,542,542,542,542,542,542,542,542,542,542,542,542,542,542,542,542,542,542,542,542,542,542,542,542,542,542,542,542,542,542,530,506,472,426,315,274,249,235,225,219,214,205,196,186,163,155,146,126,113,86],"timestamp_mouse":[4,30,44,63,85,104,125,144,164,184,204,225,243,264,283,304,324,344,364,384,404,425,444,464,484,504,524,544,565,583,604,624,644,663,684,704,723,744,765,783,804,825,844,865,885,903,925,944,964,985,1004,1024,1044,1063,1085,1104,1124,1144,1164,1185,1204,1223,1244,1264,1283,1304,1324,1344,1365,1384,1404,1425,1444,1464,1484,1504,1524,1545,1564,1585,1603,1623,1644,1664,1683,1703,1724,1743,1764,1784,1803,1823,1844,1864,1884,1903,1923,1944,1963,1984,2004,2024,2044,2063],"xSR":741.5,"ySR":469.95,"xT1":424.9,"yT1":0,"xT2":1058.1,"yT2":0,"toosoon":0,"cond_shown":"equaldotanddens","ratio_trial":250,"smaller_num":"3","larger_num":"12","correct_side":1,"subjID":"juandavidzubieta2","gender":"0","age":"9","school":"4"},{"start_time":1552074589254,"click_time":1552074590537,"finger_time":1552074590116,"fix_duration":716.3080706646673,"trial":37,"RT":862,"MT":421,"sideResp":1,"stimulus":"img/500/randomdotsizeEA/L/7_Ratio_500_L_10_R_5.png","xmouse":[784,783,783,783,783,783,783,783,783,783,783,783,783,783,783,783,783,783,783,783,783,783,783,783,783,783,783,783,783,783,783,783,783,783,783,783,783,783,783,782,777,770,759,719,681,626,558,495,385,355,354,354,354,354,354,354,354,354,354,354,354,354,354,354,481],"ymouse":[537,537,537,537,537,537,537,537,537,537,537,537,537,537,537,537,537,537,537,537,537,537,537,537,537,537,537,537,537,537,537,537,537,537,537,537,537,537,537,535,522,511,493,430,380,315,251,194,86,31,7,7,7,7,7,7,7,7,7,7,7,7,7,7,1],"timestamp_mouse":[1,31,42,63,82,103,121,143,163,181,203,223,241,261,283,302,322,341,363,382,403,422,442,461,483,503,523,543,561,581,601,621,641,662,682,703,722,742,763,782,801,822,841,862,881,902,921,943,962,981,1001,1022,1042,1062,1082,1101,1121,1141,1162,1182,1202,1223,1241,1262,1283],"xSR":741.5,"ySR":469.95,"xT1":424.9,"yT1":0,"xT2":1058.1,"yT2":0,"toosoon":0,"cond_shown":"randomdotsizeEA","ratio_trial":500,"smaller_num":"5","larger_num":"10","correct_side":1,"subjID":"juandavidzubieta2","gender":"0","age":"9","school":"4"},{"start_time":1552074592212,"click_time":1552074593597,"finger_time":1552074592225,"fix_duration":295.51757834352253,"trial":38,"RT":13,"MT":1372,"sideResp":2,"stimulus":"img/750/equaldotsize/R/3_Ratio_750_L_15_R_20.png","xmouse":[724,716,715,715,715,715,715,715,713,710,708,708,708,708,708,708,710,716,722,725,727,729,730,731,732,734,737,739,743,746,748,749,749,750,751,757,789,810,832,851,868,891,902,922,943,979,991,1000,1006,1008,1008,1011,1018,1030,1041,1048,1047,1047,1047,1047,1053,1058,1058,1058,1058,1058,1058,1058,1058,1060],"ymouse":[523,523,523,523,523,523,523,523,523,521,517,516,516,515,514,514,513,513,512,511,510,509,509,509,509,509,509,509,509,509,509,509,509,509,509,509,509,503,487,464,409,324,307,289,274,250,238,225,208,182,155,148,138,126,115,90,79,74,72,70,67,63,62,62,62,62,62,62,62,62],"timestamp_mouse":[13,34,44,64,84,104,123,144,164,185,204,225,243,263,285,304,324,345,364,384,404,423,444,463,483,504,523,545,565,584,603,623,644,663,683,704,723,744,764,784,803,824,844,865,884,904,923,944,964,984,1004,1023,1043,1063,1084,1105,1124,1143,1164,1185,1204,1223,1243,1263,1283,1303,1325,1343,1363,1385],"xSR":741.5,"ySR":469.95,"xT1":424.9,"yT1":0,"xT2":1058.1,"yT2":0,"toosoon":0,"cond_shown":"equaldotsize","ratio_trial":750,"smaller_num":"15","larger_num":"20","correct_side":2,"subjID":"juandavidzubieta2","gender":"0","age":"9","school":"4"},{"start_time":1552074595592,"click_time":1552074597616,"finger_time":1552074596956,"fix_duration":1094.7684551565662,"trial":39,"RT":1364,"MT":660,"sideResp":2,"stimulus":"img/750/randomdotsizeEA/R/5_Ratio_750_L_15_R_20.png","xmouse":[787,787,787,787,787,787,787,787,787,787,787,787,787,787,787,787,787,787,787,787,787,787,787,787,787,787,787,787,787,787,787,787,787,787,787,787,787,787,787,787,787,787,787,787,787,787,787,787,787,787,787,787,787,787,787,787,787,787,787,787,787,787,792,796,799,803,810,838,853,869,889,900,926,942,959,981,1006,1053,1073,1101,1114,1121,1124,1125,1124,1121,1118,1111,1105,1097,1092,1087,1087,1088,1089,1091,1091,1096,1100,1110,1115,1121],"ymouse":[504,504,504,504,504,504,504,504,504,504,504,504,504,504,504,504,504,504,504,504,504,504,504,504,504,504,504,504,504,504,504,504,504,504,504,504,504,504,504,504,504,504,504,504,504,504,504,504,504,504,503,503,503,503,503,503,503,503,503,502,502,502,499,498,496,494,489,470,460,451,438,430,411,398,383,363,341,294,277,249,231,215,193,187,180,174,170,164,160,151,144,136,132,130,129,128,126,118,114,108,104,99],"timestamp_mouse":[10,24,44,65,84,104,124,144,164,185,204,224,243,265,283,304,325,344,364,384,405,425,444,465,485,504,525,543,564,584,604,625,645,665,683,704,724,744,763,785,804,825,844,864,884,905,924,945,965,983,1005,1025,1045,1065,1084,1105,1124,1144,1164,1184,1205,1224,1244,1263,1285,1304,1324,1343,1364,1384,1403,1424,1444,1464,1484,1504,1524,1543,1564,1584,1604,1624,1643,1663,1683,1703,1723,1743,1764,1783,1805,1825,1844,1864,1884,1903,1925,1944,1963,1983,2004,2024],"xSR":741.5,"ySR":469.95,"xT1":424.9,"yT1":0,"xT2":1058.1,"yT2":0,"toosoon":0,"cond_shown":"randomdotsizeEA","ratio_trial":750,"smaller_num":"15","larger_num":"20","correct_side":2,"subjID":"juandavidzubieta2","gender":"0","age":"9","school":"4"},{"start_time":1552074600007,"click_time":1552074600996,"finger_time":1552074600755,"fix_duration":1489.0631073633783,"trial":40,"RT":748,"MT":241,"sideResp":1,"stimulus":"img/500/equaldotanddens/L/4_Ratio_500_L_18_R_9.png","xmouse":[793,793,793,793,793,793,793,793,793,793,793,793,793,793,793,793,793,793,793,793,793,793,793,793,793,793,793,793,793,793,793,793,793,793,792,789,776,746,714,680,657,622,604,583,562,538,506,488,480,473],"ymouse":[529,529,529,529,529,529,529,529,529,529,529,529,529,529,529,529,529,529,529,529,529,529,529,529,529,529,529,529,529,529,529,529,529,529,529,526,508,469,423,376,334,264,240,216,194,172,140,116,101,86],"timestamp_mouse":[12,36,49,69,89,109,129,150,168,190,208,230,248,268,290,309,329,349,368,389,408,429,449,470,489,509,528,550,570,589,609,629,649,668,689,710,728,748,768,788,808,830,848,868,889,909,929,948,968,989],"xSR":741.5,"ySR":469.95,"xT1":424.9,"yT1":0,"xT2":1058.1,"yT2":0,"toosoon":0,"cond_shown":"equaldotanddens","ratio_trial":500,"smaller_num":"9","larger_num":"18","correct_side":1,"subjID":"juandavidzubieta2","gender":"0","age":"9","school":"4"},{"start_time":1552074602704,"click_time":1552074603755,"finger_time":1552074603455,"fix_duration":786.6332102866463,"trial":41,"RT":751,"MT":300,"sideResp":2,"stimulus":"img/250/equaldotsize/R/12_Ratio_250_L_5_R_20.png","xmouse":[756,756,756,755,755,755,755,755,755,755,755,755,755,755,755,755,755,755,755,755,755,755,755,755,755,755,755,755,755,755,755,755,755,755,756,757,762,787,804,818,830,855,925,970,1009,1032,1044,1045,1045,1045,1045,1046,1064],"ymouse":[508,508,508,508,508,508,507,507,507,507,507,507,507,507,507,507,507,507,507,507,507,507,507,507,507,507,507,507,506,506,506,506,506,505,501,498,493,465,437,402,358,298,195,141,96,62,31,26,25,25,25,25,25],"timestamp_mouse":[13,37,52,72,93,112,132,151,171,192,212,231,251,272,293,311,332,353,371,391,412,432,452,471,492,513,532,552,571,591,611,633,652,671,691,711,731,751,773,791,813,832,852,872,891,911,932,951,971,993,1012,1031,1051],"xSR":741.5,"ySR":469.95,"xT1":424.9,"yT1":0,"xT2":1058.1,"yT2":0,"toosoon":0,"cond_shown":"equaldotsize","ratio_trial":250,"smaller_num":"5","larger_num":"20","correct_side":2,"subjID":"juandavidzubieta2","gender":"0","age":"9","school":"4"},{"start_time":1552074607564,"click_time":1552074608735,"finger_time":1552074608276,"fix_duration":365.28089905538206,"trial":42,"RT":712,"MT":459,"sideResp":2,"stimulus":"img/750/equaldotanddens/R/4_Ratio_750_L_15_R_20.png","xmouse":[791,791,791,791,791,791,791,791,791,791,791,791,791,791,791,791,791,791,791,791,791,791,791,791,791,791,791,791,791,791,791,791,797,802,817,866,904,923,933,945,948,952,957,959,962,965,965,967,969,982,995,1012,1028,1044,1068,1071,1072,1073,1077],"ymouse":[532,532,532,532,532,532,532,532,532,532,532,532,532,532,532,532,532,532,532,532,532,532,532,532,532,532,532,532,532,532,532,532,524,516,501,457,406,372,345,298,281,267,254,246,234,218,216,211,206,188,176,163,150,137,115,109,108,103,94],"timestamp_mouse":[12,34,51,72,91,112,133,151,173,192,211,232,251,272,292,312,332,351,372,393,412,431,451,472,493,512,531,551,572,593,613,633,651,672,691,712,731,751,771,792,811,832,851,871,892,912,931,951,971,992,1011,1032,1052,1072,1092,1112,1131,1152,1171],"xSR":741.5,"ySR":469.95,"xT1":424.9,"yT1":0,"xT2":1058.1,"yT2":0,"toosoon":0,"cond_shown":"equaldotanddens","ratio_trial":750,"smaller_num":"15","larger_num":"20","correct_side":2,"subjID":"juandavidzubieta2","gender":"0","age":"9","school":"4"},{"start_time":1552074610486,"click_time":1552074611476,"finger_time":1552074611295,"fix_duration":909.5946134039428,"trial":43,"RT":809,"MT":181,"sideResp":1,"stimulus":"img/500/randomdotsizeEA/L/8_Ratio_500_L_8_R_4.png","xmouse":[785,785,785,785,785,785,785,785,785,785,785,785,785,785,785,785,785,786,786,786,786,786,786,786,786,786,786,786,786,786,786,786,786,786,786,786,786,786,786,772,745,690,609,455,419,410,410,415,439,453],"ymouse":[537,537,537,537,537,537,537,537,537,537,537,537,537,537,537,537,537,537,537,537,537,537,537,537,537,537,537,537,537,537,537,537,537,537,537,537,537,536,532,501,464,397,313,172,132,115,109,105,100,82],"timestamp_mouse":[17,38,49,69,89,111,131,149,169,190,211,229,251,270,291,310,331,349,369,390,409,431,451,470,489,510,530,549,571,590,610,630,650,670,691,710,729,750,769,790,809,830,850,870,889,909,929,950,969,990],"xSR":741.5,"ySR":469.95,"xT1":424.9,"yT1":0,"xT2":1058.1,"yT2":0,"toosoon":0,"cond_shown":"randomdotsizeEA","ratio_trial":500,"smaller_num":"4","larger_num":"8","correct_side":1,"subjID":"juandavidzubieta2","gender":"0","age":"9","school":"4"},{"start_time":1552074614796,"click_time":1552074615635,"finger_time":1552074615556,"fix_duration":1098.2044380032155,"trial":44,"RT":760,"MT":79,"sideResp":1,"stimulus":"img/250/randomdotsizeEA/L/7_Ratio_250_L_8_R_2.png","xmouse":[786,786,786,786,786,786,786,786,786,786,786,786,786,786,786,786,786,786,786,786,786,786,786,786,786,786,786,786,786,786,786,786,786,786,786,784,771,756,729,657,597,551,514],"ymouse":[511,511,511,511,511,511,511,511,511,511,511,511,511,511,511,511,511,511,511,511,511,511,511,511,511,511,511,511,511,511,511,511,511,511,511,511,508,496,452,290,183,125,82],"timestamp_mouse":[1,21,39,60,79,101,120,139,160,179,200,220,239,260,281,299,320,339,360,380,401,421,440,460,480,501,520,539,560,580,599,620,641,660,681,699,720,740,760,780,800,819,839],"xSR":741.5,"ySR":469.95,"xT1":424.9,"yT1":0,"xT2":1058.1,"yT2":0,"toosoon":0,"cond_shown":"randomdotsizeEA","ratio_trial":250,"smaller_num":"2","larger_num":"8","correct_side":1,"subjID":"juandavidzubieta2","gender":"0","age":"9","school":"4"},{"start_time":1552074617639,"click_time":1552074618717,"finger_time":1552074618276,"fix_duration":1081.7666299772154,"trial":45,"RT":637,"MT":441,"sideResp":2,"stimulus":"img/250/equaldotanddens/R/8_Ratio_250_L_1_R_4.png","xmouse":[769,769,769,769,769,769,770,771,771,772,772,773,773,773,773,773,773,773,774,774,775,775,775,775,775,775,775,775,775,776,776,781,827,874,939,1056,1056,1056,1056,1056,1056,1056,1056,1056,1056,1056,1056,1056,1056,1056,1056,1056,1056,1096],"ymouse":[498,498,498,497,496,495,492,490,489,487,485,484,483,483,483,483,483,483,481,480,479,477,477,476,476,476,476,476,476,475,474,462,360,273,168,10,10,10,10,10,10,10,10,10,10,10,10,10,10,10,10,10,10,1],"timestamp_mouse":[24,38,57,76,96,117,136,158,176,196,216,236,256,277,297,316,336,356,377,396,416,436,456,477,497,518,537,558,576,596,616,637,656,678,697,717,736,756,776,796,816,837,856,876,897,917,937,957,977,998,1017,1037,1056,1077],"xSR":741.5,"ySR":469.95,"xT1":424.9,"yT1":0,"xT2":1058.1,"yT2":0,"toosoon":0,"cond_shown":"equaldotanddens","ratio_trial":250,"smaller_num":"1","larger_num":"4","correct_side":2,"subjID":"juandavidzubieta2","gender":"0","age":"9","school":"4"},{"start_time":1552074621775,"click_time":1552074622955,"finger_time":1552074622615,"fix_duration":1297.6704006130806,"trial":46,"RT":840,"MT":340,"sideResp":1,"stimulus":"img/250/equaldotsize/L/5_Ratio_250_L_24_R_6.png","xmouse":[821,821,821,821,821,821,821,821,821,821,821,821,821,821,821,821,821,821,821,821,821,821,821,821,821,821,821,821,821,821,821,821,821,821,821,821,821,821,821,817,808,779,759,731,697,661,611,599,596,594,592,580,570,558,547,543,539,537,519,485],"ymouse":[513,513,513,513,513,513,513,513,513,513,513,513,513,513,513,513,513,513,513,513,513,513,513,513,513,513,513,513,513,513,513,513,513,513,513,513,513,513,513,508,500,480,466,444,417,385,342,332,327,323,314,281,257,235,214,199,173,159,101,38],"timestamp_mouse":[9,21,40,60,82,100,120,141,160,181,202,221,241,261,281,300,321,340,361,380,402,421,440,461,481,501,520,541,560,580,600,621,641,662,680,700,721,741,760,782,801,820,840,860,881,900,920,940,961,982,1001,1021,1040,1060,1080,1101,1121,1141,1160,1180],"xSR":741.5,"ySR":469.95,"xT1":424.9,"yT1":0,"xT2":1058.1,"yT2":0,"toosoon":0,"cond_shown":"equaldotsize","ratio_trial":250,"smaller_num":"6","larger_num":"24","correct_side":1,"subjID":"juandavidzubieta2","gender":"0","age":"9","school":"4"},{"start_time":1552074623867,"click_time":1552074624995,"finger_time":1552074624595,"fix_duration":250,"trial":47,"RT":728,"MT":400,"sideResp":2,"stimulus":"img/250/randomdotsizeEA/R/11_Ratio_250_L_3_R_12.png","xmouse":[781,781,781,781,781,781,781,781,781,781,781,781,781,781,781,781,781,781,781,781,781,781,781,781,781,781,781,781,781,781,781,781,781,781,791,806,859,882,904,922,943,965,1000,1013,1017,1022,1033,1035,1038,1041,1046,1070,1090,1117,1126,1128,1128],"ymouse":[515,515,515,515,515,515,515,515,515,515,515,515,515,515,515,515,515,515,515,515,515,515,515,515,515,515,515,515,515,515,515,515,515,515,512,508,484,474,459,441,416,380,302,239,205,180,153,149,147,147,146,141,133,116,108,102,96],"timestamp_mouse":[8,32,49,69,89,108,130,150,169,189,210,229,248,270,289,308,329,350,368,389,410,428,449,469,488,510,530,550,569,589,610,630,648,669,689,709,728,748,770,789,809,828,849,868,888,909,930,948,970,989,1009,1029,1048,1068,1089,1108,1128],"xSR":741.5,"ySR":469.95,"xT1":424.9,"yT1":0,"xT2":1058.1,"yT2":0,"toosoon":0,"cond_shown":"randomdotsizeEA","ratio_trial":250,"smaller_num":"3","larger_num":"12","correct_side":2,"subjID":"juandavidzubieta2","gender":"0","age":"9","school":"4"},{"start_time":1552074626534,"click_time":1552074627795,"finger_time":1552074627376,"fix_duration":535.9632280306467,"trial":48,"RT":842,"MT":419,"sideResp":2,"stimulus":"img/750/equaldotanddens/R/2_Ratio_750_L_6_R_8.png","xmouse":[802,802,802,802,802,802,802,802,802,802,802,802,802,802,802,802,802,802,802,802,802,802,802,802,802,802,802,802,802,802,802,802,802,802,802,802,802,802,802,802,808,822,856,936,966,988,1004,1015,1033,1062,1076,1083,1085,1085,1085,1085,1085,1085,1098,1106,1112,1118,1122,1124],"ymouse":[534,534,534,534,534,534,534,534,534,534,534,534,534,534,534,534,534,534,534,534,534,534,534,534,534,534,534,534,534,534,534,534,534,534,534,534,534,534,534,533,526,518,504,471,453,435,410,386,346,292,268,252,242,237,231,228,221,212,173,154,136,118,105,99],"timestamp_mouse":[8,22,41,61,82,102,121,141,161,181,202,223,241,262,283,301,321,341,363,381,403,421,443,461,481,502,523,541,562,582,601,621,642,661,682,701,722,741,762,781,801,822,842,862,881,901,922,942,962,981,1001,1022,1041,1062,1081,1102,1122,1141,1163,1182,1202,1221,1241,1261],"xSR":741.5,"ySR":469.95,"xT1":424.9,"yT1":0,"xT2":1058.1,"yT2":0,"toosoon":0,"cond_shown":"equaldotanddens","ratio_trial":750,"smaller_num":"6","larger_num":"8","correct_side":2,"subjID":"juandavidzubieta2","gender":"0","age":"9","school":"4"},{"start_time":1552074631927,"click_time":1552074633236,"finger_time":1552074632776,"fix_duration":1371.0838040110762,"trial":49,"RT":849,"MT":460,"sideResp":2,"stimulus":"img/750/equaldotanddens/R/5_Ratio_750_L_15_R_20.png","xmouse":[789,785,782,779,778,778,778,778,777,777,777,777,777,777,777,777,777,777,777,777,777,777,777,777,777,777,777,777,777,777,777,777,777,777,777,777,777,777,777,777,786,798,808,820,840,852,879,904,926,974,996,1016,1032,1044,1058,1058,1058,1058,1058,1058,1058,1058,1058,1058,1058,1126],"ymouse":[501,501,502,502,503,503,503,503,503,503,503,503,503,503,503,503,503,503,503,503,503,503,503,503,503,503,503,503,503,503,503,503,503,503,503,503,503,503,503,503,495,476,452,426,368,338,287,248,220,153,118,81,50,27,6,6,6,6,6,6,6,6,6,6,6,7],"timestamp_mouse":[11,28,48,69,89,109,128,148,168,189,208,229,248,268,289,310,329,348,368,389,408,428,449,468,488,509,529,548,569,590,608,628,649,669,688,708,728,748,770,790,808,829,849,868,889,909,929,949,968,989,1008,1028,1048,1069,1089,1108,1128,1148,1169,1188,1208,1229,1248,1268,1289,1309],"xSR":741.5,"ySR":469.95,"xT1":424.9,"yT1":0,"xT2":1058.1,"yT2":0,"toosoon":0,"cond_shown":"equaldotanddens","ratio_trial":750,"smaller_num":"15","larger_num":"20","correct_side":2,"subjID":"juandavidzubieta2","gender":"0","age":"9","school":"4"},{"start_time":1552074634758,"click_time":1552074636196,"finger_time":1552074635595,"fix_duration":541.1629210490017,"trial":50,"RT":837,"MT":601,"sideResp":2,"stimulus":"img/500/equaldotanddens/L/5_Ratio_500_L_4_R_2.png","xmouse":[779,777,777,777,776,776,775,775,775,775,775,775,775,775,775,775,775,775,775,775,775,775,775,775,775,775,775,775,775,775,775,775,774,769,767,767,767,766,762,756,749,741,723,706,698,695,694,694,694,694,694,694,694,699,714,744,798,872,1026,1087,1119,1130,1130,1130,1130,1130,1130,1132,1132,1132,1132,1132],"ymouse":[496,495,495,494,493,492,491,491,491,491,491,491,491,491,491,491,491,491,491,491,491,491,491,491,491,491,491,491,491,491,491,491,491,491,491,491,491,491,488,481,471,460,433,410,399,394,393,393,393,393,393,390,386,383,377,368,352,327,258,225,205,193,185,185,185,185,185,167,148,127,106,90],"timestamp_mouse":[18,38,57,77,97,118,137,158,179,197,217,239,257,277,298,318,338,357,379,398,418,437,459,477,498,518,539,558,579,598,618,637,657,678,698,717,737,757,777,798,818,837,858,878,897,918,938,958,979,998,1017,1037,1058,1077,1097,1117,1137,1157,1177,1198,1217,1237,1258,1277,1299,1319,1338,1358,1377,1397,1418,1437],"xSR":741.5,"ySR":469.95,"xT1":424.9,"yT1":0,"xT2":1058.1,"yT2":0,"toosoon":0,"cond_shown":"equaldotanddens","ratio_trial":500,"smaller_num":"2","larger_num":"4","correct_side":1,"subjID":"juandavidzubieta2","gender":"0","age":"9","school":"4"},{"start_time":1552074638293,"click_time":1552074639795,"finger_time":1552074639435,"fix_duration":997.1478801726435,"trial":51,"RT":1142,"MT":360,"sideResp":1,"stimulus":"img/900/randomdotsizeEA/R/6_Ratio_900_L_9_R_10.png","xmouse":[792,792,792,792,792,792,792,794,800,804,809,812,813,813,813,813,813,813,813,813,813,812,810,809,809,809,809,809,809,809,809,809,809,809,809,809,809,808,808,808,807,807,807,807,807,807,807,807,807,804,803,800,796,793,786,783,771,740,716,682,643,610,559,553,552,552,553,554,554,553,547,543,532,527,519,502],"ymouse":[486,486,486,486,486,486,486,484,482,481,481,481,480,480,480,480,480,480,480,480,480,482,489,491,492,492,492,492,492,492,492,493,493,493,493,495,496,497,498,498,499,499,499,499,499,499,499,499,500,501,501,501,501,501,500,500,495,476,459,435,407,381,345,338,334,324,314,288,271,252,232,216,181,161,138,99],"timestamp_mouse":[2,27,43,63,82,104,122,142,162,182,202,224,242,263,283,303,324,343,362,382,402,422,442,462,483,502,524,543,563,583,602,622,644,664,682,703,722,744,762,782,803,822,842,864,882,903,923,944,963,983,1002,1022,1042,1062,1082,1104,1123,1142,1162,1182,1203,1223,1243,1262,1282,1303,1322,1342,1363,1383,1403,1423,1442,1462,1482,1502],"xSR":741.5,"ySR":469.95,"xT1":424.9,"yT1":0,"xT2":1058.1,"yT2":0,"toosoon":0,"cond_shown":"randomdotsizeEA","ratio_trial":900,"smaller_num":"9","larger_num":"10","correct_side":2,"subjID":"juandavidzubieta2","gender":"0","age":"9","school":"4"},{"start_time":1552074643064,"click_time":1552074644296,"finger_time":1552074644096,"fix_duration":1006.1663222597459,"trial":52,"RT":1032,"MT":200,"sideResp":2,"stimulus":"img/250/equaldotanddens/L/2_Ratio_250_L_16_R_4.png","xmouse":[785,785,785,785,785,785,785,785,785,785,785,785,785,785,785,785,785,785,785,785,785,785,785,785,785,785,785,785,785,785,785,785,785,785,785,785,784,783,782,782,781,781,780,780,780,780,780,780,782,797,826,868,913,946,996,1009,1017,1025,1031,1048,1064,1083],"ymouse":[508,508,508,508,508,508,508,508,508,508,508,508,508,508,508,508,508,508,508,508,508,508,508,508,508,508,508,508,508,508,508,508,508,508,508,508,508,508,508,508,508,508,508,508,508,508,508,508,507,505,493,460,409,345,202,170,150,139,133,119,107,91],"timestamp_mouse":[12,34,52,73,92,112,131,151,172,192,211,232,252,272,292,312,332,353,371,392,412,433,453,471,492,512,532,551,571,591,613,633,651,671,693,711,732,751,772,791,813,831,852,873,891,911,931,951,972,991,1012,1032,1053,1072,1093,1111,1132,1152,1171,1191,1211,1232],"xSR":741.5,"ySR":469.95,"xT1":424.9,"yT1":0,"xT2":1058.1,"yT2":0,"toosoon":0,"cond_shown":"equaldotanddens","ratio_trial":250,"smaller_num":"4","larger_num":"16","correct_side":1,"subjID":"juandavidzubieta2","gender":"0","age":"9","school":"4"},{"start_time":1552074648568,"click_time":1552074649636,"finger_time":1552074649295,"fix_duration":1370.896830111352,"trial":53,"RT":727,"MT":341,"sideResp":1,"stimulus":"img/750/equaldotanddens/L/8_Ratio_750_L_4_R_3.png","xmouse":[804,803,801,800,800,800,800,800,800,800,800,800,800,800,800,800,800,800,800,800,800,800,800,800,800,799,799,799,798,797,796,794,791,786,765,746,722,688,676,658,648,633,612,584,524,498,474,466,462,459,455,447,437,428],"ymouse":[515,515,515,515,515,515,515,515,515,515,515,515,515,515,515,515,515,515,515,515,515,515,515,515,515,515,515,515,515,515,515,515,515,515,515,513,508,494,484,462,447,424,396,364,287,251,211,194,179,157,148,135,117,89],"timestamp_mouse":[11,33,48,68,88,109,127,148,168,187,207,229,249,267,288,307,328,348,369,388,407,427,447,468,489,509,527,547,567,587,607,628,648,667,687,708,727,748,767,787,807,827,847,869,888,909,927,948,968,987,1007,1027,1047,1068],"xSR":741.5,"ySR":469.95,"xT1":424.9,"yT1":0,"xT2":1058.1,"yT2":0,"toosoon":0,"cond_shown":"equaldotanddens","ratio_trial":750,"smaller_num":"3","larger_num":"4","correct_side":1,"subjID":"juandavidzubieta2","gender":"0","age":"9","school":"4"},{"start_time":1552074653445,"click_time":1552074654276,"finger_time":1552074654196,"fix_duration":1425.1183090264226,"trial":54,"RT":751,"MT":80,"sideResp":1,"stimulus":"img/750/equaldotanddens/L/8_Ratio_750_L_4_R_3.png","xmouse":[796,796,796,796,796,796,796,798,799,801,806,809,811,813,815,818,818,819,819,819,819,819,819,819,819,819,819,819,819,819,819,819,819,814,808,797,786,769,746,716,572,498],"ymouse":[523,523,523,523,523,523,523,523,523,523,526,527,528,529,530,532,532,533,533,533,533,533,533,533,533,533,533,533,533,533,533,533,533,533,533,526,505,469,413,348,146,74],"timestamp_mouse":[11,30,52,72,90,110,130,150,170,190,210,232,250,271,290,311,332,350,370,392,411,431,452,470,491,510,532,551,571,590,611,631,650,671,690,711,730,751,770,790,812,830],"xSR":741.5,"ySR":469.95,"xT1":424.9,"yT1":0,"xT2":1058.1,"yT2":0,"toosoon":0,"cond_shown":"equaldotanddens","ratio_trial":750,"smaller_num":"3","larger_num":"4","correct_side":1,"subjID":"juandavidzubieta2","gender":"0","age":"9","school":"4"},{"start_time":1552074655376,"click_time":1552074656716,"finger_time":1552074656256,"fix_duration":298.34351722436014,"trial":55,"RT":880,"MT":460,"sideResp":2,"stimulus":"img/750/equaldotsize/R/15_Ratio_750_L_9_R_12.png","xmouse":[764,764,764,764,764,764,766,768,769,771,772,772,772,772,772,772,772,772,773,773,773,773,774,774,774,774,774,774,775,775,775,775,775,775,775,775,775,775,775,775,775,775,775,781,802,901,977,1068,1147,1204,1265,1270,1270,1261,1245,1203,1191,1187,1187,1187,1187,1187,1187,1188,1188,1188,1182,1144],"ymouse":[498,498,498,498,498,498,498,498,496,494,493,492,492,492,492,492,492,492,491,491,491,490,489,489,489,489,489,488,487,487,487,487,487,487,487,487,487,487,487,487,487,487,487,482,468,405,368,329,305,282,225,199,177,161,161,161,161,161,161,161,150,135,127,122,121,119,113,77],"timestamp_mouse":[5,20,40,59,80,100,119,140,159,179,199,219,240,259,280,300,319,339,360,381,400,420,439,460,481,501,520,540,561,581,600,620,639,659,679,699,720,739,759,781,799,821,839,859,880,899,919,940,959,979,999,1020,1039,1059,1079,1100,1119,1140,1161,1180,1199,1219,1240,1259,1280,1300,1319,1340],"xSR":741.5,"ySR":469.95,"xT1":424.9,"yT1":0,"xT2":1058.1,"yT2":0,"toosoon":0,"cond_shown":"equaldotsize","ratio_trial":750,"smaller_num":"9","larger_num":"12","correct_side":2,"subjID":"juandavidzubieta2","gender":"0","age":"9","school":"4"},{"start_time":1552074659217,"click_time":1552074660775,"finger_time":1552074660474,"fix_duration":1298.9180287016786,"trial":56,"RT":1257,"MT":301,"sideResp":1,"stimulus":"img/900/randomdotsizeEA/L/1_Ratio_900_L_10_R_9.png","xmouse":[779,779,779,779,779,779,779,779,779,779,779,779,779,779,779,779,779,779,779,779,779,779,779,779,779,779,779,779,779,779,779,779,779,779,779,779,779,779,779,779,779,779,779,779,779,779,779,779,779,779,779,779,779,779,779,779,779,779,779,779,775,769,761,754,738,727,716,699,662,633,618,601,588,574,556,545,529,499,435],"ymouse":[523,523,523,523,523,523,523,523,523,523,523,523,523,523,523,523,523,523,523,523,523,523,523,523,523,523,523,523,523,523,523,523,523,523,523,523,523,523,523,523,523,523,523,523,523,523,523,523,523,523,523,523,523,523,523,523,523,523,522,516,502,488,475,462,436,422,407,393,369,347,331,309,291,273,238,214,183,137,42],"timestamp_mouse":[1,19,38,59,78,99,120,138,158,178,199,219,238,258,280,299,319,338,358,379,399,419,439,458,478,499,520,538,558,580,599,620,639,658,678,700,720,739,758,779,797,817,838,857,878,897,918,937,959,978,998,1017,1038,1057,1078,1098,1118,1138,1157,1177,1197,1217,1237,1257,1277,1297,1317,1337,1357,1377,1397,1417,1437,1458,1477,1498,1518,1537,1558],"xSR":741.5,"ySR":469.95,"xT1":424.9,"yT1":0,"xT2":1058.1,"yT2":0,"toosoon":0,"cond_shown":"randomdotsizeEA","ratio_trial":900,"smaller_num":"9","larger_num":"10","correct_side":1,"subjID":"juandavidzubieta2","gender":"0","age":"9","school":"4"},{"start_time":1552074678666,"click_time":1552074681316,"finger_time":1552074680534,"fix_duration":250,"trial":57,"RT":1868,"MT":782,"sideResp":2,"stimulus":"img/750/equaldotanddens/L/10_Ratio_750_L_4_R_3.png","xmouse":[762,762,762,762,762,762,762,762,762,762,762,762,762,762,762,762,762,762,762,762,762,762,762,762,762,762,762,762,762,762,762,762,762,762,762,762,762,762,762,762,762,762,762,762,762,762,762,762,762,762,762,762,762,762,762,762,762,762,762,762,762,762,762,762,762,762,762,762,762,762,762,762,762,762,762,762,762,762,762,762,762,762,762,762,762,762,762,762,762,762,762,762,789,843,909,968,1002,1022,1022,1021,1018,1018,1017,1017,1016,1011,1005,1004,1004,1004,1004,1004,992,989,989,989,989,989,989,989,989,989,989,989,989,989,989,989,989,989,989,989,1113],"ymouse":[556,556,556,556,556,556,556,556,556,556,556,556,556,556,556,556,556,556,556,556,556,556,556,556,556,556,556,556,556,556,556,556,556,556,556,556,556,556,556,556,556,556,556,556,556,556,556,556,556,556,556,556,556,556,556,556,556,556,556,556,556,556,556,556,556,556,556,556,556,556,556,556,556,556,556,556,556,556,556,556,556,556,556,556,556,556,556,556,556,556,556,556,550,526,490,465,454,448,447,447,446,446,446,445,436,416,395,360,274,212,160,100,15,1,1,1,1,1,1,1,1,1,1,1,1,1,1,1,1,1,1,1,17],"timestamp_mouse":[10,28,49,68,89,110,128,148,168,188,209,230,248,269,289,308,329,349,368,389,410,428,448,469,489,508,528,549,568,588,608,629,649,669,689,708,728,748,768,789,809,829,849,869,888,908,928,950,970,989,1008,1029,1049,1068,1088,1108,1129,1148,1169,1189,1209,1229,1249,1269,1289,1310,1329,1349,1369,1389,1410,1428,1448,1469,1489,1509,1529,1548,1568,1589,1609,1629,1648,1668,1689,1710,1730,1749,1769,1789,1809,1828,1849,1868,1889,1908,1930,1949,1968,1988,2008,2028,2050,2068,2088,2109,2129,2148,2168,2188,2209,2228,2249,2268,2288,2310,2329,2350,2368,2388,2408,2428,2449,2469,2490,2509,2528,2549,2569,2588,2608,2628,2650],"xSR":741.5,"ySR":469.95,"xT1":424.9,"yT1":0,"xT2":1058.1,"yT2":0,"toosoon":0,"cond_shown":"equaldotanddens","ratio_trial":750,"smaller_num":"3","larger_num":"4","correct_side":1,"subjID":"juandavidzubieta2","gender":"0","age":"9","school":"4"},{"start_time":1552074683354,"click_time":1552074684894,"finger_time":1552074684315,"fix_duration":578.2877799054104,"trial":58,"RT":961,"MT":579,"sideResp":1,"stimulus":"img/900/randomdotsizeEA/R/5_Ratio_900_L_9_R_10.png","xmouse":[793,793,793,793,793,793,793,793,793,793,792,792,792,792,792,792,792,792,792,792,792,792,792,792,792,792,792,792,792,792,792,792,792,792,792,792,792,792,792,792,792,792,792,792,792,789,779,762,736,678,645,579,545,518,491,487,486,485,484,478,474,473,473,473,474,477,481,485,488,496,497,504,509,513,516,516,507,487],"ymouse":[542,542,542,542,542,542,542,543,543,543,544,544,544,545,545,545,545,545,545,545,545,545,546,546,546,546,546,546,546,546,546,546,546,546,546,546,546,546,546,546,546,546,546,546,546,545,530,504,472,406,364,287,247,215,178,169,163,158,153,141,131,126,124,122,119,119,119,119,119,119,119,119,119,119,114,109,100,92],"timestamp_mouse":[1,20,42,60,81,100,120,140,161,180,200,220,241,261,280,300,321,341,361,380,401,420,440,461,481,500,521,540,561,580,601,621,641,661,680,701,721,741,760,781,800,821,841,860,881,900,920,940,961,980,1000,1020,1041,1061,1080,1102,1120,1140,1161,1180,1200,1220,1241,1260,1280,1300,1320,1340,1362,1380,1400,1420,1440,1461,1480,1500,1521,1540],"xSR":741.5,"ySR":469.95,"xT1":424.9,"yT1":0,"xT2":1058.1,"yT2":0,"toosoon":0,"cond_shown":"randomdotsizeEA","ratio_trial":900,"smaller_num":"9","larger_num":"10","correct_side":2,"subjID":"juandavidzubieta2","gender":"0","age":"9","school":"4"},{"start_time":1552074688266,"click_time":1552074689335,"finger_time":1552074689014,"fix_duration":250,"trial":59,"RT":748,"MT":321,"sideResp":2,"stimulus":"img/750/equaldotsize/R/7_Ratio_750_L_3_R_4.png","xmouse":[786,788,789,791,792,792,792,792,792,792,792,792,792,792,792,792,792,792,792,792,792,792,792,792,792,792,792,792,792,792,792,792,792,792,792,792,800,816,864,1088,1228,1350,1414,1414,1414,1414,1414,1414,1414,1414,1414,1414,1205,1156],"ymouse":[528,528,528,528,528,528,528,528,528,528,528,528,527,527,527,527,527,527,527,527,527,527,527,527,527,527,527,527,527,527,527,527,527,527,527,526,503,466,386,190,103,39,1,1,1,1,1,1,1,1,1,1,3,10],"timestamp_mouse":[14,34,48,68,88,109,128,150,169,188,209,228,249,269,289,308,328,349,368,389,408,429,449,469,488,508,528,549,569,589,608,628,649,668,688,708,729,748,769,789,808,828,848,868,889,908,928,949,968,988,1008,1028,1048,1069],"xSR":741.5,"ySR":469.95,"xT1":424.9,"yT1":0,"xT2":1058.1,"yT2":0,"toosoon":0,"cond_shown":"equaldotsize","ratio_trial":750,"smaller_num":"3","larger_num":"4","correct_side":2,"subjID":"juandavidzubieta2","gender":"0","age":"9","school":"4"},{"start_time":1552074690818,"click_time":1552074691654,"finger_time":1552074691274,"fix_duration":383.2387059054215,"trial":60,"RT":456,"MT":380,"sideResp":1,"stimulus":"img/750/equaldotsize/L/10_Ratio_750_L_4_R_3.png","xmouse":[767,767,770,774,777,777,777,777,777,777,778,780,782,784,784,784,784,784,785,788,791,797,799,799,799,799,796,790,784,777,768,748,736,717,682,658,618,601,582,560,535,476],"ymouse":[527,527,527,526,525,525,525,525,525,525,525,525,525,524,524,524,524,524,521,511,501,474,467,460,454,449,441,433,424,412,399,360,331,287,224,189,149,136,124,112,100,81],"timestamp_mouse":[17,36,56,76,96,117,137,156,176,197,216,236,257,277,296,317,337,356,376,397,417,436,456,476,496,517,536,556,576,596,616,636,656,677,696,717,736,756,776,797,816,836],"xSR":741.5,"ySR":469.95,"xT1":424.9,"yT1":0,"xT2":1058.1,"yT2":0,"toosoon":0,"cond_shown":"equaldotsize","ratio_trial":750,"smaller_num":"3","larger_num":"4","correct_side":1,"subjID":"juandavidzubieta2","gender":"0","age":"9","school":"4"},{"start_time":1552074693245,"click_time":1552074694274,"finger_time":1552074694054,"fix_duration":690.9583613104388,"trial":61,"RT":809,"MT":220,"sideResp":1,"stimulus":"img/250/randomdotsizeEA/L/14_Ratio_250_L_12_R_3.png","xmouse":[784,784,784,784,784,784,784,784,784,784,784,784,784,784,784,784,784,784,784,784,784,784,784,784,784,784,784,784,784,784,784,784,784,784,784,784,784,783,780,771,732,686,656,633,621,600,593,582,567,549,529,481],"ymouse":[511,511,511,511,511,511,511,511,511,511,511,511,511,511,511,511,511,511,511,511,511,511,511,511,511,511,511,511,511,511,511,511,511,511,511,511,510,508,503,484,422,356,307,279,256,219,201,183,160,140,121,91],"timestamp_mouse":[9,37,50,70,90,111,130,150,169,190,210,230,250,270,289,310,330,349,370,389,409,430,449,469,490,509,530,550,569,590,609,630,650,670,690,709,729,749,769,789,809,830,849,870,889,909,929,950,970,989,1010,1029],"xSR":741.5,"ySR":469.95,"xT1":424.9,"yT1":0,"xT2":1058.1,"yT2":0,"toosoon":0,"cond_shown":"randomdotsizeEA","ratio_trial":250,"smaller_num":"3","larger_num":"12","correct_side":1,"subjID":"juandavidzubieta2","gender":"0","age":"9","school":"4"},{"start_time":1552074695733,"click_time":1552074696674,"finger_time":1552074696356,"fix_duration":417.30674242328433,"trial":62,"RT":623,"MT":318,"sideResp":2,"stimulus":"img/250/equaldotsize/R/8_Ratio_250_L_1_R_4.png","xmouse":[802,802,802,802,802,802,802,802,802,802,802,802,802,802,802,802,802,802,802,802,802,802,802,802,802,802,802,802,802,803,806,855,915,976,1041,1099,1164,1182,1184,1184,1184,1180,1173,1168,1164,1162,1160,1153],"ymouse":[518,518,518,518,518,518,518,518,518,518,518,518,518,518,518,518,518,518,518,518,518,518,518,518,518,518,518,517,516,511,501,419,342,267,212,170,120,104,101,100,98,92,89,87,85,83,81,74],"timestamp_mouse":[8,21,41,61,83,102,122,142,163,181,202,222,242,261,282,301,323,342,362,381,402,421,441,461,481,501,521,541,561,581,602,623,642,663,681,701,722,741,761,781,802,822,841,861,881,902,922,941],"xSR":741.5,"ySR":469.95,"xT1":424.9,"yT1":0,"xT2":1058.1,"yT2":0,"toosoon":0,"cond_shown":"equaldotsize","ratio_trial":250,"smaller_num":"1","larger_num":"4","correct_side":2,"subjID":"juandavidzubieta2","gender":"0","age":"9","school":"4"},{"start_time":1552074698443,"click_time":1552074699654,"finger_time":1552074699315,"fix_duration":807.6105827960795,"trial":63,"RT":872,"MT":339,"sideResp":1,"stimulus":"img/750/randomdotsizeEA/R/11_Ratio_750_L_12_R_16.png","xmouse":[785,785,785,785,785,785,785,785,785,785,785,785,785,785,785,785,785,785,785,785,785,785,785,785,785,785,785,785,785,785,785,785,785,785,785,785,785,785,785,785,785,781,776,769,760,749,732,728,725,721,698,671,633,589,555,532,518,518,518,517,515],"ymouse":[525,525,525,525,525,525,525,525,525,525,525,525,525,525,525,525,525,525,525,525,525,525,525,525,525,525,525,525,525,525,525,525,525,525,525,525,525,525,525,525,525,510,489,466,439,410,374,368,364,359,338,308,267,216,171,140,118,116,114,107,97],"timestamp_mouse":[12,32,51,72,92,112,131,152,172,192,212,232,251,272,292,313,331,351,372,391,411,432,451,472,491,512,531,551,572,592,612,632,651,671,691,711,732,751,772,791,811,832,851,872,891,911,932,951,971,992,1013,1032,1052,1071,1092,1111,1131,1151,1171,1191,1211],"xSR":741.5,"ySR":469.95,"xT1":424.9,"yT1":0,"xT2":1058.1,"yT2":0,"toosoon":0,"cond_shown":"randomdotsizeEA","ratio_trial":750,"smaller_num":"12","larger_num":"16","correct_side":2,"subjID":"juandavidzubieta2","gender":"0","age":"9","school":"4"},{"start_time":1552074703434,"click_time":1552074728573,"finger_time":1552074725613,"fix_duration":1138.8478699826553,"trial":64,"RT":22179,"MT":2960,"sideResp":2,"stimulus":"img/750/randomdotsizeEA/L/8_Ratio_750_L_4_R_3.png","xmouse":[813,813,813,813,813,813,813,813,813,813,813,813,813,813,813,813,813,813,813,813,813,813,813,813,813,813,813,813,813,813,813,813,813,813,813,813,813,813,813,813,813,813,813,813,813,813,813,813,813,813,813,813,813,813,813,813,813,813,813,813,813,813,813,813,813,813,813,813,813,813,813,813,813,813,813,813,813,813,813,813,813,813,813,813,813,813,813,813,813,813,813,813,813,813,813,813,813,813,813,813,813,813,813,813,813,813,813,813,813,813,813,813,813,813,813,813,813,813,813,813,813,813,813,813,813,813,813,813,813,813,813,813,813,813,813,813,813,813,813,813,813,813,813,813,813,813,813,813,813,813,813,813,813,813,813,813,813,813,813,813,813,813,813,813,813,813,813,813,813,813,813,813,813,813,813,813,813,813,813,813,813,813,813,813,813,813,813,813,813,813,813,813,813,813,813,813,813,813,813,813,813,813,813,813,813,813,813,813,813,813,813,813,813,813,813,813,813,813,813,813,813,813,813,813,813,813,813,813,813,813,813,813,813,813,813,813,813,813,813,813,813,813,813,813,813,813,813,813,813,813,813,813,813,813,813,813,813,813,813,813,813,813,813,813,813,813,813,813,813,813,813,813,813,813,813,813,813,813,813,813,813,813,813,813,813,813,813,813,813,813,813,813,813,813,813,813,813,813,813,813,813,813,813,813,813,813,813,813,813,813,813,813,813,813,813,813,813,813,813,813,813,813,813,813,813,813,813,813,813,813,813,813,813,813,813,813,813,813,813,813,813,813,813,813,813,813,813,813,813,813,813,813,813,813,813,813,813,813,813,813,813,813,813,813,813,813,813,813,813,813,813,813,813,813,813,813,813,813,813,813,813,813,813,813,813,813,813,813,813,813,813,813,813,813,813,813,813,813,813,813,813,813,813,813,813,813,813,813,813,813,813,813,813,813,813,813,813,813,813,813,813,813,813,813,813,813,813,813,813,813,813,813,813,813,813,813,813,813,813,813,813,813,813,813,813,813,813,813,813,813,813,813,813,813,813,813,813,813,813,813,813,813,813,813,813,813,813,813,813,813,813,813,813,813,813,813,813,813,813,813,813,813,813,813,813,813,813,813,813,813,813,813,813,813,813,813,813,813,813,813,813,813,813,813,813,813,813,813,813,813,813,813,813,813,813,813,813,813,813,813,813,813,813,813,813,813,813,813,813,813,813,813,813,813,813,813,813,813,813,813,813,813,813,813,813,813,813,813,813,813,813,813,813,813,813,813,813,813,813,813,813,813,813,813,813,813,813,813,813,813,813,813,813,813,813,813,813,813,813,813,813,813,813,813,813,813,813,813,813,813,813,813,813,813,813,813,813,813,813,813,813,813,813,813,813,813,813,813,813,813,813,813,813,813,813,813,813,813,813,813,813,813,813,813,813,813,813,813,813,813,813,813,813,813,813,813,813,813,813,813,813,813,813,813,813,813,813,813,813,813,813,813,813,813,813,813,813,813,813,813,813,813,813,813,813,813,813,813,813,813,813,813,813,813,813,813,813,813,813,813,813,813,813,813,813,813,813,813,813,813,813,813,813,813,813,813,813,813,813,813,813,813,813,813,813,813,813,813,813,813,813,813,813,813,813,813,813,813,813,813,813,813,813,813,813,813,813,813,813,813,813,813,813,813,813,813,813,813,813,813,813,813,813,813,813,813,813,813,813,813,813,813,813,813,813,813,813,813,813,813,813,813,813,813,813,813,813,813,813,813,813,813,813,813,813,813,813,813,813,813,813,813,813,813,813,813,813,813,813,813,813,813,813,813,813,813,813,813,813,813,813,813,813,813,813,813,813,813,813,813,813,813,813,813,813,813,813,813,813,813,813,813,813,813,813,813,813,813,813,813,813,813,813,813,813,813,813,813,813,813,813,813,813,813,813,813,813,813,813,813,813,813,813,813,813,813,813,813,813,813,813,813,813,813,813,813,813,813,813,813,813,813,813,813,813,813,813,813,813,813,813,813,813,813,813,813,813,813,813,813,813,813,813,813,813,813,813,813,813,813,813,813,813,813,813,813,813,813,813,813,813,813,813,813,813,813,813,813,813,813,813,813,813,813,813,813,813,813,813,813,813,813,813,813,813,813,813,813,813,813,813,813,813,813,813,813,813,813,813,813,813,813,813,813,813,813,813,813,813,813,813,813,813,813,813,813,813,813,813,813,813,813,813,813,813,813,813,813,813,813,813,813,813,813,813,813,813,813,813,813,813,813,813,813,813,813,813,813,813,813,813,813,813,813,813,813,813,813,813,813,813,813,813,813,813,813,813,813,813,813,813,813,813,813,813,813,813,813,813,813,813,813,813,813,813,813,813,813,813,813,813,813,813,813,813,813,813,813,813,813,813,813,813,813,813,813,813,813,813,813,813,813,813,813,813,813,813,813,813,813,813,813,813,813,813,813,813,813,813,813,813,813,813,813,813,813,813,813,813,813,813,813,813,813,813,813,813,813,813,813,813,813,813,813,811,811,811,811,802,739,641,619,609,605,602,599,596,587,583,583,583,583,588,592,593,593,593,593,593,593,593,593,593,593,593,593,593,593,593,593,593,593,593,593,593,593,593,515,425,378,368,370,376,390,403,416,427,447,505,555,653,686,712,728,731,731,727,726,733,742,760,760,760,760,760,781,804,811,817,817,805,778,756,745,743,743,743,743,743,743,743,743,743,746,747,753,754,755,755,755,756,756,756,756,756,756,756,756,756,756,756,756,756,756,756,756,756,758,759,760,760,760,761,763,769,778,779,779,779,779,779,779,779,780,784,793,798,798,798,799,799,801,817,841,859,874,883,902,915,926,955,975,1004,1033,1052,1071,1077,1082],"ymouse":[532,532,532,532,532,532,532,532,532,532,532,532,532,532,532,532,532,532,532,532,532,532,532,532,532,532,532,532,532,532,532,532,532,532,532,532,532,532,531,531,531,531,531,531,531,531,531,531,531,531,531,531,531,531,531,531,531,531,531,531,531,531,531,531,531,531,531,531,531,531,531,531,531,531,531,531,531,531,531,531,531,531,531,531,531,531,531,531,531,531,531,531,531,531,531,531,531,531,531,531,531,531,531,531,531,531,531,531,531,531,531,531,531,531,531,531,531,531,531,531,531,531,531,531,531,531,531,531,531,531,531,531,531,531,531,531,531,531,531,531,531,531,531,531,531,531,531,531,531,531,531,531,531,531,531,531,531,531,531,531,531,531,531,531,531,531,531,531,531,531,531,531,531,531,531,531,531,531,531,531,531,531,531,531,531,531,531,531,531,531,531,531,531,531,531,531,531,531,531,531,531,531,531,531,531,531,531,531,531,531,531,531,531,531,531,531,531,531,531,531,531,531,531,531,531,531,531,531,531,531,531,531,531,531,531,531,531,531,531,531,531,531,531,531,531,531,531,531,531,531,531,531,531,531,531,531,531,531,531,531,531,531,531,531,531,531,531,531,531,531,531,531,531,531,531,531,531,531,5