[{"start_time":1552327705028,"click_time":1552327705505,"finger_time":1552327705043,"fix_duration":1000.2519876912037,"trial":0,"RT":15,"MT":462,"sideResp":1,"stimulus":[],"xmouse":[780,780,780,780,780,780,780,780,780,780,780,780,780,780,780,780,778,774,767,740,702,602,540,511],"ymouse":[546,546,546,546,546,546,546,546,546,546,546,546,546,546,546,538,525,510,491,420,349,200,90,35],"timestamp_mouse":[15,36,55,75,94,114,134,155,176,195,215,235,255,274,295,314,335,356,375,394,416,435,456,475],"xSR":741.5,"ySR":469.95,"xT1":424.9,"yT1":0,"xT2":1058.1,"yT2":0,"toosoon":0,"cond_shown":"Congruent","ratio_trial":200,"L_num":3,"L_den":10,"R_num":14,"R_den":28,"correct_side":2,"subjID":"JuanDiegoAguileraPinzon32","gender":"0","age":"9","school":"4","test":{"fix_dur":[250,1500],"timestim":1000,"targets_dim":[100,100],"targets_relative_coord":[0.3,0.7],"size_stim":[880,420],"start_dim":[100,100],"size_start":[300,300],"size_fix":60,"samplingrate":20,"img_types":["Congruent","Incongruent"],"ratios":[100,200,300],"rep_conds":19,"nTrials":120,"trials_to_rest":500,"Trials_order":[104,0,10,2,108,45,15,31,61,78,16,70,111,9,115,53,92,60,37,95,77,6,50,40,102,75,35,99,19,88,113,30,26,87,101,52,103,90,25,114,116,117,65,11,3,42,63,17,38,89,79,39,43,33,57,59,28,109,110,14,80,94,85,46,47,5,74,76,22,105,118,4,56,82,55,8,49,62,97,64,71,1,106,93,20,18,86,107,58,21,7,44,34,27,29,72,24,12,23,91,119,68,69,81,13,32,66,100,67,83,84,98,41,51,73,112,48,96,54,36],"cond_shown":["Congruent","Congruent","Congruent","Congruent","Congruent","Incongruent","Incongruent","Incongruent","Incongruent","Congruent","Congruent","Congruent","Incongruent","Incongruent","Incongruent","Incongruent","Congruent","Congruent","Incongruent","Incongruent","Incongruent","Congruent","Congruent","Congruent","Congruent","Incongruent","Incongruent","Incongruent","Incongruent","Congruent","Incongruent","Congruent","Congruent","Incongruent","Incongruent","Congruent","Incongruent","Congruent","Incongruent","Congruent","Congruent","Incongruent","Incongruent","Incongruent","Incongruent","Congruent","Incongruent","Incongruent","Congruent","Incongruent","Incongruent","Incongruent","Incongruent","Incongruent","Incongruent","Incongruent","Congruent","Incongruent","Congruent","Congruent","Congruent","Congruent","Incongruent","Congruent","Incongruent","Incongruent","Congruent","Congruent","Congruent","Incongruent","Congruent","Congruent","Congruent","Congruent","Incongruent","Congruent","Incongruent","Congruent","Incongruent","Congruent","Incongruent","Incongruent","Congruent","Incongruent","Congruent","Congruent","Congruent","Incongruent","Congruent","Incongruent","Incongruent","Congruent","Congruent","Incongruent","Incongruent","Congruent","Congruent","Congruent","Incongruent","Incongruent","Incongruent","Congruent","Incongruent","Incongruent","Incongruent","Congruent","Congruent","Congruent","Incongruent","Incongruent","Congruent","Congruent","Incongruent","Incongruent","Incongruent","Congruent","Congruent","Congruent","Congruent","Congruent"],"ratio_trial":[200,100,300,200,100,200,200,100,100,100,300,300,200,200,100,300,200,100,100,300,300,100,200,300,100,200,300,200,100,300,300,100,200,200,300,300,100,100,100,100,200,200,300,300,200,100,200,300,200,300,100,200,100,200,200,300,300,100,200,200,200,300,100,300,300,300,200,300,300,200,300,300,200,300,100,200,100,200,100,300,300,100,300,200,200,100,200,300,300,200,100,200,300,200,300,100,100,100,300,100,300,200,200,200,100,200,100,300,100,300,100,200,300,200,100,300,100,100,100,100],"left_num":[3,11,20,12,1,7,7,11,6,6,5,20,1,14,6,8,7,1,9,7,2,2,4,2,11,1,1,4,13,1,3,6,5,7,8,24,9,6,11,1,1,3,8,8,3,11,1,3,14,13,8,7,6,3,1,4,24,13,9,13,15,18,10,3,4,13,7,8,24,11,3,12,3,1,6,5,4,20,8,20,4,13,20,3,5,9,3,8,1,7,3,5,11,3,4,7,12,1,4,3,1,3,7,3,3,4,15,1,10,2,7,3,4,7,6,1,6,10,11,3],"right_num":[14,6,13,6,3,14,6,9,3,15,6,9,3,6,13,9,18,3,20,8,6,6,3,10,6,2,3,1,6,3,4,5,14,8,9,2,6,5,9,18,21,11,9,9,11,4,2,4,6,12,1,6,7,11,2,2,8,12,13,14,4,9,8,11,2,12,18,10,8,3,2,2,14,8,7,14,8,9,1,14,2,12,9,11,14,8,11,9,8,14,8,14,1,11,2,9,13,3,2,11,2,11,6,11,11,3,13,11,8,6,15,9,2,4,7,8,5,3,6,2],"left_den":[10,22,25,15,2,10,15,22,12,12,25,25,2,30,10,10,15,2,10,10,4,5,10,20,22,3,2,30,26,5,6,20,10,10,10,30,18,20,22,2,2,4,10,10,4,22,3,6,28,26,20,15,10,4,3,20,30,26,30,26,25,20,25,12,20,26,15,15,30,20,6,24,6,30,10,10,8,25,20,25,20,26,25,4,10,15,10,10,30,10,5,10,22,4,20,14,30,2,20,5,2,10,15,4,5,10,25,5,25,4,14,12,20,15,10,30,20,25,22,6],"right_den":[28,15,26,10,5,28,9,15,5,25,12,18,10,9,26,18,27,5,25,20,30,12,15,25,15,15,15,3,10,6,20,25,20,16,18,4,10,25,15,30,30,20,18,18,20,10,15,20,20,15,2,9,14,20,15,4,16,20,26,20,10,15,16,20,4,15,27,12,16,4,10,10,20,24,14,20,20,15,2,28,4,20,18,20,20,16,22,18,24,28,16,20,5,20,4,15,26,5,4,22,10,22,9,20,22,15,26,22,16,30,25,20,4,6,14,24,25,10,15,5],"correct_side":[2,1,1,1,2,1,2,2,2,2,2,1,1,2,1,1,2,2,1,1,1,2,1,2,1,1,1,2,2,2,1,1,2,1,1,1,2,1,2,2,2,1,1,1,1,1,1,1,1,2,2,2,1,1,1,2,1,2,2,2,1,1,2,2,2,2,2,2,1,2,1,1,2,2,1,2,1,1,2,1,2,2,1,1,2,1,2,1,2,1,1,2,1,1,2,2,2,2,2,1,1,2,2,1,1,1,1,2,2,1,2,2,2,2,1,2,1,1,1,1],"img_shown":["img2/200/Congruent/R/C_Dist_200_LN_3_LD_10_RN_14_RD_28_1.png","img2/100/Congruent/L/C_Dist_100_LN_11_LD_22_RN_6_RD_15_0.png","img2/300/Congruent/L/C_Dist_300_LN_20_LD_25_RN_13_RD_26_0.png","img2/200/Congruent/L/C_Dist_200_LN_12_LD_15_RN_6_RD_10_0.png","img2/100/Congruent/R/C_Dist_100_LN_1_LD_2_RN_3_RD_5_1.png","img2/200/Incongruent/L/I_Dist_200_LN_7_LD_10_RN_14_RD_28_0.png","img2/200/Incongruent/R/I_Dist_200_LN_7_LD_15_RN_6_RD_9_1.png","img2/100/Incongruent/R/I_Dist_100_LN_11_LD_22_RN_9_RD_15_1.png","img2/100/Incongruent/R/I_Dist_100_LN_6_LD_12_RN_3_RD_5_1.png","img2/100/Congruent/R/C_Dist_100_LN_6_LD_12_RN_15_RD_25_1.png","img2/300/Congruent/R/C_Dist_300_LN_5_LD_25_RN_6_RD_12_1.png","img2/300/Congruent/L/C_Dist_300_LN_20_LD_25_RN_9_RD_18_0.png","img2/200/Incongruent/L/I_Dist_200_LN_1_LD_2_RN_3_RD_10_0.png","img2/200/Incongruent/R/I_Dist_200_LN_14_LD_30_RN_6_RD_9_1.png","img2/100/Incongruent/L/I_Dist_100_LN_6_LD_10_RN_13_RD_26_0.png","img2/300/Incongruent/L/I_Dist_300_LN_8_LD_10_RN_9_RD_18_0.png","img2/200/Congruent/R/C_Dist_200_LN_7_LD_15_RN_18_RD_27_1.png","img2/100/Congruent/R/C_Dist_100_LN_1_LD_2_RN_3_RD_5_1.png","img2/100/Incongruent/L/I_Dist_100_LN_9_LD_10_RN_20_RD_25_0.png","img2/300/Incongruent/L/I_Dist_300_LN_7_LD_10_RN_8_RD_20_0.png","img2/300/Incongruent/L/I_Dist_300_LN_2_LD_4_RN_6_RD_30_0.png","img2/100/Congruent/R/C_Dist_100_LN_2_LD_5_RN_6_RD_12_1.png","img2/200/Congruent/L/C_Dist_200_LN_4_LD_10_RN_3_RD_15_0.png","img2/300/Congruent/R/C_Dist_300_LN_2_LD_20_RN_10_RD_25_1.png","img2/100/Congruent/L/C_Dist_100_LN_11_LD_22_RN_6_RD_15_0.png","img2/200/Incongruent/L/I_Dist_200_LN_1_LD_3_RN_2_RD_15_0.png","img2/300/Incongruent/L/I_Dist_300_LN_1_LD_2_RN_3_RD_15_0.png","img2/200/Incongruent/R/I_Dist_200_LN_4_LD_30_RN_1_RD_3_1.png","img2/100/Incongruent/R/I_Dist_100_LN_13_LD_26_RN_6_RD_10_1.png","img2/300/Congruent/R/C_Dist_300_LN_1_LD_5_RN_3_RD_6_1.png","img2/300/Incongruent/L/I_Dist_300_LN_3_LD_6_RN_4_RD_20_0.png","img2/100/Congruent/L/C_Dist_100_LN_6_LD_20_RN_5_RD_25_0.png","img2/200/Congruent/R/C_Dist_200_LN_5_LD_10_RN_14_RD_20_1.png","img2/200/Incongruent/L/I_Dist_200_LN_7_LD_10_RN_8_RD_16_0.png","img2/300/Incongruent/L/I_Dist_300_LN_8_LD_10_RN_9_RD_18_0.png","img2/300/Congruent/L/C_Dist_300_LN_24_LD_30_RN_2_RD_4_0.png","img2/100/Incongruent/R/I_Dist_100_LN_9_LD_18_RN_6_RD_10_1.png","img2/100/Congruent/L/C_Dist_100_LN_6_LD_20_RN_5_RD_25_0.png","img2/100/Incongruent/R/I_Dist_100_LN_11_LD_22_RN_9_RD_15_1.png","img2/100/Congruent/R/C_Dist_100_LN_1_LD_2_RN_18_RD_30_1.png","img2/200/Congruent/R/C_Dist_200_LN_1_LD_2_RN_21_RD_30_1.png","img2/200/Incongruent/L/I_Dist_200_LN_3_LD_4_RN_11_RD_20_0.png","img2/300/Incongruent/L/I_Dist_300_LN_8_LD_10_RN_9_RD_18_0.png","img2/300/Incongruent/L/I_Dist_300_LN_8_LD_10_RN_9_RD_18_0.png","img2/200/Incongruent/L/I_Dist_200_LN_3_LD_4_RN_11_RD_20_0.png","img2/100/Congruent/L/C_Dist_100_LN_11_LD_22_RN_4_RD_10_0.png","img2/200/Incongruent/L/I_Dist_200_LN_1_LD_3_RN_2_RD_15_0.png","img2/300/Incongruent/L/I_Dist_300_LN_3_LD_6_RN_4_RD_20_0.png","img2/200/Congruent/L/C_Dist_200_LN_14_LD_28_RN_6_RD_20_0.png","img2/300/Incongruent/R/I_Dist_300_LN_13_LD_26_RN_12_RD_15_1.png","img2/100/Incongruent/R/I_Dist_100_LN_8_LD_20_RN_1_RD_2_1.png","img2/200/Incongruent/R/I_Dist_200_LN_7_LD_15_RN_6_RD_9_1.png","img2/100/Incongruent/L/I_Dist_100_LN_6_LD_10_RN_7_RD_14_0.png","img2/200/Incongruent/L/I_Dist_200_LN_3_LD_4_RN_11_RD_20_0.png","img2/200/Incongruent/L/I_Dist_200_LN_1_LD_3_RN_2_RD_15_0.png","img2/300/Incongruent/R/I_Dist_300_LN_4_LD_20_RN_2_RD_4_1.png","img2/300/Congruent/L/C_Dist_300_LN_24_LD_30_RN_8_RD_16_0.png","img2/100/Incongruent/R/I_Dist_100_LN_13_LD_26_RN_12_RD_20_1.png","img2/200/Congruent/R/C_Dist_200_LN_9_LD_30_RN_13_RD_26_1.png","img2/200/Congruent/R/C_Dist_200_LN_13_LD_26_RN_14_RD_20_1.png","img2/200/Congruent/L/C_Dist_200_LN_15_LD_25_RN_4_RD_10_0.png","img2/300/Congruent/L/C_Dist_300_LN_18_LD_20_RN_9_RD_15_0.png","img2/100/Incongruent/R/I_Dist_100_LN_10_LD_25_RN_8_RD_16_1.png","img2/300/Congruent/R/C_Dist_300_LN_3_LD_12_RN_11_RD_20_1.png","img2/300/Incongruent/R/I_Dist_300_LN_4_LD_20_RN_2_RD_4_1.png","img2/300/Incongruent/R/I_Dist_300_LN_13_LD_26_RN_12_RD_15_1.png","img2/200/Congruent/R/C_Dist_200_LN_7_LD_15_RN_18_RD_27_1.png","img2/300/Congruent/R/C_Dist_300_LN_8_LD_15_RN_10_RD_12_1.png","img2/300/Congruent/L/C_Dist_300_LN_24_LD_30_RN_8_RD_16_0.png","img2/200/Incongruent/R/I_Dist_200_LN_11_LD_20_RN_3_RD_4_1.png","img2/300/Congruent/L/C_Dist_300_LN_3_LD_6_RN_2_RD_10_0.png","img2/300/Congruent/L/C_Dist_300_LN_12_LD_24_RN_2_RD_10_0.png","img2/200/Congruent/R/C_Dist_200_LN_3_LD_6_RN_14_RD_20_1.png","img2/300/Congruent/R/C_Dist_300_LN_1_LD_30_RN_8_RD_24_1.png","img2/100/Incongruent/L/I_Dist_100_LN_6_LD_10_RN_7_RD_14_0.png","img2/200/Congruent/R/C_Dist_200_LN_5_LD_10_RN_14_RD_20_1.png","img2/100/Incongruent/L/I_Dist_100_LN_4_LD_8_RN_8_RD_20_0.png","img2/200/Congruent/L/C_Dist_200_LN_20_LD_25_RN_9_RD_15_0.png","img2/100/Incongruent/R/I_Dist_100_LN_8_LD_20_RN_1_RD_2_1.png","img2/300/Congruent/L/C_Dist_300_LN_20_LD_25_RN_14_RD_28_0.png","img2/300/Incongruent/R/I_Dist_300_LN_4_LD_20_RN_2_RD_4_1.png","img2/100/Incongruent/R/I_Dist_100_LN_13_LD_26_RN_12_RD_20_1.png","img2/300/Congruent/L/C_Dist_300_LN_20_LD_25_RN_9_RD_18_0.png","img2/200/Incongruent/L/I_Dist_200_LN_3_LD_4_RN_11_RD_20_0.png","img2/200/Congruent/R/C_Dist_200_LN_5_LD_10_RN_14_RD_20_1.png","img2/100/Congruent/L/C_Dist_100_LN_9_LD_15_RN_8_RD_16_0.png","img2/200/Congruent/R/C_Dist_200_LN_3_LD_10_RN_11_RD_22_1.png","img2/300/Incongruent/L/I_Dist_300_LN_8_LD_10_RN_9_RD_18_0.png","img2/300/Congruent/R/C_Dist_300_LN_1_LD_30_RN_8_RD_24_1.png","img2/200/Incongruent/L/I_Dist_200_LN_7_LD_10_RN_14_RD_28_0.png","img2/100/Incongruent/L/I_Dist_100_LN_3_LD_5_RN_8_RD_16_0.png","img2/200/Congruent/R/C_Dist_200_LN_5_LD_10_RN_14_RD_20_1.png","img2/300/Congruent/L/C_Dist_300_LN_11_LD_22_RN_1_RD_5_0.png","img2/200/Incongruent/L/I_Dist_200_LN_3_LD_4_RN_11_RD_20_0.png","img2/300/Incongruent/R/I_Dist_300_LN_4_LD_20_RN_2_RD_4_1.png","img2/100/Congruent/R/C_Dist_100_LN_7_LD_14_RN_9_RD_15_1.png","img2/100/Congruent/R/C_Dist_100_LN_12_LD_30_RN_13_RD_26_1.png","img2/100/Congruent/R/C_Dist_100_LN_1_LD_2_RN_3_RD_5_1.png","img2/300/Incongruent/R/I_Dist_300_LN_4_LD_20_RN_2_RD_4_1.png","img2/100/Incongruent/L/I_Dist_100_LN_3_LD_5_RN_11_RD_22_0.png","img2/300/Incongruent/L/I_Dist_300_LN_1_LD_2_RN_2_RD_10_0.png","img2/200/Congruent/R/C_Dist_200_LN_3_LD_10_RN_11_RD_22_1.png","img2/200/Incongruent/R/I_Dist_200_LN_7_LD_15_RN_6_RD_9_1.png","img2/200/Incongruent/L/I_Dist_200_LN_3_LD_4_RN_11_RD_20_0.png","img2/100/Incongruent/L/I_Dist_100_LN_3_LD_5_RN_11_RD_22_0.png","img2/200/Congruent/L/C_Dist_200_LN_4_LD_10_RN_3_RD_15_0.png","img2/100/Congruent/L/C_Dist_100_LN_15_LD_25_RN_13_RD_26_0.png","img2/300/Congruent/R/C_Dist_300_LN_1_LD_5_RN_11_RD_22_1.png","img2/100/Incongruent/R/I_Dist_100_LN_10_LD_25_RN_8_RD_16_1.png","img2/300/Incongruent/L/I_Dist_300_LN_2_LD_4_RN_6_RD_30_0.png","img2/100/Congruent/R/C_Dist_100_LN_7_LD_14_RN_15_RD_25_1.png","img2/200/Congruent/R/C_Dist_200_LN_3_LD_12_RN_9_RD_20_1.png","img2/300/Incongruent/R/I_Dist_300_LN_4_LD_20_RN_2_RD_4_1.png","img2/200/Incongruent/R/I_Dist_200_LN_7_LD_15_RN_4_RD_6_1.png","img2/100/Incongruent/L/I_Dist_100_LN_6_LD_10_RN_7_RD_14_0.png","img2/300/Congruent/R/C_Dist_300_LN_1_LD_30_RN_8_RD_24_1.png","img2/100/Congruent/L/C_Dist_100_LN_6_LD_20_RN_5_RD_25_0.png","img2/100/Congruent/L/C_Dist_100_LN_10_LD_25_RN_3_RD_10_0.png","img2/100/Congruent/L/C_Dist_100_LN_11_LD_22_RN_6_RD_15_0.png","img2/100/Congruent/L/C_Dist_100_LN_3_LD_6_RN_2_RD_5_0.png"],"dist100_C":[["C_Dist_100_LN_10_LD_25_RN_3_RD_10_0.png","C_Dist_100_LN_11_LD_22_RN_4_RD_10_0.png","C_Dist_100_LN_11_LD_22_RN_6_RD_15_0.png","C_Dist_100_LN_15_LD_25_RN_13_RD_26_0.png","C_Dist_100_LN_3_LD_6_RN_2_RD_5_0.png","C_Dist_100_LN_6_LD_20_RN_5_RD_25_0.png","C_Dist_100_LN_8_LD_16_RN_2_RD_5_0.png","C_Dist_100_LN_9_LD_15_RN_8_RD_16_0.png"],["C_Dist_100_LN_1_LD_2_RN_18_RD_30_1.png","C_Dist_100_LN_1_LD_2_RN_3_RD_5_1.png","C_Dist_100_LN_12_LD_30_RN_13_RD_26_1.png","C_Dist_100_LN_2_LD_5_RN_11_RD_22_1.png","C_Dist_100_LN_2_LD_5_RN_6_RD_12_1.png","C_Dist_100_LN_3_LD_20_RN_4_RD_16_1.png","C_Dist_100_LN_4_LD_10_RN_15_RD_30_1.png","C_Dist_100_LN_4_LD_8_RN_6_RD_10_1.png","C_Dist_100_LN_6_LD_12_RN_15_RD_25_1.png","C_Dist_100_LN_7_LD_14_RN_15_RD_25_1.png","C_Dist_100_LN_7_LD_14_RN_9_RD_15_1.png"]],"dist100_I":[["I_Dist_100_LN_1_LD_2_RN_8_RD_20_0.png","I_Dist_100_LN_2_LD_4_RN_6_RD_15_0.png","I_Dist_100_LN_2_LD_4_RN_8_RD_20_0.png","I_Dist_100_LN_3_LD_5_RN_11_RD_22_0.png","I_Dist_100_LN_3_LD_5_RN_8_RD_16_0.png","I_Dist_100_LN_3_LD_6_RN_4_RD_10_0.png","I_Dist_100_LN_3_LD_9_RN_7_RD_30_0.png","I_Dist_100_LN_4_LD_8_RN_8_RD_20_0.png","I_Dist_100_LN_6_LD_10_RN_11_RD_22_0.png","I_Dist_100_LN_6_LD_10_RN_13_RD_26_0.png","I_Dist_100_LN_6_LD_10_RN_7_RD_14_0.png","I_Dist_100_LN_9_LD_10_RN_20_RD_25_0.png","I_Dist_100_LN_9_LD_15_RN_13_RD_26_0.png","I_Dist_100_LN_9_LD_15_RN_14_RD_28_0.png"],["I_Dist_100_LN_10_LD_25_RN_8_RD_16_1.png","I_Dist_100_LN_10_LD_25_RN_9_RD_18_1.png","I_Dist_100_LN_11_LD_22_RN_9_RD_15_1.png","I_Dist_100_LN_12_LD_24_RN_9_RD_15_1.png","I_Dist_100_LN_12_LD_30_RN_2_RD_4_1.png","I_Dist_100_LN_13_LD_26_RN_12_RD_20_1.png","I_Dist_100_LN_13_LD_26_RN_6_RD_10_1.png","I_Dist_100_LN_17_LD_30_RN_10_RD_15_1.png","I_Dist_100_LN_6_LD_12_RN_3_RD_5_1.png","I_Dist_100_LN_8_LD_16_RN_6_RD_10_1.png","I_Dist_100_LN_8_LD_20_RN_1_RD_2_1.png","I_Dist_100_LN_9_LD_18_RN_6_RD_10_1.png"]],"dist100_S":[["E_Dist_100_LN_2_LD_12_RN_2_RD_30_0.png","E_Dist_100_LN_6_LD_10_RN_6_RD_12_0.png"],["E_Dist_100_LN_6_LD_12_RN_6_RD_10_1.png"]],"dist200_C":[["C_Dist_200_LN_11_LD_22_RN_3_RD_10_0.png","C_Dist_200_LN_12_LD_15_RN_6_RD_10_0.png","C_Dist_200_LN_12_LD_20_RN_6_RD_15_0.png","C_Dist_200_LN_14_LD_28_RN_6_RD_20_0.png","C_Dist_200_LN_15_LD_25_RN_4_RD_10_0.png","C_Dist_200_LN_16_LD_20_RN_12_RD_20_0.png","C_Dist_200_LN_16_LD_30_RN_9_RD_27_0.png","C_Dist_200_LN_20_LD_25_RN_9_RD_15_0.png","C_Dist_200_LN_21_LD_30_RN_2_RD_4_0.png","C_Dist_200_LN_4_LD_10_RN_3_RD_15_0.png","C_Dist_200_LN_4_LD_8_RN_3_RD_10_0.png","C_Dist_200_LN_6_LD_15_RN_3_RD_15_0.png","C_Dist_200_LN_7_LD_21_RN_2_RD_15_0.png","C_Dist_200_LN_8_LD_15_RN_2_RD_6_0.png","C_Dist_200_LN_8_LD_15_RN_3_RD_9_0.png","C_Dist_200_LN_8_LD_15_RN_7_RD_21_0.png","C_Dist_200_LN_9_LD_20_RN_4_RD_16_0.png"],["C_Dist_200_LN_1_LD_2_RN_21_RD_30_1.png","C_Dist_200_LN_13_LD_26_RN_14_RD_20_1.png","C_Dist_200_LN_3_LD_10_RN_11_RD_22_1.png","C_Dist_200_LN_3_LD_10_RN_14_RD_28_1.png","C_Dist_200_LN_3_LD_10_RN_7_RD_14_1.png","C_Dist_200_LN_3_LD_12_RN_9_RD_20_1.png","C_Dist_200_LN_3_LD_6_RN_14_RD_20_1.png","C_Dist_200_LN_5_LD_10_RN_14_RD_20_1.png","C_Dist_200_LN_6_LD_12_RN_7_RD_10_1.png","C_Dist_200_LN_6_LD_20_RN_11_RD_22_1.png","C_Dist_200_LN_7_LD_15_RN_18_RD_27_1.png","C_Dist_200_LN_9_LD_30_RN_13_RD_26_1.png"]],"dist200_I":[["I_Dist_200_LN_1_LD_2_RN_3_RD_10_0.png","I_Dist_200_LN_1_LD_3_RN_2_RD_15_0.png","I_Dist_200_LN_3_LD_4_RN_11_RD_20_0.png","I_Dist_200_LN_4_LD_5_RN_6_RD_10_0.png","I_Dist_200_LN_4_LD_6_RN_14_RD_30_0.png","I_Dist_200_LN_7_LD_10_RN_12_RD_24_0.png","I_Dist_200_LN_7_LD_10_RN_14_RD_28_0.png","I_Dist_200_LN_7_LD_10_RN_8_RD_16_0.png"],["I_Dist_200_LN_11_LD_20_RN_3_RD_4_1.png","I_Dist_200_LN_14_LD_30_RN_12_RD_18_1.png","I_Dist_200_LN_14_LD_30_RN_6_RD_9_1.png","I_Dist_200_LN_3_LD_10_RN_1_RD_2_1.png","I_Dist_200_LN_4_LD_30_RN_1_RD_3_1.png","I_Dist_200_LN_6_LD_20_RN_3_RD_6_1.png","I_Dist_200_LN_7_LD_15_RN_4_RD_6_1.png","I_Dist_200_LN_7_LD_15_RN_6_RD_9_1.png","I_Dist_200_LN_9_LD_15_RN_8_RD_10_1.png"]],"dist200_S":[["E_Dist_200_LN_3_LD_6_RN_3_RD_10_0.png"],["E_Dist_200_LN_3_LD_10_RN_3_RD_6_1.png"]],"dist300_C":[["C_Dist_300_LN_11_LD_22_RN_1_RD_5_0.png","C_Dist_300_LN_11_LD_22_RN_2_RD_10_0.png","C_Dist_300_LN_11_LD_22_RN_4_RD_20_0.png","C_Dist_300_LN_12_LD_24_RN_2_RD_10_0.png","C_Dist_300_LN_18_LD_20_RN_9_RD_15_0.png","C_Dist_300_LN_20_LD_25_RN_13_RD_26_0.png","C_Dist_300_LN_20_LD_25_RN_14_RD_28_0.png","C_Dist_300_LN_20_LD_25_RN_5_RD_10_0.png","C_Dist_300_LN_20_LD_25_RN_8_RD_16_0.png","C_Dist_300_LN_20_LD_25_RN_9_RD_18_0.png","C_Dist_300_LN_24_LD_30_RN_2_RD_4_0.png","C_Dist_300_LN_24_LD_30_RN_8_RD_16_0.png","C_Dist_300_LN_3_LD_6_RN_2_RD_10_0.png","C_Dist_300_LN_4_LD_10_RN_1_RD_10_0.png","C_Dist_300_LN_4_LD_5_RN_2_RD_4_0.png","C_Dist_300_LN_8_LD_16_RN_1_RD_5_0.png","C_Dist_300_LN_9_LD_10_RN_3_RD_5_0.png"],["C_Dist_300_LN_1_LD_20_RN_7_RD_20_1.png","C_Dist_300_LN_1_LD_3_RN_19_RD_30_1.png","C_Dist_300_LN_1_LD_30_RN_8_RD_24_1.png","C_Dist_300_LN_1_LD_5_RN_11_RD_22_1.png","C_Dist_300_LN_1_LD_5_RN_3_RD_6_1.png","C_Dist_300_LN_1_LD_5_RN_6_RD_12_1.png","C_Dist_300_LN_2_LD_10_RN_12_RD_24_1.png","C_Dist_300_LN_2_LD_20_RN_10_RD_25_1.png","C_Dist_300_LN_3_LD_12_RN_11_RD_20_1.png","C_Dist_300_LN_3_LD_6_RN_4_RD_5_1.png","C_Dist_300_LN_4_LD_20_RN_13_RD_26_1.png","C_Dist_300_LN_5_LD_25_RN_6_RD_12_1.png","C_Dist_300_LN_5_LD_25_RN_7_RD_14_1.png","C_Dist_300_LN_7_LD_14_RN_20_RD_25_1.png","C_Dist_300_LN_8_LD_15_RN_10_RD_12_1.png"]],"dist300_I":[["I_Dist_300_LN_1_LD_2_RN_2_RD_10_0.png","I_Dist_300_LN_1_LD_2_RN_3_RD_15_0.png","I_Dist_300_LN_2_LD_4_RN_6_RD_30_0.png","I_Dist_300_LN_3_LD_6_RN_4_RD_20_0.png","I_Dist_300_LN_4_LD_5_RN_6_RD_12_0.png","I_Dist_300_LN_4_LD_5_RN_8_RD_16_0.png","I_Dist_300_LN_7_LD_10_RN_8_RD_20_0.png","I_Dist_300_LN_8_LD_10_RN_14_RD_28_0.png","I_Dist_300_LN_8_LD_10_RN_9_RD_18_0.png"],["I_Dist_300_LN_13_LD_26_RN_12_RD_15_1.png","I_Dist_300_LN_4_LD_20_RN_2_RD_4_1.png"]],"dist300_S":[["E_Dist_300_LN_9_LD_12_RN_9_RD_20_0.png"],["E_Dist_300_LN_18_LD_30_RN_18_RD_20_1.png","E_Dist_300_LN_3_LD_10_RN_3_RD_5_1.png","E_Dist_300_LN_9_LD_20_RN_9_RD_12_1.png"]],"dist500_C":[["C_Dist_500_LN_10_LD_13_RN_7_RD_26_0.png","C_Dist_500_LN_10_LD_15_RN_4_RD_24_0.png","C_Dist_500_LN_12_LD_16_RN_3_RD_12_0.png","C_Dist_500_LN_12_LD_18_RN_4_RD_24_0.png","C_Dist_500_LN_15_LD_18_RN_5_RD_15_0.png","C_Dist_500_LN_15_LD_20_RN_1_RD_4_0.png","C_Dist_500_LN_18_LD_27_RN_1_RD_6_0.png","C_Dist_500_LN_20_LD_24_RN_1_RD_3_0.png","C_Dist_500_LN_20_LD_24_RN_3_RD_9_0.png","C_Dist_500_LN_20_LD_24_RN_7_RD_21_0.png","C_Dist_500_LN_20_LD_28_RN_3_RD_14_0.png","C_Dist_500_LN_21_LD_28_RN_6_RD_24_0.png","C_Dist_500_LN_22_LD_28_RN_2_RD_7_0.png","C_Dist_500_LN_25_LD_30_RN_9_RD_27_0.png","C_Dist_500_LN_4_LD_6_RN_1_RD_6_0.png","C_Dist_500_LN_5_LD_6_RN_2_RD_6_0.png","C_Dist_500_LN_6_LD_9_RN_1_RD_6_0.png","C_Dist_500_LN_7_LD_10_RN_1_RD_5_0.png","C_Dist_500_LN_8_LD_12_RN_1_RD_6_0.png","C_Dist_500_LN_8_LD_12_RN_4_RD_24_0.png"],["C_Dist_500_LN_1_LD_4_RN_12_RD_16_1.png","C_Dist_500_LN_1_LD_4_RN_9_RD_12_1.png","C_Dist_500_LN_1_LD_9_RN_11_RD_18_1.png","C_Dist_500_LN_10_LD_24_RN_22_RD_24_1.png","C_Dist_500_LN_2_LD_12_RN_10_RD_15_1.png","C_Dist_500_LN_2_LD_12_RN_12_RD_18_1.png","C_Dist_500_LN_2_LD_12_RN_4_RD_6_1.png","C_Dist_500_LN_2_LD_24_RN_7_RD_12_1.png","C_Dist_500_LN_2_LD_5_RN_18_RD_20_1.png","C_Dist_500_LN_2_LD_5_RN_9_RD_10_1.png","C_Dist_500_LN_2_LD_8_RN_12_RD_16_1.png","C_Dist_500_LN_2_LD_8_RN_21_RD_28_1.png","C_Dist_500_LN_3_LD_10_RN_4_RD_5_1.png","C_Dist_500_LN_3_LD_12_RN_15_RD_20_1.png","C_Dist_500_LN_3_LD_30_RN_6_RD_10_1.png","C_Dist_500_LN_3_LD_8_RN_14_RD_16_1.png","C_Dist_500_LN_4_LD_16_RN_15_RD_20_1.png","C_Dist_500_LN_4_LD_24_RN_12_RD_18_1.png","C_Dist_500_LN_5_LD_14_RN_6_RD_7_1.png","C_Dist_500_LN_7_LD_21_RN_20_RD_24_1.png","C_Dist_500_LN_7_LD_28_RN_12_RD_16_1.png","C_Dist_500_LN_7_LD_28_RN_9_RD_12_1.png","C_Dist_500_LN_9_LD_27_RN_20_RD_24_1.png"]],"dist500_I":[["I_Dist_500_LN_2_LD_3_RN_4_RD_24_0.png","I_Dist_500_LN_5_LD_6_RN_6_RD_18_0.png","I_Dist_500_LN_7_LD_8_RN_9_RD_24_0.png"],["I_Dist_500_LN_7_LD_21_RN_5_RD_6_1.png"]],"dist500_S":[["E_Dist_500_LN_6_LD_8_RN_6_RD_24_0.png"],["E_Dist_500_LN_2_LD_12_RN_2_RD_3_1.png","E_Dist_500_LN_6_LD_24_RN_6_RD_8_1.png"]]}},{"start_time":1552327714807,"click_time":1552327715544,"finger_time":1552327715223,"fix_duration":1142.4140543595865,"trial":1,"RT":416,"MT":321,"sideResp":2,"stimulus":[],"xmouse":[806,806,806,806,806,806,806,806,806,806,806,806,806,805,805,805,805,805,805,805,808,822,837,865,899,940,979,1048,1070,1088,1102,1108,1108,1108,1108,1107,1106],"ymouse":[635,635,635,635,635,635,635,635,635,635,635,635,635,635,634,630,616,602,591,580,566,529,493,428,345,253,161,0,0,0,0,0,0,0,0,0,2],"timestamp_mouse":[15,35,57,76,95,115,136,157,175,196,217,237,256,277,296,316,335,356,376,397,416,435,455,475,496,516,535,556,576,596,615,636,656,677,696,717,736],"xSR":741.5,"ySR":573.95,"xT1":424.9,"yT1":0,"xT2":1058.1,"yT2":0,"toosoon":0,"cond_shown":"Congruent","ratio_trial":100,"L_num":11,"L_den":22,"R_num":6,"R_den":15,"correct_side":1,"subjID":"JuanDiegoAguileraPinzon32","gender":"0","school":"4","age":"9"},{"start_time":1552327718317,"click_time":1552327719143,"finger_time":1552327718722,"fix_duration":1252.9734136115974,"trial":2,"RT":405,"MT":421,"sideResp":1,"stimulus":[],"xmouse":[798,798,798,799,800,800,800,800,800,800,800,800,800,800,800,801,801,801,801,801,800,792,775,765,748,734,702,685,664,643,620,611,598,594,589,580,555,542,525,512,502,497],"ymouse":[588,588,588,587,585,585,585,585,584,584,584,584,584,584,584,584,584,583,577,574,563,533,480,447,409,377,325,306,290,279,267,262,253,249,243,229,195,176,160,140,121,98],"timestamp_mouse":[16,25,45,65,86,106,126,146,166,187,206,225,246,265,285,306,326,345,366,386,405,425,445,466,486,507,526,545,565,585,605,625,646,666,685,705,726,745,766,787,806,826],"xSR":741.5,"ySR":573.95,"xT1":424.9,"yT1":0,"xT2":1058.1,"yT2":0,"toosoon":0,"cond_shown":"Congruent","ratio_trial":300,"L_num":20,"L_den":25,"R_num":13,"R_den":26,"correct_side":1,"subjID":"JuanDiegoAguileraPinzon32","gender":"0","school":"4","age":"9"},{"start_time":1552327724145,"click_time":1552327725023,"finger_time":1552327724503,"fix_duration":1480.6486775440148,"trial":3,"RT":358,"MT":520,"sideResp":1,"stimulus":[],"xmouse":[817,817,817,817,817,817,817,817,817,817,817,817,817,817,818,818,817,814,806,778,694,652,614,581,549,501,494,490,485,481,461,454,454,453,453,452,452,452,452,452,452,452,452,452],"ymouse":[612,612,612,612,612,612,612,612,612,612,612,612,612,612,611,609,593,572,517,437,228,134,48,0,0,0,0,0,0,0,0,0,0,0,0,0,0,0,0,0,0,0,0,1],"timestamp_mouse":[18,41,58,78,98,118,139,158,177,198,218,239,259,279,298,317,337,358,377,397,417,437,458,477,497,518,537,559,577,599,618,637,658,678,699,718,739,757,778,798,818,839,858,878],"xSR":741.5,"ySR":573.95,"xT1":424.9,"yT1":0,"xT2":1058.1,"yT2":0,"toosoon":0,"cond_shown":"Congruent","ratio_trial":200,"L_num":12,"L_den":15,"R_num":6,"R_den":10,"correct_side":1,"subjID":"JuanDiegoAguileraPinzon32","gender":"0","school":"4","age":"9"},{"start_time":1552327726990,"click_time":1552327727603,"finger_time":1552327727382,"fix_duration":506.28341087786356,"trial":4,"RT":392,"MT":221,"sideResp":1,"stimulus":[],"xmouse":[769,769,769,769,769,769,769,769,769,769,769,769,769,769,769,769,769,769,767,755,722,677,613,578,572,571,571,571,558,539,522],"ymouse":[627,627,627,627,627,627,627,627,627,627,627,627,627,627,627,627,627,624,594,552,484,406,292,221,209,204,202,196,160,121,78],"timestamp_mouse":[14,37,54,73,93,113,133,153,173,192,213,233,253,273,292,314,332,354,373,392,413,433,453,473,492,513,532,554,573,593,613],"xSR":741.5,"ySR":573.95,"xT1":424.9,"yT1":0,"xT2":1058.1,"yT2":0,"toosoon":0,"cond_shown":"Congruent","ratio_trial":100,"L_num":1,"L_den":2,"R_num":3,"R_den":5,"correct_side":2,"subjID":"JuanDiegoAguileraPinzon32","gender":"0","school":"4","age":"9"},{"start_time":1552327729600,"click_time":1552327730163,"finger_time":1552327729863,"fix_duration":315.36745212245074,"trial":5,"RT":263,"MT":300,"sideResp":2,"stimulus":[],"xmouse":[767,767,767,767,767,767,767,768,769,769,769,770,775,789,852,896,921,940,973,1015,1081,1088,1088,1088,1088,1088,1088,1088,1088],"ymouse":[626,626,626,626,626,625,624,623,622,622,622,617,603,562,366,241,118,14,0,0,0,0,0,0,0,0,0,0,2],"timestamp_mouse":[13,33,42,62,82,103,123,144,163,183,202,224,243,262,282,302,323,343,365,382,402,423,442,462,483,502,524,544,563],"xSR":741.5,"ySR":573.95,"xT1":424.9,"yT1":0,"xT2":1058.1,"yT2":0,"toosoon":0,"cond_shown":"Incongruent","ratio_trial":200,"L_num":7,"L_den":10,"R_num":14,"R_den":28,"correct_side":1,"subjID":"JuanDiegoAguileraPinzon32","gender":"0","school":"4","age":"9"},{"start_time":1552327742542,"click_time":1552327743484,"finger_time":1552327742703,"fix_duration":1158.5720195882443,"trial":6,"RT":161,"MT":781,"sideResp":1,"stimulus":[],"xmouse":[797,797,797,797,797,797,798,798,798,798,798,792,779,728,697,675,657,646,613,590,584,582,581,580,576,575,574,574,565,557,547,538,534,532,531,531,531,531,531,531,531,532,532,533,532,531,525,523],"ymouse":[606,606,606,606,606,604,602,596,568,549,521,479,420,275,205,151,111,79,6,0,0,0,0,0,0,0,0,0,5,18,37,54,59,61,61,61,61,61,61,61,61,61,60,55,54,54,53,53],"timestamp_mouse":[12,21,40,60,81,101,121,142,161,180,202,221,241,261,281,301,322,341,361,381,402,421,441,461,482,501,521,542,561,580,601,621,642,661,681,701,721,741,762,782,801,821,842,862,881,902,921,942],"xSR":741.5,"ySR":573.95,"xT1":424.9,"yT1":0,"xT2":1058.1,"yT2":0,"toosoon":0,"cond_shown":"Incongruent","ratio_trial":200,"L_num":7,"L_den":15,"R_num":6,"R_den":9,"correct_side":2,"subjID":"JuanDiegoAguileraPinzon32","gender":"0","school":"4","age":"9"},{"start_time":1552327747374,"click_time":1552327748403,"finger_time":1552327747722,"fix_duration":250,"trial":7,"RT":348,"MT":681,"sideResp":1,"stimulus":[],"xmouse":[773,764,764,747,745,745,745,745,749,753,758,762,774,777,786,793,801,817,825,833,836,836,796,756,706,624,586,513,492,471,449,423,403,403,402,401,396,387,384,386,393,403,409,409,414,424,436,451,457,464,469,471],"ymouse":[601,614,614,643,648,648,648,648,646,642,638,635,625,623,617,611,604,570,540,501,461,412,268,184,103,10,0,0,0,0,0,0,0,0,0,0,2,25,44,67,83,102,109,109,109,109,109,109,106,103,100,97],"timestamp_mouse":[15,47,49,70,90,110,130,149,170,189,210,229,249,270,289,309,329,348,370,389,408,430,449,471,489,509,530,551,569,590,610,629,649,669,689,709,729,749,769,789,808,830,850,868,890,909,929,949,969,989,1010,1029],"xSR":741.5,"ySR":573.95,"xT1":424.9,"yT1":0,"xT2":1058.1,"yT2":0,"toosoon":0,"cond_shown":"Incongruent","ratio_trial":100,"L_num":11,"L_den":22,"R_num":9,"R_den":15,"correct_side":2,"subjID":"JuanDiegoAguileraPinzon32","gender":"0","school":"4","age":"9"},{"start_time":1552327755175,"click_time":1552327757723,"finger_time":1552327757023,"fix_duration":968.520691832917,"trial":8,"RT":1848,"MT":700,"sideResp":1,"stimulus":[],"xmouse":[777,777,777,777,777,777,777,777,777,777,777,777,777,776,776,776,776,776,776,776,776,776,776,776,776,776,777,777,779,780,781,782,783,783,783,783,783,783,783,783,783,783,783,783,783,783,783,783,783,783,783,784,788,793,797,800,803,804,804,804,804,804,804,804,804,804,804,804,805,806,807,809,811,815,815,815,815,815,815,815,815,815,817,818,818,819,819,819,820,820,819,813,803,785,778,776,774,773,750,726,693,680,674,669,667,666,665,661,653,650,648,645,643,629,615,596,571,553,534,533,533,532,530,527,527,527,526,523],"ymouse":[614,615,615,615,615,615,615,615,615,615,615,615,616,618,618,618,618,618,618,618,618,618,618,618,618,618,617,616,615,613,613,613,612,612,612,612,612,612,612,612,611,611,611,611,611,611,611,611,611,611,611,611,611,608,604,600,596,595,595,595,595,595,596,597,597,597,597,597,597,598,598,598,598,598,598,598,598,598,598,598,598,598,598,598,598,598,597,597,593,591,583,575,565,552,546,538,519,493,396,344,288,267,253,235,224,208,196,184,176,176,176,176,175,171,167,158,142,126,109,109,109,109,109,103,97,86,74,63],"timestamp_mouse":[9,37,48,67,89,108,129,148,168,189,209,228,248,267,288,309,328,349,367,388,408,427,448,469,488,509,529,548,567,588,608,628,649,669,689,709,728,748,768,788,808,828,848,868,889,908,927,949,968,988,1008,1029,1049,1068,1088,1108,1127,1148,1169,1189,1208,1228,1249,1267,1288,1309,1329,1348,1368,1389,1408,1429,1448,1468,1489,1508,1528,1548,1568,1588,1609,1628,1648,1669,1689,1708,1728,1748,1768,1789,1808,1828,1848,1869,1887,1909,1928,1948,1968,1988,2008,2028,2049,2069,2088,2107,2128,2147,2169,2188,2208,2228,2249,2268,2287,2308,2328,2348,2369,2388,2408,2428,2448,2469,2488,2508,2528,2547],"xSR":741.5,"ySR":573.95,"xT1":424.9,"yT1":0,"xT2":1058.1,"yT2":0,"toosoon":0,"cond_shown":"Incongruent","ratio_trial":100,"L_num":6,"L_den":12,"R_num":3,"R_den":5,"correct_side":2,"subjID":"JuanDiegoAguileraPinzon32","gender":"0","school":"4","age":"9"},{"start_time":1552327760766,"click_time":1552327761563,"finger_time":1552327761063,"fix_duration":1182.2380921797278,"trial":9,"RT":297,"MT":500,"sideResp":1,"stimulus":[],"xmouse":[782,782,781,780,779,778,778,777,777,777,777,777,776,777,781,783,783,782,750,727,696,655,617,580,573,572,571,571,571,571,571,571,570,567,565,561,559,557,537,519],"ymouse":[594,594,594,594,594,595,595,595,595,595,595,595,594,590,559,538,510,474,308,237,174,130,111,108,112,113,115,115,115,115,115,115,115,115,115,113,110,109,102,93],"timestamp_mouse":[33,37,57,76,98,117,138,158,177,198,217,237,257,277,297,318,338,357,377,396,417,437,457,476,498,517,537,557,577,597,616,637,657,677,697,718,738,757,777,797],"xSR":741.5,"ySR":573.95,"xT1":424.9,"yT1":0,"xT2":1058.1,"yT2":0,"toosoon":0,"cond_shown":"Congruent","ratio_trial":100,"L_num":6,"L_den":12,"R_num":15,"R_den":25,"correct_side":2,"subjID":"JuanDiegoAguileraPinzon32","gender":"0","school":"4","age":"9"},{"start_time":1552327774784,"click_time":1552327775543,"finger_time":1552327775243,"fix_duration":1160.5142442512906,"trial":10,"RT":459,"MT":300,"sideResp":2,"stimulus":[],"xmouse":[781,781,781,781,781,781,781,781,781,781,781,781,781,781,781,781,782,782,784,793,810,826,854,894,979,1015,1037,1053,1064,1078,1084,1089,1096,1104,1119,1120,1122,1122],"ymouse":[639,639,639,639,639,639,639,639,639,639,639,639,639,639,639,640,641,641,641,641,627,610,577,529,413,356,310,267,229,200,190,177,164,152,131,122,109,92],"timestamp_mouse":[19,40,59,80,99,119,139,160,179,199,218,240,260,280,299,320,339,360,380,399,420,440,459,480,500,520,539,559,579,599,620,638,659,681,699,718,739,759],"xSR":741.5,"ySR":573.95,"xT1":424.9,"yT1":0,"xT2":1058.1,"yT2":0,"toosoon":0,"cond_shown":"Congruent","ratio_trial":300,"L_num":5,"L_den":25,"R_num":6,"R_den":12,"correct_side":2,"subjID":"JuanDiegoAguileraPinzon32","gender":"0","school":"4","age":"9"},{"start_time":1552327777429,"click_time":1552327778103,"finger_time":1552327777722,"fix_duration":665.0318396264497,"trial":11,"RT":293,"MT":381,"sideResp":2,"stimulus":[],"xmouse":[812,812,812,812,812,812,812,812,812,812,812,814,818,823,830,842,859,923,950,968,979,983,984,984,984,984,984,984,985,990,1000,1015,1045,1064],"ymouse":[645,645,645,645,645,645,645,645,645,643,639,630,605,587,563,523,456,269,207,166,138,123,121,121,121,121,121,121,121,121,121,120,104,91],"timestamp_mouse":[21,47,54,74,94,114,134,154,174,194,214,233,254,274,293,314,334,354,374,394,413,435,453,474,495,514,535,554,574,594,614,634,654,674],"xSR":741.5,"ySR":573.95,"xT1":424.9,"yT1":0,"xT2":1058.1,"yT2":0,"toosoon":0,"cond_shown":"Congruent","ratio_trial":300,"L_num":20,"L_den":25,"R_num":9,"R_den":18,"correct_side":1,"subjID":"JuanDiegoAguileraPinzon32","gender":"0","school":"4","age":"9"},{"start_time":1552327789963,"click_time":1552327790923,"finger_time":1552327790304,"fix_duration":757.9543701065328,"trial":12,"RT":341,"MT":619,"sideResp":2,"stimulus":[],"xmouse":[797,797,797,797,797,797,797,797,797,797,797,797,797,797,797,797,797,791,773,758,753,752,752,750,750,750,750,800,889,987,1072,1134,1189,1286,1308,1315,1315,1315,1315,1315,1315,1313,1243,1174,1168,1168,1168,1159,1154],"ymouse":[582,582,582,582,582,582,582,582,582,582,582,582,582,582,582,581,579,547,523,501,493,492,488,481,479,479,479,480,492,492,460,378,249,0,0,0,0,0,0,0,0,0,0,0,0,0,0,9,20],"timestamp_mouse":[11,21,40,61,80,100,120,141,159,180,200,221,241,259,280,300,320,341,359,380,400,421,440,460,480,500,520,541,560,581,600,620,641,659,680,700,720,742,760,780,800,821,841,860,880,901,921,941,960],"xSR":741.5,"ySR":573.95,"xT1":424.9,"yT1":0,"xT2":1058.1,"yT2":0,"toosoon":0,"cond_shown":"Incongruent","ratio_trial":200,"L_num":1,"L_den":2,"R_num":3,"R_den":10,"correct_side":1,"subjID":"JuanDiegoAguileraPinzon32","gender":"0","school":"4","age":"9"},{"start_time":1552327799626,"click_time":1552327804864,"finger_time":1552327804044,"fix_duration":901.1303236918016,"trial":13,"RT":4418,"MT":820,"sideResp":1,"stimulus":[],"xmouse":[800,800,800,800,800,800,800,800,800,800,800,800,800,800,800,800,800,800,800,800,800,800,800,800,800,800,800,800,800,800,800,800,800,800,800,800,800,800,800,800,800,800,800,800,800,800,800,800,800,800,800,800,800,800,800,800,800,800,800,800,800,800,800,800,799,794,794,794,794,794,794,794,794,794,794,794,794,794,794,794,794,794,794,794,794,794,794,794,794,794,794,794,794,794,794,794,794,793,791,790,789,789,789,789,789,789,789,789,789,789,789,789,789,789,789,789,789,789,789,789,789,789,789,789,789,789,789,789,789,789,789,789,789,789,789,789,789,789,789,789,789,789,789,789,789,789,789,789,789,789,789,789,789,789,789,789,789,789,789,789,789,789,789,789,789,789,789,789,789,789,789,789,789,789,789,789,789,789,789,789,789,789,789,789,789,789,789,789,789,789,789,789,789,789,789,789,789,789,789,789,789,789,789,789,789,789,789,789,789,789,789,788,788,788,788,788,788,786,782,778,764,750,729,694,648,496,451,418,394,352,301,299,299,302,322,372,389,396,403,413,424,424,424,424,424,424,424,424,424,424,424,424,424,424,424,424,424,424,424,424,424,426],"ymouse":[644,644,644,644,644,644,644,644,644,644,644,644,644,644,644,644,644,642,639,638,637,637,637,637,637,637,637,637,637,637,637,637,637,637,637,637,637,637,637,637,637,637,637,637,637,637,637,637,637,637,637,637,637,637,637,637,637,637,637,637,637,637,637,637,637,637,637,637,637,637,637,637,637,637,637,637,637,637,637,637,637,637,637,637,637,637,637,637,637,637,637,637,637,637,637,637,637,637,637,637,637,637,637,637,637,637,637,637,637,636,636,636,636,636,636,636,636,636,636,636,636,636,636,636,636,636,636,636,636,636,636,636,636,636,636,636,636,636,636,636,636,636,636,636,636,636,636,636,636,636,636,636,636,636,636,636,636,636,636,636,636,636,636,636,636,636,636,636,636,636,636,636,636,636,636,636,636,636,636,636,636,636,636,636,636,636,636,634,634,634,634,633,633,632,632,631,631,630,630,630,630,630,630,630,630,630,630,630,630,630,630,630,630,630,630,630,630,625,616,603,568,533,485,421,353,235,204,180,164,133,99,94,84,74,58,49,48,48,49,56,62,62,62,62,62,62,62,62,62,62,62,62,62,62,62,62,62,62,62,62,62,62],"timestamp_mouse":[17,38,58,77,98,117,137,158,177,197,216,237,257,278,298,317,338,357,378,397,417,437,458,477,497,517,538,558,577,598,618,638,658,677,697,717,737,758,777,798,817,837,856,877,897,917,937,957,978,997,1017,1037,1057,1078,1097,1117,1137,1158,1177,1197,1217,1238,1257,1278,1296,1317,1337,1357,1377,1398,1416,1438,1457,1476,1498,1517,1538,1558,1577,1598,1617,1637,1657,1678,1697,1718,1737,1758,1777,1798,1816,1837,1858,1878,1898,1918,1938,1957,1977,1997,2016,2038,2056,2077,2098,2117,2137,2158,2177,2197,2218,2238,2258,2277,2298,2318,2336,2357,2378,2398,2416,2437,2458,2478,2497,2516,2538,2558,2577,2597,2618,2636,2657,2677,2698,2716,2737,2757,2778,2796,2817,2838,2858,2876,2897,2918,2939,2957,2977,2997,3017,3037,3059,3077,3098,3117,3139,3158,3178,3197,3217,3239,3258,3278,3299,3317,3337,3358,3377,3397,3419,3438,3457,3477,3498,3518,3538,3557,3577,3598,3618,3637,3658,3678,3697,3717,3737,3759,3777,3798,3817,3839,3858,3877,3898,3918,3937,3957,3978,3998,4017,4038,4057,4078,4097,4117,4139,4158,4177,4197,4219,4238,4257,4278,4298,4317,4339,4358,4378,4398,4418,4439,4457,4477,4498,4517,4538,4558,4578,4598,4617,4637,4659,4677,4697,4717,4737,4757,4778,4798,4817,4838,4858,4877,4898,4917,4938,4957,4977,4998,5018,5037,5063,5077,5097,5117,5137,5157,5177,5199,5218,5238],"xSR":741.5,"ySR":573.95,"xT1":424.9,"yT1":0,"xT2":1058.1,"yT2":0,"toosoon":0,"cond_shown":"Incongruent","ratio_trial":200,"L_num":14,"L_den":30,"R_num":6,"R_den":9,"correct_side":2,"subjID":"JuanDiegoAguileraPinzon32","gender":"0","school":"4","age":"9"},{"start_time":1552327806536,"click_time":1552327810403,"finger_time":1552327808923,"fix_duration":250,"trial":14,"RT":2387,"MT":1480,"sideResp":1,"stimulus":[],"xmouse":[776,776,776,776,776,776,776,776,776,776,776,776,776,776,776,776,776,776,776,776,776,776,776,776,776,777,777,777,777,777,777,777,777,777,777,777,777,777,777,777,777,777,777,777,777,777,777,777,777,777,777,777,777,777,777,777,777,777,777,777,777,777,777,777,777,777,777,777,777,777,777,777,777,777,777,777,777,777,777,777,776,776,774,773,772,771,771,771,771,771,771,771,771,771,771,771,771,771,771,771,771,771,770,770,770,770,770,770,770,770,770,770,770,770,771,771,771,771,770,764,755,743,740,737,737,737,733,713,687,657,642,641,641,641,641,633,588,574,572,571,570,566,564,561,555,548,539,539,538,536,532,527,525,525,525,525,525,524,523,522,521,520,520,520,520,520,520,520,517,510,501,493,493,493,491,491,490,485,481,480,479,477,475,473,472,472,472,471,471,471,471,471,471,471],"ymouse":[596,596,596,596,597,598,599,599,599,599,599,599,599,599,600,600,601,602,602,602,603,603,603,603,603,604,604,604,604,604,604,604,604,604,604,604,604,604,604,604,604,604,605,605,605,605,605,606,606,607,607,607,607,607,607,607,607,607,607,607,607,607,607,607,607,607,607,607,607,607,607,607,607,607,607,607,607,607,607,607,607,607,609,611,611,613,613,613,613,613,613,613,613,613,613,613,613,613,613,613,613,613,614,614,614,614,614,614,614,614,614,614,614,614,612,611,604,599,588,572,556,531,523,516,510,503,480,449,416,379,366,365,364,360,351,331,266,240,232,226,221,212,211,206,200,196,191,191,190,188,182,169,164,164,164,164,161,156,152,148,146,144,144,144,143,143,141,140,135,128,123,120,120,120,120,120,120,118,116,115,115,115,115,115,114,114,114,111,108,104,102,101,100,99],"timestamp_mouse":[10,32,47,69,89,107,128,149,167,188,209,229,248,268,287,309,328,348,368,387,407,427,448,468,489,508,528,548,567,587,609,629,648,669,689,707,727,747,768,788,807,827,847,868,887,909,929,947,967,987,1008,1028,1048,1068,1089,1107,1129,1147,1168,1188,1208,1229,1249,1269,1288,1308,1328,1348,1368,1387,1409,1428,1448,1468,1487,1507,1527,1547,1568,1589,1607,1629,1647,1668,1687,1708,1728,1747,1768,1788,1807,1827,1849,1868,1887,1907,1927,1947,1967,1989,2008,2027,2048,2069,2089,2107,2127,2147,2167,2188,2207,2227,2248,2268,2288,2308,2327,2347,2368,2387,2408,2427,2447,2468,2489,2507,2527,2548,2568,2587,2608,2628,2647,2667,2688,2708,2728,2748,2767,2788,2807,2828,2848,2869,2888,2907,2927,2947,2968,2988,3008,3027,3048,3067,3088,3107,3127,3147,3167,3188,3207,3227,3248,3268,3288,3309,3329,3349,3367,3387,3407,3427,3447,3468,3488,3507,3528,3548,3567,3588,3609,3628,3648,3667,3688,3708,3728,3748,3768,3788,3808,3829,3848,3867],"xSR":741.5,"ySR":573.95,"xT1":424.9,"yT1":0,"xT2":1058.1,"yT2":0,"toosoon":0,"cond_shown":"Incongruent","ratio_trial":100,"L_num":6,"L_den":10,"R_num":13,"R_den":26,"correct_side":1,"subjID":"JuanDiegoAguileraPinzon32","gender":"0","school":"4","age":"9"},{"start_time":1552327811815,"click_time":1552327816223,"finger_time":1552327813623,"fix_duration":250,"trial":15,"RT":1808,"MT":2600,"sideResp":1,"stimulus":[],"xmouse":[777,777,777,777,778,779,779,779,779,779,779,779,779,779,779,779,779,780,780,780,781,781,781,781,781,781,781,782,783,784,786,790,802,802,802,802,802,802,802,802,802,802,802,802,802,802,802,802,802,802,802,802,802,802,802,802,802,802,802,802,802,802,802,802,802,802,802,802,802,802,802,802,802,802,802,802,802,802,802,802,802,802,802,802,802,802,802,802,802,802,800,793,793,796,800,806,812,816,817,817,817,817,817,817,817,817,817,817,816,816,816,814,811,809,809,809,809,809,809,809,809,809,809,809,809,809,809,809,809,809,809,810,812,814,821,830,837,845,848,850,852,850,831,826,822,818,816,812,809,804,794,788,782,779,775,768,758,736,732,730,727,720,711,659,589,489,371,252,250,250,250,250,250,250,255,259,268,283,289,294,297,304,313,316,318,322,329,338,340,347,353,363,378,381,383,385,387,390,390,390,391,396,402,408,413,417,420,422,422,422,422,422,422,422,422,422,422,422,422,423,430],"ymouse":[617,617,617,616,616,615,615,615,615,615,615,615,615,615,615,615,615,615,615,614,613,612,611,611,611,611,611,610,609,606,604,599,588,587,587,587,587,587,587,587,587,587,588,589,589,589,589,590,590,590,590,592,592,592,593,593,593,593,593,593,593,593,593,593,593,593,593,593,593,593,593,593,593,593,593,593,593,593,593,593,593,593,592,592,591,591,591,589,582,574,560,534,513,504,493,483,474,463,460,459,459,459,458,458,458,458,458,458,458,458,459,460,460,461,461,461,461,461,461,461,461,461,461,461,461,461,461,461,461,461,461,461,458,454,444,436,429,418,411,403,394,379,353,346,341,334,328,315,305,293,272,257,248,242,239,234,227,212,208,206,204,199,195,183,164,122,77,27,26,26,26,26,26,26,26,26,26,26,26,26,26,26,26,26,26,26,26,26,26,26,26,28,32,32,32,32,32,32,32,32,32,32,32,32,32,32,32,32,32,32,32,32,32,32,32,32,32,32,32,34,38],"timestamp_mouse":[12,37,48,78,88,111,129,148,169,188,210,229,248,270,289,309,328,348,368,389,409,429,449,468,488,508,529,548,570,588,609,629,648,669,689,708,730,749,768,789,810,829,848,868,889,910,928,948,968,989,1009,1029,1048,1070,1089,1108,1128,1148,1170,1189,1209,1229,1249,1269,1289,1309,1328,1348,1369,1390,1409,1429,1448,1468,1488,1510,1528,1549,1569,1588,1609,1629,1649,1669,1688,1709,1729,1749,1768,1788,1808,1830,1849,1868,1888,1908,1928,1948,1969,1990,2009,2028,2048,2068,2089,2110,2129,2148,2169,2189,2208,2228,2249,2269,2289,2309,2330,2349,2369,2388,2408,2428,2449,2468,2488,2509,2529,2549,2570,2588,2609,2630,2649,2668,2689,2708,2729,2748,2769,2789,2809,2830,2849,2868,2889,2908,2930,2949,2968,2988,3008,3029,3049,3069,3088,3108,3129,3149,3168,3188,3208,3229,3250,3269,3289,3308,3329,3349,3368,3388,3409,3429,3449,3469,3488,3509,3528,3549,3568,3588,3608,3629,3649,3668,3688,3710,3729,3749,3768,3789,3808,3828,3849,3868,3889,3909,3929,3949,3968,3988,4008,4028,4049,4069,4089,4110,4129,4149,4169,4189,4210,4229,4249,4268,4289,4309,4328,4349,4368,4388,4408],"xSR":741.5,"ySR":573.95,"xT1":424.9,"yT1":0,"xT2":1058.1,"yT2":0,"toosoon":0,"cond_shown":"Incongruent","ratio_trial":300,"L_num":8,"L_den":10,"R_num":9,"R_den":18,"correct_side":1,"subjID":"JuanDiegoAguileraPinzon32","gender":"0","school":"4","age":"9"},{"start_time":1552327818640,"click_time":1552327820784,"finger_time":1552327819563,"fix_duration":773.887347349514,"trial":16,"RT":923,"MT":1221,"sideResp":2,"stimulus":[],"xmouse":[805,805,805,805,805,805,805,805,805,805,805,805,805,805,805,805,805,805,805,805,805,805,805,805,805,805,805,805,805,806,808,808,808,810,810,810,810,810,810,811,811,813,815,816,820,824,828,834,842,847,847,847,846,846,846,846,847,848,848,849,850,852,855,857,860,861,863,865,865,867,871,879,896,905,912,918,926,942,948,955,960,965,979,988,994,1000,1004,1008,1008,1009,1011,1012,1018,1020,1023,1025,1028,1032,1032,1033,1035,1035,1035,1035,1036,1038,1043,1061],"ymouse":[638,638,638,638,638,638,638,638,638,638,638,638,638,638,638,638,638,638,638,638,638,638,638,638,638,638,638,637,637,636,635,635,635,635,635,635,635,635,635,634,633,631,621,611,598,583,552,513,451,413,382,350,324,323,320,318,315,303,302,300,297,293,281,277,271,265,260,255,253,250,246,244,239,235,228,215,203,184,178,171,161,149,121,108,97,87,79,74,74,72,72,72,69,68,68,68,68,68,68,68,68,68,68,68,68,68,69,72],"timestamp_mouse":[13,25,44,63,83,103,125,144,163,183,203,224,243,263,283,304,324,344,363,385,403,423,443,464,484,504,524,544,564,583,603,624,643,663,684,705,723,743,765,783,805,825,843,863,884,904,923,943,963,983,1003,1024,1043,1064,1083,1104,1125,1143,1163,1183,1203,1223,1243,1263,1284,1303,1325,1343,1364,1383,1403,1423,1443,1464,1484,1504,1525,1543,1563,1583,1603,1625,1643,1665,1684,1704,1725,1744,1764,1783,1804,1825,1843,1865,1884,1904,1925,1943,1965,1983,2004,2025,2045,2065,2084,2104,2125,2144],"xSR":741.5,"ySR":573.95,"xT1":424.9,"yT1":0,"xT2":1058.1,"yT2":0,"toosoon":0,"cond_shown":"Congruent","ratio_trial":200,"L_num":7,"L_den":15,"R_num":18,"R_den":27,"correct_side":2,"subjID":"JuanDiegoAguileraPinzon32","gender":"0","school":"4","age":"9"},{"start_time":1552327825109,"click_time":1552327828044,"finger_time":1552327826625,"fix_duration":605.2187413406933,"trial":17,"RT":1516,"MT":1419,"sideResp":2,"stimulus":[],"xmouse":[782,782,782,782,782,782,782,782,782,782,782,782,782,782,782,782,782,782,782,782,782,783,784,784,786,786,786,786,786,786,786,786,786,786,786,786,786,786,786,786,786,786,786,786,786,786,786,786,786,786,786,786,786,786,786,786,786,786,786,786,786,786,786,786,786,785,785,785,785,785,785,785,785,785,786,784,782,781,781,781,781,781,781,781,781,781,781,781,781,779,776,773,769,764,763,763,763,763,763,763,763,763,763,764,767,768,768,769,769,771,772,774,777,781,793,803,815,831,849,923,970,985,994,1000,1011,1014,1018,1021,1022,1027,1028,1029,1033,1035,1041,1046,1051,1053,1055,1063,1068,1070,1072,1074,1083,1089,1092],"ymouse":[631,631,631,631,631,631,631,631,631,631,631,631,631,631,631,631,631,631,631,631,631,626,621,616,608,604,604,604,604,604,604,604,604,604,604,604,604,604,604,604,604,604,603,603,603,603,603,603,603,603,603,603,603,603,603,603,603,603,603,603,603,603,603,603,603,603,603,603,603,603,603,601,599,597,583,572,568,566,564,564,564,564,564,564,564,564,564,564,564,559,549,543,531,521,514,514,514,514,514,514,514,513,509,506,499,496,492,489,484,473,465,461,454,445,431,422,413,403,388,337,299,279,262,248,223,213,204,194,188,176,174,173,169,167,161,158,157,155,153,147,143,141,135,128,112,100,92],"timestamp_mouse":[14,35,55,75,95,114,134,154,174,194,214,234,256,276,294,314,334,355,374,396,415,435,454,474,495,515,534,554,576,594,615,634,655,676,694,715,735,754,774,794,815,834,856,875,894,915,935,955,975,994,1014,1035,1054,1074,1094,1114,1136,1154,1175,1195,1216,1235,1255,1275,1295,1314,1334,1356,1375,1396,1415,1434,1455,1474,1494,1516,1534,1555,1575,1595,1615,1635,1654,1676,1694,1715,1734,1754,1776,1794,1815,1834,1854,1875,1894,1915,1935,1954,1975,1996,2015,2035,2056,2074,2094,2115,2135,2155,2174,2194,2215,2234,2254,2275,2294,2315,2335,2354,2374,2394,2414,2435,2455,2475,2495,2514,2534,2555,2576,2594,2615,2634,2656,2674,2695,2714,2734,2754,2776,2794,2814,2834,2854,2875,2894,2916,2935],"xSR":741.5,"ySR":573.95,"xT1":424.9,"yT1":0,"xT2":1058.1,"yT2":0,"toosoon":0,"cond_shown":"Congruent","ratio_trial":100,"L_num":1,"L_den":2,"R_num":3,"R_den":5,"correct_side":2,"subjID":"JuanDiegoAguileraPinzon32","gender":"0","school":"4","age":"9"},{"start_time":1552327830635,"click_time":1552327832445,"finger_time":1552327832164,"fix_duration":930.180719958748,"trial":18,"RT":1529,"MT":281,"sideResp":2,"stimulus":[],"xmouse":[760,760,760,760,760,760,760,760,760,760,760,760,760,760,760,760,760,760,760,760,759,759,759,759,759,759,759,759,759,759,759,759,759,759,759,759,759,759,759,759,759,759,759,759,759,759,759,759,759,759,759,759,759,759,759,759,759,759,759,759,759,759,759,759,759,759,759,760,761,762,763,765,768,781,796,816,842,874,960,1005,1045,1075,1101,1125,1137,1143,1145,1150,1151,1151,1147],"ymouse":[636,636,636,636,636,636,636,636,636,636,636,636,636,636,636,636,636,636,636,636,636,636,636,636,636,636,636,636,636,636,636,636,636,636,636,636,636,636,636,636,636,636,636,636,636,636,636,636,636,636,636,636,636,636,636,636,636,636,636,636,636,636,636,636,636,636,636,635,633,632,629,626,622,604,591,574,552,524,451,413,372,333,295,248,220,192,168,145,111,100,90],"timestamp_mouse":[14,33,48,68,88,110,129,149,168,188,210,229,249,270,289,309,330,348,368,389,408,429,448,468,488,509,528,549,568,588,609,628,649,668,689,710,728,749,769,788,808,829,850,869,889,909,929,950,969,989,1009,1029,1048,1069,1090,1109,1129,1148,1169,1188,1209,1229,1248,1269,1290,1308,1328,1349,1369,1388,1409,1428,1449,1469,1489,1508,1529,1548,1569,1588,1609,1629,1649,1669,1688,1709,1729,1749,1769,1788,1810],"xSR":741.5,"ySR":573.95,"xT1":424.9,"yT1":0,"xT2":1058.1,"yT2":0,"toosoon":0,"cond_shown":"Incongruent","ratio_trial":100,"L_num":9,"L_den":10,"R_num":20,"R_den":25,"correct_side":1,"subjID":"JuanDiegoAguileraPinzon32","gender":"0","school":"4","age":"9"},{"start_time":1552327847721,"click_time":1552327850023,"finger_time":1552327849163,"fix_duration":875.9718201326772,"trial":19,"RT":1442,"MT":860,"sideResp":1,"stimulus":[],"xmouse":[804,804,804,804,804,804,804,804,804,804,804,803,803,803,803,803,803,803,803,803,803,805,806,806,806,806,806,806,806,806,806,806,806,806,806,806,806,806,807,808,808,808,808,808,808,808,808,808,808,808,808,808,808,808,808,808,809,809,809,809,809,809,809,809,807,803,801,799,798,798,798,798,792,785,778,760,750,736,733,732,732,733,733,733,733,732,725,720,712,700,673,660,638,612,587,567,551,549,549,549,549,548,546,544,542,538,537,537,544,546,551,555,547,529,505],"ymouse":[617,617,617,617,617,617,617,617,617,617,617,617,617,617,617,617,617,617,617,617,616,614,613,613,613,613,613,613,613,613,613,613,613,613,613,613,613,613,613,613,613,613,613,613,613,613,613,613,613,613,613,613,613,613,613,613,612,612,612,612,612,612,612,612,611,610,610,610,610,609,608,561,520,490,467,429,411,391,387,382,376,371,370,367,365,350,330,312,293,282,270,252,222,193,172,157,146,145,145,145,145,145,145,145,144,139,135,132,126,121,111,90,75,60,45],"timestamp_mouse":[14,45,62,82,102,122,142,162,183,202,222,242,263,282,302,322,343,362,382,402,422,443,463,483,502,523,543,562,582,603,623,642,663,682,704,723,742,763,782,803,823,842,862,883,902,922,942,962,983,1002,1022,1043,1063,1082,1103,1123,1142,1163,1182,1203,1222,1242,1262,1282,1303,1323,1342,1362,1383,1403,1422,1442,1463,1482,1504,1523,1542,1562,1582,1603,1622,1642,1663,1683,1702,1723,1742,1763,1782,1802,1823,1842,1862,1882,1903,1922,1943,1963,1983,2002,2022,2043,2062,2082,2103,2123,2142,2162,2182,2204,2223,2243,2262,2283,2302],"xSR":741.5,"ySR":573.95,"xT1":424.9,"yT1":0,"xT2":1058.1,"yT2":0,"toosoon":0,"cond_shown":"Incongruent","ratio_trial":300,"L_num":7,"L_den":10,"R_num":8,"R_den":20,"correct_side":1,"subjID":"JuanDiegoAguileraPinzon32","gender":"0","school":"4","age":"9"},{"start_time":1552327851903,"click_time":1552327854224,"finger_time":1552327853643,"fix_duration":1239.9108749041652,"trial":20,"RT":1740,"MT":581,"sideResp":1,"stimulus":[],"xmouse":[794,794,794,794,794,794,794,794,794,794,794,794,794,794,794,794,794,794,794,794,794,794,794,794,794,794,794,794,794,794,794,794,794,794,794,794,794,794,794,794,794,794,793,793,793,793,793,793,792,792,792,791,791,791,791,791,791,791,791,791,791,791,791,791,790,790,790,790,790,790,790,790,790,790,790,790,790,790,790,790,794,798,801,802,802,803,806,806,797,794,794,794,793,793,793,793,792,790,783,777,770,765,761,756,754,750,746,742,739,739,738,735,729,687,619,545,508],"ymouse":[632,632,632,631,631,631,631,631,631,631,631,631,630,630,630,630,630,630,630,630,630,630,630,630,630,630,630,630,629,629,629,629,629,629,629,629,629,628,627,625,624,623,622,622,622,622,622,622,622,622,622,622,622,622,622,622,622,622,622,622,622,622,622,622,621,621,621,621,621,621,621,621,621,621,621,621,621,621,621,620,619,617,614,611,607,602,587,559,513,496,487,476,461,425,404,381,360,341,299,282,256,235,221,199,189,178,167,157,151,150,150,148,144,117,81,42,20],"timestamp_mouse":[1,33,41,61,81,102,121,141,160,180,201,221,241,260,280,300,321,341,362,381,402,420,442,460,482,500,521,541,560,581,602,620,640,660,680,701,721,740,760,780,800,821,840,860,881,902,921,941,961,980,1002,1021,1041,1062,1080,1101,1122,1141,1160,1180,1200,1222,1241,1261,1280,1301,1321,1340,1360,1380,1401,1422,1440,1460,1481,1501,1520,1541,1561,1581,1600,1621,1642,1660,1680,1701,1721,1740,1760,1780,1800,1820,1840,1860,1881,1900,1921,1941,1960,1982,2000,2022,2041,2062,2080,2101,2121,2140,2160,2181,2200,2221,2241,2260,2280,2300,2321],"xSR":741.5,"ySR":573.95,"xT1":424.9,"yT1":0,"xT2":1058.1,"yT2":0,"toosoon":0,"cond_shown":"Incongruent","ratio_trial":300,"L_num":2,"L_den":4,"R_num":6,"R_den":30,"correct_side":1,"subjID":"JuanDiegoAguileraPinzon32","gender":"0","school":"4","age":"9"},{"start_time":1552327856992,"click_time":1552327859464,"finger_time":1552327858464,"fix_duration":1327.901180086456,"trial":21,"RT":1472,"MT":1000,"sideResp":1,"stimulus":[],"xmouse":[828,828,828,828,828,828,828,828,828,828,828,828,828,828,828,828,828,826,826,826,826,826,826,826,826,826,826,826,826,826,826,826,826,826,826,825,825,825,825,825,825,825,825,825,825,825,825,825,825,825,826,826,828,828,829,829,829,829,830,830,830,830,830,830,830,830,830,830,830,830,830,830,830,828,824,821,818,817,817,816,815,813,811,801,794,784,773,758,678,614,550,501,441,397,321,302,292,292,292,292,291,289,289,289,289,291,295,304,319,332,338,343,351,367,372,375,376,376,378,383,389,405,417,425],"ymouse":[598,598,598,598,598,598,598,598,598,598,598,598,598,598,598,598,599,599,599,599,599,599,599,599,599,599,599,599,599,599,599,599,599,599,599,599,599,598,598,598,598,597,597,597,597,597,597,597,597,596,596,595,594,594,594,594,594,594,593,593,593,593,593,593,593,593,593,593,593,593,591,589,584,566,549,527,505,487,461,453,447,439,434,412,395,372,343,303,172,92,20,0,0,0,0,0,0,0,0,0,0,1,6,11,15,18,20,25,33,38,41,42,45,48,50,50,50,50,50,51,52,55,60,65],"timestamp_mouse":[12,45,52,73,91,112,131,153,172,191,211,233,251,271,292,312,332,351,372,393,412,431,451,471,492,513,532,551,572,592,612,631,652,672,692,712,732,752,771,792,813,831,852,872,892,913,931,951,972,992,1013,1031,1052,1071,1093,1111,1131,1152,1172,1192,1212,1231,1252,1272,1292,1311,1332,1352,1372,1391,1412,1431,1452,1472,1491,1512,1531,1553,1572,1591,1611,1631,1651,1672,1691,1711,1731,1752,1773,1791,1811,1832,1852,1871,1891,1912,1932,1952,1972,1993,2012,2033,2052,2072,2091,2111,2132,2151,2173,2191,2212,2231,2253,2272,2291,2312,2331,2351,2373,2391,2413,2431,2451,2472],"xSR":741.5,"ySR":573.95,"xT1":424.9,"yT1":0,"xT2":1058.1,"yT2":0,"toosoon":0,"cond_shown":"Congruent","ratio_trial":100,"L_num":2,"L_den":5,"R_num":6,"R_den":12,"correct_side":2,"subjID":"JuanDiegoAguileraPinzon32","gender":"0","school":"4","age":"9"},{"start_time":1552327865387,"click_time":1552327866324,"finger_time":1552327865964,"fix_duration":1401.0164501282125,"trial":22,"RT":577,"MT":360,"sideResp":1,"stimulus":[],"xmouse":[787,787,787,787,787,787,787,788,788,788,788,788,788,788,788,788,788,788,788,788,788,788,786,778,771,768,768,768,768,786,804,816,826,827,816,798,777,718,698,640,628,620,613,601,548,516,493],"ymouse":[640,640,640,640,640,640,640,638,638,638,638,638,638,638,638,638,638,638,638,638,638,636,634,623,613,602,595,584,570,538,505,477,447,411,357,332,315,288,281,261,257,253,248,233,167,116,69],"timestamp_mouse":[18,41,56,76,97,117,138,156,178,197,218,238,257,278,297,317,336,356,378,397,417,436,456,477,496,517,537,558,577,597,617,637,658,677,697,716,737,757,777,797,816,837,857,878,897,917,937],"xSR":741.5,"ySR":573.95,"xT1":424.9,"yT1":0,"xT2":1058.1,"yT2":0,"toosoon":0,"cond_shown":"Congruent","ratio_trial":200,"L_num":4,"L_den":10,"R_num":3,"R_den":15,"correct_side":1,"subjID":"JuanDiegoAguileraPinzon32","gender":"0","school":"4","age":"9"},{"start_time":1552327871716,"click_time":1552327874784,"finger_time":1552327873704,"fix_duration":348.14261993360964,"trial":23,"RT":1988,"MT":1080,"sideResp":2,"stimulus":[],"xmouse":[806,806,806,806,806,806,806,806,806,806,806,806,806,806,806,806,806,806,806,806,806,806,806,806,806,806,806,806,806,806,806,806,806,806,805,805,805,805,805,805,805,805,805,805,805,805,805,805,805,805,805,805,805,805,805,805,805,805,805,805,805,805,805,805,805,805,805,805,805,805,805,805,805,805,805,805,805,805,805,805,805,805,805,805,805,805,804,804,804,806,808,812,815,820,828,831,833,834,836,845,850,857,866,868,877,893,911,920,925,954,967,973,976,980,983,983,983,984,986,988,992,998,1006,1012,1019,1020,1021,1023,1027,1033,1038,1040,1043,1046,1048,1048,1050,1050,1050,1050,1050,1050,1050,1050,1050,1050,1050,1050,1050,1050,1050,1051,1057,1070],"ymouse":[628,628,628,628,628,628,628,628,628,628,628,628,628,628,628,628,628,628,628,628,628,628,628,628,628,628,628,628,628,628,628,628,628,628,629,629,629,630,630,630,630,630,630,630,630,630,630,630,630,630,630,630,630,630,630,630,630,630,630,630,630,630,630,630,630,630,630,630,630,630,630,630,630,630,630,630,630,630,630,630,630,630,630,630,630,630,630,629,627,623,622,620,618,617,616,616,616,615,613,585,559,509,420,290,0,0,0,0,0,0,0,0,0,0,0,0,0,0,0,0,0,2,6,9,10,10,10,11,12,14,16,18,19,20,21,21,22,22,22,22,22,22,22,22,22,22,22,22,22,22,22,22,23,27],"timestamp_mouse":[11,28,47,71,89,108,128,147,167,189,208,228,249,267,287,309,327,348,369,389,408,428,449,469,489,508,528,547,569,589,608,628,648,669,687,707,727,749,769,789,807,827,849,868,887,908,929,949,967,987,1007,1027,1048,1067,1087,1108,1127,1148,1168,1188,1208,1229,1249,1269,1287,1307,1328,1348,1368,1388,1407,1428,1447,1468,1489,1509,1528,1548,1568,1588,1607,1628,1648,1668,1689,1709,1728,1747,1769,1788,1809,1828,1849,1868,1888,1909,1927,1948,1969,1988,2008,2028,2047,2068,2087,2108,2129,2147,2167,2187,2208,2228,2248,2268,2289,2307,2328,2349,2368,2389,2407,2428,2447,2468,2488,2507,2528,2548,2569,2588,2608,2628,2647,2668,2688,2708,2729,2748,2767,2789,2808,2829,2849,2868,2889,2909,2929,2948,2969,2987,3008,3027,3048,3068],"xSR":741.5,"ySR":573.95,"xT1":424.9,"yT1":0,"xT2":1058.1,"yT2":0,"toosoon":0,"cond_shown":"Congruent","ratio_trial":300,"L_num":2,"L_den":20,"R_num":10,"R_den":25,"correct_side":2,"subjID":"JuanDiegoAguileraPinzon32","gender":"0","school":"4","age":"9"},{"start_time":1552327877039,"click_time":1552327879365,"finger_time":1552327878684,"fix_duration":734.8870420018811,"trial":24,"RT":1645,"MT":681,"sideResp":1,"stimulus":[],"xmouse":[797,789,789,788,788,788,788,788,788,788,788,788,788,788,788,788,788,788,788,788,788,788,788,788,788,788,788,788,788,788,788,788,788,788,788,788,788,788,788,788,788,788,788,788,788,788,788,788,788,788,788,788,788,788,788,788,788,788,788,788,788,788,788,788,788,788,788,788,788,788,788,788,788,788,788,788,788,788,788,784,781,776,767,744,617,579,555,534,514,472,461,453,450,450,447,443,441,440,438,436,431,427,421,415,407,407,408,410,412,412,412,412,413,414,421,424,427],"ymouse":[627,621,621,620,620,620,620,620,620,620,620,620,620,620,620,620,620,620,620,620,620,620,620,620,620,620,620,620,620,620,620,620,620,620,620,620,620,620,620,620,620,620,620,620,620,620,620,620,620,620,620,620,620,620,620,620,620,620,620,620,620,620,620,620,620,620,620,620,620,620,620,620,620,620,620,620,620,618,616,602,593,583,567,542,475,459,445,434,422,398,393,388,386,386,379,373,371,366,354,337,306,274,228,182,78,47,25,13,8,8,8,8,9,12,22,23,23],"timestamp_mouse":[5,38,45,66,85,104,124,144,165,184,204,225,245,264,286,306,325,345,364,386,404,424,445,466,485,506,525,544,566,585,604,626,646,666,684,705,724,745,765,785,804,825,844,864,884,906,926,944,965,985,1004,1026,1046,1065,1084,1105,1126,1145,1166,1184,1206,1226,1245,1265,1286,1305,1325,1346,1364,1384,1405,1426,1445,1466,1484,1506,1526,1545,1564,1585,1605,1625,1645,1665,1684,1706,1726,1745,1765,1785,1805,1825,1844,1866,1886,1904,1926,1945,1966,1985,2006,2024,2044,2066,2084,2104,2125,2145,2165,2185,2205,2226,2245,2266,2286,2305,2326],"xSR":741.5,"ySR":573.95,"xT1":424.9,"yT1":0,"xT2":1058.1,"yT2":0,"toosoon":0,"cond_shown":"Congruent","ratio_trial":100,"L_num":11,"L_den":22,"R_num":6,"R_den":15,"correct_side":1,"subjID":"JuanDiegoAguileraPinzon32","gender":"0","school":"4","age":"9"},{"start_time":1552327881839,"click_time":1552327886684,"finger_time":1552327882964,"fix_duration":794.9684423011446,"trial":25,"RT":1125,"MT":3720,"sideResp":2,"stimulus":[],"xmouse":[766,761,761,757,756,752,748,745,743,743,743,743,743,743,743,743,743,743,743,743,743,743,743,743,743,743,743,743,743,743,743,743,743,743,743,743,743,743,743,743,743,743,743,743,743,743,743,743,743,743,743,743,743,743,743,743,736,722,710,703,699,699,699,699,699,699,699,699,699,699,699,699,699,699,699,699,699,699,699,699,708,712,713,713,713,713,713,713,713,713,713,714,715,716,718,719,720,720,720,720,720,720,720,721,727,730,735,745,747,753,753,754,755,755,755,755,756,756,757,763,766,768,769,771,773,773,773,773,773,773,773,775,775,776,777,777,779,780,780,780,780,780,780,780,780,780,780,780,780,780,780,780,780,781,782,782,783,784,786,788,791,791,791,791,791,791,791,791,791,790,790,789,789,789,788,788,788,788,788,786,784,779,777,775,775,775,775,775,775,775,775,775,775,775,775,776,776,776,776,776,776,776,776,776,776,776,777,778,782,788,810,821,830,837,845,863,874,890,905,936,950,967,986,1012,1041,1099,1131,1162,1175,1185,1188,1189,1189,1189,1189,1189,1189,1189,1189,1180,1171,1162,1148],"ymouse":[611,612,612,612,612,613,613,613,613,613,613,613,613,613,613,613,613,613,613,613,613,613,613,613,613,613,613,613,613,613,613,613,613,613,613,613,613,613,613,613,613,613,613,613,613,613,613,613,613,613,613,613,613,613,613,613,596,561,541,535,534,534,534,534,534,534,534,534,534,534,534,534,534,534,534,534,534,534,534,538,567,607,646,674,693,694,694,694,694,694,692,691,688,687,683,682,681,681,681,681,681,681,681,680,678,677,674,670,670,667,666,666,665,665,665,665,665,663,663,660,660,658,657,655,654,654,654,654,654,654,654,653,653,652,648,643,638,635,635,635,635,635,635,635,635,635,635,635,635,635,635,635,635,634,632,632,632,631,630,629,627,627,627,627,627,627,627,627,627,627,627,627,627,627,627,627,627,627,627,627,627,629,631,633,633,633,633,633,633,633,633,633,633,633,633,633,633,633,633,633,633,633,633,633,633,633,632,631,629,624,602,589,574,562,553,527,514,502,492,464,442,412,371,325,277,172,116,42,13,0,0,0,0,0,0,0,0,0,0,1,6,11,18],"timestamp_mouse":[13,38,45,66,84,104,125,146,165,184,205,225,246,265,284,306,324,346,364,384,406,425,446,465,484,505,526,546,564,585,605,625,644,664,684,706,725,745,765,785,805,825,845,865,884,906,925,946,965,985,1005,1025,1045,1065,1085,1106,1125,1146,1166,1185,1205,1225,1245,1265,1285,1304,1326,1345,1365,1385,1405,1425,1446,1465,1484,1505,1524,1545,1565,1585,1604,1625,1644,1664,1684,1705,1726,1746,1765,1785,1804,1825,1845,1864,1885,1905,1925,1945,1964,1985,2006,2025,2044,2064,2085,2105,2124,2144,2165,2185,2206,2225,2246,2265,2284,2306,2325,2345,2364,2385,2405,2425,2444,2465,2485,2505,2525,2546,2566,2584,2605,2626,2646,2666,2685,2704,2724,2745,2766,2785,2805,2826,2846,2865,2885,2904,2925,2945,2965,2985,3004,3025,3045,3064,3086,3104,3125,3146,3165,3184,3204,3225,3246,3266,3285,3306,3325,3346,3364,3385,3405,3426,3446,3466,3486,3505,3525,3545,3564,3586,3606,3626,3646,3665,3685,3705,3724,3746,3765,3786,3806,3825,3845,3866,3886,3906,3925,3944,3965,3986,4006,4026,4045,4064,4084,4105,4125,4144,4166,4184,4205,4226,4246,4265,4286,4306,4325,4345,4366,4386,4405,4425,4444,4465,4486,4505,4525,4544,4564,4586,4604,4624,4645,4664,4686,4705,4725,4745,4765,4788,4804,4825,4845],"xSR":741.5,"ySR":573.95,"xT1":424.9,"yT1":0,"xT2":1058.1,"yT2":0,"toosoon":0,"cond_shown":"Incongruent","ratio_trial":200,"L_num":1,"L_den":3,"R_num":2,"R_den":15,"correct_side":1,"subjID":"JuanDiegoAguileraPinzon32","gender":"0","school":"4","age":"9"},{"start_time":1552327888853,"click_time":1552327892125,"finger_time":1552327890444,"fix_duration":1287.1806854965112,"trial":26,"RT":1591,"MT":1681,"sideResp":1,"stimulus":[],"xmouse":[783,783,783,783,786,786,786,786,786,787,787,787,787,787,785,784,784,784,784,784,784,784,784,784,784,784,784,784,784,784,784,783,782,782,780,780,778,778,778,778,778,778,778,778,778,778,778,778,778,778,778,778,778,778,778,778,779,779,779,779,779,779,779,779,779,779,779,779,778,778,778,778,779,782,784,786,786,786,785,779,775,772,764,763,755,753,753,754,755,755,755,755,756,756,758,758,758,758,758,758,758,758,758,758,758,759,759,759,759,759,759,760,766,768,770,770,770,770,770,768,767,770,773,772,756,742,731,720,710,684,678,677,677,677,677,678,679,681,681,678,673,670,663,652,609,589,573,559,548,542,538,537,537,535,535,534,534,534,534,533,530,529,527,521],"ymouse":[625,625,625,625,626,626,626,626,626,627,628,628,628,629,634,635,635,635,635,635,635,635,635,635,635,635,635,635,635,635,635,636,636,637,638,638,639,639,639,639,639,639,639,639,639,639,639,639,639,639,639,639,639,639,639,639,639,639,639,639,639,639,639,639,639,639,640,642,643,643,643,643,643,637,620,610,602,592,584,567,550,531,499,489,453,445,439,435,433,433,433,433,428,426,415,412,410,408,407,406,406,406,406,406,405,404,404,403,402,402,401,399,390,387,381,379,378,376,374,368,360,351,342,312,267,252,243,237,232,215,207,203,202,200,188,182,173,165,154,135,126,120,114,105,73,60,50,43,36,33,32,31,30,30,30,30,30,30,30,30,29,29,29,29],"timestamp_mouse":[14,36,51,71,92,110,130,152,172,190,212,230,251,271,291,310,332,351,372,391,410,431,452,470,492,512,530,550,572,592,610,631,652,672,691,711,732,751,772,791,810,832,852,871,891,912,932,950,971,990,1010,1032,1052,1071,1090,1111,1131,1150,1170,1192,1210,1230,1252,1272,1291,1310,1330,1351,1371,1390,1412,1432,1452,1471,1490,1512,1532,1552,1571,1591,1610,1631,1650,1671,1691,1711,1731,1750,1770,1790,1810,1832,1851,1871,1891,1911,1930,1951,1970,1991,2012,2031,2051,2071,2090,2112,2131,2150,2171,2191,2211,2231,2250,2272,2291,2310,2331,2351,2371,2391,2412,2432,2451,2472,2491,2512,2531,2550,2572,2591,2611,2630,2651,2671,2691,2712,2731,2752,2772,2791,2810,2831,2851,2871,2890,2910,2930,2952,2972,2991,3012,3031,3050,3071,3091,3111,3132,3150,3172,3191,3211,3231,3250,3271],"xSR":741.5,"ySR":573.95,"xT1":424.9,"yT1":0,"xT2":1058.1,"yT2":0,"toosoon":0,"cond_shown":"Incongruent","ratio_trial":300,"L_num":1,"L_den":2,"R_num":3,"R_den":15,"correct_side":1,"subjID":"JuanDiegoAguileraPinzon32","gender":"0","school":"4","age":"9"},{"start_time":1552327893930,"click_time":1552327895164,"finger_time":1552327893968,"fix_duration":664.5371635111949,"trial":27,"RT":38,"MT":1196,"sideResp":1,"stimulus":[],"xmouse":[740,739,739,739,739,739,739,741,744,747,748,748,748,748,748,748,748,748,748,748,748,748,748,748,748,748,748,748,749,752,755,755,755,756,757,761,762,763,765,766,766,766,766,766,765,765,764,765,767,767,756,751,746,739,730,693,641,601,561,517,436],"ymouse":[608,608,608,608,608,609,609,609,609,609,608,608,608,608,608,608,608,608,608,608,608,608,608,608,608,608,608,608,608,608,608,608,608,607,607,607,607,607,606,604,601,597,593,589,581,574,554,530,497,469,431,419,407,393,373,311,239,191,140,100,51],"timestamp_mouse":[38,54,74,94,115,135,154,174,194,214,234,254,274,294,315,334,355,374,393,413,434,454,474,495,514,535,553,575,595,613,633,653,675,695,713,734,754,773,795,815,835,853,873,894,915,935,954,973,993,1013,1034,1055,1074,1095,1113,1133,1153,1173,1193,1214,1234],"xSR":741.5,"ySR":573.95,"xT1":424.9,"yT1":0,"xT2":1058.1,"yT2":0,"toosoon":0,"cond_shown":"Incongruent","ratio_trial":200,"L_num":4,"L_den":30,"R_num":1,"R_den":3,"correct_side":2,"subjID":"JuanDiegoAguileraPinzon32","gender":"0","school":"4","age":"9"},{"start_time":1552327897233,"click_time":1552327899266,"finger_time":1552327898464,"fix_duration":647.881645012421,"trial":28,"RT":1231,"MT":802,"sideResp":1,"stimulus":[],"xmouse":[768,768,768,768,768,768,768,768,768,768,768,768,768,768,768,768,768,768,768,768,768,768,768,768,768,768,768,768,768,768,768,768,768,768,768,768,768,768,768,768,768,768,768,768,768,768,768,768,768,768,768,768,768,768,768,768,769,770,772,772,773,775,775,775,775,775,765,747,722,704,696,712,714,715,715,715,715,715,715,715,714,710,700,684,665,650,645,645,645,645,643,617,591,571,565,565,565,565,564,561,554,519],"ymouse":[621,621,621,621,621,621,621,621,621,621,621,621,621,621,621,621,621,621,621,621,621,621,621,621,621,621,621,621,621,621,621,621,621,621,621,621,621,621,621,621,621,621,621,621,621,621,621,621,621,621,621,621,621,621,621,621,621,616,612,606,597,572,560,545,528,507,447,384,298,210,129,25,19,16,16,15,7,3,0,0,0,0,1,5,11,13,13,13,13,13,13,13,13,13,13,13,13,13,13,16,20,35],"timestamp_mouse":[11,32,51,71,91,111,131,151,171,192,211,231,250,271,292,312,330,350,371,391,412,431,451,472,491,510,531,551,572,591,611,631,650,670,690,712,732,752,771,791,812,830,852,872,892,911,931,950,972,992,1011,1030,1050,1070,1092,1112,1132,1151,1171,1192,1212,1231,1251,1270,1291,1311,1331,1350,1371,1390,1411,1430,1451,1471,1491,1510,1530,1551,1571,1592,1612,1631,1651,1671,1690,1712,1731,1752,1772,1792,1812,1831,1850,1870,1891,1912,1932,1952,1971,1992,2011,2032],"xSR":741.5,"ySR":573.95,"xT1":424.9,"yT1":0,"xT2":1058.1,"yT2":0,"toosoon":0,"cond_shown":"Incongruent","ratio_trial":100,"L_num":13,"L_den":26,"R_num":6,"R_den":10,"correct_side":2,"subjID":"JuanDiegoAguileraPinzon32","gender":"0","school":"4","age":"9"},{"start_time":1552327900635,"click_time":1552327902683,"finger_time":1552327901364,"fix_duration":250,"trial":29,"RT":729,"MT":1319,"sideResp":2,"stimulus":[],"xmouse":[772,772,772,772,772,772,772,772,772,772,772,772,772,771,770,769,769,769,769,769,769,769,769,769,769,769,769,769,769,767,764,763,762,762,762,760,739,733,724,722,715,712,712,712,712,712,712,712,712,711,711,709,709,709,709,709,709,709,709,709,709,709,709,709,709,709,709,709,710,710,710,710,710,710,710,710,710,710,711,711,711,715,718,721,726,734,759,783,822,937,1037,1124,1218,1232,1239,1242,1243,1244,1244,1239,1231,1173,1142],"ymouse":[653,653,653,653,653,653,653,653,653,653,653,652,652,652,652,652,652,652,652,652,652,652,652,652,652,652,652,652,652,652,653,653,653,654,654,655,661,663,667,669,672,673,673,673,673,673,673,673,673,674,674,676,676,676,676,676,676,676,676,676,676,676,676,676,676,676,674,674,673,672,672,672,672,672,672,672,672,672,672,672,672,670,669,667,662,655,626,608,578,508,462,422,365,353,341,332,325,311,306,288,258,116,58],"timestamp_mouse":[12,45,50,69,88,109,129,149,170,189,210,228,250,269,289,310,329,348,368,388,410,429,448,470,489,508,529,550,569,588,610,629,650,668,689,710,729,748,768,789,808,829,850,870,889,910,929,949,968,988,1008,1029,1049,1068,1088,1109,1130,1149,1169,1189,1209,1229,1248,1269,1288,1310,1329,1349,1369,1390,1409,1429,1449,1469,1488,1509,1529,1549,1569,1590,1610,1629,1648,1668,1690,1709,1729,1749,1769,1789,1809,1829,1849,1869,1890,1910,1929,1950,1969,1989,2010,2029,2048],"xSR":741.5,"ySR":573.95,"xT1":424.9,"yT1":0,"xT2":1058.1,"yT2":0,"toosoon":0,"cond_shown":"Congruent","ratio_trial":300,"L_num":1,"L_den":5,"R_num":3,"R_den":6,"correct_side":2,"subjID":"JuanDiegoAguileraPinzon32","gender":"0","school":"4","age":"9"},{"start_time":1552327904300,"click_time":1552327906643,"finger_time":1552327905863,"fix_duration":354.71719302928483,"trial":30,"RT":1563,"MT":780,"sideResp":1,"stimulus":[],"xmouse":[766,766,766,766,766,766,766,766,766,766,766,766,766,766,766,766,766,766,766,768,773,775,775,775,775,775,775,775,775,775,775,775,775,775,775,775,775,775,775,775,775,775,775,775,775,775,775,775,775,775,775,775,775,775,775,775,775,775,775,775,775,775,775,775,775,775,775,775,775,775,775,775,775,776,776,775,775,777,779,785,785,785,785,785,785,785,785,785,785,781,774,760,743,705,672,643,630,621,616,608,604,599,594,590,586,585,585,584,582,581,578,574,567,557,538,532,527,522],"ymouse":[623,623,623,623,623,623,623,623,623,623,623,623,623,623,623,623,623,623,623,623,620,618,618,618,618,618,618,618,618,618,618,618,618,618,618,618,618,618,618,618,618,618,618,618,618,618,618,618,618,618,618,618,618,618,618,618,618,618,618,618,618,618,618,618,618,618,618,618,618,618,618,618,618,618,616,609,598,582,563,512,485,457,430,410,399,399,397,391,386,377,369,356,341,304,252,177,130,102,86,54,39,27,18,11,5,4,4,4,4,4,3,3,3,3,3,3,3,3],"timestamp_mouse":[12,34,44,65,84,105,125,143,164,183,203,225,244,265,284,304,325,345,364,383,403,425,444,465,484,503,523,545,564,584,604,624,644,664,684,705,724,744,765,784,804,823,843,864,884,904,924,944,965,984,1005,1023,1043,1065,1084,1104,1124,1144,1165,1185,1205,1224,1244,1265,1284,1304,1325,1344,1364,1384,1405,1424,1443,1464,1484,1505,1523,1544,1563,1583,1604,1624,1643,1665,1684,1705,1724,1745,1763,1783,1805,1824,1844,1863,1883,1903,1924,1945,1963,1983,2003,2023,2043,2065,2083,2104,2124,2144,2164,2184,2203,2223,2244,2265,2284,2305,2324,2343],"xSR":741.5,"ySR":573.95,"xT1":424.9,"yT1":0,"xT2":1058.1,"yT2":0,"toosoon":0,"cond_shown":"Incongruent","ratio_trial":300,"L_num":3,"L_den":6,"R_num":4,"R_den":20,"correct_side":1,"subjID":"JuanDiegoAguileraPinzon32","gender":"0","school":"4","age":"9"},{"start_time":1552327909284,"click_time":1552327912224,"finger_time":1552327910703,"fix_duration":1357.8561288418027,"trial":31,"RT":1419,"MT":1521,"sideResp":1,"stimulus":[],"xmouse":[771,771,771,771,771,771,771,771,771,771,771,771,771,771,771,771,771,771,771,771,771,771,771,771,771,771,771,771,771,771,771,771,771,771,771,771,771,771,771,771,771,773,774,777,781,797,800,800,800,800,800,800,800,800,800,801,801,801,801,800,798,796,796,796,796,796,796,797,798,800,802,795,786,774,755,746,746,747,749,749,752,753,753,753,751,748,744,742,740,737,736,736,734,731,728,714,705,694,683,674,671,670,670,670,670,670,666,662,661,661,661,660,660,660,660,660,660,658,658,653,635,621,619,611,604,589,584,583,583,583,582,571,555,538,529,527,526,521,515,512,509,506,504,504,503,492,487,480],"ymouse":[604,604,604,604,604,604,604,604,604,604,604,604,604,604,604,604,604,604,604,604,604,604,604,604,604,604,604,604,604,604,604,604,604,604,604,604,604,604,604,604,604,604,603,603,604,615,617,617,617,617,617,617,617,617,617,618,618,618,618,618,618,618,618,618,618,618,618,616,612,604,581,561,533,504,460,427,424,421,417,414,399,385,365,360,343,329,321,315,308,303,294,289,286,279,274,249,231,212,193,179,169,167,167,166,166,166,166,166,165,165,165,165,165,165,165,165,165,164,164,162,154,146,143,136,129,120,119,119,119,119,119,118,115,112,109,109,108,107,107,106,105,105,105,105,105,102,101,98],"timestamp_mouse":[10,38,40,60,79,100,119,139,161,181,200,220,241,260,279,299,319,340,360,381,400,420,441,460,479,500,520,539,561,581,600,620,639,660,681,700,720,741,759,779,800,820,840,860,881,900,921,940,960,979,1000,1020,1040,1060,1081,1100,1121,1140,1161,1181,1200,1220,1240,1261,1279,1300,1321,1340,1360,1379,1401,1419,1440,1461,1479,1501,1519,1540,1559,1580,1601,1619,1640,1661,1681,1700,1719,1740,1759,1779,1801,1820,1840,1859,1880,1901,1920,1939,1960,1981,2001,2020,2040,2059,2079,2100,2119,2140,2160,2180,2199,2219,2239,2260,2281,2301,2320,2341,2361,2380,2401,2420,2439,2459,2480,2500,2519,2540,2560,2581,2601,2620,2641,2660,2681,2701,2719,2739,2760,2780,2801,2819,2839,2859,2880,2901,2920,2940],"xSR":741.5,"ySR":573.95,"xT1":424.9,"yT1":0,"xT2":1058.1,"yT2":0,"toosoon":0,"cond_shown":"Congruent","ratio_trial":100,"L_num":6,"L_den":20,"R_num":5,"R_den":25,"correct_side":1,"subjID":"JuanDiegoAguileraPinzon32","gender":"0","school":"4","age":"9"},{"start_time":1552327914195,"click_time":1552327916524,"finger_time":1552327915325,"fix_duration":250,"trial":32,"RT":1130,"MT":1199,"sideResp":2,"stimulus":[],"xmouse":[766,766,766,766,766,766,766,766,766,766,766,766,766,766,766,766,766,766,766,766,766,766,766,766,766,766,766,766,766,766,766,766,766,766,766,766,766,766,766,766,765,764,762,760,758,756,756,756,756,756,756,756,758,763,781,802,805,809,813,816,821,821,821,821,823,837,854,878,907,933,967,980,998,1017,1032,1056,1061,1064,1067,1070,1074,1075,1076,1077,1078,1078,1079,1080,1080,1082,1095,1102,1105,1107,1108,1110,1110,1108,1106,1103,1101,1101,1101,1101,1101,1102,1102,1103,1104,1106,1108,1114,1116,1119,1121,1122,1127],"ymouse":[631,631,631,631,631,631,631,631,631,631,631,631,631,631,632,632,634,636,637,637,637,637,637,637,637,637,637,637,637,637,637,638,638,638,638,638,638,638,638,638,639,640,641,642,644,646,646,646,646,646,646,646,644,639,618,583,570,563,560,557,553,553,553,553,552,530,506,471,430,393,349,336,325,314,304,277,266,255,249,243,235,232,226,221,217,212,210,208,207,205,199,197,196,195,194,190,185,181,175,170,162,159,154,152,149,142,141,140,138,136,134,125,120,114,106,103,93],"timestamp_mouse":[14,33,48,70,88,109,128,149,169,190,209,229,249,270,289,308,330,350,370,388,409,429,448,468,490,509,529,550,569,589,608,630,650,669,689,708,730,750,769,788,809,828,849,870,890,910,928,948,969,990,1008,1028,1048,1070,1089,1108,1130,1149,1169,1190,1208,1230,1249,1269,1289,1309,1329,1349,1368,1389,1408,1428,1450,1470,1489,1508,1530,1548,1569,1588,1608,1630,1649,1669,1689,1709,1728,1750,1769,1788,1808,1829,1849,1868,1888,1908,1930,1948,1968,1989,2008,2028,2049,2069,2088,2108,2128,2148,2168,2188,2208,2229,2249,2270,2288,2308,2328],"xSR":741.5,"ySR":573.95,"xT1":424.9,"yT1":0,"xT2":1058.1,"yT2":0,"toosoon":0,"cond_shown":"Congruent","ratio_trial":200,"L_num":5,"L_den":10,"R_num":14,"R_den":20,"correct_side":2,"subjID":"JuanDiegoAguileraPinzon32","gender":"0","school":"4","age":"9"},{"start_time":1552327917903,"click_time":1552327919985,"finger_time":1552327919825,"fix_duration":418.2512808502731,"trial":33,"RT":1922,"MT":160,"sideResp":2,"stimulus":[],"xmouse":[774,774,774,774,774,774,774,774,774,774,774,774,774,774,774,774,774,774,774,775,777,777,777,777,777,777,775,775,775,775,775,775,775,775,775,775,775,775,775,775,775,775,776,777,777,777,777,777,777,777,777,777,777,777,777,777,777,777,777,777,777,777,777,777,777,777,777,777,777,777,777,777,777,777,777,777,777,777,777,777,777,777,777,777,777,777,778,779,779,780,782,783,784,785,786,790,797,812,855,887,929,1005,1043,1082,1130],"ymouse":[635,635,635,635,635,635,635,635,635,635,635,635,635,635,635,635,635,635,635,635,630,629,628,628,628,628,628,628,628,627,626,625,625,625,625,625,625,625,625,625,621,619,617,615,613,613,613,613,613,613,613,613,613,613,613,613,613,613,613,613,613,613,613,613,613,613,613,613,613,613,613,613,613,613,613,613,613,613,613,613,613,613,613,613,613,613,612,611,610,608,606,604,602,599,596,580,562,536,473,426,366,233,174,128,88],"timestamp_mouse":[10,35,41,60,81,101,121,140,161,182,201,221,240,260,282,301,320,342,361,381,401,422,441,461,480,501,520,540,562,581,601,621,640,660,681,701,720,740,762,781,801,821,841,861,882,901,921,940,960,981,1001,1020,1040,1062,1082,1101,1120,1140,1162,1181,1201,1220,1242,1262,1280,1301,1322,1342,1362,1381,1402,1422,1442,1461,1481,1502,1522,1540,1561,1582,1602,1621,1642,1660,1682,1701,1721,1740,1761,1781,1801,1820,1842,1861,1882,1901,1922,1941,1961,1982,2000,2020,2040,2061,2082],"xSR":741.5,"ySR":573.95,"xT1":424.9,"yT1":0,"xT2":1058.1,"yT2":0,"toosoon":0,"cond_shown":"Incongruent","ratio_trial":200,"L_num":7,"L_den":10,"R_num":8,"R_den":16,"correct_side":1,"subjID":"JuanDiegoAguileraPinzon32","gender":"0","school":"4","age":"9"},{"start_time":1552327925823,"click_time":1552327927725,"finger_time":1552327927144,"fix_duration":1457.4022628384084,"trial":34,"RT":1321,"MT":581,"sideResp":2,"stimulus":[],"xmouse":[806,806,806,806,806,806,806,806,806,806,806,806,806,806,806,804,804,803,802,801,801,801,803,804,806,806,806,806,806,806,806,806,806,806,806,806,806,807,807,807,807,807,807,807,807,807,807,807,807,807,807,807,807,807,807,807,807,807,807,807,807,807,807,807,809,820,843,882,934,965,979,990,997,998,999,999,999,1006,1021,1059,1077,1090,1094,1095,1095,1094,1095,1098,1112,1123,1126,1128,1130,1132,1140],"ymouse":[632,632,632,632,632,632,632,632,632,632,632,632,632,632,632,631,630,629,626,623,615,608,601,594,591,591,591,591,591,591,591,591,591,591,591,591,591,591,591,591,591,591,591,591,591,591,591,591,591,591,591,591,591,591,591,591,591,591,591,591,591,591,591,591,589,565,516,452,380,340,321,309,298,296,295,295,294,293,289,278,272,268,268,268,251,237,214,206,181,150,135,121,108,102,86],"timestamp_mouse":[21,41,61,81,101,121,141,160,182,200,220,241,260,281,301,321,341,361,382,401,421,442,462,480,501,521,541,561,581,600,621,641,662,682,701,721,740,760,781,800,821,842,861,882,901,921,942,962,981,1001,1021,1041,1062,1082,1101,1121,1140,1161,1182,1201,1221,1242,1261,1281,1301,1321,1342,1362,1381,1401,1420,1441,1461,1481,1501,1521,1541,1560,1581,1601,1620,1640,1661,1682,1701,1721,1742,1762,1781,1802,1821,1841,1861,1881,1902],"xSR":741.5,"ySR":573.95,"xT1":424.9,"yT1":0,"xT2":1058.1,"yT2":0,"toosoon":0,"cond_shown":"Incongruent","ratio_trial":300,"L_num":8,"L_den":10,"R_num":9,"R_den":18,"correct_side":1,"subjID":"JuanDiegoAguileraPinzon32","gender":"0","school":"4","age":"9"},{"start_time":1552327932195,"click_time":1552327933564,"finger_time":1552327932625,"fix_duration":250,"trial":35,"RT":430,"MT":939,"sideResp":1,"stimulus":[],"xmouse":[764,764,764,764,764,764,764,764,764,764,763,761,756,754,753,753,753,753,750,747,742,739,738,735,730,726,724,724,724,724,724,724,725,726,727,727,727,722,711,701,695,693,697,701,708,711,714,704,699,698,697,696,686,677,668,659,650,639,629,616,598,585,564,559,555,549,540,526,524],"ymouse":[620,620,620,623,623,623,623,623,623,623,623,624,625,626,626,626,626,626,626,626,625,623,622,622,619,616,614,614,614,613,612,612,607,603,598,590,578,532,507,486,468,456,420,398,369,335,293,232,223,220,219,216,207,201,195,188,181,173,169,162,152,143,125,112,98,83,62,44,42],"timestamp_mouse":[14,37,48,69,89,108,130,148,170,189,209,230,249,270,290,309,330,350,370,389,410,430,449,469,490,509,529,548,568,589,608,630,649,669,689,709,730,749,770,789,810,828,849,869,889,909,928,949,970,990,1010,1029,1049,1068,1090,1110,1129,1149,1169,1189,1209,1229,1248,1270,1289,1310,1330,1349,1369],"xSR":741.5,"ySR":573.95,"xT1":424.9,"yT1":0,"xT2":1058.1,"yT2":0,"toosoon":0,"cond_shown":"Congruent","ratio_trial":300,"L_num":24,"L_den":30,"R_num":2,"R_den":4,"correct_side":1,"subjID":"JuanDiegoAguileraPinzon32","gender":"0","school":"4","age":"9"},{"start_time":1552327936137,"click_time":1552327937084,"finger_time":1552327936704,"fix_duration":1432.1863047985723,"trial":36,"RT":567,"MT":380,"sideResp":1,"stimulus":[],"xmouse":[781,781,781,781,781,781,781,781,781,781,781,781,781,781,781,781,781,781,781,781,781,781,781,781,781,779,776,773,763,745,729,722,719,716,710,687,672,658,637,621,594,591,589,587,580,569,535,493],"ymouse":[635,635,635,635,635,635,635,635,635,635,635,635,635,635,635,635,635,635,635,635,635,635,635,635,633,626,612,588,558,507,453,431,414,393,372,327,306,285,256,236,202,199,197,195,183,166,127,89],"timestamp_mouse":[14,38,48,66,88,107,126,146,167,188,206,228,248,268,288,306,328,346,367,388,408,428,447,468,487,508,527,548,567,587,607,627,647,667,688,707,727,747,766,787,808,827,846,867,887,908,928,947],"xSR":741.5,"ySR":573.95,"xT1":424.9,"yT1":0,"xT2":1058.1,"yT2":0,"toosoon":0,"cond_shown":"Incongruent","ratio_trial":100,"L_num":9,"L_den":18,"R_num":6,"R_den":10,"correct_side":2,"subjID":"JuanDiegoAguileraPinzon32","gender":"0","school":"4","age":"9"},{"start_time":1552327938499,"click_time":1552327939544,"finger_time":1552327939305,"fix_duration":573.8919686949341,"trial":37,"RT":806,"MT":239,"sideResp":2,"stimulus":[],"xmouse":[761,761,761,762,762,762,762,762,762,762,762,762,762,762,761,759,759,759,759,759,759,759,759,759,759,759,759,759,759,759,759,759,759,759,756,756,756,754,751,744,740,736,736,736,736,736,737,752,837,904,951,1011,1079],"ymouse":[610,610,610,607,607,607,607,607,607,607,607,607,607,607,607,607,607,607,607,607,607,607,607,607,607,607,607,607,607,607,607,607,608,610,612,612,612,613,614,618,621,623,624,624,624,624,622,602,474,339,224,109,24],"timestamp_mouse":[5,39,45,65,86,104,126,146,164,185,206,226,246,265,286,305,325,344,365,386,406,426,446,464,486,506,525,545,564,586,606,625,644,664,686,706,725,746,764,785,806,825,845,866,886,905,924,945,965,985,1004,1026,1045],"xSR":741.5,"ySR":573.95,"xT1":424.9,"yT1":0,"xT2":1058.1,"yT2":0,"toosoon":0,"cond_shown":"Congruent","ratio_trial":100,"L_num":6,"L_den":20,"R_num":5,"R_den":25,"correct_side":1,"subjID":"JuanDiegoAguileraPinzon32","gender":"0","school":"4","age":"9"},{"start_time":1552327941244,"click_time":1552327942564,"finger_time":1552327941924,"fix_duration":379.707962263909,"trial":38,"RT":680,"MT":640,"sideResp":1,"stimulus":[],"xmouse":[792,792,793,794,795,795,795,795,795,796,796,796,796,796,796,796,796,796,796,796,796,796,796,798,800,801,802,803,803,803,803,803,803,804,786,753,696,686,679,675,672,672,672,672,673,675,676,676,674,665,624,555,546,546,546,546,546,546,545,544,543,543,542,542,542,540,524],"ymouse":[610,610,610,610,610,610,610,610,610,611,611,611,611,611,611,611,611,611,611,611,611,611,611,611,610,609,608,608,608,608,608,608,599,575,518,440,308,272,248,229,208,171,145,122,103,89,81,81,81,81,81,78,77,77,77,77,77,77,77,77,77,77,77,77,77,77,74],"timestamp_mouse":[10,21,40,61,80,101,121,140,159,180,199,221,241,261,281,301,321,340,360,380,400,420,440,459,480,501,520,540,560,580,600,619,640,661,680,700,720,739,760,780,800,820,840,861,879,901,920,941,961,981,1002,1020,1040,1060,1079,1101,1120,1140,1160,1181,1200,1220,1239,1260,1279,1299,1320],"xSR":741.5,"ySR":573.95,"xT1":424.9,"yT1":0,"xT2":1058.1,"yT2":0,"toosoon":0,"cond_shown":"Incongruent","ratio_trial":100,"L_num":11,"L_den":22,"R_num":9,"R_den":15,"correct_side":2,"subjID":"JuanDiegoAguileraPinzon32","gender":"0","school":"4","age":"9"},{"start_time":1552327944000,"click_time":1552327946325,"finger_time":1552327944184,"fix_duration":374.3266082853022,"trial":39,"RT":184,"MT":2141,"sideResp":1,"stimulus":[],"xmouse":[776,776,774,774,773,773,772,772,770,767,766,764,764,762,758,752,744,735,707,684,648,608,571,566,566,566,566,566,566,566,566,567,568,570,571,572,572,572,580,599,636,672,726,758,767,773,784,798,827,836,839,839,839,839,839,839,839,838,836,806,800,765,749,744,744,744,744,744,744,744,744,744,744,742,736,725,708,688,655,652,652,654,659,658,651,640,625,612,598,582,576,550,525,422,360,311,284,271,270,272,275,275,277,293,309,333,358,382,401,418,421,422,422,422,422,424,428],"ymouse":[626,626,626,626,626,626,626,620,587,557,528,503,480,437,422,408,394,380,351,336,320,302,286,283,283,283,283,283,282,282,281,280,279,278,278,278,278,286,372,435,501,546,600,620,623,626,632,639,653,657,658,658,658,658,658,658,658,658,658,657,655,641,631,625,624,624,624,624,624,624,624,622,621,617,611,602,591,574,516,486,458,430,384,336,313,290,269,251,221,200,192,175,165,120,92,62,38,11,0,0,0,0,0,0,5,13,22,33,43,54,57,57,57,57,57,57,58],"timestamp_mouse":[15,25,47,64,83,104,123,143,163,184,204,224,244,264,284,305,324,343,364,383,404,424,445,464,483,504,525,544,564,583,604,625,645,664,684,703,724,743,764,784,804,825,844,864,883,903,924,943,963,985,1004,1023,1044,1064,1083,1104,1125,1145,1164,1183,1204,1225,1245,1264,1284,1304,1325,1345,1364,1385,1404,1424,1443,1465,1484,1504,1524,1543,1565,1584,1604,1623,1644,1665,1683,1704,1724,1745,1764,1783,1804,1824,1844,1864,1883,1904,1924,1943,1965,1985,2005,2024,2043,2065,2083,2105,2123,2144,2163,2184,2204,2225,2244,2265,2285,2304,2324],"xSR":741.5,"ySR":573.95,"xT1":424.9,"yT1":0,"xT2":1058.1,"yT2":0,"toosoon":0,"cond_shown":"Congruent","ratio_trial":100,"L_num":1,"L_den":2,"R_num":18,"R_den":30,"correct_side":2,"subjID":"JuanDiegoAguileraPinzon32","gender":"0","school":"4","age":"9"},{"start_time":1552327948480,"click_time":1552327951206,"finger_time":1552327950364,"fix_duration":1034.5038433766642,"trial":40,"RT":1884,"MT":842,"sideResp":2,"stimulus":[],"xmouse":[777,777,777,777,777,777,777,777,778,778,778,778,778,778,778,778,778,778,778,779,779,779,779,779,779,779,779,779,779,779,779,779,779,779,779,779,779,779,779,779,779,779,779,779,779,779,779,779,779,779,779,779,780,780,780,780,780,780,780,780,780,780,780,780,780,780,781,781,781,782,783,783,783,783,783,783,784,784,784,784,786,786,787,787,787,789,791,792,792,794,797,797,799,799,802,819,828,833,834,834,834,834,834,834,831,824,826,832,834,835,837,838,838,838,838,845,853,861,871,885,921,940,949,949,949,959,968,981,993,1005,1030,1039,1049,1056,1066,1083,1097],"ymouse":[636,636,636,636,636,636,636,636,635,635,635,635,635,635,635,635,635,635,635,634,634,634,634,634,634,634,634,634,634,634,634,634,634,634,634,634,634,634,634,634,634,634,634,634,634,634,634,634,634,634,634,634,632,631,631,631,631,631,631,631,631,631,631,631,630,629,628,627,625,625,623,623,622,620,620,617,616,614,613,612,606,605,604,602,601,598,594,592,590,588,583,582,578,575,569,532,512,501,494,490,490,490,490,490,489,487,485,482,480,476,469,468,466,462,456,422,397,373,357,344,328,325,325,325,325,307,295,280,267,252,222,205,189,171,145,111,97],"timestamp_mouse":[13,36,44,65,83,104,123,144,164,184,204,225,243,265,285,303,323,344,365,385,404,424,445,464,485,505,525,545,564,583,605,625,645,664,684,704,725,744,765,785,805,825,844,863,884,904,925,944,965,985,1005,1024,1044,1065,1084,1104,1125,1144,1165,1184,1204,1225,1245,1265,1284,1304,1324,1345,1363,1385,1404,1424,1445,1464,1483,1503,1525,1544,1565,1583,1604,1625,1644,1664,1684,1704,1725,1745,1764,1784,1804,1825,1845,1864,1884,1903,1925,1944,1964,1984,2004,2024,2044,2064,2083,2103,2124,2144,2163,2185,2203,2223,2244,2265,2284,2304,2325,2343,2364,2384,2403,2424,2443,2465,2484,2504,2523,2544,2564,2583,2604,2624,2644,2665,2684,2704,2725],"xSR":741.5,"ySR":573.95,"xT1":424.9,"yT1":0,"xT2":1058.1,"yT2":0,"toosoon":0,"cond_shown":"Congruent","ratio_trial":200,"L_num":1,"L_den":2,"R_num":21,"R_den":30,"correct_side":2,"subjID":"JuanDiegoAguileraPinzon32","gender":"0","school":"4","age":"9"},{"start_time":1552327953573,"click_time":1552327955843,"finger_time":1552327954985,"fix_duration":1288.1540055660626,"trial":41,"RT":1412,"MT":858,"sideResp":1,"stimulus":[],"xmouse":[796,796,796,796,796,795,795,795,795,795,795,795,795,795,795,795,795,795,795,795,795,795,795,795,795,795,795,795,795,795,795,795,795,795,795,795,795,795,795,795,795,795,795,795,795,795,795,795,795,795,795,795,795,795,795,795,795,795,795,795,795,795,795,795,795,796,798,799,800,802,809,814,819,826,832,839,841,843,845,846,848,848,848,848,846,845,845,843,841,836,827,819,801,775,747,729,705,694,686,677,661,631,629,629,628,628,621,614,602,587,555,541,526,505],"ymouse":[589,589,589,589,589,588,588,588,588,588,588,588,588,588,588,588,588,588,588,588,588,588,588,588,588,588,588,588,588,588,588,588,588,588,588,588,588,588,588,588,588,588,588,588,586,585,584,584,584,584,584,584,584,584,584,584,584,584,584,584,584,584,584,584,584,582,580,579,577,575,566,561,556,548,541,532,530,527,525,522,513,510,507,504,500,495,490,478,462,446,370,307,235,168,106,63,9,0,0,0,0,0,0,0,0,0,3,7,13,18,25,26,28,28],"timestamp_mouse":[13,44,50,71,91,110,132,151,171,191,212,231,252,272,291,311,332,351,371,390,412,431,450,470,492,511,531,551,572,590,612,631,651,672,691,711,732,751,771,791,811,832,852,870,891,911,932,951,972,991,1011,1032,1052,1070,1092,1112,1131,1150,1172,1192,1211,1232,1250,1271,1292,1312,1332,1351,1372,1392,1412,1431,1451,1471,1491,1512,1530,1550,1570,1592,1612,1631,1651,1671,1691,1712,1730,1752,1770,1790,1811,1831,1851,1872,1892,1911,1931,1951,1971,1991,2010,2032,2051,2072,2091,2112,2131,2151,2171,2192,2214,2230,2251,2270],"xSR":741.5,"ySR":573.95,"xT1":424.9,"yT1":0,"xT2":1058.1,"yT2":0,"toosoon":0,"cond_shown":"Incongruent","ratio_trial":200,"L_num":3,"L_den":4,"R_num":11,"R_den":20,"correct_side":1,"subjID":"JuanDiegoAguileraPinzon32","gender":"0","school":"4","age":"9"},{"start_time":1552327959598,"click_time":1552327961706,"finger_time":1552327961284,"fix_duration":292.89700119088104,"trial":42,"RT":1686,"MT":422,"sideResp":1,"stimulus":[],"xmouse":[798,798,796,790,780,778,778,778,778,778,778,778,778,778,778,778,778,778,778,778,778,778,778,778,778,778,778,778,778,778,778,778,778,778,778,778,778,778,778,778,778,778,778,778,778,778,778,778,778,778,778,778,778,778,778,778,778,778,778,778,778,778,778,778,778,778,778,778,778,778,778,778,778,778,778,778,778,778,778,778,778,779,781,782,783,784,784,769,745,719,663,648,641,639,636,634,624,614,602,596,588,583,576,559,545,513],"ymouse":[613,613,613,615,615,615,615,615,615,615,615,615,615,615,615,615,615,615,615,615,615,615,615,615,615,615,615,615,615,615,615,615,615,615,615,615,615,615,615,615,615,615,615,615,615,615,615,615,615,615,615,615,615,615,615,615,615,615,615,615,615,615,615,615,615,615,615,615,615,615,615,615,615,615,615,615,615,615,615,615,611,601,589,576,569,474,395,313,239,167,38,3,0,0,0,0,0,0,0,0,0,0,3,11,17,23],"timestamp_mouse":[13,36,46,66,86,105,127,147,165,186,206,227,246,265,285,306,326,347,366,386,406,425,447,466,486,507,526,547,567,586,606,627,647,666,687,706,727,747,766,786,806,826,846,866,886,905,926,946,966,986,1007,1026,1046,1067,1086,1106,1125,1147,1167,1187,1206,1227,1246,1266,1286,1305,1327,1346,1366,1386,1405,1427,1447,1466,1486,1506,1527,1546,1567,1586,1605,1626,1646,1667,1686,1706,1726,1746,1766,1786,1806,1825,1846,1867,1887,1906,1926,1947,1966,1985,2007,2026,2047,2067,2085,2107],"xSR":741.5,"ySR":573.95,"xT1":424.9,"yT1":0,"xT2":1058.1,"yT2":0,"toosoon":0,"cond_shown":"Incongruent","ratio_trial":300,"L_num":8,"L_den":10,"R_num":9,"R_den":18,"correct_side":1,"subjID":"JuanDiegoAguileraPinzon32","gender":"0","school":"4","age":"9"},{"start_time":1552327964495,"click_time":1552327965884,"finger_time":1552327965506,"fix_duration":250,"trial":43,"RT":1011,"MT":378,"sideResp":2,"stimulus":[],"xmouse":[769,769,769,769,769,769,769,769,769,769,769,769,769,769,769,769,769,769,769,769,769,769,769,769,769,769,769,769,769,769,769,769,770,771,771,771,771,771,771,771,771,771,771,771,771,772,774,777,779,782,789,853,933,1015,1083,1110,1124,1125,1126,1126,1127,1127,1127,1127,1127,1127,1127,1127,1127,1127],"ymouse":[610,610,610,610,610,610,610,610,610,610,610,610,610,610,610,610,610,610,610,610,610,610,611,611,611,611,611,611,611,611,611,611,611,611,611,611,611,611,611,611,611,611,611,611,611,611,606,598,589,575,560,468,390,306,220,163,111,109,107,107,107,107,107,107,107,107,107,107,102,94],"timestamp_mouse":[9,29,50,70,89,110,130,149,169,188,210,228,250,270,289,308,329,350,370,390,409,429,449,469,489,510,530,548,568,590,609,629,648,669,689,710,729,749,770,790,810,828,850,870,890,909,929,950,969,989,1011,1028,1050,1069,1090,1109,1128,1150,1168,1189,1209,1229,1250,1269,1289,1309,1329,1350,1369,1388],"xSR":741.5,"ySR":573.95,"xT1":424.9,"yT1":0,"xT2":1058.1,"yT2":0,"toosoon":0,"cond_shown":"Incongruent","ratio_trial":300,"L_num":8,"L_den":10,"R_num":9,"R_den":18,"correct_side":1,"subjID":"JuanDiegoAguileraPinzon32","gender":"0","school":"4","age":"9"},{"start_time":1552327967697,"click_time":1552327970564,"finger_time":1552327969663,"fix_duration":552.5512182881924,"trial":44,"RT":1966,"MT":901,"sideResp":1,"stimulus":[],"xmouse":[750,750,750,750,750,750,750,750,750,750,751,754,759,765,772,777,782,782,782,782,782,782,782,782,782,782,782,782,782,782,782,782,782,782,782,782,782,782,782,782,782,782,782,782,782,782,782,782,782,782,782,782,782,782,782,782,782,782,782,782,782,782,782,782,782,782,782,782,782,782,782,782,782,782,782,782,782,782,782,782,782,782,782,782,782,782,782,782,782,782,782,782,782,782,783,783,795,801,807,811,813,813,813,812,809,804,798,794,788,779,766,747,717,706,691,681,667,662,660,659,659,659,650,640,627,619,612,605,603,600,594,581,575,570,563,557,551,543,541,539,538,532,527,519],"ymouse":[633,633,633,633,633,633,633,633,633,633,633,633,633,633,631,629,626,626,626,626,626,626,626,626,626,626,626,626,626,626,626,626,626,626,626,626,626,626,626,626,626,626,626,626,626,626,626,626,626,626,626,626,626,626,626,626,626,626,626,626,626,626,626,626,626,626,626,626,626,626,626,626,626,626,626,626,626,626,626,626,626,626,626,626,626,626,626,626,626,626,626,626,626,626,624,623,598,582,563,545,526,480,453,427,403,366,327,312,298,279,257,225,168,147,114,95,74,73,73,73,73,73,72,68,66,65,63,63,63,63,64,64,64,64,64,64,64,64,64,64,64,63,62,61],"timestamp_mouse":[12,41,47,68,87,108,128,148,166,187,208,227,248,268,287,308,326,346,368,388,406,427,448,468,487,508,527,548,568,588,606,628,646,668,688,708,727,748,767,787,807,827,846,868,886,908,927,947,966,987,1008,1026,1048,1068,1086,1107,1128,1146,1168,1187,1208,1228,1246,1267,1287,1306,1327,1348,1366,1387,1407,1427,1447,1467,1487,1508,1528,1547,1566,1587,1608,1627,1648,1667,1688,1708,1728,1746,1767,1787,1808,1826,1847,1868,1888,1907,1926,1946,1966,1988,2007,2027,2047,2068,2087,2106,2127,2146,2166,2187,2207,2226,2246,2267,2287,2308,2327,2346,2368,2387,2407,2426,2448,2467,2487,2507,2527,2546,2567,2586,2606,2627,2647,2667,2687,2707,2727,2747,2767,2787,2808,2827,2847,2867],"xSR":741.5,"ySR":573.95,"xT1":424.9,"yT1":0,"xT2":1058.1,"yT2":0,"toosoon":0,"cond_shown":"Incongruent","ratio_trial":200,"L_num":3,"L_den":4,"R_num":11,"R_den":20,"correct_side":1,"subjID":"JuanDiegoAguileraPinzon32","gender":"0","school":"4","age":"9"},{"start_time":1552327972818,"click_time":1552327974024,"finger_time":1552327973504,"fix_duration":1310.0297877253236,"trial":45,"RT":686,"MT":520,"sideResp":1,"stimulus":[],"xmouse":[789,789,789,789,789,789,789,789,789,789,789,789,789,789,789,789,789,789,789,789,788,787,787,787,787,787,787,787,787,787,787,790,795,799,802,806,806,801,774,754,741,733,733,731,729,719,700,691,655,631,612,580,566,556,553,542,531,528,527,526,524],"ymouse":[632,632,632,632,632,632,632,632,632,632,632,632,632,632,632,632,632,632,632,632,632,632,632,632,632,632,632,632,632,632,626,613,597,578,557,504,463,406,316,270,238,216,214,211,207,196,173,161,122,97,81,58,53,51,50,50,50,50,50,50,50],"timestamp_mouse":[12,37,47,67,85,107,127,145,167,187,206,226,247,267,287,307,327,345,366,386,406,425,447,467,486,507,525,547,566,585,607,626,646,667,686,707,726,745,766,786,807,826,847,867,887,907,926,945,967,987,1006,1026,1046,1066,1086,1108,1126,1147,1166,1186,1206],"xSR":741.5,"ySR":573.95,"xT1":424.9,"yT1":0,"xT2":1058.1,"yT2":0,"toosoon":0,"cond_shown":"Congruent","ratio_trial":100,"L_num":11,"L_den":22,"R_num":4,"R_den":10,"correct_side":1,"subjID":"JuanDiegoAguileraPinzon32","gender":"0","school":"4","age":"9"},{"start_time":1552327981889,"click_time":1552327984025,"finger_time":1552327983844,"fix_duration":1483.0605494026468,"trial":46,"RT":1955,"MT":181,"sideResp":1,"stimulus":[],"xmouse":[769,769,769,769,769,769,769,769,769,769,769,769,769,769,769,769,769,769,769,769,774,783,791,800,801,801,802,802,802,802,802,802,802,802,802,802,802,803,805,806,807,808,808,808,808,808,808,808,808,808,808,808,808,808,808,807,806,805,799,794,792,791,788,788,788,788,788,788,788,788,788,788,788,788,788,788,788,788,788,788,788,788,788,788,788,787,787,787,788,793,797,798,798,798,800,800,802,807,844,850,849,825,714,660,579,544,482],"ymouse":[628,628,628,628,628,628,628,628,628,628,628,628,628,628,628,628,628,628,628,627,622,615,609,605,604,603,603,603,603,603,603,603,603,603,603,603,603,603,601,599,598,598,598,598,598,598,598,598,598,598,598,598,598,598,598,603,605,609,622,631,634,639,642,642,642,642,642,642,642,642,642,642,642,642,643,643,643,643,643,643,643,643,643,643,644,644,644,644,643,641,640,640,640,640,629,620,596,572,509,478,449,416,320,251,180,142,83],"timestamp_mouse":[22,42,54,75,95,115,135,155,176,195,215,234,256,275,295,315,336,354,374,395,416,435,454,475,495,516,534,555,576,595,614,636,656,676,696,716,736,756,774,795,816,835,856,875,895,916,935,956,975,996,1016,1036,1055,1075,1096,1115,1136,1155,1175,1196,1215,1235,1256,1275,1296,1316,1336,1354,1374,1395,1414,1436,1456,1475,1494,1516,1534,1556,1576,1595,1616,1635,1654,1675,1695,1715,1735,1755,1774,1794,1815,1836,1855,1874,1895,1915,1936,1955,1975,1994,2015,2035,2057,2074,2094,2114,2136],"xSR":741.5,"ySR":573.95,"xT1":424.9,"yT1":0,"xT2":1058.1,"yT2":0,"toosoon":0,"cond_shown":"Incongruent","ratio_trial":200,"L_num":1,"L_den":3,"R_num":2,"R_den":15,"correct_side":1,"subjID":"JuanDiegoAguileraPinzon32","gender":"0","school":"4","age":"9"},{"start_time":1552327986260,"click_time":1552327988743,"finger_time":1552327987163,"fix_duration":873.6185343541111,"trial":47,"RT":903,"MT":1580,"sideResp":1,"stimulus":[],"xmouse":[808,809,809,810,810,810,810,810,810,810,810,810,812,814,816,818,818,818,819,820,822,822,824,826,827,827,827,827,827,827,827,828,828,828,828,828,828,828,828,828,828,828,828,827,825,819,811,803,789,739,638,609,548,531,524,518,515,510,500,490,465,449,431,412,393,370,370,368,368,367,366,364,357,354,352,350,350,352,364,378,389,400,403,406,407,410,41