[{"start_time":1552328455485,"click_time":1552328509888,"finger_time":1552328508650,"fix_duration":250,"trial":0,"RT":53165,"MT":1238,"sideResp":2,"stimulus":"img/500/equaldotanddens/R/2_Ratio_500_L_3_R_6.png","xmouse":[802,796,791,790,790,790,790,790,790,790,790,790,790,790,790,790,790,790,790,790,790,790,790,790,790,790,790,790,790,790,790,790,790,790,790,790,790,790,790,790,790,790,790,790,790,790,790,790,790,790,790,790,790,790,790,790,790,790,790,790,790,790,790,790,790,790,790,790,790,790,790,790,790,790,790,790,790,790,790,790,790,790,790,790,790,790,790,790,790,790,790,790,790,790,790,790,790,790,790,790,790,790,790,790,790,790,790,790,790,790,790,790,790,790,790,790,790,790,790,790,790,790,790,790,790,790,790,790,790,790,790,790,790,790,790,790,790,790,790,790,790,790,790,790,790,790,790,790,790,790,790,790,790,790,790,790,790,790,790,790,790,790,790,790,790,790,790,790,790,790,790,790,790,790,790,790,790,790,790,790,790,790,790,790,790,790,790,790,790,790,790,790,790,790,790,790,790,790,790,790,790,790,790,790,790,790,790,790,790,790,790,790,790,790,790,790,790,790,790,790,790,790,790,790,790,790,790,790,790,790,790,790,790,790,790,790,790,790,790,790,790,790,790,790,790,790,790,790,790,790,790,790,790,790,790,790,790,790,790,790,790,790,790,790,790,790,790,790,790,790,790,790,790,790,790,790,790,790,790,790,790,790,790,790,790,790,790,790,790,790,790,790,790,790,790,790,790,790,790,790,790,790,790,790,790,790,790,790,790,790,790,790,790,790,790,790,790,790,790,790,790,790,790,790,790,789,789,789,789,789,789,789,789,789,789,789,789,789,789,789,789,789,789,789,789,789,789,789,789,789,789,789,789,789,789,789,789,789,789,789,789,789,789,789,789,789,789,789,789,789,789,789,789,789,789,789,789,789,789,789,789,789,789,789,789,789,789,789,789,789,789,789,789,789,789,789,789,789,789,789,789,789,789,789,789,789,789,789,789,789,789,789,789,789,789,789,789,789,789,789,789,789,789,789,789,789,789,789,789,789,789,789,789,789,789,789,789,789,789,789,789,789,789,789,789,789,789,789,789,789,789,789,789,789,789,789,789,789,789,789,789,789,789,789,789,789,789,789,789,789,789,789,789,789,789,789,789,789,789,789,789,789,789,789,789,789,789,789,789,789,789,789,789,789,789,789,789,789,789,789,789,789,789,789,789,789,789,789,789,789,789,789,789,789,789,789,789,789,789,789,789,789,789,789,789,789,789,789,789,789,789,789,789,789,789,789,789,789,789,789,789,789,789,789,789,789,789,789,789,789,789,789,789,789,789,789,789,789,789,789,789,789,789,789,789,789,789,789,789,789,789,789,789,789,789,789,789,789,789,789,789,789,789,789,789,789,789,789,789,789,789,789,789,789,789,789,789,789,789,789,789,789,789,789,789,789,789,789,789,789,789,789,789,789,789,789,789,789,789,789,789,789,789,789,789,789,789,789,789,789,789,789,789,789,789,789,789,789,789,789,789,789,789,789,789,789,789,789,789,789,789,789,789,789,789,789,789,789,789,789,789,789,789,789,789,789,789,789,789,789,789,789,789,789,789,789,789,789,789,789,789,789,789,789,789,789,789,789,789,789,789,789,789,789,789,789,789,789,789,789,789,789,789,789,789,789,789,789,789,789,789,789,789,789,789,789,789,789,789,789,789,789,789,789,789,789,789,789,789,789,789,789,789,789,789,789,789,789,789,789,789,789,789,789,789,789,789,789,789,789,789,789,789,789,789,789,789,789,789,789,789,789,789,789,789,789,789,789,789,789,789,789,789,789,789,789,789,789,789,789,789,789,789,789,789,789,789,789,789,789,789,789,789,789,789,789,789,789,789,789,789,789,789,789,789,789,789,789,789,789,789,789,789,789,789,789,789,789,789,789,789,789,789,789,789,789,789,789,789,789,789,789,789,789,789,789,789,789,789,789,789,789,789,789,789,789,789,789,789,789,789,789,789,789,789,789,789,789,789,789,789,789,789,789,789,789,789,789,789,789,789,789,789,789,789,789,789,789,789,789,789,789,789,789,789,789,789,789,789,789,789,789,789,789,789,789,789,789,789,789,789,789,789,789,789,789,789,789,789,789,789,789,789,789,789,789,789,789,789,789,789,789,789,789,789,789,789,789,789,789,789,789,789,789,789,789,789,789,789,789,789,789,789,789,789,789,789,789,789,789,789,789,789,789,789,789,789,789,789,789,789,789,789,789,789,789,789,789,789,789,789,789,789,789,789,789,789,789,789,789,789,789,789,789,789,789,789,789,789,789,789,789,789,789,789,789,789,789,789,789,789,789,789,789,789,789,789,789,789,789,789,789,789,789,789,789,789,789,789,789,789,789,789,789,789,789,789,789,789,789,789,789,789,789,789,789,789,789,789,789,789,789,789,789,789,789,789,789,789,789,789,789,789,789,789,789,789,789,789,789,789,789,789,789,789,789,789,789,789,789,789,789,789,789,789,789,789,789,789,789,789,789,789,789,789,789,789,789,789,789,789,789,789,789,789,789,789,789,789,789,789,789,789,789,789,789,789,789,789,789,789,789,789,789,789,789,789,789,789,789,789,789,789,789,789,789,789,789,789,789,789,789,789,789,789,789,789,789,789,789,789,789,789,789,789,789,789,789,789,789,789,789,789,789,789,789,789,789,789,789,789,789,789,789,789,789,789,789,789,789,789,789,789,789,789,789,789,789,789,789,789,789,789,789,789,789,789,789,789,789,789,789,789,789,789,789,789,789,789,789,789,789,789,789,789,789,789,789,789,789,789,789,789,789,789,789,789,789,789,789,789,789,789,789,789,789,789,789,789,789,789,789,789,789,789,789,789,789,789,789,789,789,789,789,789,789,789,789,789,789,789,789,789,789,789,789,789,789,789,789,789,789,789,789,789,789,789,789,789,789,789,789,789,789,789,789,789,789,789,789,789,789,789,789,789,789,789,789,789,789,789,789,789,789,789,789,789,789,789,789,789,789,789,789,789,789,789,789,789,789,789,789,789,789,789,789,789,789,789,789,789,789,789,789,789,789,789,789,789,789,789,789,789,789,789,789,789,789,789,789,789,789,789,789,789,789,789,789,789,789,789,789,789,789,789,789,789,789,789,789,789,789,789,789,789,789,789,789,789,789,789,789,789,789,789,789,789,789,789,789,789,789,789,789,789,789,789,789,789,789,789,789,789,789,789,789,789,789,789,789,789,789,789,789,789,789,789,789,789,789,789,789,789,789,789,789,789,789,789,789,789,789,789,789,789,789,789,789,789,789,789,789,789,789,789,789,789,789,789,789,789,789,789,789,789,789,789,789,789,789,789,789,789,789,789,789,789,789,789,789,789,789,789,789,789,789,789,789,789,789,789,789,789,789,789,789,789,789,789,789,789,789,789,789,789,789,789,789,789,789,789,789,789,789,789,789,789,789,789,789,789,789,789,789,789,789,789,789,789,789,789,789,789,789,789,789,789,789,789,789,789,789,789,789,789,789,789,789,789,789,789,789,789,789,789,789,789,789,789,789,789,789,789,789,789,789,789,789,789,789,789,789,789,789,789,789,789,789,789,789,789,789,789,789,789,789,789,789,789,789,789,789,789,789,789,789,789,789,789,789,789,789,789,789,789,789,789,789,789,789,789,789,789,789,789,789,789,789,789,789,789,789,789,789,789,789,789,789,789,789,789,789,789,789,789,789,789,789,789,789,789,789,789,789,789,789,789,789,789,789,789,789,789,789,789,789,789,789,789,789,789,789,789,789,789,789,789,789,789,789,789,789,789,789,789,789,789,789,789,789,789,789,789,789,789,789,789,789,789,789,789,789,789,789,789,789,789,789,789,789,789,789,789,789,789,789,789,789,789,789,789,789,789,789,789,789,789,789,789,789,789,789,789,789,789,789,789,789,789,789,789,789,789,789,789,789,789,789,789,789,789,789,789,789,789,789,789,789,789,789,789,789,789,789,789,789,789,789,789,789,789,789,789,789,789,789,789,789,789,789,789,789,789,789,789,789,789,789,789,789,789,789,789,789,789,789,789,789,789,789,789,789,789,789,789,789,789,789,789,789,789,789,789,789,789,789,789,789,789,789,789,789,789,789,789,789,789,789,789,789,789,789,789,789,789,789,789,789,789,789,789,789,789,789,789,789,789,789,789,789,789,789,789,789,789,789,789,789,789,789,789,789,789,789,789,789,789,789,789,789,789,789,789,789,789,789,789,789,789,789,789,789,789,789,789,789,789,789,789,789,789,789,789,789,789,789,789,789,789,789,789,789,789,789,789,789,789,789,789,789,789,789,789,789,789,789,789,789,789,789,789,789,789,789,789,789,789,789,789,789,789,789,789,789,789,789,789,789,789,789,789,789,789,789,789,789,789,789,789,789,789,789,789,789,789,789,789,789,789,789,789,789,789,789,789,789,789,789,789,789,789,789,789,789,789,789,789,789,789,789,789,789,789,789,789,789,789,789,789,789,789,789,789,789,789,789,789,789,789,789,789,789,789,789,789,789,789,789,789,789,789,789,789,789,789,789,789,789,789,789,789,789,789,789,789,789,789,789,789,789,789,789,789,789,789,789,789,789,789,789,789,789,789,789,789,789,789,789,789,789,789,789,789,789,789,789,789,789,789,789,789,789,789,789,789,789,789,789,789,789,789,789,789,789,789,789,789,789,789,789,789,789,789,789,789,789,789,789,789,789,789,789,789,789,789,789,789,789,789,789,789,789,789,789,789,789,789,789,789,789,789,789,789,789,789,789,789,789,789,789,789,789,789,789,789,789,789,789,789,789,789,789,789,789,789,789,789,789,789,789,789,789,789,789,789,789,789,789,789,789,789,789,789,789,789,789,789,789,789,789,789,789,789,789,789,789,789,789,789,789,789,789,789,789,789,789,789,789,789,789,789,789,789,789,789,789,789,789,789,789,789,789,789,789,789,789,789,789,789,789,789,789,789,789,789,789,789,789,789,789,789,789,789,789,789,789,789,789,789,789,789,789,789,789,789,789,789,789,789,789,789,789,789,789,789,789,789,789,789,789,789,789,789,789,789,789,789,789,789,789,789,789,789,789,789,789,789,789,789,789,789,789,789,789,789,789,789,789,789,789,789,789,789,789,789,789,789,789,789,789,789,789,789,789,789,789,789,789,789,789,789,789,789,789,789,789,789,789,789,789,789,789,789,789,789,789,789,789,789,789,789,789,789,789,789,789,789,789,789,789,789,789,789,789,789,789,789,789,789,789,789,789,789,789,789,789,789,789,789,789,789,789,789,789,789,789,789,789,789,789,789,789,789,789,789,789,789,789,789,789,789,789,789,789,789,789,789,789,789,789,789,789,789,789,789,789,789,789,789,789,789,789,789,789,789,789,789,789,789,789,789,789,789,789,789,789,789,789,789,789,789,789,789,789,789,789,789,789,789,789,789,789,789,789,789,789,789,789,789,789,789,789,789,789,789,789,789,789,789,789,789,789,789,789,789,789,789,789,789,789,789,789,789,789,789,789,789,789,789,789,789,789,789,789,789,789,789,789,789,789,789,789,789,789,789,789,789,789,789,789,789,789,789,789,789,789,789,789,789,789,789,789,789,789,789,789,789,789,789,789,789,789,789,789,789,789,789,789,789,789,789,789,789,789,789,789,789,789,789,789,789,789,789,789,789,789,789,789,789,789,789,789,789,789,789,789,789,789,789,789,789,789,789,789,789,789,789,789,789,789,789,789,789,789,789,789,789,789,789,789,789,789,789,789,789,789,789,789,789,789,789,789,789,789,789,789,789,789,789,789,789,789,789,789,789,789,789,789,789,789,789,789,789,789,789,789,789,789,789,789,789,789,789,789,789,789,789,789,789,789,789,789,789,789,789,789,789,789,789,789,789,789,789,789,789,789,789,789,789,789,789,789,789,789,789,789,789,789,789,789,789,789,789,789,789,789,789,789,789,789,789,789,789,789,789,789,789,789,789,789,789,789,789,789,789,789,789,789,789,789,789,789,789,789,789,789,789,789,789,789,789,789,789,789,789,789,789,789,789,789,789,789,789,789,789,789,785,759,750,806,855,1043,1176,1343,1396,1449,1467,1475,1487,1498,1507,1511,1513,1510,1503,1480,1457,1425,1356,1317,1289,1268,1258,1250,1249,1248,1242,1230,1181,1163,1159,1159,1159,1154,1150,1144,1144,1144,1144,1144,1142,1141,1139,1135,1135,1135,1129,1125,1118,1117,1117,1117,1117,1115,1115,1115,1115,1115,1115,1114,1114],"ymouse":[522,517,513,513,513,513,513,513,513,513,513,513,513,513,513,513,513,513,513,513,513,513,513,513,513,513,513,513,513,513,513,513,513,513,513,513,513,513,513,513,513,513,513,513,513,513,513,513,513,513,513,513,513,513,513,513,513,513,513,513,513,513,513,513,513,513,513,513,513,513,513,513,513,513,513,513,513,513,513,513,513,513,513,513,513,513,513,513,513,513,513,513,513,513,513,513,513,513,513,513,513,513,513,513,513,513,513,513,513,513,513,513,513,513,513,513,513,513,513,513,513,513,513,513,513,513,513,513,513,513,513,513,513,513,513,513,513,513,513,513,513,513,513,513,513,513,513,513,513,513,513,513,513,513,513,513,513,513,513,513,513,513,513,513,513,513,513,513,513,513,513,513,513,513,513,513,513,513,513,513,513,513,513,513,513,513,513,513,513,513,513,513,513,513,513,513,513,513,513,513,513,513,513,513,513,513,513,513,513,513,513,513,513,513,513,513,513,513,513,513,513,513,513,513,513,513,513,513,513,513,513,513,513,513,513,513,513,513,513,513,513,513,513,513,513,513,513,513,513,513,513,513,513,513,513,513,513,513,513,513,513,513,513,513,513,513,513,513,513,513,513,513,513,513,513,513,513,513,513,513,513,513,513,513,513,513,513,513,513,513,513,513,513,513,513,513,513,513,513,513,513,513,513,513,513,513,513,513,513,513,513,513,513,513,513,513,513,513,513,513,513,513,513,513,513,512,512,512,512,512,512,512,512,512,512,512,512,512,512,512,512,512,512,512,512,512,512,512,512,512,512,512,512,512,512,512,512,512,512,512,512,512,512,512,512,512,512,512,512,512,512,512,512,512,512,512,512,512,512,512,512,512,512,512,512,512,512,512,512,512,512,512,512,512,512,512,512,512,512,512,512,512,512,512,512,512,512,512,512,512,512,512,512,512,512,512,512,512,512,512,512,512,512,512,512,512,512,512,512,512,512,512,512,512,512,512,512,512,512,512,512,512,512,512,512,512,512,512,512,512,512,512,512,512,512,512,512,512,512,512,512,512,512,512,512,512,512,512,512,512,512,512,512,512,512,512,512,512,512,512,512,512,512,512,512,512,512,512,512,512,512,512,512,512,512,512,512,512,512,512,512,512,512,512,512,512,512,512,512,512,512,512,512,512,512,512,512,512,512,512,512,512,512,512,512,512,512,512,512,512,512,512,512,512,512,512,512,512,512,512,512,512,512,512,512,512,512,512,512,512,512,512,512,512,512,512,512,512,512,512,512,512,512,512,512,512,512,512,512,512,512,512,512,512,512,512,512,512,512,512,512,512,512,512,512,512,512,512,512,512,512,512,512,512,512,512,512,512,512,512,512,512,512,512,512,512,512,512,512,512,512,512,512,512,512,512,512,512,512,512,512,512,512,512,512,512,512,512,512,512,512,512,512,512,512,512,512,512,512,512,512,512,512,512,512,512,512,512,512,512,512,512,512,512,512,512,512,512,512,512,512,512,512,512,512,512,512,512,512,512,512,512,512,512,512,512,512,512,512,512,512,512,512,512,512,512,512,512,512,512,512,512,512,512,512,512,512,512,512,512,512,512,512,512,512,512,512,512,512,512,512,512,512,512,512,512,512,512,512,512,512,512,512,512,512,512,512,512,512,512,512,512,512,512,512,512,512,512,512,512,512,512,512,512,512,512,512,512,512,512,512,512,512,512,512,512,512,512,512,512,512,512,512,512,512,512,512,512,512,512,512,512,512,512,512,512,512,512,512,512,512,512,512,512,512,512,512,512,512,512,512,512,512,512,512,512,512,512,512,512,512,512,512,512,512,512,512,512,512,512,512,512,512,512,512,512,512,512,512,512,512,512,512,512,512,512,512,512,512,512,512,512,512,512,512,512,512,512,512,512,512,512,512,512,512,512,512,512,512,512,512,512,512,512,512,512,512,512,512,512,512,512,512,512,512,512,512,512,512,512,512,512,512,512,512,512,512,512,512,512,512,512,512,512,512,512,512,512,512,512,512,512,512,512,512,512,512,512,512,512,512,512,512,512,512,512,512,512,512,512,512,512,512,512,512,512,512,512,512,512,512,512,512,512,512,512,512,512,512,512,512,512,512,512,512,512,512,512,512,512,512,512,512,512,512,512,512,512,512,512,512,512,512,512,512,512,512,512,512,512,512,512,512,512,512,512,512,512,512,512,512,512,512,512,512,512,512,512,512,512,512,512,512,512,512,512,512,512,512,512,512,512,512,512,512,512,512,512,512,512,512,512,512,512,512,512,512,512,512,512,512,512,512,512,512,512,512,512,512,512,512,512,512,512,512,512,512,512,512,512,512,512,512,512,512,512,512,512,512,512,512,512,512,512,512,512,512,512,512,512,512,512,512,512,512,512,512,512,512,512,512,512,512,512,512,512,512,512,512,512,512,512,512,512,512,512,512,512,512,512,512,512,512,512,512,512,512,512,512,512,512,512,512,512,512,512,512,512,512,512,512,512,512,512,512,512,512,512,512,512,512,512,512,512,512,512,512,512,512,512,512,512,512,512,512,512,512,512,512,512,512,512,512,512,512,512,512,512,512,512,512,512,512,512,512,512,512,512,512,512,512,512,512,512,512,512,512,512,512,512,512,512,512,512,512,512,512,512,512,512,512,512,512,512,512,512,512,512,512,512,512,512,512,512,512,512,512,512,512,512,512,512,512,512,512,512,512,512,512,512,512,512,512,512,512,512,512,512,512,512,512,512,512,512,512,512,512,512,512,512,512,512,512,512,512,512,512,512,512,512,512,512,512,512,512,512,512,512,512,512,512,512,512,512,512,512,512,512,512,512,512,512,512,512,512,512,512,512,512,512,512,512,512,512,512,512,512,512,512,512,512,512,512,512,512,512,512,512,512,512,512,512,512,512,512,512,512,512,512,512,512,512,512,512,512,512,512,512,512,512,512,512,512,512,512,512,512,512,512,512,512,512,512,512,512,512,512,512,512,512,512,512,512,512,512,512,512,512,512,512,512,512,512,512,512,512,512,512,512,512,512,512,512,512,512,512,512,512,512,512,512,512,512,512,512,512,512,512,512,512,512,512,512,512,512,512,512,512,512,512,512,512,512,512,512,512,512,512,512,512,512,512,512,512,512,512,512,512,512,512,512,512,512,512,512,512,512,512,512,512,512,512,512,512,512,512,512,512,512,512,512,512,512,512,512,512,512,512,512,512,512,512,512,512,512,512,512,512,512,512,512,512,512,512,512,512,512,512,512,512,512,512,512,512,512,512,512,512,512,512,512,512,512,512,512,512,512,512,512,512,512,512,512,512,512,512,512,512,512,512,512,512,512,512,512,512,512,512,512,512,512,512,512,512,512,512,512,512,512,512,512,512,512,512,512,512,512,512,512,512,512,512,512,512,512,512,512,512,512,512,512,512,512,512,512,512,512,512,512,512,512,512,512,512,512,512,512,512,512,512,512,512,512,512,512,512,512,512,512,512,512,512,512,512,512,512,512,512,512,512,512,512,512,512,512,512,512,512,512,512,512,512,512,512,512,512,512,512,512,512,512,512,512,512,512,512,512,512,512,512,512,512,512,512,512,512,512,512,512,512,512,512,512,512,512,512,512,512,512,512,512,512,512,512,512,512,512,512,512,512,512,512,512,512,512,512,512,512,512,512,512,512,512,512,512,512,512,512,512,512,512,512,512,512,512,512,512,512,512,512,512,512,512,512,512,512,512,512,512,512,512,512,512,512,512,512,512,512,512,512,512,512,512,512,512,512,512,512,512,512,512,512,512,512,512,512,512,512,512,512,512,512,512,512,512,512,512,512,512,512,512,512,512,512,512,512,512,512,512,512,512,512,512,512,512,512,512,512,512,512,512,512,512,512,512,512,512,512,512,512,512,512,512,512,512,512,512,512,512,512,512,512,512,512,512,512,512,512,512,512,512,512,512,512,512,512,512,512,512,512,512,512,512,512,512,512,512,512,512,512,512,512,512,512,512,512,512,512,512,512,512,512,512,512,512,512,512,512,512,512,512,512,512,512,512,512,512,512,512,512,512,512,512,512,512,512,512,512,512,512,512,512,512,512,512,512,512,512,512,512,512,512,512,512,512,512,512,512,512,512,512,512,512,512,512,512,512,512,512,512,512,512,512,512,512,512,512,512,512,512,512,512,512,512,512,512,512,512,512,512,512,512,512,512,512,512,512,512,512,512,512,512,512,512,512,512,512,512,512,512,512,512,512,512,512,512,512,512,512,512,512,512,512,512,512,512,512,512,512,512,512,512,512,512,512,512,512,512,512,512,512,512,512,512,512,512,512,512,512,512,512,512,512,512,512,512,512,512,512,512,512,512,512,512,512,512,512,512,512,512,512,512,512,512,512,512,512,512,512,512,512,512,512,512,512,512,512,512,512,512,512,512,512,512,512,512,512,512,512,512,512,512,512,512,512,512,512,512,512,512,512,512,512,512,512,512,512,512,512,512,512,512,512,512,512,512,512,512,512,512,512,512,512,512,512,512,512,512,512,512,512,512,512,512,512,512,512,512,512,512,512,512,512,512,512,512,512,512,512,512,512,512,512,512,512,512,512,512,512,512,512,512,512,512,512,512,512,512,512,512,512,512,512,512,512,512,512,512,512,512,512,512,512,512,512,512,512,512,512,512,512,512,512,512,512,512,512,512,512,512,512,512,512,512,512,512,512,512,512,512,512,512,512,512,512,512,512,512,512,512,512,512,512,512,512,512,512,512,512,512,512,512,512,512,512,512,512,512,512,512,512,512,512,512,512,512,512,512,512,512,512,512,512,512,512,512,512,512,512,512,512,512,512,512,512,512,512,512,512,512,512,512,512,512,512,512,512,512,512,512,512,512,512,512,512,512,512,512,512,512,512,512,512,512,512,512,512,512,512,512,512,512,512,512,512,512,512,512,512,512,512,512,512,512,512,512,512,512,512,512,512,512,512,512,512,512,512,512,512,512,512,512,512,512,512,512,512,512,512,512,512,512,512,512,512,512,512,512,512,512,512,512,512,512,512,512,512,512,512,512,512,512,512,512,512,512,512,512,512,512,512,512,512,512,512,512,512,512,512,512,512,512,512,512,512,512,512,512,512,512,512,512,512,512,512,512,512,512,512,512,512,512,512,512,512,512,512,512,512,512,512,512,512,512,512,512,512,512,512,512,512,512,512,512,512,512,512,512,512,512,512,512,512,512,512,512,512,512,512,512,512,512,512,512,512,512,512,512,512,512,512,512,512,512,512,512,512,512,512,512,512,512,512,512,512,512,512,512,512,512,512,512,512,512,512,512,512,512,512,512,512,512,512,512,512,512,512,512,512,512,512,512,512,512,512,512,512,512,512,512,512,512,512,512,512,512,512,512,512,512,512,512,512,512,512,512,512,512,512,512,512,512,512,512,512,512,512,512,512,512,512,512,512,512,512,512,512,512,512,512,512,512,512,512,512,512,512,512,512,512,512,512,512,512,512,512,512,512,512,512,512,512,512,512,512,512,512,512,512,512,512,512,512,512,512,512,512,512,512,512,512,512,512,512,512,512,512,512,512,512,512,512,512,512,512,512,512,512,512,512,512,512,512,512,512,512,512,512,512,512,512,512,512,512,512,512,512,512,512,512,512,512,512,512,512,512,512,512,512,512,512,512,512,512,512,512,512,512,512,512,512,512,512,512,512,512,512,512,512,512,512,512,512,512,512,512,512,512,512,512,512,512,512,512,512,512,512,512,512,512,512,512,512,512,512,512,512,512,512,512,512,512,512,512,512,512,512,512,512,512,512,512,512,512,512,512,512,512,512,512,512,512,512,512,512,512,512,512,512,512,512,512,512,512,512,512,512,512,512,512,512,512,512,512,512,512,512,512,512,512,512,512,512,512,512,512,512,512,512,512,512,512,512,512,512,512,512,512,512,512,512,512,512,512,512,512,512,512,512,512,512,512,512,512,512,512,512,512,512,512,512,512,512,512,512,512,512,512,512,512,512,512,512,512,512,512,516,543,571,605,619,645,652,648,637,616,611,610,609,606,601,599,598,572,544,491,447,400,304,251,218,192,178,170,170,170,170,169,169,169,169,169,169,160,152,139,133,129,122,120,116,114,112,108,108,108,108,112,115,116,116,116,116,109,107,106,105,104,102,101,99],"timestamp_mouse":[5,22,43,64,84,104,124,144,164,183,203,224,244,263,283,303,324,344,364,384,404,423,444,464,484,504,523,544,563,584,603,623,644,663,684,703,723,744,763,784,804,824,844,863,883,903,924,943,964,984,1004,1023,1044,1063,1083,1103,1123,1143,1163,1184,1203,1223,1243,1264,1283,1304,1323,1343,1363,1384,1403,1423,1443,1463,1483,1504,1523,1544,1564,1583,1603,1623,1644,1665,1683,1703,1723,1743,1764,1784,1804,1823,1843,1863,1883,1904,1924,1943,1964,1984,2003,2023,2043,2064,2084,2104,2124,2143,2163,2183,2203,2224,2243,2264,2283,2304,2323,2343,2363,2383,2404,2423,2443,2464,2484,2504,2523,2544,2564,2583,2603,2623,2643,2663,2684,2704,2723,2743,2764,2784,2804,2824,2843,2864,2884,2904,2924,2945,2964,2983,3003,3024,3044,3064,3084,3104,3124,3143,3163,3184,3204,3224,3243,3264,3284,3304,3324,3343,3363,3383,3403,3423,3443,3463,3484,3504,3523,3543,3563,3583,3604,3623,3643,3663,3684,3703,3724,3743,3763,3783,3804,3824,3843,3864,3884,3903,3923,3943,3963,3983,4004,4023,4043,4064,4083,4104,4123,4143,4163,4183,4203,4224,4243,4264,4284,4303,4323,4343,4363,4383,4403,4423,4443,4464,4483,4504,4523,4543,4564,4584,4603,4624,4643,4663,4683,4704,4723,4743,4763,4783,4803,4824,4844,4863,4883,4904,4924,4943,4963,4984,5004,5023,5043,5063,5083,5104,5124,5143,5164,5184,5204,5223,5243,5263,5283,5304,5323,5344,5363,5383,5404,5423,5444,5463,5483,5504,5523,5544,5564,5584,5604,5623,5644,5664,5684,5704,5724,5743,5763,5783,5804,5823,5843,5863,5883,5904,5924,5943,5963,5983,6004,6024,6044,6063,6083,6104,6124,6144,6163,6183,6203,6223,6243,6264,6283,6304,6324,6343,6363,6384,6403,6423,6444,6464,6484,6503,6523,6544,6564,6584,6603,6624,6644,6664,6684,6704,6724,6743,6763,6784,6804,6823,6843,6863,6884,6904,6923,6944,6964,6984,7004,7023,7044,7063,7084,7103,7124,7143,7165,7184,7204,7224,7244,7264,7283,7304,7324,7344,7364,7384,7404,7424,7443,7464,7484,7504,7524,7544,7563,7584,7604,7623,7643,7663,7684,7704,7723,7744,7764,7784,7804,7824,7843,7863,7883,7904,7923,7943,7963,7983,8004,8024,8044,8064,8083,8104,8123,8143,8165,8184,8204,8223,8243,8263,8283,8304,8323,8345,8364,8384,8404,8423,8443,8464,8484,8504,8524,8544,8564,8584,8604,8623,8643,8663,8684,8704,8724,8744,8764,8784,8804,8824,8844,8864,8884,8903,8924,8944,8964,8984,9003,9023,9043,9064,9084,9104,9124,9143,9164,9184,9203,9224,9243,9264,9284,9303,9324,9344,9364,9384,9404,9424,9443,9464,9483,9504,9523,9543,9563,9583,9604,9623,9644,9663,9683,9704,9724,9743,9764,9783,9804,9823,9843,9864,9883,9903,9923,9943,9964,9983,10003,10024,10043,10064,10083,10103,10124,10143,10163,10184,10204,10224,10243,10264,10284,10303,10324,10343,10363,10384,10403,10423,10443,10463,10484,10503,10523,10543,10563,10583,10603,10623,10643,10664,10684,10703,10724,10743,10765,10784,10803,10823,10843,10865,10884,10903,10923,10943,10963,10984,11003,11023,11044,11063,11083,11103,11123,11143,11163,11184,11203,11223,11244,11263,11284,11303,11323,11344,11363,11384,11403,11423,11443,11463,11484,11503,11523,11543,11563,11584,11603,11624,11643,11663,11683,11704,11724,11743,11763,11784,11804,11824,11844,11863,11883,11903,11924,11943,11963,11984,12003,12024,12044,12063,12084,12103,12123,12143,12164,12184,12204,12224,12244,12264,12283,12304,12323,12343,12363,12383,12404,12424,12443,12463,12484,12503,12524,12543,12563,12584,12604,12625,12643,12663,12684,12703,12724,12743,12763,12783,12803,12823,12843,12863,12884,12903,12924,12943,12963,12984,13004,13023,13044,13063,13083,13103,13124,13143,13163,13183,13203,13224,13244,13263,13283,13303,13323,13344,13363,13384,13403,13424,13443,13463,13484,13504,13524,13544,13563,13584,13604,13624,13644,13664,13683,13704,13724,13744,13763,13784,13804,13824,13843,13863,13884,13903,13924,13944,13963,13984,14004,14023,14043,14064,14084,14104,14123,14143,14164,14184,14204,14224,14243,14263,14284,14305,14324,14344,14363,14384,14403,14424,14444,14463,14484,14503,14523,14543,14564,14584,14603,14625,14643,14664,14684,14704,14724,14744,14763,14784,14805,14824,14843,14864,14884,14903,14924,14944,14963,14983,15004,15024,15044,15064,15084,15104,15123,15144,15164,15185,15203,15224,15243,15264,15284,15304,15323,15344,15364,15384,15403,15423,15444,15463,15483,15503,15523,15544,15564,15584,15604,15624,15643,15664,15684,15704,15724,15743,15764,15783,15804,15823,15843,15863,15884,15903,15924,15943,15964,15984,16003,16024,16043,16064,16083,16104,16123,16143,16164,16183,16204,16223,16244,16264,16283,16303,16324,16344,16363,16384,16404,16424,16444,16464,16484,16503,16524,16543,16563,16584,16604,16624,16643,16664,16684,16704,16724,16744,16763,16784,16803,16824,16843,16864,16884,16904,16924,16943,16963,16984,17003,17024,17044,17064,17084,17104,17124,17143,17164,17184,17204,17224,17243,17264,17285,17304,17323,17344,17363,17384,17403,17424,17443,17464,17484,17504,17524,17543,17564,17584,17604,17624,17643,17664,17684,17703,17724,17743,17764,17784,17803,17824,17844,17864,17883,17904,17924,17944,17964,17984,18003,18023,18043,18064,18084,18104,18124,18143,18164,18183,18204,18223,18244,18264,18284,18304,18324,18343,18364,18383,18404,18423,18444,18463,18484,18504,18523,18543,18563,18584,18604,18624,18644,18663,18683,18704,18723,18744,18764,18784,18803,18824,18843,18863,18884,18903,18924,18944,18963,18984,19004,19024,19044,19063,19083,19104,19125,19144,19163,19183,19205,19223,19244,19264,19284,19304,19324,19344,19363,19384,19404,19423,19444,19463,19483,19504,19523,19544,19563,19583,19603,19624,19643,19663,19683,19703,19724,19743,19764,19784,19804,19823,19844,19863,19884,19904,19923,19944,19964,19983,20003,20023,20044,20063,20083,20104,20123,20144,20163,20183,20203,20223,20243,20264,20283,20304,20323,20343,20364,20383,20404,20423,20443,20463,20483,20504,20524,20543,20563,20583,20604,20623,20644,20663,20683,20703,20723,20743,20764,20783,20804,20824,20844,20863,20883,20903,20924,20944,20964,20984,21003,21024,21044,21063,21083,21104,21124,21144,21163,21183,21203,21224,21243,21263,21283,21303,21323,21344,21363,21383,21404,21425,21444,21463,21484,21504,21524,21544,21564,21584,21604,21624,21643,21664,21683,21703,21724,21744,21763,21783,21804,21824,21843,21864,21883,21903,21923,21943,21964,21983,22004,22024,22044,22063,22083,22104,22124,22143,22164,22183,22204,22223,22244,22263,22283,22303,22323,22343,22364,22383,22404,22423,22443,22463,22483,22503,22523,22544,22563,22583,22604,22624,22644,22664,22684,22704,22724,22744,22763,22784,22804,22823,22845,22865,22884,22903,22925,22944,22964,22983,23003,23023,23044,23063,23084,23104,23124,23143,23163,23184,23204,23224,23244,23264,23283,23303,23323,23343,23364,23383,23403,23424,23443,23464,23483,23505,23524,23544,23563,23584,23604,23623,23644,23664,23684,23704,23723,23744,23764,23784,23804,23823,23844,23863,23883,23904,23923,23944,23964,23984,24004,24023,24044,24063,24083,24104,24124,24144,24164,24183,24204,24224,24243,24263,24284,24304,24324,24344,24363,24384,24403,24424,24443,24464,24484,24503,24523,24544,24563,24584,24604,24623,24643,24663,24684,24704,24724,24743,24764,24784,24804,24823,24844,24863,24884,24903,24923,24944,24964,24984,25004,25023,25044,25063,25083,25104,25124,25143,25163,25184,25203,25224,25243,25264,25284,25304,25323,25343,25363,25384,25404,25423,25444,25463,25483,25504,25523,25543,25564,25584,25604,25624,25643,25664,25684,25704,25723,25743,25764,25783,25804,25823,25844,25864,25884,25904,25923,25944,25963,25983,26004,26023,26043,26064,26083,26104,26123,26144,26164,26184,26204,26224,26244,26264,26284,26304,26323,26343,26363,26383,26404,26423,26443,26464,26483,26504,26523,26543,26564,26584,26604,26623,26643,26663,26684,26704,26723,26743,26764,26783,26809,26823,26843,26863,26884,26904,26923,26943,26964,26984,27003,27023,27043,27063,27083,27104,27123,27143,27163,27183,27204,27223,27243,27264,27284,27304,27323,27342,27364,27384,27403,27423,27443,27464,27483,27504,27524,27544,27563,27583,27604,27623,27644,27663,27683,27704,27724,27744,27763,27783,27804,27823,27843,27864,27883,27904,27923,27944,27963,27984,28004,28023,28044,28064,28084,28103,28123,28143,28163,28183,28203,28223,28244,28263,28284,28304,28324,28343,28364,28383,28403,28423,28443,28463,28483,28503,28523,28543,28563,28583,28603,28623,28643,28664,28683,28703,28723,28744,28763,28783,28803,28824,28844,28863,28884,28904,28924,28943,28964,28983,29003,29023,29043,29064,29084,29104,29124,29143,29163,29184,29203,29223,29243,29263,29283,29304,29324,29343,29364,29384,29403,29424,29444,29463,29484,29503,29523,29544,29564,29583,29603,29624,29643,29664,29683,29703,29724,29743,29763,29784,29803,29824,29843,29863,29884,29903,29924,29944,29964,29984,30003,30023,30043,30063,30084,30103,30123,30143,30163,30184,30203,30224,30244,30263,30284,30303,30324,30344,30364,30384,30403,30423,30444,30464,30483,30503,30523,30543,30564,30583,30603,30624,30643,30663,30684,30703,30724,30744,30763,30784,30803,30824,30844,30863,30884,30903,30924,30944,30963,30983,31003,31024,31043,31064,31084,31103,31124,31144,31164,31184,31203,31223,31243,31264,31283,31303,31323,31344,31363,31384,31403,31423,31444,31464,31484,31504,31524,31544,31563,31584,31603,31623,31643,31664,31683,31703,31724,31743,31764,31784,31803,31823,31844,31864,31884,31903,31923,31944,31964,31983,32004,32024,32044,32064,32083,32103,32124,32143,32163,32184,32204,32224,32243,32264,32284,32304,32323,32343,32364,32384,32404,32424,32444,32463,32484,32504,32523,32543,32564,32584,32604,32624,32643,32663,32683,32703,32724,32744,32764,32784,32804,32823,32844,32863,32883,32904,32923,32943,32964,32984,33003,33024,33043,33064,33083,33103,33124,33144,33164,33184,33204,33224,33244,33264,33283,33304,33323,33344,33363,33384,33404,33424,33443,33464,33484,33504,33523,33543,33564,33583,33604,33623,33643,33664,33683,33704,33723,33744,33764,33784,33804,33823,33844,33863,33884,33904,33923,33943,33963,33983,34004,34024,34044,34063,34084,34104,34123,34143,34164,34184,34204,34224,34243,34264,34283,34304,34324,34344,34364,34384,34404,34424,34444,34464,34483,34504,34523,34544,34563,34583,34604,34624,34643,34663,34684,34703,34724,34743,34764,34784,34803,34824,34843,34863,34884,34904,34924,34944,34964,34983,35004,35023,35044,35064,35084,35103,35123,35144,35164,35184,35204,35223,35243,35263,35283,35304,35324,35344,35363,35384,35403,35424,35444,35464,35483,35503,35524,35543,35563,35584,35604,35624,35643,35664,35684,35703,35724,35744,35764,35783,35803,35824,35844,35863,35884,35903,35924,35943,35963,35984,36003,36024,36044,36063,36084,36103,36123,36144,36163,36184,36203,36224,36244,36263,36283,36303,36324,36344,36364,36383,36403,36424,36443,36463,36484,36503,36523,36543,36563,36584,36603,36624,36644,36663,36684,36703,36723,36744,36764,36784,36804,36823,36844,36863,36883,36903,36924,36944,36964,36984,37004,37023,37043,37063,37084,37104,37123,37143,37164,37183,37203,37224,37243,37264,37284,37303,37323,37344,37363,37384,37404,37424,37443,37464,37484,37503,37523,37542,37564,37583,37603,37623,37643,37663,37684,37703,37723,37744,37764,37784,37803,37823,37844,37863,37883,37903,37923,37943,37964,37983,38003,38023,38044,38063,38084,38104,38123,38144,38164,38184,38204,38223,38243,38263,38284,38304,38323,38343,38364,38383,38403,38423,38443,38464,38483,38503,38523,38544,38564,38583,38604,38623,38644,38663,38683,38704,38723,38743,38764,38783,38804,38823,38844,38863,38883,38904,38923,38944,38963,38984,39004,39023,39043,39063,39083,39104,39123,39143,39165,39184,39203,39223,39243,39264,39283,39303,39323,39343,39363,39383,39403,39423,39443,39464,39483,39504,39524,39543,39564,39584,39604,39623,39644,39663,39684,39703,39723,39743,39764,39784,39804,39823,39843,39863,39884,39904,39923,39944,39963,39984,40003,40023,40043,40064,40083,40104,40123,40143,40163,40184,40203,40224,40244,40264,40283,40304,40324,40343,40364,40383,40404,40423,40444,40464,40483,40503,40523,40544,40564,40583,40604,40624,40644,40664,40684,40703,40723,40744,40763,40784,40804,40823,40843,40863,40884,40903,40923,40943,40963,40983,41003,41024,41044,41064,41083,41104,41123,41144,41163,41183,41204,41224,41243,41264,41283,41304,41323,41343,41363,41384,41403,41424,41444,41463,41484,41504,41523,41544,41564,41583,41603,41624,41643,41663,41684,41703,41724,41744,41763,41783,41803,41824,41844,41865,41884,41903,41924,41943,41963,41983,42003,42023,42043,42063,42083,42103,42123,42143,42163,42183,42203,42223,42243,42263,42283,42303,42323,42343,42363,42383,42403,42423,42443,42464,42484,42504,42524,42543,42564,42584,42603,42623,42644,42664,42684,42704,42723,42743,42764,42784,42804,42824,42844,42863,42884,42904,42923,42943,42963,42984,43003,43024,43044,43063,43084,43103,43123,43143,43165,43184,43203,43224,43243,43264,43284,43304,43324,43345,43365,43383,43403,43424,43444,43463,43483,43504,43523,43544,43564,43583,43604,43624,43644,43664,43684,43704,43724,43744,43763,43784,43804,43825,43844,43863,43883,43903,43924,43943,43963,43984,44003,44024,44044,44064,44083,44104,44124,44144,44164,44184,44205,44223,44245,44264,44284,44304,44323,44344,44364,44384,44403,44423,44444,44464,44484,44503,44523,44543,44564,44584,44604,44624,44644,44664,44684,44703,44724,44744,44764,44784,44804,44824,44843,44863,44885,44904,44924,44943,44964,44983,45004,45023,45044,45064,45083,45104,45123,45143,45163,45184,45203,45223,45243,45263,45284,45303,45324,45343,45364,45383,45403,45423,45443,45464,45483,45503,45523,45544,45563,45584,45604,45623,45643,45663,45683,45704,45723,45745,45765,45784,45804,45824,45844,45863,45884,45903,45924,45944,45964,45984,46004,46024,46043,46063,46084,46104,46124,46143,46163,46184,46203,46224,46243,46264,46284,46303,46323,46343,46365,46384,46404,46423,46443,46463,46483,46504,46524,46543,46563,46583,46604,46624,46643,46664,46683,46704,46723,46744,46764,46784,46804,46824,46843,46864,46883,46903,46923,46943,46964,46984,47003,47024,47043,47064,47083,47104,47124,47143,47163,47184,47203,47224,47243,47263,47284,47304,47323,47343,47365,47384,47404,47423,47443,47463,47484,47504,47523,47543,47564,47584,47604,47623,47643,47665,47685,47704,47724,47743,47764,47783,47804,47824,47844,47864,47884,47903,47924,47943,47963,47984,48004,48023,48043,48063,48084,48104,48123,48143,48165,48184,48203,48223,48243,48265,48284,48303,48323,48343,48363,48384,48404,48423,48443,48463,48484,48504,48523,48543,48564,48583,48604,48624,48644,48664,48683,48703,48723,48743,48764,48783,48804,48823,48844,48863,48884,48904,48923,48944,48963,48984,49004,49023,49044,49064,49084,49105,49125,49144,49164,49183,49203,49224,49243,49264,49283,49303,49325,49344,49364,49384,49404,49423,49443,49463,49484,49504,49523,49543,49563,49584,49604,49625,49644,49664,49683,49704,49723,49744,49764,49783,49804,49824,49843,49864,49884,49904,49925,49944,49964,49983,50004,50024,50044,50064,50084,50104,50124,50143,50163,50183,50203,50223,50244,50264,50283,50304,50323,50344,50364,50383,50404,50424,50444,50463,50484,50504,50524,50543,50564,50583,50604,50624,50643,50663,50684,50704,50724,50745,50764,50784,50804,50823,50843,50864,50883,50903,50925,50944,50964,50984,51004,51024,51044,51063,51083,51104,51123,51143,51163,51184,51204,51224,51243,51263,51284,51304,51324,51343,51364,51384,51403,51423,51443,51463,51483,51503,51523,51543,51563,51584,51604,51624,51644,51664,51684,51703,51723,51743,51763,51783,51803,51823,51843,51863,51883,51903,51923,51944,51963,51984,52004,52023,52043,52063,52084,52105,52123,52144,52163,52183,52203,52224,52244,52264,52284,52304,52323,52344,52364,52384,52403,52423,52443,52464,52484,52505,52523,52544,52564,52584,52603,52623,52643,52664,52684,52704,52724,52744,52764,52784,52803,52823,52843,52863,52885,52904,52924,52944,52963,52983,53004,53023,53043,53064,53084,53103,53123,53143,53164,53183,53204,53224,53244,53263,53284,53303,53324,53343,53363,53383,53403,53424,53443,53464,53484,53503,53523,53544,53563,53583,53604,53623,53643,53663,53683,53703,53724,53743,53763,53783,53804,53824,53844,53863,53884,53903,53924,53944,53963,53983,54003,54024,54044,54063,54083,54103,54124,54144,54163,54183,54204,54223,54244,54263,54284,54303,54323,54345,54363,54383,54403],"xSR":741.5,"ySR":469.95,"xT1":424.9,"yT1":0,"xT2":1058.1,"yT2":0,"toosoon":0,"cond_shown":"equaldotanddens","ratio_trial":500,"smaller_num":"3","larger_num":"6","correct_side":2,"subjID":"juandiegoaguilera32","gender":"0","age":"9","school":"4","test":{"fix_dur":[250,1500],"timestim":300,"targets_dim":[100,100],"targets_relative_coord":[0.3,0.7],"size_stim":[880,420],"start_dim":[100,100],"size_start":[300,300],"size_fix":60,"samplingrate":20,"img_types":["equaldotsize","equaldotanddens","randomdotsizeEA"],"ratios":[250,500,750,900],"rep_conds":9,"nTrials":120,"trials_to_rest":500,"Trials_order":[16,28,111,36,91,106,71,114,56,0,17,118,90,22,89,44,107,62,76,103,110,33,99,92,115,47,14,46,1,8,117,23,119,48,96,95,63,37,55,61,60,34,84,31,54,82,19,78,15,79,9,32,38,116,5,21,12,113,58,67,108,66,102,52,98,73,51,94,3,81,41,39,49,104,87,42,11,86,74,72,53,4,69,93,35,25,30,83,68,7,2,13,50,24,43,85,65,29,57,70,100,40,64,18,88,112,10,20,26,105,59,101,45,97,109,75,77,27,80,6],"cond_shown":["equaldotanddens","equaldotanddens","equaldotsize","equaldotsize","equaldotanddens","equaldotanddens","randomdotsizeEA","equaldotsize","randomdotsizeEA","equaldotsize","randomdotsizeEA","equaldotanddens","equaldotsize","equaldotanddens","randomdotsizeEA","randomdotsizeEA","randomdotsizeEA","randomdotsizeEA","equaldotanddens","equaldotanddens","randomdotsizeEA","equaldotsize","equaldotsize","randomdotsizeEA","equaldotanddens","randomdotsizeEA","randomdotsizeEA","equaldotanddens","equaldotanddens","randomdotsizeEA","equaldotsize","randomdotsizeEA","randomdotsizeEA","equaldotsize","equaldotsize","randomdotsizeEA","equaldotsize","equaldotanddens","equaldotanddens","equaldotanddens","equaldotsize","equaldotanddens","equaldotsize","equaldotanddens","equaldotsize","equaldotanddens","equaldotanddens","equaldotsize","equaldotsize","equaldotanddens","equaldotsize","randomdotsizeEA","randomdotsizeEA","randomdotsizeEA","randomdotsizeEA","equaldotsize","equaldotsize","randomdotsizeEA","equaldotanddens","equaldotanddens","equaldotsize","equaldotsize","equaldotsize","equaldotanddens","randomdotsizeEA","equaldotanddens","equaldotsize","equaldotanddens","equaldotsize","equaldotsize","randomdotsizeEA","equaldotsize","equaldotanddens","randomdotsizeEA","equaldotsize","equaldotsize","randomdotsizeEA","randomdotsizeEA","randomdotsizeEA","equaldotsize","randomdotsizeEA","equaldotanddens","equaldotsize","equaldotsize","randomdotsizeEA","equaldotanddens","equaldotsize","randomdotsizeEA","randomdotsizeEA","equaldotanddens","randomdotsizeEA","equaldotanddens","randomdotsizeEA","equaldotsize","equaldotanddens","equaldotanddens","randomdotsizeEA","randomdotsizeEA","equaldotsize","equaldotanddens","equaldotanddens","equaldotanddens","equaldotanddens","equaldotsize","equaldotanddens","equaldotanddens","equaldotanddens","randomdotsizeEA","randomdotsizeEA","equaldotsize","randomdotsizeEA","randomdotsizeEA","equaldotsize","equaldotanddens","equaldotanddens","equaldotsize","randomdotsizeEA","equaldotsize","randomdotsizeEA","equaldotsize"],"ratio_trial":[500,500,500,250,750,900,900,750,750,250,500,900,750,900,500,750,900,250,500,750,250,900,500,750,750,900,250,900,250,750,900,900,900,250,250,900,500,250,750,250,250,900,250,750,750,900,750,750,500,750,900,750,250,750,500,900,250,500,900,750,250,750,750,500,250,250,500,900,500,900,500,500,250,750,500,750,900,250,250,250,500,500,900,900,900,250,750,900,750,750,250,250,250,250,750,250,500,500,900,900,500,500,500,750,500,500,900,750,250,900,900,500,900,250,250,500,500,500,750,750],"smaller_num":["3","2","9","4","3","18","9","15","6","2","1","18","15","9","4","15","18","2","2","18","2","18","2","15","9","18","4","18","5","6","18","18","18","6","3","18","2","2","6","3","4","18","6","3","3","18","15","15","5","6","18","3","2","9","1","9","1","2","18","6","3","15","9","2","2","5","1","18","1","18","2","10","3","18","6","3","18","5","4","2","3","1","18","9","9","3","12","18","6","3","4","2","6","4","6","3","9","3","18","9","5","2","5","9","9","6","18","3","2","9","9","3","18","4","3","4","2","2","3","6"],"larger_num":["6","4","18","16","4","20","10","20","8","8","2","20","20","10","8","20","20","8","4","24","8","20","4","20","12","20","16","20","20","8","20","20","20","24","12","20","4","8","8","12","16","20","24","4","4","20","20","20","10","8","20","4","8","12","2","10","4","4","20","8","12","20","12","4","8","20","2","20","2","20","4","20","12","24","12","4","20","20","16","8","6","2","20","10","10","12","16","20","8","4","16","8","24","16","8","12","18","6","20","10","10","4","10","12","18","12","20","4","8","10","10","6","20","16","12","8","4","4","4","8"],"correct_side":[2,2,2,2,2,1,2,2,1,1,2,1,2,2,1,1,1,2,1,1,1,2,1,2,2,2,1,1,2,2,2,1,1,1,1,2,2,1,1,1,1,1,2,1,1,1,2,1,1,2,1,1,1,2,2,1,2,1,1,2,2,1,2,1,1,2,2,1,2,1,1,2,2,1,1,2,2,2,1,1,2,2,2,2,2,2,2,2,1,1,1,1,1,1,2,1,1,2,1,2,2,1,2,2,2,1,2,2,1,2,2,2,1,2,2,1,2,1,2,1],"img_shown":["img/500/equaldotanddens/R/2_Ratio_500_L_3_R_6.png","img/500/equaldotanddens/R/9_Ratio_500_L_2_R_4.png","img/500/equaldotsize/R/1_Ratio_500_L_9_R_18.png","img/250/equaldotsize/R/10_Ratio_250_L_4_R_16.png","img/750/equaldotanddens/R/7_Ratio_750_L_3_R_4.png","img/900/equaldotanddens/L/2_Ratio_900_L_20_R_18.png","img/900/randomdotsizeEA/R/5_Ratio_900_L_9_R_10.png","img/750/equaldotsize/R/5_Ratio_750_L_15_R_20.png","img/750/randomdotsizeEA/L/14_Ratio_750_L_8_R_6.png","img/250/equaldotsize/L/3_Ratio_250_L_8_R_2.png","img/500/randomdotsizeEA/R/15_Ratio_500_L_1_R_2.png","img/900/equaldotanddens/L/10_Ratio_900_L_20_R_18.png","img/750/equaldotsize/R/5_Ratio_750_L_15_R_20.png","img/900/equaldotanddens/R/6_Ratio_900_L_9_R_10.png","img/500/randomdotsizeEA/L/8_Ratio_500_L_8_R_4.png","img/750/randomdotsizeEA/L/1_Ratio_750_L_20_R_15.png","img/900/randomdotsizeEA/L/4_Ratio_900_L_20_R_18.png","img/250/randomdotsizeEA/R/13_Ratio_250_L_2_R_8.png","img/500/equaldotanddens/L/10_Ratio_500_L_4_R_2.png","img/750/equaldotanddens/L/6_Ratio_750_L_24_R_18.png","img/250/randomdotsizeEA/L/7_Ratio_250_L_8_R_2.png","img/900/equaldotsize/R/9_Ratio_900_L_18_R_20.png","img/500/equaldotsize/L/5_Ratio_500_L_4_R_2.png","img/750/randomdotsizeEA/R/4_Ratio_750_L_15_R_20.png","img/750/equaldotanddens/R/15_Ratio_750_L_9_R_12.png","img/900/randomdotsizeEA/R/12_Ratio_900_L_18_R_20.png","img/250/randomdotsizeEA/L/2_Ratio_250_L_16_R_4.png","img/900/equaldotanddens/L/8_Ratio_900_L_20_R_18.png","img/250/equaldotanddens/R/12_Ratio_250_L_5_R_20.png","img/750/randomdotsizeEA/R/2_Ratio_750_L_6_R_8.png","img/900/equaldotsize/R/11_Ratio_900_L_18_R_20.png","img/900/randomdotsizeEA/L/10_Ratio_900_L_20_R_18.png","img/900/randomdotsizeEA/L/4_Ratio_900_L_20_R_18.png","img/250/equaldotsize/L/5_Ratio_250_L_24_R_6.png","img/250/equaldotsize/L/15_Ratio_250_L_12_R_3.png","img/900/randomdotsizeEA/R/12_Ratio_900_L_18_R_20.png","img/500/equaldotsize/R/9_Ratio_500_L_2_R_4.png","img/250/equaldotanddens/L/3_Ratio_250_L_8_R_2.png","img/750/equaldotanddens/L/14_Ratio_750_L_8_R_6.png","img/250/equaldotanddens/L/15_Ratio_250_L_12_R_3.png","img/250/equaldotsize/L/2_Ratio_250_L_16_R_4.png","img/900/equaldotanddens/L/2_Ratio_900_L_20_R_18.png","img/250/equaldotsize/R/6_Ratio_250_L_6_R_24.png","img/750/equaldotanddens/L/8_Ratio_750_L_4_R_3.png","img/750/equaldotsize/L/9_Ratio_750_L_4_R_3.png","img/900/equaldotanddens/L/8_Ratio_900_L_20_R_18.png","img/750/equaldotanddens/R/3_Ratio_750_L_15_R_20.png","img/750/equaldotsize/L/1_Ratio_750_L_20_R_15.png","img/500/equaldotsize/L/7_Ratio_500_L_10_R_5.png","img/750/equaldotanddens/R/2_Ratio_750_L_6_R_8.png","img/900/equaldotsize/L/4_Ratio_900_L_20_R_18.png","img/750/randomdotsizeEA/L/10_Ratio_750_L_4_R_3.png","img/250/randomdotsizeEA/L/3_Ratio_250_L_8_R_2.png","img/750/randomdotsizeEA/R/15_Ratio_750_L_9_R_12.png","img/500/randomdotsizeEA/R/12_Ratio_500_L_1_R_2.png","img/900/equaldotsize/L/1_Ratio_900_L_10_R_9.png","img/250/equaldotsize/R/8_Ratio_250_L_1_R_4.png","img/500/randomdotsizeEA/L/10_Ratio_500_L_4_R_2.png","img/900/equaldotanddens/L/8_Ratio_900_L_20_R_18.png","img/750/equaldotanddens/R/2_Ratio_750_L_6_R_8.png","img/250/equaldotsize/R/9_Ratio_250_L_3_R_12.png","img/750/equaldotsize/L/1_Ratio_750_L_20_R_15.png","img/750/equaldotsize/R/15_Ratio_750_L_9_R_12.png","img/500/equaldotanddens/L/5_Ratio_500_L_4_R_2.png","img/250/randomdotsizeEA/L/3_Ratio_250_L_8_R_2.png","img/250/equaldotanddens/R/12_Ratio_250_L_5_R_20.png","img/500/equaldotsize/R/15_Ratio_500_L_1_R_2.png","img/900/equaldotanddens/L/4_Ratio_900_L_20_R_18.png","img/500/equaldotsize/R/15_Ratio_500_L_1_R_2.png","img/900/equaldotsize/L/8_Ratio_900_L_20_R_18.png","img/500/randomdotsizeEA/L/10_Ratio_500_L_4_R_2.png","img/500/equaldotsize/R/3_Ratio_500_L_10_R_20.png","img/250/equaldotanddens/R/9_Ratio_250_L_3_R_12.png","img/750/randomdotsizeEA/L/6_Ratio_750_L_24_R_18.png","img/500/equaldotsize/L/11_Ratio_500_L_12_R_6.png","img/750/equaldotsize/R/12_Ratio_750_L_3_R_4.png","img/900/randomdotsizeEA/R/9_Ratio_900_L_18_R_20.png","img/250/randomdotsizeEA/R/12_Ratio_250_L_5_R_20.png","img/250/randomdotsizeEA/L/2_Ratio_250_L_16_R_4.png","img/250/equaldotsize/L/7_Ratio_250_L_8_R_2.png","img/500/randomdotsizeEA/R/2_Ratio_500_L_3_R_6.png","img/500/equaldotanddens/R/15_Ratio_500_L_1_R_2.png","img/900/equaldotsize/R/13_Ratio_900_L_18_R_20.png","img/900/equaldotsize/R/3_Ratio_900_L_9_R_10.png","img/900/randomdotsizeEA/R/6_Ratio_900_L_9_R_10.png","img/250/equaldotanddens/R/11_Ratio_250_L_3_R_12.png","img/750/equaldotsize/R/11_Ratio_750_L_12_R_16.png","img/900/randomdotsizeEA/R/13_Ratio_900_L_18_R_20.png","img/750/randomdotsizeEA/L/14_Ratio_750_L_8_R_6.png","img/750/equaldotanddens/L/10_Ratio_750_L_4_R_3.png","img/250/randomdotsizeEA/L/2_Ratio_250_L_16_R_4.png","img/250/equaldotanddens/L/3_Ratio_250_L_8_R_2.png","img/250/randomdotsizeEA/L/5_Ratio_250_L_24_R_6.png","img/250/equaldotsize/L/2_Ratio_250_L_16_R_4.png","img/750/equaldotanddens/R/2_Ratio_750_L_6_R_8.png","img/250/equaldotanddens/L/15_Ratio_250_L_12_R_3.png","img/500/randomdotsizeEA/L/4_Ratio_500_L_18_R_9.png","img/500/randomdotsizeEA/R/2_Ratio_500_L_3_R_6.png","img/900/equaldotsize/L/4_Ratio_900_L_20_R_18.png","img/900/equaldotanddens/R/6_Ratio_900_L_9_R_10.png","img/500/equaldotanddens/R/14_Ratio_500_L_5_R_10.png","img/500/equaldotanddens/L/5_Ratio_500_L_4_R_2.png","img/500/equaldotanddens/R/14_Ratio_500_L_5_R_10.png","img/750/equaldotsize/R/15_Ratio_750_L_9_R_12.png","img/500/equaldotanddens/R/6_Ratio_500_L_9_R_18.png","img/500/equaldotanddens/L/13_Ratio_500_L_12_R_6.png","img/900/equaldotanddens/R/14_Ratio_900_L_18_R_20.png","img/750/randomdotsizeEA/R/7_Ratio_750_L_3_R_4.png","img/250/randomdotsizeEA/L/1_Ratio_250_L_8_R_2.png","img/900/equaldotsize/R/15_Ratio_900_L_9_R_10.png","img/900/randomdotsizeEA/R/3_Ratio_900_L_9_R_10.png","img/500/randomdotsizeEA/R/2_Ratio_500_L_3_R_6.png","img/900/equaldotsize/L/8_Ratio_900_L_20_R_18.png","img/250/equaldotanddens/R/10_Ratio_250_L_4_R_16.png","img/250/equaldotanddens/R/9_Ratio_250_L_3_R_12.png","img/500/equaldotsize/L/8_Ratio_500_L_8_R_4.png","img/500/randomdotsizeEA/R/9_Ratio_500_L_2_R_4.png","img/500/equaldotsize/L/10_Ratio_500_L_4_R_2.png","img/750/randomdotsizeEA/R/7_Ratio_750_L_3_R_4.png","img/750/equaldotsize/L/13_Ratio_750_L_8_R_6.png"],"Rat0":[["12_Ratio_0_L_9_R_0.png","13_Ratio_0_L_6_R_0.png","5_Ratio_0_L_2_R_0.png","6_Ratio_0_L_4_R_0.png","8_Ratio_0_L_6_R_0.png"],["1_Ratio_0_L_0_R_17.png","10_Ratio_0_L_0_R_22.png","11_Ratio_0_L_0_R_1.png","14_Ratio_0_L_0_R_24.png","15_Ratio_0_L_0_R_4.png","2_Ratio_0_L_0_R_5.png","3_Ratio_0_L_0_R_17.png","4_Ratio_0_L_0_R_7.png","7_Ratio_0_L_0_R_19.png","9_Ratio_0_L_0_R_15.png"]],"Rat250":[["1_Ratio_250_L_8_R_2.png","14_Ratio_250_L_12_R_3.png","15_Ratio_250_L_12_R_3.png","2_Ratio_250_L_16_R_4.png","3_Ratio_250_L_8_R_2.png","5_Ratio_250_L_24_R_6.png","7_Ratio_250_L_8_R_2.png"],["10_Ratio_250_L_4_R_16.png","11_Ratio_250_L_3_R_12.png","12_Ratio_250_L_5_R_20.png","13_Ratio_250_L_2_R_8.png","4_Ratio_250_L_3_R_12.png","6_Ratio_250_L_6_R_24.png","8_Ratio_250_L_1_R_4.png","9_Ratio_250_L_3_R_12.png"]],"Rat500":[["10_Ratio_500_L_4_R_2.png","11_Ratio_500_L_12_R_6.png","13_Ratio_500_L_12_R_6.png","4_Ratio_500_L_18_R_9.png","5_Ratio_500_L_4_R_2.png","7_Ratio_500_L_10_R_5.png","8_Ratio_500_L_8_R_4.png"],["1_Ratio_500_L_9_R_18.png","12_Ratio_500_L_1_R_2.png","14_Ratio_500_L_5_R_10.png","15_Ratio_500_L_1_R_2.png","2_Ratio_500_L_3_R_6.png","3_Ratio_500_L_10_R_20.png","6_Ratio_500_L_9_R_18.png","9_Ratio_500_L_2_R_4.png"]],"Rat750":[["1_Ratio_750_L_20_R_15.png","10_Ratio_750_L_4_R_3.png","13_Ratio_750_L_8_R_6.png","14_Ratio_750_L_8_R_6.png","6_Ratio_750_L_24_R_18.png","8_Ratio_750_L_4_R_3.png","9_Ratio_750_L_4_R_3.png"],["11_Ratio_750_L_12_R_16.png","12_Ratio_750_L_3_R_4.png","15_Ratio_750_L_9_R_12.png","2_Ratio_750_L_6_R_8.png","3_Ratio_750_L_15_R_20.png","4_Ratio_750_L_15_R_20.png","5_Ratio_750_L_15_R_20.png","7_Ratio_750_L_3_R_4.png"]],"Rat900":[["1_Ratio_900_L_10_R_9.png","10_Ratio_900_L_20_R_18.png","2_Ratio_900_L_20_R_18.png","4_Ratio_900_L_20_R_18.png","8_Ratio_900_L_20_R_18.png"],["11_Ratio_900_L_18_R_20.png","12_Ratio_900_L_18_R_20.png","13_Ratio_900_L_18_R_20.png","14_Ratio_900_L_18_R_20.png","15_Ratio_900_L_9_R_10.png","3_Ratio_900_L_9_R_10.png","5_Ratio_900_L_9_R_10.png","6_Ratio_900_L_9_R_10.png","7_Ratio_900_L_9_R_10.png","9_Ratio_900_L_18_R_20.png"]],"Rat1000":[["10_Ratio_1000_L_16_R_16.png","11_Ratio_1000_L_6_R_6.png","12_Ratio_1000_L_14_R_14.png","13_Ratio_1000_L_20_R_20.png","15_Ratio_1000_L_15_R_15.png","2_Ratio_1000_L_17_R_17.png","4_Ratio_1000_L_9_R_9.png","5_Ratio_1000_L_6_R_6.png","6_Ratio_1000_L_19_R_19.png","8_Ratio_1000_L_14_R_14.png","9_Ratio_1000_L_25_R_25.png"],["1_Ratio_1000_L_1_R_1.png","14_Ratio_1000_L_17_R_17.png","3_Ratio_1000_L_17_R_17.png","7_Ratio_1000_L_6_R_6.png"]]}},{"start_time":1552328512311,"click_time":1552328513769,"finger_time":1552328513288,"fix_duration":1461.8383625062897,"trial":1,"RT":977,"MT":481,"sideResp":2,"stimulus":"img/500/equaldotanddens/R/9_Ratio_500_L_2_R_4.png","xmouse":[781,782,782,782,782,782,782,782,782,782,782,782,782,782,782,782,782,782,782,782,782,782,782,782,782,782,782,782,782,782,782,782,782,782,782,782,782,782,782,782,782,782,783,783,784,788,803,824,852,898,946,1037,1094,1133,1167,1196,1245,1261,1268,1268,1268,1268,1268,1268,1268,1268,1268,1268,1268,1268,1268,1268,1105],"ymouse":[542,541,541,541,541,541,541,541,541,541,541,541,541,541,541,541,541,541,541,541,541,541,541,541,541,541,541,541,541,541,541,541,541,541,541,541,541,541,541,541,541,541,540,540,538,536,527,518,505,483,442,350,275,220,175,134,60,31,8,8,8,8,8,8,8,8,8,8,8,8,8,8,6],"timestamp_mouse":[17,37,58,77,97,118,137,158,177,197,218,237,257,277,297,318,338,358,378,398,417,437,457,478,498,518,537,558,577,598,617,637,657,678,697,718,737,758,777,799,818,837,858,877,898,917,938,957,977,997,1017,1038,1057,1077,1098,1118,1138,1157,1178,1197,1217,1237,1258,1279,1297,1317,1338,1357,1378,1398,1418,1438,1458],"xSR":741.5,"ySR":469.95,"xT1":424.9,"yT1":0,"xT2":1058.1,"yT2":0,"toosoon":0,"cond_shown":"equaldotanddens","ratio_trial":500,"smaller_num":"2","larger_num":"4","correct_side":2,"subjID":"juandiegoaguilera32","gender":"0","age":"9","school":"4"},{"start_time":1552328585734,"click_time":1552328586889,"finger_time":1552328586209,"fix_duration":1183.008558994777,"trial":2,"RT":475,"MT":680,"sideResp":2,"stimulus":"img/500/equaldotsize/R/1_Ratio_500_L_9_R_18.png","xmouse":[789,789,789,789,789,789,791,791,792,792,794,798,800,803,804,804,804,804,805,807,813,826,841,865,952,1011,1071,1168,1243,1243,1243,1243,1243,1243,1243,1243,1243,1243,1243,1243,1243,1243,1243,1292,1278,1275,1271,1259,1244,1203,1192,1191,1191,1191,1190,1187,1172,1155],"ymouse":[541,541,541,541,541,541,541,540,539,538,538,538,536,534,532,531,531,531,530,528,522,510,493,462,346,274,194,90,13,13,13,13,13,13,13,13,13,13,13,13,13,13,13,22,30,30,30,30,30,30,28,28,28,28,28,28,32,36],"timestamp_mouse":[15,35,55,74,94,114,134,155,174,195,214,234,254,274,295,314,335,354,375,394,414,435,454,475,494,515,535,555,574,594,614,634,654,675,695,714,735,754,774,794,814,834,854,874,894,914,935,955,975,995,1015,1034,1056,1074,1094,1114,1134,1154],"xSR":741.5,"ySR":469.95,"xT1":424.9,"yT1":0,"xT2":1058.1,"yT2":0,"toosoon":0,"cond_shown":"equaldotsize","ratio_trial":500,"smaller_num":"9","larger_num":"18","correct_side":2,"subjID":"juandiegoaguilera32","gender":"0","age":"9","school":"4"},{"start_time":1552328589007,"click_time":1552328589829,"finger_time":1552328589388,"fix_duration":1277.5346314972132,"trial":3,"RT":381,"MT":441,"sideResp":2,"stimulus":"img/250/equaldotsize/R/10_Ratio_250_L_4_R_16.png","xmouse":[801,801,801,801,801,801,801,801,801,801,801,801,801,801,801,801,806,815,828,845,854,856,853,851,851,855,895,929,956,988,1018,1062,1074,1078,1080,1080,1080,1079,1079,1076,1074,1068],"ymouse":[521,521,521,521,521,521,521,521,521,521,521,521,521,521,521,521,515,496,480,459,443,422,417,412,407,397,341,295,254,210,181,145,127,120,116,115,115,114,114,113,110,91],"timestamp_mouse":[10,30,42,62,82,102,121,141,161,183,202,221,241,262,282,301,321,341,362,381,401,422,441,461,481,501,521,541,561,581,603,622,642,661,682,701,721,741,761,781,801,822],"xSR":741.5,"ySR":469.95,"xT1":424.9,"yT1":0,"xT2":1058.1,"yT2":0,"toosoon":0,"cond_shown":"equaldotsize","ratio_trial":250,"smaller_num":"4","larger_num":"16","correct_side":2,"subjID":"juandiegoaguilera32","gender":"0","age":"9","school":"4"},{"start_time":1552328591453,"click_time":1552328592669,"finger_time":1552328591969,"fix_duration":1083.6215022375145,"trial":4,"RT":516,"MT":700,"sideResp":2,"stimulus":"img/750/equaldotanddens/R/7_Ratio_750_L_3_R_4.png","xmouse":[825,825,825,825,825,826,828,831,832,832,832,832,832,832,832,831,831,831,831,831,831,831,831,831,837,844,855,867,899,915,926,946,964,993,997,998,1004,1014,1062,1087,1099,1103,1105,1106,1106,1106,1106,1106,1106,1106,1106,1106,1106,1106,1106,1105,1104,1104,1101,1096,1093],"ymouse":[530,530,530,530,529,529,527,526,526,526,525,525,525,525,525,525,525,525,525,525,525,525,525,521,515,508,499,488,433,393,363,322,297,273,271,271,270,266,232,200,173,149,135,130,130,130,130,130,130,130,130,130,128,125,118,116,114,114,108,101,98],"timestamp_mouse":[15,46,55,75,95,116,136,156,175,196,215,235,257,276,295,317,335,356,375,395,417,436,455,475,495,516,536,556,576,595,615,635,655,676,695,716,735,755,776,795,815,836,856,875,895,916,935,956,975,995,1015,1035,1055,1076,1096,1115,1136,1156,1176,1195,1215],"xSR":741.5,"ySR":469.95,"xT1":424.9,"yT1":0,"xT2":1058.1,"yT2":0,"toosoon":0,"cond_shown":"equaldotanddens","ratio_trial":750,"smaller_num":"3","larger_num":"4","correct_side":2,"subjID":"juandiegoaguilera32","gender":"0","age":"9","school":"4"},{"start_time":1552328594410,"click_time":1552328595748,"finger_time":1552328595209,"fix_duration":899.5227782206396,"trial":5,"RT":799,"MT":539,"sideResp":2,"stimulus":"img/900/equaldotanddens/L/2_Ratio_900_L_20_R_18.png","xmouse":[754,754,754,754,754,754,754,754,754,754,754,754,755,755,755,755,755,755,755,755,757,760,761,761,761,761,761,761,761,761,761,761,761,762,763,765,777,785,796,820,841,881,901,922,938,955,985,996,1014,1031,1049,1076,1081,1082,1082,1082,1082,1082,1082,1082,1083,1083,1084,1089,1095,1100,1103],"ymouse":[530,530,530,530,529,529,529,529,529,528,528,528,527,527,527,527,527,527,527,526,524,515,513,513,513,513,512,512,512,512,512,510,508,506,506,503,492,485,477,456,442,414,400,385,371,357,325,308,278,258,239,216,211,208,208,208,208,206,205,199,192,167,152,137,120,105,77],"timestamp_mouse":[19,39,58,78,99,118,139,159,178,198,219,240,259,279,298,319,338,358,379,398,418,438,458,478,499,519,539,559,580,598,618,638,658,678,699,719,738,760,779,799,818,838,858,878,898,918,938,958,978,998,1018,1038,1058,1079,1098,1120,1139,1160,1178,1198,1219,1238,1258,1278,1298,1320,1338],"xSR":741.5,"ySR":469.95,"xT1":424.9,"yT1":0,"xT2":1058.1,"yT2":0,"toosoon":0,"cond_shown":"equaldotanddens","ratio_trial":900,"smaller_num":"18","larger_num":"20","correct_side":1,"subjID":"juandiegoaguilera32","gender":"0","age":"9","school":"4"},{"start_time":1552328598853,"click_time":1552328600668,"finger_time":1552328599448,"fix_duration":763.4909153927997,"trial":6,"RT":595,"MT":1220,"sideResp":1,"stimulus":"img/900/randomdotsizeEA/R/5_Ratio_900_L_9_R_10.png","xmouse":[813,813,810,808,807,807,805,804,803,797,795,793,792,790,788,786,785,784,784,784,784,784,784,784,792,797,801,804,806,809,810,810,812,815,827,838,842,844,846,849,849,849,849,849,849,849,849,849,848,838,835,829,825,823,821,820,819,817,810,786,772,760,752,750,742,736,728,716,700,662,648,642,640,639,637,635,632,627,622,614,604,590,574,563,559,556,556,554,551,534,524],"ymouse":[500,500,498,498,497,497,497,497,497,499,500,501,502,503,504,505,506,507,507,507,507,507,507,506,495,487,482,476,473,468,467,466,464,454,428,406,395,383,372,361,359,357,354,350,329,319,308,297,289,269,260,248,238,232,229,228,228,228,225,219,212,207,202,198,162,143,122,110,93,70,64,62,61,61,59,58,57,55,54,53,52,50,50,50,50,50,50,50,50,50,50],"timestamp_mouse":[27,35,56,75,95,115,136,156,175,196,215,236,255,275,295,315,335,356,376,395,415,436,456,475,495,516,535,556,575,595,615,636,655,675,696,715,735,756,775,796,815,836,855,875,895,915,935,955,975,996,1015,1035,1055,1076,1096,1115,1135,1155,1175,1196,1215,1236,1255,1275,1295,1315,1335,1355,1375,1396,1415,1436,1455,1475,1496,1515,1535,1555,1576,1596,1615,1635,1655,1676,1696,1715,1735,1755,1776,1796,1815],"xSR":741.5,"ySR":469.95,"xT1":424.9,"yT1":0,"xT2":1058.1,"yT2":0,"toosoon":0,"cond_shown":"randomdotsizeEA","ratio_trial":900,"smaller_num":"9","larger_num":"10","correct_side":2,"subjID":"juandiegoaguilera32","gender":"0","age":"9","school":"4"},{"start_time":1552328602340,"click_time":1552328603469,"finger_time":1552328602828,"fix_duration":390.88036631173105,"trial":7,"RT":488,"MT":641,"sideResp":2,"stimulus":"img/750/equaldotsize/R/5_Ratio_750_L_15_R_20.png","xmouse":[777,772,770,768,768,768,767,767,767,767,767,767,767,767,767,767,767,767,767,767,768,774,782,790,802,824,845,874,910,952,1037,1037,1037,1037,1037,1037,1037,1037,1037,1037,1037,1037,1037,1037,1037,1037,1037,1037,1037,1037,1037,1037,1037,1037,1037,1037,1137],"ymouse":[504,504,504,505,505,505,505,505,505,505,505,505,505,505,505,505,505,505,505,505,504,495,483,470,451,409,365,305,236,167,25,25,25,25,25,25,25,25,25,25,25,25,25,25,25,25,25,25,25,25,25,25,25,25,25,25,13],"timestamp_mouse":[8,29,55,69,88,108,128,148,169,189,209,228,248,269,289,308,328,348,368,388,409,429,448,468,488,510,528,549,569,588,609,628,648,668,689,709,729,748,768,788,809,829,848,868,888,908,928,949,969,989,1009,1028,1049,1069,1089,1109,1128],"xSR":741.5,"ySR":469.95,"xT1":424.9,"yT1":0,"xT2":1058.1,"yT2":0,"toosoon":0,"cond_shown":"equaldotsize","ratio_trial":750,"smaller_num":"15","larger_num":"20","correct_side":2,"subjID":"juandiegoaguilera32","gender":"0","age":"9","school":"4"},{"start_time":1552328605120,"click_time":1552328605468,"finger_time":1552328605389,"fix_duration":250,"trial":8,"RT":269,"MT":79,"sideResp":2,"stimulus":"img/750/randomdotsizeEA/L/14_Ratio_750_L_8_R_6.png","xmouse":[763,763,764,764,764,764,764,764,764,764,764,764,764,784,831,895,977,1100],"ymouse":[541,537,530,528,528,528,528,528,528,528,527,523,487,432,357,269,173,27],"timestamp_mouse":[8,28,60,68,90,108,128,148,168,188,208,228,249,269,288,308,328,348],"xSR":741.5,"ySR":469.95,"xT1":424.9,"yT1":0,"xT2":1058.1,"yT2":0,"toosoon":0,"cond_shown":"randomdotsizeEA","ratio_trial":750,"smaller_num":"6","larger_num":"8","correct_side":1,"subjID":"juandiegoaguilera32","gender":"0","age":"9","school":"4"},{"start_time":1552328620600,"click_time":1552328622569,"finger_time":1552328621348,"fix_duration":250,"trial":9,"RT":748,"MT":1221,"sideResp":1,"stimulus":"img/250/equaldotsize/L/3_Ratio_250_L_8_R_2.png","xmouse":[785,785,785,785,785,785,784,784,784,783,782,781,781,781,781,781,781,781,781,781,781,781,781,781,781,781,781,781,781,781,781,781,781,782,783,791,794,795,795,788,757,731,704,685,670,665,665,666,681,707,758,773,783,791,812,821,824,825,825,825,825,825,825,825,825,825,824,810,786,747,639,594,571,557,551,546,546,546,546,546,546,546,546,546,546,546,546,546,546,546,546,546,546,546,546,546,546,546,484],"ymouse":[519,519,519,519,519,519,520,520,520,521,521,523,523,523,523,523,523,523,523,523,523,523,523,523,523,523,523,523,523,523,523,523,523,523,521,503,491,465,448,428,381,349,318,296,281,275,275,273,265,251,212,197,188,184,183,185,185,185,185,185,185,185,185,185,185,185,185,177,163,141,94,69,51,35,18,3,3,3,3,3,3,3,3,3,3,3,3,3,3,3,3,3,3,3,3,3,3,3,1],"timestamp_mouse":[19,32,50,69,89,109,129,148,168,188,208,229,248,268,289,309,329,349,368,388,409,428,448,469,489,509,528,549,569,590,609,629,648,668,689,708,728,748,768,790,808,828,848,868,888,908,929,948,969,988,1008,1029,1048,1068,1090,1109,1128,1148,1168,1189,1208,1228,1248,1268,1289,1309,1329,1348,1369,1388,1408,1429,1448,1469,1488,1509,1528,1548,1569,1589,1608,1628,1649,1669,1689,1708,1728,1749,1769,1789,1808,1829,1848,1869,1889,1909,1928,1949,1969],"xSR":741.5,"ySR":469.95,"xT1":424.9,"yT1":0,"xT2":1058.1,"yT2":0,"toosoon":0,"cond_shown":"equaldotsize","ratio_trial":250,"smaller_num":"2","larger_num":"8","correct_side":1,"subjID":"juandiegoaguilera32","gender":"0","age":"9","school":"4"},{"start_time":1552328629200,"click_time":1552328631548,"finger_time":1552328630148,"fix_duration":250,"trial":10,"RT":948,"MT":1400,"sideResp":1,"stimulus":"img/500/randomdotsizeEA/R/15_Ratio_500_L_1_R_2.png","xmouse":[796,796,796,796,796,796,796,796,796,796,796,796,794,794,794,794,794,794,794,794,794,794,794,794,794,794,794,794,794,794,794,794,794,795,796,797,800,802,805,809,811,818,822,824,828,834,839,844,855,869,884,913,923,935,941,945,950,951,952,952,953,955,955,956,956,956,956,956,956,956,958,961,963,965,967,968,969,969,969,969,969,969,969,969,969,970,970,970,970,967,963,954,952,950,949,948,913,874,842,818,792,716,678,647,638,632,612,602,597,594,594,592,590,576,564,552,534,522],"ymouse":[544,544,544,544,544,544,544,544,544,544,544,544,545,545,545,545,545,545,545,545,545,545,545,545,545,545,545,545,545,545,545,545,545,545,545,545,545,545,545,545,543,542,541,540,538,534,530,526,517,500,479,437,420,401,390,383,373,370,368,367,366,364,364,363,363,362,361,361,361,361,359,356,353,351,347,344,342,342,342,342,342,342,342,342,342,342,336,329,319,305,293,272,266,262,262,262,251,232,211,194,179,145,128,115,110,108,99,95,92,92,92,91,90,87,82,78,74,70],"timestamp_mouse":[12,37,48,69,88,109,128,149,169,189,208,228,249,269,288,308,329,349,369,389,409,429,449,469,489,508,528,549,568,589,609,629,648,669,689,708,729,748,770,788,809,828,850,868,888,910,928,948,968,988,1008,1028,1049,1068,1089,1108,1128,1148,1168,1190,1208,1228,1248,1268,1288,1308,1328,1350,1369,1388,1408,1428,1448,1468,1489,1508,1529,1548,1569,1589,1609,1628,1648,1668,1688,1708,1728,1748,1768,1788,1808,1828,1849,1868,1888,1909,1928,1948,1969,1988,2008,2028,2048,2069,2089,2109,2129,2149,2169,2188,2209,2228,2248,2268,2288,2308,2328,2348],"xSR":741.5,"ySR":469.95,"xT1":424.9,"yT1":0,"xT2":1058.1,"yT2":0,"toosoon":0,"cond_shown":"randomdotsizeEA","ratio_trial":500,"smaller_num":"1","larger_num":"2","correct_side":2,"subjID":"juandiegoaguilera32","gender":"0","age":"9","school":"4"},{"start_time":1552328633760,"click_time":1552328635169,"finger_time":1552328634128,"fix_duration":250,"trial":11,"RT":368,"MT":1041,"sideResp":2,"stimulus":"img/900/equaldotanddens/L/10_Ratio_900_L_20_R_18.png","xmouse":[771,770,770,770,770,770,770,770,770,770,770,770,772,779,790,804,820,834,860,868,874,877,877,878,878,878,878,878,878,878,878,878,877,876,876,876,876,875,875,878,879,881,884,892,902,909,917,925,939,943,944,945,946,948,949,950,953,958,967,972,979,990,1006,1032,1038,1046,1055,1067,1091,1104,1115],"ymouse":[528,529,529,529,531,532,532,532,532,532,532,532,532,527,518,506,492,474,440,424,412,403,399,397,397,397,397,397,397,396,396,396,396,396,396,396,396,395,395,388,386,382,375,361,345,336,325,314,293,286,283,279,276,272,269,265,261,256,246,242,235,228,218,196,186,174,163,150,122,105,85],"timestamp_mouse":[13,31,49,68,88,108,128,148,168,188,209,229,248,268,290,308,330,348,368,388,408,428,449,468,489,508,529,548,569,588,608,628,648,669,689,708,729,749,768,788,808,829,848,869,888,908,928,948,969,988,1009,1029,1049,1069,1089,1108,1128,1148,1169,1188,1208,1229,1249,1268,1288,1308,1329,1348,1369,1388,1409],"xSR":741.5,"ySR":469.95,"xT1":424.9,"yT1":0,"xT2":1058.1,"yT2":0,"toosoon":0,"cond_shown":"equaldotanddens","ratio_trial":900,"smaller_num":"18","larger_num":"20","correct_side":1,"subjID":"juandiegoaguilera32","gender":"0","age":"9","school":"4"},{"start_time":1552328637287,"click_time":1552328638888,"finger_time":1552328637548,"fix_duration":995.5200451667671,"trial":12,"RT":261,"MT":1340,"sideResp":2,"stimulus":"img/750/equaldotsize/R/5_Ratio_750_L_15_R_20.png","xmouse":[785,785,785,785,785,785,784,781,778,776,770,761,747,715,680,665,646,644,659,686,708,713,713,714,714,714,716,714,709,705,705,705,705,705,705,705,704,692,687,683,677,676,676,677,681,695,703,713,726,730,732,732,732,735,735,736,738,741,747,748,748,748,748,756,788,879,936,967,997,1002,1004,1004,1004,1004,1004,1008,1015,1024,1042,1051,1067],"ymouse":[529,529,529,529,529,529,529,529,529,529,530,531,531,535,545,550,553,553,553,553,553,553,553,553,553,550,548,548,548,548,548,548,548,548,548,548,548,558,570,582,593,595,595,589,583,562,544,522,477,453,430,410,391,368,361,356,352,347,339,337,337,337,337,334,324,313,303,293,284,283,282,282,282,282,282,280,272,259,211,158,86],"timestamp_mouse":[10,22,41,62,81,102,121,141,161,181,202,221,241,261,281,301,321,341,362,381,402,421,442,461,481,502,522,542,561,583,602,622,642,662,682,701,722,742,761,782,801,822,842,861,881,901,921,943,961,981,1002,1021,1042,1061,1082,1101,1122,1141,1161,1182,1201,1221,1242,1261,1281,1301,1322,1341,1361,1381,1401,1422,1441,1462,1482,1502,1521,1541,1561,1581,1601],"xSR":741.5,"ySR":469.95,"xT1":424.9,"yT1":0,"xT2":1058.1,"yT2":0,"toosoon":0,"cond_shown":"equaldotsize","ratio_trial":750,"smaller_num":"15","larger_num":"20","correct_side":2,"subjID":"juandiegoaguilera32","gender":"0","age":"9","school":"4"},{"start_time":1552328640499,"click_time":1552328641828,"finger_time":1552328641169,"fix_duration":250,"trial":13,"RT":670,"MT":659,"sideResp":2,"stimulus":"img/900/equaldotanddens/R/6_Ratio_900_L_9_R_10.png","xmouse":[778,778,778,778,778,778,778,778,778,778,778,778,778,778,778,778,778,778,778,778,778,778,778,778,778,778,778,778,778,778,778,780,783,796,811,821,830,837,839,839,840,840,842,847,853,863,879,951,989,1013,1024,1030,1035,1038,1038,1038,1038,1038,1038,1038,1038,1038,1038,1041,1048,1057,1067],"ymouse":[494,494,494,494,494,494,494,494,494,494,494,494,494,494,494,494,494,494,494,494,494,494,494,494,494,494,494,494,494,494,494,492,486,457,422,401,387,372,370,369,367,365,362,355,349,341,330,275,242,208,177,151,112,103,103,103,103,103,102,102,102,102,102,99,94,86,74],"timestamp_mouse":[12,30,50,69,89,109,129,151,169,189,209,229,249,270,289,310,329,349,369,389,410,429,449,470,489,509,529,549,570,589,611,630,649,670,690,710,729,750,769,789,809,829,849,869,889,910,929,949,969,989,1009,1029,1050,1070,1089,1109,1130,1151,1169,1189,1210,1229,1250,1269,1289,1310,1329],"xSR":741.5,"ySR":469.95,"xT1":424.9,"yT1":0,"xT2":1058.1,"yT2":0,"toosoon":0,"cond_shown":"equaldotanddens","ratio_trial":900,"smaller_num":"9","larger_num":"10","correct_side":2,"subjID":"juandiegoaguilera32","gender":"0","age":"9","school":"4"},{"start_time":1552328643204,"click_time":1552328645068,"finger_time":1552328644509,"fix_duration":255.30438903450136,"trial":14,"RT":1305,"MT":559,"sideResp":1,"stimulus":"img/500/randomdotsizeEA/L/8_Ratio_500_L_8_R_4.png","xmouse":[773,773,773,773,773,773,773,773,773,773,773,773,773,773,773,773,773,773,773,773,773,773,773,773,773,773,773,773,773,773,773,773,773,773,773,773,773,773,773,773,774,774,774,774,774,774,774,774,774,774,774,774,774,774,774,774,775,775,775,775,775,776,779,782,784,784,784,790,790,790,790,789,787,784,782,778,773,758,751,744,733,723,706,699,690,681,672,661,631,613,595,576,545,523],"ymouse":[523,523,523,523,523,523,523,523,523,523,523,523,523,523,523,523,523,523,523,523,523,523,523,523,523,523,523,523,523,523,523,523,523,523,523,523,523,523,523,523,523,523,523,523,523,523,523,523,523,523,523,522,522,522,522,522,522,521,518,517,513,508,502,486,474,464,455,424,414,409,402,396,388,367,352,338,323,291,280,267,247,226,188,173,160,150,142,138,127,119,111,103,95,92],"timestamp_mouse":[12,24,45,64,84,104,124,144,165,185,204,225,244,266,285,304,324,344,364,384,404,425,445,465,485,505,525,545,565,585,606,624,644,664,684,704,725,744,765,785,804,825,844,865,885,905,924,944,965,985,1005,1024,1045,1065,1084,1106,1125,1145,1165,1184,1205,1224,1244,1264,1285,1305,1325,1345,1364,1384,1404,1424,1446,1464,1484,1504,1526,1545,1564,1584,1604,1624,1645,1664,1684,1704,1724,1744,1765,1784,1804,1824,1846,1864],"xSR":741.5,"ySR":469.95,"xT1":424.9,"yT1":0,"xT2":1058.1,"yT2":0,"toosoon":0,"cond_shown":"randomdotsizeEA","ratio_trial":500,"smaller_num":"4","larger_num":"8","correct_side":1,"subjID":"juandiegoaguilera32","gender":"0","age":"9","school":"4"},{"start_time":1552328648626,"click_time":1552328650869,"finger_time":1552328649609,"fix_duration":494.8996102700778,"trial":15,"RT":983,"MT":1260,"sideResp":1,"stimulus":"img/750/randomdotsizeEA/L/1_Ratio_750_L_20_R_15.png","xmouse":[789,789,789,789,789,789,789,789,789,789,789,789,789,789,790,790,790,790,790,790,790,790,790,790,790,790,790,790,790,790,790,790,790,790,789,789,788,786,785,785,785,785,785,785,785,785,785,785,786,792,799,808,840,868,884,900,916,950,967,976,981,982,982,982,982,982,982,983,983,983,983,983,983,983,981,980,978,971,961,947,926,901,872,872,872,870,862,847,807,779,753,728,661,592,552,530,522,522,522,522,522,522,522,522,522,522,522,522,522,522,518,515,490],"ymouse":[568,568,568,568,568,568,568,568,568,567,566,562,560,558,556,554,553,552,552,552,552,552,552,552,552,552,552,552,552,552,551,550,546,542,540,538,536,531,530,529,529,529,529,529,528,524,518,496,475,450,424,396,328,278,251,224,202,162,148,140,135,134,134,134,134,134,134,133,132,132,132,132,131,131,131,129,128,121,115,104,94,85,76,76,76,76,76,76,71,63,55,48,35,20,10,3,0,0,0,0,0,0,0,0,0,0,0,0,0,0,0,0,7],"timestamp_mouse":[12,22,42,63,82,102,122,142,162,183,202,222,242,263,282,303,322,343,363,383,403,422,442,463,483,503,523,542,563,583,603,623,642,662,683,703,722,742,762,782,803,822,842,862,882,903,922,942,962,983,1002,1023,1042,1063,1082,1103,1122,1142,1162,1183,1203,1222,1242,1262,1283,1302,1323,1343,1362,1383,1403,1423,1442,1462,1482,1502,1522,1543,1562,1582,1603,1622,1643,1662,1682,1702,1722,1742,1762,1782,1803,1822,1842,1862,1882,1902,1923,1942,1962,1982,2003,2023,2042,2063,2083,2104,2122,2142,2163,2182,2202,2223,2243],"xSR":741.5,"ySR":469.95,"xT1":424.9,"yT1":0,"xT2":1058.1,"yT2":0,"toosoon":0,"cond_shown":"randomdotsizeEA","ratio_trial":750,"smaller_num":"15","larger_num":"20","correct_side":1,"subjID":"juandiegoaguilera32","gender":"0","age":"9","school":"4"},{"start_time":1552328680333,"click_time":1552328681009,"finger_time":1552328680649,"fix_duration":802.6191448389553,"trial":16,"RT":316,"MT":360,"sideResp":2,"stimulus":"img/900/randomdotsizeEA/L/4_Ratio_900_L_20_R_18.png","xmouse":[814,814,818,820,821,822,822,822,822,822,822,822,824,827,830,853,877,902,922,945,952,956,959,961,968,971,976,982,991,1013,1026,1039,1056,1081],"ymouse":[528,528,529,530,530,530,530,530,530,530,530,530,530,530,530,511,492,468,439,372,343,315,291,274,245,238,229,220,202,158,133,109,88,63],"timestamp_mouse":[33,36,57,76,96,115,136,155,176,196,216,235,255,276,295,315,335,355,375,396,415,436,455,476,496,515,535,555,575,597,615,635,655,675],"xSR":741.5,"ySR":469.95,"xT1":424.9,"yT1":0,"xT2":1058.1,"yT2":0,"toosoon":0,"cond_shown":"randomdotsizeEA","ratio_trial":900,"smaller_num":"18","larger_num":"20","correct_side":1,"subjID":"juandiegoaguilera32","gender":"0","age":"9","school":"4"},{"start_time":1552328717555,"click_time":1552328725289,"finger_time":1552328723208,"fix_duration":444.29382534348196,"trial":17,"RT":5653,"MT":2081,"sideResp":2,"stimulus":"img/250/randomdotsizeEA/R/13_Ratio_250_L_2_R_8.png","xmouse":[768,768,768,768,768,768,768,770,770,770,770,772,772,772,772,772,772,772,772,772,772,772,772,772,772,772,772,772,772,772,772,772,772,772,772,772,772,772,772,772,772,772,772,772,772,772,772,772,772,772,772,772,772,772,772,772,772,772,772,772,772,772,772,772,772,772,772,772,772,772,772,772,772,772,772,772,772,772,772,772,772,772,772,772,772,772,772,772,772,772,772,772,772,772,772,772,772,772,772,772,772,772,772,772,772,772,772,772,772,772,772,772,772,772,772,772,772,772,772,772,772,772,772,772,772,772,772,772,772,772,772,772,772,772,772,772,772,772,772,772,772,772,772,772,772,772,772,772,772,772,772,772,772,772,772,772,772,772,772,772,772,772,772,772,772,772,772,772,772,772,772,772,772,772,772,772,772,772,772,772,772,772,772,772,772,772,772,772,772,772,772,772,772,772,772,772,772,772,772,772,772,772,772,772,772,772,772,772,772,772,772,772,772,772,772,772,772,772,772,772,772,772,772,772,772,772,772,772,772,772,772,772,772,772,772,772,772,772,772,772,772,772,772,772,772,772,772,772,772,772,772,772,772,772,773,776,786,803,809,809,809,809,810,810,810,810,810,810,810,810,810,810,810,810,810,810,810,810,810,812,813,816,817,817,818,826,839,862,869,869,869,869,869,869,869,869,869,869,869,869,869,869,869,870,910,915,915,915,918,922,922,926,930,938,940,940,940,941,943,945,948,952,966,981,1035,1055,1070,1074,1077,1077,1078,1079,1079,1079,1079,1079,1079,1079,1079,1076,1072,1068,1060,1058,1059,1061,1062,1062,1062,1062,1062,1062,1062,1063,1067,1068,1066,1054,1039,1035,1035,1035,1035,1035,1035,1035,1035,1038,1045,1064,1070,1076,1077,1077,1078,1078,1078,1078,1078,1078,1078,1078,1077,1076,1078,1082,1086],"ymouse":[520,520,520,520,520,520,520,522,526,528,529,528,527,527,527,527,527,527,527,527,527,527,527,527,527,527,527,527,527,527,527,527,527,527,527,527,527,527,527,527,527,527,527,527,527,527,527,527,527,527,527,527,527,527,527,527,527,527,527,527,527,527,527,527,527,527,527,527,527,527,527,527,527,527,527,527,527,527,527,527,527,527,527,527,527,527,527,527,527,527,527,527,527,527,527,527,527,527,527,527,527,527,527,527,527,527,527,527,527,527,527,527,527,527,527,527,527,527,527,527,527,527,527,527,527,527,527,527,527,527,527,527,527,527,527,527,527,527,527,527,527,527,527,527,527,527,527,527,527,527,527,527,527,527,527,527,527,527,527,527,527,527,527,527,527,527,527,527,527,527,527,527,527,527,527,527,527,527,527,527,527,527,527,527,527,527,527,527,527,527,527,527,527,527,527,527,527,527,527,527,527,527,527,527,527,527,527,527,527,527,527,527,527,527,527,527,527,527,527,527,527,527,527,527,527,527,527,527,527,527,527,527,527,527,527,527,527,527,527,527,527,527,527,527,527,527,527,527,527,527,527,527,527,527,526,523,515,505,504,504,504,504,504,503,503,503,503,503,503,503,503,503,503,503,503,503,503,499,496,480,474,471,469,468,467,464,462,458,457,457,457,457,457,457,457,457,457,457,457,457,457,457,457,460,496,508,523,541,553,561,563,562,558,550,548,548,548,547,546,545,542,539,534,532,523,517,511,508,491,480,472,471,471,470,468,466,462,460,457,451,445,436,418,410,400,397,395,395,395,395,395,394,394,393,378,361,339,313,286,268,268,267,267,267,267,267,266,262,249,216,201,183,176,174,171,171,171,171,171,171,170,168,162,157,135,113,95],"timestamp_mouse":[13,33,53,72,93,113,133,153,174,192,214,233,254,273,294,313,333,354,373,393,414,434,453,474,494,513,533,554,574,593,613,634,653,674,694,714,734,753,774,793,813,833,853,874,894,913,933,953,974,993,1013,1034,1053,1073,1093,1113,1133,1153,1174,1194,1213,1233,1253,1273,1294,1313,1333,1354,1373,1393,1413,1434,1453,1474,1494,1513,1534,1553,1574,1593,1613,1633,1654,1673,1693,1713,1733,1753,1773,1793,1813,1834,1853,1873,1893,1914,1934,1953,1973,1993,2014,2034,2053,2073,2094,2114,2134,2154,2173,2193,2213,2233,2253,2273,2294,2313,2333,2353,2373,2394,2413,2434,2453,2473,2493,2513,2534,2553,2573,2592,2613,2634,2653,2673,2693,2713,2734,2753,2773,2793,2814,2833,2854,2873,2894,2913,2934,2953,2973,2994,3013,3033,3053,3073,3094,3113,3134,3154,3173,3194,3214,3233,3254,3273,3293,3313,3333,3354,3373,3394,3413,3433,3453,3473,3494,3513,3534,3553,3573,3594,3613,3634,3653,3673,3694,3713,3733,3754,3772,3794,3814,3833,3854,3873,3893,3914,3933,3953,3973,3993,4014,4033,4054,4073,4094,4114,4134,4154,4174,4194,4213,4233,4254,4273,4293,4313,4333,4354,4374,4393,4414,4434,4453,4473,4494,4514,4533,4553,4573,4594,4613,4634,4654,4673,4693,4714,4734,4754,4773,4794,4813,4834,4853,4873,4894,4913,4933,4954,4974,4993,5013,5034,5053,5072,5094,5113,5134,5153,5174,5194,5213,5233,5254,5274,5294,5313,5334,5353,5373,5394,5413,5434,5453,5474,5494,5514,5534,5553,5574,5593,5613,5633,5653,5673,5693,5714,5733,5753,5774,5793,5813,5833,5853,5874,5893,5913,5933,5953,5974,5993,6014,6033,6053,6074,6093,6114,6134,6153,6173,6193,6213,6232,6253,6274,6293,6313,6333,6353,6374,6393,6413,6433,6453,6473,6493,6513,6533,6554,6575,6594,6613,6633,6654,6675,6693,6714,6733,6753,6774,6793,6813,6834,6853,6873,6893,6912,6933,6953,6973,6993,7013,7034,7054,7073,7094,7113,7134,7152,7174,7193,7213,7233,7254,7273,7293,7312,7333,7354,7373,7394,7414,7432,7452,7473,7493,7513,7534,7554,7574,7593,7613,7632,7653,7674,7693,7714,7734],"xSR":741.5,"ySR":469.95,"xT1":424.9,"yT1":0,"xT2":1058.1,"yT2":0,"toosoon":0,"cond_shown":"randomdotsizeEA","ratio_trial":250,"smaller_num":"2","larger_num":"8","correct_side":2,"subjID":"juandiegoaguilera32","gender":"0","age":"9","school":"4"},{"start_time":1552328729946,"click_time":1552328732209,"finger_time":1552328730609,"fix_duration":476.4387954294498,"trial":18,"RT":663,"MT":1600,"sideResp":1,"stimulus":"img/500/equaldotanddens/L/10_Ratio_500_L_4_R_2.png","xmouse":[793,793,793,793,792,792,791,790,789,788,786,770,764,761,760,758,758,758,758,760,760,760,760,761,762,762,764,764,764,764,765,765,765,764,763,761,759,759,759,759,759,759,761,766,775,786,799,799,798,791,767,755,740,727,718,706,704,704,704,704,700,685,669,651,634,624,624,624,624,624,624,624,620,615,611,610,610,610,610,610,605,592,572,561,558,556,556,561,569,591,603,610,610,610,610,610,610,610,610,610,610,603,595,586,581,577,565,556,554,553,553,547,530,502],"ymouse":[505,505,505,505,504,504,504,501,501,500,499,496,495,494,494,491,489,487,486,485,485,485,485,484,481,480,478,478,478,477,474,473,471,468,461,444,431,422,414,408,393,387,376,364,346,327,291,272,254,232,174,153,133,116,102,87,85,84,84,84,84,82,79,75,71,67,67,67,67,67,67,67,67,67,67,67,67,67,67,67,67,66,65,65,65,66,66,66,66,66,64,53,48,46,46,46,46,46,45,45,45,47,51,56,60,62,63,63,63,63,63,63,58,46],"timestamp_mouse":[11,22,43,62,81,102,122,142,162,182,202,223,242,263,282,303,322,343,362,382,403,422,442,463,481,503,521,542,562,582,602,622,642,663,682,703,722,742,762,782,802,822,843,862,882,902,922,942,962,984,1003,1022,1042,1063,1083,1103,1122,1142,1163,1182,1203,1223,1242,1263,1283,1303,1322,1343,1362,1382,1402,1422,1442,1462,1483,1502,1522,1543,1563,1583,1603,1622,1643,1662,1682,1703,1723,1743,1762,1783,1803,1823,1842,1862,1883,1903,1921,1943,1963,1982,2003,2021,2042,2062,2083,2102,2122,2143,2163,2183,2203,2223,2243,2262],"xSR":741.5,"ySR":469.95,"xT1":424.9,"yT1":0,"xT2":1058.1,"yT2":0,"toosoon":0,"cond_shown":"equaldotanddens","ratio_trial":500,"smaller_num":"2","larger_num":"4","correct_side":1,"subjID":"juandiegoaguilera32","gender":"0","age":"9","school":"4"},{"start_time":1552328750662,"click_time":1552328752908,"finger_time":1552328751408,"fix_duration":552.4245981523231,"trial":19,"RT":746,"MT":1500,"sideResp":1,"stimulus":"img/750/equaldotanddens/L/6_Ratio_750_L_24_R_18.png","xmouse":[801,801,801,801,801,801,801,801,801,801,801,802,803,803,803,803,803,803,803,803,803,803,803,804,802,800,798,796,796,796,796,796,796,796,794,791,786,772,766,762,762,762,768,769,769,769,769,768,768,768,768,768,767,765,764,762,759,756,754,752,748,745,742,741,735,724,708,690,690,690,690,688,680,672,658,642,618,615,614,614,614,614,614,613,612,612,612,612,612,612,612,611,611,610,610,610,610,610,610,610,610,610,609,604,602,601,599,591,579,562,544,532,522],"ymouse":[503,503,503,503,503,503,503,503,503,503,503,503,503,503,503,503,503,503,503,503,503,503,503,502,500,497,494,491,491,491,491,491,491,491,490,486,482,469,462,457,455,449,416,403,393,382,375,366,362,359,354,349,340,335,332,329,327,325,324,323,323,323,323,322,321,320,318,312,312,312,311,309,299,292,276,257,226,210,198,195,194,194,194,193,193,193,193,193,193,193,193,192,187,182,172,168,166,166,166,166,166,165,161,156,153,152,149,140,128,117,106,99,93],"timestamp_mouse":[13,27,47,67,87,106,127,147,167,186,207,226,247,267,286,306,327,347,367,387,406,427,447,466,485,507,526,546,566,587,607,626,647,666,686,706,726,746,767,787,806,826,845,866,886,906,926,947,966,986,1006,1026,1046,1066,1087,1106,1126,1146,1166,1186,1206,1226,1246,1266,1286,1306,1325,1347,1366,1387,1407,1427,1446,1466,1486,1506,1528,1545,1566,1587,1606,1626,1647,1666,1686,1707,1726,1745,1767,1787,1807,1825,1845,1866,1887,1906,1927,1946,1966,1986,2006,2026,2045,2067,2086,2107,2125,2146,2167,2187,2207,2227,2246],"xSR":741.5,"ySR":469.95,"xT1":424.9,"yT1":0,"xT2":1058.1,"yT2":0,"toosoon":0,"cond_shown":"equaldotanddens","ratio_trial":750,"smaller_num":"18","larger_num":"24","correct_side":1,"subjID":"juandiegoaguilera32","gender":"0","age":"9","school":"4"},{"start_time":1552328756264,"click_time":1552328758348,"finger_time":1552328757169,"fix_duration":455.21615635674226,"trial":20,"RT":905,"MT":1179,"sideResp":1,"stimulus":"img/250/randomdotsizeEA/L/7_Ratio_250_L_8_R_2.png","xmouse":[767,771,774,776,776,776,776,776,777,777,779,780,784,784,784,783,783,784,784,785,785,785,785,785,785,785,785,785,785,785,785,785,785,785,785,785,784,784,784,784,784,784,784,784,778,767,758,753,753,753,752,752,752,752,751,749,745,739,734,727,719,709,701,700,698,697,695,680,668,658,647,631,622,620,616,613,608,599,598,596,596,594,592,591,591,591,591,591,590,589,588,588,586,581,573,563,555,539,532,529,528,528,526,525,524],"ymouse":[539,537,537,537,537,537,537,537,536,536,535,535,531,527,522,519,518,516,516,515,515,515,515,515,515,515,515,515,515,515,515,515,515,515,516,516,517,517,517,517,517,517,515,503,485,462,444,426,401,392,388,386,385,384,384,384,382,375,366,354,343,329,317,314,312,309,304,284,271,260,247,229,216,209,203,193,183,166,162,157,154,148,147,145,145,145,145,145,145,145,145,145,142,133,123,112,99,84,79,76,76,75,74,72,71],"timestamp_mouse":[4,27,44,64,85,104,125,144,164,185,203,224,244,265,284,305,325,345,365,385,405,423,444,464,485,504,525,543,564,585,605,625,644,665,683,705,724,744,764,784,804,824,844,864,884,905,924,945,964,984,1005,1024,1045,1064,1084,1104,1123,1145,1164,1185,1205,1225,1246,1264,1284,1305,1324,1345,1364,1385,1403,1424,1445,1464,1485,1504,1524,1545,1564,1584,1603,1624,1645,1664,1684,1704,1724,1745,1765,1784,1804,1824,1845,1864,1884,1904,1925,1945,1964,1984,2003,2023,2045,2064,2084],"xSR":741.5,"ySR":469.95,"xT1":424.9,"yT1":0,"xT2":1058.1,"yT2":0,"toosoon":0,"cond_shown":"randomdotsizeEA","ratio_trial":250,"smaller_num":"2","larger_num":"8","correct_side":1,"subjID":"juandiegoaguilera32","gender":"0","age":"9","school":"4"},{"start_time":1552328760816,"click_time":1552328762768,"finger_time":1552328761608,"fix_duration":406.3938865499347,"trial":21,"RT":792,"MT":1160,"sideResp":2,"stimulus":"img/900/equaldotsize/R/9_Ratio_900_L_18_R_20.png","xmouse":[748,757,764,769,772,773,773,773,773,773,773,773,773,773,773,774,774,774,774,774,774,774,774,774,774,774,774,774,774,774,774,774,774,774,776,784,789,792,796,797,797,798,802,804,806,812,814,820,824,828,841,861,874,885,893,909,915,919,921,921,921,921,922,923,923,927,931,934,938,941,942,946,953,958,964,972,974,977,978,979,980,982,985,988,992,1000,1006,1011,1012,1014,1020,1027,1029,1034,1043,1051,1054,1065],"ymouse":[526,526,526,526,525,525,525,524,524,524,524,524,524,524,524,524,524,524,524,524,523,523,522,522,519,519,519,519,519,519,519,519,519,517,512,502,495,486,473,461,439,434,427,422,417,401,393,380,368,355,328,305,291,275,260,238,230,224,222,221,220,220,219,218,217,210,202,194,185,177,171,161,151,145,139,127,119,114,111,110,108,105,103,99,95,89,86,85,85,84,83,80,79,76,74,69,67,61],"timestamp_mouse":[16,33,53,72,93,112,132,152,172,192,212,233,253,272,292,312,333,352,372,393,412,433,453,472,492,513,533,551,572,593,613,633,652,672,692,712,732,752,771,792,812,832,852,872,892,912,932,952,973,993,1011,1033,1051,1072,1092,1112,1133,1152,1172,1192,1213,1233,1253,1272,1293,1312,1333,1352,1372,1392,1412,1432,1452,1472,1493,1513,1533,1552,1572,1592,1612,1633,1652,1672,1693,1712,1732,1752,1772,1792,1812,1833,1851,1873,1891,1912,1933,1952],"xSR":741.5,"ySR":469.95,"xT1":424.9,"yT1":0,"xT2":1058.1,"yT2":0,"toosoon":0,"cond_shown":"equaldotsize","ratio_trial":900,"smaller_num":"18","larger_num":"20","correct_side":2,"subjID":"juandiegoaguilera32","gender":"0","age":"9","school":"4"},{"start_time":1552328765508,"click_time":1552328769308,"finger_time":1552328768748,"fix_duration":1396.103900870772,"trial":22,"RT":3240,"MT":560,"sideResp":2,"stimulus":"img/500/equaldotsize/L/5_Ratio_500_L_4_R_2.png","xmouse":[798,798,798,798,798,798,798,798,798,798,798,798,798,798,798,798,798,798,798,798,798,798,798,798,798,798,798,798,798,798,798,798,798,798,798,798,798,798,798,798,798,798,798,798,798,798,798,798,798,798,798,798,798,798,798,798,798,798,798,798,798,798,798,798,798,798,798,798,798,798,798,798,798,798,798,798,798,798,798,798,798,798,798,798,798,798,798,798,798,798,798,798,798,798,798,798,798,798,798,798,798,798,798,798,798,798,798,798,798,798,798,798,798,798,798,798,798,798,798,798,798,798,798,798,798,798,798,798,798,798,798,798,798,798,798,798,798,798,798,798,798,798,798,798,798,798,798,798,798,798,798,798,798,798,798,798,798,798,798,798,800,808,903,982,1090,1124,1167,1205,1256,1277,1277,1277,1277,1277,1277,1277,1277,1277,1277,1277,1277,1277,1277,1277,1277,1277,1277,1277,1173,1163,1150],"ymouse":[531,531,531,531,531,531,531,531,531,531,531,531,531,531,531,531,531,531,531,531,531,531,531,531,531,531,531,531,531,531,531,531,531,531,531,531,531,531,531,531,531,531,531,531,531,531,531,531,531,531,531,531,531,531,531,531,531,531,531,531,531,531,531,531,531,531,531,531,531,531,531,531,531,531,531,531,531,531,531,531,531,531,531,531,531,531,531,531,531,531,531,531,531,531,531,531,531,531,531,531,531,531,531,531,531,531,531,531,531,531,531,531,531,531,531,531,531,531,531,531,531,531,531,531,531,531,531,531,531,531,531,531,531,531,531,531,531,531,531,531,531,531,531,531,531,531,531,531,531,531,531,531,531,531,531,531,531,531,531,531,526,508,320,234,142,112,75,50,20,8,8,8,8,8,8,8,8,8,8,8,8,8,8,8,8,8,8,8,2,10,21],"timestamp_mouse":[10,31,40,60,80,101,120,141,161,181,200,220,241,261,281,300,321,341,361,381,401,421,440,460,481,500,520,541,560,581,600,620,640,661,681,700,720,740,761,781,801,821,840,861,881,901,920,941,961,981,1000,1021,1040,1061,1080,1101,1120,1141,1161,1180,1201,1220,1241,1261,1281,1301,1319,1341,1361,1381,1399,1420,1441,1461,1481,1501,1520,1541,1561,1581,1601,1621,1641,1661,1680,1700,1720,1740,1761,1781,1800,1821,1840,1861,1881,1900,1920,1941,1960,1980,2000,2020,2041,2060,2081,2101,2120,2140,2161,2180,2201,2221,2240,2261,2280,2301,2321,2340,2361,2380,2401,2421,2440,2460,2480,2501,2520,2541,2561,2580,2600,2620,2640,2661,2680,2701,2721,2741,2760,2781,2801,2820,2840,2861,2880,2901,2920,2939,2961,2981,3001,3021,3040,3060,3080,3101,3120,3141,3161,3181,3199,3221,3240,3260,3280,3300,3322,3340,3361,3380,3401,3420,3442,3464,3481,3500,3522,3540,3560,3580,3600,3620,3640,3660,3681,3700,3721,3741,3760,3780,3800],"xSR":741.5,"ySR":469.95,"xT1":424.9,"yT1":0,"xT2":1058.1,"yT2":0,"toosoon":0,"cond_shown":"equaldotsize","ratio_trial":500,"smaller_num":"2","larger_num":"4","correct_side":1,"subjID":"juandiegoaguilera32","gender":"0","age":"9","school":"4"},{"start_time":1552328772805,"click_time":1552328774049,"finger_time":1552328773549,"fix_duration":433.95886080834623,"trial":23,"RT":744,"MT":500,"sideResp":1,"stimulus":"img/750/randomdotsizeEA/R/4_Ratio_750_L_15_R_20.png","xmouse":[760,760,760,760,760,760,760,760,760,760,760,760,760,760,760,760,760,760,760,760,760,760,760,760,760,760,760,760,760,760,760,760,760,760,760,760,762,788,800,808,817,818,815,812,808,804,802,802,800,793,777,751,707,695,687,677,665,622,601,587,579,563,476],"ymouse":[500,500,500,500,500,500,500,500,500,500,500,500,500,500,500,500,500,500,500,500,500,500,500,500,500,500,500,500,500,500,500,500,500,500,500,500,495,392,315,245,182,127,61,44,33,25,19,19,18,17,15,11,7,7,7,7,7,7,7,7,7,11,35],"timestamp_mouse":[12,24,43,64,84,104,123,143,163,184,203,224,243,263,284,303,323,343,364,384,404,424,443,464,484,504,523,543,564,583,603,624,643,664,684,703,723,744,762,783,803,823,844,863,883,903,923,944,964,983,1003,1024,1043,1063,1083,1103,1123,1143,1165,1183,1203,1224,1244],"xSR":741.5,"ySR":469.95,"xT1":424.9,"yT1":0,"xT2":1058.1,"yT2":0,"toosoon":0,"cond_shown":"randomdotsizeEA","ratio_trial":750,"smaller_num":"15","larger_num":"20","correct_side":2,"subjID":"juandiegoaguilera32","gender":"0","age":"9","school":"4"},{"start_time":1552328797075,"click_time":1552328798088,"finger_time":1552328797228,"fix_duration":1303.8478278639095,"trial":24,"RT":153,"MT":860,"sideResp":2,"stimulus":"img/750/equaldotanddens/R/15_Ratio_750_L_9_R_12.png","xmouse":[825,825,825,825,825,829,837,841,844,845,846,855,863,873,880,890,909,922,934,946,955,965,967,968,969,969,969,969,969,970,970,970,979,985,995,1004,1017,1018,1021,1028,1037,1044,1045,1045,1047,1052,1063,1069,1073,1075,1076],"ymouse":[492,492,492,492,492,489,477,468,463,458,454,439,426,409,386,358,289,255,228,199,178,143,121,113,110,109,109,109,109,109,109,109,109,109,109,107,107,107,107,107,107,107,107,107,107,107,106,104,102,100,99],"timestamp_mouse":[13,33,54,73,93,113,133,153,173,193,214,233,254,274,293,313,334,353,374,394,414,433,453,473,494,513,533,555,574,593,613,633,653,674,694,714,733,753,774,794,813,833,854,874,895,914,933,953,973,993,1013],"xSR":741.5,"ySR":469.95,"xT1":424.9,"yT1":0,"xT2":1058.1,"yT2":0,"toosoon":0,"cond_shown":"equaldotanddens","ratio_trial":750,"smaller_num":"9","larger_num":"12","correct_side":2,"subjID":"juandiegoaguilera32","gender":"0","age":"9","school":"4"},{"start_time":1552328799938,"click_time":1552328800748,"finger_time":1552328800208,"fix_duration":729.6580546887219,"trial":25,"RT":270,"MT":540,"sideResp":1,"stimulus":"img/900/randomdotsizeEA/R/12_Ratio_900_L_18_R_20.png","xmouse":[780,780,780,780,780,780,780,780,779,778,776,775,774,770,768,765,760,754,722,709,700,690,676,650,641,636,630,625,609,594,579,571,555,536,533,532,531,531,531,527,521],"ymouse":[513,513,513,513,513,509,503,500,479,478,476,475,470,454,438,415,385,348,232,185,153,119,87,44,34,30,28,27,26,26,26,26,26,30,32,34,34,34,34,34,34],"timestamp_mouse":[11,34,50,70,91,111,130,151,170,191,210,231,250,270,290,310,330,352,371,390,411,430,450,470,490,511,530,551,571,590,611,631,650,671,690,711,731,751,771,791,810],"xSR":741.5,"ySR":469.95,"xT1":424.9,"yT1":0,"xT2":1058.1,"yT2":0,"toosoon":0,"cond_shown":"randomdotsizeEA","ratio_trial":900,"smaller_num":"18","larger_num":"20","correct_side":2,"subjID":"juandiegoaguilera32","gender":"0","age":"9","school":"4"},{"start_time":1552328806114,"click_time":1552328806948,"finger_time":1552328806428,"fix_duration":602.7410790420992,"trial":26,"RT":314,"MT":520,"sideResp":2,"stimulus":"img/250/randomdotsizeEA/L/2_Ratio_250_L_16_R_4.png","xmouse":[789,789,789,789,789,789,789,789,789,789,789,789,789,790,797,845,861,873,873,873,873,873,873,873,873,873,873,873,873,873,873,873,873,873,873,873,873,873,873,873,873,1088],"ymouse":[543,543,543,543,543,543,543,543,543,543,543,543,543,533,511,289,184,81,30,30,30,30,30,30,30,30,30,30,30,30,30,30,30,30,30,30,30,30,30,30,30,6],"timestamp_mouse":[15,35,54,74,94,114,134,155,174,194,216,234,254,275,294,314,334,354,375,394,414,434,454,474,495,514,536,554,574,595,614,634,654,674,694,715,734,754,775,795,815,834],"xSR":741.5,"ySR":469.95,"xT1":424.9,"yT1":0,"xT2":1058.1,"yT2":0,"toosoon":0,"cond_shown":"randomdotsizeEA","ratio_trial":250,"smaller_num":"4","larger_num":"16","correct_side":1,"subjID":"juandiegoaguilera32","gender":"0","age":"9","school":"4"},{"start_time":1552328808480,"click_time":1552328809648,"finger_time":1552328808868,"fix_duration":250,"trial":27,"RT":388,"MT":780,"sideResp":1,"stimulus":"img/900/equaldotanddens/L/8_Ratio_900_L_20_R_18.png","xmouse":[796,796,796,796,796,796,796,797,797,797,797,797,797,797,797,797,797,798,798,798,784,770,754,754,754,751,750,746,736,725,717,713,709,690,674,656,643,634,632,631,631,631,627,611,603,592,578,575,554,539,534,532,532,532,532,532,531,528,524],"ymouse":[501,501,501,501,502,503,503,503,503,503,503,503,503,503,503,503,503,492,471,438,389,337,268,252,242,236,235,235,231,221,211,204,198,189,187,183,178,170,166,165,164,164,161,149,145,138,128,125,105,91,85,83,83,83,83,83,83,81,77],"timestamp_mouse":[20,28,49,68,88,108,128,148,169,188,209,228,248,268,288,308,328,348,368,388,408,429,449,468,488,508,528,549,570,588,609,628,649,668,688,709,729,748,768,789,810,829,848,868,889,909,929,949,969,988,1009,1029,1049,1068,1089,1109,1128,1149,1168],"xSR":741.5,"ySR":469.95,"xT1":424.9,"yT1":0,"xT2":1058.1,"yT2":0,"toosoon":0,"cond_shown":"equaldotanddens","ratio_trial":900,"smaller_num":"18","larger_num":"20","correct_side":1,"subjID":"juandiegoaguilera32","gender":"0","age":"9","school":"4"},{"start_time":1552328814729,"click_time":1552328815568,"finger_time":1552328815209,"fix_duration":1279.3527790085502,"trial":28,"RT":480,"MT":359,"sideResp":1,"stimulus":"img/250/equaldotanddens/R/12_Ratio_250_L_5_R_20.png","xmouse":[793,793,793,793,793,793,793,793,793,793,793,793,793,793,793,793,793,793,793,793,793,787,781,769,756,729,660,631,608,595,591,587,585,584,579,563,497,468,448,439,435,434,442],"ymouse":[506,506,506,506,506,506,506,506,506,506,506,506,506,506,506,506,506,506,506,506,506,502,489,471,448,418,351,329,309,299,295,293,292,290,283,271,225,201,183,163,145,124,71],"timestamp_mouse":[1,21,39,59,80,100,121,140,160,179,199,220,239,259,279,300,320,340,360,381,400,420,440,460,480,499,519,539,559,579,600,619,640,659,679,700,719,739,760,780,799,819,839],"xSR":741.5,"ySR":469.95,"xT1":424.9,"yT1":0,"xT2":1058.1,"yT2":0,"toosoon":0,"cond_shown":"equaldotanddens","ratio_trial":250,"smaller_num":"5","larger_num":"20","correct_side":2,"subjID":"juandiegoaguilera32","gender":"0","age":"9","school":"4"},{"start_time":1552328817281,"click_time":1552328818649,"finger_time":1552328817969,"fix_duration":451.0928397170564,"trial":29,"RT":688,"MT":680,"sideResp":2,"stimulus":"img/750/randomdotsizeEA/R/2_Ratio_750_L_6_R_8.png","xmouse":[794,794,794,794,794,794,794,794,794,794,794,794,794,794,794,794,794,794,794,794,794,794,794,794,794,794,794,794,794,794,794,794,804,819,825,833,841,849,869,880,893,902,910,922,930,937,949,968,1063,1123,1168,1193,1196,1196,1196,1196,1196,1196,1196,1196,1196,1196,1196,1196,1196,1196,1196,1158,1152],"ymouse":[544,544,544,544,544,544,544,544,544,544,544,544,544,544,544,544,544,544,544,544,544,544,544,544,544,544,544,544,544,544,542,539,517,479,459,437,412,390,347,328,309,297,287,276,274,271,264,251,171,127,82,37,5,5,5,5,5,5,5,5,5,5,5,5,5,5,5,0,4],"timestamp_mouse":[11,28,48,67,87,107,127,147,168,187,207,227,247,267,287,307,327,348,367,387,408,428,447,467,487,508,528,547,567,587,608,627,648,667,688,708,728,747,768,787,807,827,848,868,887,907,927,947,968,987,1007,1028,1047,1069,1088,1108,1128,1147,1168,1188,1207,1228,1248,1268,1287,1307,1327,1347,1368],"xSR":741.5,"ySR":469.95,"xT1":424.9,"yT1":0,"xT2":1058.1,"yT2":0,"toosoon":0,"cond_shown":"randomdotsizeEA","ratio_trial":750,"smaller_num":"6","larger_num":"8","correct_side":2,"subjID":"juandiegoaguilera32","gender":"0","age":"9","school":"4"},{"start_time":1552328825861,"click_time":1552328827308,"finger_time":1552328826668,"fix_duration":1171.1621921713906,"trial":30,"RT":807,"MT":640,"sideResp":1,"stimulus":"img/900/equaldotsize/R/11_Ratio_900_L_18_R_20.png","xmouse":[798,798,798,798,798,798,798,798,798,798,798,798,798,798,798,798,798,798,798,798,798,798,798,798,798,798,798,798,798,798,798,798,798,799,801,809,827,833,838,839,855,862,866,869,871,872,873,873,873,875,875,875,876,877,879,880,877,869,862,851,843,827,814,800,781,730,703,679,658,636,597,530,509],"ymouse":[512,512,512,512,512,512,512,512,512,512,512,512,512,512,512,512,512,512,512,512,512,512,512,512,512,512,512,512,512,512,512,512,512,511,510,505,497,493,490,488,479,473,469,466,462,460,457,456,454,449,441,433,422,408,395,359,339,318,304,285,276,256,246,234,222,191,175,162,150,132,106,61,44],"timestamp_mouse":[17,31,48,67,87,107,128,148,168,188,207,228,247,267,288,307,328,348,367,387,407,429,447,468,488,507,527,547,567,587,607,628,648,667,687,707,728,748,767,788,807,827,847,868,887,907,927,947,968,987,1008,1027,1049,1068,1087,1108,1127,1147,1168,1187,1208,1228,1247,1268,1288,1308,1327,1347,1368,1388,1407,1427,1447],"xSR":741.5,"ySR":469.95,"xT1":424.9,"yT1":0,"xT2":1058.1,"yT2":0,"toosoon":0,"cond_shown":"equaldotsize","ratio_trial":900,"smaller_num":"18","larger_num":"20","correct_side":2,"subjID":"juandiegoaguilera32","gender":"0","age":"9","school":"4"},{"start_time":1552328829439,"click_time":1552328830588,"finger_time":1552328830129,"fix_duration":1029.0072955388896,"trial":31,"RT":690,"MT":459,"sideResp":2,"stimulus":"img/900/randomdotsizeEA/L/10_Ratio_900_L_20_R_18.png","xmouse":[772,772,772,772,772,772,772,772,772,772,772,772,772,772,772,772,772,772,772,772,772,772,772,772,772,772,772,772,772,773,776,786,791,797,803,809,821,884,927,951,969,978,986,988,989,989,989,992,995,999,1002,1010,1017,1027,1038,1048,1055,1061],"ymouse":[500,500,500,500,500,500,500,500,500,500,500,500,500,500,500,500,500,500,500,500,500,500,500,500,500,500,500,500,500,500,499,489,485,477,469,459,444,402,384,369,356,346,334,330,326,323,319,300,275,253,229,178,156,138,120,107,96,83],"timestamp_mouse":[12,33,49,70,89,110,129,150,170,190,211,230,250,270,289,309,331,350,370,390,409,430,449,471,489,510,529,549,570,589,609,630,649,669,690,709,730,749,770,789,810,830,849,869,889,910,929,949,969,990,1009,1031,1049,1070,1089,1110,1131,1149],"xSR":741.5,"ySR":469.95,"xT1":424.9,"yT1":0,"xT2":1058.1,"yT2":0,"toosoon":0,"cond_shown":"randomdotsizeEA","ratio_trial":900,"smaller_num":"18","larger_num":"20","correct_side":1,"subjID":"juandiegoaguilera32","gender":"0","age":"9","school":"4"},{"start_time":15