[{"start_time":1552074493708,"click_time":1552074495172,"finger_time":1552074494593,"fix_duration":1330.6268422005976,"trial":0,"RT":885,"MT":579,"sideResp":2,"stimulus":"img/750/randomdotsizeEA/R/7_Ratio_750_L_3_R_4.png","xmouse":[824,824,824,824,824,824,824,824,824,824,824,824,824,824,824,824,824,824,824,824,824,824,824,824,824,824,824,824,824,824,824,824,824,824,824,824,824,824,824,824,824,824,824,828,844,864,903,951,997,1091,1138,1154,1161,1165,1173,1178,1184,1194,1214,1219,1219,1219,1219,1219,1219,1219,1219,1219,1219,1219,1219,1219,1219,1155],"ymouse":[559,559,559,559,559,559,559,559,559,559,559,559,559,559,559,559,559,559,559,559,559,559,559,559,559,559,559,559,559,559,559,559,559,559,559,559,559,559,559,559,559,559,558,554,545,537,527,519,505,425,312,232,193,158,127,111,94,73,25,11,11,11,11,11,11,11,11,11,11,11,11,11,11,14],"timestamp_mouse":[9,38,44,64,83,103,123,144,163,183,203,224,243,263,284,304,324,344,364,385,403,424,444,464,483,503,524,544,564,585,604,623,643,663,683,704,723,743,764,785,805,824,843,864,885,904,924,944,963,984,1003,1024,1043,1064,1083,1104,1124,1144,1165,1183,1203,1223,1244,1263,1284,1303,1324,1343,1365,1385,1404,1424,1445,1464],"xSR":741.5,"ySR":501.8,"xT1":424.9,"yT1":0,"xT2":1058.1,"yT2":0,"toosoon":0,"cond_shown":"randomdotsizeEA","ratio_trial":750,"smaller_num":"3","larger_num":"4","correct_side":2,"subjID":"JuanDiegoCastilloNaranjo35","gender":"0","age":"8","school":"4","test":{"fix_dur":[250,1500],"timestim":300,"targets_dim":[100,100],"targets_relative_coord":[0.3,0.7],"size_stim":[880,420],"start_dim":[100,100],"size_start":[300,300],"size_fix":60,"samplingrate":20,"img_types":["equaldotsize","equaldotanddens","randomdotsizeEA"],"ratios":[250,500,750,900],"rep_conds":9,"nTrials":120,"trials_to_rest":500,"Trials_order":[56,34,23,22,89,38,14,65,109,35,108,6,16,68,90,82,57,91,115,21,78,75,74,118,33,47,106,83,96,86,105,99,103,60,110,55,101,28,36,40,77,80,1,25,94,71,17,102,3,51,18,62,4,92,45,37,66,8,54,116,2,64,19,20,26,5,67,0,46,100,12,104,63,41,9,42,52,95,72,113,11,93,88,69,44,48,98,85,117,10,7,30,15,107,59,119,97,70,49,61,13,31,84,87,112,81,58,73,114,27,79,32,43,111,76,24,50,39,29,53],"cond_shown":["randomdotsizeEA","equaldotanddens","randomdotsizeEA","equaldotanddens","randomdotsizeEA","randomdotsizeEA","randomdotsizeEA","randomdotsizeEA","equaldotanddens","randomdotsizeEA","equaldotsize","equaldotsize","equaldotanddens","randomdotsizeEA","equaldotsize","equaldotanddens","equaldotsize","equaldotanddens","equaldotanddens","equaldotsize","equaldotsize","equaldotsize","randomdotsizeEA","equaldotanddens","equaldotsize","randomdotsizeEA","equaldotanddens","randomdotsizeEA","equaldotsize","randomdotsizeEA","equaldotsize","equaldotsize","equaldotanddens","equaldotsize","randomdotsizeEA","equaldotanddens","randomdotsizeEA","equaldotanddens","equaldotsize","equaldotanddens","randomdotsizeEA","randomdotsizeEA","equaldotanddens","equaldotanddens","equaldotanddens","randomdotsizeEA","randomdotsizeEA","equaldotsize","equaldotsize","equaldotsize","equaldotsize","randomdotsizeEA","equaldotanddens","randomdotsizeEA","equaldotsize","equaldotanddens","equaldotsize","randomdotsizeEA","equaldotsize","randomdotsizeEA","randomdotsizeEA","equaldotanddens","equaldotanddens","randomdotsizeEA","randomdotsizeEA","randomdotsizeEA","equaldotanddens","equaldotsize","equaldotanddens","equaldotanddens","equaldotsize","randomdotsizeEA","equaldotsize","randomdotsizeEA","equaldotsize","equaldotsize","equaldotanddens","randomdotsizeEA","equaldotsize","randomdotsizeEA","randomdotsizeEA","equaldotsize","equaldotanddens","equaldotsize","randomdotsizeEA","equaldotsize","randomdotsizeEA","equaldotanddens","equaldotsize","equaldotanddens","equaldotanddens","equaldotsize","equaldotsize","randomdotsizeEA","randomdotsizeEA","randomdotsizeEA","equaldotanddens","equaldotanddens","equaldotanddens","equaldotanddens","equaldotanddens","equaldotanddens","equaldotsize","equaldotsize","equaldotanddens","equaldotsize","equaldotanddens","equaldotanddens","equaldotsize","equaldotsize","equaldotanddens","randomdotsizeEA","equaldotanddens","equaldotsize","equaldotanddens","equaldotsize","randomdotsizeEA","equaldotsize","randomdotsizeEA","randomdotsizeEA"],"ratio_trial":[750,900,900,900,500,250,250,500,250,900,250,750,500,750,750,900,900,750,750,900,750,500,250,900,900,900,900,900,250,250,900,500,750,250,250,750,500,500,250,500,500,750,250,250,900,900,500,750,500,500,750,250,500,750,900,250,750,750,750,750,250,500,750,750,250,500,750,250,900,500,250,750,500,500,900,750,500,900,250,500,900,900,500,900,750,250,250,250,900,900,750,750,500,900,900,900,250,900,250,250,250,750,250,500,500,900,900,250,750,500,750,750,750,500,500,250,250,500,500,500],"smaller_num":["3","18","9","18","5","6","2","9","3","18","3","3","9","6","18","18","18","15","15","18","15","3","3","18","18","18","18","18","4","1","18","1","3","2","4","15","4","2","4","4","4","15","3","3","18","18","5","6","10","6","3","6","4","15","18","3","3","6","6","18","6","9","3","3","5","3","15","2","9","4","2","3","9","1","18","12","9","9","2","9","9","9","4","18","3","4","6","6","9","18","3","3","1","9","9","18","2","18","2","2","2","18","4","2","5","9","18","2","12","10","18","15","15","2","4","2","1","1","6","2"],"larger_num":["4","20","10","20","10","24","8","18","12","20","12","4","18","8","24","20","20","20","20","20","20","6","12","20","20","20","20","20","16","4","20","2","4","8","16","20","8","4","16","8","8","20","12","12","20","20","10","8","20","12","4","24","8","20","20","12","4","8","8","24","24","18","4","4","20","6","20","8","10","8","8","4","18","2","20","16","18","10","8","18","10","10","8","20","4","16","24","24","10","20","4","4","2","10","10","20","8","20","8","8","8","24","16","4","10","10","20","8","16","20","24","20","20","4","8","8","4","2","12","4"],"correct_side":[2,1,2,1,1,2,2,1,1,1,1,1,1,1,1,1,2,2,2,1,2,2,2,1,1,1,1,1,2,2,1,2,2,2,2,2,1,1,2,1,1,1,2,2,1,1,2,1,2,1,2,2,1,2,2,2,2,1,1,1,2,1,2,1,2,2,2,1,2,1,1,2,2,2,1,2,2,2,1,2,2,2,1,1,1,2,1,2,1,1,1,2,2,2,1,1,1,1,2,1,1,1,1,1,1,2,2,2,2,2,1,2,1,2,1,1,2,2,1,2],"img_shown":["img/750/randomdotsizeEA/R/7_Ratio_750_L_3_R_4.png","img/900/equaldotanddens/L/8_Ratio_900_L_20_R_18.png","img/900/randomdotsizeEA/R/5_Ratio_900_L_9_R_10.png","img/900/equaldotanddens/L/10_Ratio_900_L_20_R_18.png","img/500/randomdotsizeEA/L/7_Ratio_500_L_10_R_5.png","img/250/randomdotsizeEA/R/6_Ratio_250_L_6_R_24.png","img/250/randomdotsizeEA/R/13_Ratio_250_L_2_R_8.png","img/500/randomdotsizeEA/L/4_Ratio_500_L_18_R_9.png","img/250/equaldotanddens/L/14_Ratio_250_L_12_R_3.png","img/900/randomdotsizeEA/L/4_Ratio_900_L_20_R_18.png","img/250/equaldotsize/L/14_Ratio_250_L_12_R_3.png","img/750/equaldotsize/L/10_Ratio_750_L_4_R_3.png","img/500/equaldotanddens/L/4_Ratio_500_L_18_R_9.png","img/750/randomdotsizeEA/L/13_Ratio_750_L_8_R_6.png","img/750/equaldotsize/L/6_Ratio_750_L_24_R_18.png","img/900/equaldotanddens/L/2_Ratio_900_L_20_R_18.png","img/900/equaldotsize/R/13_Ratio_900_L_18_R_20.png","img/750/equaldotanddens/R/3_Ratio_750_L_15_R_20.png","img/750/equaldotanddens/R/5_Ratio_750_L_15_R_20.png","img/900/equaldotsize/L/10_Ratio_900_L_20_R_18.png","img/750/equaldotsize/R/5_Ratio_750_L_15_R_20.png","img/500/equaldotsize/R/2_Ratio_500_L_3_R_6.png","img/250/randomdotsizeEA/R/9_Ratio_250_L_3_R_12.png","img/900/equaldotanddens/L/4_Ratio_900_L_20_R_18.png","img/900/equaldotsize/L/10_Ratio_900_L_20_R_18.png","img/900/randomdotsizeEA/L/8_Ratio_900_L_20_R_18.png","img/900/equaldotanddens/L/2_Ratio_900_L_20_R_18.png","img/900/randomdotsizeEA/L/8_Ratio_900_L_20_R_18.png","img/250/equaldotsize/R/10_Ratio_250_L_4_R_16.png","img/250/randomdotsizeEA/R/8_Ratio_250_L_1_R_4.png","img/900/equaldotsize/L/10_Ratio_900_L_20_R_18.png","img/500/equaldotsize/R/12_Ratio_500_L_1_R_2.png","img/750/equaldotanddens/R/12_Ratio_750_L_3_R_4.png","img/250/equaldotsize/R/13_Ratio_250_L_2_R_8.png","img/250/randomdotsizeEA/R/10_Ratio_250_L_4_R_16.png","img/750/equaldotanddens/R/4_Ratio_750_L_15_R_20.png","img/500/randomdotsizeEA/L/8_Ratio_500_L_8_R_4.png","img/500/equaldotanddens/L/5_Ratio_500_L_4_R_2.png","img/250/equaldotsize/R/10_Ratio_250_L_4_R_16.png","img/500/equaldotanddens/L/8_Ratio_500_L_8_R_4.png","img/500/randomdotsizeEA/L/8_Ratio_500_L_8_R_4.png","img/750/randomdotsizeEA/L/1_Ratio_750_L_20_R_15.png","img/250/equaldotanddens/R/9_Ratio_250_L_3_R_12.png","img/250/equaldotanddens/R/4_Ratio_250_L_3_R_12.png","img/900/equaldotanddens/L/10_Ratio_900_L_20_R_18.png","img/900/randomdotsizeEA/L/8_Ratio_900_L_20_R_18.png","img/500/randomdotsizeEA/R/14_Ratio_500_L_5_R_10.png","img/750/equaldotsize/L/14_Ratio_750_L_8_R_6.png","img/500/equaldotsize/R/3_Ratio_500_L_10_R_20.png","img/500/equaldotsize/L/11_Ratio_500_L_12_R_6.png","img/750/equaldotsize/R/12_Ratio_750_L_3_R_4.png","img/250/randomdotsizeEA/R/6_Ratio_250_L_6_R_24.png","img/500/equaldotanddens/L/8_Ratio_500_L_8_R_4.png","img/750/randomdotsizeEA/R/5_Ratio_750_L_15_R_20.png","img/900/equaldotsize/R/11_Ratio_900_L_18_R_20.png","img/250/equaldotanddens/R/4_Ratio_250_L_3_R_12.png","img/750/equaldotsize/R/7_Ratio_750_L_3_R_4.png","img/750/randomdotsizeEA/L/14_Ratio_750_L_8_R_6.png","img/750/equaldotsize/L/13_Ratio_750_L_8_R_6.png","img/750/randomdotsizeEA/L/6_Ratio_750_L_24_R_18.png","img/250/randomdotsizeEA/R/6_Ratio_250_L_6_R_24.png","img/500/equaldotanddens/L/4_Ratio_500_L_18_R_9.png","img/750/equaldotanddens/R/7_Ratio_750_L_3_R_4.png","img/750/randomdotsizeEA/L/9_Ratio_750_L_4_R_3.png","img/250/randomdotsizeEA/R/12_Ratio_250_L_5_R_20.png","img/500/randomdotsizeEA/R/2_Ratio_500_L_3_R_6.png","img/750/equaldotanddens/R/4_Ratio_750_L_15_R_20.png","img/250/equaldotsize/L/3_Ratio_250_L_8_R_2.png","img/900/equaldotanddens/R/5_Ratio_900_L_9_R_10.png","img/500/equaldotanddens/L/8_Ratio_500_L_8_R_4.png","img/250/equaldotsize/L/3_Ratio_250_L_8_R_2.png","img/750/randomdotsizeEA/R/7_Ratio_750_L_3_R_4.png","img/500/equaldotsize/R/1_Ratio_500_L_9_R_18.png","img/500/randomdotsizeEA/R/12_Ratio_500_L_1_R_2.png","img/900/equaldotsize/L/2_Ratio_900_L_20_R_18.png","img/750/equaldotsize/R/11_Ratio_750_L_12_R_16.png","img/500/equaldotanddens/R/6_Ratio_500_L_9_R_18.png","img/900/randomdotsizeEA/R/15_Ratio_900_L_9_R_10.png","img/250/equaldotsize/L/7_Ratio_250_L_8_R_2.png","img/500/randomdotsizeEA/R/6_Ratio_500_L_9_R_18.png","img/900/randomdotsizeEA/R/5_Ratio_900_L_9_R_10.png","img/900/equaldotsize/R/6_Ratio_900_L_9_R_10.png","img/500/equaldotanddens/L/8_Ratio_500_L_8_R_4.png","img/900/equaldotsize/L/2_Ratio_900_L_20_R_18.png","img/750/randomdotsizeEA/L/8_Ratio_750_L_4_R_3.png","img/250/equaldotsize/R/10_Ratio_250_L_4_R_16.png","img/250/randomdotsizeEA/L/5_Ratio_250_L_24_R_6.png","img/250/equaldotanddens/R/6_Ratio_250_L_6_R_24.png","img/900/equaldotsize/L/1_Ratio_900_L_10_R_9.png","img/900/equaldotanddens/L/4_Ratio_900_L_20_R_18.png","img/750/equaldotanddens/L/10_Ratio_750_L_4_R_3.png","img/750/equaldotsize/R/7_Ratio_750_L_3_R_4.png","img/500/equaldotsize/R/15_Ratio_500_L_1_R_2.png","img/900/randomdotsizeEA/R/5_Ratio_900_L_9_R_10.png","img/900/randomdotsizeEA/L/1_Ratio_900_L_10_R_9.png","img/900/randomdotsizeEA/L/10_Ratio_900_L_20_R_18.png","img/250/equaldotanddens/L/3_Ratio_250_L_8_R_2.png","img/900/equaldotanddens/L/4_Ratio_900_L_20_R_18.png","img/250/equaldotanddens/R/13_Ratio_250_L_2_R_8.png","img/250/equaldotanddens/L/3_Ratio_250_L_8_R_2.png","img/250/equaldotanddens/L/3_Ratio_250_L_8_R_2.png","img/750/equaldotanddens/L/6_Ratio_750_L_24_R_18.png","img/250/equaldotsize/L/2_Ratio_250_L_16_R_4.png","img/500/equaldotsize/L/5_Ratio_500_L_4_R_2.png","img/500/equaldotanddens/L/7_Ratio_500_L_10_R_5.png","img/900/equaldotsize/R/7_Ratio_900_L_9_R_10.png","img/900/equaldotanddens/R/14_Ratio_900_L_18_R_20.png","img/250/equaldotanddens/R/13_Ratio_250_L_2_R_8.png","img/750/equaldotsize/R/11_Ratio_750_L_12_R_16.png","img/500/equaldotsize/R/3_Ratio_500_L_10_R_20.png","img/750/equaldotanddens/L/6_Ratio_750_L_24_R_18.png","img/750/randomdotsizeEA/R/5_Ratio_750_L_15_R_20.png","img/750/equaldotanddens/L/1_Ratio_750_L_20_R_15.png","img/500/equaldotsize/R/9_Ratio_500_L_2_R_4.png","img/500/equaldotanddens/L/8_Ratio_500_L_8_R_4.png","img/250/equaldotsize/L/3_Ratio_250_L_8_R_2.png","img/250/randomdotsizeEA/R/8_Ratio_250_L_1_R_4.png","img/500/equaldotsize/R/12_Ratio_500_L_1_R_2.png","img/500/randomdotsizeEA/L/13_Ratio_500_L_12_R_6.png","img/500/randomdotsizeEA/R/9_Ratio_500_L_2_R_4.png"],"Rat0":[["12_Ratio_0_L_9_R_0.png","13_Ratio_0_L_6_R_0.png","5_Ratio_0_L_2_R_0.png","6_Ratio_0_L_4_R_0.png","8_Ratio_0_L_6_R_0.png"],["1_Ratio_0_L_0_R_17.png","10_Ratio_0_L_0_R_22.png","11_Ratio_0_L_0_R_1.png","14_Ratio_0_L_0_R_24.png","15_Ratio_0_L_0_R_4.png","2_Ratio_0_L_0_R_5.png","3_Ratio_0_L_0_R_17.png","4_Ratio_0_L_0_R_7.png","7_Ratio_0_L_0_R_19.png","9_Ratio_0_L_0_R_15.png"]],"Rat250":[["1_Ratio_250_L_8_R_2.png","14_Ratio_250_L_12_R_3.png","15_Ratio_250_L_12_R_3.png","2_Ratio_250_L_16_R_4.png","3_Ratio_250_L_8_R_2.png","5_Ratio_250_L_24_R_6.png","7_Ratio_250_L_8_R_2.png"],["10_Ratio_250_L_4_R_16.png","11_Ratio_250_L_3_R_12.png","12_Ratio_250_L_5_R_20.png","13_Ratio_250_L_2_R_8.png","4_Ratio_250_L_3_R_12.png","6_Ratio_250_L_6_R_24.png","8_Ratio_250_L_1_R_4.png","9_Ratio_250_L_3_R_12.png"]],"Rat500":[["10_Ratio_500_L_4_R_2.png","11_Ratio_500_L_12_R_6.png","13_Ratio_500_L_12_R_6.png","4_Ratio_500_L_18_R_9.png","5_Ratio_500_L_4_R_2.png","7_Ratio_500_L_10_R_5.png","8_Ratio_500_L_8_R_4.png"],["1_Ratio_500_L_9_R_18.png","12_Ratio_500_L_1_R_2.png","14_Ratio_500_L_5_R_10.png","15_Ratio_500_L_1_R_2.png","2_Ratio_500_L_3_R_6.png","3_Ratio_500_L_10_R_20.png","6_Ratio_500_L_9_R_18.png","9_Ratio_500_L_2_R_4.png"]],"Rat750":[["1_Ratio_750_L_20_R_15.png","10_Ratio_750_L_4_R_3.png","13_Ratio_750_L_8_R_6.png","14_Ratio_750_L_8_R_6.png","6_Ratio_750_L_24_R_18.png","8_Ratio_750_L_4_R_3.png","9_Ratio_750_L_4_R_3.png"],["11_Ratio_750_L_12_R_16.png","12_Ratio_750_L_3_R_4.png","15_Ratio_750_L_9_R_12.png","2_Ratio_750_L_6_R_8.png","3_Ratio_750_L_15_R_20.png","4_Ratio_750_L_15_R_20.png","5_Ratio_750_L_15_R_20.png","7_Ratio_750_L_3_R_4.png"]],"Rat900":[["1_Ratio_900_L_10_R_9.png","10_Ratio_900_L_20_R_18.png","2_Ratio_900_L_20_R_18.png","4_Ratio_900_L_20_R_18.png","8_Ratio_900_L_20_R_18.png"],["11_Ratio_900_L_18_R_20.png","12_Ratio_900_L_18_R_20.png","13_Ratio_900_L_18_R_20.png","14_Ratio_900_L_18_R_20.png","15_Ratio_900_L_9_R_10.png","3_Ratio_900_L_9_R_10.png","5_Ratio_900_L_9_R_10.png","6_Ratio_900_L_9_R_10.png","7_Ratio_900_L_9_R_10.png","9_Ratio_900_L_18_R_20.png"]],"Rat1000":[["10_Ratio_1000_L_16_R_16.png","11_Ratio_1000_L_6_R_6.png","12_Ratio_1000_L_14_R_14.png","13_Ratio_1000_L_20_R_20.png","15_Ratio_1000_L_15_R_15.png","2_Ratio_1000_L_17_R_17.png","4_Ratio_1000_L_9_R_9.png","5_Ratio_1000_L_6_R_6.png","6_Ratio_1000_L_19_R_19.png","8_Ratio_1000_L_14_R_14.png","9_Ratio_1000_L_25_R_25.png"],["1_Ratio_1000_L_1_R_1.png","14_Ratio_1000_L_17_R_17.png","3_Ratio_1000_L_17_R_17.png","7_Ratio_1000_L_6_R_6.png"]]}},{"start_time":1552074498981,"click_time":1552074500752,"finger_time":1552074499712,"fix_duration":367.0748587006405,"trial":1,"RT":731,"MT":1040,"sideResp":1,"stimulus":"img/900/equaldotanddens/L/8_Ratio_900_L_20_R_18.png","xmouse":[801,801,801,801,801,801,801,801,801,801,801,801,801,801,801,801,801,801,801,801,801,801,801,801,801,801,801,801,801,801,801,801,801,801,809,829,857,884,922,988,1124,1182,1210,1221,1226,1230,1230,1230,1230,1228,1218,1214,1212,1210,1208,1198,1196,1194,1186,1174,1148,1139,1129,1114,1094,1043,1021,1001,983,960,921,899,876,852,821,776,755,735,718,700,647,623,597,577,564,543,534,526,516],"ymouse":[513,513,513,513,513,513,513,513,513,513,513,513,513,513,513,513,513,513,513,513,513,513,513,513,513,513,513,513,513,513,513,513,513,513,506,493,477,464,447,420,338,296,270,247,228,200,193,189,184,173,150,142,137,132,129,117,115,115,115,115,115,120,125,129,130,130,125,123,120,118,114,111,104,97,88,71,65,60,55,50,41,38,38,38,39,53,62,70,75],"timestamp_mouse":[13,37,51,70,90,110,131,151,171,191,212,231,251,270,290,311,331,351,371,392,411,432,452,470,490,510,532,551,570,590,612,631,650,671,690,711,731,752,772,792,812,831,850,871,890,911,931,952,971,990,1010,1030,1050,1070,1091,1110,1130,1150,1171,1190,1211,1231,1251,1270,1291,1310,1331,1351,1371,1391,1410,1431,1451,1472,1491,1510,1531,1551,1571,1590,1610,1632,1652,1671,1691,1711,1731,1751,1771],"xSR":741.5,"ySR":469.95,"xT1":424.9,"yT1":0,"xT2":1058.1,"yT2":0,"toosoon":0,"cond_shown":"equaldotanddens","ratio_trial":900,"smaller_num":"18","larger_num":"20","correct_side":1,"subjID":"JuanDiegoCastilloNaranjo35","gender":"0","age":"8","school":"4"},{"start_time":1552074502584,"click_time":1552074503792,"finger_time":1552074503333,"fix_duration":250,"trial":2,"RT":749,"MT":459,"sideResp":2,"stimulus":"img/900/randomdotsizeEA/R/5_Ratio_900_L_9_R_10.png","xmouse":[775,775,775,775,775,775,775,775,775,775,776,777,777,777,777,777,777,777,777,777,777,777,777,777,777,777,777,777,777,777,777,777,777,777,778,785,805,842,914,1032,1156,1207,1253,1289,1323,1367,1380,1385,1388,1388,1380,1367,1343,1302,1196,1179,1179,1179,1179,1179,1128],"ymouse":[508,508,508,508,508,508,508,508,508,508,508,508,508,508,509,509,509,509,509,509,509,509,509,509,509,509,509,509,509,509,509,509,509,509,509,506,499,487,464,420,356,326,296,268,245,212,200,195,190,185,172,159,138,102,16,5,5,5,5,5,24],"timestamp_mouse":[10,36,48,68,88,109,127,147,169,188,208,227,248,268,287,307,329,347,367,389,409,427,448,469,489,507,528,548,568,588,609,627,647,668,688,708,728,749,769,789,808,828,848,867,888,908,929,948,969,987,1008,1028,1047,1069,1089,1108,1128,1148,1168,1187,1208],"xSR":741.5,"ySR":469.95,"xT1":424.9,"yT1":0,"xT2":1058.1,"yT2":0,"toosoon":0,"cond_shown":"randomdotsizeEA","ratio_trial":900,"smaller_num":"9","larger_num":"10","correct_side":2,"subjID":"JuanDiegoCastilloNaranjo35","gender":"0","age":"8","school":"4"},{"start_time":1552074505155,"click_time":1552074506091,"finger_time":1552074505692,"fix_duration":300.54976517265897,"trial":3,"RT":537,"MT":399,"sideResp":2,"stimulus":"img/900/equaldotanddens/L/10_Ratio_900_L_20_R_18.png","xmouse":[811,811,811,811,811,811,812,813,813,813,813,813,813,813,813,813,813,813,813,813,813,817,821,825,831,841,876,897,912,926,949,957,967,974,984,998,1006,1014,1018,1021,1027,1041,1051,1062,1075,1089,1125],"ymouse":[552,552,552,552,552,552,553,554,554,554,554,554,554,554,554,554,554,554,554,554,554,543,532,522,514,502,467,450,431,413,373,362,349,338,326,303,291,274,255,240,222,199,186,170,152,132,80],"timestamp_mouse":[18,37,56,76,98,118,137,156,177,196,217,237,258,277,296,316,337,357,377,398,418,437,456,477,498,518,537,557,576,598,618,636,657,678,698,718,736,757,777,798,818,838,857,878,897,917,936],"xSR":741.5,"ySR":469.95,"xT1":424.9,"yT1":0,"xT2":1058.1,"yT2":0,"toosoon":0,"cond_shown":"equaldotanddens","ratio_trial":900,"smaller_num":"18","larger_num":"20","correct_side":1,"subjID":"JuanDiegoCastilloNaranjo35","gender":"0","age":"8","school":"4"},{"start_time":1552074507164,"click_time":1552074511693,"finger_time":1552074510692,"fix_duration":250,"trial":4,"RT":3528,"MT":1001,"sideResp":2,"stimulus":"img/500/randomdotsizeEA/L/7_Ratio_500_L_10_R_5.png","xmouse":[785,785,785,785,785,785,785,785,785,785,785,785,785,785,785,785,785,785,785,785,785,785,785,785,785,785,785,785,785,785,785,785,785,785,785,785,785,785,785,785,785,785,785,785,785,785,785,785,785,785,785,785,785,785,785,785,785,785,785,785,785,785,785,785,785,785,785,785,785,785,785,785,785,785,785,785,785,785,785,785,785,785,785,785,785,785,785,785,785,785,785,785,785,785,785,785,785,785,785,785,785,785,785,785,785,785,785,785,785,785,785,785,785,785,785,785,785,785,785,785,785,785,785,785,785,785,785,785,785,785,785,785,785,785,785,785,785,785,785,785,785,785,785,785,785,785,785,785,785,785,785,785,785,785,785,785,785,785,785,785,785,785,785,785,785,785,785,785,785,785,785,785,785,785,785,789,811,825,834,855,922,960,986,1002,1012,1015,1015,1015,1015,1015,1015,1013,1012,1009,1005,1002,999,999,999,999,999,1012,1024,1032,1044,1057,1073,1076,1078,1081,1082,1087,1091,1096,1101,1105,1104,1104,1104,1104,1104,1113,1114,1117,1120,1122,1126],"ymouse":[484,484,484,484,484,484,484,484,484,484,484,484,484,484,484,484,484,484,484,484,484,484,484,484,484,484,484,484,484,484,484,484,484,484,484,484,484,484,484,484,484,484,484,484,484,484,484,484,484,484,484,484,484,484,484,484,484,484,484,484,484,484,484,484,484,484,484,484,484,484,484,484,484,484,484,484,484,484,484,484,484,484,484,484,484,484,484,484,484,484,484,484,484,484,484,484,484,484,484,484,484,484,484,484,484,484,484,484,484,484,484,484,484,484,484,484,484,484,484,484,484,484,484,484,484,484,484,484,484,484,484,484,484,484,484,484,484,484,484,484,484,484,484,484,484,484,484,484,484,484,484,484,484,484,484,484,484,484,484,484,484,484,484,484,484,484,484,484,484,484,484,484,484,484,484,483,465,454,445,431,402,386,378,372,368,367,367,367,367,367,367,368,369,371,374,377,378,378,378,378,378,364,345,329,316,304,291,287,284,279,276,266,253,235,195,171,171,171,171,171,171,161,158,139,117,101,82],"timestamp_mouse":[22,36,47,67,88,107,128,147,169,189,208,228,247,268,288,309,328,347,368,389,408,427,448,468,488,509,529,548,567,588,609,628,647,667,688,709,728,749,769,789,808,827,847,868,887,909,927,948,967,988,1007,1027,1048,1067,1089,1107,1127,1147,1167,1188,1207,1229,1248,1268,1287,1308,1328,1349,1368,1389,1409,1428,1448,1467,1489,1508,1529,1549,1568,1588,1607,1627,1648,1669,1687,1709,1728,1749,1767,1787,1807,1828,1849,1869,1888,1907,1928,1947,1969,1987,2008,2029,2049,2069,2088,2108,2128,2148,2169,2189,2209,2228,2248,2268,2288,2309,2328,2349,2368,2389,2408,2429,2449,2468,2489,2508,2528,2548,2569,2588,2608,2630,2648,2668,2689,2709,2728,2749,2768,2788,2809,2828,2850,2868,2889,2908,2929,2950,2969,2989,3008,3028,3048,3068,3088,3108,3129,3148,3169,3189,3208,3229,3249,3268,3288,3308,3328,3348,3368,3389,3408,3429,3449,3469,3489,3508,3528,3550,3568,3589,3610,3628,3649,3668,3689,3709,3729,3748,3769,3788,3809,3828,3849,3869,3889,3908,3929,3948,3969,3988,4009,4028,4048,4068,4088,4109,4129,4148,4168,4188,4208,4228,4249,4268,4288,4309,4328,4349,4368,4388,4409,4428,4448,4469,4489,4508,4529],"xSR":741.5,"ySR":469.95,"xT1":424.9,"yT1":0,"xT2":1058.1,"yT2":0,"toosoon":0,"cond_shown":"randomdotsizeEA","ratio_trial":500,"smaller_num":"5","larger_num":"10","correct_side":1,"subjID":"JuanDiegoCastilloNaranjo35","gender":"0","age":"8","school":"4"},{"start_time":1552074514234,"click_time":1552074515193,"finger_time":1552074514574,"fix_duration":1399.2765850823994,"trial":5,"RT":340,"MT":619,"sideResp":2,"stimulus":"img/250/randomdotsizeEA/R/6_Ratio_250_L_6_R_24.png","xmouse":[774,774,774,774,774,774,774,774,774,774,774,774,779,788,798,809,839,854,872,890,915,939,1003,1028,1047,1062,1077,1091,1097,1101,1109,1119,1142,1151,1156,1156,1158,1158,1158,1157,1157,1156,1156,1156,1151,1147,1141,1138],"ymouse":[492,492,492,492,492,492,492,492,492,492,492,492,492,489,484,479,466,459,452,440,421,402,359,341,327,314,300,281,272,263,250,235,202,185,176,176,173,170,170,169,168,168,168,167,151,137,120,82],"timestamp_mouse":[19,38,58,79,99,119,140,158,178,198,219,239,259,279,299,319,340,358,379,399,419,438,458,478,499,519,538,558,579,599,619,638,659,679,698,719,738,758,778,798,818,839,859,879,899,918,939,959],"xSR":741.5,"ySR":469.95,"xT1":424.9,"yT1":0,"xT2":1058.1,"yT2":0,"toosoon":0,"cond_shown":"randomdotsizeEA","ratio_trial":250,"smaller_num":"6","larger_num":"24","correct_side":2,"subjID":"JuanDiegoCastilloNaranjo35","gender":"0","age":"8","school":"4"},{"start_time":1552074517792,"click_time":1552074518813,"finger_time":1552074518192,"fix_duration":1478.8878141986586,"trial":6,"RT":400,"MT":621,"sideResp":2,"stimulus":"img/250/randomdotsizeEA/R/13_Ratio_250_L_2_R_8.png","xmouse":[800,800,800,800,800,800,800,800,800,800,800,800,800,800,800,800,800,800,805,838,855,872,895,915,932,979,998,1021,1037,1048,1068,1068,1071,1072,1074,1074,1074,1072,1070,1068,1065,1065,1064,1064,1064,1064,1064,1064,1068,1071,1074,1076],"ymouse":[530,530,530,530,530,530,530,530,530,530,530,530,530,530,530,530,530,530,530,516,508,498,488,477,464,427,404,373,348,329,278,275,257,253,241,241,239,226,210,201,189,184,178,172,152,143,134,125,114,106,103,99],"timestamp_mouse":[9,32,41,60,82,101,121,141,160,181,200,220,242,261,281,301,320,341,361,382,400,420,441,462,481,500,521,540,560,581,600,621,641,662,681,700,721,741,760,781,801,821,840,861,881,900,920,940,960,981,1000,1020],"xSR":741.5,"ySR":469.95,"xT1":424.9,"yT1":0,"xT2":1058.1,"yT2":0,"toosoon":0,"cond_shown":"randomdotsizeEA","ratio_trial":250,"smaller_num":"2","larger_num":"8","correct_side":2,"subjID":"JuanDiegoCastilloNaranjo35","gender":"0","age":"8","school":"4"},{"start_time":1552074522434,"click_time":1552074523492,"finger_time":1552074522812,"fix_duration":1020.5716381129346,"trial":7,"RT":378,"MT":680,"sideResp":1,"stimulus":"img/500/randomdotsizeEA/L/4_Ratio_500_L_18_R_9.png","xmouse":[806,806,806,806,806,806,806,806,806,805,806,808,809,810,811,813,818,838,853,869,888,907,961,968,971,976,988,993,996,998,998,998,999,999,999,996,996,997,997,1000,1010,1020,1020,1020,1020,980,951,799,759,680,578,562,453],"ymouse":[541,541,541,541,541,541,541,541,541,541,541,539,538,537,537,536,533,517,501,483,461,442,399,390,384,370,342,330,323,320,317,315,307,302,295,277,213,168,119,76,40,5,5,5,5,2,11,41,46,48,37,33,10],"timestamp_mouse":[18,38,58,78,100,118,139,159,178,199,218,240,258,279,300,318,338,358,378,398,419,439,459,479,499,520,540,559,578,598,619,638,658,678,699,719,740,758,778,798,818,839,858,879,899,918,938,958,978,998,1018,1038,1058],"xSR":741.5,"ySR":469.95,"xT1":424.9,"yT1":0,"xT2":1058.1,"yT2":0,"toosoon":0,"cond_shown":"randomdotsizeEA","ratio_trial":500,"smaller_num":"9","larger_num":"18","correct_side":1,"subjID":"JuanDiegoCastilloNaranjo35","gender":"0","age":"8","school":"4"},{"start_time":1552074525110,"click_time":1552074525774,"finger_time":1552074525573,"fix_duration":357.6862547576729,"trial":8,"RT":463,"MT":201,"sideResp":1,"stimulus":"img/250/equaldotanddens/L/14_Ratio_250_L_12_R_3.png","xmouse":[746,746,746,746,746,746,746,746,746,746,746,746,746,746,746,746,746,746,746,746,746,746,746,739,731,726,716,706,696,674,636,604,555,455],"ymouse":[500,500,500,500,500,500,500,500,502,502,502,502,502,502,502,502,502,502,502,502,502,493,489,467,454,450,435,418,400,359,302,253,199,77],"timestamp_mouse":[11,30,42,62,84,102,122,142,162,183,202,222,244,262,282,302,322,342,363,382,402,422,442,463,482,502,522,542,562,582,604,623,643,663],"xSR":741.5,"ySR":469.95,"xT1":424.9,"yT1":0,"xT2":1058.1,"yT2":0,"toosoon":0,"cond_shown":"equaldotanddens","ratio_trial":250,"smaller_num":"3","larger_num":"12","correct_side":1,"subjID":"JuanDiegoCastilloNaranjo35","gender":"0","age":"8","school":"4"},{"start_time":1552074532696,"click_time":1552074534092,"finger_time":1552074533172,"fix_duration":441.5810072580678,"trial":9,"RT":476,"MT":920,"sideResp":2,"stimulus":"img/900/randomdotsizeEA/L/4_Ratio_900_L_20_R_18.png","xmouse":[784,784,784,784,784,784,784,784,784,785,785,785,785,785,785,785,785,785,785,785,785,785,779,763,680,680,680,680,680,680,680,680,680,680,680,680,680,680,680,680,680,680,680,680,680,680,680,680,680,647,652,659,662,663,665,667,674,684,705,717,730,752,778,815,888,918,951,987,1005,1065],"ymouse":[547,547,547,547,547,547,547,547,547,548,548,548,548,548,548,548,548,548,548,548,548,548,565,589,716,716,716,716,716,716,716,716,716,716,716,716,716,716,716,716,716,716,716,716,716,716,716,716,716,665,651,604,542,498,477,471,453,432,380,353,326,289,250,206,137,118,94,76,69,52],"timestamp_mouse":[17,36,56,76,97,116,137,157,177,196,217,237,257,276,296,317,336,356,376,397,416,437,457,476,496,516,536,557,577,597,617,636,656,677,696,716,736,757,776,797,816,838,856,877,896,917,936,957,977,997,1018,1037,1057,1078,1096,1116,1138,1157,1177,1196,1216,1236,1257,1276,1296,1316,1336,1356,1377,1396],"xSR":741.5,"ySR":469.95,"xT1":424.9,"yT1":0,"xT2":1058.1,"yT2":0,"toosoon":0,"cond_shown":"randomdotsizeEA","ratio_trial":900,"smaller_num":"18","larger_num":"20","correct_side":1,"subjID":"JuanDiegoCastilloNaranjo35","gender":"0","age":"8","school":"4"},{"start_time":1552074535716,"click_time":1552074536732,"finger_time":1552074536432,"fix_duration":643.1673761638535,"trial":10,"RT":716,"MT":300,"sideResp":1,"stimulus":"img/250/equaldotsize/L/14_Ratio_250_L_12_R_3.png","xmouse":[801,801,801,801,801,801,801,801,801,801,801,801,801,801,801,801,801,801,801,801,801,801,801,801,801,801,801,801,801,801,801,801,801,798,779,748,700,638,533,533,533,533,533,533,533,533,533,533,533,533,473],"ymouse":[537,537,537,537,537,537,537,537,537,537,537,537,537,537,537,537,537,537,537,537,537,537,537,537,537,537,537,537,537,537,537,537,537,512,470,395,297,191,14,14,14,14,14,14,14,14,14,14,14,14,13],"timestamp_mouse":[16,37,57,77,97,116,136,157,176,196,218,237,257,276,296,317,337,356,376,397,416,438,457,477,496,516,536,556,577,597,616,636,657,676,697,716,736,756,776,796,817,837,856,877,896,917,936,956,977,997,1016],"xSR":741.5,"ySR":469.95,"xT1":424.9,"yT1":0,"xT2":1058.1,"yT2":0,"toosoon":0,"cond_shown":"equaldotsize","ratio_trial":250,"smaller_num":"3","larger_num":"12","correct_side":1,"subjID":"JuanDiegoCastilloNaranjo35","gender":"0","age":"8","school":"4"},{"start_time":1552074539099,"click_time":1552074539952,"finger_time":1552074539433,"fix_duration":364.98947685191484,"trial":11,"RT":334,"MT":519,"sideResp":1,"stimulus":"img/750/equaldotsize/L/10_Ratio_750_L_4_R_3.png","xmouse":[778,778,778,778,778,778,778,778,778,778,778,778,778,778,777,773,766,757,747,725,710,693,677,663,660,660,660,660,660,660,660,660,660,660,660,642,619,589,567,545,538,530,522],"ymouse":[521,521,521,521,521,521,521,521,521,521,521,521,520,517,498,484,462,437,409,332,278,216,162,100,67,62,61,59,59,59,59,59,59,59,59,57,48,38,36,40,43,46,47],"timestamp_mouse":[17,36,53,74,93,113,133,153,174,194,214,233,254,273,294,314,334,353,374,393,414,433,453,474,494,514,533,553,573,593,614,633,654,674,694,713,733,754,774,793,813,833,853],"xSR":741.5,"ySR":469.95,"xT1":424.9,"yT1":0,"xT2":1058.1,"yT2":0,"toosoon":0,"cond_shown":"equaldotsize","ratio_trial":750,"smaller_num":"3","larger_num":"4","correct_side":1,"subjID":"JuanDiegoCastilloNaranjo35","gender":"0","age":"8","school":"4"},{"start_time":1552074541973,"click_time":1552074543213,"finger_time":1552074542372,"fix_duration":1278.9277800798372,"trial":12,"RT":399,"MT":841,"sideResp":1,"stimulus":"img/500/equaldotanddens/L/4_Ratio_500_L_18_R_9.png","xmouse":[785,785,785,785,785,785,785,785,785,785,785,785,785,785,785,785,786,788,789,790,791,791,791,793,795,799,800,801,794,768,750,727,722,720,718,710,699,699,699,699,699,699,699,699,699,699,699,420,409,400,392,391,395,403,414,431,436,440,445,452,466,480,480],"ymouse":[531,531,531,531,531,530,530,530,530,530,530,530,530,530,530,530,527,519,508,497,465,414,388,362,334,306,241,220,175,107,68,24,14,11,7,4,0,0,0,0,0,0,0,0,0,0,0,4,15,29,54,94,112,126,140,149,150,150,150,150,140,109,92],"timestamp_mouse":[1,19,39,59,80,99,120,140,159,179,199,221,239,259,280,300,320,340,360,381,399,419,439,460,480,499,519,539,560,580,600,620,639,659,679,699,720,739,760,780,799,819,839,859,879,901,920,940,960,979,1000,1020,1040,1059,1079,1101,1119,1139,1159,1179,1200,1220,1239],"xSR":741.5,"ySR":469.95,"xT1":424.9,"yT1":0,"xT2":1058.1,"yT2":0,"toosoon":0,"cond_shown":"equaldotanddens","ratio_trial":500,"smaller_num":"9","larger_num":"18","correct_side":1,"subjID":"JuanDiegoCastilloNaranjo35","gender":"0","age":"8","school":"4"},{"start_time":1552074549700,"click_time":1552074550813,"finger_time":1552074550233,"fix_duration":944.6526156064114,"trial":13,"RT":533,"MT":580,"sideResp":1,"stimulus":"img/750/randomdotsizeEA/L/13_Ratio_750_L_8_R_6.png","xmouse":[791,791,791,791,791,791,791,791,791,791,791,791,791,791,791,791,791,792,793,795,797,799,800,802,812,817,821,824,825,825,821,811,796,780,751,742,738,736,725,716,705,691,657,638,608,599,588,579,574,561,557,554,549,540,527,519],"ymouse":[497,497,497,497,497,497,497,497,497,497,497,497,497,497,497,497,497,496,495,492,492,491,490,490,478,471,464,458,451,446,434,415,390,367,313,294,280,266,233,216,195,172,128,105,74,65,57,53,53,51,51,51,51,51,62,68],"timestamp_mouse":[13,35,52,72,93,112,132,153,172,193,212,234,253,274,292,313,332,352,372,392,413,432,452,473,493,512,533,552,574,592,613,633,653,673,692,712,733,753,773,792,813,832,852,872,893,912,932,952,972,993,1012,1032,1053,1073,1093,1113],"xSR":741.5,"ySR":469.95,"xT1":424.9,"yT1":0,"xT2":1058.1,"yT2":0,"toosoon":0,"cond_shown":"randomdotsizeEA","ratio_trial":750,"smaller_num":"6","larger_num":"8","correct_side":1,"subjID":"JuanDiegoCastilloNaranjo35","gender":"0","age":"8","school":"4"},{"start_time":1552074552564,"click_time":1552074553992,"finger_time":1552074553113,"fix_duration":870.4384585534832,"trial":14,"RT":549,"MT":879,"sideResp":1,"stimulus":"img/750/equaldotsize/L/6_Ratio_750_L_24_R_18.png","xmouse":[789,789,789,789,789,789,789,789,789,789,789,789,789,789,789,789,789,789,789,789,789,789,789,789,789,797,804,818,836,859,926,946,967,984,993,1000,1003,1003,995,977,943,917,884,839,801,801,801,801,801,801,801,801,801,801,270,261,258,271,296,324,383,411,417,425,435,443,462,474,481,484,487,488],"ymouse":[525,525,525,525,525,525,525,525,525,525,525,525,525,525,525,525,525,525,525,525,525,525,525,525,525,509,492,468,438,409,348,331,316,302,289,272,234,218,195,161,118,95,72,36,12,12,12,12,12,12,12,12,12,12,3,16,52,84,122,150,187,192,190,188,183,179,165,155,142,134,115,99],"timestamp_mouse":[11,40,49,69,89,109,128,149,169,189,209,228,248,269,288,308,328,349,368,389,408,429,448,469,489,509,528,549,569,589,609,628,649,668,689,709,728,748,768,789,809,828,849,869,888,909,928,948,968,989,1009,1029,1048,1068,1088,1109,1128,1148,1168,1188,1208,1228,1248,1268,1288,1308,1328,1348,1368,1389,1408,1428],"xSR":741.5,"ySR":469.95,"xT1":424.9,"yT1":0,"xT2":1058.1,"yT2":0,"toosoon":0,"cond_shown":"equaldotsize","ratio_trial":750,"smaller_num":"18","larger_num":"24","correct_side":1,"subjID":"JuanDiegoCastilloNaranjo35","gender":"0","age":"8","school":"4"},{"start_time":1552074558117,"click_time":1552074558973,"finger_time":1552074558412,"fix_duration":762.6367271992741,"trial":15,"RT":295,"MT":561,"sideResp":1,"stimulus":"img/900/equaldotanddens/L/2_Ratio_900_L_20_R_18.png","xmouse":[766,766,766,766,766,766,766,766,768,770,772,776,777,782,783,785,785,786,787,787,788,788,787,747,714,677,651,629,608,604,596,590,576,567,567,567,567,567,567,567,567,567,494],"ymouse":[496,496,496,496,496,496,496,496,495,493,491,485,483,472,466,459,455,452,447,446,444,439,436,372,318,259,214,174,128,112,90,64,25,6,6,6,6,6,6,6,6,6,8],"timestamp_mouse":[15,35,57,75,95,115,135,155,175,195,216,237,255,275,295,316,336,356,375,395,416,435,456,475,495,516,535,555,575,595,615,635,655,675,695,716,735,756,776,795,815,835,856],"xSR":741.5,"ySR":469.95,"xT1":424.9,"yT1":0,"xT2":1058.1,"yT2":0,"toosoon":0,"cond_shown":"equaldotanddens","ratio_trial":900,"smaller_num":"18","larger_num":"20","correct_side":1,"subjID":"JuanDiegoCastilloNaranjo35","gender":"0","age":"8","school":"4"},{"start_time":1552074563789,"click_time":1552074564752,"finger_time":1552074564192,"fix_duration":813.8954276585185,"trial":16,"RT":403,"MT":560,"sideResp":2,"stimulus":"img/900/equaldotsize/R/13_Ratio_900_L_18_R_20.png","xmouse":[812,812,812,812,812,812,812,812,812,812,812,812,812,812,812,814,816,818,821,836,845,847,851,858,867,888,901,919,944,978,1018,1036,1056,1075,1100,1109,1115,1121,1122,1118,1107,1103,1102,1099,1099,1098,1097,1092,1082],"ymouse":[518,518,518,518,518,518,518,518,518,518,518,518,518,518,517,515,513,511,509,499,487,480,474,465,453,425,409,392,376,359,346,344,341,338,328,313,299,284,270,256,229,215,211,177,177,147,127,106,84],"timestamp_mouse":[9,31,44,63,84,103,123,143,163,183,203,224,244,263,283,304,323,344,363,383,403,424,443,463,483,503,524,544,563,583,603,624,643,663,684,704,724,743,764,784,803,823,865,868,883,903,924,943,963],"xSR":741.5,"ySR":469.95,"xT1":424.9,"yT1":0,"xT2":1058.1,"yT2":0,"toosoon":0,"cond_shown":"equaldotsize","ratio_trial":900,"smaller_num":"18","larger_num":"20","correct_side":2,"subjID":"JuanDiegoCastilloNaranjo35","gender":"0","age":"8","school":"4"},{"start_time":1552074570164,"click_time":1552074571213,"finger_time":1552074570773,"fix_duration":250,"trial":17,"RT":609,"MT":440,"sideResp":2,"stimulus":"img/750/equaldotanddens/R/3_Ratio_750_L_15_R_20.png","xmouse":[781,781,781,781,781,781,781,781,781,781,781,781,781,781,781,781,781,781,781,773,767,763,763,763,763,763,763,766,773,790,876,943,1005,1063,1099,1130,1157,1162,1164,1165,1180,1190,1199,1208,1213,1214,1213,1211,1206,1198,1183,1151,1143],"ymouse":[529,529,529,529,529,529,529,529,529,529,529,529,529,529,529,529,529,529,529,531,531,532,532,532,532,527,526,524,518,509,469,440,415,384,358,343,324,316,307,298,273,262,244,222,203,184,171,167,163,157,141,101,85],"timestamp_mouse":[11,38,48,68,88,108,128,149,168,188,208,228,248,268,289,309,329,348,368,390,409,428,449,470,488,509,528,550,569,588,609,628,648,668,689,709,728,749,768,789,810,828,849,869,888,909,928,949,969,988,1009,1028,1048],"xSR":741.5,"ySR":469.95,"xT1":424.9,"yT1":0,"xT2":1058.1,"yT2":0,"toosoon":0,"cond_shown":"equaldotanddens","ratio_trial":750,"smaller_num":"15","larger_num":"20","correct_side":2,"subjID":"JuanDiegoCastilloNaranjo35","gender":"0","age":"8","school":"4"},{"start_time":1552074573784,"click_time":1552074574692,"finger_time":1552074574312,"fix_duration":1391.0049914242297,"trial":18,"RT":528,"MT":380,"sideResp":2,"stimulus":"img/750/equaldotanddens/R/5_Ratio_750_L_15_R_20.png","xmouse":[763,763,763,763,763,763,763,763,763,763,763,763,763,763,763,763,763,763,763,763,763,763,765,767,779,785,797,820,829,867,960,993,1018,1036,1050,1067,1075,1081,1088,1096,1121,1125,1126,1126,1124,1092],"ymouse":[474,474,474,474,474,474,474,474,474,474,474,474,474,474,474,474,474,474,474,474,474,474,474,474,471,470,464,445,440,415,353,323,289,265,244,219,209,203,195,188,165,154,139,125,103,54],"timestamp_mouse":[9,38,48,68,89,109,130,148,169,189,210,229,248,268,288,308,328,349,370,389,409,429,449,469,490,508,528,548,568,589,608,628,649,668,688,708,728,749,768,789,808,828,850,869,889,908],"xSR":741.5,"ySR":469.95,"xT1":424.9,"yT1":0,"xT2":1058.1,"yT2":0,"toosoon":0,"cond_shown":"equaldotanddens","ratio_trial":750,"smaller_num":"15","larger_num":"20","correct_side":2,"subjID":"JuanDiegoCastilloNaranjo35","gender":"0","age":"8","school":"4"},{"start_time":1552074575525,"click_time":1552074576292,"finger_time":1552074575932,"fix_duration":250,"trial":19,"RT":407,"MT":360,"sideResp":2,"stimulus":"img/900/equaldotsize/L/10_Ratio_900_L_20_R_18.png","xmouse":[804,804,805,808,808,808,808,808,808,808,808,808,808,808,806,806,806,806,806,821,850,914,944,1034,1049,1065,1080,1098,1135,1146,1157,1167,1168,1164,1155,1145,1135,1118,1110],"ymouse":[528,528,528,528,528,528,528,528,528,528,528,528,528,528,528,528,528,528,528,528,527,511,503,456,440,421,403,387,355,335,313,278,267,210,187,166,144,111,98],"timestamp_mouse":[9,28,48,67,88,109,128,148,168,187,207,227,247,268,287,308,327,347,367,387,407,427,447,467,488,507,527,547,567,588,607,628,648,667,688,707,728,749,767],"xSR":741.5,"ySR":469.95,"xT1":424.9,"yT1":0,"xT2":1058.1,"yT2":0,"toosoon":0,"cond_shown":"equaldotsize","ratio_trial":900,"smaller_num":"18","larger_num":"20","correct_side":1,"subjID":"JuanDiegoCastilloNaranjo35","gender":"0","age":"8","school":"4"},{"start_time":1552074577965,"click_time":1552074578774,"finger_time":1552074578532,"fix_duration":250,"trial":20,"RT":567,"MT":242,"sideResp":2,"stimulus":"img/750/equaldotsize/R/5_Ratio_750_L_15_R_20.png","xmouse":[779,779,779,779,779,779,779,779,779,779,779,779,779,779,779,779,779,779,779,779,779,779,779,779,779,788,810,835,868,896,937,974,1003,1027,1047,1092,1104,1117,1143,1148,1157],"ymouse":[535,535,535,535,535,535,535,535,535,535,535,535,535,535,535,535,535,535,535,535,535,535,535,535,535,532,521,511,495,473,429,399,379,358,340,287,258,219,149,133,79],"timestamp_mouse":[19,34,48,67,87,107,128,147,168,187,208,228,247,267,288,308,327,348,369,388,407,428,449,468,487,507,527,548,567,588,609,627,648,667,687,708,727,747,767,789,809],"xSR":741.5,"ySR":469.95,"xT1":424.9,"yT1":0,"xT2":1058.1,"yT2":0,"toosoon":0,"cond_shown":"equaldotsize","ratio_trial":750,"smaller_num":"15","larger_num":"20","correct_side":2,"subjID":"JuanDiegoCastilloNaranjo35","gender":"0","age":"8","school":"4"},{"start_time":1552074580599,"click_time":1552074581352,"finger_time":1552074581012,"fix_duration":724.9403838353581,"trial":21,"RT":413,"MT":340,"sideResp":2,"stimulus":"img/500/equaldotsize/R/2_Ratio_500_L_3_R_6.png","xmouse":[777,777,777,777,777,777,777,777,777,777,777,777,777,777,777,777,777,778,792,833,859,876,893,913,944,955,965,976,994,1010,1017,1027,1035,1046,1050,1055,1059,1064],"ymouse":[523,523,523,523,523,523,523,523,523,523,523,523,523,523,523,523,523,523,519,500,489,478,468,455,433,423,413,401,380,336,307,274,242,175,149,129,110,94],"timestamp_mouse":[13,36,54,75,94,113,134,154,173,194,214,233,253,274,294,313,333,353,374,393,413,435,454,473,493,514,533,553,573,594,613,635,654,675,693,714,734,753],"xSR":741.5,"ySR":469.95,"xT1":424.9,"yT1":0,"xT2":1058.1,"yT2":0,"toosoon":0,"cond_shown":"equaldotsize","ratio_trial":500,"smaller_num":"3","larger_num":"6","correct_side":2,"subjID":"JuanDiegoCastilloNaranjo35","gender":"0","age":"8","school":"4"},{"start_time":1552074582692,"click_time":1552074585132,"finger_time":1552074583292,"fix_duration":278.60254043899215,"trial":22,"RT":600,"MT":1840,"sideResp":2,"stimulus":"img/250/randomdotsizeEA/R/9_Ratio_250_L_3_R_12.png","xmouse":[784,784,784,784,784,784,784,784,784,784,784,784,784,784,784,784,784,784,784,784,785,785,787,788,794,803,811,816,821,826,838,845,855,861,868,888,896,902,907,911,915,918,923,927,934,940,943,945,946,947,947,949,949,951,956,958,960,963,968,973,981,984,987,988,988,988,988,988,988,988,988,988,988,988,988,988,988,988,988,988,988,988,988,999,1011,1074,1112,1174,1253,1333,1473,1520,1552,1577,1577,1577,1577,1577,1577,1573,1542,1522,1506,1491,1477,1439,1420,1404,1389,1372,1346,1331,1318,1307,1286,1273,1273,1273,1269,1258,1216,1181,1150],"ymouse":[556,556,556,556,556,556,553,552,550,548,547,547,547,546,544,542,541,540,539,536,534,532,530,527,519,508,499,490,482,473,454,442,431,421,410,375,360,347,334,326,317,312,306,299,288,274,268,266,263,262,262,261,261,259,255,254,252,249,245,244,237,232,226,222,219,218,218,218,218,218,218,218,218,218,218,218,218,218,218,218,218,218,218,214,209,200,200,204,215,224,222,205,186,159,159,159,159,159,159,10,9,9,10,16,25,49,63,75,83,89,93,93,93,91,85,81,81,81,81,81,71,63,58],"timestamp_mouse":[8,33,40,61,82,100,120,141,160,181,200,222,240,261,281,300,321,340,360,382,401,421,440,460,481,500,520,541,561,580,600,620,640,662,680,700,721,740,760,780,800,821,841,861,880,901,920,941,960,980,1000,1020,1040,1061,1082,1100,1120,1141,1160,1180,1200,1221,1240,1260,1281,1300,1321,1341,1360,1381,1400,1420,1441,1461,1481,1501,1521,1541,1561,1581,1600,1620,1642,1660,1681,1700,1720,1741,1761,1781,1800,1821,1840,1862,1881,1901,1920,1940,1960,1981,2000,2020,2040,2062,2081,2100,2120,2140,2160,2181,2200,2220,2240,2261,2281,2300,2321,2341,2360,2381,2400,2420,2440],"xSR":741.5,"ySR":469.95,"xT1":424.9,"yT1":0,"xT2":1058.1,"yT2":0,"toosoon":0,"cond_shown":"randomdotsizeEA","ratio_trial":250,"smaller_num":"3","larger_num":"12","correct_side":2,"subjID":"JuanDiegoCastilloNaranjo35","gender":"0","age":"8","school":"4"},{"start_time":1552074588714,"click_time":1552074589792,"finger_time":1552074589394,"fix_duration":800.436982738947,"trial":23,"RT":680,"MT":398,"sideResp":2,"stimulus":"img/900/equaldotanddens/L/4_Ratio_900_L_20_R_18.png","xmouse":[794,794,794,794,794,794,794,794,794,794,794,794,794,794,794,794,794,794,794,794,794,794,794,794,794,794,794,794,794,794,794,795,806,923,990,1057,1100,1132,1167,1177,1184,1190,1198,1215,1217,1218,1218,1217,1212,1201,1187,1174,1164,1138],"ymouse":[516,516,516,516,516,516,516,516,516,516,516,516,516,516,516,516,516,516,516,516,516,516,516,516,516,516,516,516,516,516,516,517,516,451,397,339,293,256,204,191,180,172,161,124,111,99,89,83,82,82,82,82,82,88],"timestamp_mouse":[19,39,59,78,99,119,138,158,180,198,220,239,259,279,299,319,339,358,378,398,419,438,458,479,499,519,539,558,579,598,618,638,658,680,698,718,738,759,778,799,819,838,859,878,899,918,940,959,978,999,1018,1040,1059,1078],"xSR":741.5,"ySR":469.95,"xT1":424.9,"yT1":0,"xT2":1058.1,"yT2":0,"toosoon":0,"cond_shown":"equaldotanddens","ratio_trial":900,"smaller_num":"18","larger_num":"20","correct_side":1,"subjID":"JuanDiegoCastilloNaranjo35","gender":"0","age":"8","school":"4"},{"start_time":1552074591808,"click_time":1552074592574,"finger_time":1552074592292,"fix_duration":1293.9425098784282,"trial":24,"RT":484,"MT":282,"sideResp":2,"stimulus":"img/900/equaldotsize/L/10_Ratio_900_L_20_R_18.png","xmouse":[785,785,785,785,785,785,785,785,785,785,785,785,785,785,785,785,785,785,786,804,809,816,821,826,849,865,886,933,958,1004,1031,1062,1092,1117,1144,1151,1155,1157,1153],"ymouse":[536,536,536,536,536,536,536,536,536,536,536,536,536,536,536,536,536,536,529,505,500,495,491,487,468,453,434,394,374,327,295,257,224,197,158,144,131,107,33],"timestamp_mouse":[11,30,44,66,84,104,126,144,165,185,206,225,245,266,284,304,324,345,365,385,404,425,444,465,484,504,524,545,565,584,604,624,645,665,684,704,725,745,766],"xSR":741.5,"ySR":469.95,"xT1":424.9,"yT1":0,"xT2":1058.1,"yT2":0,"toosoon":0,"cond_shown":"equaldotsize","ratio_trial":900,"smaller_num":"18","larger_num":"20","correct_side":1,"subjID":"JuanDiegoCastilloNaranjo35","gender":"0","age":"8","school":"4"},{"start_time":1552074593796,"click_time":1552074597693,"finger_time":1552074596332,"fix_duration":382.612302672433,"trial":25,"RT":2536,"MT":1361,"sideResp":2,"stimulus":"img/900/randomdotsizeEA/L/8_Ratio_900_L_20_R_18.png","xmouse":[776,776,776,776,776,776,776,776,779,782,784,785,785,785,785,785,785,787,787,787,787,787,787,787,787,787,787,787,788,789,789,789,789,789,789,789,789,790,799,802,804,806,806,806,806,806,806,806,806,805,802,798,795,792,790,790,790,790,790,790,790,790,790,790,791,791,791,791,791,791,791,793,795,801,802,802,802,802,802,802,802,802,802,802,801,800,798,797,796,794,794,793,792,791,789,788,788,788,788,788,788,788,788,788,788,789,790,791,791,791,791,791,791,793,798,804,808,809,811,812,815,816,818,818,823,827,832,833,835,835,835,835,835,835,833,830,825,818,812,800,798,797,797,797,797,797,797,797,797,797,797,797,797,797,797,797,797,797,797,797,797,797,797,797,797,797,798,799,802,805,810,817,827,859,873,888,917,927,988,1007,1024,1040,1053,1082,1090,1099,1102,1104,1106,1106,1106,1106,1102,1099,1096],"ymouse":[532,532,532,532,532,532,532,532,532,531,531,531,531,531,531,531,531,530,528,528,528,528,528,528,528,528,528,527,525,521,521,521,521,521,521,521,521,521,511,505,499,494,494,494,494,494,494,494,494,498,505,515,522,529,531,532,532,532,532,532,532,532,532,532,532,531,531,531,531,531,531,527,523,516,514,514,514,514,514,514,514,514,514,514,517,520,523,526,528,530,531,531,533,535,537,538,538,538,538,538,538,538,538,538,538,536,534,532,532,532,532,532,532,529,524,519,515,515,513,512,509,506,502,499,488,480,469,465,463,463,463,463,463,463,467,472,479,485,490,498,500,501,502,503,504,504,504,504,504,504,504,504,504,504,504,504,504,504,505,505,505,505,505,505,505,505,505,505,505,505,502,497,488,457,442,424,393,379,308,289,270,252,234,178,161,146,137,132,130,127,122,115,107,101,94],"timestamp_mouse":[26,36,56,76,96,116,138,156,177,198,217,236,256,276,297,317,336,356,376,396,417,437,456,477,496,516,537,556,577,596,616,636,656,676,698,717,736,756,777,796,816,836,857,878,897,917,937,957,977,998,1016,1036,1056,1077,1098,1116,1136,1157,1178,1197,1217,1236,1256,1276,1296,1316,1337,1358,1377,1397,1416,1437,1456,1477,1496,1516,1537,1556,1576,1596,1617,1637,1658,1677,1696,1717,1736,1757,1777,1797,1816,1836,1857,1876,1896,1917,1936,1956,1977,1996,2017,2036,2057,2077,2096,2117,2137,2157,2178,2196,2218,2236,2257,2277,2296,2316,2336,2356,2377,2396,2416,2437,2456,2476,2497,2517,2536,2556,2577,2596,2617,2638,2657,2676,2696,2716,2737,2756,2777,2796,2816,2836,2857,2876,2896,2917,2936,2956,2976,2996,3016,3036,3057,3077,3096,3117,3137,3157,3177,3197,3217,3238,3256,3277,3298,3316,3337,3356,3377,3397,3416,3436,3457,3477,3496,3517,3536,3557,3577,3596,3617,3636,3656,3677,3697,3717,3737,3756,3776,3796,3817,3836,3857,3876,3896],"xSR":741.5,"ySR":469.95,"xT1":424.9,"yT1":0,"xT2":1058.1,"yT2":0,"toosoon":0,"cond_shown":"randomdotsizeEA","ratio_trial":900,"smaller_num":"18","larger_num":"20","correct_side":1,"subjID":"JuanDiegoCastilloNaranjo35","gender":"0","age":"8","school":"4"},{"start_time":1552074599050,"click_time":1552074600433,"finger_time":1552074599492,"fix_duration":616.8290298854396,"trial":26,"RT":442,"MT":941,"sideResp":1,"stimulus":"img/900/equaldotanddens/L/2_Ratio_900_L_20_R_18.png","xmouse":[769,771,771,771,771,771,771,771,771,771,771,771,771,771,771,771,771,771,775,782,792,805,826,833,837,842,854,868,870,869,859,844,804,784,764,746,744,745,747,746,725,668,668,668,668,668,668,668,668,668,668,668,410,465,522,558,563,563,565,572,591,624,630,631,631,630,604,582,547,497],"ymouse":[533,533,533,533,533,533,533,533,533,533,533,533,533,533,533,533,533,533,529,521,509,494,467,458,451,439,420,386,373,361,350,340,318,307,294,273,254,206,158,111,70,8,8,8,8,8,8,8,8,8,8,8,44,109,158,183,187,187,187,188,188,181,177,170,164,159,137,124,102,72],"timestamp_mouse":[2,29,43,62,84,103,123,143,163,183,202,223,242,262,282,302,324,343,362,383,403,422,442,463,482,503,522,543,562,583,602,622,642,663,682,702,722,743,762,783,802,822,843,863,883,903,922,943,963,983,1003,1024,1043,1062,1083,1102,1123,1143,1162,1182,1202,1223,1242,1262,1282,1303,1323,1342,1362,1383],"xSR":741.5,"ySR":469.95,"xT1":424.9,"yT1":0,"xT2":1058.1,"yT2":0,"toosoon":0,"cond_shown":"equaldotanddens","ratio_trial":900,"smaller_num":"18","larger_num":"20","correct_side":1,"subjID":"JuanDiegoCastilloNaranjo35","gender":"0","age":"8","school":"4"},{"start_time":1552074601518,"click_time":1552074602174,"finger_time":1552074601932,"fix_duration":425.5661447471343,"trial":27,"RT":414,"MT":242,"sideResp":2,"stimulus":"img/900/randomdotsizeEA/L/8_Ratio_900_L_20_R_18.png","xmouse":[774,773,773,773,773,773,773,773,773,773,773,773,773,773,773,773,773,775,812,836,863,889,924,944,966,982,994,1021,1030,1042,1056,1069,1088],"ymouse":[534,533,533,533,533,533,533,533,533,533,533,533,533,533,533,533,533,529,505,481,449,411,361,338,313,293,277,237,220,200,167,131,53],"timestamp_mouse":[15,36,55,75,95,114,135,156,175,194,215,234,254,274,294,314,334,354,374,394,414,435,456,474,495,515,534,556,574,595,614,634,656],"xSR":741.5,"ySR":469.95,"xT1":424.9,"yT1":0,"xT2":1058.1,"yT2":0,"toosoon":0,"cond_shown":"randomdotsizeEA","ratio_trial":900,"smaller_num":"18","larger_num":"20","correct_side":1,"subjID":"JuanDiegoCastilloNaranjo35","gender":"0","age":"8","school":"4"},{"start_time":1552074604024,"click_time":1552074604992,"finger_time":1552074604492,"fix_duration":571.5821835261318,"trial":28,"RT":468,"MT":500,"sideResp":2,"stimulus":"img/250/equaldotsize/R/10_Ratio_250_L_4_R_16.png","xmouse":[819,817,813,808,806,805,804,804,804,804,804,804,804,804,804,804,804,804,804,804,805,806,811,850,869,884,895,907,947,962,979,992,1017,1032,1046,1065,1086,1111,1117,1119,1120,1121,1126,1128,1132,1139,1139,1139,1134],"ymouse":[514,514,516,518,519,519,519,519,519,519,519,519,519,519,519,519,519,519,519,519,518,518,513,490,479,468,458,446,413,399,384,367,334,317,302,284,267,235,227,223,221,219,212,205,192,162,150,116,77],"timestamp_mouse":[9,28,49,68,89,108,128,149,168,188,208,228,248,268,289,308,328,348,369,388,408,429,449,468,488,508,529,549,568,588,608,629,650,668,689,708,728,750,768,788,808,828,850,868,888,908,928,949,968],"xSR":741.5,"ySR":469.95,"xT1":424.9,"yT1":0,"xT2":1058.1,"yT2":0,"toosoon":0,"cond_shown":"equaldotsize","ratio_trial":250,"smaller_num":"4","larger_num":"16","correct_side":2,"subjID":"JuanDiegoCastilloNaranjo35","gender":"0","age":"8","school":"4"},{"start_time":1552074607459,"click_time":1552074608172,"finger_time":1552074607913,"fix_duration":365.27810350055944,"trial":29,"RT":454,"MT":259,"sideResp":2,"stimulus":"img/250/randomdotsizeEA/R/8_Ratio_250_L_1_R_4.png","xmouse":[790,790,790,790,790,790,790,790,790,790,790,790,790,790,790,790,790,790,790,795,799,826,842,855,870,902,965,994,1018,1029,1035,1048,1053,1059,1065,1071],"ymouse":[527,527,527,527,527,527,527,527,527,527,527,527,527,527,527,527,527,527,527,524,521,495,479,459,439,405,340,306,268,234,200,147,125,111,103,96],"timestamp_mouse":[14,34,54,73,93,114,134,154,173,194,214,235,255,274,294,314,334,353,374,393,413,433,454,474,493,514,533,553,573,594,613,633,653,673,693,713],"xSR":741.5,"ySR":469.95,"xT1":424.9,"yT1":0,"xT2":1058.1,"yT2":0,"toosoon":0,"cond_shown":"randomdotsizeEA","ratio_trial":250,"smaller_num":"1","larger_num":"4","correct_side":2,"subjID":"JuanDiegoCastilloNaranjo35","gender":"0","age":"8","school":"4"},{"start_time":1552074614121,"click_time":1552074615092,"finger_time":1552074614492,"fix_duration":1067.315596947187,"trial":30,"RT":371,"MT":600,"sideResp":2,"stimulus":"img/900/equaldotsize/L/10_Ratio_900_L_20_R_18.png","xmouse":[810,811,815,816,817,818,819,822,823,824,825,826,827,828,829,830,832,837,848,860,888,900,927,949,958,967,975,978,979,984,991,1003,1032,1071,1084,1095,1103,1111,1114,1114,1116,1116,1118,1118,1118,1111,1100,1093,1084],"ymouse":[553,552,549,548,546,545,544,540,538,536,534,532,530,529,527,523,518,512,490,473,430,409,353,295,271,254,243,239,239,238,235,228,212,186,173,162,152,144,143,143,142,142,141,135,129,119,110,102,93],"timestamp_mouse":[13,33,52,72,91,112,131,153,171,192,211,231,253,272,291,312,332,351,371,392,411,431,451,471,491,511,532,553,571,592,612,631,651,671,691,712,732,753,771,791,811,831,851,872,891,911,932,952,971],"xSR":741.5,"ySR":469.95,"xT1":424.9,"yT1":0,"xT2":1058.1,"yT2":0,"toosoon":0,"cond_shown":"equaldotsize","ratio_trial":900,"smaller_num":"18","larger_num":"20","correct_side":1,"subjID":"JuanDiegoCastilloNaranjo35","gender":"0","age":"8","school":"4"},{"start_time":1552074619121,"click_time":1552074620174,"finger_time":1552074619732,"fix_duration":1405.934569933124,"trial":31,"RT":611,"MT":442,"sideResp":2,"stimulus":"img/500/equaldotsize/R/12_Ratio_500_L_1_R_2.png","xmouse":[804,804,804,800,796,794,794,794,794,794,794,794,794,794,794,794,794,794,794,794,794,794,794,794,794,794,794,801,815,837,877,905,926,995,1054,1106,1145,1171,1213,1229,1244,1262,1290,1291,1291,1289,1283,1269,1257,1237,1215,1188,1139],"ymouse":[529,529,529,529,529,529,529,529,529,529,529,529,529,529,529,529,529,529,529,529,529,529,529,529,529,529,528,518,508,491,466,445,425,355,307,258,219,183,124,104,85,64,23,12,6,3,2,1,1,6,13,24,53],"timestamp_mouse":[11,32,52,71,91,111,132,151,171,191,213,232,252,273,292,311,332,352,371,391,412,431,453,471,491,512,531,552,571,591,611,632,651,671,691,713,731,752,771,791,812,832,853,872,891,911,931,953,971,991,1011,1032,1052],"xSR":741.5,"ySR":469.95,"xT1":424.9,"yT1":0,"xT2":1058.1,"yT2":0,"toosoon":0,"cond_shown":"equaldotsize","ratio_trial":500,"smaller_num":"1","larger_num":"2","correct_side":2,"subjID":"JuanDiegoCastilloNaranjo35","gender":"0","age":"8","school":"4"},{"start_time":1552074623065,"click_time":1552074624053,"finger_time":1552074623612,"fix_duration":871.2341417946953,"trial":32,"RT":547,"MT":441,"sideResp":2,"stimulus":"img/750/equaldotanddens/R/12_Ratio_750_L_3_R_4.png","xmouse":[798,798,798,798,798,798,798,798,798,798,795,793,788,786,783,782,782,782,782,782,782,784,787,790,793,820,832,848,863,882,915,989,1009,1019,1024,1026,1032,1033,1034,1035,1040,1058,1063,1075,1077,1081,1095,1103,1109,1113],"ymouse":[527,527,527,527,527,527,527,526,526,525,523,523,524,526,527,528,528,528,528,528,527,520,516,511,507,484,473,455,436,413,375,278,239,208,184,169,146,145,143,142,140,130,125,116,115,111,104,102,101,99],"timestamp_mouse":[11,38,47,67,87,109,127,149,167,188,208,227,247,267,288,308,327,347,367,387,407,427,447,467,487,508,529,547,567,587,607,627,647,667,688,708,727,748,767,787,808,827,848,867,888,908,928,948,967,988],"xSR":741.5,"ySR":469.95,"xT1":424.9,"yT1":0,"xT2":1058.1,"yT2":0,"toosoon":0,"cond_shown":"equaldotanddens","ratio_trial":750,"smaller_num":"3","larger_num":"4","correct_side":2,"subjID":"JuanDiegoCastilloNaranjo35","gender":"0","age":"8","school":"4"},{"start_time":1552074626607,"click_time":1552074627412,"finger_time":1552074627092,"fix_duration":273.95521479456795,"trial":33,"RT":485,"MT":320,"sideResp":2,"stimulus":"img/250/equaldotsize/R/13_Ratio_250_L_2_R_8.png","xmouse":[812,812,812,812,812,812,812,812,812,812,812,812,812,812,812,811,809,807,806,806,806,806,806,812,860,911,982,1055,1116,1164,1182,1194,1205,1218,1220,1220,1220,1212,1194,1162,1145],"ymouse":[533,533,533,533,533,533,533,533,533,533,533,533,533,533,533,532,531,530,527,525,523,521,517,503,462,431,394,361,326,288,272,253,233,196,178,162,150,138,125,100,84],"timestamp_mouse":[11,36,45,66,87,107,125,146,165,186,206,227,246,266,287,305,325,346,366,386,405,426,445,465,485,505,526,545,566,585,606,625,645,667,685,706,726,745,765,786,805],"xSR":741.5,"ySR":469.95,"xT1":424.9,"yT1":0,"xT2":1058.1,"yT2":0,"toosoon":0,"cond_shown":"equaldotsize","ratio_trial":250,"smaller_num":"2","larger_num":"8","correct_side":2,"subjID":"JuanDiegoCastilloNaranjo35","gender":"0","age":"8","school":"4"},{"start_time":1552074628729,"click_time":1552074630113,"finger_time":1552074629012,"fix_duration":453.02371913292683,"trial":34,"RT":283,"MT":1101,"sideResp":2,"stimulus":"img/250/randomdotsizeEA/R/10_Ratio_250_L_4_R_16.png","xmouse":[811,811,811,811,811,811,811,811,811,811,811,815,818,839,856,869,884,900,940,966,979,995,1009,1032,1040,1042,1044,1046,1046,1046,1047,1047,1049,1053,1053,1054,1054,1054,1054,1054,1049,1035,1010,947,906,873,844,813,810,809,809,809,809,809,812,831,854,882,930,937,952,957,972,995,1006,1018,1029,1048,1058,1073],"ymouse":[503,503,503,503,503,503,503,503,503,503,503,503,503,493,486,478,468,456,416,387,363,337,305,255,231,214,195,161,144,129,114,100,76,51,42,37,37,37,37,36,38,50,91,207,284,340,400,458,468,474,475,476,476,476,476,468,452,427,358,347,327,318,300,271,253,232,205,148,97,50],"timestamp_mouse":[11,30,43,64,83,103,124,145,164,183,203,224,244,264,283,304,324,343,363,383,404,423,443,463,483,503,523,544,563,584,604,623,643,664,683,704,724,744,763,784,804,824,843,864,883,903,924,945,963,984,1004,1023,1044,1064,1083,1104,1124,1144,1163,1184,1203,1224,1244,1263,1284,1304,1323,1344,1363,1383],"xSR":741.5,"ySR":469.95,"xT1":424.9,"yT1":0,"xT2":1058.1,"yT2":0,"toosoon":0,"cond_shown":"randomdotsizeEA","ratio_trial":250,"smaller_num":"4","larger_num":"16","correct_side":2,"subjID":"JuanDiegoCastilloNaranjo35","gender":"0","age":"8","school":"4"},{"start_time":1552074631684,"click_time":1552074632412,"finger_time":1552074631773,"fix_duration":730.3660730023969,"trial":35,"RT":89,"MT":639,"sideResp":2,"stimulus":"img/750/equaldotanddens/R/4_Ratio_750_L_15_R_20.png","xmouse":[823,830,836,838,842,855,864,874,879,884,910,921,935,949,990,1005,1019,1031,1041,1053,1057,1059,1059,1059,1059,1061,1062,1065,1069,1074,1081,1085,1092,1093,1097,1106,1109],"ymouse":[529,529,529,529,528,523,521,517,515,512,500,493,486,474,445,429,412,392,375,340,320,299,277,256,225,198,189,183,177,171,161,155,147,145,134,112,98],"timestamp_mouse":[11,35,48,69,89,108,128,149,168,188,208,229,249,269,290,308,328,348,368,389,409,428,448,469,488,509,528,549,569,588,608,629,648,668,688,709,728],"xSR":741.5,"ySR":469.95,"xT1":424.9,"yT1":0,"xT2":1058.1,"yT2":0,"toosoon":0,"cond_shown":"equaldotanddens","ratio_trial":750,"smaller_num":"15","larger_num":"20","correct_side":2,"subjID":"JuanDiegoCastilloNaranjo35","gender":"0","age":"8","school":"4"},{"start_time":1552074639365,"click_time":1552074640692,"finger_time":1552074639772,"fix_duration":250,"trial":36,"RT":407,"MT":920,"sideResp":1,"stimulus":"img/500/randomdotsizeEA/L/8_Ratio_500_L_8_R_4.png","xmouse":[794,794,794,794,794,794,794,794,794,794,794,794,794,794,794,794,794,795,809,829,880,952,978,1004,1035,1057,1073,1077,1082,1083,1081,1079,1078,1077,1077,1077,1077,1077,1073,1072,1067,1062,1058,1049,1039,994,957,913,882,856,814,800,790,775,754,727,677,662,649,636,624,602,589,579,565,547,516],"ymouse":[544,544,544,544,544,544,544,544,544,544,544,544,544,544,544,544,544,544,536,523,492,429,393,347,296,266,231,216,198,180,147,132,124,120,119,119,119,118,118,118,119,119,119,119,119,119,119,119,119,122,125,125,121,113,99,83,57,51,46,41,39,40,44,50,59,66,80],"timestamp_mouse":[10,39,48,68,87,108,127,147,167,187,207,229,247,267,287,309,329,347,368,387,407,427,448,467,488,507,527,548,568,587,608,628,647,667,687,707,728,747,767,788,808,828,847,868,887,909,927,948,967,987,1008,1027,1048,1067,1087,1108,1127,1147,1172,1187,1208,1227,1247,1267,1287,1307,1327],"xSR":741.5,"ySR":469.95,"xT1":424.9,"yT1":0,"xT2":1058.1,"yT2":0,"toosoon":0,"cond_shown":"randomdotsizeEA","ratio_trial":500,"smaller_num":"4","larger_num":"8","correct_side":1,"subjID":"JuanDiegoCastilloNaranjo35","gender":"0","age":"8","school":"4"},{"start_time":1552074641785,"click_time":1552074642274,"finger_time":1552074642092,"fix_duration":250,"trial":37,"RT":307,"MT":182,"sideResp":1,"stimulus":"img/500/equaldotanddens/L/5_Ratio_500_L_4_R_2.png","xmouse":[758,758,758,758,758,758,758,758,758,758,758,758,758,758,757,746,737,726,703,653,595,571,551,535,513],"ymouse":[503,503,503,503,503,503,503,503,503,503,503,503,503,503,498,466,443,410,357,269,163,121,84,55,12],"timestamp_mouse":[10,34,47,68,87,107,127,149,168,188,208,227,247,268,288,307,327,348,368,387,407,427,447,467,489],"xSR":741.5,"ySR":469.95,"xT1":424.9,"yT1":0,"xT2":1058.1,"yT2":0,"toosoon":0,"cond_shown":"equaldotanddens","ratio_trial":500,"smaller_num":"2","larger_num":"4","correct_side":1,"subjID":"JuanDiegoCastilloNaranjo35","gender":"0","age":"8","school":"4"},{"start_time":1552074643564,"click_time":1552074644193,"finger_time":1552074643792,"fix_duration":250,"trial":38,"RT":228,"MT":401,"sideResp":2,"stimulus":"img/250/equaldotsize/R/10_Ratio_250_L_4_R_16.png","xmouse":[792,792,792,792,792,792,792,792,792,794,800,817,823,830,833,840,842,844,847,856,868,892,905,918,931,964,980,994,1013,1031,1053,1081],"ymouse":[494,494,494,494,494,494,494,494,494,493,485,467,458,444,431,395,373,354,335,308,288,235,210,187,166,120,98,78,57,41,24,17],"timestamp_mouse":[9,28,50,68,88,110,128,149,168,188,209,228,248,268,288,311,328,348,368,388,410,428,448,469,488,509,528,549,568,590,609,628],"xSR":741.5,"ySR":469.95,"xT1":424.9,"yT1":0,"xT2":1058.1,"yT2":0,"toosoon":0,"cond_shown":"equaldotsize","ratio_trial":250,"smaller_num":"4","larger_num":"16","correct_side":2,"subjID":"JuanDiegoCastilloNaranjo35","gender":"0","age":"8","school":"4"},{"start_time":1552074645544,"click_time":1552074646493,"finger_time":1552074645692,"fix_duration":250,"trial":39,"RT":148,"MT":801,"sideResp":1,"stimulus":"img/500/equaldotanddens/L/8_Ratio_500_L_8_R_4.png","xmouse":[826,828,832,834,835,837,840,845,847,849,851,860,865,872,883,893,905,940,952,964,975,984,981,973,965,952,937,890,859,802,754,710,653,626,599,582,569,548,545,544,544,544,544,544,542,536,530,523],"ymouse":[498,497,496,496,495,493,493,489,488,486,484,476,471,463,453,439,420,355,323,286,245,162,134,115,100,88,80,65,57,41,30,26,31,42,50,57,64,75,81,87,91,92,92,92,92,84,78,73],"timestamp_mouse":[13,32,48,68,88,109,128,148,169,188,209,231,248,268,289,309,328,348,368,388,408,429,448,468,488,508,528,548,568,588,608,628,648,668,688,708,728,748,770,789,810,829,848,868,890,909,929,949],"xSR":741.5,"ySR":469.95,"xT1":424.9,"yT1":0,"xT2":1058.1,"yT2":0,"toosoon":0,"cond_shown":"equaldotanddens","ratio_trial":500,"smaller_num":"4","larger_num":"8","correct_side":1,"subjID":"JuanDiegoCastilloNaranjo35","gender":"0","age":"8","school":"4"},{"start_time":1552074647943,"click_time":1552074648092,"finger_time":1552074647978,"fix_duration":549.6805381634191,"trial":40,"RT":35,"MT":114,"sideResp":2,"stimulus":"img/500/randomdotsizeEA/L/8_Ratio_500_L_8_R_4.png","xmouse":[826,881,974,1003,1029,1057,1090,1149],"ymouse":[517,473,362,314,259,210,167,93],"timestamp_mouse":[9,35,49,70,90,110,131,149],"xSR":741.5,"ySR":469.95,"xT1":424.9,"yT1":0,"xT2":1058.1,"yT2":0,"toosoon":0,"cond_shown":"randomdotsizeEA","ratio_trial":500,"smaller_num":"4","larger_num":"8","correct_side":1,"subjID":"JuanDiegoCastilloNaranjo35","gender":"0","age":"8","school":"4"},{"start_time":1552074651600,"click_time":1552074651953,"finger_time":1552074651913,"fix_duration":405.44818077670897,"trial":41,"RT":313,"MT":40,"sideResp":1,"stimulus":"img/750/randomdotsizeEA/L/1_Ratio_750_L_20_R_15.png","xmouse":[788,788,788,788,788,788,788,788,787,787,785,780,770,766,766,756,565,497],"ymouse":[558,558,558,558,557,557,556,555,548,542,531,512,489,480,480,467,182,77],"timestamp_mouse":[18,37,54,73,93,113,132,153,173,193,212,232,252,274,292,313,332,353],"xSR":741.5,"ySR":469.95,"xT1":424.9,"yT1":0,"xT2":1058.1,"yT2":0,"toosoon":0,"cond_shown":"randomdotsizeEA","ratio_trial":750,"smaller_num":"15","larger_num":"20","correct_side":1,"subjID":"JuanDiegoCastilloNaranjo35","gender":"0","age":"8","school":"4"},{"start_time":1552074662546,"click_time":1552074664092,"finger_time":1552074662912,"fix_duration":1150.6219121027955,"trial":42,"RT":366,"MT":1180,"sideResp":2,"stimulus":"img/250/equaldotanddens/R/9_Ratio_250_L_3_R_12.png","xmouse":[785,785,785,785,786,786,787,787,787,787,787,787,787,787,787,787,788,795,805,829,951,1167,1167,1167,1167,1167,1481,1412,1290,1162,1162,1162,1162,1162,1162,1162,1162,1162,1162,1162,1162,1162,1162,581,590,592,589,576,575,575,582,602,625,635,643,654,686,709,732,758,794,821,901,947,992,1052,1052,1052,1052,1052,1052,1052,1052,1052,1052,1052,1052,1119],"ymouse":[494,494,494,494,491,488,486,486,486,486,486,486,486,486,486,486,483,474,453,414,302,53,53,53,53,53,5,184,414,663,663,663,663,663,663,663,663,663,663,663,663,663,663,713,634,558,535,437,398,370,348,320,289,274,259,243,208,188,173,158,141,130,98,79,50,3,3,3,3,3,3,3,3,3,3,3,3,23],"timestamp_mouse":[9,27,47,67,86,107,127,146,168,188,207,228,247,267,286,307,327,346,366,387,408,427,447,467,487,506,528,547,567,587,606,627,646,666,688,708,727,746,766,786,806,827,847,866,886,906,926,946,967,986,1008,1028,1048,1066,1087,1107,1128,1146,1167,1186,1207,1227,1246,1266,1287,1306,1327,1347,1366,1386,1407,1426,1447,1466,1486,1506,1526,1546],"xSR":741.5,"ySR":469.95,"xT1":424.9,"yT1":0,"xT2":1058.1,"yT2":0,"toosoon":0,"cond_shown":"equaldotanddens","ratio_trial":250,"smaller_num":"3","larger_num":"12","correct_side":2,"subjID":"JuanDiegoCastilloNaranjo35","gender":"0","age":"8","school":"4"},{"start_time":1552074666565,"click_time":1552074667013,"finger_time":1552074666832,"fix_duration":1329.047720642768,"trial":43,"RT":267,"MT":181,"sideResp":2,"stimulus":"img/250/equaldotanddens/R/4_Ratio_250_L_3_R_12.png","xmouse":[800,800,800,800,800,801,803,805,808,811,821,827,836,850,870,932,970,1005,1032,1044,1059,1087,1096],"ymouse":[507,507,507,507,507,506,505,503,502,501,493,487,477,461,437,365,317,274,240,216,186,119,99],"timestamp_mouse":[11,38,47,68,89,108,127,148,167,189,208,228,247,267,287,310,327,348,367,387,407,428,448],"xSR":741.5,"ySR":469.95,"xT1":424.9,"yT1":0,"xT2":1058.1,"yT2":0,"toosoon":0,"cond_shown":"equaldotanddens","ratio_trial":250,"smaller_num":"3","larger_num":"12","correct_side":2,"subjID":"JuanDiegoCastilloNaranjo35","gender":"0","age":"8","school":"4"},{"start_time":1552074668480,"click_time":1552074669194,"finger_time":1552074668812,"fix_duration":764.7992922294875,"trial":44,"RT":332,"MT":382,"sideResp":2,"stimulus":"img/900/equaldotanddens/L/10_Ratio_900_L_20_R_18.png","xmouse":[801,801,801,801,801,801,801,801,801,801,801,801,802,805,821,834,860,900,940,1032,1089,1131,1165,1189,1206,1206,1206,1206,1206,1206,1206,1206,1206,1194,1181,1150],"ymouse":[504,504,504,504,504,504,504,504,504,504,504,504,504,504,496,488,465,421,366,238,163,106,59,23,1,1,1,1,1,1,1,1,1,5,22,73],"timestamp_mouse":[15,41,54,74,92,113,132,154,173,193,213,234,252,273,293,312,332,353,372,394,412,433,453,474,494,513,534,553,572,593,612,632,652,672,693,714],"xSR":741.5,"ySR":469.95,"xT1":424.9,"yT1":0,"xT2":1058.1,"yT2":0,"toosoon":0,"cond_shown":"equaldotanddens","ratio_trial":900,"smaller_num":"18","larger_num":"20","correct_side":1,"subjID":"JuanDiegoCastilloNaranjo35","gender":"0","age":"8","school":"4"},{"start_time":1552074671308,"click_time":1552074672474,"finger_time":1552074671772,"fix_duration":1354.3706290248208,"trial":45,"RT":464,"MT":702,"sideResp":2,"stimulus":"img/900/randomdotsizeEA/L/8_Ratio_900_L_20_R_18.png","xmouse":[792,792,792,792,792,792,792,792,792,792,792,792,792,792,792,792,792,792,792,793,795,801,805,832,931,1011,1093,1169,1226,1226,1226,1226,1226,1226,1226,1226,1226,1226,1253,1242,1227,1212,1197,1183,1182,1182,1182,1182,1182,1180,1175,1174,1172,1172,1172,1172,1167,1163,1150],"ymouse":[492,492,492,492,492,492,492,492,492,492,492,492,492,492,492,492,492,492,492,490,486,478,472,444,353,284,204,110,19,19,19,19,19,19,19,19,19,19,4,20,36,48,56,62,62,62,62,62,62,55,40,29,15,9,9,9,16,22,42],"timestamp_mouse":[12,34,45,64,86,105,126,144,165,186,204,224,245,264,284,304,326,344,365,384,405,424,444,464,484,505,524,544,564,584,605,624,644,664,685,705,726,745,766,784,805,824,845,865,886,905,926,945,965,984,1005,1024,1045,1066,1085,1104,1124,1144,1166],"xSR":741.5,"ySR":469.95,"xT1":424.9,"yT1":0,"xT2":1058.1,"yT2":0,"toosoon":0,"cond_shown":"randomdotsizeEA","ratio_trial":900,"smaller_num":"18","larger_num":"20","correct_side":1,"subjID":"JuanDiegoCastilloNaranjo35","gender":"0","age":"8","school":"4"},{"start_time":1552074673904,"click_time":1552074674373,"finger_time":1552074674212,"fix_duration":710.6829487578128,"trial":46,"RT":308,"MT":161,"sideResp":1,"stimulus":"img/500/randomdotsizeEA/R/14_Ratio_500_L_5_R_10.png","xmouse":[815,815,815,816,816,816,817,818,819,819,819,819,819,819,819,816,813,803,796,755,712,650,578,508],"ymouse":[525,526,526,526,526,526,525,524,523,521,521,521,518,512,486,467,441,408,381,281,222,148,87,34],"timestamp_mouse":[9,33,48,69,88,110,129,148,169,188,209,229,248,268,289,308,329,349,368,388,408,428,449,469],"xSR":741.5,"ySR":469.95,"xT1":424.9,"yT1":0,"xT2":1058.1,"yT2":0,"toosoon":0,"cond_shown":"randomdotsizeEA","ratio_trial":500,"smaller_num":"5","larger_num":"10","correct_side":2,"subjID":"JuanDiegoCastilloNaranjo35","gender":"0","age":"8","school":"4"},{"start_time":1552074676867,"click_time":1552074677932,"finger_time":1552074677353,"fix_duration":1211.9047013579097,"trial":47,"RT":486,"MT":579,"sideResp":1,"stimulus":"img/750/equaldotsize/L/14_Ratio_750_L_8_R_6.png","xmouse":[790,790,790,790,790,790,790,790,789,789,788,787,787,787,787,786,786,786,786,786,786,788,795,805,826,854,873,886,889,892,896,896,896,896,899,910,915,918,920,920,920,920,920,920,920,887,861,833,804,771,660,598,568,516],"ymouse":[511,511,511,511,511,511,511,511,512,512,512,513,513,513,513,515,515,515,515,515,514,508,497,487,464,418,377,351,344,334,309,304,298,290,279,241,233,228,225,224,224,224,224,224,223,227,229,229,229,228,188,156,138,99],"timestamp_mouse":[11,34,46,66,85,106,127,145,166,186,205,226,246,266,287,307,325,345,367,386,406,425,446,465,486,506,526,546,566,585,606,625,646,666,686,706,725,745,765,785,806,825,845,866,886,906,925,945,966,985,1006,1025,1045,1065],"xSR":741.5,"ySR":469.95,"xT1":424.9,"yT1":0,"xT2":1058.1,"yT2":0,"toosoon":0,"cond_shown":"equaldotsize","ratio_trial":750,"smaller_num":"6","larger_num":"8","correct_side":1,"subjID":"JuanDiegoCastilloNaranjo35","gender":"0","age":"8","school":"4"},{"start_time":1552074680966,"click_time":1552074681873,"finger_time":1552074681573,"fix_duration":250,"trial":48,"RT":607,"MT":300,"sideResp":2,"stimulus":"img/500/equaldotsize/R/3_Ratio_500_L_10_R_20.png","xmouse":[793,793,793,793,793,793,793,793,793,793,793,793,793,793,793,793,793,793,793,793,793,793,793,796,798,806,811,817,836,841,867,877,888,910,943,999,1013,1024,1035,1053,1076,1084,1090,1092,1092,1091],"ymouse":[539,539,539,539,539,539,539,539,539,539,539,539,539,539,539,539,539,539,539,539,539,539,539,539,537,532,528,524,511,509,486,476,462,438,406,320,285,256,230,198,157,141,126,112,100,83],"timestamp_mouse":[8,37,46,67,87,106,127,147,166,187,207,226,247,267,287,307,327,347,366,386,407,428,446,467,486,507,526,547,566,586,607,626,646,666,686,708,726,747,767,787,807,826,847,868,887,907],"xSR":741.5,"ySR":469.95,"xT1":424.9,"yT1":0,"xT2":1058.1,"yT2":0,"toosoon":0,"cond_shown":"equaldotsize","ratio_trial":500,"smaller_num":"10","larger_num":"20","correct_side":2,"subjID":"JuanDiegoCastilloNaranjo35","gender":"0","age":"8","school":"4"},{"start_time":1552074685639,"click_time":1552074686374,"finger_time":1552074686273,"fix_duration":1242.568929251635,"trial":49,"RT":634,"MT":101,"sideResp":1,"stimulus":"img/500/equaldotsize/L/11_Ratio_500_L_12_R_6.png","xmouse":[817,817,816,815,813,812,811,810,810,810,810,810,810,810,810,810,810,810,810,810,810,810,810,810,810,810,810,806,802,798,790,750,708,654,602,546,475],"ymouse":[530,530,530,529,528,526,526,525,525,525,525,525,525,525,525,525,525,525,525,525,525,525,525,525,525,525,524,510,501,489,472,403,343,276,205,128,27],"timestamp_mouse":[13,33,53,74,94,115,134,153,174,195,215,234,255,274,294,314,334,354,373,393,413,435,454,474,493,513,533,554,573,594,614,634,653,674,694,715,735],"xSR":741.5,"ySR":469.95,"xT1":424.9,"yT1":0,"xT2":1058.1,"yT2":0,"toosoon":0,"cond_shown":"equaldotsize","ratio_trial":500,"smaller_num":"6","larger_num":"12","correct_side":1,"subjID":"JuanDiegoCastilloNaranjo35","gender":"0","age":"8","school":"4"},{"start_time":1552074687824,"click_time":1552074689593,"finger_time":1552074688273,"fix_duration":250,"trial":50,"RT":449,"MT":1320,"sideResp":2,"stimulus":"img/750/equaldotsize/R/12_Ratio_750_L_3_R_4.png","xmouse":[796,796,796,796,796,796,796,796,796,796,795,795,795,795,795,795,795,795,796,801,808,817,825,834,837,838,838,838,837,837,837,837,835,815,792,753,705,646,634,634,634,634,634,634,635,651,660,683,723,743,765,804,832,869,917,937,959,981,1000,1004,1004,1004,1004,1004,1003,1003,1002,1001,1001,1001,1002,1004,1007,1007,1012,1034,1066,1081,1100,1103,1103,1103,1103,1103,1103,1103,1103,1103,1101],"ymouse":[515,515,515,515,515,515,515,515,515,515,516,516,516,516,516,516,516,516,509,501,489,473,459,433,422,413,405,394,377,366,353,338,322,284,261,234,206,178,175,175,175,175,175,175,175,175,175,175,175,170,163,155,153,152,171,181,191,199,201,200,199,199,199,189,178,178,173,171,171,171,169,167,165,165,160,150,133,128,117,115,114,114,113,110,110,110,110,110,99],"timestamp_mouse":[11,32,49,70,90,108,129,148,170,190,209,229,248,269,289,308,328,348,370,388,408,429,449,468,488,509,530,550,568,588,608,628,648,668,688,709,728,748,768,788,809,828,849,868,890,908,929,949,968,988,1008,1028,1048,1068,1090,1109,1128,1148,1168,1189,1209,1229,1248,1268,1288,1308,1330,1349,1368,1388,1408,1428,1450,1468,1489,1509,1528,1548,1568,1589,1609,1628,1649,1668,1688,1709,1729,1748,1769],"xSR":741.5,"ySR":469.95,"xT1":424.9,"yT1":0,"xT2":1058.1,"yT2":0,"toosoon":0,"cond_shown":"equaldotsize","ratio_trial":750,"smaller_num":"3","larger_num":"4","correct_side":2,"subjID":"JuanDiegoCastilloNaranjo35","gender":"0","age":"8","school":"4"},{"start_time":1552074691812,"click_time":1552074692892,"finger_time":1552074692332,"fix_duration":896.7910995548086,"trial":51,"RT":520,"MT":560,"sideResp":2,"stimulus":"img/250/randomdotsizeEA/R/6_Ratio_250_L_6_R_24.png","xmouse":[761,761,761,761,761,761,761,761,761,761,761,761,761,761,761,761,771,778,787,799,805,812,816,821,830,836,844,851,854,856,858,859,859,860,861,861,864,872,897,916,932,954,969,981,996,996,996,996,996,1005,1037,1052,1064,1071,1079],"ymouse":[533,533,533,533,533,533,533,533,533,533,533,533,533,533,533,533,532,529,526,517,512,507,504,494,484,476,469,460,457,453,451,451,450,450,449,449,448,444,434,417,404,384,367,346,298,273,253,241,193,172,156,143,126,113,90],"timestamp_mouse":[8,29,42,61,81,101,121,142,161,181,200,221,240,260,281,300,320,340,360,381,400,420,440,461,480,500,520,541,560,580,602,621,640,662,680,701,720,742,761,780,800,822,841,860,880,901,920,940,961,980,1000,1020,1041,1062,1080],"xSR":741.5,"ySR":469.95,"xT1":424.9,"yT1":0,"xT2":1058.1,"yT2":0,"toosoon":0,"cond_shown":"randomdotsizeEA","ratio_trial":250,"smaller_num":"6","larger_num":"24","correct_side":2,"subjID":"JuanDiegoCastilloNaranjo35","gender":"0","age":"8","school":"4"},{"start_time":1552074694963,"click_time":1552074695773,"finger_time":1552074695674,"fix_duration":250,"trial":52,"RT":711,"MT":99,"sideResp":1,"stimulus":"img/500/equaldotanddens/L/8_Ratio_500_L_8_R_4.png","xmouse":[803,803,803,803,803,803,803,803,803,803,803,803,803,803,803,803,803,803,804,813,828,829,830,830,830,830,830,830,830,830,830,830,830,817,805,773,713,640,587,546,477],"ymouse":[542,542,542,542,542,542,542,542,542,542,542,542,542,542,542,542,542,541,539,528,514,510,509,508,508,508,508,508,508,508,508,508,507,500,493,468,400,319,251,188,43],"timestamp_mouse":[12,39,49,70,90,110,131,150,170,189,209,230,249,270,290,310,330,349,370,390,410,431,449,469,490,511,530,550,570,589,609,629,649,669,689,711,729,749,770,791,810],"xSR":741.5,"ySR":469.95,"xT1":424.9,"yT1":0,"xT2":1058.1,"yT2":0,"toosoon":0,"cond_shown":"equaldotanddens","ratio_trial":500,"smaller_num":"4","larger_num":"8","correct_side":1,"subjID":"JuanDiegoCastilloNaranjo35","gender":"0","age":"8","school":"4"},{"start_time":1552074699179,"click_time":1552074700992,"finger_time":1552074699792,"fix_duration":484.81485783347944,"trial":53,"RT":613,"MT":1200,"sideResp":1,"stimulus":"img/750/randomdotsizeEA/R/5_Ratio_750_L_15_R_20.png","xmouse":[807,807,807,807,807,807,807,807,807,807,807,807,807,807,807,807,807,807,807,807,807,807,807,807,807,807,807,807,809,815,856,901,971,1037,1056,1084,1095,1102,1106,1108,1109,1109,1109,1108,1107,1107,1107,1106,1106,1106,1106,1106,1103,1102,1099,1099,1099,1099,1099,1099,1099,1099,1099,1099,1099,1099,1099,1097,1062,1030,982,957,952,904,862,774,740,716,702,698,696,694,689,681,649,634,618,585,571,553,500],"ymouse":[558,558,558,558,558,558,558,558,558,558,558,558,558,558,558,558,558,558,558,558,558,558,558,558,558,558,558,558,556,552,526,490,432,364,335,254,225,212,202,191,187,180,169,163,158,155,154,154,154,154,154,154,148,141,132,131,131,131,131,131,131,131,131,131,131,131,131,131,133,138,142,142,142,137,128,106,96,89,85,84,84,84,84,84,84,84,84,84,84,84,80],"timestamp_mouse":[14,39,53,74,95,113,134,155,174,194,213,233,254,274,294,313,335,355,375,394,413,434,453,475,494,514,535,554,573,593,613,633,655,674,695,713,734,753,773,794,813,834,853,874,893,913,933,954,975,994,1015,1033,1055,1074,1093,1113,1134,1155,1173,1195,1213,1234,1253,1274,1293,1313,1334,1355,1374,1394,1413,1433,1454,1474,1495,1514,1534,1553,1574,1593,1613,1633,1653,1673,1694,1713,1734,1753,1774,1793,1813],"xSR":741.5,"ySR":469.95,"xT1":424.9,"yT1":0,"xT2":1058.1,"yT2":0,"toosoon":0,"cond_shown":"randomdotsizeEA","ratio_trial":750,"smaller_num":"15","larger_num":"20","correct_side":2,"subjID":"JuanDiegoCastilloNaranjo35","gender":"0","age":"8","school":"4"},{"start_time":1552074705213,"click_time":1552074706074,"finger_time":1552074705692,"fix_duration":638.2984555452159,"trial":54,"RT":479,"MT":382,"sideResp":2,"stimulus":"img/900/equaldotsize/R/11_Ratio_900_L_18_R_20.png","xmouse":[781,781,781,781,781,781,781,781,781,781,781,781,781,781,784,785,787,788,788,788,788,788,788,788,786,786,786,787,796,803,809,814,820,830,843,855,872,892,937,953,971,1001,1033,1078],"ymouse":[559,559,559,559,559,559,559,559,559,559,559,559,559,559,547,540,534,532,532,532,530,528,517,480,462,441,408,394,326,298,279,266,258,248,246,245,243,240,221,208,193,159,120,71],"timestamp_mouse":[1,20,40,61,80,100,120,140,159,179,199,219,239,259,279,299,319,341,360,379,399,420,439,460,479,505,519,539,561,579,599,620,640,660,679,700,719,739,760,779,799,820,840,860],"xSR":741.5,"ySR":469.95,"xT1":424.9,"yT1":0,"xT2":1058.1,"yT2":0,"toosoon":0,"cond_shown":"equaldotsize","ratio_trial":900,"smaller_num":"18","larger_num":"20","correct_side":2,"subjID":"JuanDiegoCastilloNaranjo35","gender":"0","age":"8","school":"4"},{"start_time":1552074712331,"click_time":1552074713193,"finger_time":1552074712853,"fix_duration":1237.5073094017675,"trial":55,"RT":522,"MT":340,"sideResp":2,"stimulus":"img/250/equaldotanddens/R/4_Ratio_250_L_3_R_12.png","xmouse":[802,802,802,802,802,802,802,802,802,802,802,802,802,802,802,802,802,802,802,802,802,802,802,808,812,813,816,821,833,840,844,849,857,870,878,890,902,922,952,964,979,1001,1057,1112],"ymouse":[508,508,508,508,508,508,508,507,507,507,507,507,507,507,507,507,507,507,507,507,507,507,506,492,482,475,463,449,416,400,385,374,358,337,326,312,297,277,234,209,178,145,86,12],"timestamp_mouse":[9,21,41,62,82,102,121,142,162,181,201,221,242,261,281,302,321,343,363,382,402,422,442,462,481,503,522,541,561,582,601,621,641,662,681,702,722,743,761,783,801,821,843,862],"xSR":741.5,"ySR":469.95,"xT1":424.9,"yT1":0,"xT2":1058.1,"yT2":0,"toosoon":0,"cond_shown":"equaldotanddens","ratio_trial":250,"smaller_num":"3","larger_num":"12","correct_side":2,"subjID":"JuanDiegoCastilloNaranjo35","gender":"0","age":"8","school":"4"},{"start_time":1552074716519,"click_time":1552074717373,"finger_time":1552074716993,"fix_duration":1104.8433106732327,"trial":56,"RT":474,"MT":380,"sideResp":2,"stimulus":"img/750/equaldotsize/R/7_Ratio_750_L_3_R_4.png","xmouse":[791,792,791,784,783,783,783,783,783,783,783,783,782,782,782,782,782,782,782,782,782,786,829,849,867,881,897,930,947,961,978,1007,1015,1021,1021,1021,1021,1025,1028,1035,1041,1048,1060],"ymouse":[530,530,535,548,549,549,549,549,549,549,549,550,551,551,551,551,551,551,551,551,548,545,515,500,487,473,458,434,419,397,370,328,306,277,264,253,243,213,196,174,152,126,84],"timestamp_mouse":[14,34,54,84,94,114,133,154,174,193,213,234,254,274,294,314,334,354,374,393,414,434,454,474,493,515,535,554,574,593,613,634,653,674,693,714,733,755,773,794,813,834,853],"xSR":741.5,"ySR":469.95,"xT1":424.9,"yT1":0,"xT2":1058.1,"yT2":0,"toosoon":0,"cond_shown":"equaldotsize","ratio_trial":750,"smaller_num":"3","larger_num":"4","correct_side":2,"subjID":"JuanDiegoCastilloNaranjo35","gender":"0","age":"8","school":"4"},{"start_time":1552074720692,"click_time":1552074722573,"finger_time":1552074721132,"fix_duration":1099.002350034812,"trial":57,"RT":440,"MT":1441,"sideResp":1,"stimulus":"img/750/randomdotsizeEA/L/14_Ratio_750_L_8_R_6.png","xmouse":[802,802,802,803,804,804,805,805,805,806,806,806,806,806,807,808,809,809,810,811,821,831,847,864,890,924,946,962,975,989,1005,1010,1014,1020,1026,1032,1035,1038,1041,1048,1051,1053,1055,1057,1057,1057,1057,1057,1057,1048,1011,994,971,953,933,915,895,880,872,843,830,818,804,796,767,767,763,754,742,723,709,692,685,681,644,631,607,586,562,553,532,509,492,487,478,477,477,477,477,477,477,477,477,477,451],"ymouse":[538,537,537,537,536,536,535,535,535,534,533,533,532,532,530,529,528,527,526,523,513,505,493,480,454,415,381,352,330,307,275,262,250,237,223,201,190,178,167,141,131,122,115,109,104,104,104,104,103,103,105,108,114,117,120,120,120,120,120,117,115,110,104,100,82,82,80,77,73,70,70,70,70,71,79,81,85,91,97,98,104,107,111,111,112,112,112,112,112,112,112,112,112,112,72],"timestamp_mouse":[4,36,40,61,81,101,121,142,160,180,202,221,240,260,280,301,320,341,361,380,401,421,440,460,480,500,520,541,560,580,600,622,641,662,680,700,720,741,761,781,800,820,840,861,880,901,920,941,961,981,1001,1022,1042,1061,1080,1100,1120,1140,1160,1181,1200,1220,1241,1260,1281,1301,1320,1340,1361,1381,1400,1421,1440,1461,1482,1500,1520,1540,1561,1581,1600,1620,1641,1661,1682,1700,1721,1741,1760,1781,1801,1820,1851,1861,1881],"xSR":741.5,"ySR":469.95,"xT1":424.9,"yT1":0,"xT2":1058.1,"yT2":0,"toosoon":0,"cond_shown":"randomdotsizeEA","ratio_trial":750,"smaller_num":"6","larger_num":"8","correct_side":1,"subjID":"JuanDiegoCastilloNaranjo35","gender":"0","age":"8","school":"4"},{"start_time":1552074729050,"click_time":1552074730375,"finger_time":1552074729634,"fix_duration":1315.0494218585018,"trial":58,"RT":584,"MT":741,"sideResp":2,"stimulus":"img/750/equaldotsize/L/13_Ratio_750_L_8_R_6.png","xmouse":[788,788,788,788,788,788,788,788,788,788,788,788,788,788,788,788,788,788,788,788,788,788,788,788,788,788,788,791,794,798,799,801,804,806,813,818,822,842,854,871,886,894,894,894,894,894,894,894,896,898,900,902,909,916,918,921,932,945,951,959,969,977,1002,1010,1033,1042,1062],"ymouse":[513,513,513,513,513,513,513,513,513,513,513,513,513,513,513,513,513,513,513,513,513,513,513,513,513,513,513,497,482,460,444,415,404,396,383,375,370,347,333,320,313,308,308,308,308,308,308,308,305,303,302,298,294,291,290,289,280,262,252,239,224,211,169,151,94,72,14],"timestamp_mouse":[8,36,42,62,83,104,123,143,163,182,203,224,244,263,282,302,323,342,362,382,402,422,442,463,484,504,524,544,562,584,603,623,642,662,682,702,723,742,762,783,802,823,842,863,883,902,923,942,963,982,1002,1024,1042,1064,1083,1102,1122,1143,1162,1182,1203,1222,1242,1262,1282,1303,1324],"xSR":741.5,"ySR":469.95,"xT1":424.9,"yT1":0,"xT2":1058.1,"yT2":0,"toosoon":0,"cond_shown":"equaldotsize","ratio_trial":750,"smaller_num":"6","larger_num":"8","correct_side":1,"subjID":"JuanDiegoCastilloNaranjo35","gender":"0","age":"8","school":"4"},{"start_time":1552074738232,"click_time":1552074739492,"finger_time":1552074738872,"fix_duration":817.5560270094894,"trial":59,"RT":640,"MT":620,"sideResp":1,"stimulus":"img/750/randomdotsizeEA/L/6_Ratio_750_L_24_R_18.png","xmouse":[781,781,781,781,781,781,781,781,781,781,781,781,781,781,784,787,790,797,799,800,800,800,800,800,800,800,800,800,800,800,806,813,825,865,888,909,909,908,906,897,897,886,867,822,813,813,794,694,659,626,611,602,599,599,597,592,580,567,559,559,557,555,536,519],"ymouse":[509,509,509,509,509,509,509,509,509,509,509,509,509,509,505,501,498,488,486,485,484,484,484,484,484,484,484,484,484,484,480,472,457,415,389,364,364,361,355,346,346,340,334,318,315,315,307,262,248,232,223,216,196,179,157,130,94,69,60,58,56,53,38,30],"timestamp_mouse":[8,20,40,60,81,100,121,142,160,181,202,220,241,261,281,300,321,341,360,380,400,422,440,461,481,501,520,541,561,580,602,621,640,660,681,700,720,742,760,780,801,820,842,861,882,901,922,941,960,980,1001,1020,1041,1060,1080,1100,1120,1140,1161,1180,1202,1220,1241,1260],"xSR":741.5,"ySR":469.95,"xT1":424.9,"yT1":0,"xT2":1058.1,"yT2":0,"toosoon":0,"cond_shown":"randomdotsizeEA","ratio_trial":750,"smaller_num":"18","larger_num":"24","correct_side":1,"subjID":"JuanDiegoCastilloNaranjo35","gender":"0","age":"8","school":"4"},{"start_time":1552074741947,"click_time":1552074745812,"finger_time":1552074742933,"fix_duration":1212.0063015474543,"trial":60,"RT":986,"MT":2879,"sideResp":2,"stimulus":"img/250/randomdotsizeEA/R/6_Ratio_250_L_6_R_24.png","xmouse":[753,753,753,753,753,753,753,753,753,753,753,753,753,753,753,753,753,753,753,753,753,753,753,753,753,753,753,753,753,753,753,753,753,753,753,753,753,753,753,753,753,753,753,753,753,753,753,753,776,820,930,1097,1138,1192,1233,1237,1275,1285,1291,1291,1291,1291,1279,1274,1269,1263,1245,1233,1233,1233,1233,1229,1209,1202,1198,1196,1194,1194,1194,1194,1194,1194,1194,1194,1194,1197,1209,1216,1217,1223,1232,1243,1250,1253,1253,1254,1254,1254,1254,1254,1254,1254,1254,1254,1254,1254,1254,1231,1226,1217,1215,1214,1211,1211,1211,1211,1211,1211,1211,1211,1211,1211,1211,1211,1211,1211,1215,1225,1229,1235,1243,1250,1252,1252,1252,1252,1252,1252,1252,1252,1252,1252,1252,1252,1252,1252,1252,1252,1252,1252,1252,1252,1252,1252,1252,1252,1252,1252,1252,1252,1252,1252,1252,1252,1253,1254,1255,1255,1255,1255,1255,1255,1256,1256,1256,1256,1256,1256,1256,1253,1245,1238,1237,1236,1234,1233,1231,1230,1225,1214,1199,1180,1165,1156],"ymouse":[508,508,508,508,508,508,508,508,508,508,508,508,508,508,508,508,508,508,508,508,508,508,508,508,508,508,508,508,508,508,508,508,508,508,508,508,508,508,508,508,508,508,508,508,508,508,508,508,497,466,366,173,131,80,40,38,14,5,0,0,0,0,3,5,7,7,5,5,5,5,5,5,38,53,66,79,87,87,87,87,87,87,87,87,87,84,59,49,46,40,29,16,6,3,3,0,0,0,0,0,0,0,0,0,0,0,0,3,7,20,24,29,64,75,82,83,83,83,83,83,83,83,83,83,83,83,79,68,63,55,46,37,36,36,36,36,36,36,36,36,36,36,36,36,36,36,36,36,36,36,36,36,36,36,36,36,36,36,36,36,36,36,36,36,32,31,26,24,24,24,23,23,20,19,19,19,19,19,19,19,19,19,19,19,19,19,19,19,19,19,19,25,28,31],"timestamp_mouse":[17,25,45,66,85,106,125,145,166,186,205,226,246,265,285,305,326,346,366,385,406,425,447,465,487,505,526,546,566,587,606,625,646,666,687,707,725,746,765,787,805,826,846,867,886,906,925,946,965,986,1006,1026,1045,1065,1085,1105,1126,1145,1165,1186,1205,1225,1245,1265,1286,1306,1326,1345,1366,1386,1405,1425,1446,1465,1485,1505,1526,1546,1566,1587,1606,1625,1645,1665,1685,1705,1725,1745,1765,1785,1805,1827,1846,1866,1886,1905,1926,1945,1965,1986,2005,2026,2045,2066,2085,2105,2126,2145,2166,2185,2205,2225,2245,2265,2286,2306,2326,2345,2366,2385,2405,2427,2445,2466,2485,2505,2527,2545,2566,2586,2605,2626,2646,2666,2686,2706,2725,2746,2767,2786,2806,2826,2846,2865,2885,2905,2926,2946,2965,2985,3005,3025,3047,3066,3087,3107,3126,3145,3165,3185,3205,3225,3246,3265,3286,3305,3327,3346,3365,3385,3407,3426,3447,3465,3486,3506,3526,3546,3565,3585,3605,3627,3645,3666,3686,3705,3726,3745,3766,3785,3806,3826,3845,3865],"xSR":741.5,"ySR":469.95,"xT1":424.9,"yT1":0,"xT2":1058.1,"yT2":0,"toosoon":0,"cond_shown":"randomdotsizeEA","ratio_trial":250,"smaller_num":"6","larger_num":"24","correct_side":2,"subjID":"JuanDiegoCastilloNaranjo35","gender":"0","age":"8","school":"4"},{"start_time":1552074750702,"click_time":1552074755393,"finger_time":1552074751393,"fix_duration":1245.0541675602467,"trial":61,"RT":691,"MT":4000,"sideResp":1,"stimulus":"img/500/equaldotanddens/L/4_Ratio_500_L_18_R_9.png","xmouse":[767,767,767,767,767,767,767,767,767,767,767,767,767,767,767,767,767,765,764,764,764,762,762,761,761,761,761,761,760,759,759,759,755,746,735,730,719,689,634,513,458,411,372,362,360,360,360,358,356,355,355,355,355,355,355,355,355,355,355,355,355,355,355,355,355,355,355,355,355,355,355,355,355,355,355,355,355,355,355,355,355,355,355,355,355,355,355,355,355,355,355,355,355,355,355,355,355,355,355,355,355,355,355,355,355,355,355,355,355,355,355,355,355,355,355,355,355,355,355,355,355,355,355,355,355,355,355,355,355,355,355,355,355,355,355,355,355,355,355,355,355,355,355,355,355,355,355,355,355,355,355,355,355,355,355,355,355,355,355,355,355,355,355,355,355,355,355,355,355,355,355,355,355,355,355,355,355,355,357,371,379,386,395,405,409,410,409,405,399,391,385,384,384,389,392,395,397,397,397,397,398,398,400,402,414,416,420,435,459,469,477,482,486,487,494,498,501,503,504,504,504,504,504,504,504,504,502,500,495,495,493,492,490,489,486],"ymouse":[510,510,510,510,510,510,510,510,510,510,510,510,510,510,510,510,510,510,509,509,509,508,507,507,507,507,507,507,506,505,505,505,504,501,498,497,493,488,478,455,437,416,395,385,380,378,376,372,366,355,351,348,348,348,348,348,348,348,348,348,348,348,348,348,348,348,348,348,348,348,348,348,348,348,348,348,348,348,348,348,348,348,348,348,348,348,348,348,348,348,348,348,348,348,348,348,348,348,348,348,348,348,348,348,348,348,348,348,348,348,348,348,348,348,348,348,348,348,348,348,348,348,348,348,348,348,348,348,348,348,348,348,348,348,348,348,348,348,348,348,348,348,348,348,348,348,348,348,348,348,348,348,348,348,348,348,348,348,348,348,348,348,348,348,348,348,348,348,348,348,348,348,348,348,348,348,348,348,347,347,344,337,329,312,300,289,284,280,277,274,272,271,271,266,264,259,256,255,254,254,253,253,251,246,237,234,230,219,202,193,187,182,178,176,170,167,164,162,159,158,158,158,158,158,158,154,151,145,133,131,125,120,111,106,97],"timestamp_mouse":[12,33,50,71,91,110,130,151,170,191,209,231,250,271,291,311,331,350,370,391,410,430,450,471,490,509,530,551,570,591,610,630,649,670,691,711,730,750,771,789,811,829,851,870,891,910,930,950,971,989,1010,1031,1050,1070,1091,1109,1131,1151,1171,1190,1210,1230,1249,1270,1291,1310,1330,1351,1370,1391,1410,1431,1451,1470,1490,1509,1531,1550,1570,1591,1610,1630,1650,1669,1691,1710,1731,1751,1770,1789,1810,1830,1850,1870,1890,1910,1931,1951,1970,1990,2009,2030,2051,2071,2091,2110,2131,2150,2170,2190,2210,2230,2250,2271,2291,2311,2330,2350,2371,2391,2411,2431,2450,2470,2491,2509,2530,2550,2571,2590,2610,2630,2650,2671,2689,2710,2730,2750,2771,2790,2810,2830,2851,2871,2891,2911,2930,2950,2970,2989,3010,3029,3050,3071,3091,3111,3130,3151,3171,3190,3210,3230,3251,3271,3290,3309,3330,3351,3371,3391,3411,3431,3451,3471,3489,3511,3530,3550,3570,3590,3609,3630,3649,3671,3690,3710,3730,3750,3770,3790,3810,3831,3851,3871,3890,3910,3930,3951,3971,3990,4009,4030,4050,4070,4090,4110,4130,4150,4170,4190,4210,4230,4250,4270,4291,4310,4330,4351,4371,4390,4410,4431,4450,4469,4491,4510,4530,4549,4571,4590,4610,4631,4651,4671,4691],"xSR":741.5,"ySR":469.95,"xT1":424.9,"yT1":0,"xT2":1058.1,"yT2":0,"toosoon":0,"cond_shown":"equaldotanddens","ratio_trial":500,"smaller_num":"9","larger_num":"18","correct_side":1,"subjID":"JuanDiegoCastilloNaranjo35","gender":"0","age":"8","school":"4"},{"start_time":1552074763841,"click_time":1552074764592,"finger_time":1552074764231,"fix_duration":527.3518417785725,"trial":62,"RT":390,"MT":361,"sideResp":2,"stimulus":"img/750/equaldotanddens/R/7_Ratio_750_L_3_R_4.png","xmouse":[814,815,815,815,815,815,815,815,815,815,815,815,816,817,818,819,822,826,831,842,864,915,930,946,958,969,1006,1017,1026,1034,1040,1051,1058,1067,1073,1079,1083,1090],"ymouse":[523,523,523,523,523,523,523,522,522,522,522,522,519,517,513,512,508,501,493,479,460,417,400,382,364,346,306,294,284,275,263,236,219,198,176,149,112,61],"timestamp_mouse":[11,31,51,71,91,110,131,151,170,190,212,232,250,271,291,311,331,352,371,390,411,432,451,471,492,511,531,551,570,592,611,632,650,671,691,710,730,751],"xSR":741.5,"ySR":469.95,"xT1":424.9,"yT1":0,"xT2":1058.1,"yT2":0,"toosoon":0,"cond_shown":"equaldotanddens","ratio_trial":750,"smaller_num":"3","larger_num":"4","correct_side":2,"subjID":"JuanDiegoCastilloNaranjo35","gender":"0","age":"8","school":"4"},{"start_time":1552074768819,"click_time":1552074769633,"finger_time":1552074769172,"fix_duration":744.9151071171758,"trial":63,"RT":353,"MT":461,"sideResp":2,"stimulus":"img/750/randomdotsizeEA/L/9_Ratio_750_L_4_R_3.png","xmouse":[787,788,789,791,792,793,794,794,794,796,797,799,806,809,812,818,820,837,847,858,862,869,881,884,889,894,898,919,930,950,974,1009,1041,1050,1065,1082,1096,1125,1129,1132,1135],"ymouse":[530,531,532,533,533,534,534,534,534,534,534,529,514,506,502,498,496,469,455,437,426,409,361,328,301,263,252,211,198,187,177,164,148,141,134,126,120,108,105,101,98],"timestamp_mouse":[13,34,53,73,93,113,132,154,174,193,214,233,253,272,294,313,334,353,372,394,414,433,454,473,494,513,532,554,573,593,613,633,653,673,693,713,733,754,772,792,814],"xSR":741.5,"ySR":469.95,"xT1":424.9,"yT1":0,"xT2":1058.1,"yT2":0,"toosoon":0,"cond_shown":"randomdotsizeEA","ratio_trial":750,"smaller_num":"3","larger_num":"4","correct_side":1,"subjID":"JuanDiegoCastilloNaranjo35","gender":"0","age":"8","school":"4"},{"start_time":1552074770926,"click_time":1552074771452,"finger_time":1552074771332,"fix_duration":571.4453544770317,"trial":64,"RT":406,"MT":120,"sideResp":2,"stimulus":"img/250/randomdotsizeEA/R/12_Ratio_250_L_5_R_20.png","xmouse":[750,750,750,750,750,750,750,750,750,750,750,750,750,750,750,750,752,763,777,789,809,818,876,971,1010,1038,1065],"ymouse":[513,513,513,513,513,513,513,513,513,513,513,513,513,513,513,513,512,502,489,473,447,437,384,274,212,147,87],"timestamp_mouse":[10,33,46,67,87,106,126,145,166,187,206,227,245,267,287,307,326,346,365,386,406,426,446,467,485,506,526],"xSR":741.5,"ySR":469.95,"xT1":424.9,"yT1":0,"xT2":1058.1,"yT2":0,"toosoon":0,"cond_shown":"randomdotsizeEA","ratio_trial":250,"smaller_num":"5","larger_num":"20","correct_side":2,"subjID":"JuanDiegoCastilloNaranjo35","gender":"0","age":"8","school":"4"},{"start_time":1552074773012,"click_time":1552074773473,"finger_time":1552074773292,"fix_duration":499.06008751883127,"trial":65,"RT":280,"MT":181,"sideResp":2,"stimulus":"img/500/randomdotsizeEA/R/2_Ratio_500_L_3_R_6.png","xmouse":[776,776,776,776,776,776,776,776,776,776,776,776,784,789,869,909,945,959,962,1003,1040,1070,1102,1153],"ymouse":[518,518,518,518,518,518,518,518,518,518,518,518,516,511,468,442,418,403,393,318,254,199,148,64],"timestamp_mouse":[5,22,39,61,81,101,121,141,160,181,200,221,239,260,280,299,320,341,360,381,400,420,440,461],"xSR":741.5,"ySR":469.95,"xT1":424.9,"yT1":0,"xT2":1058.1,"yT2":0,"toosoon":0,"cond_shown":"randomdotsizeEA","ratio_trial":500,"smaller_num":"3","larger_num":"6","correct_side":2,"subjID":"JuanDiegoCastilloNaranjo35","gender":"0","age":"8","school":"4"},{"start_time":1552074775500,"click_time":1552074777032,"finger_time":1552074775892,"fix_duration":1346.0286527908786,"trial":66,"RT":392,"MT":1140,"sideResp":2,"stimulus":"img/750/equaldotanddens/R/4_Ratio_750_L_15_R_20.png","xmouse":[773,773,773,773,773,773,773,773,773,773,773,773,773,773,773,773,773,774,777,777,772,748,707,688,625,586,565,565,565,565,565,565,565,565,565,565,565,162,203,252,304,346,359,399,417,447,489,538,608,757,816,891,1004,1046,1084,1097,1116,1146,1187,1261,1273,1273,1273,1273,1272,1268,1258,1241,1221,1203,1199,1195,1192,1192,1190,1178,1158],"ymouse":[517,517,517,517,517,517,517,517,517,517,517,517,517,517,517,517,517,515,489,427,381,322,241,207,109,57,29,29,29,29,29,29,29,29,29,29,29,9,58,104,142,166,170,174,174,176,185,209,253,355,398,445,503,526,536,536,530,511,471,348,282,233,187,158,151,141,128,106,80,42,27,17,10,10,9,18,35],"timestamp_mouse":[12,37,51,73,92,112,133,151,172,193,212,231,253,273,293,312,332,351,373,392,412,432,453,472,493,511,532,551,572,593,611,632,652,672,692,713,732,752,773,792,811,831,851,873,891,912,933,952,972,993,1012,1033,1052,1073,1092,1112,1133,1152,1173,1192,1213,1232,1253,1274,1292,1311,1333,1352,1373,1392,1412,1433,1452,1472,1493,1512,1532],"xSR":741.5,"ySR":469.95,"xT1":424.9,"yT1":0,"xT2":1058.1,"yT2":0,"toosoon":0,"cond_shown":"equaldotanddens","ratio_trial":750,"smaller_num":"15","larger_num":"20","correct_side":2,"subjID":"JuanDiegoCastilloNaranjo35","gender":"0","age":"8","school":"4"},{"start_time":1552074778973,"click_time":1552074779474,"finger_time":1552074779352,"fix_duration":837.594731528752,"trial":67,"RT":379,"MT":122,"sideResp":1,"stimulus":"img/250/equaldotsize/L/3_Ratio_250_L_8_R_2.png","xmouse":[799,799,799,799,799,799,799,799,799,799,799,799,799,799,799,799,799,798,792,789,781,736,700,658,600,433],"ymouse":[509,509,509,509,509,509,509,509,509,509,509,509,509,509,509,509,509,499,479,468,442,365,315,267,200,74],"timestamp_mouse":[1,20,38,60,80,99,118,140,160,180,199,220,240,259,279,300,320,340,359,379,399,418,438,459,479,501],"xSR":741.5,"ySR":469.95,"xT1":424.9,"yT1":0,"xT2":1058.1,"yT2":0,"toosoon":0,"cond_shown":"equaldotsize","ratio_trial":250,"smaller_num":"2","larger_num":"8","correct_side":1,"subjID":"JuanDiegoCastilloNaranjo35","gender":"0","age":"8","school":"4"},{"start_time":1552074781203,"click_time":1552074782073,"finger_time":1552074781972,"fix_duration":549.4698667101281,"trial":68,"RT":769,"MT":101,"sideResp":2,"stimulus":"img/900/equaldotanddens/R/5_Ratio_900_L_9_R_10.png","xmouse":[802,802,802,802,802,802,802,802,802,802,802,802,802,802,803,807,810,811,811,812,813,813,813,813,813,813,812,811,808,808,808,808,808,808,808,811,818,835,884,982,1009,1038,1069,1125],"ymouse":[539,539,539,539,539,539,539,539,539,539,539,539,539,539,537,536,536,536,536,536,535,535,534,533,533,532,528,527,523,523,523,523,523,523,523,522,520,512,477,363,301,231,156,25],"timestamp_mouse":[13,33,49,69,89,109,129,150,169,189,209,229,250,269,289,309,330,348,370,390,410,428,449,469,488,509,529,549,569,589,610,629,649,669,690,710,730,748,769,790,810,830,849,869],"xSR":741.5,"ySR":469.95,"xT1":424.9,"yT1":0,"xT2":1058.1,"yT2":0,"toosoon":0,"cond_shown":"equaldotanddens","ratio_trial":900,"smaller_num":"9","larger_num":"10","correct_side":2,"subjID":"JuanDiegoCastilloNaranjo35","gender":"0","age":"8","school":"4"},{"start_time":1552074783486,"click_time":1552074784933,"finger_time":1552074783992,"fix_duration":492.53967909319016,"trial":69,"RT":506,"MT":941,"sideResp":1,"stimulus":"img/500/equaldotanddens/L/8_Ratio_500_L_8_R_4.png