[{"start_time":1552073550396,"click_time":1552073552702,"finger_time":1552073552220,"fix_duration":651.6052302267162,"trial":0,"RT":1824,"MT":482,"sideResp":2,"stimulus":[],"xmouse":[785,785,785,785,785,785,785,785,785,785,785,785,785,785,785,785,783,781,778,776,775,775,775,775,775,775,775,775,775,775,775,775,775,775,775,775,775,775,775,775,775,774,773,773,772,772,772,772,772,772,771,771,771,771,771,771,771,771,771,771,771,771,771,771,769,767,766,763,761,761,761,761,761,761,761,761,761,761,761,761,761,761,761,761,761,761,763,764,765,767,771,778,795,812,827,846,866,900,908,917,929,935,946,950,953,955,956,962,970,986,993,1003,1015,1046,1058,1067],"ymouse":[544,544,544,544,544,544,544,544,544,544,544,544,544,544,544,544,544,544,544,544,544,544,544,544,544,544,544,544,544,544,544,544,544,544,544,544,544,544,544,544,544,544,544,544,545,545,545,545,545,545,546,546,546,546,546,546,546,546,546,546,546,546,546,546,546,546,546,543,541,541,541,541,541,541,541,541,541,541,541,541,541,541,541,539,532,522,512,499,493,489,477,465,434,415,395,368,340,273,243,216,187,175,159,153,150,147,146,145,144,142,140,134,124,85,63,44],"timestamp_mouse":[8,34,45,65,85,104,126,144,164,186,206,224,245,266,286,305,325,345,365,385,405,425,444,466,486,505,525,545,566,585,606,624,644,664,685,706,725,746,766,786,805,825,844,865,886,905,926,945,965,985,1006,1026,1045,1065,1085,1106,1125,1144,1165,1185,1206,1224,1244,1266,1285,1305,1325,1344,1365,1384,1406,1425,1445,1465,1484,1506,1526,1545,1565,1585,1605,1626,1645,1665,1685,1704,1724,1745,1766,1784,1805,1824,1845,1864,1884,1905,1925,1944,1965,1986,2005,2025,2044,2065,2085,2104,2126,2146,2165,2185,2206,2225,2245,2265,2285,2305],"xSR":741.5,"ySR":501.8,"xT1":424.9,"yT1":0,"xT2":1058.1,"yT2":0,"toosoon":0,"cond_shown":"Incongruent","ratio_trial":200,"L_num":9,"L_den":15,"R_num":8,"R_den":10,"correct_side":2,"subjID":"Juan Diego Castillo Naranjo 35","gender":"0","age":"8","school":"4","test":{"fix_dur":[250,1500],"timestim":1000,"targets_dim":[100,100],"targets_relative_coord":[0.3,0.7],"size_stim":[880,420],"start_dim":[100,100],"size_start":[300,300],"size_fix":60,"samplingrate":20,"img_types":["Congruent","Incongruent"],"ratios":[100,200,300],"rep_conds":19,"nTrials":120,"trials_to_rest":500,"Trials_order":[75,25,95,105,50,65,114,5,2,55,110,81,4,76,46,97,112,79,62,91,93,53,12,88,54,92,56,35,33,38,82,13,80,69,90,70,48,36,24,66,51,45,86,9,72,103,10,43,21,32,31,17,111,67,113,37,1,59,16,98,108,44,20,101,28,117,96,119,71,47,85,3,116,41,106,73,77,42,57,107,102,19,52,29,18,68,23,118,30,104,22,40,100,84,74,6,94,61,14,60,63,11,99,109,115,39,27,0,58,78,7,8,83,87,34,89,15,49,26,64],"cond_shown":["Incongruent","Incongruent","Incongruent","Incongruent","Congruent","Incongruent","Congruent","Incongruent","Congruent","Incongruent","Congruent","Incongruent","Congruent","Congruent","Congruent","Incongruent","Congruent","Incongruent","Congruent","Incongruent","Incongruent","Incongruent","Congruent","Congruent","Congruent","Congruent","Congruent","Incongruent","Incongruent","Congruent","Congruent","Incongruent","Congruent","Incongruent","Congruent","Congruent","Congruent","Congruent","Congruent","Congruent","Incongruent","Incongruent","Congruent","Incongruent","Congruent","Incongruent","Congruent","Incongruent","Incongruent","Congruent","Incongruent","Incongruent","Incongruent","Incongruent","Incongruent","Incongruent","Incongruent","Incongruent","Congruent","Congruent","Congruent","Congruent","Congruent","Incongruent","Congruent","Incongruent","Congruent","Incongruent","Incongruent","Incongruent","Incongruent","Incongruent","Congruent","Incongruent","Congruent","Incongruent","Incongruent","Congruent","Incongruent","Incongruent","Congruent","Incongruent","Congruent","Incongruent","Congruent","Congruent","Incongruent","Congruent","Congruent","Congruent","Congruent","Congruent","Congruent","Congruent","Congruent","Congruent","Congruent","Incongruent","Congruent","Congruent","Incongruent","Incongruent","Incongruent","Incongruent","Incongruent","Incongruent","Incongruent","Congruent","Congruent","Congruent","Incongruent","Congruent","Incongruent","Incongruent","Congruent","Incongruent","Incongruent","Incongruent","Congruent","Congruent"],"ratio_trial":[200,100,300,200,200,300,100,300,200,100,200,200,300,300,300,100,300,100,200,100,200,300,100,300,100,200,200,300,200,200,300,100,200,200,100,300,100,100,100,100,200,200,200,200,100,100,300,100,200,200,100,300,200,100,300,100,100,300,300,200,100,200,200,300,300,200,100,300,300,300,100,200,200,300,300,100,300,100,200,300,100,100,300,300,100,200,300,300,100,200,300,300,300,100,200,100,300,100,200,100,200,300,200,100,100,200,200,100,300,100,100,200,300,200,300,300,200,100,200,300],"left_num":[9,12,13,9,12,13,2,13,9,12,3,7,1,8,1,8,5,12,6,12,1,2,3,1,7,4,6,4,3,7,7,10,7,7,15,1,2,10,2,10,4,4,9,11,4,13,20,1,7,7,8,8,14,13,4,3,2,7,2,16,9,6,6,13,20,7,11,13,4,4,3,1,16,13,1,13,13,1,3,7,8,4,1,4,3,20,13,8,10,15,4,12,7,11,3,3,1,10,12,2,4,13,7,8,17,7,3,3,4,3,17,3,4,7,18,13,9,12,13,11],"right_num":[8,2,12,8,6,12,6,12,4,9,9,4,7,1,6,6,7,2,7,2,2,6,4,19,15,3,7,2,11,18,20,9,18,4,13,7,6,3,6,3,14,14,13,3,6,12,13,8,14,18,1,9,12,6,2,7,8,8,10,12,8,11,11,12,13,8,6,12,2,2,11,3,12,12,3,12,12,3,1,8,2,8,11,2,2,9,12,1,3,4,1,2,20,6,14,4,3,9,6,6,14,12,4,6,10,14,1,2,2,2,10,11,6,12,9,12,8,2,14,2],"left_den":[15,30,26,15,15,26,5,26,20,24,12,15,20,16,5,16,25,30,12,30,3,4,20,3,14,10,12,20,4,15,14,25,15,15,25,20,5,25,5,25,6,6,30,20,8,26,25,2,10,15,20,10,30,26,20,9,4,10,20,20,15,20,20,26,25,10,22,26,20,20,5,2,20,26,5,26,26,2,10,10,16,8,5,20,6,25,26,16,25,25,10,24,14,22,6,20,5,25,15,5,6,26,15,16,30,10,10,6,5,6,30,10,5,10,20,26,15,30,26,22],"right_den":[10,4,15,10,10,15,12,15,16,15,20,6,20,5,12,10,14,4,10,4,15,30,16,30,25,15,10,4,20,27,25,18,27,6,26,20,12,10,12,10,30,30,26,4,10,20,26,20,28,27,2,18,18,10,4,30,20,20,25,20,16,22,22,15,26,16,15,15,4,4,22,10,20,15,6,20,15,5,2,20,5,20,22,4,5,15,15,5,10,10,10,10,25,15,20,16,6,18,10,12,30,15,6,10,15,28,2,5,4,5,15,22,12,24,15,15,10,4,20,10],"correct_side":[2,2,2,2,1,2,2,2,1,2,2,2,2,1,2,2,2,2,2,2,1,1,2,2,2,1,2,2,1,2,2,2,2,2,1,2,2,1,2,1,1,1,2,2,2,2,1,1,1,2,2,1,2,2,2,1,1,1,2,1,1,2,2,2,1,1,1,2,2,2,1,1,1,2,2,2,2,2,2,1,1,1,2,2,1,1,2,1,1,1,1,1,2,1,2,2,2,2,1,2,1,2,2,2,2,1,2,1,1,1,2,2,1,1,1,2,2,2,2,1],"img_shown":["img2/200/Incongruent/R/I_Dist_200_LN_9_LD_15_RN_8_RD_10_1.png","img2/100/Incongruent/R/I_Dist_100_LN_12_LD_30_RN_2_RD_4_1.png","img2/300/Incongruent/R/I_Dist_300_LN_13_LD_26_RN_12_RD_15_1.png","img2/200/Incongruent/R/I_Dist_200_LN_9_LD_15_RN_8_RD_10_1.png","img2/200/Congruent/L/C_Dist_200_LN_12_LD_15_RN_6_RD_10_0.png","img2/300/Incongruent/R/I_Dist_300_LN_13_LD_26_RN_12_RD_15_1.png","img2/100/Congruent/R/C_Dist_100_LN_2_LD_5_RN_6_RD_12_1.png","img2/300/Incongruent/R/I_Dist_300_LN_13_LD_26_RN_12_RD_15_1.png","img2/200/Congruent/L/C_Dist_200_LN_9_LD_20_RN_4_RD_16_0.png","img2/100/Incongruent/R/I_Dist_100_LN_12_LD_24_RN_9_RD_15_1.png","img2/200/Congruent/R/C_Dist_200_LN_3_LD_12_RN_9_RD_20_1.png","img2/200/Incongruent/R/I_Dist_200_LN_7_LD_15_RN_4_RD_6_1.png","img2/300/Congruent/R/C_Dist_300_LN_1_LD_20_RN_7_RD_20_1.png","img2/300/Congruent/L/C_Dist_300_LN_8_LD_16_RN_1_RD_5_0.png","img2/300/Congruent/R/C_Dist_300_LN_1_LD_5_RN_6_RD_12_1.png","img2/100/Incongruent/R/I_Dist_100_LN_8_LD_16_RN_6_RD_10_1.png","img2/300/Congruent/R/C_Dist_300_LN_5_LD_25_RN_7_RD_14_1.png","img2/100/Incongruent/R/I_Dist_100_LN_12_LD_30_RN_2_RD_4_1.png","img2/200/Congruent/R/C_Dist_200_LN_6_LD_12_RN_7_RD_10_1.png","img2/100/Incongruent/R/I_Dist_100_LN_12_LD_30_RN_2_RD_4_1.png","img2/200/Incongruent/L/I_Dist_200_LN_1_LD_3_RN_2_RD_15_0.png","img2/300/Incongruent/L/I_Dist_300_LN_2_LD_4_RN_6_RD_30_0.png","img2/100/Congruent/R/C_Dist_100_LN_3_LD_20_RN_4_RD_16_1.png","img2/300/Congruent/R/C_Dist_300_LN_1_LD_3_RN_19_RD_30_1.png","img2/100/Congruent/R/C_Dist_100_LN_7_LD_14_RN_15_RD_25_1.png","img2/200/Congruent/L/C_Dist_200_LN_4_LD_10_RN_3_RD_15_0.png","img2/200/Congruent/R/C_Dist_200_LN_6_LD_12_RN_7_RD_10_1.png","img2/300/Incongruent/R/I_Dist_300_LN_4_LD_20_RN_2_RD_4_1.png","img2/200/Incongruent/L/I_Dist_200_LN_3_LD_4_RN_11_RD_20_0.png","img2/200/Congruent/R/C_Dist_200_LN_7_LD_15_RN_18_RD_27_1.png","img2/300/Congruent/R/C_Dist_300_LN_7_LD_14_RN_20_RD_25_1.png","img2/100/Incongruent/R/I_Dist_100_LN_10_LD_25_RN_9_RD_18_1.png","img2/200/Congruent/R/C_Dist_200_LN_7_LD_15_RN_18_RD_27_1.png","img2/200/Incongruent/R/I_Dist_200_LN_7_LD_15_RN_4_RD_6_1.png","img2/100/Congruent/L/C_Dist_100_LN_15_LD_25_RN_13_RD_26_0.png","img2/300/Congruent/R/C_Dist_300_LN_1_LD_20_RN_7_RD_20_1.png","img2/100/Congruent/R/C_Dist_100_LN_2_LD_5_RN_6_RD_12_1.png","img2/100/Congruent/L/C_Dist_100_LN_10_LD_25_RN_3_RD_10_0.png","img2/100/Congruent/R/C_Dist_100_LN_2_LD_5_RN_6_RD_12_1.png","img2/100/Congruent/L/C_Dist_100_LN_10_LD_25_RN_3_RD_10_0.png","img2/200/Incongruent/L/I_Dist_200_LN_4_LD_6_RN_14_RD_30_0.png","img2/200/Incongruent/L/I_Dist_200_LN_4_LD_6_RN_14_RD_30_0.png","img2/200/Congruent/R/C_Dist_200_LN_9_LD_30_RN_13_RD_26_1.png","img2/200/Incongruent/R/I_Dist_200_LN_11_LD_20_RN_3_RD_4_1.png","img2/100/Congruent/R/C_Dist_100_LN_4_LD_8_RN_6_RD_10_1.png","img2/100/Incongruent/R/I_Dist_100_LN_13_LD_26_RN_12_RD_20_1.png","img2/300/Congruent/L/C_Dist_300_LN_20_LD_25_RN_13_RD_26_0.png","img2/100/Incongruent/L/I_Dist_100_LN_1_LD_2_RN_8_RD_20_0.png","img2/200/Incongruent/L/I_Dist_200_LN_7_LD_10_RN_14_RD_28_0.png","img2/200/Congruent/R/C_Dist_200_LN_7_LD_15_RN_18_RD_27_1.png","img2/100/Incongruent/R/I_Dist_100_LN_8_LD_20_RN_1_RD_2_1.png","img2/300/Incongruent/L/I_Dist_300_LN_8_LD_10_RN_9_RD_18_0.png","img2/200/Incongruent/R/I_Dist_200_LN_14_LD_30_RN_12_RD_18_1.png","img2/100/Incongruent/R/I_Dist_100_LN_13_LD_26_RN_6_RD_10_1.png","img2/300/Incongruent/R/I_Dist_300_LN_4_LD_20_RN_2_RD_4_1.png","img2/100/Incongruent/L/I_Dist_100_LN_3_LD_9_RN_7_RD_30_0.png","img2/100/Incongruent/L/I_Dist_100_LN_2_LD_4_RN_8_RD_20_0.png","img2/300/Incongruent/L/I_Dist_300_LN_7_LD_10_RN_8_RD_20_0.png","img2/300/Congruent/R/C_Dist_300_LN_2_LD_20_RN_10_RD_25_1.png","img2/200/Congruent/L/C_Dist_200_LN_16_LD_20_RN_12_RD_20_0.png","img2/100/Congruent/L/C_Dist_100_LN_9_LD_15_RN_8_RD_16_0.png","img2/200/Congruent/R/C_Dist_200_LN_6_LD_20_RN_11_RD_22_1.png","img2/200/Congruent/R/C_Dist_200_LN_6_LD_20_RN_11_RD_22_1.png","img2/300/Incongruent/R/I_Dist_300_LN_13_LD_26_RN_12_RD_15_1.png","img2/300/Congruent/L/C_Dist_300_LN_20_LD_25_RN_13_RD_26_0.png","img2/200/Incongruent/L/I_Dist_200_LN_7_LD_10_RN_8_RD_16_0.png","img2/100/Congruent/L/C_Dist_100_LN_11_LD_22_RN_6_RD_15_0.png","img2/300/Incongruent/R/I_Dist_300_LN_13_LD_26_RN_12_RD_15_1.png","img2/300/Incongruent/R/I_Dist_300_LN_4_LD_20_RN_2_RD_4_1.png","img2/300/Incongruent/R/I_Dist_300_LN_4_LD_20_RN_2_RD_4_1.png","img2/100/Incongruent/L/I_Dist_100_LN_3_LD_5_RN_11_RD_22_0.png","img2/200/Incongruent/L/I_Dist_200_LN_1_LD_2_RN_3_RD_10_0.png","img2/200/Congruent/L/C_Dist_200_LN_16_LD_20_RN_12_RD_20_0.png","img2/300/Incongruent/R/I_Dist_300_LN_13_LD_26_RN_12_RD_15_1.png","img2/300/Congruent/R/C_Dist_300_LN_1_LD_5_RN_3_RD_6_1.png","img2/100/Incongruent/R/I_Dist_100_LN_13_LD_26_RN_12_RD_20_1.png","img2/300/Incongruent/R/I_Dist_300_LN_13_LD_26_RN_12_RD_15_1.png","img2/100/Congruent/R/C_Dist_100_LN_1_LD_2_RN_3_RD_5_1.png","img2/200/Incongruent/R/I_Dist_200_LN_3_LD_10_RN_1_RD_2_1.png","img2/300/Incongruent/L/I_Dist_300_LN_7_LD_10_RN_8_RD_20_0.png","img2/100/Congruent/L/C_Dist_100_LN_8_LD_16_RN_2_RD_5_0.png","img2/100/Incongruent/L/I_Dist_100_LN_4_LD_8_RN_8_RD_20_0.png","img2/300/Congruent/R/C_Dist_300_LN_1_LD_5_RN_11_RD_22_1.png","img2/300/Incongruent/R/I_Dist_300_LN_4_LD_20_RN_2_RD_4_1.png","img2/100/Congruent/L/C_Dist_100_LN_3_LD_6_RN_2_RD_5_0.png","img2/200/Congruent/L/C_Dist_200_LN_20_LD_25_RN_9_RD_15_0.png","img2/300/Incongruent/R/I_Dist_300_LN_13_LD_26_RN_12_RD_15_1.png","img2/300/Congruent/L/C_Dist_300_LN_8_LD_16_RN_1_RD_5_0.png","img2/100/Congruent/L/C_Dist_100_LN_10_LD_25_RN_3_RD_10_0.png","img2/200/Congruent/L/C_Dist_200_LN_15_LD_25_RN_4_RD_10_0.png","img2/300/Congruent/L/C_Dist_300_LN_4_LD_10_RN_1_RD_10_0.png","img2/300/Congruent/L/C_Dist_300_LN_12_LD_24_RN_2_RD_10_0.png","img2/300/Congruent/R/C_Dist_300_LN_7_LD_14_RN_20_RD_25_1.png","img2/100/Congruent/L/C_Dist_100_LN_11_LD_22_RN_6_RD_15_0.png","img2/200/Congruent/R/C_Dist_200_LN_3_LD_6_RN_14_RD_20_1.png","img2/100/Congruent/R/C_Dist_100_LN_3_LD_20_RN_4_RD_16_1.png","img2/300/Congruent/R/C_Dist_300_LN_1_LD_5_RN_3_RD_6_1.png","img2/100/Incongruent/R/I_Dist_100_LN_10_LD_25_RN_9_RD_18_1.png","img2/200/Congruent/L/C_Dist_200_LN_12_LD_15_RN_6_RD_10_0.png","img2/100/Congruent/R/C_Dist_100_LN_2_LD_5_RN_6_RD_12_1.png","img2/200/Incongruent/L/I_Dist_200_LN_4_LD_6_RN_14_RD_30_0.png","img2/300/Incongruent/R/I_Dist_300_LN_13_LD_26_RN_12_RD_15_1.png","img2/200/Incongruent/R/I_Dist_200_LN_7_LD_15_RN_4_RD_6_1.png","img2/100/Incongruent/R/I_Dist_100_LN_8_LD_16_RN_6_RD_10_1.png","img2/100/Incongruent/R/I_Dist_100_LN_17_LD_30_RN_10_RD_15_1.png","img2/200/Incongruent/L/I_Dist_200_LN_7_LD_10_RN_14_RD_28_0.png","img2/200/Incongruent/R/I_Dist_200_LN_3_LD_10_RN_1_RD_2_1.png","img2/100/Congruent/L/C_Dist_100_LN_3_LD_6_RN_2_RD_5_0.png","img2/300/Congruent/L/C_Dist_300_LN_4_LD_5_RN_2_RD_4_0.png","img2/100/Congruent/L/C_Dist_100_LN_3_LD_6_RN_2_RD_5_0.png","img2/100/Incongruent/R/I_Dist_100_LN_17_LD_30_RN_10_RD_15_1.png","img2/200/Congruent/R/C_Dist_200_LN_3_LD_10_RN_11_RD_22_1.png","img2/300/Incongruent/L/I_Dist_300_LN_4_LD_5_RN_6_RD_12_0.png","img2/200/Incongruent/L/I_Dist_200_LN_7_LD_10_RN_12_RD_24_0.png","img2/300/Congruent/L/C_Dist_300_LN_18_LD_20_RN_9_RD_15_0.png","img2/300/Incongruent/R/I_Dist_300_LN_13_LD_26_RN_12_RD_15_1.png","img2/200/Incongruent/R/I_Dist_200_LN_9_LD_15_RN_8_RD_10_1.png","img2/100/Incongruent/R/I_Dist_100_LN_12_LD_30_RN_2_RD_4_1.png","img2/200/Congruent/R/C_Dist_200_LN_13_LD_26_RN_14_RD_20_1.png","img2/300/Congruent/L/C_Dist_300_LN_11_LD_22_RN_2_RD_10_0.png"],"dist100_C":[["C_Dist_100_LN_10_LD_25_RN_3_RD_10_0.png","C_Dist_100_LN_11_LD_22_RN_4_RD_10_0.png","C_Dist_100_LN_11_LD_22_RN_6_RD_15_0.png","C_Dist_100_LN_15_LD_25_RN_13_RD_26_0.png","C_Dist_100_LN_3_LD_6_RN_2_RD_5_0.png","C_Dist_100_LN_6_LD_20_RN_5_RD_25_0.png","C_Dist_100_LN_8_LD_16_RN_2_RD_5_0.png","C_Dist_100_LN_9_LD_15_RN_8_RD_16_0.png"],["C_Dist_100_LN_1_LD_2_RN_18_RD_30_1.png","C_Dist_100_LN_1_LD_2_RN_3_RD_5_1.png","C_Dist_100_LN_12_LD_30_RN_13_RD_26_1.png","C_Dist_100_LN_2_LD_5_RN_11_RD_22_1.png","C_Dist_100_LN_2_LD_5_RN_6_RD_12_1.png","C_Dist_100_LN_3_LD_20_RN_4_RD_16_1.png","C_Dist_100_LN_4_LD_10_RN_15_RD_30_1.png","C_Dist_100_LN_4_LD_8_RN_6_RD_10_1.png","C_Dist_100_LN_6_LD_12_RN_15_RD_25_1.png","C_Dist_100_LN_7_LD_14_RN_15_RD_25_1.png","C_Dist_100_LN_7_LD_14_RN_9_RD_15_1.png"]],"dist100_I":[["I_Dist_100_LN_1_LD_2_RN_8_RD_20_0.png","I_Dist_100_LN_2_LD_4_RN_6_RD_15_0.png","I_Dist_100_LN_2_LD_4_RN_8_RD_20_0.png","I_Dist_100_LN_3_LD_5_RN_11_RD_22_0.png","I_Dist_100_LN_3_LD_5_RN_8_RD_16_0.png","I_Dist_100_LN_3_LD_6_RN_4_RD_10_0.png","I_Dist_100_LN_3_LD_9_RN_7_RD_30_0.png","I_Dist_100_LN_4_LD_8_RN_8_RD_20_0.png","I_Dist_100_LN_6_LD_10_RN_11_RD_22_0.png","I_Dist_100_LN_6_LD_10_RN_13_RD_26_0.png","I_Dist_100_LN_6_LD_10_RN_7_RD_14_0.png","I_Dist_100_LN_9_LD_10_RN_20_RD_25_0.png","I_Dist_100_LN_9_LD_15_RN_13_RD_26_0.png","I_Dist_100_LN_9_LD_15_RN_14_RD_28_0.png"],["I_Dist_100_LN_10_LD_25_RN_8_RD_16_1.png","I_Dist_100_LN_10_LD_25_RN_9_RD_18_1.png","I_Dist_100_LN_11_LD_22_RN_9_RD_15_1.png","I_Dist_100_LN_12_LD_24_RN_9_RD_15_1.png","I_Dist_100_LN_12_LD_30_RN_2_RD_4_1.png","I_Dist_100_LN_13_LD_26_RN_12_RD_20_1.png","I_Dist_100_LN_13_LD_26_RN_6_RD_10_1.png","I_Dist_100_LN_17_LD_30_RN_10_RD_15_1.png","I_Dist_100_LN_6_LD_12_RN_3_RD_5_1.png","I_Dist_100_LN_8_LD_16_RN_6_RD_10_1.png","I_Dist_100_LN_8_LD_20_RN_1_RD_2_1.png","I_Dist_100_LN_9_LD_18_RN_6_RD_10_1.png"]],"dist100_S":[["E_Dist_100_LN_2_LD_12_RN_2_RD_30_0.png","E_Dist_100_LN_6_LD_10_RN_6_RD_12_0.png"],["E_Dist_100_LN_6_LD_12_RN_6_RD_10_1.png"]],"dist200_C":[["C_Dist_200_LN_11_LD_22_RN_3_RD_10_0.png","C_Dist_200_LN_12_LD_15_RN_6_RD_10_0.png","C_Dist_200_LN_12_LD_20_RN_6_RD_15_0.png","C_Dist_200_LN_14_LD_28_RN_6_RD_20_0.png","C_Dist_200_LN_15_LD_25_RN_4_RD_10_0.png","C_Dist_200_LN_16_LD_20_RN_12_RD_20_0.png","C_Dist_200_LN_16_LD_30_RN_9_RD_27_0.png","C_Dist_200_LN_20_LD_25_RN_9_RD_15_0.png","C_Dist_200_LN_21_LD_30_RN_2_RD_4_0.png","C_Dist_200_LN_4_LD_10_RN_3_RD_15_0.png","C_Dist_200_LN_4_LD_8_RN_3_RD_10_0.png","C_Dist_200_LN_6_LD_15_RN_3_RD_15_0.png","C_Dist_200_LN_7_LD_21_RN_2_RD_15_0.png","C_Dist_200_LN_8_LD_15_RN_2_RD_6_0.png","C_Dist_200_LN_8_LD_15_RN_3_RD_9_0.png","C_Dist_200_LN_8_LD_15_RN_7_RD_21_0.png","C_Dist_200_LN_9_LD_20_RN_4_RD_16_0.png"],["C_Dist_200_LN_1_LD_2_RN_21_RD_30_1.png","C_Dist_200_LN_13_LD_26_RN_14_RD_20_1.png","C_Dist_200_LN_3_LD_10_RN_11_RD_22_1.png","C_Dist_200_LN_3_LD_10_RN_14_RD_28_1.png","C_Dist_200_LN_3_LD_10_RN_7_RD_14_1.png","C_Dist_200_LN_3_LD_12_RN_9_RD_20_1.png","C_Dist_200_LN_3_LD_6_RN_14_RD_20_1.png","C_Dist_200_LN_5_LD_10_RN_14_RD_20_1.png","C_Dist_200_LN_6_LD_12_RN_7_RD_10_1.png","C_Dist_200_LN_6_LD_20_RN_11_RD_22_1.png","C_Dist_200_LN_7_LD_15_RN_18_RD_27_1.png","C_Dist_200_LN_9_LD_30_RN_13_RD_26_1.png"]],"dist200_I":[["I_Dist_200_LN_1_LD_2_RN_3_RD_10_0.png","I_Dist_200_LN_1_LD_3_RN_2_RD_15_0.png","I_Dist_200_LN_3_LD_4_RN_11_RD_20_0.png","I_Dist_200_LN_4_LD_5_RN_6_RD_10_0.png","I_Dist_200_LN_4_LD_6_RN_14_RD_30_0.png","I_Dist_200_LN_7_LD_10_RN_12_RD_24_0.png","I_Dist_200_LN_7_LD_10_RN_14_RD_28_0.png","I_Dist_200_LN_7_LD_10_RN_8_RD_16_0.png"],["I_Dist_200_LN_11_LD_20_RN_3_RD_4_1.png","I_Dist_200_LN_14_LD_30_RN_12_RD_18_1.png","I_Dist_200_LN_14_LD_30_RN_6_RD_9_1.png","I_Dist_200_LN_3_LD_10_RN_1_RD_2_1.png","I_Dist_200_LN_4_LD_30_RN_1_RD_3_1.png","I_Dist_200_LN_6_LD_20_RN_3_RD_6_1.png","I_Dist_200_LN_7_LD_15_RN_4_RD_6_1.png","I_Dist_200_LN_7_LD_15_RN_6_RD_9_1.png","I_Dist_200_LN_9_LD_15_RN_8_RD_10_1.png"]],"dist200_S":[["E_Dist_200_LN_3_LD_6_RN_3_RD_10_0.png"],["E_Dist_200_LN_3_LD_10_RN_3_RD_6_1.png"]],"dist300_C":[["C_Dist_300_LN_11_LD_22_RN_1_RD_5_0.png","C_Dist_300_LN_11_LD_22_RN_2_RD_10_0.png","C_Dist_300_LN_11_LD_22_RN_4_RD_20_0.png","C_Dist_300_LN_12_LD_24_RN_2_RD_10_0.png","C_Dist_300_LN_18_LD_20_RN_9_RD_15_0.png","C_Dist_300_LN_20_LD_25_RN_13_RD_26_0.png","C_Dist_300_LN_20_LD_25_RN_14_RD_28_0.png","C_Dist_300_LN_20_LD_25_RN_5_RD_10_0.png","C_Dist_300_LN_20_LD_25_RN_8_RD_16_0.png","C_Dist_300_LN_20_LD_25_RN_9_RD_18_0.png","C_Dist_300_LN_24_LD_30_RN_2_RD_4_0.png","C_Dist_300_LN_24_LD_30_RN_8_RD_16_0.png","C_Dist_300_LN_3_LD_6_RN_2_RD_10_0.png","C_Dist_300_LN_4_LD_10_RN_1_RD_10_0.png","C_Dist_300_LN_4_LD_5_RN_2_RD_4_0.png","C_Dist_300_LN_8_LD_16_RN_1_RD_5_0.png","C_Dist_300_LN_9_LD_10_RN_3_RD_5_0.png"],["C_Dist_300_LN_1_LD_20_RN_7_RD_20_1.png","C_Dist_300_LN_1_LD_3_RN_19_RD_30_1.png","C_Dist_300_LN_1_LD_30_RN_8_RD_24_1.png","C_Dist_300_LN_1_LD_5_RN_11_RD_22_1.png","C_Dist_300_LN_1_LD_5_RN_3_RD_6_1.png","C_Dist_300_LN_1_LD_5_RN_6_RD_12_1.png","C_Dist_300_LN_2_LD_10_RN_12_RD_24_1.png","C_Dist_300_LN_2_LD_20_RN_10_RD_25_1.png","C_Dist_300_LN_3_LD_12_RN_11_RD_20_1.png","C_Dist_300_LN_3_LD_6_RN_4_RD_5_1.png","C_Dist_300_LN_4_LD_20_RN_13_RD_26_1.png","C_Dist_300_LN_5_LD_25_RN_6_RD_12_1.png","C_Dist_300_LN_5_LD_25_RN_7_RD_14_1.png","C_Dist_300_LN_7_LD_14_RN_20_RD_25_1.png","C_Dist_300_LN_8_LD_15_RN_10_RD_12_1.png"]],"dist300_I":[["I_Dist_300_LN_1_LD_2_RN_2_RD_10_0.png","I_Dist_300_LN_1_LD_2_RN_3_RD_15_0.png","I_Dist_300_LN_2_LD_4_RN_6_RD_30_0.png","I_Dist_300_LN_3_LD_6_RN_4_RD_20_0.png","I_Dist_300_LN_4_LD_5_RN_6_RD_12_0.png","I_Dist_300_LN_4_LD_5_RN_8_RD_16_0.png","I_Dist_300_LN_7_LD_10_RN_8_RD_20_0.png","I_Dist_300_LN_8_LD_10_RN_14_RD_28_0.png","I_Dist_300_LN_8_LD_10_RN_9_RD_18_0.png"],["I_Dist_300_LN_13_LD_26_RN_12_RD_15_1.png","I_Dist_300_LN_4_LD_20_RN_2_RD_4_1.png"]],"dist300_S":[["E_Dist_300_LN_9_LD_12_RN_9_RD_20_0.png"],["E_Dist_300_LN_18_LD_30_RN_18_RD_20_1.png","E_Dist_300_LN_3_LD_10_RN_3_RD_5_1.png","E_Dist_300_LN_9_LD_20_RN_9_RD_12_1.png"]],"dist500_C":[["C_Dist_500_LN_10_LD_13_RN_7_RD_26_0.png","C_Dist_500_LN_10_LD_15_RN_4_RD_24_0.png","C_Dist_500_LN_12_LD_16_RN_3_RD_12_0.png","C_Dist_500_LN_12_LD_18_RN_4_RD_24_0.png","C_Dist_500_LN_15_LD_18_RN_5_RD_15_0.png","C_Dist_500_LN_15_LD_20_RN_1_RD_4_0.png","C_Dist_500_LN_18_LD_27_RN_1_RD_6_0.png","C_Dist_500_LN_20_LD_24_RN_1_RD_3_0.png","C_Dist_500_LN_20_LD_24_RN_3_RD_9_0.png","C_Dist_500_LN_20_LD_24_RN_7_RD_21_0.png","C_Dist_500_LN_20_LD_28_RN_3_RD_14_0.png","C_Dist_500_LN_21_LD_28_RN_6_RD_24_0.png","C_Dist_500_LN_22_LD_28_RN_2_RD_7_0.png","C_Dist_500_LN_25_LD_30_RN_9_RD_27_0.png","C_Dist_500_LN_4_LD_6_RN_1_RD_6_0.png","C_Dist_500_LN_5_LD_6_RN_2_RD_6_0.png","C_Dist_500_LN_6_LD_9_RN_1_RD_6_0.png","C_Dist_500_LN_7_LD_10_RN_1_RD_5_0.png","C_Dist_500_LN_8_LD_12_RN_1_RD_6_0.png","C_Dist_500_LN_8_LD_12_RN_4_RD_24_0.png"],["C_Dist_500_LN_1_LD_4_RN_12_RD_16_1.png","C_Dist_500_LN_1_LD_4_RN_9_RD_12_1.png","C_Dist_500_LN_1_LD_9_RN_11_RD_18_1.png","C_Dist_500_LN_10_LD_24_RN_22_RD_24_1.png","C_Dist_500_LN_2_LD_12_RN_10_RD_15_1.png","C_Dist_500_LN_2_LD_12_RN_12_RD_18_1.png","C_Dist_500_LN_2_LD_12_RN_4_RD_6_1.png","C_Dist_500_LN_2_LD_24_RN_7_RD_12_1.png","C_Dist_500_LN_2_LD_5_RN_18_RD_20_1.png","C_Dist_500_LN_2_LD_5_RN_9_RD_10_1.png","C_Dist_500_LN_2_LD_8_RN_12_RD_16_1.png","C_Dist_500_LN_2_LD_8_RN_21_RD_28_1.png","C_Dist_500_LN_3_LD_10_RN_4_RD_5_1.png","C_Dist_500_LN_3_LD_12_RN_15_RD_20_1.png","C_Dist_500_LN_3_LD_30_RN_6_RD_10_1.png","C_Dist_500_LN_3_LD_8_RN_14_RD_16_1.png","C_Dist_500_LN_4_LD_16_RN_15_RD_20_1.png","C_Dist_500_LN_4_LD_24_RN_12_RD_18_1.png","C_Dist_500_LN_5_LD_14_RN_6_RD_7_1.png","C_Dist_500_LN_7_LD_21_RN_20_RD_24_1.png","C_Dist_500_LN_7_LD_28_RN_12_RD_16_1.png","C_Dist_500_LN_7_LD_28_RN_9_RD_12_1.png","C_Dist_500_LN_9_LD_27_RN_20_RD_24_1.png"]],"dist500_I":[["I_Dist_500_LN_2_LD_3_RN_4_RD_24_0.png","I_Dist_500_LN_5_LD_6_RN_6_RD_18_0.png","I_Dist_500_LN_7_LD_8_RN_9_RD_24_0.png"],["I_Dist_500_LN_7_LD_21_RN_5_RD_6_1.png"]],"dist500_S":[["E_Dist_500_LN_6_LD_8_RN_6_RD_24_0.png"],["E_Dist_500_LN_2_LD_12_RN_2_RD_3_1.png","E_Dist_500_LN_6_LD_24_RN_6_RD_8_1.png"]]}},{"start_time":1552073556543,"click_time":1552073558081,"finger_time":1552073557461,"fix_duration":759.1713099815466,"trial":1,"RT":918,"MT":620,"sideResp":1,"stimulus":[],"xmouse":[787,786,786,786,786,786,785,785,785,785,785,785,785,785,785,783,783,783,782,781,780,780,780,780,780,780,780,780,780,780,780,780,780,780,780,780,780,780,780,780,778,772,769,761,756,745,735,713,698,678,593,544,529,489,464,408,387,381,381,381,379,379,379,379,379,379,379,379,379,380,390,394,396,396,397,406,415,425],"ymouse":[532,532,531,531,531,531,530,530,530,530,530,530,530,530,530,530,530,530,530,530,530,530,530,530,530,530,530,530,530,530,530,530,530,530,530,530,530,530,530,530,530,530,530,530,530,524,509,481,458,429,325,265,245,194,158,85,58,48,48,48,40,38,34,32,32,32,32,32,32,32,37,38,38,38,38,38,38,37],"timestamp_mouse":[1,29,39,59,78,97,117,137,157,179,199,219,239,259,278,297,319,339,358,378,397,419,439,458,478,498,518,538,558,579,598,619,639,657,679,698,718,737,759,779,798,818,838,858,877,897,918,938,957,978,999,1018,1037,1057,1077,1098,1117,1138,1159,1178,1199,1219,1238,1259,1278,1299,1318,1338,1358,1378,1398,1418,1437,1458,1478,1498,1517,1538],"xSR":741.5,"ySR":469.95,"xT1":424.9,"yT1":0,"xT2":1058.1,"yT2":0,"toosoon":0,"cond_shown":"Incongruent","ratio_trial":100,"L_num":12,"L_den":30,"R_num":2,"R_den":4,"correct_side":2,"subjID":"Juan Diego Castillo Naranjo 35","gender":"0","school":"4","age":"8"},{"start_time":1552073560692,"click_time":1552073562302,"finger_time":1552073562161,"fix_duration":250,"trial":2,"RT":1469,"MT":141,"sideResp":1,"stimulus":[],"xmouse":[793,792,783,776,769,765,764,764,764,764,764,764,764,764,764,764,764,768,772,777,787,798,811,814,815,816,816,816,816,816,816,816,816,816,816,816,817,817,816,816,816,816,815,815,815,815,815,813,811,807,803,800,799,799,799,799,798,797,796,795,795,795,793,793,793,793,793,792,792,791,790,789,785,778,769,752,731,696,594,539,494],"ymouse":[531,531,529,528,528,527,527,527,527,527,527,527,527,526,526,525,523,516,512,509,505,503,499,499,499,498,498,498,498,498,498,498,498,498,498,498,497,496,495,494,493,493,492,491,491,491,490,490,490,490,490,490,489,489,489,489,489,488,486,485,484,483,481,480,478,478,478,477,477,476,475,473,470,465,456,436,410,359,231,168,96],"timestamp_mouse":[9,37,49,69,89,109,129,149,168,188,208,229,248,269,288,309,329,349,368,389,409,430,449,469,489,510,529,549,569,589,609,630,649,669,688,709,728,750,768,789,810,828,848,869,890,909,928,949,969,989,1008,1030,1049,1069,1089,1109,1128,1150,1169,1188,1209,1230,1248,1269,1289,1310,1329,1348,1369,1388,1409,1428,1449,1469,1488,1508,1529,1549,1569,1590,1610],"xSR":741.5,"ySR":469.95,"xT1":424.9,"yT1":0,"xT2":1058.1,"yT2":0,"toosoon":0,"cond_shown":"Incongruent","ratio_trial":300,"L_num":13,"L_den":26,"R_num":12,"R_den":15,"correct_side":2,"subjID":"Juan Diego Castillo Naranjo 35","gender":"0","school":"4","age":"8"},{"start_time":1552073571516,"click_time":1552073573662,"finger_time":1552073572961,"fix_duration":1233.4679484267665,"trial":3,"RT":1445,"MT":701,"sideResp":1,"stimulus":[],"xmouse":[757,757,757,757,757,757,757,757,757,757,757,757,757,757,757,757,757,757,757,757,757,757,757,757,757,757,757,758,758,759,760,760,760,760,760,760,760,760,760,760,760,760,760,760,760,760,760,760,760,760,760,760,760,760,760,760,760,760,760,760,760,760,760,760,760,760,760,760,760,758,757,749,744,741,741,737,729,682,634,598,564,513,492,471,444,434,422,414,410,408,407,408,411,415,418,420,420,420,420,420,420,420,424,424,424,424,424,426],"ymouse":[548,548,548,548,548,548,548,548,548,548,548,548,548,548,548,548,548,548,548,548,548,548,548,548,548,548,548,548,548,548,548,548,548,548,548,548,548,548,548,548,548,548,548,548,548,548,548,548,548,548,548,548,548,548,548,548,548,548,548,548,548,548,548,548,548,548,547,542,536,529,517,484,469,450,438,422,406,368,341,323,306,275,260,246,223,212,187,173,159,140,121,80,58,41,18,2,2,2,2,2,2,2,1,8,15,20,29,31],"timestamp_mouse":[11,36,45,64,85,104,124,144,166,185,204,224,245,265,286,306,325,345,366,386,406,425,445,466,484,505,524,545,564,585,606,625,645,666,685,706,725,744,766,785,806,825,845,864,884,906,925,945,964,986,1006,1025,1045,1064,1084,1104,1125,1146,1166,1186,1205,1224,1244,1266,1285,1305,1324,1345,1364,1385,1404,1425,1445,1465,1485,1505,1525,1545,1564,1585,1604,1625,1646,1665,1685,1705,1725,1746,1765,1786,1805,1825,1844,1865,1885,1905,1924,1944,1964,1986,2006,2026,2046,2065,2085,2105,2125,2145],"xSR":741.5,"ySR":469.95,"xT1":424.9,"yT1":0,"xT2":1058.1,"yT2":0,"toosoon":0,"cond_shown":"Incongruent","ratio_trial":200,"L_num":9,"L_den":15,"R_num":8,"R_den":10,"correct_side":2,"subjID":"Juan Diego Castillo Naranjo 35","gender":"0","school":"4","age":"8"},{"start_time":1552073576952,"click_time":1552073578801,"finger_time":1552073578022,"fix_duration":250,"trial":4,"RT":1070,"MT":779,"sideResp":1,"stimulus":[],"xmouse":[809,809,809,809,809,809,809,809,809,809,809,809,809,809,809,809,809,809,809,809,809,809,809,807,801,799,799,799,799,799,799,799,799,799,799,799,799,799,799,799,799,799,799,799,799,799,799,797,793,770,758,748,742,735,717,717,717,717,717,717,717,717,717,717,717,716,716,716,715,650,562,523,498,480,455,442,427,409,393,365,361,361,362,364,367,371,374,380,386,399,407,417,426],"ymouse":[544,544,544,544,544,544,544,544,544,544,544,544,544,544,544,544,544,544,544,544,544,544,544,544,544,544,544,544,544,544,544,544,544,544,544,544,544,544,544,544,544,544,544,544,544,544,544,544,544,544,544,544,544,544,544,544,544,544,544,544,544,544,544,544,544,542,534,519,494,386,295,245,207,183,147,132,118,105,93,69,63,62,62,61,61,61,61,61,61,61,60,59,58],"timestamp_mouse":[12,34,48,68,89,109,130,150,168,188,209,229,248,270,289,309,328,350,369,389,408,430,448,469,489,509,529,548,568,589,608,628,650,669,688,709,728,749,768,789,808,830,850,870,888,908,928,949,969,988,1009,1029,1050,1070,1089,1108,1128,1150,1170,1190,1210,1230,1249,1268,1290,1309,1329,1350,1369,1389,1409,1428,1449,1469,1489,1510,1529,1549,1568,1589,1609,1630,1649,1670,1689,1709,1730,1750,1768,1790,1809,1830,1849],"xSR":741.5,"ySR":469.95,"xT1":424.9,"yT1":0,"xT2":1058.1,"yT2":0,"toosoon":0,"cond_shown":"Congruent","ratio_trial":200,"L_num":12,"L_den":15,"R_num":6,"R_den":10,"correct_side":1,"subjID":"Juan Diego Castillo Naranjo 35","gender":"0","school":"4","age":"8"},{"start_time":1552073583039,"click_time":1552073584402,"finger_time":1552073583800,"fix_duration":1296.8736372355522,"trial":5,"RT":761,"MT":602,"sideResp":2,"stimulus":[],"xmouse":[792,795,796,798,799,801,801,802,802,802,802,802,802,802,802,802,802,802,802,802,802,802,802,802,802,802,802,802,802,802,802,802,802,802,802,803,809,819,824,829,837,842,846,850,853,863,872,887,900,915,933,976,1001,1023,1035,1045,1052,1052,1052,1052,1052,1052,1052,1052,1052,1052,1052,1052,1100],"ymouse":[512,512,512,510,508,504,503,503,503,503,503,503,503,503,503,503,503,503,503,503,503,503,503,503,503,503,503,503,503,503,503,503,503,503,503,501,492,477,464,452,432,422,415,409,406,397,391,373,356,335,309,234,190,150,111,48,9,9,9,9,9,9,9,9,9,9,9,9,25],"timestamp_mouse":[9,28,42,62,82,102,121,141,162,183,201,222,242,263,283,302,321,343,361,381,401,423,442,461,483,502,521,541,563,581,601,622,641,661,683,702,722,742,761,782,803,821,841,863,883,902,923,942,962,982,1002,1022,1042,1063,1083,1102,1123,1142,1162,1182,1202,1222,1241,1262,1282,1302,1322,1342,1363],"xSR":741.5,"ySR":469.95,"xT1":424.9,"yT1":0,"xT2":1058.1,"yT2":0,"toosoon":0,"cond_shown":"Incongruent","ratio_trial":300,"L_num":13,"L_den":26,"R_num":12,"R_den":15,"correct_side":2,"subjID":"Juan Diego Castillo Naranjo 35","gender":"0","school":"4","age":"8"},{"start_time":1552073586056,"click_time":1552073587200,"finger_time":1552073586822,"fix_duration":292.97196117511646,"trial":6,"RT":766,"MT":378,"sideResp":2,"stimulus":[],"xmouse":[781,781,783,784,785,786,786,786,786,786,786,786,786,786,786,786,786,786,786,786,786,786,786,786,786,786,786,786,786,786,786,786,786,786,786,786,788,812,841,910,940,972,1017,1038,1043,1043,1043,1043,1043,1043,1043,1043,1043,1043,1043,1043,1043,1060],"ymouse":[529,529,528,527,523,520,518,517,516,516,516,516,516,516,516,516,516,516,515,513,512,512,512,512,512,512,512,512,512,512,512,512,512,512,512,511,509,486,446,317,252,184,121,72,24,12,9,8,8,8,8,8,8,8,8,8,7,17],"timestamp_mouse":[11,31,45,66,84,105,125,145,165,185,205,226,244,264,284,305,325,346,365,385,404,425,446,466,486,505,524,546,566,585,605,624,645,665,685,705,725,746,766,785,805,825,845,865,885,905,925,945,964,984,1006,1025,1045,1066,1085,1104,1125,1144],"xSR":741.5,"ySR":469.95,"xT1":424.9,"yT1":0,"xT2":1058.1,"yT2":0,"toosoon":0,"cond_shown":"Congruent","ratio_trial":100,"L_num":2,"L_den":5,"R_num":6,"R_den":12,"correct_side":2,"subjID":"Juan Diego Castillo Naranjo 35","gender":"0","school":"4","age":"8"},{"start_time":1552073589602,"click_time":1552073591021,"finger_time":1552073590581,"fix_duration":1198.6676108413558,"trial":7,"RT":979,"MT":440,"sideResp":2,"stimulus":[],"xmouse":[758,760,762,763,766,767,770,770,770,770,770,770,770,771,771,772,773,773,774,774,774,774,774,774,774,774,774,774,774,774,774,774,774,774,774,774,774,774,776,777,780,782,783,784,784,784,785,801,823,843,862,888,933,953,971,990,1007,1027,1034,1041,1049,1052,1053,1054,1054,1056,1058,1061,1068,1075,1082,1085],"ymouse":[541,541,541,540,539,539,538,537,537,537,537,537,537,537,537,537,537,537,537,537,537,537,537,537,537,537,537,537,537,537,537,537,537,537,537,537,537,537,528,522,502,491,480,479,479,479,479,479,475,465,452,431,380,354,331,308,281,231,208,187,164,156,149,148,148,146,144,141,130,121,103,91],"timestamp_mouse":[0,19,38,59,79,99,120,139,158,179,200,219,238,259,278,298,319,339,358,380,399,419,440,460,480,499,519,539,559,579,600,620,639,659,680,700,719,739,760,780,799,819,839,859,880,899,919,938,959,979,999,1018,1039,1059,1080,1099,1118,1138,1158,1179,1199,1219,1239,1259,1280,1300,1319,1339,1359,1380,1399,1419],"xSR":741.5,"ySR":469.95,"xT1":424.9,"yT1":0,"xT2":1058.1,"yT2":0,"toosoon":0,"cond_shown":"Incongruent","ratio_trial":300,"L_num":13,"L_den":26,"R_num":12,"R_den":15,"correct_side":2,"subjID":"Juan Diego Castillo Naranjo 35","gender":"0","school":"4","age":"8"},{"start_time":1552073594326,"click_time":1552073595881,"finger_time":1552073595341,"fix_duration":363.09614886276455,"trial":8,"RT":1015,"MT":540,"sideResp":1,"stimulus":[],"xmouse":[796,796,796,796,796,796,796,796,796,796,796,796,796,796,796,796,796,796,796,796,796,796,796,796,796,796,796,796,796,796,796,796,796,796,796,796,796,796,796,796,796,796,796,797,797,794,791,784,777,765,729,689,635,583,560,559,563,573,580,584,584,582,577,574,570,559,546,525,503,481,463,456,456,458,462,468,474,471],"ymouse":[536,536,536,536,536,536,536,536,536,536,536,536,536,536,536,536,536,536,536,536,536,536,536,536,536,536,536,536,536,536,536,536,536,536,536,536,536,536,536,536,536,536,536,536,534,523,515,504,490,473,430,394,349,284,253,245,244,244,244,244,236,232,225,219,215,203,196,187,178,169,163,159,158,152,147,137,101,76],"timestamp_mouse":[16,36,55,76,95,115,134,155,175,195,214,235,255,276,295,315,335,355,376,396,415,435,454,476,494,515,535,554,574,596,615,636,654,674,695,715,735,756,775,794,815,836,855,875,895,915,935,955,975,996,1015,1035,1055,1074,1096,1114,1134,1155,1175,1194,1215,1234,1255,1275,1296,1315,1334,1355,1375,1395,1415,1434,1455,1475,1495,1514,1535,1555],"xSR":741.5,"ySR":469.95,"xT1":424.9,"yT1":0,"xT2":1058.1,"yT2":0,"toosoon":0,"cond_shown":"Congruent","ratio_trial":200,"L_num":9,"L_den":20,"R_num":4,"R_den":16,"correct_side":1,"subjID":"Juan Diego Castillo Naranjo 35","gender":"0","school":"4","age":"8"},{"start_time":1552073597803,"click_time":1552073598801,"finger_time":1552073598381,"fix_duration":441.09201143524,"trial":9,"RT":578,"MT":420,"sideResp":1,"stimulus":[],"xmouse":[790,790,790,790,790,790,790,789,788,788,788,788,788,788,788,788,788,788,788,788,788,788,788,788,781,777,752,742,741,739,737,723,713,703,690,680,671,646,621,601,587,559,544,525,502,485,461,449,438,429],"ymouse":[515,515,515,515,515,515,515,515,515,515,515,515,515,515,515,515,515,515,515,515,515,515,515,515,515,515,515,515,515,515,515,511,505,495,478,459,439,391,349,323,300,263,242,212,185,165,139,125,112,99],"timestamp_mouse":[19,38,59,78,98,119,138,158,177,199,218,238,259,277,298,319,338,359,378,397,419,438,457,478,498,518,537,558,578,597,617,638,659,678,698,717,738,757,778,799,818,839,858,877,897,918,937,959,979,998],"xSR":741.5,"ySR":469.95,"xT1":424.9,"yT1":0,"xT2":1058.1,"yT2":0,"toosoon":0,"cond_shown":"Incongruent","ratio_trial":100,"L_num":12,"L_den":24,"R_num":9,"R_den":15,"correct_side":2,"subjID":"Juan Diego Castillo Naranjo 35","gender":"0","school":"4","age":"8"},{"start_time":1552073603199,"click_time":1552073604361,"finger_time":1552073603801,"fix_duration":1375.003670907192,"trial":10,"RT":602,"MT":560,"sideResp":2,"stimulus":[],"xmouse":[766,766,766,766,766,766,766,766,766,766,766,766,766,766,766,766,766,766,766,766,766,766,766,766,766,767,771,793,803,814,843,864,923,948,966,978,993,1014,1024,1032,1046,1051,1056,1059,1059,1060,1062,1064,1067,1071,1076,1080,1086,1086,1087,1087,1088,1090,1094],"ymouse":[512,512,512,512,512,512,512,512,512,512,512,512,512,512,512,512,512,512,512,512,512,512,512,512,512,512,512,507,502,492,465,436,369,339,310,285,264,227,212,201,188,182,177,176,176,176,176,176,175,175,174,172,167,162,156,147,136,123,94],"timestamp_mouse":[9,23,42,62,81,102,123,142,163,183,203,221,242,263,281,303,322,341,363,383,401,421,442,462,481,502,522,542,562,582,602,621,642,661,681,701,723,741,761,783,802,823,842,861,882,902,921,941,962,982,1001,1022,1042,1062,1082,1102,1122,1142,1162],"xSR":741.5,"ySR":469.95,"xT1":424.9,"yT1":0,"xT2":1058.1,"yT2":0,"toosoon":0,"cond_shown":"Congruent","ratio_trial":200,"L_num":3,"L_den":12,"R_num":9,"R_den":20,"correct_side":2,"subjID":"Juan Diego Castillo Naranjo 35","gender":"0","school":"4","age":"8"},{"start_time":1552073608400,"click_time":1552073609803,"finger_time":1552073609182,"fix_duration":378.4080328649748,"trial":11,"RT":782,"MT":621,"sideResp":1,"stimulus":[],"xmouse":[799,799,799,799,799,799,799,799,799,799,799,799,799,799,799,799,799,799,799,799,799,799,799,799,794,793,786,773,771,771,771,771,771,771,771,773,773,775,776,763,751,735,690,663,634,608,584,540,524,509,490,484,482,483,487,492,496,513,523,533,535,540,540,540,540,540,540,540,538,527,517],"ymouse":[529,529,529,529,529,529,529,529,529,529,529,529,529,529,529,529,529,529,529,529,529,529,529,529,526,527,528,528,529,529,529,529,529,529,529,527,524,516,491,464,443,421,365,342,320,303,287,243,220,200,172,159,145,142,137,131,127,111,102,87,81,71,69,69,69,69,69,69,68,68,68],"timestamp_mouse":[9,21,40,61,80,101,122,141,161,181,202,221,241,261,282,303,322,341,361,383,402,422,441,461,482,501,522,541,561,581,602,623,641,662,682,702,721,741,761,782,802,822,841,862,881,901,922,942,961,982,1002,1021,1041,1061,1082,1102,1123,1142,1162,1182,1202,1222,1242,1262,1281,1301,1322,1342,1361,1381,1402],"xSR":741.5,"ySR":469.95,"xT1":424.9,"yT1":0,"xT2":1058.1,"yT2":0,"toosoon":0,"cond_shown":"Incongruent","ratio_trial":200,"L_num":7,"L_den":15,"R_num":4,"R_den":6,"correct_side":2,"subjID":"Juan Diego Castillo Naranjo 35","gender":"0","school":"4","age":"8"},{"start_time":1552073611887,"click_time":1552073614442,"finger_time":1552073612082,"fix_duration":685.0888484528434,"trial":12,"RT":195,"MT":2360,"sideResp":2,"stimulus":[],"xmouse":[808,808,808,808,808,808,808,808,809,812,816,818,818,818,818,818,818,818,818,818,818,818,818,818,818,818,818,818,818,818,818,819,821,821,822,822,822,822,819,815,809,806,802,800,800,798,796,796,796,796,795,795,795,795,795,795,795,795,795,795,795,795,795,795,795,795,795,795,795,795,795,795,795,795,795,795,795,795,795,795,795,795,795,795,795,795,795,795,795,795,795,795,795,795,795,795,795,795,795,795,795,795,796,801,812,833,848,885,919,950,976,988,1002,1006,1011,1015,1016,1017,1018,1021,1025,1029,1041,1060,1075,1083,1090,1101],"ymouse":[496,496,496,496,496,496,496,492,482,468,454,443,430,428,428,427,427,427,427,427,427,427,427,427,427,427,427,427,427,427,427,427,425,425,425,425,425,428,432,438,447,456,475,483,488,492,498,505,508,509,511,511,511,511,511,511,511,511,511,511,512,512,512,512,512,512,512,512,512,512,512,512,512,512,512,512,512,512,512,512,512,512,512,512,512,512,512,512,512,512,512,512,512,512,512,512,512,512,512,512,512,512,512,512,511,496,481,422,375,329,286,259,223,208,197,186,182,174,169,162,154,149,138,126,118,109,101,82],"timestamp_mouse":[14,34,55,76,94,115,136,154,175,195,214,235,255,275,296,316,334,354,374,395,415,435,455,475,496,515,535,555,574,594,615,635,654,674,694,714,734,755,774,795,814,835,855,876,894,914,936,954,974,995,1015,1036,1054,1075,1094,1115,1136,1154,1175,1194,1214,1235,1254,1274,1296,1316,1335,1354,1375,1396,1414,1435,1454,1475,1496,1514,1535,1554,1576,1596,1616,1635,1655,1674,1694,1715,1735,1755,1776,1795,1815,1834,1854,1875,1895,1916,1935,1954,1974,1995,2014,2036,2055,2075,2095,2115,2134,2155,2174,2195,2214,2235,2254,2276,2295,2315,2334,2355,2374,2395,2415,2436,2454,2474,2495,2515,2534,2554],"xSR":741.5,"ySR":469.95,"xT1":424.9,"yT1":0,"xT2":1058.1,"yT2":0,"toosoon":0,"cond_shown":"Congruent","ratio_trial":300,"L_num":1,"L_den":20,"R_num":7,"R_den":20,"correct_side":2,"subjID":"Juan Diego Castillo Naranjo 35","gender":"0","school":"4","age":"8"},{"start_time":1552073616548,"click_time":1552073618042,"finger_time":1552073617541,"fix_duration":706.2101298664048,"trial":13,"RT":993,"MT":501,"sideResp":1,"stimulus":[],"xmouse":[801,801,801,801,801,801,801,801,801,801,801,801,801,801,801,801,801,801,801,801,801,801,801,801,801,801,801,801,801,801,801,801,801,801,801,801,801,801,801,801,801,801,801,801,801,801,801,801,799,762,728,674,622,545,545,545,545,545,545,545,545,545,545,545,545,545,545,545,545,545,545,413,417,419,431],"ymouse":[545,545,545,545,545,545,545,545,545,545,545,545,545,545,545,545,545,545,545,545,545,545,545,545,545,545,545,545,545,545,545,545,545,545,545,545,545,545,545,545,545,545,545,545,545,545,545,536,521,406,330,234,126,20,20,20,20,20,20,20,20,20,20,20,20,20,20,20,20,20,20,4,14,19,33],"timestamp_mouse":[14,39,53,74,94,113,134,154,175,195,214,233,254,273,294,315,334,354,374,394,414,435,454,475,494,514,534,555,575,594,613,633,654,673,693,714,733,753,774,794,814,833,853,873,893,914,934,954,973,993,1014,1033,1055,1074,1093,1113,1133,1153,1174,1193,1214,1234,1255,1274,1294,1315,1334,1354,1374,1394,1413,1433,1453,1473,1494],"xSR":741.5,"ySR":469.95,"xT1":424.9,"yT1":0,"xT2":1058.1,"yT2":0,"toosoon":0,"cond_shown":"Congruent","ratio_trial":300,"L_num":8,"L_den":16,"R_num":1,"R_den":5,"correct_side":1,"subjID":"Juan Diego Castillo Naranjo 35","gender":"0","school":"4","age":"8"},{"start_time":1552073620159,"click_time":1552073621242,"finger_time":1552073620602,"fix_duration":555.4713691569071,"trial":14,"RT":443,"MT":640,"sideResp":2,"stimulus":[],"xmouse":[786,784,784,779,777,777,777,777,777,777,777,777,777,777,777,777,777,777,778,784,791,794,808,824,858,872,883,900,921,939,967,977,982,998,998,998,998,998,998,998,998,998,998,998,998,998,998,998,998,998,998,998,998,998,1084],"ymouse":[513,512,512,511,511,511,511,511,511,511,511,511,511,511,511,511,511,511,511,505,490,484,465,451,423,403,383,353,306,263,165,96,55,2,2,2,2,2,2,2,2,2,2,2,2,2,2,2,2,2,2,2,2,2,4],"timestamp_mouse":[3,34,42,62,82,102,122,143,162,182,202,223,243,264,282,303,323,343,364,382,403,423,443,462,482,502,522,542,562,582,603,623,643,663,682,703,722,742,762,782,802,823,842,863,882,902,922,942,962,983,1002,1024,1044,1062,1083],"xSR":741.5,"ySR":469.95,"xT1":424.9,"yT1":0,"xT2":1058.1,"yT2":0,"toosoon":0,"cond_shown":"Congruent","ratio_trial":300,"L_num":1,"L_den":5,"R_num":6,"R_den":12,"correct_side":2,"subjID":"Juan Diego Castillo Naranjo 35","gender":"0","school":"4","age":"8"},{"start_time":1552073625330,"click_time":1552073626842,"finger_time":1552073625962,"fix_duration":866.354021618187,"trial":15,"RT":632,"MT":880,"sideResp":1,"stimulus":[],"xmouse":[780,780,780,780,780,780,780,780,780,780,780,780,780,780,780,780,780,780,780,780,780,780,784,791,793,793,793,793,793,784,758,739,721,695,680,654,640,625,612,602,589,585,583,579,577,577,577,580,584,587,590,591,592,592,592,586,577,567,554,540,517,515,515,515,515,513,510,509,509,508,506,506,506,506,505,505],"ymouse":[493,493,493,493,493,493,493,493,493,493,493,493,493,493,493,493,493,493,493,493,493,493,490,489,488,488,488,488,488,488,485,481,475,459,445,401,377,351,331,317,299,291,289,281,276,265,261,253,246,241,233,230,226,221,217,199,188,171,154,139,120,118,118,118,118,116,113,111,109,108,105,103,102,102,101,98],"timestamp_mouse":[12,42,52,72,91,112,131,152,171,193,211,232,252,271,291,311,345,352,371,391,411,432,451,471,492,511,532,552,572,591,611,632,652,671,691,712,731,751,772,792,812,832,851,872,892,911,931,952,971,993,1013,1032,1052,1071,1092,1112,1132,1153,1172,1192,1212,1231,1251,1273,1292,1312,1331,1351,1371,1391,1412,1433,1452,1471,1491,1511],"xSR":741.5,"ySR":469.95,"xT1":424.9,"yT1":0,"xT2":1058.1,"yT2":0,"toosoon":0,"cond_shown":"Incongruent","ratio_trial":100,"L_num":8,"L_den":16,"R_num":6,"R_den":10,"correct_side":2,"subjID":"Juan Diego Castillo Naranjo 35","gender":"0","school":"4","age":"8"},{"start_time":1552073631266,"click_time":1552073633782,"finger_time":1552073632901,"fix_duration":823.1007671943456,"trial":16,"RT":1635,"MT":881,"sideResp":2,"stimulus":[],"xmouse":[800,800,800,800,800,800,800,800,800,800,800,800,800,801,803,804,804,804,804,804,804,804,804,804,804,804,804,804,804,804,804,804,804,804,804,804,804,804,804,803,801,800,799,796,795,795,795,795,794,794,792,792,792,792,792,792,792,792,792,792,792,792,792,792,792,792,792,792,792,792,792,792,792,792,792,792,792,792,792,794,817,857,928,1067,1142,1219,1253,1277,1294,1321,1325,1328,1330,1330,1323,1312,1287,1281,1252,1239,1225,1211,1205,1209,1210,1210,1210,1210,1205,1199,1192,1174,1157,1130,1122,1121,1120,1120,1120,1120,1120,1120,1120,1116,1105,1076],"ymouse":[512,512,512,512,512,512,512,512,512,512,512,512,512,511,511,511,511,511,511,511,511,511,511,511,511,511,511,511,511,511,511,511,511,511,511,511,511,511,511,511,511,511,511,511,511,511,511,511,511,511,511,511,511,511,511,511,511,511,511,511,511,511,511,511,511,511,511,511,511,511,511,511,511,511,511,511,511,511,511,510,503,492,467,386,325,250,203,158,114,62,50,41,35,22,14,7,0,0,3,14,39,78,110,145,152,153,153,153,153,153,153,152,148,138,133,133,132,132,132,132,132,132,132,126,114,87],"timestamp_mouse":[15,37,56,75,97,115,136,155,175,196,216,236,256,275,296,316,335,356,375,396,416,435,456,475,496,515,536,557,575,596,615,635,655,675,695,717,736,756,776,795,816,835,855,875,895,916,935,955,975,995,1016,1035,1057,1077,1096,1116,1136,1156,1176,1196,1217,1236,1257,1276,1296,1317,1335,1356,1375,1397,1416,1436,1457,1476,1497,1516,1536,1556,1575,1595,1615,1635,1655,1675,1695,1715,1737,1756,1775,1795,1815,1836,1855,1876,1896,1915,1935,1956,1975,1996,2015,2036,2056,2075,2095,2116,2135,2156,2175,2195,2216,2235,2256,2275,2295,2316,2335,2356,2376,2395,2415,2437,2456,2476,2496,2516],"xSR":741.5,"ySR":469.95,"xT1":424.9,"yT1":0,"xT2":1058.1,"yT2":0,"toosoon":0,"cond_shown":"Congruent","ratio_trial":300,"L_num":5,"L_den":25,"R_num":7,"R_den":14,"correct_side":2,"subjID":"Juan Diego Castillo Naranjo 35","gender":"0","school":"4","age":"8"},{"start_time":1552073640897,"click_time":1552073642142,"finger_time":1552073641061,"fix_duration":354.73874188436184,"trial":17,"RT":164,"MT":1081,"sideResp":1,"stimulus":[],"xmouse":[796,796,796,796,796,796,796,796,796,796,797,797,797,797,797,797,797,797,797,797,797,797,797,797,797,797,797,797,797,797,797,797,797,797,797,797,797,797,797,797,797,795,770,741,698,637,615,577,566,561,559,554,529,515,501,492,489,485,481,475,469,462,458],"ymouse":[472,472,472,472,472,472,472,470,468,468,468,468,468,468,468,468,468,468,468,468,468,468,468,468,468,468,468,468,468,468,468,468,468,468,468,468,468,468,468,468,468,467,463,458,453,442,438,424,418,414,411,405,386,377,366,349,332,294,269,219,165,123,91],"timestamp_mouse":[11,25,46,65,84,105,124,145,164,186,204,225,244,265,285,306,324,344,364,384,406,425,446,464,485,504,526,544,566,586,604,624,644,664,684,704,725,744,765,785,804,825,844,865,885,904,926,945,965,985,1005,1025,1044,1065,1085,1104,1124,1144,1165,1185,1204,1225,1245],"xSR":741.5,"ySR":469.95,"xT1":424.9,"yT1":0,"xT2":1058.1,"yT2":0,"toosoon":0,"cond_shown":"Incongruent","ratio_trial":100,"L_num":12,"L_den":30,"R_num":2,"R_den":4,"correct_side":2,"subjID":"Juan Diego Castillo Naranjo 35","gender":"0","school":"4","age":"8"},{"start_time":1552073644781,"click_time":1552073646882,"finger_time":1552073646302,"fix_duration":1396.521833066794,"trial":18,"RT":1521,"MT":580,"sideResp":2,"stimulus":[],"xmouse":[810,810,810,810,810,810,810,810,810,810,810,810,810,810,810,810,810,810,810,810,810,810,810,810,810,810,810,810,810,810,810,810,810,810,810,810,810,810,810,810,810,810,810,810,810,810,810,810,810,810,807,802,797,787,783,780,779,778,778,778,778,778,778,778,778,778,778,778,778,778,778,779,782,804,817,832,848,867,915,940,964,986,994,1007,1011,1013,1016,1016,1018,1020,1024,1032,1036,1037,1037,1037,1037,1037,1037,1037,1038,1042,1047,1053,1057,1059],"ymouse":[502,502,502,502,502,502,502,502,502,502,502,502,502,502,502,502,502,502,502,502,502,502,502,502,502,502,502,502,502,502,502,502,502,502,502,502,502,502,502,502,502,502,502,502,502,502,502,502,502,502,499,499,499,499,498,498,497,497,497,497,497,497,497,497,497,497,497,497,497,497,497,497,496,490,483,470,455,430,376,348,317,286,269,235,221,204,181,161,124,106,92,70,56,44,41,39,39,39,39,39,39,39,39,39,39,39],"timestamp_mouse":[9,21,40,60,80,100,121,140,160,181,202,222,241,262,280,301,320,341,361,380,402,421,441,461,481,501,520,541,561,581,601,620,641,661,680,700,721,740,760,781,802,820,841,860,880,900,921,940,960,981,1000,1021,1041,1060,1080,1101,1120,1140,1160,1180,1202,1221,1242,1261,1280,1300,1320,1341,1361,1380,1402,1421,1442,1460,1480,1501,1521,1541,1561,1580,1601,1620,1641,1660,1680,1700,1721,1741,1760,1781,1801,1821,1840,1860,1880,1900,1920,1942,1961,1982,2000,2021,2041,2061,2081,2101],"xSR":741.5,"ySR":469.95,"xT1":424.9,"yT1":0,"xT2":1058.1,"yT2":0,"toosoon":0,"cond_shown":"Congruent","ratio_trial":200,"L_num":6,"L_den":12,"R_num":7,"R_den":10,"correct_side":2,"subjID":"Juan Diego Castillo Naranjo 35","gender":"0","school":"4","age":"8"},{"start_time":1552073650576,"click_time":1552073652002,"finger_time":1552073651442,"fix_duration":813.9472209053596,"trial":19,"RT":866,"MT":560,"sideResp":1,"stimulus":[],"xmouse":[783,783,783,783,783,783,783,783,783,783,783,783,783,783,783,783,783,783,783,783,783,783,783,783,783,783,783,783,783,783,783,781,780,773,771,770,770,770,768,764,761,755,745,708,670,645,630,623,620,617,616,614,613,608,605,600,595,589,580,579,576,570,569,562,559,558,554,548,533,530,525,521],"ymouse":[525,525,525,525,525,525,525,525,525,525,525,525,525,525,525,525,525,525,525,525,525,525,525,525,525,525,525,525,525,525,525,525,525,525,524,524,524,524,518,505,497,484,471,441,424,416,410,405,402,398,397,393,390,382,377,369,361,348,306,263,248,205,186,161,152,143,129,113,87,82,74,72],"timestamp_mouse":[8,35,45,66,85,105,126,147,167,186,207,226,245,265,285,305,325,345,365,387,405,426,446,466,485,505,526,547,565,585,606,627,646,665,685,706,725,746,765,785,806,826,845,865,886,905,925,945,965,986,1006,1025,1046,1065,1085,1105,1126,1145,1165,1185,1205,1225,1247,1266,1286,1305,1325,1347,1366,1387,1405,1426],"xSR":741.5,"ySR":469.95,"xT1":424.9,"yT1":0,"xT2":1058.1,"yT2":0,"toosoon":0,"cond_shown":"Incongruent","ratio_trial":100,"L_num":12,"L_den":30,"R_num":2,"R_den":4,"correct_side":2,"subjID":"Juan Diego Castillo Naranjo 35","gender":"0","school":"4","age":"8"},{"start_time":1552073655334,"click_time":1552073656781,"finger_time":1552073655741,"fix_duration":290.8480338789506,"trial":20,"RT":407,"MT":1040,"sideResp":2,"stimulus":[],"xmouse":[796,796,796,796,796,796,796,796,796,796,796,796,796,796,796,789,776,764,753,744,730,727,724,723,723,723,723,724,727,727,727,727,727,727,727,727,727,727,727,727,727,727,727,727,727,737,748,758,770,781,807,824,845,873,890,918,933,945,950,955,967,972,978,986,991,995,999,1004,1011,1019,1044,1056,1064],"ymouse":[539,539,539,539,539,539,539,539,539,539,539,539,539,539,539,539,539,539,539,539,539,539,539,539,539,539,539,539,539,539,539,539,539,539,539,539,539,539,539,539,539,539,539,539,539,539,538,536,534,533,526,515,500,473,453,412,388,366,344,322,280,262,244,223,211,195,185,174,162,147,101,72,51],"timestamp_mouse":[11,36,47,68,87,108,128,147,168,188,207,229,247,268,288,307,327,348,368,387,407,427,447,467,487,507,528,548,568,587,607,628,648,667,687,708,727,748,768,788,807,828,848,867,887,908,927,948,968,988,1008,1027,1048,1068,1088,1107,1128,1148,1168,1187,1208,1228,1248,1267,1287,1307,1327,1347,1367,1387,1408,1428,1447],"xSR":741.5,"ySR":469.95,"xT1":424.9,"yT1":0,"xT2":1058.1,"yT2":0,"toosoon":0,"cond_shown":"Incongruent","ratio_trial":200,"L_num":1,"L_den":3,"R_num":2,"R_den":15,"correct_side":1,"subjID":"Juan Diego Castillo Naranjo 35","gender":"0","school":"4","age":"8"},{"start_time":1552073662582,"click_time":1552073663703,"finger_time":1552073663181,"fix_duration":1058.5009750395557,"trial":21,"RT":599,"MT":522,"sideResp":2,"stimulus":[],"xmouse":[794,796,796,796,797,797,797,797,797,797,797,797,797,797,797,797,797,797,797,797,797,797,797,797,801,803,805,816,820,836,854,858,858,858,858,858,858,858,858,858,858,858,858,858,1247,1244,1238,1232,1216,1204,1188,1185,1177,1167,1160,1157],"ymouse":[538,538,538,538,538,538,538,538,538,538,538,538,538,538,538,538,538,538,538,538,538,538,538,538,538,538,538,528,516,453,274,141,63,63,63,63,63,63,63,63,63,63,63,63,4,12,25,36,46,46,46,46,46,46,43,43],"timestamp_mouse":[19,39,59,80,100,120,139,160,180,200,221,240,260,280,299,319,339,360,380,400,419,441,460,479,500,520,540,560,579,599,620,639,659,679,699,719,740,760,779,799,821,840,860,880,900,919,939,959,981,1000,1020,1039,1060,1079,1099,1121],"xSR":741.5,"ySR":469.95,"xT1":424.9,"yT1":0,"xT2":1058.1,"yT2":0,"toosoon":0,"cond_shown":"Incongruent","ratio_trial":300,"L_num":2,"L_den":4,"R_num":6,"R_den":30,"correct_side":1,"subjID":"Juan Diego Castillo Naranjo 35","gender":"0","school":"4","age":"8"},{"start_time":1552073667193,"click_time":1552073669562,"finger_time":1552073668802,"fix_duration":250,"trial":22,"RT":1609,"MT":760,"sideResp":1,"stimulus":[],"xmouse":[768,768,768,768,768,768,768,768,768,768,768,768,768,768,768,768,768,768,768,768,768,768,768,768,767,767,767,767,767,767,766,765,762,761,760,759,758,758,758,758,758,758,758,758,758,758,758,758,758,758,758,758,758,758,759,761,762,764,765,767,767,768,769,769,771,771,771,772,772,772,772,772,772,772,772,772,770,765,752,745,724,706,652,589,567,559,557,545,524,512,470,432,368,355,353,355,366,399,408,411,414,414,414,414,414,415,418,427,428,429,429,429,429,430,430,431,432,441,444],"ymouse":[516,516,516,516,516,516,516,516,516,516,516,516,516,516,516,516,516,516,516,516,516,516,516,516,516,516,516,516,516,516,516,516,516,516,516,516,516,516,516,516,516,516,516,516,516,516,516,516,516,516,516,516,516,516,516,516,516,516,516,516,516,516,516,516,516,516,516,516,516,516,516,516,516,516,516,516,516,514,510,508,501,496,489,479,475,471,467,441,396,379,320,285,220,208,205,201,196,183,175,171,164,158,151,151,150,147,140,121,117,113,111,111,111,110,110,110,108,102,98],"timestamp_mouse":[10,29,50,69,88,109,128,148,168,189,208,230,248,269,288,308,330,348,368,389,410,429,448,468,489,508,529,548,569,588,608,628,648,668,688,708,729,749,768,789,808,829,849,869,889,908,928,948,969,988,1010,1029,1049,1068,1090,1108,1129,1148,1169,1188,1209,1229,1248,1268,1289,1309,1329,1348,1370,1389,1409,1429,1448,1470,1488,1509,1529,1548,1568,1589,1609,1629,1648,1668,1688,1708,1728,1749,1769,1789,1809,1829,1849,1868,1889,1909,1930,1948,1969,1989,2008,2028,2048,2068,2088,2108,2130,2148,2168,2188,2208,2228,2249,2268,2289,2308,2329,2348,2369],"xSR":741.5,"ySR":469.95,"xT1":424.9,"yT1":0,"xT2":1058.1,"yT2":0,"toosoon":0,"cond_shown":"Congruent","ratio_trial":100,"L_num":3,"L_den":20,"R_num":4,"R_den":16,"correct_side":2,"subjID":"Juan Diego Castillo Naranjo 35","gender":"0","school":"4","age":"8"},{"start_time":1552073676790,"click_time":1552073678042,"finger_time":1552073677661,"fix_duration":1105.6657080944203,"trial":23,"RT":871,"MT":381,"sideResp":1,"stimulus":[],"xmouse":[796,796,794,792,791,791,791,791,791,791,791,791,791,791,791,791,791,791,791,791,791,791,791,791,791,791,791,791,791,791,791,791,791,791,791,791,791,791,791,791,790,786,756,713,634,551,531,510,507,507,507,507,507,501,497,497,497,517,523,525,502,480,444],"ymouse":[539,539,539,539,539,539,539,539,539,539,539,539,539,539,539,539,539,539,539,539,539,539,539,539,539,539,539,539,539,539,539,539,539,539,539,539,539,539,539,539,539,539,539,539,537,530,529,525,524,524,524,523,484,453,421,394,363,310,286,261,178,127,59],"timestamp_mouse":[11,31,51,71,91,113,131,151,172,191,212,232,251,273,293,311,332,353,372,391,412,432,451,471,492,511,532,551,571,593,612,631,651,671,692,712,732,751,771,792,811,831,851,871,892,912,931,951,973,993,1011,1032,1051,1071,1091,1111,1132,1152,1172,1191,1211,1231,1251],"xSR":741.5,"ySR":469.95,"xT1":424.9,"yT1":0,"xT2":1058.1,"yT2":0,"toosoon":0,"cond_shown":"Congruent","ratio_trial":300,"L_num":1,"L_den":3,"R_num":19,"R_den":30,"correct_side":2,"subjID":"Juan Diego Castillo Naranjo 35","gender":"0","school":"4","age":"8"},{"start_time":1552073681645,"click_time":1552073682782,"finger_time":1552073682362,"fix_duration":902.8934032085883,"trial":24,"RT":717,"MT":420,"sideResp":2,"stimulus":[],"xmouse":[793,793,793,793,793,793,793,793,793,793,793,793,793,793,793,793,793,793,793,793,793,793,793,793,793,793,793,793,793,793,793,793,794,798,819,834,850,859,872,898,911,922,933,941,958,970,972,975,975,975,975,976,976,980,1011,1030,1062],"ymouse":[515,515,515,515,515,515,515,515,515,515,515,515,515,515,515,515,515,515,515,515,515,515,515,515,515,515,515,515,515,515,515,515,509,501,472,456,431,413,386,312,271,230,192,165,116,95,93,89,89,89,89,88,88,88,88,87,84],"timestamp_mouse":[16,36,57,76,96,118,138,156,176,196,218,237,257,276,296,316,336,357,377,396,417,438,457,477,497,517,536,556,578,596,617,638,656,677,696,717,737,756,776,797,817,837,857,876,897,916,937,957,976,996,1017,1037,1056,1078,1096,1117,1137],"xSR":741.5,"ySR":469.95,"xT1":424.9,"yT1":0,"xT2":1058.1,"yT2":0,"toosoon":0,"cond_shown":"Congruent","ratio_trial":100,"L_num":7,"L_den":14,"R_num":15,"R_den":25,"correct_side":2,"subjID":"Juan Diego Castillo Naranjo 35","gender":"0","school":"4","age":"8"},{"start_time":1552073685960,"click_time":1552073688001,"finger_time":1552073686702,"fix_duration":1218.065484393978,"trial":25,"RT":742,"MT":1299,"sideResp":1,"stimulus":[],"xmouse":[805,804,804,802,800,799,798,797,796,795,794,794,794,794,794,794,794,794,794,794,794,794,794,794,794,794,794,793,792,791,791,791,791,791,791,791,791,786,785,779,776,775,775,775,775,775,775,775,775,775,775,774,771,769,764,763,763,763,763,807,867,947,978,1002,1022,1026,1026,1026,1026,1025,1019,1000,978,954,895,875,863,853,840,796,754,709,636,544,427,407,395,381,365,323,307,302,302,303,322,341,362,376,384,396,402,411,426],"ymouse":[511,511,511,511,511,511,511,511,511,511,512,512,512,512,512,512,512,512,512,512,512,512,512,512,512,512,512,512,512,512,512,512,512,512,512,510,489,457,435,402,385,381,381,380,380,380,380,380,380,380,380,380,380,380,380,380,380,380,380,380,373,318,278,240,213,209,207,207,207,207,207,210,214,217,225,227,229,229,229,229,220,208,188,163,129,118,109,99,88,63,50,36,30,27,24,23,23,23,23,23,23,23,23],"timestamp_mouse":[9,32,42,62,81,101,122,142,162,181,202,223,242,262,281,302,321,342,362,381,401,422,442,461,481,502,522,541,562,581,602,621,643,662,681,701,722,742,761,781,801,821,841,862,882,903,922,941,962,982,1001,1021,1042,1061,1081,1101,1121,1141,1162,1181,1202,1221,1242,1261,1281,1301,1322,1341,1363,1381,1402,1421,1441,1461,1481,1502,1522,1541,1561,1581,1601,1621,1641,1661,1682,1702,1722,1743,1762,1782,1802,1821,1841,1861,1881,1902,1922,1941,1962,1982,2003,2022,2041],"xSR":741.5,"ySR":469.95,"xT1":424.9,"yT1":0,"xT2":1058.1,"yT2":0,"toosoon":0,"cond_shown":"Congruent","ratio_trial":200,"L_num":4,"L_den":10,"R_num":3,"R_den":15,"correct_side":1,"subjID":"Juan Diego Castillo Naranjo 35","gender":"0","school":"4","age":"8"},{"start_time":1552073691740,"click_time":1552073693462,"finger_time":1552073692641,"fix_duration":677.583735466983,"trial":26,"RT":901,"MT":821,"sideResp":2,"stimulus":[],"xmouse":[748,748,748,748,748,748,748,748,748,748,748,748,749,751,754,759,761,765,766,768,773,777,779,780,781,783,784,785,786,787,790,793,795,797,798,801,802,806,809,811,817,819,822,826,832,851,853,857,858,858,859,859,859,859,859,859,859,856,853,848,841,837,835,834,834,834,834,834,834,848,910,937,957,973,981,991,993,993,993,993,993,998,1019,1048,1068,1092,1107],"ymouse":[505,505,505,505,505,505,505,505,505,505,505,505,505,505,505,505,505,505,505,505,505,505,505,505,505,505,505,505,505,505,505,505,505,505,505,505,505,505,504,503,500,499,497,495,493,486,484,481,480,479,479,479,479,479,479,479,479,479,479,479,479,479,479,479,479,479,479,477,469,434,318,259,208,155,133,112,110,110,110,110,110,110,110,110,110,103,95],"timestamp_mouse":[9,30,42,63,81,102,122,143,161,183,203,223,241,262,282,301,321,343,362,381,401,422,441,461,481,501,521,541,561,582,601,621,642,661,681,701,721,742,761,782,801,822,841,862,882,901,922,942,962,982,1002,1022,1042,1061,1083,1102,1121,1141,1162,1183,1201,1222,1241,1262,1283,1301,1322,1341,1361,1381,1401,1422,1441,1461,1483,1502,1522,1541,1561,1581,1601,1623,1642,1662,1682,1701,1721],"xSR":741.5,"ySR":469.95,"xT1":424.9,"yT1":0,"xT2":1058.1,"yT2":0,"toosoon":0,"cond_shown":"Congruent","ratio_trial":200,"L_num":6,"L_den":12,"R_num":7,"R_den":10,"correct_side":2,"subjID":"Juan Diego Castillo Naranjo 35","gender":"0","school":"4","age":"8"},{"start_time":1552073695588,"click_time":1552073696623,"finger_time":1552073696461,"fix_duration":305.33429138792224,"trial":27,"RT":873,"MT":162,"sideResp":1,"stimulus":[],"xmouse":[781,781,781,780,780,780,779,779,779,779,779,779,779,779,779,779,779,779,778,778,778,778,778,778,778,778,778,778,778,778,778,778,778,778,778,776,775,768,765,759,756,753,751,750,750,747,734,671,625,579,515,485],"ymouse":[557,556,556,555,555,555,554,554,554,554,554,554,554,554,554,554,554,554,554,553,553,553,553,553,553,553,553,553,553,553,553,553,553,553,553,551,548,533,525,513,504,494,477,466,447,422,380,282,233,184,114,73],"timestamp_mouse":[13,33,53,73,94,114,133,153,173,195,214,234,253,273,294,315,334,353,374,393,415,434,453,475,493,514,533,554,573,594,613,634,653,674,694,713,734,754,774,793,815,834,853,873,893,913,934,954,974,994,1014,1034],"xSR":741.5,"ySR":469.95,"xT1":424.9,"yT1":0,"xT2":1058.1,"yT2":0,"toosoon":0,"cond_shown":"Incongruent","ratio_trial":300,"L_num":4,"L_den":20,"R_num":2,"R_den":4,"correct_side":2,"subjID":"Juan Diego Castillo Naranjo 35","gender":"0","school":"4","age":"8"},{"start_time":1552073705165,"click_time":1552073706342,"finger_time":1552073705802,"fix_duration":1122.8815518721435,"trial":28,"RT":637,"MT":540,"sideResp":2,"stimulus":[],"xmouse":[758,758,758,758,758,758,758,758,758,758,758,758,758,758,758,758,758,758,758,758,758,758,758,758,758,758,758,761,768,770,779,800,822,867,894,924,958,982,1025,1039,1045,1048,1048,1049,1049,1049,1048,1048,1047,1046,1046,1046,1046,1046,1046,1046,1046,1048,1062],"ymouse":[481,481,481,481,481,481,481,481,481,481,481,481,481,481,481,481,481,481,481,481,481,481,481,481,481,481,481,479,478,478,476,464,448,398,364,324,284,253,194,174,158,145,141,139,138,137,132,126,118,115,112,112,111,110,110,109,108,104,91],"timestamp_mouse":[17,38,58,76,96,117,138,156,177,197,216,238,257,276,297,317,337,357,376,397,417,437,456,476,498,516,536,557,576,597,616,637,656,676,696,717,737,756,776,797,817,837,857,877,896,916,936,956,977,997,1018,1036,1057,1077,1097,1116,1136,1157,1176],"xSR":741.5,"ySR":469.95,"xT1":424.9,"yT1":0,"xT2":1058.1,"yT2":0,"toosoon":0,"cond_shown":"Incongruent","ratio_trial":200,"L_num":3,"L_den":4,"R_num":11,"R_den":20,"correct_side":1,"subjID":"Juan Diego Castillo Naranjo 35","gender":"0","school":"4","age":"8"},{"start_time":1552073711349,"click_time":1552073712742,"finger_time":1552073712141,"fix_duration":505.9739948798729,"trial":29,"RT":792,"MT":601,"sideResp":2,"stimulus":[],"xmouse":[790,790,790,790,790,790,790,790,790,790,790,790,790,790,790,790,790,790,790,790,790,790,790,790,790,790,790,790,790,790,790,790,790,790,790,795,802,810,822,845,855,868,874,879,887,891,896,898,903,909,912,914,920,925,931,933,937,942,946,954,959,965,968,974,998,1012,1024,1036,1045,1063],"ymouse":[546,547,547,547,547,547,547,547,547,547,547,547,547,547,547,547,547,547,547,547,547,547,547,547,547,547,547,547,547,547,547,547,547,547,547,537,522,507,487,443,425,410,402,397,393,391,389,387,384,373,363,343,307,299,286,280,272,259,247,218,207,190,178,161,119,102,85,69,53,24],"timestamp_mouse":[21,36,54,72,94,113,132,152,173,192,213,232,254,273,292,313,333,354,372,392,413,432,453,472,493,514,533,552,572,601,612,632,652,672,693,712,732,753,772,792,812,832,852,872,893,912,934,953,973,992,1012,1033,1052,1072,1092,1113,1133,1152,1173,1192,1213,1232,1252,1272,1292,1313,1333,1352,1374,1392],"xSR":741.5,"ySR":469.95,"xT1":424.9,"yT1":0,"xT2":1058.1,"yT2":0,"toosoon":0,"cond_shown":"Congruent","ratio_trial":200,"L_num":7,"L_den":15,"R_num":18,"R_den":27,"correct_side":2,"subjID":"Juan Diego Castillo Naranjo 35","gender":"0","school":"4","age":"8"},{"start_time":1552073714932,"click_time":1552073716002,"finger_time":1552073715581,"fix_duration":390.2239221063598,"trial":30,"RT":649,"MT":421,"sideResp":2,"stimulus":[],"xmouse":[770,770,770,770,770,770,770,771,771,771,771,771,771,771,771,771,771,771,771,771,771,771,771,771,771,771,772,776,780,788,802,808,813,827,839,870,886,896,906,916,942,955,962,984,996,1011,1016,1021,1028,1030,1040,1045,1053,1060],"ymouse":[541,541,541,541,541,541,541,541,541,539,539,539,539,539,539,539,539,539,539,539,539,539,539,539,539,539,538,535,529,519,496,484,469,447,431,397,379,367,355,343,319,307,286,261,244,214,200,187,173,160,138,126,109,97],"timestamp_mouse":[10,37,49,70,90,110,131,151,170,191,211,229,251,270,290,309,331,350,371,389,409,430,449,469,490,509,529,549,569,589,609,630,649,669,689,710,729,749,770,791,809,830,850,869,889,909,929,949,970,989,1011,1029,1049,1069],"xSR":741.5,"ySR":469.95,"xT1":424.9,"yT1":0,"xT2":1058.1,"yT2":0,"toosoon":0,"cond_shown":"Congruent","ratio_trial":300,"L_num":7,"L_den":14,"R_num":20,"R_den":25,"correct_side":2,"subjID":"Juan Diego Castillo Naranjo 35","gender":"0","school":"4","age":"8"},{"start_time":1552073717752,"click_time":1552073718742,"finger_time":1552073718082,"fix_duration":250,"trial":31,"RT":330,"MT":660,"sideResp":2,"stimulus":[],"xmouse":[756,756,756,756,756,756,756,757,757,760,764,774,786,792,808,817,824,831,838,848,853,855,859,864,873,879,884,891,899,912,927,935,946,955,970,980,988,996,1003,1009,1010,1014,1020,1023,1031,1036,1042,1045,1050,1060],"ymouse":[556,556,556,556,556,556,557,557,558,558,552,544,529,517,492,477,465,454,443,426,420,415,407,401,387,377,366,353,340,309,282,260,238,216,178,165,150,139,131,124,121,119,114,112,104,98,90,81,69,44],"timestamp_mouse":[9,36,50,70,90,110,129,149,170,189,210,229,250,270,290,309,330,350,370,390,409,430,451,469,489,509,530,549,570,589,611,629,649,669,689,709,730,749,770,789,810,829,850,869,889,909,930,949,969,989],"xSR":741.5,"ySR":469.95,"xT1":424.9,"yT1":0,"xT2":1058.1,"yT2":0,"toosoon":0,"cond_shown":"Incongruent","ratio_trial":100,"L_num":10,"L_den":25,"R_num":9,"R_den":18,"correct_side":2,"subjID":"Juan Diego Castillo Naranjo 35","gender":"0","school":"4","age":"8"},{"start_time":1552073720769,"click_time":1552073721341,"finger_time":1552073721182,"fix_duration":667.259781777554,"trial":32,"RT":413,"MT":159,"sideResp":2,"stimulus":[],"xmouse":[813,813,813,813,813,813,813,813,813,813,813,813,813,813,813,813,813,813,814,827,846,878,902,965,994,1016,1036,1051,1070],"ymouse":[500,500,500,500,500,500,500,500,500,500,500,500,500,500,500,500,500,500,499,495,484,454,424,320,262,211,163,128,84],"timestamp_mouse":[14,34,53,73,93,114,133,153,173,193,212,233,253,272,292,312,333,352,372,392,413,432,453,473,492,513,533,553,572],"xSR":741.5,"ySR":469.95,"xT1":424.9,"yT1":0,"xT2":1058.1,"yT2":0,"toosoon":0,"cond_shown":"Congruent","ratio_trial":200,"L_num":7,"L_den":15,"R_num":18,"R_den":27,"correct_side":2,"subjID":"Juan Diego Castillo Naranjo 35","gender":"0","school":"4","age":"8"},{"start_time":1552073723169,"click_time":1552073723841,"finger_time":1552073723402,"fix_duration":527.9456719669225,"trial":33,"RT":233,"MT":439,"sideResp":2,"stimulus":[],"xmouse":[778,777,777,777,781,790,799,806,819,829,832,844,852,866,877,888,901,913,933,940,947,950,953,957,959,959,961,967,980,991,1010,1024,1041,1078],"ymouse":[509,511,515,516,517,517,514,509,493,476,471,451,437,411,394,374,352,331,286,268,244,233,226,216,214,213,211,205,191,180,158,144,129,85],"timestamp_mouse":[14,32,53,73,92,113,133,153,172,192,213,233,252,272,292,312,333,352,372,394,412,433,452,472,492,512,533,553,572,592,612,633,652,672],"xSR":741.5,"ySR":469.95,"xT1":424.9,"yT1":0,"xT2":1058.1,"yT2":0,"toosoon":0,"cond_shown":"Incongruent","ratio_trial":200,"L_num":7,"L_den":15,"R_num":4,"R_den":6,"correct_side":2,"subjID":"Juan Diego Castillo Naranjo 35","gender":"0","school":"4","age":"8"},{"start_time":1552073726573,"click_time":1552073727943,"finger_time":1552073727261,"fix_duration":1409.307156336962,"trial":34,"RT":688,"MT":682,"sideResp":2,"stimulus":[],"xmouse":[811,811,811,811,811,811,811,811,811,811,811,811,811,811,811,811,811,811,811,811,811,811,811,811,811,811,811,811,811,811,811,811,811,811,817,823,828,830,831,833,835,843,851,879,896,918,935,949,968,986,1010,1023,1043,1057,1057,1057,1057,1057,1057,1057,1057,1057,1057,1057,1057,1057,1057,1057,1114],"ymouse":[499,499,499,499,499,499,499,499,499,499,499,499,499,499,499,499,499,499,499,499,499,499,499,499,499,499,499,499,499,499,499,499,499,481,465,447,436,428,417,412,403,390,378,341,320,291,260,233,174,131,78,54,23,0,0,0,0,0,0,0,0,0,0,0,0,0,0,0,3],"timestamp_mouse":[18,39,50,69,88,109,128,150,168,189,209,230,248,269,288,308,329,348,368,388,408,428,449,470,489,509,528,550,568,588,610,630,648,668,688,710,729,750,769,789,808,828,848,869,888,908,929,950,968,989,1008,1029,1048,1068,1088,1110,1128,1150,1169,1188,1209,1229,1248,1269,1288,1309,1328,1349,1369],"xSR":741.5,"ySR":469.95,"xT1":424.9,"yT1":0,"xT2":1058.1,"yT2":0,"toosoon":0,"cond_shown":"Congruent","ratio_trial":100,"L_num":15,"L_den":25,"R_num":13,"R_den":26,"correct_side":1,"subjID":"Juan Diego Castillo Naranjo 35","gender":"0","school":"4","age":"8"},{"start_time":1552073733689,"click_time":1552073735863,"finger_time":1552073735222,"fix_duration":1365.6975502700432,"trial":35,"RT":1533,"MT":641,"sideResp":2,"stimulus":[],"xmouse":[825,825,825,825,825,825,825,825,825,825,825,825,825,825,825,825,825,825,825,825,825,825,825,825,825,825,825,825,825,825,825,825,825,825,825,825,825,825,825,825,825,825,825,825,825,825,825,825,825,825,825,825,825,825,825,825,825,825,825,825,825,825,825,825,825,825,825,825,825,825,825,825,825,825,825,832,851,881,893,905,920,934,955,965,975,984,989,993,995,998,1000,1004,1012,1018,1022,1026,1026,1027,1031,1036,1038,1042,1047,1050,1050,1052,1055,1057,1059],"ymouse":[487,487,487,487,487,487,487,487,487,487,487,487,487,487,487,487,487,487,487,487,487,487,487,487,487,487,487,487,487,487,487,487,487,487,487,487,487,487,487,487,487,487,487,487,487,487,487,487,487,487,487,487,487,487,487,487,487,487,487,487,487,487,487,487,487,487,487,487,487,487,487,487,487,487,487,479,467,448,440,430,417,402,372,355,336,316,304,284,274,265,257,247,212,185,174,167,165,158,150,141,133,122,103,94,88,80,69,58,55],"timestamp_mouse":[12,33,52,74,93,112,133,153,172,192,212,232,252,273,294,312,334,352,372,392,412,432,452,472,494,513,532,554,573,592,614,632,652,672,692,713,732,752,772,794,813,833,852,873,893,912,933,954,973,992,1013,1033,1053,1074,1092,1112,1132,1152,1172,1192,1212,1232,1252,1272,1293,1313,1332,1352,1373,1393,1412,1432,1453,1473,1492,1513,1533,1552,1573,1593,1613,1634,1653,1673,1692,1712,1732,1752,1772,1793,1813,1833,1852,1872,1892,1912,1932,1953,1972,1993,2012,2033,2052,2073,2092,2114,2133,2152,2174],"xSR":741.5,"ySR":469.95,"xT1":424.9,"yT1":0,"xT2":1058.1,"yT2":0,"toosoon":0,"cond_shown":"Congruent","ratio_trial":300,"L_num":1,"L_den":20,"R_num":7,"R_den":20,"correct_side":2,"subjID":"Juan Diego Castillo Naranjo 35","gender":"0","school":"4","age":"8"},{"start_time":1552073739885,"click_time":1552073743622,"finger_time":1552073742922,"fix_duration":522.3437170029505,"trial":36,"RT":3037,"MT":700,"sideResp":1,"stimulus":[],"xmouse":[766,766,766,766,766,766,766,766,766,766,766,766,766,766,766,766,766,766,766,766,766,766,766,766,766,766,766,766,766,766,766,766,766,766,766,766,766,766,766,766,766,766,766,766,766,766,766,766,766,766,766,766,766,766,766,766,766,766,766,766,766,766,766,766,766,766,766,766,766,766,766,766,766,766,766,766,766,766,766,766,766,766,766,766,766,766,766,766,766,766,766,766,766,766,766,766,766,766,766,766,766,766,766,766,766,766,766,766,766,766,766,766,766,766,766,766,766,766,766,766,766,766,766,766,766,766,766,766,766,766,766,766,766,765,765,765,763,761,760,759,759,759,758,758,758,758,758,753,750,747,745,738,725,719,705,691,679,662,647,638,624,612,596,592,592,595,598,596,592,589,589,589,589,589,589,589,589,589,589,587,585,581,561,550,537,528,519],"ymouse":[558,558,558,558,558,558,558,558,558,558,558,558,558,558,558,558,558,558,558,558,558,558,558,558,558,558,558,558,558,558,558,558,558,558,558,558,558,558,558,558,558,558,558,558,558,558,558,558,558,558,558,558,558,558,558,558,558,558,558,558,558,558,558,558,558,558,558,558,558,558,558,558,558,558,558,558,558,558,558,558,558,558,558,558,558,558,558,558,558,558,558,558,558,558,558,558,558,558,558,558,558,558,558,558,558,558,558,558,558,558,558,558,558,558,558,558,558,558,558,558,558,558,558,558,558,558,558,558,558,558,558,558,558,550,546,537,531,522,521,520,519,519,518,518,518,518,517,514,512,511,508,499,476,467,441,417,396,353,322,300,266,241,207,186,177,147,126,94,88,83,83,83,83,83,83,83,83,83,83,83,82,80,68,60,50,43,40],"timestamp_mouse":[16,38,56,77,97,116,136,156,177,198,216,236,256,276,297,316,336,356,378,397,417,437,457,477,496,516,537,556,577,598,616,637,657,676,698,717,737,756,777,796,817,836,856,878,898,916,936,956,977,998,1017,1037,1057,1078,1096,1116,1137,1156,1177,1196,1218,1236,1257,1276,1298,1316,1336,1356,1377,1396,1417,1437,1458,1477,1496,1517,1537,1556,1578,1598,1617,1637,1656,1677,1698,1717,1736,1757,1778,1798,1816,1838,1856,1878,1896,1916,1936,1958,1977,1997,2017,2036,2057,2076,2098,2116,2138,2158,2177,2196,2217,2238,2258,2277,2298,2318,2337,2356,2378,2398,2417,2437,2456,2477,2497,2516,2536,2557,2577,2598,2617,2637,2656,2676,2696,2717,2737,2756,2776,2798,2816,2837,2856,2876,2897,2916,2936,2956,2976,2996,3017,3037,3056,3077,3096,3117,3136,3156,3177,3197,3217,3237,3256,3276,3297,3318,3337,3357,3377,3397,3417,3437,3456,3477,3498,3517,3537,3557,3576,3596,3618,3637,3657,3676,3696,3716,3737],"xSR":741.5,"ySR":469.95,"xT1":424.9,"yT1":0,"xT2":1058.1,"yT2":0,"toosoon":0,"cond_shown":"Congruent","ratio_trial":100,"L_num":2,"L_den":5,"R_num":6,"R_den":12,"correct_side":2,"subjID":"Juan Diego Castillo Naranjo 35","gender":"0","school":"4","age":"8"},{"start_time":1552073745426,"click_time":1552073747402,"finger_time":1552073746461,"fix_duration":524.8052133855671,"trial":37,"RT":1035,"MT":941,"sideResp":1,"stimulus":[],"xmouse":[798,798,798,798,798,798,798,798,798,798,798,798,798,798,798,798,798,798,798,798,798,798,798,798,798,798,798,798,798,798,798,798,798,798,798,798,798,798,798,798,798,798,798,798,798,798,798,798,798,798,796,783,770,737,702,667,656,642,632,623,614,613,610,608,604,595,589,584,579,569,565,565,565,565,565,565,565,565,565,564,541,511,486,468,462,462,462,462,462,462,462,462,462,462,462,462,462,465,471],"ymouse":[495,495,495,495,495,495,495,495,495,495,495,495,495,495,495,495,495,495,495,495,495,495,495,495,495,495,495,495,495,495,495,495,495,495,495,495,495,495,495,495,495,495,495,495,495,495,495,495,495,495,490,468,444,386,341,290,274,253,239,228,214,209,206,201,194,180,174,166,157,147,142,142,142,142,142,142,142,142,142,141,136,131,128,126,125,125,125,125,125,125,125,125,125,125,125,119,114,107,99],"timestamp_mouse":[19,39,57,75,97,117,135,156,177,195,215,237,257,276,296,315,336,357,376,397,415,436,456,476,495,517,536,557,577,597,615,636,657,675,697,715,735,757,777,795,816,836,857,875,895,915,937,957,976,995,1015,1035,1056,1075,1096,1116,1137,1155,1175,1195,1216,1236,1256,1275,1296,1315,1335,1355,1377,1396,1415,1435,1456,1477,1496,1515,1535,1556,1577,1595,1615,1635,1655,1676,1696,1716,1736,1756,1776,1797,1816,1835,1856,1875,1896,1915,1936,1956,1976],"xSR":741.5,"ySR":469.95,"xT1":424.9,"yT1":0,"xT2":1058.1,"yT2":0,"toosoon":0,"cond_shown":"Congruent","ratio_trial":100,"L_num":10,"L_den":25,"R_num":3,"R_den":10,"correct_side":1,"subjID":"Juan Diego Castillo Naranjo 35","gender":"0","school":"4","age":"8"},{"start_time":1552073749658,"click_time":1552073750801,"finger_time":1552073750242,"fix_duration":653.5841407579277,"trial":38,"RT":584,"MT":559,"sideResp":2,"stimulus":[],"xmouse":[765,765,765,765,765,765,765,765,765,765,765,765,765,765,765,765,765,765,765,765,765,765,765,765,765,765,765,766,769,774,777,782,791,793,794,794,797,803,838,889,932,950,959,964,972,976,981,985,991,1003,1011,1024,1037,1046,1055,1057,1057,1061],"ymouse":[475,475,475,475,475,475,475,475,475,475,475,475,475,475,475,475,475,475,475,475,475,475,475,475,475,475,475,475,472,458,453,442,418,398,378,356,334,298,239,204,168,146,132,121,106,101,96,96,95,93,92,91,89,87,85,82,82,76],"timestamp_mouse":[3,35,44,65,84,104,124,144,164,183,204,223,245,265,283,305,323,345,363,384,404,424,443,464,483,503,523,544,564,584,603,624,643,664,684,704,724,743,763,783,805,824,843,863,884,904,923,944,964,985,1003,1024,1043,1064,1083,1103,1124,1143],"xSR":741.5,"ySR":469.95,"xT1":424.9,"yT1":0,"xT2":1058.1,"yT2":0,"toosoon":0,"cond_shown":"Congruent","ratio_trial":100,"L_num":2,"L_den":5,"R_num":6,"R_den":12,"correct_side":2,"subjID":"Juan Diego Castillo Naranjo 35","gender":"0","school":"4","age":"8"},{"start_time":1552073752517,"click_time":1552073753662,"finger_time":1552073753441,"fix_duration":913.1197355207416,"trial":39,"RT":924,"MT":221,"sideResp":1,"stimulus":[],"xmouse":[823,823,823,823,823,823,823,823,823,823,823,823,823,823,823,823,823,823,823,823,823,823,823,823,823,823,823,823,823,823,823,817,809,808,793,787,785,785,785,785,785,785,785,783,780,774,759,753,739,726,712,671,636,623,581,556,528,521],"ymouse":[513,513,513,513,513,513,513,513,513,513,513,513,513,513,513,513,513,513,513,513,513,513,513,513,513,513,513,513,513,513,513,513,513,512,512,512,512,512,512,512,512,512,512,510,502,485,444,418,387,356,328,261,218,205,166,144,104,86],"timestamp_mouse":[7,24,45,65,85,106,126,145,166,185,204,225,245,264,284,304,324,345,365,384,404,424,445,466,485,504,526,545,566,585,605,625,644,665,685,706,724,745,764,784,804,824,845,864,884,905,924,944,964,985,1004,1024,1045,1065,1084,1104,1125,1145],"xSR":741.5,"ySR":469.95,"xT1":424.9,"yT1":0,"xT2":1058.1,"yT2":0,"toosoon":0,"cond_shown":"Congruent","ratio_trial":100,"L_num":10,"L_den":25,"R_num":3,"R_den":10,"correct_side":1,"subjID":"Juan Diego Castillo Naranjo 35","gender":"0","school":"4","age":"8"},{"start_time":1552073755742,"click_time":1552073756641,"finger_time":1552073756282,"fix_duration":1119.800679798286,"trial":40,"RT":540,"MT":359,"sideResp":2,"stimulus":[],"xmouse":[790,790,790,790,791,791,791,791,791,791,791,791,791,791,791,791,791,791,791,791,793,793,793,793,793,793,794,798,818,835,865,883,896,911,925,962,988,1006,1029,1044,1074,1087,1090,1090,1091,1091],"ymouse":[500,500,500,498,498,497,497,497,497,497,497,497,497,497,497,497,497,492,486,481,473,472,472,472,472,472,470,468,452,436,392,367,343,321,304,261,231,208,183,167,138,121,112,106,102,99],"timestamp_mouse":[1,34,41,60,80,99,119,139,160,179,199,219,239,259,280,300,319,340,359,380,401,420,440,459,479,500,520,540,560,579,599,619,639,659,679,700,720,740,760,780,799,819,839,860,879,899],"xSR":741.5,"ySR":469.95,"xT1":424.9,"yT1":0,"xT2":1058.1,"yT2":0,"toosoon":0,"cond_shown":"Incongruent","ratio_trial":200,"L_num":4,"L_den":6,"R_num":14,"R_den":30,"correct_side":1,"subjID":"Juan Diego Castillo Naranjo 35","gender":"0","school":"4","age":"8"},{"start_time":1552073764991,"click_time":1552073766402,"finger_time":1552073765682,"fix_duration":967.7420533322655,"trial":41,"RT":691,"MT":720,"sideResp":2,"stimulus":[],"xmouse":[808,808,808,808,808,808,808,808,808,808,808,808,808,808,808,808,808,808,808,808,808,808,808,808,808,808,808,808,808,808,808,808,808,819,833,850,868,898,913,920,927,927,933,939,947,954,960,970,980,984,993,999,1009,1014,1018,1020,1020,1020,1027,1027,1027,1030,1032,1033,1033,1033,1033,1033,1037,1054,1062],"ymouse":[511,511,511,511,511,511,511,511,511,511,511,511,511,511,511,511,511,511,511,511,511,511,511,511,511,511,511,511,511,511,511,511,508,491,467,443,422,387,373,368,363,363,360,351,338,324,308,283,263,256,237,223,189,177,161,153,153,153,137,137,136,134,136,147,147,147,147,147,139,72,41],"timestamp_mouse":[11,30,50,72,92,111,131,151,171,190,211,232,252,271,291,311,331,351,371,390,410,431,452,471,491,512,532,550,571,591,610,631,651,670,691,710,730,750,771,790,812,830,850,871,890,910,932,950,971,990,1010,1031,1051,1070,1091,1110,1131,1150,1170,1190,1210,1231,1250,1271,1291,1310,1331,1350,1372,1391,1411],"xSR":741.5,"ySR":469.95,"xT1":424.9,"yT1":0,"xT2":1058.1,"yT2":0,"toosoon":0,"cond_shown":"Incongruent","ratio_trial":200,"L_num":4,"L_den":6,"R_num":14,"R_den":30,"correct_side":1,"subjID":"Juan Diego Castillo Naranjo 35","gender":"0","school":"4","age":"8"},{"start_time":1552073771126,"click_time":1552073773542,"finger_time":1552073772641,"fix_duration":443.2381066027051,"trial":42,"RT":1515,"MT":901,"sideResp":1,"stimulus":[],"xmouse":[801,801,801,801,801,801,801,801,801,801,801,801,801,801,801,801,801,801,801,801,801,801,801,801,801,801,801,801,801,801,801,801,801,801,801,801,801,801,801,801,801,801,801,801,801,801,801,801,801,801,801,801,801,801,801,801,801,801,801,801,800,800,800,799,796,796,796,796,803,812,822,823,823,823,804,680,605,558,539,533,532,532,532,532,532,532,532,536,540,544,561,571,585,591,593,593,593,592,590,588,577,576,572,548,491,408,399,397,397,397,396,396,396,396,396,396,399,408,415,420,425],"ymouse":[556,556,556,556,556,556,556,556,556,556,556,556,556,556,556,556,556,556,556,556,556,556,556,556,556,556,556,556,556,556,556,556,556,556,556,556,556,556,556,556,556,556,556,556,556,556,556,556,556,556,556,556,556,556,556,556,556,556,556,556,555,551,540,518,510,510,510,510,522,531,544,545,545,545,532,468,439,422,415,413,413,413,413,413,413,409,403,387,353,315,257,232,200,187,182,181,181,181,181,183,183,183,183,168,130,69,49,36,25,19,13,13,13,13,13,13,13,13,14,15,16],"timestamp_mouse":[16,36,55,75,96,115,137,156,176,195,215,236,255,275,296,315,335,357,375,396,417,437,455,475,495,515,536,556,576,595,615,637,656,676,695,717,735,755,775,797,816,837,856,875,896,917,936,956,975,996,1015,1037,1056,1075,1096,1116,1137,1155,1177,1195,1216,1236,1256,1275,1295,1316,1337,1356,1375,1397,1415,1435,1456,1475,1495,1515,1536,1555,1575,1596,1617,1637,1655,1677,1695,1715,1735,1756,1777,1796,1815,1835,1855,1875,1895,1917,1936,1957,1975,1996,2015,2036,2055,2077,2096,2115,2137,2156,2175,2196,2215,2236,2257,2276,2297,2316,2335,2356,2375,2396,2415],"xSR":741.5,"ySR":469.95,"xT1":424.9,"yT1":0,"xT2":1058.1,"yT2":0,"toosoon":0,"cond_shown":"Congruent","ratio_trial":200,"L_num":9,"L_den":30,"R_num":13,"R_den":26,"correct_side":2,"subjID":"Juan Diego Castillo Naranjo 35","gender":"0","school":"4","age":"8"},{"start_time":1552073776734,"click_time":1552073779001,"finger_time":1552073777443,"fix_duration":250,"trial":43,"RT":709,"MT":1558,"sideResp":1,"stimulus":[],"xmouse":[819,819,819,818,818,816,808,803,801,799,799,799,799,799,799,799,799,799,799,799,799,799,799,799,786,770,755,747,745,742,742,742,742,742,738,727,720,712,709,709,709,709,709,709,709,712,721,730,738,746,748,752,766,777,787,787,787,787,787,787,787,787,784,781,778,775,775,776,779,780,780,780,773,754,702,666,630,598,595,595,596,597,601,601,601,601,601,601,601,601,601,601,601,601,601,601,601,599,594,585,576,574,570,570,569,569,569,569,567,560,549,536,516],"ymouse":[493,493,493,493,493,494,498,498,499,500,500,500,500,500,500,500,500,500,500,500,500,500,500,500,501,504,505,506,507,508,508,508,508,508,508,508,508,508,508,508,508,508,508,508,508,521,549,574,591,597,597,597,587,578,566,566,566,566,566,569,570,572,575,576,576,561,541,513,499,414,365,302,265,228,174,150,124,106,104,103,103,103,107,115,117,118,118,118,118,118,118,118,118,118,118,117,117,111,96,83,71,68,65,64,63,63,63,63,63,64,65,67,69],"timestamp_mouse":[28,48,67,87,107,127,148,167,187,207,229,248,268,288,307,329,348,369,388,407,428,447,467,487,509,527,548,569,587,607,629,647,668,687,709,729,749,768,788,807,827,847,869,889,907,929,947,968,988,1008,1027,1047,1067,1088,1107,1128,1148,1167,1188,1207,1227,1247,1269,1287,1307,1327,1348,1368,1388,1407,1427,1447,1468,1488,1507,1527,1548,1568,1588,1608,1629,1647,1668,1688,1707,1728,1747,1768,1788,1808,1828,1847,1868,1887,1907,1927,1947,1967,1988,2007,2028,2048,2067,2088,2107,2129,2148,2167,2188,2207,2228,2247,2267],"xSR":741.5,"ySR":469.95,"xT1":424.9,"yT1":0,"xT2":1058.1,"yT2":0,"toosoon":0,"cond_shown":"Incongruent","ratio_trial":200,"L_num":11,"L_den":20,"R_num":3,"R_den":4,"correct_side":2,"subjID":"Juan Diego Castillo Naranjo 35","gender":"0","school":"4","age":"8"},{"start_time":1552073782641,"click_time":1552073784841,"finger_time":1552073783342,"fix_duration":997.5769984634856,"trial":44,"RT":701,"MT":1499,"sideResp":2,"stimulus":[],"xmouse":[804,804,804,804,804,804,804,804,804,804,804,804,804,804,804,804,804,804,804,804,804,804,804,804,804,804,804,804,804,804,804,804,804,800,797,780,767,753,751,751,751,750,750,750,749,748,748,748,748,744,723,718,717,717,717,717,717,717,717,716,716,716,716,716,716,716,716,716,716,715,714,714,714,714,714,714,714,714,714,714,714,714,713,717,732,772,799,828,839,847,856,856,856,849,846,843,840,840,841,841,846,862,884,918,962,1015,1031,1056,1072,1088,1112],"ymouse":[535,535,535,535,535,535,535,535,535,535,535,535,535,535,535,535,535,535,535,535,535,535,535,535,535,535,535,535,535,535,535,535,535,540,551,587,608,626,626,626,626,626,622,613,610,608,608,608,608,608,610,610,610,610,610,610,610,610,610,610,610,610,610,610,610,610,610,610,610,610,610,610,610,610,610,610,610,610,610,610,610,610,610,606,595,570,552,526,504,479,423,388,328,284,267,236,224,221,220,220,220,220,220,215,203,178,167,144,127,104,67],"timestamp_mouse":[9,30,40,62,80,100,121,142,160,180,202,220,240,260,280,302,321,341,360,380,402,422,442,461,481,501,522,540,562,580,600,620,641,661,681,701,721,740,760,781,801,820,841,860,882,901,921,940,961,980,1001,1020,1040,1060,1081,1100,1122,1141,1161,1182,1201,1222,1242,1261,1280,1300,1320,1340,1362,1381,1401,1421,1441,1460,1481,1500,1521,1540,1560,1582,1600,1621,1641,1661,1680,1700,1720,1742,1761,1781,1801,1821,1840,1862,1881,1900,1920,1940,1960,1980,2000,2020,2041,2060,2080,2100,2121,2140,2161,2180,2200],"xSR":741.5,"ySR":469.95,"xT1":424.9,"yT1":0,"xT2":1058.1,"yT2":0,"toosoon":0,"cond_shown":"Congruent","ratio_trial":100,"L_num":4,"L_den":8,"R_num":6,"R_den":10,"correct_side":2,"subjID":"Juan Diego Castillo Naranjo 35","gender":"0","school":"4","age":"8"},{"start_time":1552073788877,"click_time":1552073790262,"finger_time":1552073789521,"fix_duration":1033.0249301804317,"trial":45,"RT":644,"MT":741,"sideResp":2,"stimulus":[],"xmouse":[808,808,808,808,808,808,808,808,808,808,808,808,808,808,808,808,808,808,808,808,808,808,808,808,808,808,808,808,808,808,820,836,934,1133,1238,1247,1249,1250,1251,1251,1251,1251,1251,1251,1251,1251,1251,1251,1251,1251,1251,1251,1240,1207,1192,1182,1180,1179,1179,1177,1177,1178,1178,1175,1175,1175,1174,1174,1161,1143],"ymouse":[511,511,511,511,511,511,511,511,511,511,511,511,511,511,511,511,511,511,511,511,511,511,511,511,511,511,511,511,511,511,490,475,403,253,152,142,136,132,127,127,127,127,127,127,127,125,112,105,100,100,100,100,102,111,116,120,120,121,118,98,73,49,31,12,8,8,7,7,8,15],"timestamp_mouse":[11,33,44,65,85,104,124,144,165,185,206,225,245,264,286,304,325,345,364,385,404,425,445,466,484,505,525,545,564,584,605,625,644,664,686,706,724,744,764,784,805,825,844,864,884,904,924,944,965,984,1004,1024,1045,1064,1085,1104,1124,1145,1165,1184,1204,1224,1244,1265,1285,1304,1324,1344,1364,1384],"xSR":741.5,"ySR":469.95,"xT1":424.9,"yT1":0,"xT2":1058.1,"yT2":0,"toosoon":0,"cond_shown":"Incongruent","ratio_trial":100,"L_num":13,"L_den":26,"R_num":12,"R_den":20,"correct_side":2,"subjID":"Juan Diego Castillo Naranjo 35","gender":"0","school":"4","age":"8"},{"start_time":1552073793508,"click_time":1552073794741,"finger_time":1552073794441,"fix_duration":406.1665799945275,"trial":46,"RT":933,"MT":300,"sideResp":2,"stimulus":[],"xmouse":[817,817,817,817,815,811,807,805,805,804,804,804,804,804,804,804,804,804,804,804,804,804,804,804,804,804,804,804,804,804,804,804,804,804,804,804,804,804,804,804,804,804,804,800,800,802,836,863,888,907,923,962,981,1002,1014,1029,1064,1067,1081,1095,1105,1114],"ymouse":[539,539,539,539,535,532,526,523,521,521,521,521,521,521,521,521,521,521,521,521,521,521,521,521,521,521,521,521,521,521,521,521,521,521,521,521,521,521,521,521,521,521,521,518,510,491,427,388,355,327,298,243,222,203,192,178,152,150,137,122,111,97],"timestamp_mouse":[13,33,53,72,93,113,132,152,174,193,213,234,253,274,293,312,333,353,373,394,413,434,453,473,494,513,534,553,572,594,612,632,653,674,693,713,733,753,774,794,813,833,853,873,894,912,933,952,972,992,1013,1032,1053,1072,1093,1113,1132,1154,1173,1193,1213,1233],"xSR":741.5,"ySR":469.95,"xT1":424.9,"yT1":0,"xT2":1058.1,"yT2":0,"toosoon":0,"cond_shown":"Congruent","ratio_trial":300,"L_num":20,"L_den":25,"R_num":13,"R_den":26,"correct_side":1,"subjID":"Juan Diego Castillo Naranjo 35","gender":"0","school":"4","age":"8"},{"start_time":1552073797549,"click_time":1552073798560,"finger_time":1552073798100,"fix_duration":487.50038903813595,"trial":47,"RT":551,"MT":460,"sideResp":2,"stimulus":[],"xmouse":[751,751,751,751,750,750,750,750,750,751,755,758,760,762,764,764,764,764,764,764,764,764,764,765,766,772,779,789,798,804,815,832,848,862,876,885,897,910,911,929,940,958,970,976,982,985,997,1022,1033,1056,1072],"ymouse":[507,507,507,507,507,507,507,509,512,522,525,526,527,527,527,527,527,527,527,527,527,527,527,526,509,493,476,458,441,426,409,391,364,332,277,254,233,214,213,182,165,144,135,130,124,121,115,98,90,68,52],"timestamp_mouse":[13,38,52,73,93,112,132,152,173,191,212,231,252,272,292,312,332,353,371,391,412,433,451,471,492,512,532,551,571,591,612,631,652,672,691,712,733,753,773,791,812,832,852,872,891,912,932,951,973,991,1011],"xSR":741.5,"ySR":469.95,"xT1":424.9,"yT1":0,"xT2":1058.1,"yT2":0,"toosoon":0,"cond_shown":"Incongruent","ratio_trial":100,"L_num":1,"L_den":2,"R_num":8,"R_den":20,"correct_side":1,"subjID":"Juan Diego Castillo Naranjo 35","gender":"0","school":"4","age":"8"},{"start_time":1552073804690,"click_time":1552073806020,"finger_time":1552073805541,"fix_duration":1347.232542699379,"trial":48,"RT":851,"MT":479,"sideResp":2,"stimulus":[],"xmouse":[779,775,771,771,770,770,770,770,770,770,770,770,770,770,770,770,770,770,770,770,770,770,770,770,770,770,770,770,770,770,767,762,759,759,759,759,758,758,758,758,762,784,879,971,1021,1075,1121,1211,1246,1265,1265,1265,1265,1265,1265,1265,1265,1265,1265,1265,1265,1265,1265,1265,1265,1160,1154],"ymouse":[500,500,501,501,501,501,501,501,501,501,501,501,501,501,501,501,501,501,501,501,501,501,501,501,501,501,501,501,501,501,501,501,501,501,501,501,501,501,501,501,501,495,431,331,263,203,152,81,54,15,15,15,15,15,15,15,15,15,15,15,15,15,15,15,15,1,11],"timestamp_mouse":[10,42,52,70,91,110,130,150,171,191,211,232,250,271,292,312,331,350,370,392,412,431,452,470,490,510,532,552,571,590,611,632,650,672,692,711,731,750,772,790,810,831,851,872,890,911,930,951,970,991,1011,1031,1052,1071,1091,1112,1131,1151,1171,1191,1211,1232,1251,1271,1290,1310,1330],"xSR":741.5,"ySR":469.95,"xT1":424.9,"yT1":0,"xT2":1058.1,"yT2":0,"toosoon":0,"cond_shown":"Incongruent","ratio_trial":200,"L_num":7,"L_den":10,"R_num":14,"R_den":28,"correct_side":1,"subjID":"Juan Diego Castillo Naranjo 35","gender":"0","school":"4","age":"8"},{"start_time":1552073809094,"click_time":1552073809640,"finger_time":1552073809540,"fix_duration":250,"trial":49,"RT":446,"MT":100,"sideResp":2,"stimulus":[],"xmouse":[753,753,753,753,753,753,753,753,753,753,753,753,753,753,753,753,756,761,766,771,775,780,808,844,911,954,994,1084],"ymouse":[546,546,546,546,546,546,546,546,546,546,546,546,546,546,546,546,545,539,533,526,519,509,461,407,307,246,187,77],"timestamp_mouse":[11,33,46,67,87,107,126,146,167,187,206,227,248,266,287,306,327,348,367,387,407,427,446,467,487,507,527,546],"xSR":741.5,"ySR":469.95,"xT1":424.9,"yT1":0,"xT2":1058.1,"yT2":0,"toosoon":0,"cond_shown":"Congruent","ratio_trial":200,"L_num":7,"L_den":15,"R_num":18,"R_den":27,"correct_side":2,"subjID":"Juan Diego Castillo Naranjo 35","gender":"0","school":"4","age":"8"},{"start_time":1552073811754,"click_time":1552073812662,"finger_time":1552073812340,"fix_duration":250,"trial":50,"RT":586,"MT":322,"sideResp":1,"stimulus":[],"xmouse":[828,828,828,828,828,828,828,828,828,828,828,828,828,828,828,828,828,828,828,828,828,828,828,828,828,828,827,824,815,788,758,665,634,584,524,502,483,466,453,436,431,431,431,431,434,440],"ymouse":[504,504,503,503,503,503,503,503,503,503,503,503,503,503,503,503,503,503,503,503,503,503,503,503,503,503,501,497,484,447,415,320,293,257,218,202,187,171,156,132,123,119,117,115,105,94],"timestamp_mouse":[11,30,48,66,86,106,127,148,166,188,207,227,247,267,286,308,326,347,368,387,407,426,446,468,488,507,527,547,566,586,607,626,648,667,686,707,726,746,767,786,808,826,847,867,887,908],"xSR":741.5,"ySR":469.95,"xT1":424.9,"yT1":0,"xT2":1058.1,"yT2":0,"toosoon":0,"cond_shown":"Incongruent","ratio_trial":100,"L_num":8,"L_den":20,"R_num":1,"R_den":2,"correct_side":2,"subjID":"Juan Diego Castillo Naranjo 35","gender":"0","school":"4","age":"8"},{"start_time":1552073819804,"click_time":1552073821340,"finger_time":1552073820621,"fix_duration":861.7135178122762,"trial":51,"RT":817,"MT":719,"sideResp":2,"stimulus":[],"xmouse":[792,792,792,792,792,792,792,792,792,792,792,792,792,792,792,792,792,792,792,792,792,793,794,794,794,794,794,794,794,794,794,794,794,794,793,788,788,788,787,803,828,855,858,865,883,902,922,936,947,954,962,974,979,982,983,984,988,989,998,1001,1003,1027,1035,1042,1046,1048,1049,1051,1052,1052,1052,1052,1053,1054,1058,1058,1061],"ymouse":[536,536,536,536,536,536,536,536,536,536,536,536,536,536,536,536,536,536,536,536,534,528,525,525,524,524,524,524,524,524,524,524,524,524,521,519,519,519,512,484,443,391,387,371,330,287,239,221,207,198,188,165,153,142,127,107,92,89,78,76,74,66,63,63,63,63,63,63,62,62,62,62,62,62,60,60,59],"timestamp_mouse":[18,38,57,76,96,116,138,156,177,203,216,238,258,276,298,317,336,356,376,396,417,438,456,478,497,518,536,557,576,596,617,636,656,677,697,717,736,756,777,796,817,836,856,876,897,917,936,958,977,997,1018,1036,1056,1076,1096,1116,1137,1157,1177,1197,1217,1237,1256,1277,1297,1317,1337,1357,1377,1397,1417,1436,1456,1478,1497,1517,1536],"xSR":741.5,"ySR":469.95,"xT1":424.9,"yT1":0,"xT2":1058.1,"yT2":0,"toosoon":0,"cond_shown":"Incongruent","ratio_trial":300,"L_num":8,"L_den":10,"R_num":9,"R_den":18,"correct_side":1,"subjID":"Juan Diego Castillo Naranjo 35","gender":"0","school":"4","age":"8"},{"start_time":1552073826047,"click_time":1552073828260,"finger_time":1552073826421,"fix_duration":685.2144760065579,"trial":52,"RT":374,"MT":1839,"sideResp":2,"stimulus":[],"xmouse":[788,788,788,788,788,788,788,788,788,788,788,790,790,792,795,797,799,803,805,808,811,814,819,824,828,831,832,834,834,838,845,852,862,873,873,884,928,968,995,1026,1034,1039,1041,1042,1042,1042,1042,1043,1043,1043,1043,1043,1044,1044,1044,1044,1045,1048,1050,1050,1050,1050,1050,1050,1050,1050,1050,1055,1056,1057,1057,1057,1057,1057,1057,1057,1057,1057,1057,1057,1057,1057,1057,1057,1057,1057,1057,1057,1057,1057,1057,1057,1057,1057,1057,1057,1057,1057,1057,1057,1057,1058,1058,1058,1058,1058,1058,1058,1058,1058,1059],"ymouse":[551,551,551,551,551,551,551,550,549,546,544,542,539,536,524,514,502,477,463,442,431,422,410,397,378,360,353,348,347,336,326,316,303,290,290,280,239,207,182,142,128,111,101,96,95,95,95,94,94,89,84,79,75,72,72,72,72,72,72,72,72,72,72,72,72,72,72,72,71,70,70,70,70,70,70,70,70,70,70,70,70,70,70,70,70,70,70,70,70,70,70,70,70,70,70,70,70,70,70,70,70,70,70,70,70,70,70,70,70,70,70],"timestamp_mouse":[14,39,54,75,93,113,133,155,174,195,214,233,254,274,293,314,334,355,374,395,414,433,453,475,493,514,533,553,573,593,615,634,653,675,695,714,734,753,774,794,814,834,854,873,895,914,934,953,975,994,1014,1034,1053,1075,1095,1114,1135,1154,1174,1194,1214,1233,1253,1275,1294,1314,1334,1353,1374,1394,1413,1435,1455,1474,1495,1515,1534,1555,1574,1595,1614,1633,1654,1674,1694,1714,1734,1755,1774,1793,1814,1834,1855,1875,1895,1914,1934,1954,1974,1994,2014,2034,2054,2075,2094,2114,2134,2153,2174,2193,2213],"xSR":741.5,"ySR":469.95,"xT1":424.9,"yT1":0,"xT2":1058.1,"yT2":0,"toosoon":0,"cond_shown":"Incongruent","ratio_trial":200,"L_num":14,"L_den":30,"R_num":12,"R_den":18,"correct_side":2,"subjID":"Juan Diego Castillo Naranjo 35","gender":"0","school":"4","age":"8"},{"start_time":1552073833208,"click_time":1552073834541,"finger_time":1552073833701,"fix_duration":1165.625234609716,"trial":53,"RT":493,"MT":840,"sideResp":1,"stimulus":[],"xmouse":[789,789,789,789,789,789,789,789,789,789,789,789,786,785,782,777,759,755,753,753,753,755,755,750,742,739,739,739,738,741,750,757,730,711,711,711,711,711,711,711,711,711,711,711,711,711,711,711,711,711,378,394,405,413,418,420,420,420,420,420,420,423,424,425,427,428,429],"ymouse":[524,524,524,524,524,524,524,524,524,524,524,524,529,532,535,539,548,548,548,548,548,514,492,476,466,463,463,463,462,447,402,216,88,20,20,20,20,20,20,20,20,20,20,20,20,20,20,20,20,20,15,80,104,119,127,128,128,128,128,128,128,124,118,112,106,101,97],"timestamp_mouse":[14,33,53,72,93,114,133,152,174,193,212,232,252,274,293,314,332,353,374,392,412,434,453,474,493,512,533,554,573,593,613,632,653,673,694,714,733,754,773,794,813,833,852,873,892,912,932,952,972,992,1012,1033,1052,1072,1092,1114,1134,1153,1173,1193,1213,1232,1252,1273,1294,1313,1333],"xSR":741.5,"ySR":469.95,"xT1":424.9,"yT1":0,"xT2":1058.1,"yT2":0,"toosoon":0,"cond_shown":"Incongruent","ratio_trial":100,"L_num":13,"L_den":26,"R_num":6,"R_den":10,"correct_side":2,"subjID":"Juan Diego Castillo Naranjo 35","gender":"0","school":"4","age":"8"},{"start_time":1552073839061,"click_time":1552073841162,"finger_time":1552073840381,"fix_duration":378.8368627260199,"trial":54,"RT":1320,"MT":781,"sideResp":1,"stimulus":[],"xmouse":[770,771,771,771,771,771,771,771,771,773,773,773,773,773,773,773,773,774,775,777,778,778,779,779,779,779,779,779,779,779,779,779,779,781,784,785,788,789,790,790,790,790,790,790,790,790,790,790,790,790,790,790,790,790,790,790,791,792,794,794,794,794,794,794,796,796,800,801,801,798,797,797,797,787,760,738,692,655,630,603,592,577,555,532,488,480,477,477,477,479,479,476,476,474,474,474,474,474,474,474,474,474,474,474,474,474],"ymouse":[551,551,551,551,551,551,551,551,552,552,552,552,552,553,553,553,553,555,555,557,557,557,557,557,557,557,557,557,557,557,557,557,557,557,558,558,558,558,558,558,558,558,558,558,558,558,558,558,558,558,558,558,558,558,558,558,558,558,558,558,558,558,558,558,558,559,571,582,588,598,598,598,598,596,586,580,573,565,555,517,478,422,356,292,183,162,147,144,135,123,115,106,102,100,100,100,100,100,100,100,100,100,100,100,100,97],"timestamp_mouse":[1,28,40,61,80,100,120,140,161,181,199,220,239,259,281,300,320,341,360,381,399,421,441,461,481,500,519,541,561,579,600,620,640,659,679,700,720,739,759,781,800,820,839,860,880,900,920,939,961,981,999,1021,1040,1061,1081,1100,1120,1140,1161,1181,1199,1219,1241,1261,1280,1300,1320,1340,1360,1379,1401,1419,1440,1459,1479,1500,1519,1540,1561,1580,1601,1619,1639,1660,1679,1700,1719,1741,1760,1780,1800,1819,1840,1860,1881,1900,1920,1941,1959,1979,2000,2019,2039,2061,2081,2101],"xSR":741.5,"ySR":469.95,"xT1":424.9,"yT1":0,"xT2":1058.1,"yT2":0,"toosoon":0,"cond_shown":"Incongruent","ratio_trial":300,"L_num":4,"L_den":20,"R_num":2,"R_den":4,"correct_side":2,"subjID":"Juan Diego Castillo Naranjo 35","gender":"0","school":"4","age":"8"},{"start_time":1552073858513,"click_time":1552073860242,"finger_time":1552073859442,"fix_duration":788.8799035114688,"trial":55,"RT":929,"MT":800,"sideResp":2,"stimulus":[],"xmouse":[793,793,793,793,793,793,793,793,793,793,793,793,792,792,791,791,791,791,791,792,792,793,793,793,793,793,793,793,793,793,791,788,788,788,788,788,788,788,788,788,788,788,788,787,786,769,698,687,686,686,686,673,671,652,637,630,626,626,630,637,649,694,743,773,796,816,854,876,896,919,938,973,990,993,996,999,1008,1012,1016,1022,1029,1031,1031,1031,1033,1047,1077],"ymouse":[516,516,516,516,516,516,516,516,516,516,516,516,517,517,518,518,518,518,516,514,513,512,512,512,512,512,512,512,512,511,508,502,502,502,502,502,502,502,502,502,502,502,502,502,501,501,501,501,501,501,501,489,488,484,484,484,476,475,475,474,472,444,406,375,348,329,294,275,258,239,224,191,172,161,146,139,125,118,108,95,76,73,73,73,73,73,71],"timestamp_mouse":[9,40,49,70,88,109,129,149,169,188,208,228,248,269,289,309,330,349,369,389,409,428,448,468,488,508,528,549,568,589,608,628,648,668,688,708,728,748,768,789,809,828,849,869,889,908,929,948,969,990,1010,1028,1049,1068,1088,1109,1129,1149,1169,1189,1209,1228,1248,1268,1289,1308,1329,1349,1368,1388,1409,1428,1449,1468,1488,1508,1528,1549,1569,1589,1610,1628,1648,1668,1689,1709,1729],"xSR":741.5,"ySR":469.95,"xT1":424.9,"yT1":0,"xT2":1058.1,"yT2":0,"toosoon":0,"cond_shown":"Incongruent","ratio_trial":100,"L_num":3,"L_den":9,"R_num":7,"R_den":30,"correct_side":1,"subjID":"Juan Diego Castillo Naranjo 35","gender"