[{"start_time":1552308358242,"click_time":1552308362449,"finger_time":1552308359568,"fix_duration":250,"trial":0,"RT":1326,"MT":2881,"sideResp":2,"stimulus":[],"xmouse":[811,810,810,810,810,810,810,810,810,810,810,810,810,810,810,810,810,810,810,810,810,810,810,810,810,810,810,810,810,810,810,810,810,810,810,810,810,810,810,810,810,810,810,810,810,810,810,810,810,810,810,810,810,810,810,810,810,810,810,810,810,810,810,814,830,864,887,888,891,894,896,896,896,896,896,896,901,915,971,1142,1265,1385,1402,1414,1425,1427,1424,1414,1399,1372,1347,1233,1168,1111,1080,1066,1058,1057,1057,1057,1057,1057,1056,1056,1055,1055,1055,1055,1049,1038,1016,920,870,829,807,801,798,796,791,784,778,770,764,754,749,743,734,732,732,732,732,733,734,734,734,734,735,736,736,736,736,738,739,739,739,739,740,740,740,740,740,740,740,739,739,739,741,751,761,769,773,776,778,779,781,781,781,781,781,781,781,783,785,789,796,805,822,830,845,857,875,920,945,964,985,1010,1055,1078,1113,1132,1149,1177,1187,1190,1191,1192,1191,1189,1178,1166,1149,1119,1112,1108,1105,1104,1102,1102,1102,1104],"ymouse":[554,554,554,554,554,554,554,554,554,554,554,554,554,554,554,554,554,554,554,554,554,554,554,554,554,554,554,554,554,554,554,554,554,554,554,554,554,554,554,554,554,554,554,554,554,554,554,554,554,554,554,554,554,554,554,554,554,554,554,554,554,554,554,547,533,479,397,384,382,382,383,383,383,383,383,383,384,384,363,315,288,237,224,213,202,196,191,190,188,186,183,164,146,129,115,107,97,94,92,91,91,91,90,90,90,93,104,111,129,145,162,218,247,274,294,306,317,319,323,329,337,360,372,385,395,405,427,446,452,464,469,476,477,477,477,478,482,484,486,488,490,494,496,497,498,500,501,501,502,502,502,504,505,507,509,513,520,536,545,548,549,549,549,548,547,546,546,546,546,546,546,543,540,537,530,520,494,482,463,447,430,396,378,364,350,336,308,294,269,254,237,206,192,183,176,171,162,156,146,141,133,120,118,117,116,115,114,105,100,94],"timestamp_mouse":[10,57,65,85,105,126,146,165,186,205,226,246,266,285,305,325,346,365,386,405,425,446,465,486,506,526,546,566,586,606,625,646,666,685,706,726,745,766,786,805,825,846,866,886,905,926,945,966,986,1006,1026,1045,1065,1086,1106,1126,1146,1165,1185,1205,1226,1245,1266,1286,1305,1326,1345,1365,1386,1406,1425,1445,1466,1485,1506,1526,1545,1566,1586,1605,1625,1645,1665,1685,1705,1726,1745,1766,1785,1805,1825,1845,1866,1885,1905,1926,1945,1964,1985,2006,2025,2045,2066,2085,2105,2125,2145,2166,2185,2205,2225,2245,2265,2286,2305,2325,2345,2365,2386,2405,2425,2444,2465,2486,2505,2526,2545,2564,2585,2605,2625,2645,2666,2686,2705,2725,2745,2766,2785,2806,2825,2845,2866,2885,2905,2925,2945,2966,2986,3005,3026,3045,3064,3085,3105,3125,3145,3166,3185,3205,3225,3246,3265,3286,3305,3325,3345,3366,3385,3405,3426,3445,3465,3485,3505,3525,3545,3565,3585,3605,3625,3645,3665,3684,3704,3725,3746,3766,3785,3806,3825,3846,3865,3886,3906,3926,3945,3965,3985,4005,4026,4046,4065,4086,4105,4126,4145,4166,4185,4206],"xSR":741.5,"ySR":500.5,"xT1":424.9,"yT1":0,"xT2":1058.1,"yT2":0,"toosoon":0,"cond_shown":"Incongruent","ratio_trial":200,"L_num":3,"L_den":4,"R_num":11,"R_den":20,"correct_side":1,"subjID":"Juanestebancruz3","gender":"0","age":"9","school":"4","test":{"fix_dur":[250,1500],"timestim":1000,"targets_dim":[100,100],"targets_relative_coord":[0.3,0.7],"size_stim":[880,420],"start_dim":[100,100],"size_start":[300,300],"size_fix":60,"samplingrate":20,"img_types":["Congruent","Incongruent"],"ratios":[100,200,300],"rep_conds":19,"nTrials":120,"trials_to_rest":500,"Trials_order":[39,34,96,63,104,15,57,94,111,82,37,2,90,83,61,41,97,51,52,43,80,98,36,9,26,105,119,1,54,56,86,25,103,88,85,109,112,79,20,40,108,8,116,6,38,30,115,3,32,77,93,5,66,89,35,99,59,75,46,95,87,102,4,21,106,67,7,12,44,18,65,50,47,68,118,71,28,55,29,81,33,72,73,76,11,16,23,114,100,42,107,27,45,62,113,64,91,69,48,58,78,24,10,92,101,110,0,74,70,13,22,84,31,17,53,49,117,14,19,60],"cond_shown":["Incongruent","Congruent","Congruent","Incongruent","Congruent","Incongruent","Incongruent","Congruent","Incongruent","Congruent","Incongruent","Congruent","Congruent","Incongruent","Incongruent","Incongruent","Incongruent","Incongruent","Congruent","Incongruent","Congruent","Congruent","Congruent","Incongruent","Congruent","Incongruent","Incongruent","Incongruent","Congruent","Congruent","Congruent","Incongruent","Incongruent","Congruent","Incongruent","Incongruent","Congruent","Incongruent","Congruent","Congruent","Congruent","Congruent","Congruent","Congruent","Congruent","Congruent","Incongruent","Incongruent","Congruent","Incongruent","Incongruent","Incongruent","Congruent","Incongruent","Incongruent","Incongruent","Incongruent","Incongruent","Congruent","Incongruent","Incongruent","Congruent","Congruent","Incongruent","Congruent","Incongruent","Incongruent","Congruent","Congruent","Congruent","Incongruent","Congruent","Incongruent","Congruent","Congruent","Incongruent","Congruent","Incongruent","Incongruent","Incongruent","Incongruent","Congruent","Incongruent","Congruent","Incongruent","Congruent","Incongruent","Congruent","Congruent","Congruent","Incongruent","Incongruent","Incongruent","Congruent","Incongruent","Congruent","Incongruent","Incongruent","Congruent","Congruent","Congruent","Congruent","Congruent","Congruent","Incongruent","Congruent","Congruent","Congruent","Congruent","Incongruent","Congruent","Congruent","Incongruent","Incongruent","Incongruent","Incongruent","Incongruent","Congruent","Incongruent","Congruent"],"ratio_trial":[200,300,100,200,200,200,200,300,200,300,100,200,100,300,100,300,100,200,300,100,200,200,100,200,200,200,300,100,100,200,200,100,100,300,100,100,300,100,200,300,100,200,200,100,200,100,100,200,200,300,200,300,100,300,300,200,300,200,300,300,200,100,300,200,300,100,100,100,200,100,300,200,300,200,300,300,300,100,300,200,200,100,100,300,300,300,300,100,300,100,300,200,200,200,300,300,100,200,100,300,100,100,300,200,300,200,100,200,300,100,300,100,100,300,300,100,200,200,100,100],"left_num":[3,1,2,1,9,7,7,24,7,20,3,14,1,4,12,2,17,4,1,10,6,6,3,4,1,4,4,13,3,6,12,10,3,1,13,12,20,12,3,4,2,1,3,6,12,6,6,4,3,2,7,1,4,4,13,11,13,3,2,4,7,4,5,4,2,3,9,7,4,15,8,13,2,16,12,2,3,12,8,6,7,11,4,2,1,11,13,6,11,10,3,6,14,7,1,1,17,4,6,1,1,8,3,6,13,4,8,1,12,13,3,3,6,4,13,3,1,16,6,9],"right_num":[11,7,6,3,4,12,12,2,14,9,4,6,18,8,9,6,10,6,11,9,7,3,4,6,21,14,2,12,2,11,6,8,8,8,6,2,9,9,14,13,6,21,14,15,6,15,7,6,11,6,14,2,6,2,12,3,12,1,12,2,4,15,6,14,10,7,6,15,3,13,9,14,6,12,2,6,11,9,9,3,8,6,8,10,3,1,12,5,1,3,4,3,6,2,2,8,10,14,5,3,3,2,2,11,12,3,2,21,2,12,4,2,11,2,12,11,2,9,3,8],"left_den":[4,20,5,2,20,10,10,30,10,25,6,28,2,5,24,4,30,5,5,25,12,15,20,5,2,6,20,26,6,20,20,25,5,30,26,30,25,24,6,20,5,2,6,12,15,12,10,5,10,4,10,2,8,20,26,20,26,10,10,20,15,10,25,6,20,9,18,14,10,25,10,26,4,20,24,4,12,24,10,20,10,22,8,20,2,22,26,20,22,25,6,20,30,21,2,30,30,6,20,5,2,16,6,20,26,10,16,2,24,26,6,6,10,20,26,5,3,30,12,15],"right_den":[20,20,12,10,16,24,24,4,28,18,10,20,30,16,15,30,15,10,22,18,10,15,16,10,30,30,4,20,5,22,15,16,16,24,10,4,18,15,20,26,12,30,20,25,10,25,14,10,22,30,28,10,10,4,15,4,15,2,24,4,6,30,12,30,25,30,10,25,15,26,18,20,30,20,10,30,20,15,18,6,16,15,20,25,15,5,15,25,5,10,20,6,9,15,10,24,15,30,25,6,5,5,10,22,15,15,5,30,10,20,5,5,22,4,15,22,15,27,5,16],"correct_side":[1,2,2,1,1,1,1,1,1,1,1,1,2,1,2,1,2,1,2,2,2,1,2,1,2,1,2,2,1,2,1,2,1,2,2,2,1,2,2,2,2,2,2,2,1,2,1,1,2,1,1,1,2,2,2,2,2,2,2,2,2,2,2,1,2,1,2,2,1,1,1,2,1,1,1,1,2,2,1,2,1,1,1,2,1,1,2,1,1,1,1,2,2,1,1,2,2,1,1,2,2,1,1,2,2,1,1,2,1,2,2,1,1,2,2,1,1,1,2,1],"img_shown":["img2/200/Incongruent/L/I_Dist_200_LN_3_LD_4_RN_11_RD_20_0.png","img2/300/Congruent/R/C_Dist_300_LN_1_LD_20_RN_7_RD_20_1.png","img2/100/Congruent/R/C_Dist_100_LN_2_LD_5_RN_6_RD_12_1.png","img2/200/Incongruent/L/I_Dist_200_LN_1_LD_2_RN_3_RD_10_0.png","img2/200/Congruent/L/C_Dist_200_LN_9_LD_20_RN_4_RD_16_0.png","img2/200/Incongruent/L/I_Dist_200_LN_7_LD_10_RN_12_RD_24_0.png","img2/200/Incongruent/L/I_Dist_200_LN_7_LD_10_RN_12_RD_24_0.png","img2/300/Congruent/L/C_Dist_300_LN_24_LD_30_RN_2_RD_4_0.png","img2/200/Incongruent/L/I_Dist_200_LN_7_LD_10_RN_14_RD_28_0.png","img2/300/Congruent/L/C_Dist_300_LN_20_LD_25_RN_9_RD_18_0.png","img2/100/Incongruent/L/I_Dist_100_LN_3_LD_6_RN_4_RD_10_0.png","img2/200/Congruent/L/C_Dist_200_LN_14_LD_28_RN_6_RD_20_0.png","img2/100/Congruent/R/C_Dist_100_LN_1_LD_2_RN_18_RD_30_1.png","img2/300/Incongruent/L/I_Dist_300_LN_4_LD_5_RN_8_RD_16_0.png","img2/100/Incongruent/R/I_Dist_100_LN_12_LD_24_RN_9_RD_15_1.png","img2/300/Incongruent/L/I_Dist_300_LN_2_LD_4_RN_6_RD_30_0.png","img2/100/Incongruent/R/I_Dist_100_LN_17_LD_30_RN_10_RD_15_1.png","img2/200/Incongruent/L/I_Dist_200_LN_4_LD_5_RN_6_RD_10_0.png","img2/300/Congruent/R/C_Dist_300_LN_1_LD_5_RN_11_RD_22_1.png","img2/100/Incongruent/R/I_Dist_100_LN_10_LD_25_RN_9_RD_18_1.png","img2/200/Congruent/R/C_Dist_200_LN_6_LD_12_RN_7_RD_10_1.png","img2/200/Congruent/L/C_Dist_200_LN_6_LD_15_RN_3_RD_15_0.png","img2/100/Congruent/R/C_Dist_100_LN_3_LD_20_RN_4_RD_16_1.png","img2/200/Incongruent/L/I_Dist_200_LN_4_LD_5_RN_6_RD_10_0.png","img2/200/Congruent/R/C_Dist_200_LN_1_LD_2_RN_21_RD_30_1.png","img2/200/Incongruent/L/I_Dist_200_LN_4_LD_6_RN_14_RD_30_0.png","img2/300/Incongruent/R/I_Dist_300_LN_4_LD_20_RN_2_RD_4_1.png","img2/100/Incongruent/R/I_Dist_100_LN_13_LD_26_RN_12_RD_20_1.png","img2/100/Congruent/L/C_Dist_100_LN_3_LD_6_RN_2_RD_5_0.png","img2/200/Congruent/R/C_Dist_200_LN_6_LD_20_RN_11_RD_22_1.png","img2/200/Congruent/L/C_Dist_200_LN_12_LD_20_RN_6_RD_15_0.png","img2/100/Incongruent/R/I_Dist_100_LN_10_LD_25_RN_8_RD_16_1.png","img2/100/Incongruent/L/I_Dist_100_LN_3_LD_5_RN_8_RD_16_0.png","img2/300/Congruent/R/C_Dist_300_LN_1_LD_30_RN_8_RD_24_1.png","img2/100/Incongruent/R/I_Dist_100_LN_13_LD_26_RN_6_RD_10_1.png","img2/100/Incongruent/R/I_Dist_100_LN_12_LD_30_RN_2_RD_4_1.png","img2/300/Congruent/L/C_Dist_300_LN_20_LD_25_RN_9_RD_18_0.png","img2/100/Incongruent/R/I_Dist_100_LN_12_LD_24_RN_9_RD_15_1.png","img2/200/Congruent/R/C_Dist_200_LN_3_LD_6_RN_14_RD_20_1.png","img2/300/Congruent/R/C_Dist_300_LN_4_LD_20_RN_13_RD_26_1.png","img2/100/Congruent/R/C_Dist_100_LN_2_LD_5_RN_6_RD_12_1.png","img2/200/Congruent/R/C_Dist_200_LN_1_LD_2_RN_21_RD_30_1.png","img2/200/Congruent/R/C_Dist_200_LN_3_LD_6_RN_14_RD_20_1.png","img2/100/Congruent/R/C_Dist_100_LN_6_LD_12_RN_15_RD_25_1.png","img2/200/Congruent/L/C_Dist_200_LN_12_LD_15_RN_6_RD_10_0.png","img2/100/Congruent/R/C_Dist_100_LN_6_LD_12_RN_15_RD_25_1.png","img2/100/Incongruent/L/I_Dist_100_LN_6_LD_10_RN_7_RD_14_0.png","img2/200/Incongruent/L/I_Dist_200_LN_4_LD_5_RN_6_RD_10_0.png","img2/200/Congruent/R/C_Dist_200_LN_3_LD_10_RN_11_RD_22_1.png","img2/300/Incongruent/L/I_Dist_300_LN_2_LD_4_RN_6_RD_30_0.png","img2/200/Incongruent/L/I_Dist_200_LN_7_LD_10_RN_14_RD_28_0.png","img2/300/Incongruent/L/I_Dist_300_LN_1_LD_2_RN_2_RD_10_0.png","img2/100/Congruent/R/C_Dist_100_LN_4_LD_8_RN_6_RD_10_1.png","img2/300/Incongruent/R/I_Dist_300_LN_4_LD_20_RN_2_RD_4_1.png","img2/300/Incongruent/R/I_Dist_300_LN_13_LD_26_RN_12_RD_15_1.png","img2/200/Incongruent/R/I_Dist_200_LN_11_LD_20_RN_3_RD_4_1.png","img2/300/Incongruent/R/I_Dist_300_LN_13_LD_26_RN_12_RD_15_1.png","img2/200/Incongruent/R/I_Dist_200_LN_3_LD_10_RN_1_RD_2_1.png","img2/300/Congruent/R/C_Dist_300_LN_2_LD_10_RN_12_RD_24_1.png","img2/300/Incongruent/R/I_Dist_300_LN_4_LD_20_RN_2_RD_4_1.png","img2/200/Incongruent/R/I_Dist_200_LN_7_LD_15_RN_4_RD_6_1.png","img2/100/Congruent/R/C_Dist_100_LN_4_LD_10_RN_15_RD_30_1.png","img2/300/Congruent/R/C_Dist_300_LN_5_LD_25_RN_6_RD_12_1.png","img2/200/Incongruent/L/I_Dist_200_LN_4_LD_6_RN_14_RD_30_0.png","img2/300/Congruent/R/C_Dist_300_LN_2_LD_20_RN_10_RD_25_1.png","img2/100/Incongruent/L/I_Dist_100_LN_3_LD_9_RN_7_RD_30_0.png","img2/100/Incongruent/R/I_Dist_100_LN_9_LD_18_RN_6_RD_10_1.png","img2/100/Congruent/R/C_Dist_100_LN_7_LD_14_RN_15_RD_25_1.png","img2/200/Congruent/L/C_Dist_200_LN_4_LD_10_RN_3_RD_15_0.png","img2/100/Congruent/L/C_Dist_100_LN_15_LD_25_RN_13_RD_26_0.png","img2/300/Incongruent/L/I_Dist_300_LN_8_LD_10_RN_9_RD_18_0.png","img2/200/Congruent/R/C_Dist_200_LN_13_LD_26_RN_14_RD_20_1.png","img2/300/Incongruent/L/I_Dist_300_LN_2_LD_4_RN_6_RD_30_0.png","img2/200/Congruent/L/C_Dist_200_LN_16_LD_20_RN_12_RD_20_0.png","img2/300/Congruent/L/C_Dist_300_LN_12_LD_24_RN_2_RD_10_0.png","img2/300/Incongruent/L/I_Dist_300_LN_2_LD_4_RN_6_RD_30_0.png","img2/300/Congruent/R/C_Dist_300_LN_3_LD_12_RN_11_RD_20_1.png","img2/100/Incongruent/R/I_Dist_100_LN_12_LD_24_RN_9_RD_15_1.png","img2/300/Incongruent/L/I_Dist_300_LN_8_LD_10_RN_9_RD_18_0.png","img2/200/Incongruent/R/I_Dist_200_LN_6_LD_20_RN_3_RD_6_1.png","img2/200/Incongruent/L/I_Dist_200_LN_7_LD_10_RN_8_RD_16_0.png","img2/100/Congruent/L/C_Dist_100_LN_11_LD_22_RN_6_RD_15_0.png","img2/100/Incongruent/L/I_Dist_100_LN_4_LD_8_RN_8_RD_20_0.png","img2/300/Congruent/R/C_Dist_300_LN_2_LD_20_RN_10_RD_25_1.png","img2/300/Incongruent/L/I_Dist_300_LN_1_LD_2_RN_3_RD_15_0.png","img2/300/Congruent/L/C_Dist_300_LN_11_LD_22_RN_1_RD_5_0.png","img2/300/Incongruent/R/I_Dist_300_LN_13_LD_26_RN_12_RD_15_1.png","img2/100/Congruent/L/C_Dist_100_LN_6_LD_20_RN_5_RD_25_0.png","img2/300/Congruent/L/C_Dist_300_LN_11_LD_22_RN_1_RD_5_0.png","img2/100/Congruent/L/C_Dist_100_LN_10_LD_25_RN_3_RD_10_0.png","img2/300/Incongruent/L/I_Dist_300_LN_3_LD_6_RN_4_RD_20_0.png","img2/200/Incongruent/R/I_Dist_200_LN_6_LD_20_RN_3_RD_6_1.png","img2/200/Incongruent/R/I_Dist_200_LN_14_LD_30_RN_6_RD_9_1.png","img2/200/Congruent/L/C_Dist_200_LN_7_LD_21_RN_2_RD_15_0.png","img2/300/Incongruent/L/I_Dist_300_LN_1_LD_2_RN_2_RD_10_0.png","img2/300/Congruent/R/C_Dist_300_LN_1_LD_30_RN_8_RD_24_1.png","img2/100/Incongruent/R/I_Dist_100_LN_17_LD_30_RN_10_RD_15_1.png","img2/200/Incongruent/L/I_Dist_200_LN_4_LD_6_RN_14_RD_30_0.png","img2/100/Congruent/L/C_Dist_100_LN_6_LD_20_RN_5_RD_25_0.png","img2/300/Congruent/R/C_Dist_300_LN_1_LD_5_RN_3_RD_6_1.png","img2/100/Congruent/R/C_Dist_100_LN_1_LD_2_RN_3_RD_5_1.png","img2/100/Congruent/L/C_Dist_100_LN_8_LD_16_RN_2_RD_5_0.png","img2/300/Congruent/L/C_Dist_300_LN_3_LD_6_RN_2_RD_10_0.png","img2/200/Congruent/R/C_Dist_200_LN_6_LD_20_RN_11_RD_22_1.png","img2/300/Incongruent/R/I_Dist_300_LN_13_LD_26_RN_12_RD_15_1.png","img2/200/Congruent/L/C_Dist_200_LN_4_LD_10_RN_3_RD_15_0.png","img2/100/Congruent/L/C_Dist_100_LN_8_LD_16_RN_2_RD_5_0.png","img2/200/Congruent/R/C_Dist_200_LN_1_LD_2_RN_21_RD_30_1.png","img2/300/Congruent/L/C_Dist_300_LN_12_LD_24_RN_2_RD_10_0.png","img2/100/Incongruent/R/I_Dist_100_LN_13_LD_26_RN_12_RD_20_1.png","img2/300/Congruent/R/C_Dist_300_LN_3_LD_6_RN_4_RD_5_1.png","img2/100/Congruent/L/C_Dist_100_LN_3_LD_6_RN_2_RD_5_0.png","img2/100/Incongruent/L/I_Dist_100_LN_6_LD_10_RN_11_RD_22_0.png","img2/300/Incongruent/R/I_Dist_300_LN_4_LD_20_RN_2_RD_4_1.png","img2/300/Incongruent/R/I_Dist_300_LN_13_LD_26_RN_12_RD_15_1.png","img2/100/Incongruent/L/I_Dist_100_LN_3_LD_5_RN_11_RD_22_0.png","img2/200/Incongruent/L/I_Dist_200_LN_1_LD_3_RN_2_RD_15_0.png","img2/200/Congruent/L/C_Dist_200_LN_16_LD_30_RN_9_RD_27_0.png","img2/100/Incongruent/R/I_Dist_100_LN_6_LD_12_RN_3_RD_5_1.png","img2/100/Congruent/L/C_Dist_100_LN_9_LD_15_RN_8_RD_16_0.png"],"dist100_C":[["C_Dist_100_LN_10_LD_25_RN_3_RD_10_0.png","C_Dist_100_LN_11_LD_22_RN_4_RD_10_0.png","C_Dist_100_LN_11_LD_22_RN_6_RD_15_0.png","C_Dist_100_LN_15_LD_25_RN_13_RD_26_0.png","C_Dist_100_LN_3_LD_6_RN_2_RD_5_0.png","C_Dist_100_LN_6_LD_20_RN_5_RD_25_0.png","C_Dist_100_LN_8_LD_16_RN_2_RD_5_0.png","C_Dist_100_LN_9_LD_15_RN_8_RD_16_0.png"],["C_Dist_100_LN_1_LD_2_RN_18_RD_30_1.png","C_Dist_100_LN_1_LD_2_RN_3_RD_5_1.png","C_Dist_100_LN_12_LD_30_RN_13_RD_26_1.png","C_Dist_100_LN_2_LD_5_RN_11_RD_22_1.png","C_Dist_100_LN_2_LD_5_RN_6_RD_12_1.png","C_Dist_100_LN_3_LD_20_RN_4_RD_16_1.png","C_Dist_100_LN_4_LD_10_RN_15_RD_30_1.png","C_Dist_100_LN_4_LD_8_RN_6_RD_10_1.png","C_Dist_100_LN_6_LD_12_RN_15_RD_25_1.png","C_Dist_100_LN_7_LD_14_RN_15_RD_25_1.png","C_Dist_100_LN_7_LD_14_RN_9_RD_15_1.png"]],"dist100_I":[["I_Dist_100_LN_1_LD_2_RN_8_RD_20_0.png","I_Dist_100_LN_2_LD_4_RN_6_RD_15_0.png","I_Dist_100_LN_2_LD_4_RN_8_RD_20_0.png","I_Dist_100_LN_3_LD_5_RN_11_RD_22_0.png","I_Dist_100_LN_3_LD_5_RN_8_RD_16_0.png","I_Dist_100_LN_3_LD_6_RN_4_RD_10_0.png","I_Dist_100_LN_3_LD_9_RN_7_RD_30_0.png","I_Dist_100_LN_4_LD_8_RN_8_RD_20_0.png","I_Dist_100_LN_6_LD_10_RN_11_RD_22_0.png","I_Dist_100_LN_6_LD_10_RN_13_RD_26_0.png","I_Dist_100_LN_6_LD_10_RN_7_RD_14_0.png","I_Dist_100_LN_9_LD_10_RN_20_RD_25_0.png","I_Dist_100_LN_9_LD_15_RN_13_RD_26_0.png","I_Dist_100_LN_9_LD_15_RN_14_RD_28_0.png"],["I_Dist_100_LN_10_LD_25_RN_8_RD_16_1.png","I_Dist_100_LN_10_LD_25_RN_9_RD_18_1.png","I_Dist_100_LN_11_LD_22_RN_9_RD_15_1.png","I_Dist_100_LN_12_LD_24_RN_9_RD_15_1.png","I_Dist_100_LN_12_LD_30_RN_2_RD_4_1.png","I_Dist_100_LN_13_LD_26_RN_12_RD_20_1.png","I_Dist_100_LN_13_LD_26_RN_6_RD_10_1.png","I_Dist_100_LN_17_LD_30_RN_10_RD_15_1.png","I_Dist_100_LN_6_LD_12_RN_3_RD_5_1.png","I_Dist_100_LN_8_LD_16_RN_6_RD_10_1.png","I_Dist_100_LN_8_LD_20_RN_1_RD_2_1.png","I_Dist_100_LN_9_LD_18_RN_6_RD_10_1.png"]],"dist100_S":[["E_Dist_100_LN_2_LD_12_RN_2_RD_30_0.png","E_Dist_100_LN_6_LD_10_RN_6_RD_12_0.png"],["E_Dist_100_LN_6_LD_12_RN_6_RD_10_1.png"]],"dist200_C":[["C_Dist_200_LN_11_LD_22_RN_3_RD_10_0.png","C_Dist_200_LN_12_LD_15_RN_6_RD_10_0.png","C_Dist_200_LN_12_LD_20_RN_6_RD_15_0.png","C_Dist_200_LN_14_LD_28_RN_6_RD_20_0.png","C_Dist_200_LN_15_LD_25_RN_4_RD_10_0.png","C_Dist_200_LN_16_LD_20_RN_12_RD_20_0.png","C_Dist_200_LN_16_LD_30_RN_9_RD_27_0.png","C_Dist_200_LN_20_LD_25_RN_9_RD_15_0.png","C_Dist_200_LN_21_LD_30_RN_2_RD_4_0.png","C_Dist_200_LN_4_LD_10_RN_3_RD_15_0.png","C_Dist_200_LN_4_LD_8_RN_3_RD_10_0.png","C_Dist_200_LN_6_LD_15_RN_3_RD_15_0.png","C_Dist_200_LN_7_LD_21_RN_2_RD_15_0.png","C_Dist_200_LN_8_LD_15_RN_2_RD_6_0.png","C_Dist_200_LN_8_LD_15_RN_3_RD_9_0.png","C_Dist_200_LN_8_LD_15_RN_7_RD_21_0.png","C_Dist_200_LN_9_LD_20_RN_4_RD_16_0.png"],["C_Dist_200_LN_1_LD_2_RN_21_RD_30_1.png","C_Dist_200_LN_13_LD_26_RN_14_RD_20_1.png","C_Dist_200_LN_3_LD_10_RN_11_RD_22_1.png","C_Dist_200_LN_3_LD_10_RN_14_RD_28_1.png","C_Dist_200_LN_3_LD_10_RN_7_RD_14_1.png","C_Dist_200_LN_3_LD_12_RN_9_RD_20_1.png","C_Dist_200_LN_3_LD_6_RN_14_RD_20_1.png","C_Dist_200_LN_5_LD_10_RN_14_RD_20_1.png","C_Dist_200_LN_6_LD_12_RN_7_RD_10_1.png","C_Dist_200_LN_6_LD_20_RN_11_RD_22_1.png","C_Dist_200_LN_7_LD_15_RN_18_RD_27_1.png","C_Dist_200_LN_9_LD_30_RN_13_RD_26_1.png"]],"dist200_I":[["I_Dist_200_LN_1_LD_2_RN_3_RD_10_0.png","I_Dist_200_LN_1_LD_3_RN_2_RD_15_0.png","I_Dist_200_LN_3_LD_4_RN_11_RD_20_0.png","I_Dist_200_LN_4_LD_5_RN_6_RD_10_0.png","I_Dist_200_LN_4_LD_6_RN_14_RD_30_0.png","I_Dist_200_LN_7_LD_10_RN_12_RD_24_0.png","I_Dist_200_LN_7_LD_10_RN_14_RD_28_0.png","I_Dist_200_LN_7_LD_10_RN_8_RD_16_0.png"],["I_Dist_200_LN_11_LD_20_RN_3_RD_4_1.png","I_Dist_200_LN_14_LD_30_RN_12_RD_18_1.png","I_Dist_200_LN_14_LD_30_RN_6_RD_9_1.png","I_Dist_200_LN_3_LD_10_RN_1_RD_2_1.png","I_Dist_200_LN_4_LD_30_RN_1_RD_3_1.png","I_Dist_200_LN_6_LD_20_RN_3_RD_6_1.png","I_Dist_200_LN_7_LD_15_RN_4_RD_6_1.png","I_Dist_200_LN_7_LD_15_RN_6_RD_9_1.png","I_Dist_200_LN_9_LD_15_RN_8_RD_10_1.png"]],"dist200_S":[["E_Dist_200_LN_3_LD_6_RN_3_RD_10_0.png"],["E_Dist_200_LN_3_LD_10_RN_3_RD_6_1.png"]],"dist300_C":[["C_Dist_300_LN_11_LD_22_RN_1_RD_5_0.png","C_Dist_300_LN_11_LD_22_RN_2_RD_10_0.png","C_Dist_300_LN_11_LD_22_RN_4_RD_20_0.png","C_Dist_300_LN_12_LD_24_RN_2_RD_10_0.png","C_Dist_300_LN_18_LD_20_RN_9_RD_15_0.png","C_Dist_300_LN_20_LD_25_RN_13_RD_26_0.png","C_Dist_300_LN_20_LD_25_RN_14_RD_28_0.png","C_Dist_300_LN_20_LD_25_RN_5_RD_10_0.png","C_Dist_300_LN_20_LD_25_RN_8_RD_16_0.png","C_Dist_300_LN_20_LD_25_RN_9_RD_18_0.png","C_Dist_300_LN_24_LD_30_RN_2_RD_4_0.png","C_Dist_300_LN_24_LD_30_RN_8_RD_16_0.png","C_Dist_300_LN_3_LD_6_RN_2_RD_10_0.png","C_Dist_300_LN_4_LD_10_RN_1_RD_10_0.png","C_Dist_300_LN_4_LD_5_RN_2_RD_4_0.png","C_Dist_300_LN_8_LD_16_RN_1_RD_5_0.png","C_Dist_300_LN_9_LD_10_RN_3_RD_5_0.png"],["C_Dist_300_LN_1_LD_20_RN_7_RD_20_1.png","C_Dist_300_LN_1_LD_3_RN_19_RD_30_1.png","C_Dist_300_LN_1_LD_30_RN_8_RD_24_1.png","C_Dist_300_LN_1_LD_5_RN_11_RD_22_1.png","C_Dist_300_LN_1_LD_5_RN_3_RD_6_1.png","C_Dist_300_LN_1_LD_5_RN_6_RD_12_1.png","C_Dist_300_LN_2_LD_10_RN_12_RD_24_1.png","C_Dist_300_LN_2_LD_20_RN_10_RD_25_1.png","C_Dist_300_LN_3_LD_12_RN_11_RD_20_1.png","C_Dist_300_LN_3_LD_6_RN_4_RD_5_1.png","C_Dist_300_LN_4_LD_20_RN_13_RD_26_1.png","C_Dist_300_LN_5_LD_25_RN_6_RD_12_1.png","C_Dist_300_LN_5_LD_25_RN_7_RD_14_1.png","C_Dist_300_LN_7_LD_14_RN_20_RD_25_1.png","C_Dist_300_LN_8_LD_15_RN_10_RD_12_1.png"]],"dist300_I":[["I_Dist_300_LN_1_LD_2_RN_2_RD_10_0.png","I_Dist_300_LN_1_LD_2_RN_3_RD_15_0.png","I_Dist_300_LN_2_LD_4_RN_6_RD_30_0.png","I_Dist_300_LN_3_LD_6_RN_4_RD_20_0.png","I_Dist_300_LN_4_LD_5_RN_6_RD_12_0.png","I_Dist_300_LN_4_LD_5_RN_8_RD_16_0.png","I_Dist_300_LN_7_LD_10_RN_8_RD_20_0.png","I_Dist_300_LN_8_LD_10_RN_14_RD_28_0.png","I_Dist_300_LN_8_LD_10_RN_9_RD_18_0.png"],["I_Dist_300_LN_13_LD_26_RN_12_RD_15_1.png","I_Dist_300_LN_4_LD_20_RN_2_RD_4_1.png"]],"dist300_S":[["E_Dist_300_LN_9_LD_12_RN_9_RD_20_0.png"],["E_Dist_300_LN_18_LD_30_RN_18_RD_20_1.png","E_Dist_300_LN_3_LD_10_RN_3_RD_5_1.png","E_Dist_300_LN_9_LD_20_RN_9_RD_12_1.png"]],"dist500_C":[["C_Dist_500_LN_10_LD_13_RN_7_RD_26_0.png","C_Dist_500_LN_10_LD_15_RN_4_RD_24_0.png","C_Dist_500_LN_12_LD_16_RN_3_RD_12_0.png","C_Dist_500_LN_12_LD_18_RN_4_RD_24_0.png","C_Dist_500_LN_15_LD_18_RN_5_RD_15_0.png","C_Dist_500_LN_15_LD_20_RN_1_RD_4_0.png","C_Dist_500_LN_18_LD_27_RN_1_RD_6_0.png","C_Dist_500_LN_20_LD_24_RN_1_RD_3_0.png","C_Dist_500_LN_20_LD_24_RN_3_RD_9_0.png","C_Dist_500_LN_20_LD_24_RN_7_RD_21_0.png","C_Dist_500_LN_20_LD_28_RN_3_RD_14_0.png","C_Dist_500_LN_21_LD_28_RN_6_RD_24_0.png","C_Dist_500_LN_22_LD_28_RN_2_RD_7_0.png","C_Dist_500_LN_25_LD_30_RN_9_RD_27_0.png","C_Dist_500_LN_4_LD_6_RN_1_RD_6_0.png","C_Dist_500_LN_5_LD_6_RN_2_RD_6_0.png","C_Dist_500_LN_6_LD_9_RN_1_RD_6_0.png","C_Dist_500_LN_7_LD_10_RN_1_RD_5_0.png","C_Dist_500_LN_8_LD_12_RN_1_RD_6_0.png","C_Dist_500_LN_8_LD_12_RN_4_RD_24_0.png"],["C_Dist_500_LN_1_LD_4_RN_12_RD_16_1.png","C_Dist_500_LN_1_LD_4_RN_9_RD_12_1.png","C_Dist_500_LN_1_LD_9_RN_11_RD_18_1.png","C_Dist_500_LN_10_LD_24_RN_22_RD_24_1.png","C_Dist_500_LN_2_LD_12_RN_10_RD_15_1.png","C_Dist_500_LN_2_LD_12_RN_12_RD_18_1.png","C_Dist_500_LN_2_LD_12_RN_4_RD_6_1.png","C_Dist_500_LN_2_LD_24_RN_7_RD_12_1.png","C_Dist_500_LN_2_LD_5_RN_18_RD_20_1.png","C_Dist_500_LN_2_LD_5_RN_9_RD_10_1.png","C_Dist_500_LN_2_LD_8_RN_12_RD_16_1.png","C_Dist_500_LN_2_LD_8_RN_21_RD_28_1.png","C_Dist_500_LN_3_LD_10_RN_4_RD_5_1.png","C_Dist_500_LN_3_LD_12_RN_15_RD_20_1.png","C_Dist_500_LN_3_LD_30_RN_6_RD_10_1.png","C_Dist_500_LN_3_LD_8_RN_14_RD_16_1.png","C_Dist_500_LN_4_LD_16_RN_15_RD_20_1.png","C_Dist_500_LN_4_LD_24_RN_12_RD_18_1.png","C_Dist_500_LN_5_LD_14_RN_6_RD_7_1.png","C_Dist_500_LN_7_LD_21_RN_20_RD_24_1.png","C_Dist_500_LN_7_LD_28_RN_12_RD_16_1.png","C_Dist_500_LN_7_LD_28_RN_9_RD_12_1.png","C_Dist_500_LN_9_LD_27_RN_20_RD_24_1.png"]],"dist500_I":[["I_Dist_500_LN_2_LD_3_RN_4_RD_24_0.png","I_Dist_500_LN_5_LD_6_RN_6_RD_18_0.png","I_Dist_500_LN_7_LD_8_RN_9_RD_24_0.png"],["I_Dist_500_LN_7_LD_21_RN_5_RD_6_1.png"]],"dist500_S":[["E_Dist_500_LN_6_LD_8_RN_6_RD_24_0.png"],["E_Dist_500_LN_2_LD_12_RN_2_RD_3_1.png","E_Dist_500_LN_6_LD_24_RN_6_RD_8_1.png"]]}},{"start_time":1552308366825,"click_time":1552308368849,"finger_time":1552308368547,"fix_duration":1275.4076972843777,"trial":1,"RT":1722,"MT":302,"sideResp":2,"stimulus":[],"xmouse":[784,784,784,784,784,784,784,784,784,784,784,784,784,783,781,780,780,778,778,778,778,778,778,778,778,778,778,778,788,796,797,797,799,799,799,799,799,799,799,799,799,799,799,799,799,799,799,799,799,799,799,799,799,799,799,799,799,799,799,799,799,799,799,799,799,799,799,799,799,799,799,799,799,799,799,799,799,799,799,799,799,799,799,801,824,841,862,874,888,917,930,945,958,972,1003,1027,1038,1048,1058,1067,1071,1075],"ymouse":[563,563,563,563,563,563,563,563,563,563,563,563,563,564,567,569,570,572,572,572,572,572,572,572,572,572,571,569,565,562,561,561,560,560,560,560,560,560,560,560,560,560,560,560,560,560,560,560,560,560,560,560,560,560,560,560,560,560,560,560,560,560,560,560,560,560,560,560,560,560,560,560,560,560,560,560,560,560,560,560,560,560,560,556,533,517,489,472,452,412,394,372,351,329,282,245,224,202,179,136,114,91],"timestamp_mouse":[11,22,43,63,82,103,123,143,163,181,203,222,243,262,281,303,322,342,362,383,403,422,442,462,483,503,522,542,562,582,602,622,643,662,683,703,723,743,762,783,802,823,843,862,883,903,922,943,962,983,1002,1023,1043,1062,1083,1103,1122,1143,1162,1183,1202,1222,1243,1262,1283,1303,1323,1342,1361,1383,1402,1423,1443,1462,1482,1503,1523,1543,1561,1583,1602,1622,1642,1663,1682,1702,1722,1743,1762,1782,1802,1823,1842,1863,1882,1903,1922,1943,1962,1982,2002,2023],"xSR":741.5,"ySR":501.8,"xT1":424.9,"yT1":0,"xT2":1058.1,"yT2":0,"toosoon":0,"cond_shown":"Congruent","ratio_trial":300,"L_num":1,"L_den":20,"R_num":7,"R_den":20,"correct_side":2,"subjID":"Juanestebancruz3","gender":"0","school":"4","age":"9"},{"start_time":1552308371939,"click_time":1552308373927,"finger_time":1552308373587,"fix_duration":1009.3403622009922,"trial":2,"RT":1648,"MT":340,"sideResp":2,"stimulus":[],"xmouse":[771,771,771,771,771,771,771,771,771,771,771,771,771,771,771,771,771,771,771,771,771,771,771,771,771,771,771,771,771,771,771,771,771,771,771,771,771,770,768,768,767,767,766,765,765,765,765,765,765,765,765,765,765,765,765,765,765,765,765,765,765,765,765,765,765,765,765,765,765,765,765,765,765,765,765,765,765,765,765,768,783,809,835,866,876,886,898,913,952,964,977,987,1001,1021,1027,1035,1043,1054,1065,1102],"ymouse":[537,537,537,537,537,537,537,537,537,537,537,537,537,537,537,537,537,537,537,537,537,537,537,537,537,537,537,537,537,537,537,537,537,537,537,536,536,536,538,538,539,539,540,541,541,541,541,541,541,541,541,541,541,541,541,541,541,541,541,541,541,541,541,541,541,541,541,541,541,541,541,541,541,541,541,541,541,541,541,538,527,505,484,444,431,419,405,392,354,337,315,290,259,200,183,165,153,141,130,92],"timestamp_mouse":[10,42,49,69,88,109,129,148,167,189,209,228,249,268,289,309,328,349,369,389,409,429,449,469,488,508,529,548,569,588,609,629,649,668,688,709,728,747,768,789,809,828,849,868,889,908,929,948,968,988,1008,1028,1049,1068,1088,1108,1127,1148,1168,1188,1209,1228,1248,1268,1288,1309,1329,1349,1369,1388,1409,1428,1448,1468,1488,1508,1529,1549,1568,1588,1608,1629,1648,1670,1688,1709,1728,1749,1770,1788,1808,1828,1848,1870,1888,1908,1928,1948,1968,1987],"xSR":741.5,"ySR":501.8,"xT1":424.9,"yT1":0,"xT2":1058.1,"yT2":0,"toosoon":0,"cond_shown":"Congruent","ratio_trial":100,"L_num":2,"L_den":5,"R_num":6,"R_den":12,"correct_side":2,"subjID":"Juanestebancruz3","gender":"0","school":"4","age":"9"},{"start_time":1552308379080,"click_time":1552308380787,"finger_time":1552308380547,"fix_duration":250,"trial":3,"RT":1467,"MT":240,"sideResp":2,"stimulus":[],"xmouse":[810,810,810,810,810,810,810,810,810,810,810,810,810,810,810,810,810,810,810,808,808,808,808,808,808,808,807,807,807,807,807,807,807,807,807,807,807,807,806,806,806,806,806,806,806,806,806,806,806,806,806,806,806,806,806,806,806,806,806,806,806,806,806,806,806,806,806,806,811,815,819,823,826,841,850,861,872,895,922,942,969,997,1055,1074,1091,1106],"ymouse":[563,563,563,563,563,563,563,563,563,563,563,563,563,563,562,562,562,561,561,561,561,561,561,561,561,561,561,561,561,561,561,561,561,561,561,561,561,561,561,561,561,561,561,561,561,561,561,561,561,561,561,561,561,561,561,561,561,561,561,561,561,561,561,561,561,561,561,561,553,547,541,535,529,501,485,467,448,405,358,319,274,228,152,125,101,82],"timestamp_mouse":[11,28,47,67,88,107,128,148,168,188,207,228,247,268,288,308,328,348,368,388,407,427,448,467,488,507,528,547,567,588,607,628,648,668,686,708,727,747,768,787,807,828,846,868,888,908,927,947,967,988,1008,1027,1047,1067,1088,1108,1128,1147,1167,1186,1207,1228,1247,1267,1288,1308,1326,1346,1368,1387,1407,1427,1447,1467,1488,1508,1527,1548,1566,1587,1607,1627,1647,1667,1687,1707],"xSR":741.5,"ySR":501.8,"xT1":424.9,"yT1":0,"xT2":1058.1,"yT2":0,"toosoon":0,"cond_shown":"Incongruent","ratio_trial":200,"L_num":1,"L_den":2,"R_num":3,"R_den":10,"correct_side":1,"subjID":"Juanestebancruz3","gender":"0","school":"4","age":"9"},{"start_time":1552308388419,"click_time":1552308390967,"finger_time":1552308390967,"fix_duration":250,"trial":4,"RT":2548,"MT":0,"sideResp":1,"stimulus":[],"xmouse":[783,783,783,783,783,783,783,783,783,783,783,783,783,783,783,783,783,783,783,783,786,795,798,801,804,808,824,829,833,833,833,834,834,834,834,834,834,834,834,834,834,834,834,834,834,834,834,834,834,833,833,831,830,830,828,828,825,822,820,819,818,814,813,811,810,809,809,809,809,809,809,809,809,809,809,809,809,809,809,805,805,805,805,805,805,805,805,805,805,805,805,805,805,805,805,805,805,805,805,805,805,805,805,805,805,805,805,805,805,805,805,805,805,805,805,805,805,805,805,805,805,805,805,805,805,805,805,477],"ymouse":[524,524,524,524,524,524,524,524,524,524,524,524,524,524,524,524,524,524,524,524,526,531,533,536,539,544,551,553,554,554,554,555,555,555,555,555,555,555,555,555,555,555,555,555,555,555,555,555,555,555,555,555,555,555,555,554,554,553,552,552,551,550,549,548,547,546,546,546,546,546,546,546,546,546,546,546,546,546,546,539,539,539,539,539,539,539,539,539,539,539,539,539,539,539,539,539,539,539,539,539,539,539,539,539,539,539,539,539,539,539,539,539,539,539,539,539,539,539,539,539,539,539,539,539,539,539,539,78],"timestamp_mouse":[14,30,47,68,89,108,127,148,169,188,208,229,248,269,289,309,329,349,368,388,408,428,448,467,489,509,529,549,568,589,608,628,648,669,689,708,728,749,768,788,808,827,848,869,888,909,928,949,969,988,1008,1028,1048,1069,1087,1109,1128,1148,1168,1188,1209,1228,1248,1268,1288,1309,1328,1349,1368,1388,1408,1429,1448,1467,1489,1508,1528,1548,1569,1589,1608,1629,1648,1669,1687,1709,1728,1749,1768,1788,1808,1828,1848,1869,1888,1909,1928,1949,1968,1989,2008,2029,2049,2068,2089,2109,2128,2148,2168,2189,2208,2228,2248,2268,2288,2308,2328,2348,2369,2389,2409,2428,2448,2469,2488,2508,2528,2548],"xSR":741.5,"ySR":501.8,"xT1":424.9,"yT1":0,"xT2":1058.1,"yT2":0,"toosoon":0,"cond_shown":"Congruent","ratio_trial":200,"L_num":9,"L_den":20,"R_num":4,"R_den":16,"correct_side":1,"subjID":"Juanestebancruz3","gender":"0","school":"4","age":"9"},{"start_time":1552308392501,"click_time":1552308394968,"finger_time":1552308394968,"fix_duration":250,"trial":5,"RT":2467,"MT":0,"sideResp":2,"stimulus":[],"xmouse":[765,765,765,765,765,765,765,765,765,765,765,765,765,765,765,765,765,765,765,765,765,765,765,765,765,765,765,765,765,765,765,765,765,765,765,765,765,765,765,765,765,765,765,765,765,765,765,765,765,765,765,764,764,764,764,764,764,764,764,764,764,764,764,764,764,764,763,762,759,759,759,759,759,759,759,759,759,759,759,759,759,759,759,759,759,759,759,759,759,759,759,759,759,759,759,759,759,759,759,759,759,759,759,759,759,759,759,759,759,759,759,759,759,759,759,759,759,759,759,759,759,759,759,1111],"ymouse":[516,516,516,516,516,516,516,516,516,516,516,516,516,516,516,516,516,516,516,516,516,516,516,516,516,516,516,516,516,516,516,516,516,516,516,516,516,516,516,516,516,516,516,516,516,516,516,516,516,516,516,516,516,516,516,516,516,516,516,516,516,516,516,516,516,516,516,516,516,516,516,516,516,516,516,516,516,516,516,516,516,516,516,516,516,516,516,516,516,516,516,516,516,516,516,516,516,516,516,516,516,516,516,516,516,516,516,516,516,516,516,516,516,516,516,516,516,516,516,516,516,516,516,10],"timestamp_mouse":[10,36,47,66,86,107,126,146,166,185,206,226,246,267,286,307,326,346,367,386,406,426,446,466,486,507,526,547,566,585,607,626,646,666,686,707,727,746,766,787,807,827,846,867,886,907,926,946,967,986,1006,1026,1047,1067,1086,1106,1127,1146,1166,1187,1207,1227,1246,1267,1287,1306,1326,1346,1366,1387,1406,1427,1446,1466,1486,1507,1526,1546,1566,1587,1606,1627,1645,1666,1686,1706,1726,1747,1766,1787,1806,1825,1846,1866,1886,1905,1927,1946,1966,1986,2006,2026,2046,2067,2086,2106,2126,2146,2166,2186,2206,2226,2247,2267,2287,2307,2326,2347,2366,2387,2407,2426,2446,2467],"xSR":741.5,"ySR":501.8,"xT1":424.9,"yT1":0,"xT2":1058.1,"yT2":0,"toosoon":0,"cond_shown":"Incongruent","ratio_trial":200,"L_num":7,"L_den":10,"R_num":12,"R_den":24,"correct_side":1,"subjID":"Juanestebancruz3","gender":"0","school":"4","age":"9"},{"start_time":1552308400831,"click_time":1552308404547,"finger_time":1552308404547,"fix_duration":361.98954181583775,"trial":6,"RT":3716,"MT":0,"sideResp":2,"stimulus":[],"xmouse":[780,778,778,778,778,778,778,778,778,778,778,778,778,778,778,778,778,778,778,778,778,778,778,778,778,778,778,778,778,778,778,778,778,778,778,778,778,778,778,778,778,778,778,778,778,778,778,778,778,778,778,778,778,778,778,778,778,778,778,778,779,780,780,780,780,781,781,785,785,785,785,785,787,789,792,795,796,797,797,797,797,793,785,782,774,771,767,763,763,763,763,763,763,763,763,763,763,763,763,763,764,764,764,764,764,765,765,765,765,765,765,765,765,765,765,765,765,765,765,765,766,767,768,768,768,768,768,768,768,768,768,768,768,768,768,768,768,768,768,768,768,768,769,769,769,769,769,769,769,769,769,769,769,769,769,769,769,769,769,769,769,769,769,769,769,769,769,769,769,769,769,769,769,769,769,769,769,769,769,769,769,769,769,769,769,1128],"ymouse":[572,570,570,570,570,570,570,570,570,570,570,570,570,570,570,570,570,570,570,570,570,570,570,570,570,570,570,570,570,570,570,570,570,570,570,570,570,570,570,570,570,570,570,570,570,570,570,570,570,570,570,570,570,570,570,570,570,570,570,570,570,570,570,570,570,570,570,570,570,570,570,570,570,569,568,567,566,565,561,557,553,548,540,538,533,531,529,527,527,527,527,527,527,527,527,527,527,527,528,529,530,530,530,530,530,530,530,530,530,530,530,530,530,530,530,530,530,530,530,530,530,530,528,528,528,528,528,528,528,528,528,528,528,528,528,528,528,528,528,528,528,528,525,525,525,525,525,525,525,525,525,525,525,525,525,525,525,525,525,525,525,525,525,525,525,525,525,525,525,525,525,525,525,525,525,525,525,525,525,525,525,525,525,525,525,73],"timestamp_mouse":[18,36,57,76,96,117,137,156,177,196,217,237,256,276,296,317,337,358,376,396,417,437,457,477,497,517,538,557,577,597,616,637,656,677,696,716,736,756,776,796,817,836,857,877,896,917,937,956,977,997,1016,1037,1057,1077,1097,1116,1137,1156,1178,1196,1217,1237,1256,1277,1296,1316,1336,1356,1377,1397,1418,1436,1456,1476,1497,1516,1537,1556,1577,1596,1616,1637,1657,1676,1697,1716,1736,1756,1778,1797,1817,1836,1857,1877,1897,1916,1937,1956,1976,1997,2017,2037,2057,2078,2098,2117,2137,2157,2177,2196,2217,2236,2256,2277,2296,2318,2337,2357,2377,2396,2417,2436,2456,2477,2496,2517,2538,2556,2576,2597,2617,2636,2658,2677,2696,2717,2737,2756,2777,2796,2816,2836,2857,2876,2896,2916,2937,2956,2977,2996,3016,3036,3056,3076,3097,3116,3136,3156,3176,3196,3217,3236,3256,3276,3297,3316,3338,3356,3377,3396,3418,3436,3457,3476,3496,3516,3538,3557,3577,3597,3617,3636,3656,3676,3696,3716],"xSR":741.5,"ySR":501.8,"xT1":424.9,"yT1":0,"xT2":1058.1,"yT2":0,"toosoon":0,"cond_shown":"Incongruent","ratio_trial":200,"L_num":7,"L_den":10,"R_num":12,"R_den":24,"correct_side":1,"subjID":"Juanestebancruz3","gender":"0","school":"4","age":"9"},{"start_time":1552308418120,"click_time":1552308421909,"finger_time":1552308419368,"fix_duration":611.274068162459,"trial":7,"RT":1248,"MT":2541,"sideResp":1,"stimulus":[],"xmouse":[758,758,758,758,758,758,758,758,758,758,758,758,758,758,758,758,758,758,758,758,758,758,758,758,758,758,758,758,758,758,758,758,758,758,758,758,758,758,758,758,758,758,758,758,758,758,758,758,758,758,762,767,773,776,779,781,781,781,781,781,768,752,722,677,619,500,438,426,408,393,389,389,389,389,389,389,389,389,389,389,389,389,389,389,389,389,391,394,395,399,403,405,410,417,466,503,544,604,634,661,667,668,668,668,668,671,672,674,678,682,693,693,695,698,701,701,701,701,704,705,709,710,712,715,720,732,741,743,745,745,745,745,745,745,745,745,745,746,746,747,748,748,748,748,748,748,746,744,744,744,744,744,744,744,744,744,744,744,744,744,744,744,744,744,744,744,744,744,744,744,744,744,744,744,744,744,744,744,744,744,744,744,744,744,744,744,744,744,744,485],"ymouse":[552,552,552,552,552,552,552,552,552,552,552,552,552,552,552,552,552,552,552,552,552,552,552,552,552,552,552,552,552,552,549,549,549,549,549,549,549,549,549,549,549,549,549,549,549,549,549,549,549,549,546,543,540,537,534,530,528,527,526,524,517,507,485,449,403,295,222,200,160,110,74,66,65,63,63,63,63,63,63,63,63,63,63,63,63,62,62,62,62,65,66,68,72,82,140,181,225,291,324,354,359,359,359,359,359,360,360,360,362,365,380,383,391,402,416,443,459,462,470,474,482,484,487,489,492,501,505,506,507,507,507,507,507,507,507,507,507,507,507,506,505,505,504,504,504,504,502,500,500,500,500,500,500,500,500,500,500,500,500,500,500,500,500,500,500,500,500,500,500,500,500,500,500,500,500,500,500,500,500,500,500,500,500,500,500,500,500,500,500,96],"timestamp_mouse":[11,40,48,67,87,107,127,148,168,188,207,227,248,268,287,308,328,347,368,387,407,428,447,468,488,507,529,548,568,587,607,629,647,668,687,708,728,748,768,787,808,828,849,868,887,907,929,948,967,987,1007,1027,1048,1067,1087,1107,1128,1147,1167,1187,1207,1227,1248,1268,1287,1307,1327,1347,1367,1388,1407,1427,1447,1468,1489,1507,1528,1547,1568,1588,1607,1628,1648,1667,1689,1707,1728,1747,1767,1788,1807,1827,1848,1867,1889,1908,1928,1947,1967,1989,2007,2027,2048,2067,2087,2107,2129,2148,2167,2187,2208,2227,2248,2267,2288,2307,2327,2347,2367,2387,2407,2427,2447,2467,2488,2507,2527,2547,2567,2587,2608,2628,2647,2668,2688,2707,2727,2748,2768,2787,2808,2828,2848,2868,2887,2907,2928,2947,2967,2987,3007,3027,3047,3067,3088,3108,3127,3147,3168,3187,3207,3227,3248,3267,3287,3307,3328,3348,3368,3387,3408,3428,3448,3468,3487,3507,3528,3547,3567,3587,3608,3627,3648,3668,3687,3707,3728,3747,3768,3789],"xSR":741.5,"ySR":501.8,"xT1":424.9,"yT1":0,"xT2":1058.1,"yT2":0,"toosoon":0,"cond_shown":"Congruent","ratio_trial":300,"L_num":24,"L_den":30,"R_num":2,"R_den":4,"correct_side":1,"subjID":"Juanestebancruz3","gender":"0","school":"4","age":"9"},{"start_time":1552308424598,"click_time":1552308428327,"finger_time":1552308428327,"fix_duration":1228.11140691,"trial":8,"RT":3729,"MT":0,"sideResp":2,"stimulus":[],"xmouse":[776,776,776,776,776,776,776,776,776,776,776,776,776,776,776,776,776,776,776,776,776,776,776,776,776,777,778,778,778,778,778,779,779,779,779,779,779,779,779,779,779,779,779,779,779,779,779,779,779,779,779,779,779,779,779,779,779,779,779,779,779,779,779,779,779,779,779,779,779,779,779,779,779,779,779,779,779,779,779,779,779,779,779,779,779,779,779,779,779,779,779,779,779,779,779,779,779,779,779,779,779,779,779,779,779,779,779,779,780,783,783,783,783,783,783,783,783,783,783,783,783,783,783,783,783,783,783,783,783,783,783,783,783,783,783,783,783,783,783,783,783,783,783,783,783,783,783,783,783,783,783,783,783,783,783,783,783,783,783,783,783,783,783,783,783,783,783,783,783,783,783,783,783,783,783,783,783,783,783,783,783,783,783,783,783,783,1107],"ymouse":[513,513,513,513,513,513,513,513,513,513,513,513,513,513,513,513,513,513,513,513,513,513,514,515,517,518,520,521,522,523,524,525,525,525,525,525,525,525,525,525,525,525,525,525,525,525,525,525,525,525,525,525,525,525,525,525,525,525,525,525,525,525,525,525,525,525,525,525,525,525,525,525,525,525,525,525,525,525,525,525,525,525,525,525,525,525,525,525,525,525,525,525,525,525,525,525,525,525,525,525,525,525,525,525,525,525,525,525,525,525,525,525,525,525,525,525,525,525,525,525,525,525,525,525,525,525,525,525,525,525,525,525,525,525,525,525,525,525,525,525,525,525,525,525,525,525,525,525,525,525,525,525,525,525,525,525,525,525,525,525,525,525,525,525,525,525,525,525,525,525,525,525,525,525,525,525,525,525,525,525,525,525,525,525,525,525,89],"timestamp_mouse":[11,40,49,69,89,109,129,149,171,189,209,230,249,270,290,310,330,350,369,389,410,431,449,469,489,510,529,551,570,589,610,629,649,670,691,709,730,749,771,790,809,829,849,870,891,909,929,951,969,989,1010,1029,1050,1070,1090,1109,1129,1150,1170,1189,1210,1229,1249,1270,1290,1310,1329,1350,1369,1391,1410,1430,1450,1469,1490,1509,1530,1550,1569,1590,1610,1629,1651,1670,1690,1709,1730,1749,1770,1789,1810,1829,1851,1870,1890,1910,1931,1950,1970,1990,2009,2029,2050,2070,2090,2109,2130,2150,2169,2189,2210,2229,2249,2269,2290,2309,2329,2349,2369,2390,2410,2430,2450,2470,2489,2509,2529,2549,2569,2589,2609,2629,2650,2669,2690,2709,2730,2749,2770,2789,2810,2829,2849,2869,2889,2909,2930,2949,2970,2989,3009,3030,3049,3069,3089,3109,3130,3149,3169,3189,3210,3229,3249,3269,3289,3309,3329,3349,3370,3389,3410,3429,3450,3470,3489,3510,3529,3549,3570,3589,3610,3629,3649,3669,3690,3709,3729],"xSR":741.5,"ySR":501.8,"xT1":424.9,"yT1":0,"xT2":1058.1,"yT2":0,"toosoon":0,"cond_shown":"Incongruent","ratio_trial":200,"L_num":7,"L_den":10,"R_num":14,"R_den":28,"correct_side":1,"subjID":"Juanestebancruz3","gender":"0","school":"4","age":"9"},{"start_time":1552308435926,"click_time":1552308437787,"finger_time":1552308437287,"fix_duration":457.3936259906336,"trial":9,"RT":1361,"MT":500,"sideResp":1,"stimulus":[],"xmouse":[787,787,787,787,787,787,787,787,787,787,787,787,787,787,787,787,787,787,787,787,787,787,787,787,787,787,787,787,787,787,787,787,787,787,787,787,787,787,787,787,787,787,787,787,787,787,787,787,787,787,787,787,787,787,787,787,787,787,787,787,787,787,787,787,787,787,783,760,743,713,698,660,639,636,630,626,624,624,624,624,621,616,600,585,568,551,531,528,525,525,524,521,516,516],"ymouse":[552,552,552,552,552,552,552,552,552,552,552,552,552,552,552,552,552,552,552,552,552,552,552,552,552,552,552,552,552,552,552,552,552,552,552,552,552,552,552,552,552,552,552,552,552,552,552,552,552,552,552,552,552,552,552,552,552,552,552,552,552,552,552,544,541,532,524,504,495,477,468,445,428,425,418,407,397,374,362,350,337,318,289,271,255,236,208,197,176,168,145,130,105,96],"timestamp_mouse":[11,21,46,61,81,102,121,142,162,182,201,223,241,262,281,302,322,341,362,381,401,422,443,462,482,501,522,542,561,582,603,640,641,662,682,701,722,741,763,782,802,822,841,862,883,902,922,941,962,981,1002,1022,1041,1061,1082,1103,1121,1142,1162,1181,1202,1221,1242,1261,1282,1301,1321,1341,1361,1381,1401,1421,1441,1461,1482,1502,1522,1541,1562,1582,1601,1622,1642,1661,1681,1701,1723,1742,1761,1781,1802,1821,1842,1861],"xSR":741.5,"ySR":501.8,"xT1":424.9,"yT1":0,"xT2":1058.1,"yT2":0,"toosoon":0,"cond_shown":"Congruent","ratio_trial":300,"L_num":20,"L_den":25,"R_num":9,"R_den":18,"correct_side":1,"subjID":"Juanestebancruz3","gender":"0","school":"4","age":"9"},{"start_time":1552308438520,"click_time":1552308440688,"finger_time":1552308439827,"fix_duration":252.5035103944413,"trial":10,"RT":1307,"MT":861,"sideResp":2,"stimulus":[],"xmouse":[818,818,818,818,818,818,818,818,818,818,818,818,818,818,818,818,818,818,818,818,818,818,818,818,818,818,818,818,818,818,818,818,818,818,818,818,818,818,818,818,818,818,818,818,818,818,818,818,818,818,818,818,818,818,818,818,818,818,818,818,818,818,819,823,835,848,866,902,910,934,947,955,972,980,984,993,998,1005,1005,1005,1005,1005,1005,1005,1006,1016,1024,1025,1025,1025,1023,1022,1022,1022,1021,1021,1021,1021,1021,1024,1024,1028,1048,1058,1069,1078,1092,1104,1130],"ymouse":[555,555,555,555,555,555,555,555,555,555,555,555,555,555,555,555,555,555,555,555,555,555,555,555,555,555,555,555,555,555,555,555,555,555,555,555,555,555,555,555,555,555,555,555,555,555,555,555,555,555,555,555,555,555,555,555,555,555,555,555,555,555,555,550,539,526,512,479,473,446,428,412,380,362,352,337,326,305,302,298,296,295,281,267,246,217,199,197,194,192,188,187,187,187,187,187,187,187,187,183,183,180,159,145,134,123,111,100,78],"timestamp_mouse":[7,29,50,67,88,108,127,147,168,188,207,227,247,267,288,307,328,347,367,387,407,427,448,468,488,507,528,547,568,588,608,627,647,667,688,709,727,747,767,787,808,827,847,868,887,907,929,948,968,988,1009,1027,1047,1067,1088,1109,1128,1147,1168,1187,1208,1228,1248,1267,1287,1307,1328,1348,1367,1387,1407,1427,1448,1467,1488,1508,1528,1548,1567,1587,1607,1627,1647,1667,1687,1707,1728,1748,1768,1787,1808,1827,1848,1868,1888,1907,1927,1947,1967,1987,2008,2027,2048,2067,2087,2107,2128,2147,2168],"xSR":741.5,"ySR":501.8,"xT1":424.9,"yT1":0,"xT2":1058.1,"yT2":0,"toosoon":0,"cond_shown":"Incongruent","ratio_trial":100,"L_num":3,"L_den":6,"R_num":4,"R_den":10,"correct_side":1,"subjID":"Juanestebancruz3","gender":"0","school":"4","age":"9"},{"start_time":1552308443052,"click_time":1552308444987,"finger_time":1552308444528,"fix_duration":922.5152384983209,"trial":11,"RT":1476,"MT":459,"sideResp":1,"stimulus":[],"xmouse":[794,794,794,794,794,794,794,794,794,794,794,794,794,794,794,794,794,794,794,794,794,794,794,794,794,794,794,794,794,794,794,794,794,794,794,794,794,794,794,794,794,794,794,794,794,793,793,793,793,793,793,793,793,793,793,793,793,793,793,792,792,785,774,759,750,749,749,749,749,749,749,749,748,740,727,676,619,568,527,498,483,477,476,474,472,468,467,465,464,463,463,463,464,469,470,473,480],"ymouse":[548,548,548,548,548,548,548,548,548,548,548,548,548,548,548,548,548,548,548,548,548,548,548,548,548,548,548,548,548,548,548,548,548,548,548,548,548,548,548,548,548,548,548,548,548,548,548,548,548,548,548,548,548,548,548,548,548,548,548,548,548,548,549,550,550,550,550,550,550,550,550,550,550,544,534,507,478,447,421,399,380,350,338,324,312,287,276,262,251,244,218,207,189,166,145,123,79],"timestamp_mouse":[16,46,56,76,96,116,136,156,175,197,216,236,255,276,296,316,336,355,375,395,416,435,455,475,496,515,537,555,576,595,616,636,656,675,696,716,735,755,775,797,816,836,857,876,895,916,936,955,975,995,1017,1035,1056,1075,1095,1115,1135,1155,1175,1196,1216,1236,1255,1276,1296,1316,1335,1356,1377,1395,1416,1435,1455,1476,1496,1516,1535,1557,1575,1596,1615,1635,1655,1676,1695,1717,1736,1756,1776,1795,1817,1835,1855,1875,1895,1915,1935],"xSR":741.5,"ySR":501.8,"xT1":424.9,"yT1":0,"xT2":1058.1,"yT2":0,"toosoon":0,"cond_shown":"Congruent","ratio_trial":200,"L_num":14,"L_den":28,"R_num":6,"R_den":20,"correct_side":1,"subjID":"Juanestebancruz3","gender":"0","school":"4","age":"9"},{"start_time":1552308449177,"click_time":1552308450828,"finger_time":1552308450168,"fix_duration":1126.6964903125001,"trial":12,"RT":991,"MT":660,"sideResp":2,"stimulus":[],"xmouse":[795,795,795,795,795,795,795,795,795,795,795,795,795,795,795,795,795,795,795,795,795,795,795,795,795,795,795,795,795,795,795,795,795,795,795,795,795,795,795,795,795,795,795,795,795,795,795,795,798,800,814,818,825,830,837,862,885,916,946,951,968,968,968,968,970,983,983,983,986,986,997,998,998,1000,1004,1010,1014,1017,1021,1027,1047,1058,1071],"ymouse":[513,513,513,513,513,513,513,513,513,513,513,513,513,513,513,513,513,513,513,513,513,513,513,513,513,513,513,513,513,513,513,513,513,513,513,513,513,513,513,513,513,513,513,513,513,513,513,513,507,501,463,444,422,408,392,359,339,320,304,302,292,292,292,292,288,269,269,269,261,261,214,202,202,193,180,165,158,153,145,135,103,88,72],"timestamp_mouse":[14,37,51,70,90,111,130,150,170,190,210,231,250,271,291,310,331,351,370,390,410,431,450,471,490,511,530,550,570,590,611,631,651,672,691,710,732,750,770,791,810,832,850,870,891,910,930,951,970,991,1013,1030,1050,1072,1091,1111,1130,1150,1170,1190,1210,1230,1250,1270,1291,1311,1330,1352,1371,1391,1410,1431,1450,1471,1490,1511,1530,1550,1570,1590,1610,1630,1651],"xSR":741.5,"ySR":501.8,"xT1":424.9,"yT1":0,"xT2":1058.1,"yT2":0,"toosoon":0,"cond_shown":"Congruent","ratio_trial":100,"L_num":1,"L_den":2,"R_num":18,"R_den":30,"correct_side":2,"subjID":"Juanestebancruz3","gender":"0","school":"4","age":"9"},{"start_time":1552308454002,"click_time":1552308456769,"finger_time":1552308455627,"fix_duration":1372.1506682340782,"trial":13,"RT":1625,"MT":1142,"sideResp":2,"stimulus":[],"xmouse":[795,795,795,795,795,795,795,795,795,795,795,795,795,795,795,795,795,795,795,795,795,795,795,794,794,794,794,794,794,794,794,794,794,794,794,794,794,794,794,794,794,794,794,794,795,795,795,795,795,795,795,795,795,795,795,795,795,795,795,795,795,795,795,795,795,795,795,794,792,790,787,786,785,783,781,777,776,776,776,776,776,782,799,832,860,912,947,1009,1045,1045,1053,1059,1062,1062,1062,1062,1062,1057,1054,1054,1054,1054,1054,1057,1057,1057,1057,1059,1066,1071,1074,1074,1074,1074,1074,1073,1073,1071,1070,1068,1063,1058,1054,1051,1050,1050,1050,1051,1051,1052,1052,1052,1052,1052,1053,1053,1053,1055,1062],"ymouse":[540,540,540,540,540,540,540,540,540,540,540,540,540,540,540,540,540,540,540,540,540,540,541,541,541,541,541,541,541,541,541,541,541,541,541,541,541,541,541,541,541,541,540,538,536,536,536,536,536,536,536,536,536,536,536,536,536,536,536,536,536,536,536,536,536,535,532,530,527,523,519,517,516,515,511,506,503,503,503,503,503,497,489,478,470,450,435,406,388,388,381,369,356,343,341,341,338,330,320,320,320,320,309,293,292,288,288,279,264,247,234,234,228,220,215,204,201,194,187,179,160,149,135,121,108,82,70,56,52,50,50,50,50,50,49,49,49,50,55],"timestamp_mouse":[10,38,46,65,86,105,125,145,165,185,206,226,246,265,286,305,326,345,365,386,405,426,446,465,487,506,526,545,565,586,606,626,645,666,686,706,726,745,765,785,806,825,845,865,887,906,925,947,965,985,1005,1025,1046,1065,1085,1106,1125,1145,1166,1185,1205,1225,1245,1266,1285,1305,1325,1345,1366,1386,1405,1425,1447,1465,1485,1505,1526,1545,1566,1586,1606,1625,1645,1666,1685,1706,1725,1745,1765,1786,1805,1825,1846,1865,1885,1905,1926,1945,1966,1986,2006,2025,2046,2065,2086,2105,2125,2145,2165,2185,2205,2225,2245,2265,2285,2305,2325,2345,2366,2386,2405,2425,2446,2465,2485,2505,2525,2545,2565,2585,2605,2625,2646,2665,2685,2705,2726,2745,2766],"xSR":741.5,"ySR":501.8,"xT1":424.9,"yT1":0,"xT2":1058.1,"yT2":0,"toosoon":0,"cond_shown":"Incongruent","ratio_trial":300,"L_num":4,"L_den":5,"R_num":8,"R_den":16,"correct_side":1,"subjID":"Juanestebancruz3","gender":"0","school":"4","age":"9"},{"start_time":1552308458576,"click_time":1552308460367,"finger_time":1552308460048,"fix_duration":686.8245671465608,"trial":14,"RT":1472,"MT":319,"sideResp":1,"stimulus":[],"xmouse":[813,813,813,813,813,813,813,813,813,813,813,813,813,813,813,813,813,813,813,813,813,813,813,813,813,813,813,813,813,813,813,813,813,813,813,813,813,813,813,813,813,813,810,809,804,798,791,780,780,780,780,780,780,780,780,780,780,780,780,778,778,778,778,778,778,778,778,778,778,777,776,767,758,743,722,692,611,589,576,567,563,562,558,557,556,554,550,537,525,511],"ymouse":[556,556,556,556,556,556,556,556,556,556,556,556,556,556,556,556,556,556,556,556,556,556,556,556,556,556,556,556,556,556,556,556,556,556,556,556,556,556,556,556,556,556,557,557,557,557,556,555,555,555,555,555,555,555,555,555,555,555,555,556,557,557,557,557,557,557,557,557,557,557,555,535,518,494,463,423,317,277,247,223,204,194,180,177,171,165,154,113,96,85],"timestamp_mouse":[11,32,52,72,91,111,132,153,171,191,212,231,251,272,292,312,331,352,372,392,412,431,452,472,492,512,531,552,571,592,611,631,651,672,692,711,731,752,771,791,811,832,851,871,892,911,931,952,971,992,1011,1032,1051,1071,1091,1111,1133,1151,1171,1191,1213,1232,1252,1271,1292,1312,1331,1351,1372,1391,1411,1432,1451,1472,1491,1513,1533,1551,1571,1591,1612,1632,1651,1671,1691,1711,1731,1751,1771,1791],"xSR":741.5,"ySR":501.8,"xT1":424.9,"yT1":0,"xT2":1058.1,"yT2":0,"toosoon":0,"cond_shown":"Incongruent","ratio_trial":100,"L_num":12,"L_den":24,"R_num":9,"R_den":15,"correct_side":2,"subjID":"Juanestebancruz3","gender":"0","school":"4","age":"9"},{"start_time":1552308462500,"click_time":1552308463889,"finger_time":1552308463528,"fix_duration":250,"trial":15,"RT":1028,"MT":361,"sideResp":1,"stimulus":[],"xmouse":[767,767,767,767,767,767,767,767,767,767,767,767,767,767,767,767,767,767,767,767,767,767,767,767,767,767,767,767,767,767,766,766,766,765,765,765,765,765,765,765,765,765,765,765,765,765,765,765,764,757,747,702,668,634,602,577,557,554,553,551,550,547,543,537,532,519,514,511,509,506],"ymouse":[540,540,540,540,540,540,540,540,540,540,540,540,540,540,540,540,540,540,540,540,540,540,540,540,540,540,540,540,540,540,541,541,541,541,541,541,541,541,541,541,541,541,541,541,541,541,541,541,541,529,509,437,399,359,323,296,266,260,255,251,241,232,218,204,187,147,129,115,102,84],"timestamp_mouse":[9,43,49,69,89,108,128,147,169,188,208,229,249,269,287,307,328,349,369,388,409,428,447,469,489,509,528,548,569,588,607,628,648,669,688,707,729,748,769,789,808,828,849,869,889,908,929,948,967,988,1008,1028,1048,1068,1088,1108,1128,1149,1168,1189,1210,1227,1247,1269,1288,1310,1328,1348,1368,1389],"xSR":741.5,"ySR":501.8,"xT1":424.9,"yT1":0,"xT2":1058.1,"yT2":0,"toosoon":0,"cond_shown":"Incongruent","ratio_trial":300,"L_num":2,"L_den":4,"R_num":6,"R_den":30,"correct_side":1,"subjID":"Juanestebancruz3","gender":"0","school":"4","age":"9"},{"start_time":1552308467187,"click_time":1552308470168,"finger_time":1552308468828,"fix_duration":1077.954207304346,"trial":16,"RT":1641,"MT":1340,"sideResp":2,"stimulus":[],"xmouse":[785,785,785,785,785,785,785,785,785,785,785,785,785,785,785,785,785,785,785,785,785,785,785,785,785,785,785,785,785,785,785,785,785,785,785,785,785,785,785,785,785,786,786,786,787,787,788,788,788,788,788,789,789,790,790,790,790,791,791,791,791,791,791,791,791,791,791,791,791,791,791,792,792,792,792,793,793,793,793,793,793,793,791,791,791,791,791,790,789,789,789,789,789,789,789,789,789,788,786,783,780,776,775,775,775,775,776,796,814,856,863,970,1139,1181,1185,1185,1195,1202,1209,1210,1210,1210,1209,1205,1203,1203,1197,1181,1179,1178,1175,1175,1175,1184,1186,1187,1187,1187,1186,1186,1186,1185,1176,1167,1152,1135,1114,1094,1094,1085],"ymouse":[520,520,520,520,520,520,520,520,520,520,520,520,520,520,520,520,520,520,520,520,520,520,520,520,520,520,520,520,520,520,520,520,520,520,520,520,520,520,520,520,520,520,520,520,520,519,519,519,519,519,519,518,518,518,518,518,518,518,518,518,518,518,518,518,518,518,518,518,517,515,514,513,512,512,511,511,511,511,511,509,507,505,501,501,501,501,501,499,499,499,499,499,499,499,499,499,498,498,496,493,491,488,488,488,487,485,481,470,465,457,455,428,357,340,337,337,328,315,298,291,291,288,283,279,277,277,274,263,262,259,252,252,250,204,186,172,164,163,157,157,157,156,152,147,141,133,122,111,111,99],"timestamp_mouse":[15,31,46,61,81,100,121,141,160,181,202,221,242,262,281,300,321,342,362,381,401,420,442,461,481,502,521,541,561,582,601,621,641,661,682,700,721,741,760,781,802,821,841,862,882,901,921,941,961,981,1001,1021,1041,1061,1081,1101,1120,1141,1162,1181,1202,1221,1240,1261,1282,1300,1322,1342,1361,1382,1401,1422,1442,1462,1480,1501,1520,1541,1560,1582,1600,1621,1641,1660,1682,1702,1722,1742,1760,1781,1801,1820,1841,1861,1882,1901,1921,1941,1961,1982,2001,2022,2042,2060,2080,2102,2121,2142,2160,2182,2201,2221,2242,2261,2280,2301,2321,2341,2361,2381,2400,2421,2441,2461,2481,2501,2521,2542,2561,2581,2601,2621,2640,2661,2681,2701,2720,2742,2760,2782,2801,2822,2843,2860,2881,2901,2921,2942,2960,2981],"xSR":741.5,"ySR":501.8,"xT1":424.9,"yT1":0,"xT2":1058.1,"yT2":0,"toosoon":0,"cond_shown":"Incongruent","ratio_trial":100,"L_num":17,"L_den":30,"R_num":10,"R_den":15,"correct_side":2,"subjID":"Juanestebancruz3","gender":"0","school":"4","age":"9"},{"start_time":1552308472346,"click_time":1552308473988,"finger_time":1552308473547,"fix_duration":996.6509373870857,"trial":17,"RT":1201,"MT":441,"sideResp":1,"stimulus":[],"xmouse":[810,810,810,810,810,810,810,810,810,810,810,810,810,810,810,810,810,810,810,810,810,810,810,810,810,810,810,810,810,810,810,810,810,810,810,810,810,810,810,810,810,810,810,810,810,810,810,810,810,810,808,807,805,804,803,803,801,795,777,748,679,638,621,615,609,605,602,601,600,599,596,593,587,581,575,562,556,551,546,538,528,520,515],"ymouse":[566,566,566,566,566,566,566,566,566,566,566,566,566,566,566,566,566,566,566,566,566,566,566,566,566,566,566,566,566,566,566,566,566,566,566,566,566,566,566,566,566,566,566,566,566,566,566,566,566,566,567,569,569,570,570,570,570,567,553,531,483,454,441,433,426,414,409,404,401,396,377,359,327,305,286,251,234,219,199,179,140,113,99],"timestamp_mouse":[10,21,41,63,81,102,122,141,162,182,203,223,241,263,282,303,323,343,361,382,402,421,443,462,482,502,521,543,563,582,601,622,643,663,682,703,723,743,763,782,803,822,843,862,882,903,923,942,963,983,1001,1022,1041,1062,1083,1103,1121,1143,1162,1182,1201,1222,1242,1263,1282,1302,1321,1343,1361,1382,1402,1422,1442,1462,1481,1502,1521,1542,1562,1583,1601,1621,1642],"xSR":741.5,"ySR":501.8,"xT1":424.9,"yT1":0,"xT2":1058.1,"yT2":0,"toosoon":0,"cond_shown":"Incongruent","ratio_trial":200,"L_num":4,"L_den":5,"R_num":6,"R_den":10,"correct_side":1,"subjID":"Juanestebancruz3","gender":"0","school":"4","age":"9"},{"start_time":1552308475850,"click_time":1552308476967,"finger_time":1552308476608,"fix_duration":399.24204659103225,"trial":18,"RT":758,"MT":359,"sideResp":1,"stimulus":[],"xmouse":[823,823,823,823,823,823,823,823,823,823,823,823,823,823,823,823,823,823,823,823,823,823,823,823,823,823,823,823,823,823,821,819,818,817,816,813,808,795,778,757,714,702,697,693,692,687,682,679,673,666,658,639,626,608,585,557,476],"ymouse":[522,522,522,522,522,522,522,522,522,522,522,522,522,522,522,522,522,522,522,522,522,522,522,522,522,522,522,522,522,522,523,523,523,523,523,523,522,511,498,481,447,436,431,425,421,407,392,382,366,348,329,283,255,219,181,147,64],"timestamp_mouse":[1,18,38,58,79,98,118,138,159,178,199,219,238,258,278,298,319,338,358,379,398,418,437,457,479,499,519,538,557,577,598,619,639,657,678,698,718,737,758,778,799,817,838,857,878,899,918,938,958,978,998,1018,1038,1058,1079,1098,1117],"xSR":741.5,"ySR":501.8,"xT1":424.9,"yT1":0,"xT2":1058.1,"yT2":0,"toosoon":0,"cond_shown":"Congruent","ratio_trial":300,"L_num":1,"L_den":5,"R_num":11,"R_den":22,"correct_side":2,"subjID":"Juanestebancruz3","gender":"0","school":"4","age":"9"},{"start_time":1552308479072,"click_time":1552308480968,"finger_time":1552308480047,"fix_duration":922.0621795863123,"trial":19,"RT":975,"MT":921,"sideResp":2,"stimulus":[],"xmouse":[819,819,819,819,819,819,819,819,819,819,819,819,819,821,822,823,823,823,823,823,823,823,823,822,795,780,768,764,763,763,763,763,763,763,763,763,762,762,762,762,764,766,772,785,809,823,831,832,846,879,898,920,953,972,1006,1020,1036,1044,1053,1069,1072,1074,1076,1076,1076,1076,1074,1073,1071,1068,1068,1068,1068,1065,1065,1065,1065,1065,1066,1067,1069,1070,1070,1070,1070,1070,1070,1070,1071,1074,1074,1074,1074,1074,1076],"ymouse":[576,576,576,576,576,576,576,576,576,576,574,571,568,561,555,555,554,553,553,553,553,553,553,552,552,552,554,554,555,555,555,555,555,555,555,555,555,555,555,555,554,553,549,542,529,522,518,517,509,484,471,455,431,414,378,356,334,318,301,266,251,246,233,228,221,219,217,213,208,200,200,194,194,187,165,155,148,141,137,128,123,121,120,119,118,118,118,118,116,105,104,104,104,102,91],"timestamp_mouse":[16,49,57,76,96,117,136,157,176,197,216,236,256,275,297,315,336,356,377,396,416,437,457,476,497,515,536,557,576,596,616,637,655,677,695,717,736,756,777,797,815,836,857,875,896,915,937,956,975,996,1017,1036,1056,1077,1096,1115,1136,1156,1176,1195,1217,1236,1256,1275,1296,1315,1336,1357,1376,1396,1416,1436,1456,1476,1496,1516,1535,1557,1576,1595,1617,1636,1657,1676,1695,1716,1737,1755,1776,1796,1816,1836,1856,1875,1895],"xSR":741.5,"ySR":501.8,"xT1":424.9,"yT1":0,"xT2":1058.1,"yT2":0,"toosoon":0,"cond_shown":"Incongruent","ratio_trial":100,"L_num":10,"L_den":25,"R_num":9,"R_den":18,"correct_side":2,"subjID":"Juanestebancruz3","gender":"0","school":"4","age":"9"},{"start_time":1552308484885,"click_time":1552308486549,"finger_time":1552308485809,"fix_duration":734.6643163742375,"trial":20,"RT":924,"MT":740,"sideResp":2,"stimulus":[],"xmouse":[796,796,796,796,798,800,801,803,804,804,804,804,804,804,804,804,804,804,804,804,804,804,804,804,804,804,804,804,804,804,804,804,804,804,804,804,804,804,804,804,804,804,804,803,803,803,808,813,821,832,838,840,850,863,888,904,922,938,947,951,959,966,975,983,995,998,1002,1005,1009,1013,1013,1015,1015,1016,1019,1022,1025,1029,1032,1053,1071,1089,1100,1106],"ymouse":[563,563,563,563,563,563,563,563,563,563,563,563,563,563,563,563,563,563,563,563,563,563,563,563,563,563,563,563,563,563,563,563,563,563,563,563,563,563,563,563,560,556,552,546,526,508,490,472,450,424,416,413,402,388,366,353,336,320,308,298,284,269,253,238,213,203,195,186,178,164,160,157,155,152,144,138,133,127,124,117,112,107,103,99],"timestamp_mouse":[10,23,44,63,83,103,124,142,164,184,203,222,244,264,284,302,324,344,364,384,403,424,444,464,484,504,523,543,564,583,604,624,643,663,683,704,723,744,763,782,804,822,842,863,883,902,924,943,963,983,1004,1023,1043,1062,1084,1103,1123,1143,1163,1184,1202,1223,1243,1263,1284,1302,1323,1343,1363,1383,1403,1423,1443,1463,1484,1503,1523,1543,1564,1584,1603,1623,1643,1664],"xSR":741.5,"ySR":501.8,"xT1":424.9,"yT1":0,"xT2":1058.1,"yT2":0,"toosoon":0,"cond_shown":"Congruent","ratio_trial":200,"L_num":6,"L_den":12,"R_num":7,"R_den":10,"correct_side":2,"subjID":"Juanestebancruz3","gender":"0","school":"4","age":"9"},{"start_time":1552308489726,"click_time":1552308490988,"finger_time":1552308490428,"fix_duration":354.3868411418678,"trial":21,"RT":702,"MT":560,"sideResp":1,"stimulus":[],"xmouse":[774,774,774,774,774,774,774,774,774,774,774,774,774,774,774,774,774,774,774,774,774,774,774,774,774,774,774,774,774,774,774,774,775,778,779,780,780,778,763,747,741,727,716,700,693,689,688,683,675,674,673,671,667,654,638,630,597,574,541,528,515,500,485,463],"ymouse":[512,512,512,512,512,512,512,512,512,512,512,512,512,512,512,512,512,512,512,512,512,512,512,512,512,512,512,512,512,512,512,512,511,508,504,501,498,489,454,431,425,409,398,368,343,328,328,320,309,307,304,300,294,278,266,258,236,222,197,179,158,136,112,77],"timestamp_mouse":[12,22,42,62,82,103,122,143,162,182,202,223,243,263,282,301,323,343,362,382,403,423,442,463,482,502,522,542,563,583,602,622,642,661,683,702,723,742,762,782,802,822,843,861,882,902,922,942,962,982,1003,1022,1042,1062,1081,1102,1121,1142,1162,1181,1202,1222,1241,1261],"xSR":741.5,"ySR":501.8,"xT1":424.9,"yT1":0,"xT2":1058.1,"yT2":0,"toosoon":0,"cond_shown":"Congruent","ratio_trial":200,"L_num":6,"L_den":15,"R_num":3,"R_den":15,"correct_side":1,"subjID":"Juanestebancruz3","gender":"0","school":"4","age":"9"},{"start_time":1552308494209,"click_time":1552308495948,"finger_time":1552308495027,"fix_duration":1059.5015216047684,"trial":22,"RT":818,"MT":921,"sideResp":2,"stimulus":[],"xmouse":[790,790,790,790,790,790,790,790,790,790,790,790,790,790,790,790,790,790,790,790,790,790,790,790,790,790,790,790,790,790,790,790,790,790,790,790,790,790,790,790,808,822,834,860,885,927,949,965,984,986,986,990,992,992,1004,1005,1007,1007,1009,1013,1014,1014,1014,1014,1014,1013,1013,1013,1013,1013,1016,1018,1023,1027,1036,1038,1042,1046,1049,1052,1052,1052,1052,1052,1052,1054,1056,1060],"ymouse":[534,534,534,534,534,534,534,534,534,534,534,534,534,534,534,534,534,534,534,534,534,534,534,534,534,534,534,534,534,534,534,534,534,534,534,534,534,534,534,534,514,496,483,443,409,368,356,346,333,332,332,327,323,323,291,289,285,285,275,261,253,244,239,234,228,222,215,202,179,146,133,119,103,87,64,59,52,46,41,38,38,38,38,38,38,40,42,47],"timestamp_mouse":[2,20,44,60,79,100,119,139,160,179,199,220,239,258,279,299,320,339,359,379,400,420,439,460,479,500,520,539,560,579,599,618,640,659,680,699,718,740,759,778,798,818,838,858,879,900,919,939,959,979,1000,1019,1038,1059,1089,1098,1119,1140,1159,1179,1200,1219,1240,1260,1280,1298,1319,1339,1359,1380,1400,1419,1439,1459,1480,1499,1519,1538,1559,1578,1599,1620,1639,1659,1680,1699,1719,1739],"xSR":741.5,"ySR":501.8,"xT1":424.9,"yT1":0,"xT2":1058.1,"yT2":0,"toosoon":0,"cond_shown":"Congruent","ratio_trial":100,"L_num":3,"L_den":20,"R_num":4,"R_den":16,"correct_side":2,"subjID":"Juanestebancruz3","gender":"0","school":"4","age":"9"},{"start_time":1552308497287,"click_time":1552308499108,"finger_time":1552308498668,"fix_duration":317.360713032272,"trial":23,"RT":1381,"MT":440,"sideResp":2,"stimulus":[],"xmouse":[790,790,790,790,790,790,790,790,790,790,790,790,790,790,790,790,790,790,790,790,790,790,790,790,790,790,790,790,790,790,790,790,790,790,790,790,790,790,790,790,790,790,790,790,790,790,791,791,791,791,791,791,791,791,791,791,791,791,791,791,791,791,791,791,791,791,791,796,810,829,845,866,911,966,987,990,1001,1009,1015,1018,1021,1022,1023,1025,1027,1036,1042,1046,1050,1056,1063,1088],"ymouse":[534,534,534,534,534,534,534,534,534,534,534,534,534,534,534,534,534,534,534,534,534,534,534,534,534,534,534,534,534,534,534,534,534,534,534,534,534,534,534,534,534,534,534,534,534,534,534,534,534,534,534,534,534,534,534,534,534,534,534,534,534,534,534,534,534,534,534,533,516,493,473,455,410,342,311,306,278,255,236,226,221,219,219,215,211,190,178,168,160,147,133,89],"timestamp_mouse":[11,37,40,62,82,100,122,142,162,182,202,220,241,262,280,301,322,342,360,382,402,421,442,461,480,501,522,541,562,581,602,622,642,661,682,700,722,742,761,781,802,822,841,861,881,900,921,941,962,982,1002,1021,1042,1062,1080,1101,1122,1140,1161,1182,1202,1221,1241,1262,1282,1302,1320,1341,1361,1381,1400,1421,1441,1461,1480,1501,1521,1541,1562,1581,1602,1621,1642,1661,1682,1703,1720,1741,1761,1782,1801,1821],"xSR":741.5,"ySR":501.8,"xT1":424.9,"yT1":0,"xT2":1058.1,"yT2":0,"toosoon":0,"cond_shown":"Incongruent","ratio_trial":200,"L_num":4,"L_den":5,"R_num":6,"R_den":10,"correct_side":1,"subjID":"Juanestebancruz3","gender":"0","school":"4","age":"9"},{"start_time":1552308504665,"click_time":1552308506128,"finger_time":1552308505007,"fix_duration":1455.6828401374673,"trial":24,"RT":342,"MT":1121,"sideResp":2,"stimulus":[],"xmouse":[769,769,769,769,769,769,769,769,769,769,769,769,769,771,771,771,771,770,761,752,744,733,715,713,713,713,720,744,764,785,808,809,824,829,847,867,885,896,910,915,917,922,934,954,965,974,982,989,998,1000,1002,1004,1006,1014,1017,1018,1022,1029,1033,1036,1036,1036,1036,1036,1036,1036,1036,1039,1045,1051,1052,1054,1056,1065],"ymouse":[533,533,533,533,533,533,533,533,533,533,533,533,533,531,529,522,510,495,463,446,425,408,373,365,359,355,348,339,333,326,317,317,308,304,288,269,251,231,195,178,171,155,132,101,88,78,70,65,58,57,55,55,55,55,55,55,55,54,53,53,53,53,53,53,53,53,53,53,53,53,53,53,55,58],"timestamp_mouse":[11,24,43,64,82,103,123,143,162,184,203,223,244,264,282,303,323,342,362,383,403,423,444,463,483,503,523,545,562,583,603,622,645,663,684,703,723,743,763,783,802,822,843,864,883,902,922,943,963,984,1003,1023,1042,1062,1083,1104,1123,1144,1163,1184,1217,1223,1244,1263,1283,1303,1324,1343,1362,1382,1402,1422,1443,1463],"xSR":741.5,"ySR":501.8,"xT1":424.9,"yT1":0,"xT2":1058.1,"yT2":0,"toosoon":0,"cond_shown":"Congruent","ratio_trial":200,"L_num":1,"L_den":2,"R_num":21,"R_den":30,"correct_side":2,"subjID":"Juanestebancruz3","gender":"0","school":"4","age":"9"},{"start_time":1552308508280,"click_time":1552308509088,"finger_time":1552308508887,"fix_duration":250,"trial":25,"RT":607,"MT":201,"sideResp":1,"stimulus":[],"xmouse":[809,810,811,811,811,811,811,811,811,811,811,811,811,811,811,811,811,811,811,811,811,811,811,811,811,811,811,806,786,769,731,720,707,699,692,678,666,600,554,528,505],"ymouse":[556,553,551,551,551,551,551,551,551,551,551,551,551,551,551,551,551,551,551,551,551,551,551,551,551,551,549,543,521,506,476,467,435,409,375,344,325,242,176,133,95],"timestamp_mouse":[8,30,51,69,89,109,127,147,168,187,207,227,247,268,289,309,329,349,368,387,409,429,449,469,489,508,527,548,569,588,607,628,648,669,689,708,727,748,768,788,808],"xSR":741.5,"ySR":501.8,"xT1":424.9,"yT1":0,"xT2":1058.1,"yT2":0,"toosoon":0,"cond_shown":"Incongruent","ratio_trial":200,"L_num":4,"L_den":6,"R_num":14,"R_den":30,"correct_side":1,"subjID":"Juanestebancruz3","gender":"0","school":"4","age":"9"},{"start_time":1552308511914,"click_time":1552308513068,"finger_time":1552308512348,"fix_duration":784.3078582804666,"trial":26,"RT":434,"MT":720,"sideResp":2,"stimulus":[],"xmouse":[794,794,794,794,794,794,795,795,796,796,796,797,797,798,799,803,807,812,819,824,836,845,858,873,889,932,943,957,971,976,982,985,992,998,1006,1023,1030,1034,1038,1040,1040,1040,1040,1040,1041,1041,1042,1043,1045,1048,1050,1052,1053,1053,1053,1054,1058,1060],"ymouse":[571,571,571,571,571,571,571,571,571,571,571,571,571,571,571,569,567,562,556,551,539,527,510,487,466,407,391,372,345,332,317,303,284,265,245,203,186,171,157,148,148,148,147,146,145,145,144,142,137,132,126,121,120,119,117,110,100,91],"timestamp_mouse":[14,39,54,75,95,113,134,155,175,195,213,235,255,274,293,314,335,354,373,393,414,434,454,474,494,515,534,553,575,594,615,634,654,674,693,715,734,753,775,794,815,835,853,873,894,915,935,954,974,993,1014,1033,1054,1075,1094,1115,1133,1154],"xSR":741.5,"ySR":501.8,"xT1":424.9,"yT1":0,"xT2":1058.1,"yT2":0,"toosoon":0,"cond_shown":"Incongruent","ratio_trial":300,"L_num":4,"L_den":20,"R_num":2,"R_den":4,"correct_side":2,"subjID":"Juanestebancruz3","gender":"0","school":"4","age":"9"},{"start_time":1552308515235,"click_time":1552308516448,"finger_time":1552308516008,"fix_duration":585.7001974949635,"trial":27,"RT":773,"MT":440,"sideResp":1,"stimulus":[],"xmouse":[793,793,793,793,793,793,793,793,793,793,793,793,793,793,793,793,793,793,793,793,793,793,793,793,793,793,793,793,793,793,793,793,793,793,792,788,781,779,768,750,741,730,720,709,703,693,690,690,687,678,676,672,663,653,627,596,582,537,510,490,459],"ymouse":[527,527,527,527,527,527,527,527,527,527,527,527,527,527,527,527,527,527,527,527,527,527,527,527,527,527,527,527,527,527,527,527,527,527,527,522,513,508,495,470,456,442,427,411,402,387,382,381,370,350,342,334,314,293,255,223,213,179,158,136,99],"timestamp_mouse":[13,47,53,73,94,112,134,154,174,194,212,234,254,272,292,313,334,353,374,393,412,432,453,473,493,512,533,553,574,593,612,634,654,672,693,713,734,753,773,795,812,833,852,873,894,913,933,952,972,994,1013,1034,1053,1073,1095,1113,1132,1152,1172,1192,1213],"xSR":741.5,"ySR":501.8,"xT1":424.9,"yT1":0,"xT2":1058.1,"yT2":0,"toosoon":0,"cond_shown":"Incongruent","ratio_trial":100,"L_num":13,"L_den":26,"R_num":12,"R_den":20,"correct_side":2,"subjID":"Juanestebancruz3","gender":"0","school":"4","age":"9"},{"start_time":1552308517960,"click_time":1552308518948,"finger_time":1552308518308,"fix_duration":250,"trial":28,"RT":348,"MT":640,"sideResp":2,"stimulus":[],"xmouse":[788,788,788,789,789,789,789,790,790,791,791,791,793,794,799,805,810,821,834,851,910,920,937,951,988,1009,1027,1046,1048,1061,1061,1063,1063,1063,1063,1065,1068,1071,1072,1073,1077,1078,1079,1081,1081,1082,1084,1086,1086,1090],"ymouse":[555,554,554,553,552,550,548,546,545,543,543,543,538,535,525,514,502,488,470,447,393,383,366,347,303,281,262,245,243,227,225,222,222,222,222,215,206,193,182,178,152,144,137,132,131,128,121,113,107,98],"timestamp_mouse":[10,28,47,68,89,108,128,148,168,188,209,228,248,268,288,308,328,348,368,387,408,428,448,467,488,508,528,548,569,589,608,629,648,668,689,708,729,748,768,788,808,827,848,868,888,908,928,948,969,988],"xSR":741.5,"ySR":501.8,"xT1":424.9,"yT1":0,"xT2":1058.1,"yT2":0,"toosoon":0,"cond_shown":"Congruent","ratio_trial":100,"L_num":3,"L_den":6,"R_num":2,"R_den":5,"correct_side":1,"subjID":"Juanestebancruz3","gender":"0","school":"4","age":"9"},{"start_time":1552308524355,"click_time":1552308525228,"finger_time":1552308524527,"fix_duration":325.9271183633906,"trial":29,"RT":172,"MT":701,"sideResp":1,"stimulus":[],"xmouse":[797,797,797,797,797,796,792,783,766,761,760,760,760,760,760,760,760,760,760,759,756,748,725,677,607,529,519,519,519,519,519,519,519,518,517,513,512,512,512,512,511,503,487,471],"ymouse":[521,521,521,521,521,518,513,502,483,475,473,473,473,473,473,473,473,473,473,473,472,468,454,425,379,326,314,314,314,312,312,306,299,284,269,240,227,208,192,173,156,134,110,91],"timestamp_mouse":[18,49,52,73,94,113,134,152,172,193,213,234,254,272,292,312,332,354,373,393,412,432,453,473,493,512,533,552,573,592,612,632,652,673,693,713,733,752,772,793,813,832,854,873],"xSR":741.5,"ySR":501.8,"xT1":424.9,"yT1":0,"xT2":1058.1,"yT2":0,"toosoon":0,"cond_shown":"Congruent","ratio_trial":200,"L_num":6,"L_den":20,"R_num":11,"R_den":22,"correct_side":2,"subjID":"Juanestebancruz3","gender":"0","school":"4","age":"9"},{"start_time":1552308530133,"click_time":1552308531669,"finger_time":1552308530889,"fix_duration":384.99633907603425,"trial":30,"RT":756,"MT":780,"sideResp":2,"stimulus":[],"xmouse":[805,805,805,805,805,805,805,805,805,805,805,805,805,805,805,805,805,805,805,805,805,805,805,805,805,805,805,805,805,805,805,805,805,805,807,813,831,861,873,878,878,877,884,911,925,925,932,939,958,959,973,1007,1024,1033,1046,1046,1045,1045,1046,1048,1050,1051,1047,1047,1047,1047,1047,1052,1061,1066,1075,1080,1082,1089,1096,1099,1102],"ymouse":[569,569,569,569,569,569,569,569,569,569,569,569,569,569,569,569,569,569,569,569,569,569,569,569,569,569,569,569,569,569,569,569,569,569,565,559,544,518,495,476,476,466,439,393,377,377,368,362,351,351,345,332,325,319,308,308,296,285,273,260,248,229,213,212,212,212,212,198,188,180,166,155,151,138,121,109,94],"timestamp_mouse":[15,44,55,76,94,115,134,156,175,195,215,235,254,275,296,316,335,354,376,395,414,435,456,476,495,515,535,556,576,595,615,634,654,675,695,715,735,756,774,795,815,836,854,875,896,915,935,956,974,994,1014,1036,1054,1075,1094,1116,1135,1155,1174,1194,1215,1235,1254,1275,1295,1314,1334,1354,1374,1396,1416,1436,1455,1475,1495,1516,1536],"xSR":741.5,"ySR":501.8,"xT1":424.9,"yT1":0,"xT2":1058.1,"yT2":0,"toosoon":0,"cond_shown":"Congruent","ratio_trial":200,"L_num":12,"L_den":20,"R_num":6,"R_den":15,"correct_side":1,"subjID":"Juanestebancruz3","gender":"0","school":"4","age":"9"},{"start_time":1552308535667,"click_time":1552308536428,"finger_time":1552308535748,"fix_duration":758.7270382361557,"trial":31,"RT":81,"MT":680,"sideResp":2,"stimulus":[],"xmouse":[799,798,796,796,794,792,791,791,790,790,790,790,790,789,788,788,787,787,790,802,817,864,892,908,909,917,976,991,994,995,996,1003,1009,1015,1024,1042,1058,1058,1059],"ymouse":[520,517,509,509,498,492,479,478,477,477,477,477,476,475,474,474,474,470,460,440,417,352,316,297,297,292,265,260,258,258,255,241,228,213,194,162,110,100,84],"timestamp_mouse":[2,20,55,60,81,102,120,140,161,180,202,220,240,262,282,301,321,341,360,380,401,421,441,460,481,502,521,541,560,582,600,621,641,662,681,701,721,741,760],"xSR":741.5,"ySR":501.8,"xT1":424.9,"yT1":0,"xT2":1058.1,"yT2":0,"toosoon":0,"cond_shown":"Incongruent","ratio_trial":100,"L_num":10,"L_den":25,"R_num":8,"R_den":16,"correct_side":2,"subjID":"Juanestebancruz3","gender":"0","school":"4","age":"9"},{"start_time":1552308541268,"click_time":1552308542369,"finger_time":1552308541648,"fix_duration":1359.4778465137638,"trial":32,"RT":380,"MT":721,"sideResp":1,"stimulus":[],"xmouse":[796,796,796,796,796,796,796,796,796,796,796,796,796,796,796,796,795,794,793,790,786,776,765,752,740,734,730,724,723,721,719,718,716,715,715,715,715,719,733,753,783,792,854,862,862,862,862,862,863,856,840,818,728,647,521,460],"ymouse":[524,524,524,524,524,524,524,524,524,524,524,524,524,524,523,523,522,517,509,497,481,455,434,415,386,370,353,316,312,298,285,276,261,256,254,254,254,253,253,253,258,259,269,269,269,269,269,269,269,264,255,244,206,172,113,76],"timestamp_mouse":[14,26,39,60,80,100,120,140,160,179,200,221,239,259,280,301,319,340,360,380,399,421,440,459,479,500,521,539,559,579,599,620,639,660,681,701,721,739,760,780,801,820,839,859,880,901,920,941,961,980,1000,1020,1039,1059,1079,1101],"xSR":741.5,"ySR":501.8,"xT1":424.9,"yT1":0,"xT2":1058.1,"yT2":0,"toosoon":0,"cond_shown":"Incongruent","ratio_trial":100,"L_num":3,"L_den":5,"R_num":8,"R_den":16,"correct_side":1,"subjID":"Juanestebancruz3","gender":"0","school":"4","age":"9"},{"start_time":1552308545221,"click_time":1552308546589,"finger_time":1552308545968,"fix_duration":250,"trial":33,"RT":747,"MT":621,"sideResp":2,"stimulus":[],"xmouse":[828,828,828,828,828,828,828,828,828,828,828,828,828,828,828,828,828,828,828,828,828,828,828,828,828,828,828,828,828,828,828,828,828,828,829,833,835,839,842,856,864,875,889,892,898,944,973,1008,1008,1030,1030,1031,1032,1032,1032,1032,1032,1032,1032,1032,1032,1032,1032,1036,1038,1049,1059,1067,1076],"ymouse":[540,540,540,540,540,540,540,540,540,540,540,540,540,540,540,540,540,540,540,540,540,540,540,540,540,539,539,539,539,539,539,539,537,535,529,514,509,497,487,459,442,421,400,393,384,338,304,271,271,241,241,240,230,223,217,200,195,195,195,195,195,194,188,176,167,144,126,110,98],"timestamp_mouse":[11,26,46,66,88,108,127,147,168,187,207,228,246,267,288,307,327,348,368,387,407,428,447,467,487,507,527,547,566,587,607,628,647,666,686,707,727,747,767,788,806,826,847,868,887,908,926,948,967,987,1006,1026,1046,1067,1087,1106,1127,1146,1167,1186,1206,1226,1247,1267,1286,1307,1326,1348,1368],"xSR":741.5,"ySR":501.8,"xT1":424.9,"yT1":0,"xT2":1058.1,"yT2":0,"toosoon":0,"cond_shown":"Congruent","ratio_trial":300,"L_num":1,"L_den":30,"R_num":8,"R_den":24,"correct_side":2,"subjID":"Juanestebancruz3","gender":"0","school":"4","age":"9"},{"start_time":1552308552639,"click_time":1552308554328,"finger_time":1552308553627,"fix_duration":826.4734092519049,"trial":34,"RT":988,"MT":701,"sideResp":1,"stimulus":[],"xmouse":[743,743,743,743,743,743,743,743,743,743,743,743,743,743,743,743,743,743,743,743,743,743,743,743,743,743,743,743,743,743,743,743,743,743,743,743,743,743,743,743,743,743,743,743,743,743,743,743,743,741,734,722,703,670,579,539,501,476,463,455,455,455,455,456,469,477,482,489,494,506,512,520,526,532,538,538,538,538,538,532,530,529,527,526,517],"ymouse":[535,535,535,535,535,535,535,535,535,535,535,535,535,535,535,535,535,535,535,535,535,535,535,535,535,535,535,535,535,535,535,535,535,535,535,535,535,535,535,535,535,535,535,535,535,535,535,535,535,535,530,521,507,479,388,342,299,275,263,253,253,253,253,249,234,223,214,206,199,183,175,166,156,142,117,109,104,100,96,89,88,88,86,86,80],"timestamp_mouse":[10,36,49,69,89,109,130,150,170,189,208,229,249,270,289,309,329,350,368,389,408,429,449,468,489,509,529,549,569,589,610,630,649,669,689,709,729,749,768,789,808,828,850,869,890,909,929,948,970,988,1009,1028,1050,1068,1089,1108,1128,1149,1169,1189,1209,1228,1248,1268,1288,1309,1328,1349,1369,1389,1408,1429,1449,1469,1489,1509,1528,1548,1569,1589,1609,1628,1648,1669,1689],"xSR":741.5,"ySR":501.8,"xT1":424.9,"yT1":0,"xT2":1058.1,"yT2":0,"toosoon":0,"cond_shown":"Incongruent","ratio_trial":100,"L_num":13,"L_den":26,"R_num":6,"R_den":10,"correct_side":2,"subjID":"Juanestebancruz3","gender":"0","school":"4","age":"9"},{"start_time":1552308559450,"click_time":1552308561027,"finger_time":1552308560729,"fix_duration":1398.889750336724,"trial":35,"RT":1279,"MT":298,"sideResp":1,"stimulus":[],"xmouse":[788,788,788,788,788,788,788,788,788,788,788,788,788,788,788,788,788,788,788,788,788,788,788,788,788,788,788,788,788,788,788,788,788,788,788,788,788,788,788,788,788,788,788,788,788,788,788,788,788,788,788,788,788,788,788,788,788,788,788,788,787,784,777,765,749,692,642,603,566,543,525,525,525,525,525,525,525,525,525,524],"ymouse":[546,546,541,541,540,538,538,537,537,537,537,537,537,537,537,537,537,537,537,537,537,537,537,537,537,537,537,537,537,537,537,537,537,537,537,537,537,537,537,537,537,537,537,537,537,537,537,537,537,537,537,537,537,537,537,537,537,537,537,537,536,533,524,507,480,355,235,159,90,49,16,13,13,13,13,13,13,13,13,12],"timestamp_mouse":[7,19,39,57,77,99,117,137,157,178,197,218,239,257,278,297,317,338,359,378,398,418,439,459,479,498,518,538,557,578,598,617,637,659,677,698,717,739,759,779,797,817,839,859,879,898,917,939,958,979,998,1019,1037,1059,1078,1098,1118,1138,1159,1178,1199,1218,1238,1257,1279,1297,1319,1337,1358,1377,1398,1418,1438,1458,1477,1497,1518,1538,1557,1577],"xSR":741.5,"ySR":501.8,"xT1":424.9,"yT1":0,"xT2":1058.1,"yT2":0,"toosoon":0,"cond_shown":"Incongruent","ratio_trial":100,"L_num":12,"L_den":30,"R_num":2,"R_den":4,"correct_side":2,"subjID":"Juanestebancruz3","gender":"0","school":"4","age":"9"},{"start_time":1552308563979,"click_time":1552308566467,"finger_time":1552308565688,"fix_duration":1229.5839541809603,"trial":36,"RT":1709,"MT":779,"sideResp":1,"stimulus":[],"xmouse":[785,785,785,785,785,785,785,785,785,785,785,785,785,785,785,785,785,785,785,785,785,785,785,785,785,785,785,785,785,785,785,785,785,785,785,785,785,785,785,785,785,785,785,785,785,785,785,785,785,785,785,785,785,785,785,785,785,785,785,785,785,785,785,785,785,785,785,785,785,785,785,785,785,785,785,785,785,785,785,785,785,785,785,785,781,768,746,717,651,645,642,642,642,642,642,642,642,644,644,644,644,644,643,641,638,634,629,619,608,552,536,527,525,524,524,524,524,524,524,524,525,525,525,524,521],"ymouse":[561,561,561,561,561,561,561,561,561,561,561,561,561,561,561,561,561,561,561,561,561,561,561,561,560,557,556,554,554,554,554,554,554,554,554,554,554,554,554,554,554,554,554,554,554,554,554,554,554,554,554,554,554,554,554,554,554,554,554,554,554,554,554,554,554,554,554,554,554,554,554,554,554,554,552,550,546,541,537,535,535,535,534,530,519,495,456,408,284,254,232,224,201,169,161,161,161,159,157,157,157,157,156,156,156,156,156,154,151,133,125,120,118,117,117,117,117,117,116,113,110,107,106,101,97],"timestamp_mouse":[13,35,48,69,89,108,130,148,168,190,208,228,250,268,289,309,328,348,368,390,410,429,450,468,489,510,528,550,568,589,610,629,648,668,688,710,729,750,768,788,810,829,850,869,888,909,929,949,968,989,1008,1030,1048,1068,1090,1109,1128,1148,1168,1190,1210,1229,1250,1268,1288,1310,1329,1348,1369,1390,1408,1429,1450,1468,1489,1510,1529,1549,1568,1590,1610,1630,1649,1668,1690,1709,1728,1749,1769,1788,1808,1828,1848,1870,1889,1909,1928,1949,1969,1990,2009,2028,2048,2070,2088,2108,2129,2148,2168,2188,2209,2229,2250,2269,2289,2308,2329,2348,2368,2388,2408,2428,2449,2470,2488],"xSR":741.5,"ySR":501.8,"xT1":424.9,"yT1":0,"xT2":1058.1,"yT2":0,"toosoon":0,"cond_shown":"Congruent","ratio_trial":300,"L_num":20,"L_den":25,"R_num":9,"R_den":18,"correct_side":1,"subjID":"Juanestebancruz3","gender":"0","school":"4","age":"9"},{"start_time":1552308568737,"click_time":1552308570847,"finger_time":1552308570167,"fix_duration":648.0798697926346,"trial":37,"RT":1430,"MT":680,"sideResp":2,"stimulus":[],"xmouse":[786,786,786,786,786,786,786,786,786,786,786,786,786,786,786,786,786,786,786,786,786,786,786,786,786,786,786,786,786,786,786,786,786,786,786,786,786,786,786,786,786,786,786,786,786,786,786,786,786,786,786,786,786,786,786,786,786,786,786,786,786,786,786,786,786,786,786,786,786,786,788,793,794,795,797,805,849,884,899,909,913,929,932,932,941,942,960,973,981,990,996,1005,1011,1016,1022,1027,1031,1041,1042,1042,1049,1071,1079,1087,1094,1099],"ymouse":[527,527,527,527,527,527,527,527,527,527,527,527,527,527,527,527,527,527,527,527,527,527,527,527,527,527,527,527,527,527,527,527,527,527,527,527,527,527,527,527,527,527,527,527,527,527,527,527,527,527,527,527,527,527,527,527,527,527,527,527,527,527,527,527,527,527,527,527,527,525,520,492,485,481,479,475,454,434,425,417,414,405,404,404,398,398,378,360,348,332,315,282,264,251,233,220,214,195,192,191,181,141,126,112,103,95],"timestamp_mouse":[15,46,51,72,91,112,132,150,172,190,210,230,251,271,291,311,332,351,371,390,412,430,450,472,490,512,531,551,571,590,610,632,650,670,691,710,731,751,770,792,812,830,850,871,890,911,932,950,971,990,1010,1030,1050,1070,1091,1110,1131,1152,1170,1192,1211,1231,1251,1272,1292,1311,1332,1351,1371,1391,1410,1430,1450,1471,1490,1510,1530,1550,1570,1590,1611,1630,1651,1670,1691,1712,1730,1750,1770,1790,1810,1831,1850,1870,1890,1910,1930,1950,1970,1992,2012,2031,2050,2071,2090,2110],"xSR":741.5,"ySR":501.8,"xT1":424.9,"yT1":0,"xT2":1058.1,"yT2":0,"toosoon":0,"cond_shown":"Incongruent","ratio_trial":100,"L_num":12,"L_den":24,"R_num":9,"R_den":15,"correct_side":2,"subjID":"Juanestebancruz3","gender":"0","school":"4","age":"9"},{"start_time":1552308577417,"click_time":1552308579249,"finger_time":1552308578708,"fix_duration":1068.3000607607953,"trial":38,"RT":1291,"MT":541,"sideResp":2,"stimulus":[],"xmouse":[822,822,822,822,822,822,822,822,822,822,822,822,822,822,822,822,822,822,822,822,822,822,822,822,822,822,822,822,822,822,822,822,822,822,822,822,822,822,822,822,822,822,822,822,822,822,822,822,822,822,822,822,822,822,822,822,822,822,822,822,822,821,824,834,843,854,872,894,957,992,1006,1026,1045,1080,1092,1100,1100,1096,1069,1056,1041,1023,1013,999,999,999,999,999,999,1007,1033,1088],"ymouse":[515,515,515,515,515,515,515,515,515,515,515,515,515,515,515,515,515,515,515,515,515,515,515,515,515,515,515,515,515,515,515,515,515,515,515,515,515,515,515,515,515,515,515,515,515,515,515,515,515,515,515,515,515,515,515,515,515,515,515,515,515,515,511,502,495,483,469,454,409,382,370,351,329,281,262,239,216,191,142,127,115,105,98,89,89,89,89,89,89,85,77,62],"timestamp_mouse":[10,38,52,71,91,111,132,150,171,191,211,232,250,270,292,312,330,351,372,391,410,432,451,470,491,511,531,551,571,591,611,632,650,671,691,711,732,751,770,791,811,831,851,870,891,910,932,951,970,990,1010,1032,1051,1071,1092,1112,1131,1150,1171,1190,1210,1230,1250,1271,1291,1310,1330,1352,1371,1392,1410,1431,1450,1471,1491,1510,1531,1552,1570,1590,1611,1631,1652,1670,1692,1711,1730,1750,1771,1790,1810,1832],"xSR":741.5,"ySR":501.8,"xT1":424.9,"yT1":0,"xT2":1058.1,"yT2":0,"toosoon":0,"cond_shown":"Congruent","ratio_trial":200,"L_num":3,"L_den":6,"R_num":14,"R_den":20,"correct_side":2,"subjID":"Juanestebancruz3","gender":"0","school":"4","age":"9"},{"start_time":1552308581497,"click_time":1552308584090,"finger_time":1552308582969,"fix_duration":847.107775790738,"trial":39,"RT":1472,"MT":1121,"sideResp":1,"stimulus":[],"xmouse":[795,795,795,795,795,795,795,795,795,795,795,795,795,795,795,795,795,795,795,795,795,795,795,795,795,795,795,795,795,795,795,795,795,795,795,795,795,795,795,795,795,795,795,795,795,796,796,796,796,796,796,796,796,796,796,796,796,796,796,796,796,796,796,796,796,796,796,796,796,796,796,791,787,775,717,702,690,680,675,671,668,665,663,659,651,641,637,630,622,593,571,532,471,409,339,335,335,335,335,335,335,335,335,335,335,335,335,335,335,335,340,343,345,347,348,352,354,357,360,363,373,378,380,383,387,392,393,395,405,447],"ymouse":[535,535,535,535,535,535,535,535,535,535,535,535,535,535,535,535,535,535,535,535,535,535,535,535,535,535,535,535,535,535,535,535,535,535,535,535,535,535,535,535,535,535,535,535,535,535,535,535,535,535,535,535,535,535,535,535,535,535,535,535,535,535,535,535,535,535,535,535,535,535,535,526,516,487,384,354,335,318,309,301,288,279,265,247,223,203,194,185,176,156,145,130,106,80,39,30,21,12,5,0,0,0,0,0,0,0,0,0,0,0,0,1,2,3,4,6,7,9,12,14,21,24,25,26,28,28,28,28,27,26],"timestamp_mouse":[13,42,52,72,90,110,131,151,172,191,212,231,250,271,291,310,331,352,372,391,411,431,451,472,491,511,530,551,571,592,611,632,652,670,690,712,732,752,771,791,812,830,851,872,892,910,931,952,971,991,1011,1031,1050,1070,1091,1110,1131,1152,1172,1190,1212,1232,1250,1272,1290,1311,1331,1350,1370,1391,1410,1431,1451,1472,1492,1510,1530,1552,1571,1591,1611,1630,1650,1670,1691,1710,1730,1750,1770,1792,1810,1830,1850,1870,1892,1910,1930,1951,1970,1992,2010,2030,2050,2072,2091,2111,2132,2151,2171,2190,2211,2230,2250,2271,2290,2311,2330,2352,2371,2391,2411,2431,2451,2472,2491,2511,2531,2552,2571,2592],"xSR":741.5,"ySR":501.8,"xT1":424.9,"yT1":0,"xT2":1058.1,"yT2":0,"toosoon":0,"cond_shown":"Congruent","ratio_trial":300,"L_num":4,"L_den":20,"R_num":13,"R_den":26,"correct_side":2,"subjID":"Juanestebancruz3","gender":"0","school":"4","age":"9"},{"start_time":1552308605920,"click_time":1552308608549,"finger_time":1552308606148,"fix_duration":250,"trial":40,"RT":228,"MT":2401,"sideResp":2,"stimulus":[],"xmouse":[742,742,742,743,743,743,744,748,759,779,806,861,887,895,902,910,925,970,1006,1042,1073,1119,1130,1140,1141,1143,1147,1147,1147,1148,1148,1148,1149,1149,1149,1149,1149,1149,1150,1150,1150,1150,1151,1151,1152,1152,1152,1152,1152,1152,1152,1152,1151,1151,1150,1148,1144,1135,1135,1126,1115,1070,1048,1032,1022,1016,1014,1014,1014,1013,1013,1013,1013,1013,1013,1013,1013,1013,1013,1013,1013,1013,1013,1015,1016,1020,1025,1027,1030,1031,1033,1035,1038,1039,1040,1042,1046,1048,1051,1052,1052,1054,1054,1054,1054,1054,1056,1058,1061,1062,1063,1068,1068,1069,1070,1072,1074,1077,1081,1087,1089,1096,1100,1100,1100,1100,1100,1100,1100,1100,1100,1099],"ymouse":[594,594,594,595,595,595,595,595,595,595,595,598,601,602,602,602,602,604,609,614,619,628,629,631,631,631,631,631,631,631,631,631,631,631,631,631,631,631,631,631,631,631,631,631,631,631,631,631,631,630,628,625,623,623,622,622,621,613,613,605,592,547,531,520,511,504,492,488,488,484,480,474,472,471,471,470,470,470,470,469,469,464,461,455,450,444,430,421,415,410,407,396,393,389,386,381,370,362,356,351,351,336,330,321,313,304,279,264,249,243,233,213,213,212,209,205,198,191,181,165,159,129,110,105,105,105,105,104,104,103,102,98],"timestamp_mouse":[13,37,49,68,88,109,128,148,168,188,208,228,248,268,288,310,328,348,369,388,408,429,449,468,489,508,529,548,569,588,608,629,647,668,689,708,729,748,768,788,809,829,848,868,889,908,930,949,969,988,1009,1028,1049,1068,1089,1109,1128,1149,1169,1188,1208,1229,1249,1269,1289,1308,1328,1348,1368,1389,1409,1429,1449,1468,1488,1508,1529,1549,1568,1588,1609,1628,1648,1668,1688,1708,1728,1748,1768,1789,1809,1829,1849,1868,1889,1908,1929,1948,1969,1989,2008,2028,2048,2068,2089,2108,2128,2148,2168,2189,2208,2229,2248,2268,2289,2308,2329,2348,2369,2388,2408,2428,2448,2468,2488,2509,2528,2549,2568,2588,2608,2629],"xSR":741.5,"ySR":501.8,"xT1":424.9,"yT1":0,"xT2":1058.1,"yT2":0,"toosoon":0,"cond_shown":"Congruent","ratio_trial":100,"L_num":2,"L_den":5,"R_num":6,"R_den":12,"correct_side":2,"subjID":"Juanestebancruz3","gender":"0","school":"4","age":"9"},{"start_time":1552308614058,"click_time":1552308616790,"finger_time":1552308615089,"fix_duration":1388.4236305180812,"trial":41,"RT":1031,"MT":1701,"sideResp":2,"stimulus":[],"xmouse":[829,829,829,829,829,829,829,829,829,829,829,831,831,831,831,831,831,831,831,831,831,831,831,831,831,831,831,831,831,831,831,831,831,831,831,831,831,831,831,831,832,834,834,834,834,835,835,835,836,836,838,842,842,843,844,848,852,854,855,856,857,857,859,860,862,866,872,876,876,879,897,897,897,897,905,931,940,946,948,948,948,948,948,949,949,950,950,950,948,945,869,803,779,775,771,766,766,765,768,782,859,892,901,912,925,926,926,926,922,920,918,918,917,917,921,933,945,962,977,988,1006,1014,1021,1026,1031,1033,1033,1034,1038,1041,1049,1050,1051,1052,1053,1056,1061],"ymouse":[558,558,558,558,558,558,558,558,558,558,558,559,559,559,559,559,559,559,559,559,559,559,559,559,559,559,559,559,559,559,559,559,559,559,559,559,559,559,559,559,559,559,559,559,559,559,559,559,558,558,558,558,558,558,558,555,549,547,545,543,541,541,538,535,531,521,512,505,505,501,480,479,479,479,473,456,450,446,444,444,444,444,443,439,439,436,431,429,425,421,407,395,392,392,392,392,392,389,376,352,240,193,183,175,168,168,168,167,165,165,164,164,163,156,145,129,119,106,95,87,71,65,61,57,55,53,53,53,51,50,49,49,49,49,49,51,53],"timestamp_mouse":[13,42,51,70,90,111,131,150,171,191,211,231,250,271,290,311,330,351,371,391,411,431,451,470,490,511,530,551,571,590,610,630,651,670,690,711,730,750,770,790,810,830,851,871,891,911,930,951,970,990,1010,1031,1050,1071,1090,1110,1130,1150,1170,1190,1210,1230,1250,1270,1291,1310,1330,1351,1370,1391,1411,1430,1451,1471,1491,1510,1530,1550,1571,1590,1610,1630,1650,1670,1691,1710,1730,1751,1771,1790,1811,1831,1850,1870,1891,1910,1931,1950,1970,1990,2010,2032,2050,2071,2091,2110,2131,2151,2170,2190,2210,2231,2251,2270,2290,2311,2330,2350,2370,2390,2411,2429,2450,2470,2491,2511,2530,2550,2570,2590,2610,2630,2650,2671,2691,2711,2732],"xSR":741.5,"ySR":501.8,"xT1":424.9,"yT1":0,"xT2":1058.1,"yT2":0,"toosoon":0,"cond_shown":"Congruent","ratio_trial":200,"L_num":1,"L_den":2,"R_num":21,"R_den":30,"correct_side":2,"subjID":"Juanestebancruz3","gender":"0","school":"4","age":"9"},{"start_time":1552308620521,"click_time":1552308621828,"finger_time":1552308621308,"fix_duration":250,"trial":42,"RT":787,"MT":520,"sideResp":2,"stimulus":[],"xmouse":[749,749,749,749,749,749,749,749,749,749,749,749,749,749,749,749,749,749,749,749,749,749,749,749,749,749,749,749,749,749,749,749,749,749,749,749,749,749,749,750,751,757,774,775,808,848,857,869,878,883,891,891,892,893,901,917,931,944,958,964,973,975,986,1058,1082,1098],"ymouse":[503,503,503,503,503,503,503,503,503,503,503,503,503,503,503,503,503,503,503,503,503,503,503,503,503,503,503,503,503,503,503,503,503,503,503,503,503,503,503,501,501,499,484,483,459,427,420,399,363,324,293,293,283,277,265,240,224,210,192,187,178,178,170,126,111,97],"timestamp_mouse":[12,35,47,68,87,108,128,147,168,188,207,228,248,267,287,308,327,347,368,387,408,428,447,468,488,507,527,548,568,589,607,628,648,667,687,707,728,747,768,787,808,827,850,867,888,907,928,947,968,987,1007,1027,1048,1067,1088,1106,1127,1147,1167,1187,1207,1227,1248,1267,1288,1306],"xSR":741.5,"ySR":501.8,"xT1":424.9,"yT1":0,"xT2":1058.1,"yT2":0,"toosoon":0,"cond_shown":"Congruent","ratio_trial":200,"L_num":3,"L_den":6,"R_num":14,"R_den":20,"correct_side":2,"subjID":"Juanestebancruz3","gender":"0","school":"4","age":"9"},{"start_time":1552308624875,"click_time":1552308626048,"finger_time":1552308625508,"fix_duration":1185.0902989739,"trial":43,"RT":633,"MT":540,"sideResp":2,"stimulus":[],"xmouse":[807,806,806,804,803,802,800,800,799,799,799,799,799,799,799,799,799,799,799,799,799,799,799,799,799,799,799,799,799,803,827,849,881,884,909,989,1008,1025,1038,1055,1085,1085,1090,1095,1095,1095,1094,1094,1094,1093,1093,1093,1091,1090,1087,1087,1087,1087,1086],"ymouse":[557,556,556,555,555,555,555,555,554,554,554,554,554,554,554,554,554,554,554,554,554,554,554,554,554,554,554,554,553,549,522,501,478,475,456,388,361,329,297,264,212,212,205,196,193,179,177,177,177,176,171,170,164,153,134,124,116,108,91],"timestamp_mouse":[23,52,52,74,93,113,134,153,173,194,213,234,254,273,294,314,334,354,374,394,413,434,454,474,493,514,534,553,574,594,613,633,654,674,693,714,733,753,773,793,814,833,853,874,894,914,933,954,973,994,1015,1033,1053,1073,1094,1114,1133,1153,1173],"xSR":741.5,"ySR":501.8,"xT1":424.9,"yT1":0,"xT2":1058.1,"yT2":0,"toosoon":0,"cond_shown":"Congruent","ratio_trial":100,"L_num":6,"L_den":12,"R_num":15,"R_den":25,"correct_side":2,"subjID":"Juanestebancruz3","gender":"0","school":"4","age":"9"},{"start_time":1552308629745,"click_time":1552308631808,"finger_time":1552308631368,"fix_duration":515.6326162358843,"trial":44,"RT":1623,"MT":440,"sideResp":2,"stimulus":[],"xmouse":[823,823,823,823,823,823,823,823,823,823,823,823,823,823,823,823,823,823,823,823,823,823,823,823,823,823,823,823,823,823,823,823,823,823,823,823,823,823,823,823,823,823,823,823,823,823,823,823,823,823,823,823,823,823,823,823,823,823,823,823,823,823,823,823,823,823,823,823,823,823,823,823,823,823,823,823,823,823,823,823,823,822,822,822,822,822,824,833,867,901,904,918,929,959,964,969,976,986,1010,1019,1027,1036,1044,1063],"ymouse":[528,528,528,528,528,528,529,529,529,529,529,529,529,529,529,529,529,529,529,529,529,529,529,529,529,529,529,529,529,529,529,529,529,529,529,529,529,529,529,529,529,529,529,529,529,529,529,529,529,529,529,529,529,529,529,529,529,529,529,529,529,529,529,529,529,529,529,529,529,529,529,529,529,529,529,529,529,529,529,529,524,500,470,440,433,424,414,400,366,338,335,321,310,269,254,242,230,217,186,171,155,141,126,93],"timestamp_mouse":[10,23,43,64,84,103,124,143,164,184,204,224,244,263,284,304,323,344,364,384,403,424,443,464,483,503,524,544,563,584,603,624,643,664,684,704,724,744,763,784,804,823,843,864,883,903,924,943,964,983,1003,1024,1044,1063,1083,1103,1124,1144,1163,1184,1203,1223,1243,1263,1284,1304,1323,1343,1363,1385,1404,1423,1443,1464,1484,1503,1524,1544,1564,1584,1603,1623,1643,1663,1685,1703,1723,1743,1763,1784,1803,1824,1843,1863,1883,1905,1923,1943,1964,1983,2003,2024,2043,2063],"xSR":741.5,"ySR":501.8,"xT1":424.9,"yT1":0,"xT2":1058.1,"yT2":0,"toosoon":0,"cond_shown":"Congruent","ratio_trial":200,"L_num":12,"L_den":15,"R_num":6,"R_den":10,"correct_side":1,"subjID":"Juanestebancruz3","gender":"0","school":"4","age":"9"},{"start_time":1552308637626,"click_time":1552308639949,"finger_time":1552308638289,"fix_duration":877.9422030389677,"trial":45,"RT":663,"MT":1660,"sideResp":2,"stimulus":[],"xmouse":[763,763,763,763,763,763,763,763,763,763,763,763,763,763,763,763,763,763,764,764,765,765,765,765,765,765,765,765,765,765,767,780,789,825,865,877,881,882,884,887,922,946,973,984,988,993,993,995,999,1004,1007,1007,1008,1008,1008,1008,1008,1008,1008,1008,1008,1008,1008,1008,1008,1008,1009,1013,1016,1022,1034,1048,1057,1065,1069,1069,1069,1069,1069,1069,1070,1071,1072,1072,1073,1073,1073,1073,1073,1073,1073,1068,1056,1043,1031,996,980,961,946,939,938,938,938,938,938,944,947,970,994,1013,1017,1020,1022,1027,1033,1053,1067],"ymouse":[550,550,550,550,550,550,550,550,550,550,551,551,551,551,551,551,551,551,551,551,551,551,551,551,551,551,551,551,551,551,551,538,527,476,422,402,395,392,389,385,364,353,335,328,324,317,317,312,304,285,274,269,261,255,250,238,232,228,223,215,211,208,204,200,197,187,179,169,160,149,133,122,119,115,113,113,113,113,113,113,111,108,107,106,104,103,101,101,101,101,101,100,100,100,100,95,93,90,87,85,85,85,85,84,83,83,83,83,83,83,83,80,78,76,73,66,60],"timestamp_mouse":[10,37,42,62,82,102,123,143,162,183,203,223,243,263,282,303,322,343,362,382,402,422,443,462,482,503,522,543,562,582,602,622,642,663,684,702,723,742,763,783,802,822,842,862,882,903,922,942,962,984,1005,1022,1041,1063,1083,1101,1122,1143,1162,1184,1202,1222,1242,1263,1283,1302,1322,1342,1363,1383,1402,1423,1442,1463,1484,1502,1523,1542,1563,1584,1602,1623,1642,1663,1682,1702,1723,1743,1763,1782,1802,1823,1842,1862,1882,1901,1922,1943,1962,1982,2003,2022,2043,2062,2084,2102,2122,2143,2162,2183,2202,2222,2242,2262,2283,2302,2322],"xSR":741.5,"ySR":501.8,"xT1":424.9,"yT1":0,"xT2":1058.1,"yT2":0,"toosoon":0,"cond_shown":"Congruent","ratio_trial":100,"L_num":6,"L_den":12,"R_num":15,"R_den":25,"correct_side":2,"subjID":"Juanestebancruz3","gender":"0","school":"4","age":"9"},{"start_time":1552308644020,"click_time":1552308645748,"finger_time":1552308644788,"fix_duration":250,"trial":46,"RT":768,"MT":960,"sideResp":2,"stimulus":[],"xmouse":[773,773,773,773,773,773,773,773,773,773,773,773,773,773,773,773,773,773,773,773,773,773,773,773,773,773,773,773,773,773,773,773,773,773,773,773,773,773,776,786,876,921,962,990,1007,1042,1060,1080,1100,1123,1127,1133,1136,1139,1141,1143,1143,1143,1143,1143,1143,1143,1142,1137,1124,1073,1049,1033,1019,1010,1004,1004,1004,1004,1004,1004,1004,1004,1006,1019,1044,1050,1053,1054,1056,1057,1065],"ymouse":[515,515,515,515,515,515,515,515,515,515,515,515,515,515,515,515,515,515,515,515,515,515,515,515,515,515,515,515,515,515,515,515,515,515,515,515,515,512,493,480,411,388,369,354,341,311,296,280,265,247,235,225,221,215,209,193,193,193,193,193,193,192,189,185,176,147,129,117,96,78,55,51,50,49,49,49,49,49,49,49,49,49,49,49,50,50,53],"timestamp_mouse":[10,43,48,68,88,108,128,149,169,188,208,227,249,268,288,307,329,348,368,388,408,429,448,468,488,507,528,548,568,589,608,629,649,668,689,709,727,749,768,789,809,828,848,867,887,910,928,948,968,988,1009,1029,1048,1068,1087,1109,1128,1148,1169,1188,1209,1229,1248,1268,1288,1309,1328,1348,1368,1389,1410,1428,1449,1468,1489,1509,1529,1548,1568,1589,1610,1628,1648,1668,1687,1709,1727],"xSR":741.5,"ySR":501.8,"xT1":424.9,"yT1":0,"xT2":1058.1,"yT2":0,"toosoon":0,"cond_shown":"Incongruent","ratio_trial":100,"L_num":6,"L_den":10,"R_num":7,"R_den":14,"correct_side":1,"subjID":"Juanestebancruz3","gender":"0","school":"4","age":"9"},{"start_time":1552308649896,"click_time":1552308650649,"finger_time":1552308650308,"fix_duration":1405.0890494941136,"trial":47,"RT":412,"MT":341,"sideResp":1,"stimulus":[],"xmouse":[775,775,775,775,775,775,775,775,775,775,775,775,775,775,775,775,776,776,774,773,770,764,718,684,649,616,596,596,596,596,596,596,596,596,596,596,596,511],"ymouse":[588,588,588,588,588,588,588,588,588,588,588,588,588,588,588,585,580,552,528,515,474,402,178,105,53,17,2,2,2,2,2,2,2,2,2,2,2,5],"timestamp_mouse":[13,36,52,73,93,113,133,152,172,192,211,233,252,272,293,312,333,351,371,392,412,431,452,471,491,513,532,552,573,593,613,632,653,672,692,711,733,752],"xSR":741.5,"ySR":501.8,"xT1":424.9,"yT1":0,"xT2":1058.1,"yT2":0,"toosoon":0,"cond_shown":"Incongruent","ratio_trial":200,"L_num":4,"L_den":5,"R_num":6,"R_den":10,"correct_side":1,"subjID":"Juanestebancruz3","gender":"0",