[{"start_time":1552309166068,"click_time":1552309167437,"finger_time":1552309166976,"fix_duration":887.0080535531083,"trial":0,"RT":908,"MT":461,"sideResp":1,"stimulus":"img/250/equaldotanddens/L/5_Ratio_250_L_24_R_6.png","xmouse":[776,776,776,776,776,776,776,776,776,776,776,776,776,776,776,776,776,776,776,776,776,776,776,776,776,776,776,776,776,776,776,776,776,776,776,776,776,776,776,776,772,770,767,765,755,744,718,678,619,557,455,427,411,398,391,384,381,377,375,371,371,371,373,379,398,408,419,429],"ymouse":[515,515,515,515,515,515,515,515,515,515,515,515,515,515,515,515,515,515,515,515,515,515,515,515,515,515,515,515,515,515,515,515,515,515,515,515,515,515,515,515,515,515,513,510,469,442,402,351,293,240,164,144,131,120,115,109,103,93,84,67,62,58,55,52,50,49,48,48],"timestamp_mouse":[12,53,68,89,108,129,149,169,189,208,228,248,269,288,309,329,349,368,388,409,428,449,468,489,508,529,549,569,589,609,629,649,667,689,709,729,748,768,789,808,828,848,868,889,908,928,948,968,988,1009,1028,1049,1068,1088,1109,1128,1149,1168,1188,1209,1228,1248,1268,1288,1309,1328,1348,1368],"xSR":741.5,"ySR":500.5,"xT1":424.9,"yT1":0,"xT2":1058.1,"yT2":0,"toosoon":0,"cond_shown":"equaldotanddens","ratio_trial":250,"smaller_num":"6","larger_num":"24","correct_side":1,"subjID":"Juanestebancruz","gender":"0","age":"9","school":"4","test":{"fix_dur":[250,1500],"timestim":300,"targets_dim":[100,100],"targets_relative_coord":[0.3,0.7],"size_stim":[880,420],"start_dim":[100,100],"size_start":[300,300],"size_fix":60,"samplingrate":20,"img_types":["equaldotsize","equaldotanddens","randomdotsizeEA"],"ratios":[250,500,750,900],"rep_conds":9,"nTrials":120,"trials_to_rest":500,"Trials_order":[97,70,109,3,99,83,74,92,89,107,28,117,65,87,20,63,25,12,24,85,33,45,94,10,42,15,26,62,64,75,113,7,112,60,118,38,68,34,19,31,61,91,18,106,11,100,98,101,90,59,86,22,84,104,16,37,96,119,27,114,71,8,55,5,41,110,9,69,4,77,23,40,14,0,115,116,51,46,66,105,93,95,35,47,39,1,29,48,54,44,57,102,43,81,58,80,67,76,88,52,6,103,36,32,50,13,78,73,72,17,2,108,79,21,53,49,30,56,111,82],"cond_shown":["equaldotanddens","equaldotanddens","equaldotanddens","equaldotsize","equaldotsize","randomdotsizeEA","randomdotsizeEA","randomdotsizeEA","randomdotsizeEA","randomdotsizeEA","equaldotanddens","equaldotsize","randomdotsizeEA","equaldotsize","randomdotsizeEA","equaldotsize","equaldotanddens","equaldotsize","equaldotsize","equaldotanddens","equaldotsize","equaldotsize","equaldotanddens","equaldotanddens","equaldotsize","equaldotsize","randomdotsizeEA","randomdotsizeEA","equaldotanddens","equaldotsize","randomdotsizeEA","equaldotanddens","equaldotanddens","equaldotsize","equaldotanddens","randomdotsizeEA","randomdotsizeEA","equaldotanddens","equaldotanddens","equaldotanddens","equaldotanddens","equaldotanddens","equaldotsize","equaldotanddens","randomdotsizeEA","equaldotanddens","randomdotsizeEA","randomdotsizeEA","equaldotsize","randomdotsizeEA","randomdotsizeEA","equaldotanddens","equaldotsize","randomdotsizeEA","equaldotanddens","equaldotanddens","equaldotsize","randomdotsizeEA","equaldotsize","equaldotsize","randomdotsizeEA","randomdotsizeEA","equaldotanddens","randomdotsizeEA","randomdotsizeEA","randomdotsizeEA","equaldotsize","equaldotsize","equaldotanddens","randomdotsizeEA","randomdotsizeEA","equaldotanddens","randomdotsizeEA","equaldotsize","equaldotanddens","randomdotsizeEA","equaldotsize","equaldotanddens","equaldotsize","equaldotsize","equaldotsize","randomdotsizeEA","randomdotsizeEA","randomdotsizeEA","equaldotsize","equaldotanddens","randomdotsizeEA","equaldotsize","equaldotsize","randomdotsizeEA","equaldotsize","equaldotsize","equaldotanddens","equaldotsize","equaldotanddens","randomdotsizeEA","equaldotanddens","equaldotanddens","equaldotanddens","equaldotanddens","equaldotsize","equaldotanddens","equaldotsize","randomdotsizeEA","randomdotsizeEA","equaldotanddens","equaldotsize","equaldotanddens","equaldotsize","randomdotsizeEA","randomdotsizeEA","equaldotsize","equaldotanddens","equaldotsize","randomdotsizeEA","equaldotanddens","equaldotsize","randomdotsizeEA","equaldotsize","equaldotanddens"],"ratio_trial":[250,900,250,500,500,900,250,750,500,900,500,900,500,500,750,500,250,250,250,250,900,900,900,900,750,500,250,250,500,500,500,750,500,250,900,250,750,900,750,750,250,750,750,900,900,500,250,500,750,900,250,900,250,750,500,250,250,900,500,750,900,750,750,500,500,250,900,900,500,500,900,500,250,250,750,750,500,900,750,900,900,900,900,900,500,250,500,250,750,750,900,750,750,900,900,750,750,500,500,500,750,750,250,750,250,250,750,250,250,500,250,250,750,900,500,250,750,750,500,900],"smaller_num":["6","9","4","6","2","18","3","6","5","9","5","9","10","1","6","5","2","2","6","3","9","9","18","9","6","1","6","3","4","2","10","15","2","3","18","2","15","18","3","15","2","3","18","18","18","9","3","1","6","18","2","9","6","3","2","6","3","18","3","3","18","3","6","1","3","2","18","18","2","6","18","9","3","3","12","3","10","18","9","9","18","18","9","9","3","3","10","2","6","6","9","6","15","9","18","15","6","6","1","2","3","6","5","9","4","4","18","4","2","2","4","1","3","9","3","3","15","15","5","9"],"larger_num":["24","10","16","12","4","20","12","8","10","10","10","10","20","2","8","10","8","8","24","12","10","10","20","10","8","2","24","12","8","4","20","20","4","12","20","8","20","20","4","20","8","4","24","20","20","18","12","2","8","20","8","10","24","4","4","24","12","20","6","4","20","4","8","2","6","8","20","20","4","12","20","18","12","12","16","4","20","20","12","10","20","20","10","10","6","12","20","8","8","8","10","8","20","10","20","20","8","12","2","4","4","8","20","12","16","16","24","16","8","4","16","4","4","10","6","12","20","20","10","10"],"correct_side":[1,2,1,1,2,2,1,2,1,1,1,1,2,2,1,2,2,1,1,2,1,1,1,2,1,2,1,2,1,1,2,2,1,2,2,2,1,1,1,2,1,1,1,1,1,1,2,2,1,2,2,2,2,2,1,2,2,1,2,2,1,1,1,2,2,2,1,1,2,1,1,2,2,1,2,1,2,2,2,2,1,1,1,2,2,1,2,1,1,1,1,1,2,2,1,2,1,1,2,1,1,1,2,2,1,2,1,2,1,1,2,2,1,2,2,1,2,1,1,2],"img_shown":["img/250/equaldotanddens/L/5_Ratio_250_L_24_R_6.png","img/900/equaldotanddens/R/5_Ratio_900_L_9_R_10.png","img/250/equaldotanddens/L/2_Ratio_250_L_16_R_4.png","img/500/equaldotsize/L/11_Ratio_500_L_12_R_6.png","img/500/equaldotsize/R/9_Ratio_500_L_2_R_4.png","img/900/randomdotsizeEA/R/14_Ratio_900_L_18_R_20.png","img/250/randomdotsizeEA/L/14_Ratio_250_L_12_R_3.png","img/750/randomdotsizeEA/R/2_Ratio_750_L_6_R_8.png","img/500/randomdotsizeEA/L/7_Ratio_500_L_10_R_5.png","img/900/randomdotsizeEA/L/1_Ratio_900_L_10_R_9.png","img/500/equaldotanddens/L/7_Ratio_500_L_10_R_5.png","img/900/equaldotsize/L/1_Ratio_900_L_10_R_9.png","img/500/randomdotsizeEA/R/3_Ratio_500_L_10_R_20.png","img/500/equaldotsize/R/12_Ratio_500_L_1_R_2.png","img/750/randomdotsizeEA/L/14_Ratio_750_L_8_R_6.png","img/500/equaldotsize/R/14_Ratio_500_L_5_R_10.png","img/250/equaldotanddens/R/13_Ratio_250_L_2_R_8.png","img/250/equaldotsize/L/1_Ratio_250_L_8_R_2.png","img/250/equaldotsize/L/5_Ratio_250_L_24_R_6.png","img/250/equaldotanddens/R/9_Ratio_250_L_3_R_12.png","img/900/equaldotsize/L/1_Ratio_900_L_10_R_9.png","img/900/equaldotsize/L/1_Ratio_900_L_10_R_9.png","img/900/equaldotanddens/L/4_Ratio_900_L_20_R_18.png","img/900/equaldotanddens/R/15_Ratio_900_L_9_R_10.png","img/750/equaldotsize/L/14_Ratio_750_L_8_R_6.png","img/500/equaldotsize/R/12_Ratio_500_L_1_R_2.png","img/250/randomdotsizeEA/L/5_Ratio_250_L_24_R_6.png","img/250/randomdotsizeEA/R/4_Ratio_250_L_3_R_12.png","img/500/equaldotanddens/L/8_Ratio_500_L_8_R_4.png","img/500/equaldotsize/L/5_Ratio_500_L_4_R_2.png","img/500/randomdotsizeEA/R/3_Ratio_500_L_10_R_20.png","img/750/equaldotanddens/R/4_Ratio_750_L_15_R_20.png","img/500/equaldotanddens/L/5_Ratio_500_L_4_R_2.png","img/250/equaldotsize/R/4_Ratio_250_L_3_R_12.png","img/900/equaldotanddens/R/13_Ratio_900_L_18_R_20.png","img/250/randomdotsizeEA/R/13_Ratio_250_L_2_R_8.png","img/750/randomdotsizeEA/L/1_Ratio_750_L_20_R_15.png","img/900/equaldotanddens/L/10_Ratio_900_L_20_R_18.png","img/750/equaldotanddens/L/9_Ratio_750_L_4_R_3.png","img/750/equaldotanddens/R/3_Ratio_750_L_15_R_20.png","img/250/equaldotanddens/L/7_Ratio_250_L_8_R_2.png","img/750/equaldotanddens/L/9_Ratio_750_L_4_R_3.png","img/750/equaldotsize/L/6_Ratio_750_L_24_R_18.png","img/900/equaldotanddens/L/10_Ratio_900_L_20_R_18.png","img/900/randomdotsizeEA/L/2_Ratio_900_L_20_R_18.png","img/500/equaldotanddens/L/4_Ratio_500_L_18_R_9.png","img/250/randomdotsizeEA/R/11_Ratio_250_L_3_R_12.png","img/500/randomdotsizeEA/R/12_Ratio_500_L_1_R_2.png","img/750/equaldotsize/L/13_Ratio_750_L_8_R_6.png","img/900/randomdotsizeEA/R/14_Ratio_900_L_18_R_20.png","img/250/randomdotsizeEA/R/13_Ratio_250_L_2_R_8.png","img/900/equaldotanddens/R/5_Ratio_900_L_9_R_10.png","img/250/equaldotsize/R/6_Ratio_250_L_6_R_24.png","img/750/randomdotsizeEA/R/12_Ratio_750_L_3_R_4.png","img/500/equaldotanddens/L/10_Ratio_500_L_4_R_2.png","img/250/equaldotanddens/R/6_Ratio_250_L_6_R_24.png","img/250/equaldotsize/R/4_Ratio_250_L_3_R_12.png","img/900/randomdotsizeEA/L/8_Ratio_900_L_20_R_18.png","img/500/equaldotsize/R/2_Ratio_500_L_3_R_6.png","img/750/equaldotsize/R/12_Ratio_750_L_3_R_4.png","img/900/randomdotsizeEA/L/10_Ratio_900_L_20_R_18.png","img/750/randomdotsizeEA/L/8_Ratio_750_L_4_R_3.png","img/750/equaldotanddens/L/13_Ratio_750_L_8_R_6.png","img/500/randomdotsizeEA/R/12_Ratio_500_L_1_R_2.png","img/500/randomdotsizeEA/R/2_Ratio_500_L_3_R_6.png","img/250/randomdotsizeEA/R/13_Ratio_250_L_2_R_8.png","img/900/equaldotsize/L/2_Ratio_900_L_20_R_18.png","img/900/equaldotsize/L/2_Ratio_900_L_20_R_18.png","img/500/equaldotanddens/R/9_Ratio_500_L_2_R_4.png","img/500/randomdotsizeEA/L/11_Ratio_500_L_12_R_6.png","img/900/randomdotsizeEA/L/8_Ratio_900_L_20_R_18.png","img/500/equaldotanddens/R/1_Ratio_500_L_9_R_18.png","img/250/randomdotsizeEA/R/9_Ratio_250_L_3_R_12.png","img/250/equaldotsize/L/14_Ratio_250_L_12_R_3.png","img/750/equaldotanddens/R/11_Ratio_750_L_12_R_16.png","img/750/randomdotsizeEA/L/10_Ratio_750_L_4_R_3.png","img/500/equaldotsize/R/3_Ratio_500_L_10_R_20.png","img/900/equaldotanddens/R/12_Ratio_900_L_18_R_20.png","img/750/equaldotsize/R/15_Ratio_750_L_9_R_12.png","img/900/equaldotsize/R/7_Ratio_900_L_9_R_10.png","img/900/equaldotsize/L/2_Ratio_900_L_20_R_18.png","img/900/randomdotsizeEA/L/8_Ratio_900_L_20_R_18.png","img/900/randomdotsizeEA/L/1_Ratio_900_L_10_R_9.png","img/900/randomdotsizeEA/R/15_Ratio_900_L_9_R_10.png","img/500/equaldotsize/R/2_Ratio_500_L_3_R_6.png","img/250/equaldotanddens/L/15_Ratio_250_L_12_R_3.png","img/500/randomdotsizeEA/R/3_Ratio_500_L_10_R_20.png","img/250/equaldotsize/L/7_Ratio_250_L_8_R_2.png","img/750/equaldotsize/L/13_Ratio_750_L_8_R_6.png","img/750/randomdotsizeEA/L/14_Ratio_750_L_8_R_6.png","img/900/equaldotsize/L/1_Ratio_900_L_10_R_9.png","img/750/equaldotsize/L/13_Ratio_750_L_8_R_6.png","img/750/equaldotanddens/R/4_Ratio_750_L_15_R_20.png","img/900/equaldotsize/R/3_Ratio_900_L_9_R_10.png","img/900/equaldotanddens/L/10_Ratio_900_L_20_R_18.png","img/750/randomdotsizeEA/R/4_Ratio_750_L_15_R_20.png","img/750/equaldotanddens/L/14_Ratio_750_L_8_R_6.png","img/500/equaldotanddens/L/11_Ratio_500_L_12_R_6.png","img/500/equaldotanddens/R/15_Ratio_500_L_1_R_2.png","img/500/equaldotanddens/L/5_Ratio_500_L_4_R_2.png","img/750/equaldotsize/L/9_Ratio_750_L_4_R_3.png","img/750/equaldotanddens/L/14_Ratio_750_L_8_R_6.png","img/250/equaldotsize/R/12_Ratio_250_L_5_R_20.png","img/750/randomdotsizeEA/R/15_Ratio_750_L_9_R_12.png","img/250/randomdotsizeEA/L/2_Ratio_250_L_16_R_4.png","img/250/equaldotanddens/R/10_Ratio_250_L_4_R_16.png","img/750/equaldotsize/L/6_Ratio_750_L_24_R_18.png","img/250/equaldotanddens/R/10_Ratio_250_L_4_R_16.png","img/250/equaldotsize/L/1_Ratio_250_L_8_R_2.png","img/500/randomdotsizeEA/L/10_Ratio_500_L_4_R_2.png","img/250/randomdotsizeEA/R/10_Ratio_250_L_4_R_16.png","img/250/equaldotsize/R/8_Ratio_250_L_1_R_4.png","img/750/equaldotanddens/L/9_Ratio_750_L_4_R_3.png","img/900/equaldotsize/R/6_Ratio_900_L_9_R_10.png","img/500/randomdotsizeEA/R/2_Ratio_500_L_3_R_6.png","img/250/equaldotanddens/L/15_Ratio_250_L_12_R_3.png","img/750/equaldotsize/R/3_Ratio_750_L_15_R_20.png","img/750/randomdotsizeEA/L/1_Ratio_750_L_20_R_15.png","img/500/equaldotsize/L/7_Ratio_500_L_10_R_5.png","img/900/equaldotanddens/R/7_Ratio_900_L_9_R_10.png"],"Rat0":[["12_Ratio_0_L_9_R_0.png","13_Ratio_0_L_6_R_0.png","5_Ratio_0_L_2_R_0.png","6_Ratio_0_L_4_R_0.png","8_Ratio_0_L_6_R_0.png"],["1_Ratio_0_L_0_R_17.png","10_Ratio_0_L_0_R_22.png","11_Ratio_0_L_0_R_1.png","14_Ratio_0_L_0_R_24.png","15_Ratio_0_L_0_R_4.png","2_Ratio_0_L_0_R_5.png","3_Ratio_0_L_0_R_17.png","4_Ratio_0_L_0_R_7.png","7_Ratio_0_L_0_R_19.png","9_Ratio_0_L_0_R_15.png"]],"Rat250":[["1_Ratio_250_L_8_R_2.png","14_Ratio_250_L_12_R_3.png","15_Ratio_250_L_12_R_3.png","2_Ratio_250_L_16_R_4.png","3_Ratio_250_L_8_R_2.png","5_Ratio_250_L_24_R_6.png","7_Ratio_250_L_8_R_2.png"],["10_Ratio_250_L_4_R_16.png","11_Ratio_250_L_3_R_12.png","12_Ratio_250_L_5_R_20.png","13_Ratio_250_L_2_R_8.png","4_Ratio_250_L_3_R_12.png","6_Ratio_250_L_6_R_24.png","8_Ratio_250_L_1_R_4.png","9_Ratio_250_L_3_R_12.png"]],"Rat500":[["10_Ratio_500_L_4_R_2.png","11_Ratio_500_L_12_R_6.png","13_Ratio_500_L_12_R_6.png","4_Ratio_500_L_18_R_9.png","5_Ratio_500_L_4_R_2.png","7_Ratio_500_L_10_R_5.png","8_Ratio_500_L_8_R_4.png"],["1_Ratio_500_L_9_R_18.png","12_Ratio_500_L_1_R_2.png","14_Ratio_500_L_5_R_10.png","15_Ratio_500_L_1_R_2.png","2_Ratio_500_L_3_R_6.png","3_Ratio_500_L_10_R_20.png","6_Ratio_500_L_9_R_18.png","9_Ratio_500_L_2_R_4.png"]],"Rat750":[["1_Ratio_750_L_20_R_15.png","10_Ratio_750_L_4_R_3.png","13_Ratio_750_L_8_R_6.png","14_Ratio_750_L_8_R_6.png","6_Ratio_750_L_24_R_18.png","8_Ratio_750_L_4_R_3.png","9_Ratio_750_L_4_R_3.png"],["11_Ratio_750_L_12_R_16.png","12_Ratio_750_L_3_R_4.png","15_Ratio_750_L_9_R_12.png","2_Ratio_750_L_6_R_8.png","3_Ratio_750_L_15_R_20.png","4_Ratio_750_L_15_R_20.png","5_Ratio_750_L_15_R_20.png","7_Ratio_750_L_3_R_4.png"]],"Rat900":[["1_Ratio_900_L_10_R_9.png","10_Ratio_900_L_20_R_18.png","2_Ratio_900_L_20_R_18.png","4_Ratio_900_L_20_R_18.png","8_Ratio_900_L_20_R_18.png"],["11_Ratio_900_L_18_R_20.png","12_Ratio_900_L_18_R_20.png","13_Ratio_900_L_18_R_20.png","14_Ratio_900_L_18_R_20.png","15_Ratio_900_L_9_R_10.png","3_Ratio_900_L_9_R_10.png","5_Ratio_900_L_9_R_10.png","6_Ratio_900_L_9_R_10.png","7_Ratio_900_L_9_R_10.png","9_Ratio_900_L_18_R_20.png"]],"Rat1000":[["10_Ratio_1000_L_16_R_16.png","11_Ratio_1000_L_6_R_6.png","12_Ratio_1000_L_14_R_14.png","13_Ratio_1000_L_20_R_20.png","15_Ratio_1000_L_15_R_15.png","2_Ratio_1000_L_17_R_17.png","4_Ratio_1000_L_9_R_9.png","5_Ratio_1000_L_6_R_6.png","6_Ratio_1000_L_19_R_19.png","8_Ratio_1000_L_14_R_14.png","9_Ratio_1000_L_25_R_25.png"],["1_Ratio_1000_L_1_R_1.png","14_Ratio_1000_L_17_R_17.png","3_Ratio_1000_L_17_R_17.png","7_Ratio_1000_L_6_R_6.png"]]}},{"start_time":1552309170078,"click_time":1552309171136,"finger_time":1552309170856,"fix_duration":1319.3687059775875,"trial":1,"RT":778,"MT":280,"sideResp":2,"stimulus":"img/900/equaldotanddens/R/5_Ratio_900_L_9_R_10.png","xmouse":[773,773,773,773,773,773,773,773,773,773,773,773,773,773,773,773,773,773,773,773,773,773,773,773,773,773,773,773,773,773,773,773,773,773,773,773,773,781,844,931,1060,1086,1095,1105,1112,1118,1118,1117,1116,1116,1117,1117,1117],"ymouse":[489,489,489,489,489,489,489,489,489,489,489,489,489,489,489,489,489,489,489,489,489,489,489,489,489,489,489,489,489,489,489,489,489,489,489,489,487,480,447,398,322,277,247,214,185,144,135,126,120,116,106,100,91],"timestamp_mouse":[18,40,59,78,98,119,139,159,179,199,219,239,259,279,299,318,339,358,378,399,419,439,459,479,498,519,539,559,579,598,619,639,657,678,698,719,738,758,778,800,818,837,858,878,898,918,938,958,978,999,1018,1039,1057],"xSR":741.5,"ySR":469.95,"xT1":424.9,"yT1":0,"xT2":1058.1,"yT2":0,"toosoon":0,"cond_shown":"equaldotanddens","ratio_trial":900,"smaller_num":"9","larger_num":"10","correct_side":2,"subjID":"Juanestebancruz","gender":"0","age":"9","school":"4"},{"start_time":1552309173296,"click_time":1552309174737,"finger_time":1552309174216,"fix_duration":1038.2952295424195,"trial":2,"RT":920,"MT":521,"sideResp":1,"stimulus":"img/250/equaldotanddens/L/2_Ratio_250_L_16_R_4.png","xmouse":[819,819,819,819,819,819,819,819,819,819,819,819,819,819,819,819,819,819,819,819,819,819,819,819,819,819,819,819,819,819,819,819,819,819,819,819,819,817,814,793,766,764,763,763,763,760,753,743,730,713,683,674,665,651,639,618,610,602,592,583,569,568,568,568,568,564,564,561,556,549,536,529,524],"ymouse":[506,506,506,506,506,506,506,506,506,506,506,506,506,506,506,506,506,506,506,506,506,506,506,506,506,506,506,506,506,506,506,506,506,506,506,506,506,506,506,506,506,506,506,504,500,477,462,445,427,409,374,366,360,351,340,313,298,283,268,254,221,213,203,195,187,168,158,149,140,130,111,103,92],"timestamp_mouse":[12,29,45,60,80,100,120,140,160,181,201,220,241,261,279,300,321,340,359,380,400,421,440,459,481,500,520,540,561,581,600,620,640,660,681,700,721,740,759,780,800,821,840,860,881,899,920,941,961,980,1001,1020,1040,1060,1081,1100,1120,1140,1161,1179,1200,1220,1240,1261,1281,1300,1319,1340,1360,1380,1400,1419,1440],"xSR":741.5,"ySR":469.95,"xT1":424.9,"yT1":0,"xT2":1058.1,"yT2":0,"toosoon":0,"cond_shown":"equaldotanddens","ratio_trial":250,"smaller_num":"4","larger_num":"16","correct_side":1,"subjID":"Juanestebancruz","gender":"0","age":"9","school":"4"},{"start_time":1552309177618,"click_time":1552309179036,"finger_time":1552309178576,"fix_duration":1320.586984158615,"trial":3,"RT":958,"MT":460,"sideResp":1,"stimulus":"img/500/equaldotsize/L/11_Ratio_500_L_12_R_6.png","xmouse":[781,781,781,781,781,781,781,781,781,781,781,781,781,781,781,781,781,781,781,781,781,781,781,781,781,781,781,781,781,781,781,781,781,781,781,781,781,781,781,781,781,781,781,779,774,770,763,746,731,718,713,703,682,668,646,638,631,627,623,618,617,613,610,604,600,596,594,588,573,529,500],"ymouse":[504,504,504,504,504,504,504,504,504,504,504,504,504,504,504,504,504,504,504,504,504,504,504,504,504,504,504,504,504,504,504,504,504,504,504,504,504,504,504,504,504,504,504,504,504,497,472,424,375,305,276,245,193,160,123,110,96,88,81,75,74,73,72,71,71,71,71,71,71,69,65],"timestamp_mouse":[18,38,58,79,98,119,139,157,179,199,218,239,258,279,299,319,339,358,379,398,418,439,459,479,498,518,539,558,579,599,618,639,659,679,699,719,738,759,779,798,819,838,857,878,899,919,939,958,979,998,1018,1038,1058,1078,1098,1118,1138,1159,1178,1198,1218,1238,1259,1280,1298,1318,1338,1358,1378,1398,1418],"xSR":741.5,"ySR":469.95,"xT1":424.9,"yT1":0,"xT2":1058.1,"yT2":0,"toosoon":0,"cond_shown":"equaldotsize","ratio_trial":500,"smaller_num":"6","larger_num":"12","correct_side":1,"subjID":"Juanestebancruz","gender":"0","age":"9","school":"4"},{"start_time":1552309197869,"click_time":1552309199356,"finger_time":1552309198656,"fix_duration":250,"trial":4,"RT":787,"MT":700,"sideResp":2,"stimulus":"img/500/equaldotsize/R/9_Ratio_500_L_2_R_4.png","xmouse":[769,769,769,769,769,769,769,769,769,769,769,769,769,769,769,769,769,769,769,769,769,769,769,769,769,769,769,769,769,770,770,771,773,775,778,781,788,798,808,855,879,901,923,943,975,990,1006,1022,1041,1095,1129,1173,1224,1273,1319,1327,1331,1331,1332,1332,1332,1331,1326,1316,1296,1283,1268,1257,1248,1230,1222,1209,1191,1170,1155],"ymouse":[536,536,536,536,536,536,536,536,536,536,536,536,536,536,536,536,536,536,536,536,536,536,536,536,536,536,536,536,536,534,534,533,531,529,524,521,515,510,500,467,452,440,429,420,401,392,383,371,357,316,288,255,215,180,132,119,113,112,110,107,107,106,105,101,92,86,80,75,72,67,65,63,61,57,55],"timestamp_mouse":[10,40,48,68,87,108,128,148,167,187,208,227,247,268,288,308,328,347,367,388,407,427,447,467,487,508,527,547,567,587,607,628,648,667,686,707,727,748,767,787,807,828,847,867,887,907,928,948,967,987,1007,1027,1047,1068,1087,1108,1127,1147,1167,1187,1207,1227,1246,1267,1287,1308,1328,1348,1368,1387,1408,1427,1447,1467,1487],"xSR":741.5,"ySR":469.95,"xT1":424.9,"yT1":0,"xT2":1058.1,"yT2":0,"toosoon":0,"cond_shown":"equaldotsize","ratio_trial":500,"smaller_num":"2","larger_num":"4","correct_side":2,"subjID":"Juanestebancruz","gender":"0","age":"9","school":"4"},{"start_time":1552309201948,"click_time":1552309203157,"finger_time":1552309202876,"fix_duration":250,"trial":5,"RT":928,"MT":281,"sideResp":2,"stimulus":"img/900/randomdotsizeEA/R/14_Ratio_900_L_18_R_20.png","xmouse":[787,787,787,787,787,787,787,787,787,787,787,787,787,787,787,787,787,787,787,787,787,787,787,787,787,787,787,787,787,787,787,787,787,787,787,787,787,787,787,787,787,787,787,790,796,805,840,862,877,889,912,928,947,969,1006,1029,1062,1075,1088,1102,1121],"ymouse":[500,500,500,500,500,500,500,500,500,500,500,500,500,500,500,500,500,500,500,500,500,500,500,500,500,500,500,500,500,500,500,500,500,500,500,500,500,500,500,500,500,500,500,498,495,487,450,419,394,372,337,320,304,286,253,225,173,152,134,119,99],"timestamp_mouse":[15,43,48,69,88,109,129,149,168,188,208,229,248,269,287,309,329,349,369,388,408,428,448,469,488,508,529,548,567,589,608,628,649,668,689,708,729,749,768,789,808,828,849,868,888,909,928,949,969,989,1009,1028,1048,1069,1088,1109,1128,1149,1169,1188,1209],"xSR":741.5,"ySR":469.95,"xT1":424.9,"yT1":0,"xT2":1058.1,"yT2":0,"toosoon":0,"cond_shown":"randomdotsizeEA","ratio_trial":900,"smaller_num":"18","larger_num":"20","correct_side":2,"subjID":"Juanestebancruz","gender":"0","age":"9","school":"4"},{"start_time":1552309205332,"click_time":1552309206997,"finger_time":1552309206317,"fix_duration":473.7473709100291,"trial":6,"RT":985,"MT":680,"sideResp":1,"stimulus":"img/250/randomdotsizeEA/L/14_Ratio_250_L_12_R_3.png","xmouse":[788,788,788,788,788,788,788,788,788,787,786,786,786,786,786,786,786,786,786,786,786,786,786,786,786,786,786,786,786,786,786,786,786,786,786,786,786,786,786,786,786,786,786,786,786,786,786,786,780,768,748,725,683,665,657,653,649,621,601,580,565,558,557,557,557,557,557,557,553,552,548,543,534,531,531,531,531,531,531,531,531,531,525,520],"ymouse":[489,489,489,489,489,489,489,489,489,490,491,491,491,491,491,491,491,491,491,491,491,491,491,491,491,491,491,491,491,491,491,491,491,491,491,491,491,491,491,491,491,491,491,491,491,491,491,487,472,452,424,391,329,298,281,264,241,140,92,48,15,2,0,0,0,0,0,0,1,2,9,16,33,44,49,51,51,51,51,51,52,52,54,55],"timestamp_mouse":[9,24,46,64,85,105,125,144,164,185,205,224,244,265,284,305,324,345,365,385,405,424,444,464,485,505,523,544,565,585,604,624,644,665,685,704,724,744,764,783,805,824,845,864,884,905,925,944,965,985,1005,1023,1044,1064,1084,1104,1125,1144,1165,1185,1205,1225,1245,1263,1284,1305,1324,1345,1364,1384,1405,1424,1444,1465,1484,1505,1525,1544,1565,1585,1604,1625,1644,1665],"xSR":741.5,"ySR":469.95,"xT1":424.9,"yT1":0,"xT2":1058.1,"yT2":0,"toosoon":0,"cond_shown":"randomdotsizeEA","ratio_trial":250,"smaller_num":"3","larger_num":"12","correct_side":1,"subjID":"Juanestebancruz","gender":"0","age":"9","school":"4"},{"start_time":1552309210883,"click_time":1552309212577,"finger_time":1552309211956,"fix_duration":705.0938461390774,"trial":7,"RT":1073,"MT":621,"sideResp":2,"stimulus":"img/750/randomdotsizeEA/R/2_Ratio_750_L_6_R_8.png","xmouse":[803,803,803,803,803,803,803,803,803,803,803,803,803,803,803,803,803,803,803,803,803,803,803,803,803,803,803,803,803,803,803,803,803,803,803,803,803,803,803,803,803,803,803,803,803,803,803,803,803,803,803,805,819,917,1075,1121,1172,1221,1270,1346,1375,1388,1390,1392,1392,1392,1391,1390,1390,1385,1379,1370,1351,1335,1307,1292,1278,1266,1253,1231,1211,1203,1179,1164,1154],"ymouse":[541,541,541,541,541,541,541,541,541,541,541,541,541,541,541,541,541,541,541,541,541,541,541,541,541,541,541,541,541,541,541,541,541,541,541,541,541,541,541,541,541,541,541,541,541,541,541,541,541,541,541,540,527,460,379,348,326,304,280,230,208,191,178,161,151,136,131,127,124,120,115,110,102,96,82,77,72,69,67,65,65,65,65,65,65],"timestamp_mouse":[13,45,53,73,93,114,134,153,174,193,213,234,253,273,294,313,334,354,373,397,414,432,454,474,493,513,533,553,573,593,613,634,653,673,694,714,733,753,773,793,813,833,854,874,893,914,933,953,973,993,1013,1033,1053,1073,1094,1113,1134,1153,1173,1195,1213,1235,1253,1274,1293,1314,1333,1353,1372,1394,1413,1433,1453,1473,1495,1513,1533,1553,1573,1594,1613,1633,1653,1674,1694],"xSR":741.5,"ySR":469.95,"xT1":424.9,"yT1":0,"xT2":1058.1,"yT2":0,"toosoon":0,"cond_shown":"randomdotsizeEA","ratio_trial":750,"smaller_num":"6","larger_num":"8","correct_side":2,"subjID":"Juanestebancruz","gender":"0","age":"9","school":"4"},{"start_time":1552309215713,"click_time":1552309217737,"finger_time":1552309216896,"fix_duration":274.74771462942294,"trial":8,"RT":1183,"MT":841,"sideResp":1,"stimulus":"img/500/randomdotsizeEA/L/7_Ratio_500_L_10_R_5.png","xmouse":[788,788,788,788,788,788,788,788,788,788,788,788,788,788,788,788,788,788,788,788,788,788,788,788,788,788,788,788,788,788,788,788,788,788,788,788,788,788,788,788,788,788,788,788,788,788,788,788,788,788,788,788,788,788,788,788,788,788,789,658,511,372,273,273,273,273,273,273,273,273,273,273,273,166,176,204,218,229,241,265,267,269,270,272,275,297,306,330,341,391,408,416,422,424,426,426,424,424,423,422,422,426],"ymouse":[511,511,511,511,511,511,511,511,511,511,511,511,511,511,511,511,511,511,511,511,511,511,511,511,511,511,511,511,511,511,511,511,511,511,511,511,511,511,511,511,511,511,511,511,511,511,511,511,511,511,511,511,511,511,511,511,511,511,508,322,204,91,13,13,13,13,13,13,13,13,13,13,13,10,43,113,138,156,171,190,192,194,196,199,201,203,203,198,195,176,170,166,163,161,155,151,148,146,140,117,104,92],"timestamp_mouse":[9,23,45,63,84,103,123,143,163,183,203,223,244,262,283,303,323,343,363,383,403,423,443,464,484,504,523,543,563,583,603,623,643,664,684,704,724,743,764,784,804,823,844,864,884,903,924,944,964,984,1004,1023,1043,1064,1084,1104,1124,1143,1164,1183,1204,1223,1242,1265,1284,1303,1322,1342,1364,1383,1404,1424,1443,1464,1483,1502,1523,1543,1564,1583,1604,1623,1643,1663,1683,1702,1723,1744,1763,1783,1803,1824,1844,1864,1884,1903,1923,1943,1962,1984,2004,2024],"xSR":741.5,"ySR":469.95,"xT1":424.9,"yT1":0,"xT2":1058.1,"yT2":0,"toosoon":0,"cond_shown":"randomdotsizeEA","ratio_trial":500,"smaller_num":"5","larger_num":"10","correct_side":1,"subjID":"Juanestebancruz","gender":"0","age":"9","school":"4"},{"start_time":1552309219708,"click_time":1552309221097,"finger_time":1552309220776,"fix_duration":250,"trial":9,"RT":1068,"MT":321,"sideResp":1,"stimulus":"img/900/randomdotsizeEA/L/1_Ratio_900_L_10_R_9.png","xmouse":[802,802,802,802,802,802,802,802,802,802,802,802,802,802,802,802,802,802,802,802,802,802,802,802,802,802,802,802,802,802,802,802,802,802,802,802,802,802,802,802,802,802,802,802,802,802,802,799,795,787,781,767,750,718,626,593,566,561,560,558,555,553,551,550,544,540,534,532,525,515],"ymouse":[537,537,537,537,537,537,537,537,537,537,537,537,537,537,537,537,537,537,537,537,537,537,537,537,537,537,537,537,537,537,537,537,537,537,537,537,537,537,537,537,537,537,537,537,537,537,537,536,535,534,528,509,483,436,322,288,256,246,237,227,204,191,179,168,145,132,110,103,80,61],"timestamp_mouse":[15,29,48,68,88,109,128,149,168,188,208,227,249,268,288,308,328,349,369,388,408,428,448,469,488,508,529,548,568,588,608,628,649,668,689,708,727,749,769,788,809,828,847,869,889,908,929,948,969,989,1008,1029,1048,1068,1090,1108,1129,1149,1168,1188,1207,1228,1249,1268,1289,1308,1329,1348,1369,1389],"xSR":741.5,"ySR":469.95,"xT1":424.9,"yT1":0,"xT2":1058.1,"yT2":0,"toosoon":0,"cond_shown":"randomdotsizeEA","ratio_trial":900,"smaller_num":"9","larger_num":"10","correct_side":1,"subjID":"Juanestebancruz","gender":"0","age":"9","school":"4"},{"start_time":1552309224522,"click_time":1552309225956,"finger_time":1552309225417,"fix_duration":583.6620799650636,"trial":10,"RT":895,"MT":539,"sideResp":1,"stimulus":"img/500/equaldotanddens/L/7_Ratio_500_L_10_R_5.png","xmouse":[798,798,798,798,798,798,798,798,798,798,798,798,798,798,798,798,798,798,798,798,798,798,798,798,798,798,798,798,798,798,798,798,798,798,798,798,797,797,797,797,797,797,797,797,784,772,758,737,717,668,649,630,614,605,600,602,605,610,616,623,624,624,624,623,621,619,615,607,593,556,538,517],"ymouse":[528,528,528,528,528,528,528,528,528,528,528,528,528,528,528,528,528,528,528,528,528,528,528,528,528,528,528,528,528,528,528,528,528,528,528,528,528,528,528,528,523,511,496,480,448,432,415,395,380,346,331,315,300,286,262,243,227,210,189,158,147,140,136,133,132,131,129,123,114,90,77,64],"timestamp_mouse":[15,38,54,75,95,115,135,156,176,196,215,236,255,275,294,314,335,356,375,396,415,434,455,475,496,515,534,554,575,595,614,635,655,675,694,714,735,756,774,794,815,836,854,875,895,916,935,956,976,995,1014,1034,1055,1074,1094,1114,1136,1155,1175,1194,1214,1235,1254,1275,1294,1314,1336,1355,1375,1395,1415,1434],"xSR":741.5,"ySR":469.95,"xT1":424.9,"yT1":0,"xT2":1058.1,"yT2":0,"toosoon":0,"cond_shown":"equaldotanddens","ratio_trial":500,"smaller_num":"5","larger_num":"10","correct_side":1,"subjID":"Juanestebancruz","gender":"0","age":"9","school":"4"},{"start_time":1552309255864,"click_time":1552309257457,"finger_time":1552309256816,"fix_duration":1346.8254972149266,"trial":11,"RT":952,"MT":641,"sideResp":1,"stimulus":"img/900/equaldotsize/L/1_Ratio_900_L_10_R_9.png","xmouse":[785,785,785,785,785,785,785,785,785,785,785,785,785,785,785,785,785,785,785,785,785,785,785,785,785,785,785,785,785,785,785,785,785,785,785,785,785,785,785,785,785,785,785,788,793,801,831,847,862,869,876,893,901,906,906,891,878,865,856,845,823,811,784,755,715,658,580,556,532,513,498,476,474,473,472,472,472,475,480,486],"ymouse":[501,501,501,501,501,501,501,501,501,501,501,501,501,501,501,501,501,501,501,501,501,501,501,501,501,501,501,501,501,501,501,501,501,501,501,501,501,501,501,501,501,501,501,500,497,492,473,458,439,424,408,376,362,344,334,315,309,305,303,301,294,291,282,270,252,226,187,173,159,149,138,123,122,120,119,119,116,111,106,97],"timestamp_mouse":[13,45,52,74,92,113,133,153,174,193,213,232,254,272,293,312,333,353,373,393,413,432,452,474,492,512,533,554,574,594,613,632,652,672,693,714,732,752,774,794,813,832,854,874,893,912,933,952,973,993,1012,1032,1053,1073,1094,1114,1133,1153,1173,1193,1215,1232,1253,1274,1294,1314,1332,1354,1374,1394,1413,1432,1453,1472,1492,1513,1532,1553,1573,1593],"xSR":741.5,"ySR":469.95,"xT1":424.9,"yT1":0,"xT2":1058.1,"yT2":0,"toosoon":0,"cond_shown":"equaldotsize","ratio_trial":900,"smaller_num":"9","larger_num":"10","correct_side":1,"subjID":"Juanestebancruz","gender":"0","age":"9","school":"4"},{"start_time":1552309259557,"click_time":1552309260996,"finger_time":1552309260618,"fix_duration":758.7071707686613,"trial":12,"RT":1061,"MT":378,"sideResp":2,"stimulus":"img/500/randomdotsizeEA/R/3_Ratio_500_L_10_R_20.png","xmouse":[807,807,807,807,807,807,807,807,807,807,807,807,807,807,807,807,807,807,807,807,807,807,807,807,807,807,807,807,807,807,807,807,807,807,807,807,807,807,807,807,807,806,803,803,803,803,803,803,803,803,810,813,831,844,859,873,883,907,919,935,951,971,1010,1023,1031,1035,1037,1048,1054,1060,1067,1074,1085],"ymouse":[505,505,505,505,505,505,505,505,505,505,505,505,505,505,505,505,505,505,505,505,505,505,505,505,505,505,505,505,505,505,505,505,505,505,505,505,505,505,505,505,505,505,505,505,505,505,505,505,505,505,502,498,474,455,432,409,389,345,325,303,280,255,211,195,178,165,156,132,125,118,112,107,97],"timestamp_mouse":[1,19,41,60,79,100,120,140,161,180,201,220,239,260,279,300,321,340,360,380,400,421,439,461,479,500,519,541,559,580,600,620,640,659,679,699,719,739,761,780,800,820,839,860,879,899,921,941,959,981,999,1021,1039,1061,1080,1099,1120,1139,1159,1179,1200,1220,1239,1259,1280,1299,1320,1339,1360,1380,1400,1419,1439],"xSR":741.5,"ySR":469.95,"xT1":424.9,"yT1":0,"xT2":1058.1,"yT2":0,"toosoon":0,"cond_shown":"randomdotsizeEA","ratio_trial":500,"smaller_num":"10","larger_num":"20","correct_side":2,"subjID":"Juanestebancruz","gender":"0","age":"9","school":"4"},{"start_time":1552309262440,"click_time":1552309263598,"finger_time":1552309263217,"fix_duration":601.4935984283303,"trial":13,"RT":777,"MT":381,"sideResp":2,"stimulus":"img/500/equaldotsize/R/12_Ratio_500_L_1_R_2.png","xmouse":[819,819,819,819,819,819,819,819,819,819,819,819,819,819,819,819,819,819,819,819,819,819,819,819,819,819,819,819,819,819,819,819,819,819,819,816,815,815,829,865,872,886,894,894,895,899,902,907,911,918,937,948,1009,1031,1052,1076,1103,1150],"ymouse":[508,508,508,508,508,508,508,508,508,508,508,508,508,508,508,508,508,508,508,508,508,508,508,508,508,508,508,508,508,508,508,508,508,508,508,502,498,489,467,428,418,383,316,285,258,237,222,208,203,193,180,172,143,133,124,114,102,80],"timestamp_mouse":[24,36,57,77,97,116,137,158,176,196,217,236,258,277,296,317,337,357,376,397,417,436,458,478,497,516,536,556,578,597,617,636,657,678,696,717,736,757,777,796,816,836,857,876,897,917,936,958,977,997,1016,1036,1057,1076,1097,1117,1137,1157],"xSR":741.5,"ySR":469.95,"xT1":424.9,"yT1":0,"xT2":1058.1,"yT2":0,"toosoon":0,"cond_shown":"equaldotsize","ratio_trial":500,"smaller_num":"1","larger_num":"2","correct_side":2,"subjID":"Juanestebancruz","gender":"0","age":"9","school":"4"},{"start_time":1552309265430,"click_time":1552309267117,"finger_time":1552309266477,"fix_duration":250,"trial":14,"RT":1047,"MT":640,"sideResp":1,"stimulus":"img/750/randomdotsizeEA/L/14_Ratio_750_L_8_R_6.png","xmouse":[772,772,772,772,772,772,772,772,772,772,772,772,772,772,772,772,772,772,772,772,772,772,772,772,772,772,772,772,772,772,772,772,772,772,772,772,772,772,772,772,772,772,772,779,788,798,803,808,813,818,823,831,844,860,862,863,864,864,864,864,851,830,803,754,659,635,622,616,604,591,578,562,537,517,487,482,479,478,475,462,456,453,448,446,438],"ymouse":[532,532,532,532,532,532,532,532,532,532,532,532,532,532,532,532,532,532,532,532,532,532,532,532,532,532,532,532,532,532,532,532,532,532,532,532,532,532,532,532,532,532,532,530,527,524,522,519,515,506,501,495,491,486,484,483,482,481,480,476,471,464,453,431,385,366,350,332,287,257,238,225,210,201,192,190,188,185,179,150,135,126,117,108,98],"timestamp_mouse":[9,26,46,67,86,108,128,147,167,188,206,228,248,267,288,307,328,347,367,386,408,427,446,466,488,507,527,548,566,588,608,627,648,668,687,706,728,747,767,787,808,827,846,868,887,907,927,948,967,987,1007,1028,1047,1068,1087,1107,1127,1146,1167,1187,1207,1228,1247,1266,1286,1307,1328,1347,1369,1387,1407,1426,1446,1467,1486,1506,1527,1547,1567,1587,1607,1628,1648,1667,1687],"xSR":741.5,"ySR":469.95,"xT1":424.9,"yT1":0,"xT2":1058.1,"yT2":0,"toosoon":0,"cond_shown":"randomdotsizeEA","ratio_trial":750,"smaller_num":"6","larger_num":"8","correct_side":1,"subjID":"Juanestebancruz","gender":"0","age":"9","school":"4"},{"start_time":1552309268908,"click_time":1552309270038,"finger_time":1552309269757,"fix_duration":569.3607365121859,"trial":15,"RT":849,"MT":281,"sideResp":2,"stimulus":"img/500/equaldotsize/R/14_Ratio_500_L_5_R_10.png","xmouse":[781,781,781,781,781,781,781,781,781,781,781,781,781,781,781,781,781,781,781,781,781,781,781,781,781,781,781,781,781,781,781,781,781,781,781,781,781,781,781,784,812,840,876,908,930,951,959,974,994,1019,1042,1045,1048,1051,1052,1054,1059],"ymouse":[505,505,505,505,505,505,505,505,505,505,505,505,505,505,505,505,505,505,505,505,505,505,505,505,505,505,505,505,505,505,505,505,505,505,505,505,505,505,505,503,488,476,458,433,404,342,315,282,243,198,124,103,86,77,74,73,73],"timestamp_mouse":[14,29,49,69,110,110,129,149,169,188,210,229,249,269,290,309,328,349,369,389,408,429,449,468,488,510,529,549,570,588,610,628,649,669,689,708,728,750,769,788,808,829,849,869,889,908,928,948,968,989,1008,1029,1048,1069,1089,1109,1129],"xSR":741.5,"ySR":469.95,"xT1":424.9,"yT1":0,"xT2":1058.1,"yT2":0,"toosoon":0,"cond_shown":"equaldotsize","ratio_trial":500,"smaller_num":"5","larger_num":"10","correct_side":2,"subjID":"Juanestebancruz","gender":"0","age":"9","school":"4"},{"start_time":1552309271758,"click_time":1552309272818,"finger_time":1552309272537,"fix_duration":401.88005295929287,"trial":16,"RT":779,"MT":281,"sideResp":2,"stimulus":"img/250/equaldotanddens/R/13_Ratio_250_L_2_R_8.png","xmouse":[802,802,802,802,802,802,802,802,802,802,802,802,802,802,802,802,802,802,802,802,802,802,802,802,802,802,802,802,802,802,802,802,802,802,802,802,809,823,830,856,870,919,971,990,1005,1014,1020,1025,1032,1035,1045,1055,1073],"ymouse":[541,541,541,541,541,541,541,541,541,541,541,541,541,541,541,541,541,541,541,541,541,541,541,541,541,541,541,541,541,541,541,541,541,541,541,541,525,489,466,404,371,278,181,147,125,110,100,92,85,84,82,79,74],"timestamp_mouse":[18,43,59,79,99,119,139,159,179,198,219,239,259,279,299,319,338,360,378,399,418,438,459,479,499,518,540,558,580,598,620,639,659,680,698,719,740,759,779,798,819,839,859,878,898,919,938,959,978,998,1018,1039,1060],"xSR":741.5,"ySR":469.95,"xT1":424.9,"yT1":0,"xT2":1058.1,"yT2":0,"toosoon":0,"cond_shown":"equaldotanddens","ratio_trial":250,"smaller_num":"2","larger_num":"8","correct_side":2,"subjID":"Juanestebancruz","gender":"0","age":"9","school":"4"},{"start_time":1552309276496,"click_time":1552309277758,"finger_time":1552309277357,"fix_duration":956.7489145755742,"trial":17,"RT":861,"MT":401,"sideResp":1,"stimulus":"img/250/equaldotsize/L/1_Ratio_250_L_8_R_2.png","xmouse":[818,818,818,818,818,818,818,818,818,818,818,818,818,818,818,818,818,818,818,818,818,818,818,818,818,818,818,818,818,818,818,818,818,818,818,818,818,817,815,814,813,794,742,718,677,633,596,559,543,529,525,520,513,511,510,510,509,507,507,507,507,507,507,507],"ymouse":[526,526,526,526,526,526,526,526,526,526,526,526,526,526,526,526,526,526,526,526,526,526,526,526,526,526,526,526,526,526,526,526,526,526,526,526,526,526,526,526,526,530,536,537,532,520,499,392,292,210,184,170,154,152,151,151,152,153,153,150,144,137,107,95],"timestamp_mouse":[9,20,42,60,81,101,120,140,161,180,200,222,242,261,281,300,321,340,362,382,402,421,441,462,482,501,520,541,561,582,601,621,641,661,682,701,721,740,762,782,800,822,841,861,880,901,921,940,961,981,1001,1021,1040,1061,1081,1102,1122,1140,1160,1180,1201,1220,1241,1261],"xSR":741.5,"ySR":469.95,"xT1":424.9,"yT1":0,"xT2":1058.1,"yT2":0,"toosoon":0,"cond_shown":"equaldotsize","ratio_trial":250,"smaller_num":"2","larger_num":"8","correct_side":1,"subjID":"Juanestebancruz","gender":"0","age":"9","school":"4"},{"start_time":1552309280813,"click_time":1552309282057,"finger_time":1552309281576,"fix_duration":313.74399300703703,"trial":18,"RT":763,"MT":481,"sideResp":1,"stimulus":"img/250/equaldotsize/L/5_Ratio_250_L_24_R_6.png","xmouse":[797,797,797,797,797,797,797,797,797,797,797,797,797,797,797,797,797,797,797,797,797,797,797,797,797,797,797,797,797,797,797,797,797,797,797,797,791,768,738,716,703,701,699,699,695,692,678,665,645,619,582,531,517,503,500,498,498,498,498,498,498,498,498],"ymouse":[539,539,539,539,539,539,539,539,539,539,539,539,539,539,539,539,539,539,539,539,539,539,539,539,539,539,539,539,539,539,539,539,539,539,539,539,535,516,500,492,486,484,481,481,474,462,410,378,335,283,221,158,140,122,119,117,117,117,117,117,114,103,95],"timestamp_mouse":[11,23,43,64,84,104,125,143,164,185,204,225,245,264,284,303,325,343,364,383,404,424,445,465,485,504,523,543,564,585,603,624,645,664,684,705,724,743,763,783,803,825,845,864,885,905,925,943,964,983,1003,1026,1044,1065,1085,1104,1124,1144,1163,1183,1204,1225,1244],"xSR":741.5,"ySR":469.95,"xT1":424.9,"yT1":0,"xT2":1058.1,"yT2":0,"toosoon":0,"cond_shown":"equaldotsize","ratio_trial":250,"smaller_num":"6","larger_num":"24","correct_side":1,"subjID":"Juanestebancruz","gender":"0","age":"9","school":"4"},{"start_time":1552309284202,"click_time":1552309285156,"finger_time":1552309284918,"fix_duration":884.8323078725471,"trial":19,"RT":716,"MT":238,"sideResp":2,"stimulus":"img/250/equaldotanddens/R/9_Ratio_250_L_3_R_12.png","xmouse":[757,757,757,757,757,757,757,757,757,757,757,757,757,757,757,757,757,757,757,757,757,757,757,757,757,757,757,757,757,757,757,757,758,768,780,799,826,900,933,956,968,975,999,1010,1020,1029,1040,1063],"ymouse":[499,499,499,499,499,499,499,499,499,499,499,499,499,499,499,499,499,499,499,499,499,499,499,499,499,499,499,499,499,499,499,499,498,487,471,446,405,280,231,207,197,191,170,162,153,140,125,93],"timestamp_mouse":[15,43,54,75,95,116,136,155,175,195,215,235,256,274,296,315,334,356,376,396,415,436,455,476,495,515,535,556,576,595,615,635,655,676,695,716,735,755,776,795,814,834,854,876,894,914,936,954],"xSR":741.5,"ySR":469.95,"xT1":424.9,"yT1":0,"xT2":1058.1,"yT2":0,"toosoon":0,"cond_shown":"equaldotanddens","ratio_trial":250,"smaller_num":"3","larger_num":"12","correct_side":2,"subjID":"Juanestebancruz","gender":"0","age":"9","school":"4"},{"start_time":1552309287989,"click_time":1552309289658,"finger_time":1552309289336,"fix_duration":250,"trial":20,"RT":1347,"MT":322,"sideResp":1,"stimulus":"img/900/equaldotsize/L/1_Ratio_900_L_10_R_9.png","xmouse":[815,815,815,815,815,815,815,815,815,815,815,815,815,815,815,815,815,815,815,815,815,815,815,815,815,815,815,815,815,815,815,815,815,815,815,815,815,815,815,815,815,815,815,815,815,815,815,815,815,815,815,815,815,815,815,815,815,815,815,815,815,815,815,812,807,798,785,765,691,651,622,606,593,578,574,569,561,552,534,525,518,511,502,484],"ymouse":[488,488,488,488,488,488,488,488,488,488,488,488,488,488,488,488,488,488,488,488,488,488,488,488,488,488,488,488,488,488,488,488,488,488,488,488,488,488,488,488,488,488,488,488,488,488,488,488,488,488,488,488,488,488,488,488,488,488,488,488,488,488,488,489,489,489,482,465,401,367,339,319,303,279,273,261,244,226,185,166,146,131,109,79],"timestamp_mouse":[12,37,49,69,89,109,128,149,168,187,209,229,248,268,288,309,328,348,367,389,408,428,448,468,488,508,528,549,568,588,608,629,648,668,688,708,728,749,768,789,809,828,849,868,888,908,927,949,968,987,1009,1029,1048,1068,1088,1108,1127,1149,1168,1188,1209,1227,1249,1268,1289,1307,1329,1347,1368,1388,1408,1429,1447,1468,1487,1508,1527,1547,1569,1588,1608,1629,1649,1669],"xSR":741.5,"ySR":469.95,"xT1":424.9,"yT1":0,"xT2":1058.1,"yT2":0,"toosoon":0,"cond_shown":"equaldotsize","ratio_trial":900,"smaller_num":"9","larger_num":"10","correct_side":1,"subjID":"Juanestebancruz","gender":"0","age":"9","school":"4"},{"start_time":1552309292901,"click_time":1552309294398,"finger_time":1552309293757,"fix_duration":662.2499757926482,"trial":21,"RT":856,"MT":641,"sideResp":1,"stimulus":"img/900/equaldotsize/L/1_Ratio_900_L_10_R_9.png","xmouse":[797,797,797,797,797,797,797,797,797,797,797,797,797,797,797,797,797,797,797,797,797,797,797,797,797,797,797,797,797,797,797,797,797,797,797,797,797,797,797,802,812,832,843,846,846,850,860,873,911,921,919,911,893,801,752,715,680,649,582,557,541,538,538,540,540,540,540,540,540,540,539,539,539,531,519],"ymouse":[530,530,530,530,530,530,530,530,530,530,530,530,530,530,530,530,530,530,530,530,530,530,530,530,530,530,530,530,530,530,530,530,530,530,530,530,530,530,530,524,517,499,481,465,462,454,436,419,387,376,362,349,333,298,283,269,248,224,147,118,94,79,69,65,65,65,64,64,64,64,64,62,62,61,61],"timestamp_mouse":[21,35,56,76,97,115,137,155,177,195,216,236,257,275,295,316,336,357,376,395,416,437,456,476,497,517,537,556,577,597,615,635,656,677,695,717,736,757,776,795,816,836,856,876,897,916,935,956,976,995,1015,1036,1056,1075,1097,1116,1136,1156,1176,1195,1215,1235,1256,1277,1297,1317,1336,1356,1377,1396,1416,1437,1456,1475,1497],"xSR":741.5,"ySR":469.95,"xT1":424.9,"yT1":0,"xT2":1058.1,"yT2":0,"toosoon":0,"cond_shown":"equaldotsize","ratio_trial":900,"smaller_num":"9","larger_num":"10","correct_side":1,"subjID":"Juanestebancruz","gender":"0","age":"9","school":"4"},{"start_time":1552309296003,"click_time":1552309298096,"finger_time":1552309296857,"fix_duration":544.8358777434005,"trial":22,"RT":854,"MT":1239,"sideResp":1,"stimulus":"img/900/equaldotanddens/L/4_Ratio_900_L_20_R_18.png","xmouse":[790,790,790,790,790,790,790,790,790,790,790,790,790,790,790,790,790,790,790,790,790,790,790,789,789,789,789,789,789,789,789,789,789,789,789,789,789,789,789,792,804,823,853,939,989,1037,1070,1092,1100,1100,1100,1100,1100,1100,1100,1099,1098,1096,1092,1091,1089,1089,1089,1089,1088,1082,1076,1062,1005,960,897,834,781,724,717,715,715,713,712,703,695,682,663,625,606,579,571,555,542,536,531,529,527,526,526,526,526,526,526,527,527,527,527,526,522],"ymouse":[532,532,532,532,532,532,532,532,532,532,532,532,532,532,532,532,532,532,532,532,532,532,532,532,532,532,532,532,532,532,532,532,532,532,532,532,532,532,532,527,509,485,456,374,322,263,214,172,136,133,132,132,132,132,132,131,129,125,117,115,113,113,113,113,113,113,113,116,137,155,172,183,188,188,188,188,188,188,189,189,190,190,190,190,187,181,179,173,166,162,158,154,147,127,117,108,98,92,87,80,77,74,71,70,69],"timestamp_mouse":[14,39,55,74,95,114,135,155,174,194,215,235,255,275,295,314,335,354,373,394,415,434,455,475,495,515,534,555,573,594,615,635,654,675,693,713,733,754,773,795,814,834,854,874,893,914,935,955,974,995,1014,1033,1054,1074,1094,1114,1135,1155,1174,1193,1214,1235,1255,1274,1294,1313,1335,1354,1374,1393,1413,1433,1455,1475,1493,1513,1535,1555,1574,1593,1613,1634,1654,1674,1693,1714,1734,1753,1774,1793,1813,1835,1854,1874,1895,1915,1934,1953,1973,1995,2014,2035,2055,2074,2093],"xSR":741.5,"ySR":469.95,"xT1":424.9,"yT1":0,"xT2":1058.1,"yT2":0,"toosoon":0,"cond_shown":"equaldotanddens","ratio_trial":900,"smaller_num":"18","larger_num":"20","correct_side":1,"subjID":"Juanestebancruz","gender":"0","age":"9","school":"4"},{"start_time":1552309301682,"click_time":1552309303097,"finger_time":1552309302738,"fix_duration":803.5204657534807,"trial":23,"RT":1056,"MT":359,"sideResp":2,"stimulus":"img/900/equaldotanddens/R/15_Ratio_900_L_9_R_10.png","xmouse":[805,805,805,805,805,805,805,805,805,805,805,805,805,805,805,805,805,805,805,805,805,805,805,805,805,805,805,805,805,805,805,805,805,805,805,805,805,805,805,805,805,805,805,805,805,805,805,805,805,805,815,835,845,850,866,882,903,929,962,1002,1091,1106,1114,1118,1121,1124,1124,1122,1120,1118,1118],"ymouse":[538,538,538,538,538,538,538,538,538,538,538,538,538,538,538,538,538,538,538,538,538,538,538,538,538,538,538,538,538,538,538,538,538,538,538,538,538,538,538,538,538,538,538,538,538,538,538,538,538,538,535,516,496,481,444,425,409,395,379,362,334,326,321,311,296,250,228,204,179,154,96],"timestamp_mouse":[15,36,54,75,95,115,135,155,175,196,216,236,255,275,296,315,335,354,376,396,415,435,456,474,495,516,536,555,575,595,615,634,655,675,695,714,735,754,774,794,816,836,854,875,896,916,936,955,974,995,1014,1035,1056,1076,1098,1114,1134,1154,1176,1195,1214,1236,1255,1275,1295,1314,1335,1355,1376,1396,1415],"xSR":741.5,"ySR":469.95,"xT1":424.9,"yT1":0,"xT2":1058.1,"yT2":0,"toosoon":0,"cond_shown":"equaldotanddens","ratio_trial":900,"smaller_num":"9","larger_num":"10","correct_side":2,"subjID":"Juanestebancruz","gender":"0","age":"9","school":"4"},{"start_time":1552309305161,"click_time":1552309306776,"finger_time":1552309306237,"fix_duration":543.6882624136272,"trial":24,"RT":1076,"MT":539,"sideResp":1,"stimulus":"img/750/equaldotsize/L/14_Ratio_750_L_8_R_6.png","xmouse":[776,776,777,777,778,778,778,778,778,778,778,778,779,780,781,783,786,787,788,789,791,795,796,797,798,798,798,798,798,798,798,798,798,798,798,798,798,798,798,798,798,798,798,798,798,798,798,798,798,798,798,799,799,799,799,799,798,791,785,776,766,745,738,732,727,721,712,699,691,680,671,656,647,631,613,576,550,514,503,494,487],"ymouse":[507,507,507,507,507,507,507,507,507,507,507,507,507,507,506,504,501,500,500,499,498,496,496,495,494,494,494,494,494,494,494,494,494,494,494,494,494,494,494,494,494,494,494,494,494,494,494,494,494,494,494,490,483,469,462,443,391,372,356,342,329,314,309,304,298,288,276,263,257,249,241,224,213,197,185,169,157,137,121,106,91],"timestamp_mouse":[15,42,55,77,96,117,136,156,175,195,216,237,256,277,296,315,335,356,375,396,417,436,456,476,495,517,536,556,577,596,616,637,656,675,697,716,735,757,776,796,816,836,857,876,895,917,936,957,975,995,1017,1035,1057,1076,1096,1117,1135,1155,1175,1196,1217,1236,1255,1276,1297,1317,1336,1356,1376,1396,1416,1436,1455,1475,1496,1517,1536,1556,1575,1595,1615],"xSR":741.5,"ySR":469.95,"xT1":424.9,"yT1":0,"xT2":1058.1,"yT2":0,"toosoon":0,"cond_shown":"equaldotsize","ratio_trial":750,"smaller_num":"6","larger_num":"8","correct_side":1,"subjID":"Juanestebancruz","gender":"0","age":"9","school":"4"},{"start_time":1552309308329,"click_time":1552309309718,"finger_time":1552309309038,"fix_duration":250,"trial":25,"RT":709,"MT":680,"sideResp":2,"stimulus":"img/500/equaldotsize/R/12_Ratio_500_L_1_R_2.png","xmouse":[767,767,767,767,767,767,767,767,767,767,767,767,767,767,767,767,767,767,767,767,767,767,767,767,767,767,767,767,767,767,767,767,767,775,809,845,885,927,1032,1089,1129,1173,1214,1242,1272,1281,1286,1291,1295,1299,1303,1305,1308,1309,1312,1312,1312,1308,1303,1293,1287,1280,1272,1258,1252,1238,1217,1198,1174,1142],"ymouse":[507,507,507,507,507,507,507,507,507,507,507,507,507,507,507,507,507,507,507,507,507,507,507,507,507,507,507,507,507,507,507,507,507,502,486,467,444,419,365,339,323,309,296,288,281,279,278,276,276,272,269,266,261,255,234,219,205,190,173,146,137,127,121,112,110,103,99,94,88,79],"timestamp_mouse":[19,44,47,67,88,109,129,148,168,187,209,228,248,269,288,308,328,349,367,387,408,429,447,467,489,507,527,549,567,589,607,627,649,669,688,709,729,747,769,787,808,827,848,867,887,908,928,947,968,987,1008,1029,1048,1068,1088,1109,1128,1147,1168,1187,1207,1228,1247,1269,1287,1308,1328,1349,1368,1388],"xSR":741.5,"ySR":469.95,"xT1":424.9,"yT1":0,"xT2":1058.1,"yT2":0,"toosoon":0,"cond_shown":"equaldotsize","ratio_trial":500,"smaller_num":"1","larger_num":"2","correct_side":2,"subjID":"Juanestebancruz","gender":"0","age":"9","school":"4"},{"start_time":1552309311471,"click_time":1552309312676,"finger_time":1552309312417,"fix_duration":250,"trial":26,"RT":946,"MT":259,"sideResp":1,"stimulus":"img/250/randomdotsizeEA/L/5_Ratio_250_L_24_R_6.png","xmouse":[793,793,793,793,793,793,793,793,793,793,793,793,793,793,793,793,793,793,793,793,793,793,793,793,793,793,793,793,793,793,793,793,793,793,793,793,793,793,793,793,793,796,817,830,833,833,833,828,823,817,812,804,787,773,750,725,679,531,498,488,488],"ymouse":[497,497,497,497,497,497,497,497,497,497,497,497,497,497,497,497,497,497,497,497,497,497,497,497,497,497,497,497,497,497,497,497,497,497,497,497,497,497,497,497,497,497,489,483,481,480,478,466,462,459,456,451,446,439,430,414,373,191,140,115,99],"timestamp_mouse":[9,25,45,67,86,105,127,147,166,186,205,227,246,266,287,306,325,346,366,386,406,426,446,467,486,505,526,546,565,586,606,626,647,666,686,707,727,745,766,787,806,826,846,866,886,905,926,946,966,986,1006,1026,1045,1066,1086,1106,1125,1145,1166,1185,1205],"xSR":741.5,"ySR":469.95,"xT1":424.9,"yT1":0,"xT2":1058.1,"yT2":0,"toosoon":0,"cond_shown":"randomdotsizeEA","ratio_trial":250,"smaller_num":"6","larger_num":"24","correct_side":1,"subjID":"Juanestebancruz","gender":"0","age":"9","school":"4"},{"start_time":1552309314270,"click_time":1552309315617,"finger_time":1552309315157,"fix_duration":250,"trial":27,"RT":887,"MT":460,"sideResp":2,"stimulus":"img/250/randomdotsizeEA/R/4_Ratio_250_L_3_R_12.png","xmouse":[757,757,757,757,757,757,757,757,757,757,757,757,757,757,757,757,757,757,757,757,757,757,757,757,757,757,757,757,757,757,757,757,757,757,757,757,757,757,757,757,757,757,765,822,918,1077,1123,1234,1256,1274,1288,1296,1298,1298,1295,1294,1293,1292,1291,1287,1281,1273,1249,1232,1216,1198,1170,1137],"ymouse":[506,506,506,506,506,506,506,506,506,506,506,506,506,506,506,506,506,506,506,506,506,506,506,506,506,506,506,506,506,506,506,506,506,506,506,506,506,506,506,506,506,506,505,472,418,336,319,270,254,234,211,187,140,124,109,100,95,87,85,82,80,75,67,61,58,56,52,48],"timestamp_mouse":[7,39,48,68,86,107,128,146,168,188,206,227,246,266,287,306,326,346,368,388,408,428,448,467,486,508,527,547,566,588,608,627,647,667,686,708,728,746,768,788,807,827,848,866,887,908,927,947,967,986,1006,1026,1048,1066,1088,1107,1128,1148,1167,1187,1207,1226,1248,1266,1287,1308,1326,1347],"xSR":741.5,"ySR":469.95,"xT1":424.9,"yT1":0,"xT2":1058.1,"yT2":0,"toosoon":0,"cond_shown":"randomdotsizeEA","ratio_trial":250,"smaller_num":"3","larger_num":"12","correct_side":2,"subjID":"Juanestebancruz","gender":"0","age":"9","school":"4"},{"start_time":1552309317665,"click_time":1552309318897,"finger_time":1552309318377,"fix_duration":745.1670838341755,"trial":28,"RT":712,"MT":520,"sideResp":1,"stimulus":"img/500/equaldotanddens/L/8_Ratio_500_L_8_R_4.png","xmouse":[810,809,806,803,803,803,803,803,803,803,803,803,803,803,803,803,803,803,803,803,803,803,803,803,803,803,803,803,803,803,803,803,804,811,816,817,816,804,762,736,714,696,682,662,661,664,669,671,670,667,663,660,657,653,651,649,645,633,593,563,532,510],"ymouse":[499,501,505,508,510,510,510,510,510,510,510,510,510,510,510,510,510,510,510,510,510,510,510,510,510,510,510,510,510,510,510,509,508,492,476,465,451,432,375,345,313,277,244,189,144,110,81,62,38,30,25,24,23,23,23,23,24,26,37,43,51,56],"timestamp_mouse":[12,32,51,72,92,113,132,152,172,191,212,233,252,273,292,312,333,352,373,392,412,431,451,472,493,513,533,551,573,593,613,632,652,671,692,712,732,752,771,793,812,831,852,872,892,911,931,951,972,991,1012,1031,1052,1072,1092,1113,1132,1152,1172,1191,1213,1231],"xSR":741.5,"ySR":469.95,"xT1":424.9,"yT1":0,"xT2":1058.1,"yT2":0,"toosoon":0,"cond_shown":"equaldotanddens","ratio_trial":500,"smaller_num":"4","larger_num":"8","correct_side":1,"subjID":"Juanestebancruz","gender":"0","age":"9","school":"4"},{"start_time":1552309321369,"click_time":1552309322537,"finger_time":1552309322157,"fix_duration":1430.137156237615,"trial":29,"RT":788,"MT":380,"sideResp":1,"stimulus":"img/500/equaldotsize/L/5_Ratio_500_L_4_R_2.png","xmouse":[782,782,782,782,782,782,782,782,782,782,782,782,782,782,782,782,782,782,782,782,782,782,782,782,782,782,782,782,782,782,782,782,782,782,782,782,783,783,772,760,740,716,696,684,684,682,682,681,679,676,675,673,669,646,624,586,539,494,429],"ymouse":[533,533,533,533,533,533,533,533,533,533,533,533,533,533,533,533,533,533,533,533,533,533,533,533,533,533,533,533,533,533,533,533,533,533,533,533,530,525,487,467,440,406,374,329,310,291,276,262,254,251,249,247,242,225,212,191,164,139,99],"timestamp_mouse":[10,28,47,68,87,109,129,149,167,188,209,228,248,268,289,309,328,348,368,388,409,428,449,469,489,509,527,548,568,588,609,628,648,669,687,707,728,748,767,788,807,828,849,868,888,908,928,947,968,989,1008,1028,1049,1069,1087,1107,1127,1149,1168],"xSR":741.5,"ySR":469.95,"xT1":424.9,"yT1":0,"xT2":1058.1,"yT2":0,"toosoon":0,"cond_shown":"equaldotsize","ratio_trial":500,"smaller_num":"2","larger_num":"4","correct_side":1,"subjID":"Juanestebancruz","gender":"0","age":"9","school":"4"},{"start_time":1552309325250,"click_time":1552309326757,"finger_time":1552309326357,"fix_duration":250,"trial":30,"RT":1107,"MT":400,"sideResp":2,"stimulus":"img/500/randomdotsizeEA/R/3_Ratio_500_L_10_R_20.png","xmouse":[822,822,822,822,822,822,822,822,822,822,822,822,822,822,822,822,822,822,822,822,822,822,822,822,822,822,822,822,822,822,822,822,822,822,822,822,822,822,822,822,822,822,822,822,822,822,822,822,822,822,822,822,822,822,826,865,908,923,925,925,1149,1239,1302,1313,1315,1317,1318,1318,1319,1324,1324,1315,1294,1250,1196,1148],"ymouse":[506,506,506,506,506,506,506,506,506,506,506,506,506,506,506,506,506,506,506,506,506,506,506,506,506,506,506,506,506,506,506,506,506,506,506,506,506,506,506,506,506,506,506,506,506,506,506,506,506,506,506,506,506,506,506,486,452,440,439,439,287,240,211,203,201,199,199,199,199,194,190,179,169,150,126,94],"timestamp_mouse":[13,36,48,66,88,107,128,148,166,187,207,227,247,268,287,307,327,348,366,386,408,427,448,468,488,507,527,546,567,588,608,627,646,666,687,706,728,748,767,787,806,827,847,868,887,907,928,948,967,987,1007,1028,1046,1068,1087,1107,1127,1146,1167,1188,1206,1227,1247,1268,1286,1307,1327,1346,1366,1388,1407,1428,1446,1467,1486,1506],"xSR":741.5,"ySR":469.95,"xT1":424.9,"yT1":0,"xT2":1058.1,"yT2":0,"toosoon":0,"cond_shown":"randomdotsizeEA","ratio_trial":500,"smaller_num":"10","larger_num":"20","correct_side":2,"subjID":"Juanestebancruz","gender":"0","age":"9","school":"4"},{"start_time":1552309329690,"click_time":1552309330938,"finger_time":1552309330457,"fix_duration":250,"trial":31,"RT":767,"MT":481,"sideResp":2,"stimulus":"img/750/equaldotanddens/R/4_Ratio_750_L_15_R_20.png","xmouse":[783,783,783,783,783,783,783,783,783,783,783,783,783,783,783,783,783,783,783,783,783,783,783,783,783,785,789,791,791,791,791,791,792,796,801,810,821,833,905,958,1017,1073,1117,1143,1143,1143,1143,1143,1142,1139,1137,1137,1140,1143,1143,1143,1141,1140,1136,1134,1133,1133,1130],"ymouse":[554,554,554,554,554,554,554,554,554,554,554,554,554,554,554,554,554,554,554,554,554,554,554,554,554,554,554,554,554,554,554,554,554,549,541,526,507,487,384,327,281,245,217,200,199,199,199,199,199,199,191,179,163,139,129,122,115,111,105,102,101,100,99],"timestamp_mouse":[9,42,47,66,88,108,128,148,166,186,208,228,246,268,286,306,327,347,366,387,408,428,448,467,488,508,527,547,568,586,608,627,648,667,688,706,727,748,767,787,807,827,846,867,886,907,927,948,967,988,1006,1027,1047,1067,1087,1107,1128,1147,1167,1188,1207,1227,1248],"xSR":741.5,"ySR":469.95,"xT1":424.9,"yT1":0,"xT2":1058.1,"yT2":0,"toosoon":0,"cond_shown":"equaldotanddens","ratio_trial":750,"smaller_num":"15","larger_num":"20","correct_side":2,"subjID":"Juanestebancruz","gender":"0","age":"9","school":"4"},{"start_time":1552309332569,"click_time":1552309334258,"finger_time":1552309333317,"fix_duration":250,"trial":32,"RT":748,"MT":941,"sideResp":1,"stimulus":"img/500/equaldotanddens/L/5_Ratio_500_L_4_R_2.png","xmouse":[812,812,812,812,812,812,812,812,812,812,812,812,812,812,812,812,812,812,812,812,812,812,812,812,812,812,812,812,812,812,812,812,812,812,812,809,800,777,744,662,621,588,558,540,514,507,503,498,492,471,458,446,429,421,395,383,373,366,363,363,363,363,363,363,363,363,363,363,362,362,362,363,366,368,369,369,371,371,372,373,375,376,383,402,514],"ymouse":[527,527,527,527,527,527,527,527,527,527,527,527,527,527,527,527,527,527,527,527,527,527,527,527,527,527,527,527,527,527,527,527,527,527,527,523,502,466,424,348,321,299,278,264,244,234,226,215,201,164,144,125,101,86,58,50,45,43,43,43,43,43,43,43,43,43,43,43,43,43,43,43,44,44,44,44,44,44,44,44,44,44,44,44,57],"timestamp_mouse":[11,39,47,69,88,108,127,149,169,188,207,228,247,269,289,307,328,349,369,389,408,428,449,469,488,508,528,547,569,588,607,627,649,668,688,708,728,748,768,788,807,828,848,867,889,907,928,947,968,989,1007,1028,1047,1067,1089,1107,1127,1148,1169,1189,1209,1229,1249,1267,1288,1308,1328,1348,1368,1388,1408,1428,1448,1468,1489,1508,1528,1549,1568,1589,1609,1629,1648,1668,1689],"xSR":741.5,"ySR":469.95,"xT1":424.9,"yT1":0,"xT2":1058.1,"yT2":0,"toosoon":0,"cond_shown":"equaldotanddens","ratio_trial":500,"smaller_num":"2","larger_num":"4","correct_side":1,"subjID":"Juanestebancruz","gender":"0","age":"9","school":"4"},{"start_time":1552309336332,"click_time":1552309337577,"finger_time":1552309337137,"fix_duration":592.6040911795081,"trial":33,"RT":805,"MT":440,"sideResp":2,"stimulus":"img/250/equaldotsize/R/4_Ratio_250_L_3_R_12.png","xmouse":[832,832,832,832,832,832,832,832,832,832,832,832,832,832,832,832,832,832,832,832,832,832,832,832,832,832,832,832,832,832,832,832,832,832,832,832,832,832,832,837,855,895,962,987,1003,1011,1017,1022,1023,1023,1023,1024,1034,1038,1041,1046,1048,1057,1063,1070,1075,1081,1092],"ymouse":[513,513,513,513,513,513,513,513,513,513,513,513,513,513,513,513,513,513,513,513,513,513,513,513,513,513,513,513,513,513,513,513,513,513,513,513,513,513,512,508,499,479,430,392,361,342,326,300,289,278,268,258,225,212,199,189,180,163,153,144,131,114,77],"timestamp_mouse":[9,25,48,65,85,104,125,146,165,186,206,224,245,264,284,305,326,344,364,385,406,426,446,465,486,505,526,544,565,585,605,626,644,664,686,705,726,744,765,786,805,825,844,864,885,905,925,945,966,985,1006,1025,1046,1065,1085,1106,1126,1145,1164,1184,1206,1225,1245],"xSR":741.5,"ySR":469.95,"xT1":424.9,"yT1":0,"xT2":1058.1,"yT2":0,"toosoon":0,"cond_shown":"equaldotsize","ratio_trial":250,"smaller_num":"3","larger_num":"12","correct_side":2,"subjID":"Juanestebancruz","gender":"0","age":"9","school":"4"},{"start_time":1552309340787,"click_time":1552309341918,"finger_time":1552309341517,"fix_duration":1449.0177519173976,"trial":34,"RT":730,"MT":401,"sideResp":2,"stimulus":"img/900/equaldotanddens/R/13_Ratio_900_L_18_R_20.png","xmouse":[794,794,794,794,794,794,794,794,794,794,794,794,794,794,794,794,794,794,794,794,794,794,795,796,799,799,799,799,799,799,799,799,800,801,808,814,835,853,873,890,930,953,977,1002,1019,1042,1048,1057,1060,1065,1066,1068,1071,1075,1082,1086,1089],"ymouse":[482,482,482,482,482,482,482,482,482,482,482,482,482,482,482,482,482,482,482,482,482,482,482,482,481,481,481,481,481,481,481,481,481,481,477,472,460,450,437,425,396,377,358,335,316,284,270,246,225,185,169,154,142,131,113,105,99],"timestamp_mouse":[9,29,51,71,89,110,131,150,169,191,210,230,250,269,290,310,329,350,371,390,409,430,450,471,490,510,530,550,569,589,611,631,649,670,690,709,730,751,771,790,810,830,849,870,890,909,930,951,971,990,1010,1030,1051,1070,1091,1110,1131],"xSR":741.5,"ySR":469.95,"xT1":424.9,"yT1":0,"xT2":1058.1,"yT2":0,"toosoon":0,"cond_shown":"equaldotanddens","ratio_trial":900,"smaller_num":"18","larger_num":"20","correct_side":2,"subjID":"Juanestebancruz","gender":"0","age":"9","school":"4"},{"start_time":1552309345769,"click_time":1552309346876,"finger_time":1552309346457,"fix_duration":250,"trial":35,"RT":688,"MT":419,"sideResp":2,"stimulus":"img/250/randomdotsizeEA/R/13_Ratio_250_L_2_R_8.png","xmouse":[771,771,771,771,771,771,771,771,771,771,771,771,771,771,771,771,771,771,771,771,771,771,771,771,771,771,771,771,771,771,771,771,784,821,889,961,1071,1088,1098,1104,1106,1106,1106,1108,1110,1118,1139,1147,1153,1153,1153,1152,1151,1151,1150,1148],"ymouse":[541,541,541,541,541,541,541,541,541,541,541,541,541,541,541,541,541,541,541,541,541,541,541,541,541,541,541,541,541,541,541,541,537,528,507,484,425,405,386,372,363,349,341,332,318,292,245,216,189,165,145,124,117,111,105,99],"timestamp_mouse":[10,28,47,76,89,107,128,149,168,188,208,228,249,268,289,307,328,348,367,389,409,429,449,468,487,508,527,549,569,588,608,629,648,668,688,708,728,748,767,788,809,829,847,867,888,908,927,947,967,988,1009,1027,1047,1069,1088,1107],"xSR":741.5,"ySR":469.95,"xT1":424.9,"yT1":0,"xT2":1058.1,"yT2":0,"toosoon":0,"cond_shown":"randomdotsizeEA","ratio_trial":250,"smaller_num":"2","larger_num":"8","correct_side":2,"subjID":"Juanestebancruz","gender":"0","age":"9","school":"4"},{"start_time":1552309348356,"click_time":1552309349557,"finger_time":1552309349376,"fix_duration":477.65024800571,"trial":36,"RT":1020,"MT":181,"sideResp":1,"stimulus":"img/750/randomdotsizeEA/L/1_Ratio_750_L_20_R_15.png","xmouse":[826,826,826,826,826,826,826,826,826,826,826,826,826,826,826,826,826,826,826,826,826,826,826,826,826,826,826,826,826,826,826,826,826,826,826,826,826,826,826,826,826,826,826,826,826,826,826,820,813,804,790,774,732,703,671,637,593,555,543,533,523],"ymouse":[492,492,492,492,492,492,492,492,492,492,492,492,492,492,492,492,492,492,492,492,492,492,492,492,492,492,492,492,492,492,492,492,492,492,492,492,492,492,492,492,492,492,492,492,492,492,492,493,493,491,482,465,415,376,329,280,219,155,134,114,95],"timestamp_mouse":[10,22,41,62,82,102,120,141,162,182,201,221,242,262,280,301,322,341,361,381,402,422,441,462,482,501,521,541,560,580,602,621,641,661,682,702,721,741,761,781,802,821,841,861,882,902,922,941,961,981,1001,1020,1041,1060,1080,1100,1121,1141,1161,1181,1201],"xSR":741.5,"ySR":469.95,"xT1":424.9,"yT1":0,"xT2":1058.1,"yT2":0,"toosoon":0,"cond_shown":"randomdotsizeEA","ratio_trial":750,"smaller_num":"15","larger_num":"20","correct_side":1,"subjID":"Juanestebancruz","gender":"0","age":"9","school":"4"},{"start_time":1552309351859,"click_time":1552309353156,"finger_time":1552309352677,"fix_duration":1100.3358337259426,"trial":37,"RT":818,"MT":479,"sideResp":2,"stimulus":"img/900/equaldotanddens/L/10_Ratio_900_L_20_R_18.png","xmouse":[748,748,748,748,748,748,748,748,748,748,748,748,748,748,748,748,748,748,748,748,748,748,748,748,748,748,748,748,748,748,748,748,748,748,748,752,768,782,811,834,860,884,939,964,982,993,1005,1006,1006,1006,1005,1005,1002,1000,998,997,997,998,1004,1012,1024,1040,1080,1101,1119],"ymouse":[495,495,495,495,495,495,495,495,495,495,495,495,495,495,495,495,495,495,495,495,495,495,495,495,495,495,495,495,495,495,495,495,495,495,495,495,495,493,484,477,468,462,439,428,416,407,391,381,375,364,357,347,320,307,297,290,283,272,259,247,231,214,164,129,93],"timestamp_mouse":[17,46,58,77,99,118,139,159,179,198,217,238,258,279,299,318,337,358,378,397,419,438,457,479,499,519,537,558,579,599,619,638,658,678,698,719,738,757,778,799,818,838,859,877,899,918,939,958,978,999,1019,1039,1059,1078,1097,1118,1138,1157,1178,1198,1217,1238,1259,1278,1297],"xSR":741.5,"ySR":469.95,"xT1":424.9,"yT1":0,"xT2":1058.1,"yT2":0,"toosoon":0,"cond_shown":"equaldotanddens","ratio_trial":900,"smaller_num":"18","larger_num":"20","correct_side":1,"subjID":"Juanestebancruz","gender":"0","age":"9","school":"4"},{"start_time":1552309354598,"click_time":1552309356017,"finger_time":1552309355416,"fix_duration":639.2956725327153,"trial":38,"RT":818,"MT":601,"sideResp":1,"stimulus":"img/750/equaldotanddens/L/9_Ratio_750_L_4_R_3.png","xmouse":[819,819,819,819,819,819,819,819,819,819,819,819,819,819,819,819,819,819,819,819,819,819,819,819,819,819,819,819,819,819,819,819,819,819,819,822,828,832,833,836,844,850,862,871,878,881,881,880,879,875,831,788,731,675,609,512,483,466,457,455,452,451,450,449,449,449,450,452,456,462,471],"ymouse":[510,510,510,510,510,510,510,510,510,510,510,510,510,510,510,510,510,510,510,510,510,510,510,510,510,510,510,510,510,510,510,510,510,510,510,506,502,501,499,497,491,485,473,461,448,432,429,425,425,423,407,389,364,339,303,245,228,218,210,206,194,188,185,177,167,145,136,127,116,103,78],"timestamp_mouse":[26,39,59,79,99,119,140,160,179,198,219,240,259,279,300,319,339,360,378,399,420,439,460,480,499,518,540,559,580,600,620,639,659,678,699,719,739,759,779,799,818,840,859,879,899,919,938,958,979,999,1019,1039,1059,1079,1100,1119,1139,1160,1179,1198,1219,1239,1260,1280,1298,1319,1340,1360,1379,1400,1418],"xSR":741.5,"ySR":469.95,"xT1":424.9,"yT1":0,"xT2":1058.1,"yT2":0,"toosoon":0,"cond_shown":"equaldotanddens","ratio_trial":750,"smaller_num":"3","larger_num":"4","correct_side":1,"subjID":"Juanestebancruz","gender":"0","age":"9","school":"4"},{"start_time":1552309357727,"click_time":1552309359118,"finger_time":1552309358477,"fix_duration":348.4293094252387,"trial":39,"RT":750,"MT":641,"sideResp":2,"stimulus":"img/750/equaldotanddens/R/3_Ratio_750_L_15_R_20.png","xmouse":[773,773,773,773,773,773,773,773,773,773,773,773,773,773,773,773,773,773,773,773,773,773,773,773,773,773,773,773,773,773,773,773,773,773,777,791,815,847,887,948,972,992,1025,1050,1101,1133,1160,1176,1184,1195,1204,1211,1223,1228,1231,1231,1230,1227,1221,1208,1201,1192,1188,1180,1170,1166,1164,1162,1160,1156],"ymouse":[542,542,542,542,542,542,542,542,542,542,542,542,542,542,542,542,542,542,542,542,542,542,542,542,542,542,542,542,542,542,542,542,542,542,541,535,525,510,493,457,437,417,378,345,277,247,224,205,187,157,145,137,129,124,117,113,111,109,105,98,94,87,84,77,73,73,73,73,74,76],"timestamp_mouse":[10,34,51,71,90,110,131,150,170,191,210,231,250,271,290,310,329,351,370,391,410,430,450,469,491,510,531,551,571,590,610,630,650,671,690,711,730,750,769,790,810,830,851,871,891,911,930,950,971,991,1009,1030,1051,1069,1091,1109,1130,1151,1170,1191,1209,1230,1251,1270,1290,1309,1330,1351,1370,1390],"xSR":741.5,"ySR":469.95,"xT1":424.9,"yT1":0,"xT2":1058.1,"yT2":0,"toosoon":0,"cond_shown":"equaldotanddens","ratio_trial":750,"smaller_num":"15","larger_num":"20","correct_side":2,"subjID":"Juanestebancruz","gender":"0","age":"9","school":"4"},{"start_time":1552309362588,"click_time":1552309363577,"finger_time":1552309363217,"fix_duration":250,"trial":40,"RT":629,"MT":360,"sideResp":1,"stimulus":"img/250/equaldotanddens/L/7_Ratio_250_L_8_R_2.png","xmouse":[809,809,809,809,809,809,809,809,809,809,809,809,809,809,809,809,809,809,809,809,809,809,809,809,809,809,809,809,809,801,769,716,607,584,569,562,555,554,554,554,554,554,554,554,553,553,551,539,527,506],"ymouse":[526,526,526,526,526,526,526,526,526,526,526,526,526,526,526,526,526,526,526,526,526,526,526,526,526,526,526,526,526,510,470,413,296,249,205,160,101,79,73,71,70,70,70,70,70,70,70,68,68,69],"timestamp_mouse":[13,35,50,69,89,109,130,150,170,190,209,230,250,269,289,310,328,350,369,388,410,430,449,470,488,510,530,549,568,590,609,629,648,669,690,709,731,748,768,790,809,830,849,869,889,909,929,949,969,989],"xSR":741.5,"ySR":469.95,"xT1":424.9,"yT1":0,"xT2":1058.1,"yT2":0,"toosoon":0,"cond_shown":"equaldotanddens","ratio_trial":250,"smaller_num":"2","larger_num":"8","correct_side":1,"subjID":"Juanestebancruz","gender":"0","age":"9","school":"4"},{"start_time":1552309364724,"click_time":1552309366237,"finger_time":1552309365636,"fix_duration":344.77929140354735,"trial":41,"RT":912,"MT":601,"sideResp":1,"stimulus":"img/750/equaldotanddens/L/9_Ratio_750_L_4_R_3.png","xmouse":[772,772,772,772,772,772,772,772,772,772,772,772,772,772,772,772,772,772,772,772,772,772,772,772,772,772,772,772,772,772,772,772,772,772,772,772,774,774,774,776,783,787,791,795,799,801,795,779,761,726,691,680,673,668,661,651,645,641,635,626,607,603,600,599,596,587,585,583,579,570,562,541,533,528,526,515],"ymouse":[509,509,509,509,509,509,509,509,509,509,509,509,509,509,509,509,509,509,509,509,509,509,509,509,509,509,509,509,509,509,509,509,509,509,509,509,509,509,509,509,503,500,495,490,481,455,439,420,400,372,340,324,310,297,284,257,243,226,204,162,99,78,65,55,48,38,36,34,34,32,32,32,32,32,32,34],"timestamp_mouse":[12,44,53,74,94,114,132,153,174,193,212,233,253,273,293,313,332,353,373,393,413,433,454,474,494,514,533,553,573,594,613,632,653,673,692,714,733,753,774,794,813,832,853,873,893,912,933,953,974,994,1013,1033,1053,1073,1093,1113,1134,1154,1174,1194,1213,1233,1254,1274,1294,1313,1333,1354,1373,1393,1412,1433,1453,1473,1494,1513],"xSR":741.5,"ySR":469.95,"xT1":424.9,"yT1":0,"xT2":1058.1,"yT2":0,"toosoon":0,"cond_shown":"equaldotanddens","ratio_trial":750,"smaller_num":"3","larger_num":"4","correct_side":1,"subjID":"Juanestebancruz","gender":"0","age":"9","school":"4"},{"start_time":1552309368840,"click_time":1552309371337,"finger_time":1552309369798,"fix_duration":1341.104830423207,"trial":42,"RT":958,"MT":1539,"sideResp":1,"stimulus":"img/750/equaldotsize/L/6_Ratio_750_L_24_R_18.png","xmouse":[796,796,796,796,796,796,796,796,796,796,796,796,796,796,796,796,796,796,796,796,796,796,796,796,796,796,796,796,796,796,796,796,796,796,796,796,796,796,796,796,796,796,796,797,798,822,840,852,865,884,893,896,896,894,888,886,885,883,879,874,848,833,814,795,736,707,672,652,652,652,652,652,652,652,652,652,652,652,652,652,652,652,652,652,652,406,319,240,177,142,129,129,129,129,129,129,129,128,128,128,128,128,128,128,128,128,128,128,131,165,206,235,264,295,342,353,357,357,357,357,358,364,378,402,431],"ymouse":[504,504,504,504,504,504,504,504,504,504,504,504,504,504,504,504,504,504,504,504,504,504,504,504,504,504,504,504,504,504,504,504,504,504,504,504,504,504,504,504,504,504,504,504,504,497,488,481,473,456,437,424,413,403,392,390,388,387,384,380,354,335,310,284,197,146,75,10,10,10,10,10,10,10,10,10,10,10,10,10,10,10,10,10,10,28,51,65,75,83,85,85,85,85,85,85,85,85,85,85,85,85,85,85,85,85,85,85,85,82,81,81,81,81,81,81,81,81,81,81,82,82,82,82,80],"timestamp_mouse":[17,41,57,76,97,118,137,157,177,198,217,238,257,277,297,316,338,357,378,397,417,438,458,477,498,517,537,558,577,598,618,637,656,677,697,718,738,758,778,798,817,837,856,877,897,918,937,958,978,999,1016,1037,1057,1077,1099,1117,1137,1156,1176,1197,1217,1237,1257,1277,1299,1317,1337,1356,1376,1398,1417,1438,1457,1477,1497,1517,1537,1558,1578,1598,1618,1637,1658,1677,1698,1718,1738,1758,1776,1797,1817,1836,1857,1878,1897,1918,1938,1957,1978,1997,2018,2036,2057,2078,2098,2116,2137,2157,2178,2198,2216,2237,2257,2278,2298,2317,2337,2357,2376,2396,2416,2437,2457,2478,2497],"xSR":741.5,"ySR":469.95,"xT1":424.9,"yT1":0,"xT2":1058.1,"yT2":0,"toosoon":0,"cond_shown":"equaldotsize","ratio_trial":750,"smaller_num":"18","larger_num":"24","correct_side":1,"subjID":"Juanestebancruz","gender":"0","age":"9","school":"4"},{"start_time":1552309374295,"click_time":1552309375777,"finger_time":1552309375218,"fix_duration":1155.3987453394352,"trial":43,"RT":923,"MT":559,"sideResp":2,"stimulus":"img/900/equaldotanddens/L/10_Ratio_900_L_20_R_18.png","xmouse":[759,759,759,759,759,759,759,759,759,759,759,759,759,759,759,759,759,759,759,759,759,759,759,759,759,759,759,759,759,759,759,759,759,759,759,759,759,759,759,759,759,759,766,794,807,822,845,853,909,937,982,1039,1086,1156,1174,1190,1202,1218,1227,1240,1243,1248,1251,1253,1254,1254,1253,1252,1246,1242,1238,1233,1223,1178,1131],"ymouse":[518,518,518,518,518,518,518,518,518,518,518,518,518,518,518,518,518,518,518,518,518,518,518,518,518,518,518,518,518,518,518,518,518,518,518,518,518,518,518,518,518,518,518,505,501,496,488,484,455,435,402,364,328,263,238,216,200,184,178,169,167,163,156,146,127,114,107,102,92,87,83,79,74,66,62],"timestamp_mouse":[13,22,45,63,83,103,121,143,163,182,203,223,242,263,283,302,322,342,363,382,401,421,441,461,481,502,523,542,563,582,603,621,642,662,682,702,723,742,762,782,801,822,842,862,882,902,923,942,962,982,1002,1023,1043,1062,1082,1101,1121,1142,1161,1182,1203,1223,1241,1262,1281,1303,1322,1342,1362,1381,1402,1423,1442,1463,1481],"xSR":741.5,"ySR":469.95,"xT1":424.9,"yT1":0,"xT2":1058.1,"yT2":0,"toosoon":0,"cond_shown":"equaldotanddens","ratio_trial":900,"smaller_num":"18","larger_num":"20","correct_side":1,"subjID":"Juanestebancruz","gender":"0","age":"9","school":"4"},{"start_time":1552309377750,"click_time":1552309379797,"finger_time":1552309377806,"fix_duration":250,"trial":44,"RT":56,"MT":1991,"sideResp":2,"stimulus":"img/900/randomdotsizeEA/L/2_Ratio_900_L_20_R_18.png","xmouse":[789,752,730,730,692,676,673,673,673,673,673,673,673,673,673,673,679,690,702,718,746,756,771,776,778,778,778,778,778,778,778,778,778,778,778,778,778,778,778,778,778,778,778,778,778,778,778,778,778,778,778,778,778,778,778,778,778,778,778,778,778,778,778,778,778,778,778,778,778,783,791,834,875,912,945,1008,1029,1049,1063,1072,1089,1096,1107,1117,1124,1134,1142,1144,1145,1147,1150,1156,1158,1158,1159,1160,1160,1160,1160,1160,1160,1160,1155],"ymouse":[509,551,582,582,640,670,677,677,677,677,677,677,677,677,677,677,661,641,621,602,569,554,532,524,520,518,518,518,518,518,518,518,518,518,518,518,518,518,518,518,518,518,518,518,518,518,518,518,518,518,518,518,518,518,518,518,518,518,518,518,518,518,518,518,518,518,518,518,518,510,500,452,413,383,359,316,301,286,276,268,253,247,236,229,222,215,203,200,195,188,178,156,150,142,134,128,115,109,103,97,93,89,87],"timestamp_mouse":[15,27,56,67,87,107,126,147,168,188,208,227,246,267,288,307,328,347,367,387,408,428,448,467,487,507,526,548,567,587,608,628,647,668,687,707,727,747,768,788,807,826,847,868,888,907,927,947,968,986,1008,1027,1048,1068,1088,1106,1128,1147,1168,1188,1207,1228,1248,1266,1288,1307,1327,1348,1368,1387,1408,1427,1447,1467,1487,1509,1527,1548,1567,1588,1609,1627,1648,1667,1687,1707,1727,1747,1768,1788,1807,1828,1847,1867,1886,1907,1927,1946,1966,1987,2007,2027,2047],"xSR":741.5,"ySR":469.95,"xT1":424.9,"yT1":0,"xT2":1058.1,"yT2":0,"toosoon":0,"cond_shown":"randomdotsizeEA","ratio_trial":900,"smaller_num":"18","larger_num":"20","correct_side":1,"subjID":"Juanestebancruz","gender":"0","age":"9","school":"4"},{"start_time":1552309382267,"click_time":1552309383418,"finger_time":1552309382758,"fix_duration":888.6641754300025,"trial":45,"RT":491,"MT":660,"sideResp":1,"stimulus":"img/500/equaldotanddens/L/4_Ratio_500_L_18_R_9.png","xmouse":[818,818,818,818,818,818,818,818,818,818,818,818,818,818,818,818,818,818,818,818,818,817,815,809,798,783,775,770,764,759,754,753,753,752,750,748,747,746,744,742,739,735,732,730,723,716,713,708,702,695,663,650,635,621,591,551,529,511],"ymouse":[530,530,530,530,530,530,530,530,530,530,530,530,530,530,530,530,530,530,530,530,530,525,516,493,455,403,377,357,336,321,299,287,276,269,260,249,247,244,239,236,231,220,214,205,191,179,174,169,163,158,139,131,123,114,98,78,68,61],"timestamp_mouse":[10,45,49,69,90,111,130,150,171,189,211,229,249,270,290,309,330,349,371,391,410,430,450,470,491,510,530,549,570,591,610,631,651,670,689,710,729,751,770,791,809,830,851,870,890,910,931,950,970,989,1011,1030,1050,1070,1090,1109,1130,1151],"xSR":741.5,"ySR":469.95,"xT1":424.9,"yT1":0,"xT2":1058.1,"yT2":0,"toosoon":0,"cond_shown":"equaldotanddens","ratio_trial":500,"smaller_num":"9","larger_num":"18","correct_side":1,"subjID":"Juanestebancruz","gender":"0","age":"9","school":"4"},{"start_time":1552309385561,"click_time":1552309386818,"finger_time":1552309386337,"fix_duration":1060.030320600502,"trial":46,"RT":776,"MT":481,"sideResp":2,"stimulus":"img/250/randomdotsizeEA/R/11_Ratio_250_L_3_R_12.png","xmouse":[820,820,820,820,820,820,820,820,820,820,820,820,820,820,820,820,820,820,820,820,820,820,820,820,820,820,820,820,821,821,821,821,821,821,821,821,821,827,846,884,1008,1096,1187,1273,1340,1393,1400,1401,1401,1401,1401,1399,1396,1387,1382,1354,1313,1277,1246,1214,1167,1160,1157],"ymouse":[521,521,521,521,521,521,521,521,521,521,521,521,521,521,521,521,521,521,521,521,521,521,521,521,521,521,521,521,521,515,510,506,505,505,505,505,505,501,494,484,448,417,378,330,286,238,226,218,218,217,215,204,195,182,171,149,126,109,94,80,59,57,55],"timestamp_mouse":[17,38,56,77,96,115,137,156,177,195,215,237,257,277,297,316,336,356,375,397,417,435,456,476,497,517,537,555,577,596,615,636,656,677,697,716,736,757,776,796,816,836,856,877,896,917,936,957,977,996,1017,1036,1056,1076,1096,1116,1135,1157,1176,1197,1216,1236,1256],"xSR":741.5,"ySR":469.95,"xT1":424.9,"yT1":0,"xT2":1058.1,"yT2":0,"toosoon":0,"cond_shown":"randomdotsizeEA","ratio_trial":250,"smaller_num":"3","larger_num":"12","correct_side":2,"subjID":"Juanestebancruz","gender":"0","age":"9","school":"4"},{"start_time":1552309388349,"click_time":1552309389697,"finger_time":1552309389036,"fix_duration":250,"trial":47,"RT":687,"MT":661,"sideResp":2,"stimulus":"img/500/randomdotsizeEA/R/12_Ratio_500_L_1_R_2.png","xmouse":[787,787,787,787,787,787,787,787,787,787,787,787,787,787,787,787,787,787,787,787,787,787,787,787,787,787,787,787,787,787,787,798,815,840,871,913,962,1038,1071,1080,1081,1081,1073,1067,1061,1056,1049,1044,1044,1044,1044,1044,1053,1061,1071,1087,1107,1162,1174,1180,1181,1181,1181,1181,1181,1180,1174,1125],"ymouse":[509,509,509,509,509,509,509,509,509,509,509,509,509,509,509,509,509,509,509,509,509,509,509,509,509,509,509,509,509,509,509,507,504,501,499,490,476,452,432,421,414,409,391,379,366,355,336,315,308,299,290,280,256,244,232,214,190,127,110,95,90,87,87,87,86,86,85,76],"timestamp_mouse":[13,28,47,69,88,109,129,148,167,192,208,228,247,268,288,308,328,349,369,387,409,429,449,469,487,509,529,549,568,589,609,629,649,668,687,708,728,748,768,787,808,828,848,869,889,909,929,948,969,988,1008,1028,1048,1068,1089,1108,1128,1148,1167,1188,1207,1229,1249,1268,1288,1308,1328,1348],"xSR":741.5,"ySR":469.95,"xT1":424.9,"yT1":0,"xT2":1058.1,"yT2":0,"toosoon":0,"cond_shown":"randomdotsizeEA","ratio_trial":500,"smaller_num":"1","larger_num":"2","correct_side":2,"subjID":"Juanestebancruz","gender":"0","age":"9","school":"4"},{"start_time":1552309393632,"click_time":1552309395097,"finger_time":1552309394517,"fix_duration":1434.5490165845163,"trial":48,"RT":885,"MT":580,"sideResp":2,"stimulus":"img/750/equaldotsize/L/13_Ratio_750_L_8_R_6.png","xmouse":[796,796,796,796,796,796,796,796,796,796,796,796,796,796,796,796,796,796,796,796,796,796,796,796,796,796,796,796,796,796,796,796,796,796,796,796,796,796,796,796,797,798,813,839,913,957,996,1034,1082,1098,1109,1117,1121,1127,1131,1137,1145,1152,1164,1171,1172,1175,1175,1175,1175,1175,1175,1175,1175,1174,1172,1169,1164,1154],"ymouse":[534,534,534,534,534,534,534,534,534,534,534,534,534,534,534,534,534,534,534,534,534,534,534,534,534,534,534,534,534,534,534,534,534,534,534,534,534,534,534,534,534,534,531,521,498,485,471,460,441,432,422,407,394,358,330,295,256,222,170,140,131,114,104,94,92,88,86,84,82,81,79,76,74,71],"timestamp_mouse":[9,34,46,66,84,106,126,146,165,186,206,224,245,265,285,304,325,345,364,386,406,424,445,466,484,506,525,544,564,586,606,625,645,665,686,704,726,746,764,786,805,825,846,865,885,904,925,944,965,985,1005,1025,1046,1066,1084,1105,1125,1145,1166,1184,1206,1225,1244,1265,1284,1305,1325,1346,1366,1384,1417,1425,1444,1465],"xSR":741.5,"ySR":469.95,"xT1":424.9,"yT1":0,"xT2":1058.1,"yT2":0,"toosoon":0,"cond_shown":"equaldotsize","ratio_trial":750,"smaller_num":"6","larger_num":"8","correct_side":1,"subjID":"Juanestebancruz","gender":"0","age":"9","school":"4"},{"start_time":1552309399370,"click_time":1552309400578,"finger_time":1552309400198,"fix_duration":451.14827943051836,"trial":49,"RT":828,"MT":380,"sideResp":1,"stimulus":"img/900/randomdotsizeEA/R/14_Ratio_900_L_18_R_20.png","xmouse":[746,746,746,746,746,746,746,746,746,746,746,746,746,746,746,746,746,746,746,746,746,746,746,746,746,746,746,746,746,746,746,746,746,746,746,746,748,752,755,757,761,761,758,755,752,746,736,689,644,600,560,526,504,501,500,499,498,497,495,490,482],"ymouse":[542,542,542,542,542,542,542,542,542,542,542,542,542,542,542,542,542,542,542,542,542,542,542,542,542,542,542,542,542,542,542,542,542,542,542,542,541,531,516,499,478,448,397,376,355,340,320,278,253,232,214,194,176,171,166,162,158,144,132,114,93],"timestamp_mouse":[15,27,48,67,88,108,128,147,168,187,208,227,247,266,288,307,327,347,366,388,407,427,446,468,487,506,526,548,568,587,607,627,648,666,686,708,728,747,768,786,808,828,847,868,886,906,927,947,966,987,1007,1027,1046,1068,1087,1106,1127,1146,1168,1187,1208],"xSR":741.5,"ySR":469.95,"xT1":424.9,"yT1":0,"xT2":1058.1,"yT2":0,"toosoon":0,"cond_shown":"randomdotsizeEA","ratio_trial":900,"smaller_num":"18","larger_num":"20","correct_side":2,"subjID":"Juanestebancruz","gender":"0","age":"9","school":"4"},{"start_time":1552309403248,"click_time":1552309404677,"finger_time":1552309404057,"fix_duration":1349.80650558359,"trial":50,"RT":809,"MT":620,"sideResp":2,"stimulus":"img/250/randomdotsizeEA/R/13_Ratio_250_L_2_R_8.png","xmouse":[751,751,751,751,751,751,751,751,751,751,751,751,751,751,751,751,751,751,751,751,751,751,751,751,751,751,751,751,751,751,751,751,751,751,751,751,751,751,769,804,849,895,942,997,1017,1036,1043,1049,1054,1059,1059,1063,1067,1073,1092,1104,1124,1140,1152,1159,1160,1160,1160,1160,1160,1160,1160,1160,1160,1160,1160,1153],"ymouse":[514,514,514,514,514,514,514,514,514,514,514,514,514,514,514,514,514,514,514,514,514,514,514,514,514,514,514,514,514,514,514,514,514,514,514,514,514,514,509,499,490,478,462,423,390,345,325,310,301,294,294,292,290,284,263,247,211,178,149,111,100,95,94,94,94,94,94,94,94,94,94,93],"timestamp_mouse":[13,35,49,69,90,108,130,149,169,188,208,228,249,270,289,310,330,350,369,389,409,430,450,469,489,510,529,550,569,589,608,630,649,669,689,709,730,750,769,790,809,830,849,870,889,909,929,948,970,990,1009,1030,1050,1070,1090,1108,1129,1149,1169,1188,1209,1230,1249,1270,1290,1309,1329,1349,1370,1389,1409,1429],"xSR":741.5,"ySR":469.95,"xT1":424.9,"yT1":0,"xT2":1058.1,"yT2":0,"toosoon":0,"cond_shown":"randomdotsizeEA","ratio_trial":250,"smaller_num":"2","larger_num":"8","correct_side":2,"subjID":"Juanestebancruz","gender":"0","age":"9","school":"4"},{"start_time":1552309406090,"click_time":1552309407518,"finger_time":1552309407097,"fix_duration":250,"trial":51,"RT":1007,"MT":421,"sideResp":1,"stimulus":"img/900/equaldotanddens/R/5_Ratio_900_L_9_R_10.png","xmouse":[776,776,776,776,776,776,776,776,776,776,776,776,776,776,776,776,776,776,776,776,776,776,776,776,776,776,776,776,776,776,776,776,776,776,776,776,776,776,776,776,776,776,776,776,776,776,776,777,779,784,786,787,779,774,769,765,762,752,745,736,725,712,699,691,686,677,670,634,599,561,530,512],"ymouse":[492,492,492,492,492,492,492,492,492,492,492,492,492,492,492,492,492,492,492,492,492,492,492,492,492,492,492,492,492,492,492,492,492,492,492,492,492,492,492,492,492,492,492,492,492,492,492,491,487,476,464,443,388,371,361,354,348,333,321,306,292,266,234,217,199,179,159,105,75,53,42,33],"timestamp_mouse":[12,27,46,68,86,108,126,147,167,188,207,226,247,267,288,306,328,347,367,386,408,428,448,466,486,506,527,546,568,588,607,628,647,668,687,707,728,748,768,787,807,828,848,868,888,908,928,948,968,987,1007,1026,1047,1067,1086,1108,1127,1148,1168,1187,1208,1228,1247,1267,1286,1307,1327,1346,1367,1388,1408,1428],"xSR":741.5,"ySR":469.95,"xT1":424.9,"yT1":0,"xT2":1058.1,"yT2":0,"toosoon":0,"cond_shown":"equaldotanddens","ratio_trial":900,"smaller_num":"9","larger_num":"10","correct_side":2,"subjID":"Juanestebancruz","gender":"0","age":"9","school":"4"},{"start_time":1552309411983,"click_time":1552309412716,"finger_time":1552309412597,"fix_duration":1384.4083282003262,"trial":52,"RT":614,"MT":119,"sideResp":2,"stimulus":"img/250/equaldotsize/R/6_Ratio_250_L_6_R_24.png","xmouse":[807,807,807,807,807,807,807,807,807,807,807,807,807,807,807,807,807,807,807,807,807,807,807,807,807,807,807,807,807,827,855,914,959,1027,1075,1097,1112],"ymouse":[504,504,504,504,504,504,504,504,504,504,504,504,504,504,504,504,504,504,504,504,504,504,504,504,504,504,504,504,504,497,486,445,393,244,140,113,98],"timestamp_mouse":[14,40,54,75,94,113,135,154,175,195,213,235,255,273,293,313,333,353,375,395,413,433,454,475,494,513,533,555,575,594,614,633,655,675,694,715,733],"xSR":741.5,"ySR":469.95,"xT1":424.9,"yT1":0,"xT2":1058.1,"yT2":0,"toosoon":0,"cond_shown":"equaldotsize","ratio_trial":250,"smaller_num":"6","larger_num":"24","correct_side":2,"subjID":"Juanestebancruz","gender":"0","age":"9","school":"4"},{"start_time":1552309414989,"click_time":1552309416338,"finger_time":1552309415817,"fix_duration":1189.3909610072267,"trial":53,"RT":828,"MT":521,"sideResp":2,"stimulus":"img/750/randomdotsizeEA/R/12_Ratio_750_L_3_R_4.png","xmouse":[786,786,786,786,786,786,786,786,786,786,786,786,786,786,786,786,786,786,786,786,786,786,786,786,786,786,786,786,786,785,785,785,785,785,785,785,785,786,807,820,832,842,851,868,871,874,877,883,898,909,923,936,979,1051,1087,1126,1156,1180,1202,1207,1209,1209,1196,1145,1135,1128,1121,1118],"ymouse":[507,507,507,507,507,507,507,507,507,507,507,507,507,507,507,507,507,507,507,507,507,507,507,507,507,507,507,507,507,507,507,507,507,507,507,507,507,506,496,494,492,491,489,487,487,486,486,486,486,485,482,476,459,436,425,411,399,384,355,337,314,289,248,147,125,109,100,96],"timestamp_mouse":[10,45,48,68,88,107,129,147,169,189,208,228,247,268,287,308,329,347,367,389,409,428,449,468,488,508,529,549,568,589,609,628,647,668,689,707,729,748,769,788,807,828,849,868,889,908,927,947,968,988,1007,1028,1048,1068,1088,1109,1129,1148,1168,1189,1207,1228,1248,1268,1288,1308,1328,1349],"xSR":741.5,"ySR":469.95,"xT1":424.9,"yT1":0,"xT2":1058.1,"yT2":0,"toosoon":0,"cond_shown":"randomdotsizeEA","ratio_trial":750,"smaller_num":"3","larger_num":"4","correct_side":2,"subjID":"Juanestebancruz","gender":"0","age":"9","school":"4"},{"start_time":1552309417767,"click_time":1552309418798,"finger_time":1552309418498,"fix_duration":408.20367103784673,"trial":54,"RT":731,"MT":300,"sideResp":1,"stimulus":"img/500/equaldotanddens/L/10_Ratio_500_L_4_R_2.png","xmouse":[805,805,805,805,805,805,805,805,805,805,805,805,805,805,805,805,805,805,805,805,805,805,805,805,805,805,805,805,805,805,805,805,805,805,796,772,736,687,628,530,506,489,483,477,476,476,476,476,476,476,477,485],"ymouse":[531,531,531,531,531,531,531,531,531,531,531,531,531,531,531,531,531,531,531,531,531,531,531,531,531,531,531,531,531,531,531,531,531,531,522,493,443,397,347,273,251,235,225,211,196,185,174,165,155,133,118,96],"timestamp_mouse":[10,39,49,69,91,111,131,150,169,190,211,231,250,270,289,310,329,349,369,391,410,431,449,470,490,511,530,550,569,589,611,630,651,670,689,711,731,750,771,790,810,831,850,871,890,910,930,951,971,990,1010,1031],"xSR":741.5,"ySR":469.95,"xT1":424.9,"yT1":0,"xT2":1058.1,"yT2":0,"toosoon":0,"cond_shown":"equaldotanddens","ratio_trial":500,"smaller_num":"2","larger_num":"4","correct_side":1,"subjID":"Juanestebancruz","gender":"0","age":"9","school":"4"},{"start_time":1552309420408,"click_time":1552309421418,"finger_time":1552309421078,"fix_duration":250,"trial":55,"RT":670,"MT":340,"sideResp":2,"stimulus":"img/250/equaldotanddens/R/6_Ratio_250_L_6_R_24.png","xmouse":[814,814,814,814,814,814,814,814,814,814,814,814,814,814,814,814,814,814,814,814,814,814,814,814,814,814,814,814,814,814,814,814,821,842,872,902,923,942,943,950,954,957,964,970,975,984,994,1020,1041,1056,1068],"ymouse":[540,540,540,540,540,540,540,540,540,540,540,540,540,540,540,540,540,540,540,540,540,540,540,540,540,540,540,540,540,540,540,540,531,507,474,431,372,255,224,202,197,194,187,177,167,152,134,92,69,59,55],"timestamp_mouse":[15,30,49,68,88,108,129,149,170,189,210,230,250,269,290,310,328,349,370,388,408,430,450,469,488,509,530,549,569,589,610,630,649,670,689,709,730,750,769,789,809,829,850,869,889,910,930,950,968,989,1010],"xSR":741.5,"ySR":469.95,"xT1":424.9,"yT1":0,"xT2":1058.1,"yT2":0,"toosoon":0,"cond_shown":"equaldotanddens","ratio_trial":250,"smaller_num":"6","larger_num":"24","correct_side":2,"subjID":"Juanestebancruz","gender":"0","age":"9","school":"4"},{"start_time":1552309428780,"click_time":1552309429897,"finger_time":1552309429438,"fix_duration":941.3123302763099,"trial":56,"RT":658,"MT":459,"sideResp":2,"stimulus":"img/250/equaldotsize/R/4_Ratio_250_L_3_R_12.png","xmouse":[797,797,797,797,797,797,797,797,797,797,797,797,797,797,797,797,797,797,797,797,795,790,787,783,775,775,775,775,775,775,777,804,844,875,977,1037,1135,1191,1227,1241,1250,1251,1252,1252,1252,1252,1249,1232,1217,1194,1185,1176,1165,1158,1132,1119],"ymouse":[538,538,538,538,538,538,538,538,538,538,538,538,538,538,538,538,538,538,538,538,532,525,519,517,509,509,509,509,509,509,507,489,465,450,407,379,324,279,246,225,202,198,197,197,197,195,187,166,152,140,134,128,123,119,103,96],"timestamp_mouse":[17,36,57,77,96,118,138,156,177,197,218,237,256,276,297,317,337,357,377,397,417,438,457,477,497,517,538,558,576,597,617,638,658,677,698,716,736,758,777,797,817,836,857,877,898,917,938,956,977,998,1017,1038,1058,1077,1098,1116],"xSR":741.5,"ySR":469.95,"xT1":424.9,"yT1":0,"xT2":1058.1,"yT2":0,"toosoon":0,"cond_shown":"equaldotsize","ratio_trial":250,"smaller_num":"3","larger_num":"12","correct_side":2,"subjID":"Juanestebancruz","gender":"0","age":"9","school":"4"},{"start_time":1552309432570,"click_time":1552309433376,"finger_time":1552309433036,"fix_duration":1492.3173554305004,"trial":57,"RT":466,"MT":340,"sideResp":2,"stimulus":"img/900/randomdotsizeEA/L/8_Ratio_900_L_20_R_18.png","xmouse":[787,787,787,787,787,787,787,787,787,787,787,787,787,787,787,787,787,787,787,787,787,804,832,871,906,932,965,976,985,993,999,1012,1018,1027,1035,1046,1077,1089,1104,1121,1136],"ymouse":[536,536,536,536,536,536,536,536,536,536,536,536,536,536,536,536,536,536,536,536,534,524,515,502,488,473,452,443,434,424,410,381,366,351,335,314,247,208,173,133,88],"timestamp_mouse":[9,42,47,66,88,108,127,147,166,187,208,228,247,267,288,307,327,348,366,386,407,428,448,466,486,507,527,547,566,587,608,628,647,667,686,708,727,748,768,786,806],"xSR":741.5,"ySR":469.95,"xT1":424.9,"yT1":0,"xT2":1058.1,"yT2":0,"toosoon":0,"cond_shown":"randomdotsizeEA","ratio_trial":900,"smaller_num":"18","larger_num":"20","correct_side":1,"subjID":"Juanestebancruz","gender":"0","age":"9","school":"4"},{"start_time":1552309436995,"click_time":1552309438357,"finger_time":1552309437397,"fix_duration":475.7634776810987,"trial":58,"RT":402,"MT":960,"sideResp":2,"stimulus":"img/500/equaldotsize/R/2_Ratio_500_L_3_R_6.png","xmouse":[827,827,827,827,827,827,827,827,827,827,827,827,827,827,827,827,827,827,827,834,845,847,848,849,849,849,849,849,849,849,849,849,849,849,849,849,852,877,915,961,1038,1060,1085,1092,1113,1154,1181,1195,1204,1208,1210,1210,1210,1210,1210,1210,1210,1209,1207,1204,1198,1197,1197,1197,1197,1191,1182,1168,1154],"ymouse":[515,515,515,515,514,512,512,512,512,512,512,512,512,512,512,512,512,512,512,502,484,479,476,474,474,474,474,474,474,474,474,474,474,474,474,474,474,465,446,418,356,334,304,294,263,199,160,135,119,109,98,97,97,97,97,96,96,96,96,96,96,96,96,96,96,91,83,73,65],"timestamp_mouse":[17,30,47,61,81,102,123,142,162,183,202,221,241,263,282,302,321,342,363,383,402,423,443,461,482,502,522,542,562,582,602,621,642,662,682,703,722,743,761,782,803,821,842,863,883,902,922,942,963,982,1003,1021,1043,1062,1082,1101,1121,1142,1162,1181,1202,1221,1243,1263,1283,1303,1322,1343,1361],"xSR":741.5,"ySR":469.95,"xT1":424.9,"yT1":0,"xT2":1058.1,"yT2":0,"toosoon":0,"cond_shown":"equaldotsize","ratio_trial":500,"smaller_num":"3","larger_num":"6","correct_side":2,"subjID":"Juanestebancruz","gender":"0","age":"9","school":"4"},{"start_time":1552309440073,"click_time":1552309441557,"finger_time":1552309440656,"fix_duration":394.51584788957217,"trial":59,"RT":583,"MT":901,"sideResp":2,"stimulus":"img/750/equaldotsize/R/12_Ratio_750_L_3_R_4.png","xmouse":[812,812,812,812,812,812,812,812,812,812,812,812,812,812,812,812,812,812,812,812,812,812,812,812,812,812,812,819,827,834,839,848,869,886,905,917,920,920,920,920,920,920,920,920,920,920,920,920,920,917,909,887,879,876,875,875,875,875,875,881,888,901,938,960,984,1016,1067,1093,1103,1112,1119,1127,1144,1150,1152],"ymouse":[485,485,485,485,485,485,485,485,485,485,485,485,485,485,485,485,485,485,485,485,485,485,485,485,485,485,485,479,473,468,464,457,443,432,423,420,418,418,418,418,418,418,418,418,418,418,418,418,418,418,418,422,423,423,423,423,423,423,417,403,387,366,318,292,267,239,201,182,173,163,151,138,115,105,97],"timestamp_mouse":[11,43,43,63,84,103,124,143,164,184,205,224,245,265,283,305,325,343,363,384,404,425,444,464,485,504,523,545,565,583,603,623,644,664,684,703,723,744,764,784,804,825,843,864,883,904,924,944,965,984,1004,1025,1044,1065,1084,1103,1124,1145,1164,1185,1205,1224,1244,1264,1284,1304,1326,1344,1364,1384,1403,1424,1443,1465,1484],"xSR":741.5,"ySR":469.95,"xT1":424.9,"yT1":0,"xT2":1058.1,"yT2":0,"toosoon":0,"cond_shown":"equaldotsize","ratio_trial":750,"smaller_num":"3","larger_num":"4","correct_side":2,"subjID":"Juanestebancruz","gender":"0","age":"9","school":"4"},{"start_time":1552309443036,"click_time":1552309444497,"finger_time":1552309444017,"fix_duration":517.7856606114814,"trial":60,"RT":981,"MT":480,"sideResp":1,"stimulus":"img/900/randomdotsizeEA/L/10_Ratio_900_L_20_R_18.png","xmouse":[791,791,791,791,791,791,791,791,791,791,791,791,791,791,791,791,791,791,791,791,791,791,791,791,791,791,791,791,791,791,791,791,791,791,791,791,791,791,791,791,791,791,791,791,791,790,790,790,789,789,788,779,768,756,748,733,724,711,695,682,673,662,655,649,634,629,623,616,612,596,581,563,539,513],"ymouse":[518,518,518,518,518,518,518,518,518,518,518,518,518,518,518,518,518,518,518,518,518,518,518,518,518,518,518,518,518,518,518,518,518,518,518,518,518,518,518,518,518,518,518,518,518,518,518,512,483,430,395,366,344,329,320,304,291,274,247,211,189,172,154,141,121,118,115,110,105,84,74,65,56,48],"timestamp_mouse":[10,21,41,62,81,102,121,141,162,180,201,222,240,262,282,301,321,340,361,382,401,422,441,460,482,501,520,542,560,580,601,621,642,661,682,701,720,741,762,781,802,821,842,861,880,901,920,941,962,981,1002,1021,1042,1062,1080,1101,1121,1141,1161,1181,1200,1222,1241,1262,1281,1300,1320,1340,1361,1381,1401,1421,1442,1461],"xSR":741.5,"ySR":469.95,"xT1":424.9,"yT1":0,"xT2":1058.1,"yT2":0,"toosoon":0,"cond_shown":"randomdotsizeEA","ratio_trial":900,"smaller_num":"18","larger_num":"20","correct_side":1,"subjID":"Juanestebancruz","gender":"0","age":"9","school":"4"},{"start_time":1552309447310,"click_time":1552309449218,"finger_time":1552309447998,"fix_duration":250,"trial":61,"RT":688,"MT":1220,"sideResp":1,"stimulus":"img/750/randomdotsizeEA/L/8_Ratio_750_L_4_R_3.png","xmouse":[814,814,814,814,814,814,814,814,814,814,814,814,814,814,814,814,814,814,814,814,814,814,814,814,814,814,814,814,814,814,814,814,814,814,816,819,825,825,825,819,793,767,717,675,642,624,618,617,615,610,601,566,554,546,541,537,531,527,520,508,467,437,427,424,420,414,410,407,403,399,395,387,385,385,385,386,387,387,387,387,387,387,388,388,390,392,394,394,394,394,398,406,411,415,417,426],"ymouse":[483,483,483,483,483,483,483,483,483,483,483,483,483,483,483,483,483,483,483,483,483,483,483,483,483,483,483,483,483,483,483,483,483,479,469,455,424,406,388,372,342,331,321,314,311,307,306,302,293,276,257,206,191,178,167,159,148,144,138,132,123,118,116,114,110,100,96,94,92,89,85,79,78,77,76,74,73,73,73,73,73,73,73,74,78,85,89,91,91,91,90,85,82,81,81,81],"timestamp_mouse":[9,27,47,67,87,108,127,147,167,188,206,228,248,267,288,307,327,347,368,387,407,427,448,468,487,506,527,548,568,588,608,627,648,667,688,706,727,746,767,786,808,827,847,867,887,908,939,948,967,987,1008,1026,1047,1066,1087,1108,1127,1147,1168,1188,1208,1226,1247,1267,1287,1308,1326,1347,1367,1387,1407,1427,1448,1467,1486,1508,1526,1546,1567,1587,1607,1628,1647,1668,1688,1707,1727,1746,1767,1786,1809,1826,1847,1868,1886,1908],"xSR":741.5,"ySR":469.95,"xT1":424.9,"yT1":0,"xT2":1058.1,"yT2":0,"toosoon":0,"cond_shown":"randomdotsizeEA","ratio_trial":750,"smaller_num":"3","larger_num":"4","correct_side":1,"subjID":"Juanestebancruz","gender":"0","age":"9","school":"4"},{"start_time":1552309465423,"click_time":1552309466476,"finger_time":1552309466077,"fix_duration":1045.6379227203481,"trial":62,"RT":654,"MT":399,"sideResp":1,"stimulus":"img/750/equaldotanddens/L/13_Ratio_750_L_8_R_6.png","xmouse":[797,797,797,797,797,797,797,797,797,797,797,797,797,797,797,797,797,797,797,797,797,797,797,797,797,797,797,797,797,797,796,782,772,761,751,738,724,698,684,676,663,626,606,585,566,546,525,493,469,459,450,445,437],"ymouse":[525,525,525,525,525,525,525,525,525,525,525,525,525,525,525,525,525,525,525,525,525,525,525,525,525,525,525,525,525,519,509,472,452,433,417,398,378,341,322,311,298,275,263,252,240,229,217,193,170,155,137,116,73],"timestamp_mouse":[14,36,55,75,93,115,133,154,174,195,215,235,255,274,294,314,335,355,374,393,415,434,453,473,495,515,535,555,574,594,614,634,654,674,695,715,735,755,773,793,814,835,854,874,894,914,935,953,973,993,1013,1033,1053],"xSR":741.5,"ySR":469.95,"xT1":424.9,"yT1":0,"xT2":1058.1,"yT2":0,"toosoon":0,"cond_shown":"equaldotanddens","ratio_trial":750,"smaller_num":"6","larger_num":"8","correct_side":1,"subjID":"Juanestebancruz","gender":"0","age":"9","school":"4"},{"start_time":1552309469805,"click_time":1552309470757,"finger_time":1552309470497,"fix_duration":525.6304932340742,"trial":63,"RT":692,"MT":260,"sideResp":2,"stimulus":"img/500/randomdotsizeEA/R/12_Ratio_500_L_1_R_2.png","xmouse":[775,775,775,775,775,775,775,775,775,775,775,775,775,775,775,775,775,775,775,775,775,775,775,775,775,775,775,775,775,775,775,775,775,808,894,984,1053,1070,1094,1099,1099,1099,1099,1104,1107,1107,1103,1092],"ymouse":[553,553,553,553,553,553,553,553,553,553,553,553,553,553,553,553,553,553,553,553,553,553,553,553,553,553,553,553,553,553,553,553,553,541,505,458,401,370,307,275,251,229,209,174,150,142,110,88],"timestamp_mouse":[12,38,52,71,93,113,132,151,173,193,211,232,252,273,292,312,332,352,373,391,411,433,452,473,493,512,533,551,571,592,613,631,652,671,692,713,733,753,772,792,811,832,852,872,892,911,931,952],"xSR":741.5,"ySR":469.95,"xT1":424.9,"yT1":0,"xT2":1058.1,"yT2":0,"toosoon":0,"cond_shown":"randomdotsizeEA","ratio_trial":500,"smaller_num":"1","larger_num":"2","correct_side":2,"subjID":"Juanestebancruz","gender":"0","age":"9","school":"4"},{"start_time":1552309472911,"click_time":1552309474178,"finger_time":1552309473736,"fix_duration":250,"trial":64,"RT":825,"MT":442,"sideResp":2,"stimulus":"img/500/randomdotsizeEA/R/2_Ratio_500_L_3_R_6.png","xmouse":[777,777,777,777,777,777,777,777,777,777,777,777,777,777,777,777,777,777,777,777,777,777,777,777,777,777