[{"start_time":1552069371161,"click_time":1552069371709,"finger_time":1552069371172,"fix_duration":387.1090129917566,"trial":0,"RT":11,"MT":537,"sideResp":2,"stimulus":"img/250/equaldotsize/R/6_Ratio_250_L_6_R_24.png","xmouse":[814,814,814,814,814,814,814,814,814,814,814,814,814,814,818,830,872,984,1024,1063,1078,1080,1081,1081,1081,1081,1087,1096],"ymouse":[559,559,559,559,559,559,559,559,559,559,559,559,559,559,557,547,507,293,223,147,112,107,105,105,105,105,102,89],"timestamp_mouse":[11,28,49,68,87,108,128,148,168,188,208,228,247,267,289,308,329,347,368,387,408,427,447,468,487,507,528,547],"xSR":741.5,"ySR":501.8,"xT1":424.9,"yT1":0,"xT2":1058.1,"yT2":0,"toosoon":0,"cond_shown":"equaldotsize","ratio_trial":250,"smaller_num":"6","larger_num":"24","correct_side":2,"subjID":"JuanEstebanGuzmanAcosta10","gender":"0","age":"9","school":"4","test":{"fix_dur":[250,1500],"timestim":300,"targets_dim":[100,100],"targets_relative_coord":[0.3,0.7],"size_stim":[880,420],"start_dim":[100,100],"size_start":[300,300],"size_fix":60,"samplingrate":20,"img_types":["equaldotsize","equaldotanddens","randomdotsizeEA"],"ratios":[250,500,750,900],"rep_conds":9,"nTrials":120,"trials_to_rest":500,"Trials_order":[84,39,100,18,15,75,9,61,67,91,73,106,37,10,72,113,64,62,3,55,43,19,11,65,13,66,20,45,30,57,58,118,16,115,78,81,40,76,117,63,50,44,60,35,7,82,26,96,6,42,56,59,89,108,0,54,36,105,31,98,101,74,48,109,34,83,107,23,46,94,112,79,5,114,4,70,71,99,110,111,93,97,51,12,8,77,28,102,1,2,86,52,104,87,14,85,33,116,90,119,69,22,17,49,92,41,29,38,32,53,27,103,68,88,25,80,95,47,21,24],"cond_shown":["equaldotsize","equaldotsize","equaldotanddens","equaldotsize","equaldotsize","equaldotsize","equaldotsize","equaldotanddens","equaldotanddens","equaldotanddens","equaldotanddens","equaldotanddens","equaldotanddens","equaldotanddens","equaldotsize","randomdotsizeEA","equaldotanddens","randomdotsizeEA","equaldotsize","equaldotanddens","equaldotanddens","equaldotanddens","randomdotsizeEA","randomdotsizeEA","equaldotanddens","equaldotsize","randomdotsizeEA","equaldotsize","equaldotsize","equaldotsize","equaldotanddens","equaldotanddens","equaldotanddens","equaldotanddens","equaldotsize","equaldotsize","equaldotanddens","equaldotanddens","equaldotsize","equaldotsize","randomdotsizeEA","randomdotsizeEA","equaldotsize","randomdotsizeEA","equaldotanddens","equaldotanddens","randomdotsizeEA","equaldotsize","equaldotsize","equaldotsize","randomdotsizeEA","randomdotsizeEA","randomdotsizeEA","equaldotsize","equaldotsize","equaldotsize","equaldotsize","equaldotsize","equaldotanddens","randomdotsizeEA","randomdotsizeEA","randomdotsizeEA","equaldotsize","equaldotanddens","equaldotanddens","randomdotsizeEA","randomdotsizeEA","randomdotsizeEA","equaldotanddens","equaldotanddens","equaldotanddens","equaldotanddens","randomdotsizeEA","equaldotsize","equaldotanddens","equaldotanddens","randomdotsizeEA","equaldotsize","randomdotsizeEA","equaldotsize","equaldotsize","equaldotanddens","equaldotsize","equaldotsize","randomdotsizeEA","randomdotsizeEA","equaldotanddens","equaldotsize","equaldotanddens","randomdotsizeEA","randomdotsizeEA","equaldotanddens","randomdotsizeEA","equaldotsize","randomdotsizeEA","equaldotanddens","equaldotsize","randomdotsizeEA","equaldotsize","randomdotsizeEA","equaldotsize","equaldotanddens","randomdotsizeEA","equaldotanddens","randomdotsizeEA","randomdotsizeEA","randomdotsizeEA","randomdotsizeEA","randomdotsizeEA","randomdotsizeEA","equaldotsize","equaldotanddens","randomdotsizeEA","equaldotanddens","equaldotanddens","randomdotsizeEA","randomdotsizeEA","randomdotsizeEA","equaldotsize","equaldotsize"],"ratio_trial":[250,500,500,750,500,500,900,250,750,750,250,900,250,900,250,500,500,250,500,750,750,750,900,500,250,750,750,900,750,900,900,900,500,750,750,900,500,500,900,500,250,750,250,900,750,900,250,250,750,750,750,900,500,250,250,750,250,900,750,250,500,250,250,250,900,900,900,900,900,900,500,750,500,750,500,900,900,500,250,500,900,250,500,250,750,500,500,750,250,250,250,500,750,500,250,250,900,750,750,900,900,900,500,250,750,500,500,250,750,500,500,750,750,500,250,750,900,900,900,250],"smaller_num":["6","6","5","6","5","3","18","3","18","15","3","18","6","9","2","1","2","1","5","3","15","6","18","2","3","3","15","18","3","18","18","18","2","3","3","18","5","6","9","1","3","3","2","18","18","18","6","3","18","3","15","9","2","6","3","6","2","18","6","3","6","5","3","3","18","9","18","18","18","18","5","15","5","18","2","18","18","6","3","9","18","6","5","3","3","5","2","15","2","5","6","2","6","5","1","2","9","3","12","9","9","18","4","4","6","2","9","3","12","1","9","6","6","9","3","3","18","18","18","2"],"larger_num":["24","12","10","8","10","6","20","12","24","20","12","20","24","10","8","2","4","4","10","4","20","8","20","4","12","4","20","20","4","20","20","20","4","4","4","20","10","12","10","2","12","4","8","20","24","20","24","12","24","4","20","10","4","24","12","8","8","20","8","12","12","20","12","12","20","10","20","20","20","20","10","20","10","24","4","20","20","12","12","18","20","24","10","12","4","10","4","20","8","20","24","4","8","10","4","8","10","4","16","10","10","20","8","16","8","4","18","12","16","2","18","8","8","18","12","4","20","20","20","8"],"correct_side":[2,1,2,1,1,2,1,1,1,2,1,1,1,2,1,2,2,2,2,2,2,2,1,1,2,1,2,1,1,1,2,1,2,2,1,2,2,1,1,2,2,1,1,2,1,1,1,2,1,1,2,2,1,1,2,1,1,1,1,2,1,2,2,2,1,2,1,1,1,2,1,2,1,1,1,1,1,1,2,1,1,1,2,2,1,2,2,1,2,2,1,1,1,2,2,1,2,2,2,2,2,1,1,1,1,2,2,2,2,2,2,2,2,1,2,1,2,1,2,1],"img_shown":["img/250/equaldotsize/R/6_Ratio_250_L_6_R_24.png","img/500/equaldotsize/L/11_Ratio_500_L_12_R_6.png","img/500/equaldotanddens/R/14_Ratio_500_L_5_R_10.png","img/750/equaldotsize/L/14_Ratio_750_L_8_R_6.png","img/500/equaldotsize/L/7_Ratio_500_L_10_R_5.png","img/500/equaldotsize/R/2_Ratio_500_L_3_R_6.png","img/900/equaldotsize/L/10_Ratio_900_L_20_R_18.png","img/250/equaldotanddens/L/15_Ratio_250_L_12_R_3.png","img/750/equaldotanddens/L/6_Ratio_750_L_24_R_18.png","img/750/equaldotanddens/R/4_Ratio_750_L_15_R_20.png","img/250/equaldotanddens/L/14_Ratio_250_L_12_R_3.png","img/900/equaldotanddens/L/8_Ratio_900_L_20_R_18.png","img/250/equaldotanddens/L/5_Ratio_250_L_24_R_6.png","img/900/equaldotanddens/R/5_Ratio_900_L_9_R_10.png","img/250/equaldotsize/L/7_Ratio_250_L_8_R_2.png","img/500/randomdotsizeEA/R/12_Ratio_500_L_1_R_2.png","img/500/equaldotanddens/R/9_Ratio_500_L_2_R_4.png","img/250/randomdotsizeEA/R/8_Ratio_250_L_1_R_4.png","img/500/equaldotsize/R/14_Ratio_500_L_5_R_10.png","img/750/equaldotanddens/R/12_Ratio_750_L_3_R_4.png","img/750/equaldotanddens/R/4_Ratio_750_L_15_R_20.png","img/750/equaldotanddens/R/2_Ratio_750_L_6_R_8.png","img/900/randomdotsizeEA/L/8_Ratio_900_L_20_R_18.png","img/500/randomdotsizeEA/L/10_Ratio_500_L_4_R_2.png","img/250/equaldotanddens/R/11_Ratio_250_L_3_R_12.png","img/750/equaldotsize/L/8_Ratio_750_L_4_R_3.png","img/750/randomdotsizeEA/R/5_Ratio_750_L_15_R_20.png","img/900/equaldotsize/L/8_Ratio_900_L_20_R_18.png","img/750/equaldotsize/L/8_Ratio_750_L_4_R_3.png","img/900/equaldotsize/L/8_Ratio_900_L_20_R_18.png","img/900/equaldotanddens/R/12_Ratio_900_L_18_R_20.png","img/900/equaldotanddens/L/2_Ratio_900_L_20_R_18.png","img/500/equaldotanddens/R/9_Ratio_500_L_2_R_4.png","img/750/equaldotanddens/R/12_Ratio_750_L_3_R_4.png","img/750/equaldotsize/L/9_Ratio_750_L_4_R_3.png","img/900/equaldotsize/R/9_Ratio_900_L_18_R_20.png","img/500/equaldotanddens/R/14_Ratio_500_L_5_R_10.png","img/500/equaldotanddens/L/11_Ratio_500_L_12_R_6.png","img/900/equaldotsize/L/1_Ratio_900_L_10_R_9.png","img/500/equaldotsize/R/15_Ratio_500_L_1_R_2.png","img/250/randomdotsizeEA/R/11_Ratio_250_L_3_R_12.png","img/750/randomdotsizeEA/L/8_Ratio_750_L_4_R_3.png","img/250/equaldotsize/L/7_Ratio_250_L_8_R_2.png","img/900/randomdotsizeEA/R/11_Ratio_900_L_18_R_20.png","img/750/equaldotanddens/L/6_Ratio_750_L_24_R_18.png","img/900/equaldotanddens/L/10_Ratio_900_L_20_R_18.png","img/250/randomdotsizeEA/L/5_Ratio_250_L_24_R_6.png","img/250/equaldotsize/R/9_Ratio_250_L_3_R_12.png","img/750/equaldotsize/L/6_Ratio_750_L_24_R_18.png","img/750/equaldotsize/L/8_Ratio_750_L_4_R_3.png","img/750/randomdotsizeEA/R/4_Ratio_750_L_15_R_20.png","img/900/randomdotsizeEA/R/3_Ratio_900_L_9_R_10.png","img/500/randomdotsizeEA/L/10_Ratio_500_L_4_R_2.png","img/250/equaldotsize/L/5_Ratio_250_L_24_R_6.png","img/250/equaldotsize/R/11_Ratio_250_L_3_R_12.png","img/750/equaldotsize/L/13_Ratio_750_L_8_R_6.png","img/250/equaldotsize/L/3_Ratio_250_L_8_R_2.png","img/900/equaldotsize/L/2_Ratio_900_L_20_R_18.png","img/750/equaldotanddens/L/13_Ratio_750_L_8_R_6.png","img/250/randomdotsizeEA/R/4_Ratio_250_L_3_R_12.png","img/500/randomdotsizeEA/L/13_Ratio_500_L_12_R_6.png","img/250/randomdotsizeEA/R/12_Ratio_250_L_5_R_20.png","img/250/equaldotsize/R/11_Ratio_250_L_3_R_12.png","img/250/equaldotanddens/R/11_Ratio_250_L_3_R_12.png","img/900/equaldotanddens/L/4_Ratio_900_L_20_R_18.png","img/900/randomdotsizeEA/R/15_Ratio_900_L_9_R_10.png","img/900/randomdotsizeEA/L/2_Ratio_900_L_20_R_18.png","img/900/randomdotsizeEA/L/10_Ratio_900_L_20_R_18.png","img/900/equaldotanddens/L/8_Ratio_900_L_20_R_18.png","img/900/equaldotanddens/R/13_Ratio_900_L_18_R_20.png","img/500/equaldotanddens/L/7_Ratio_500_L_10_R_5.png","img/750/equaldotanddens/R/5_Ratio_750_L_15_R_20.png","img/500/randomdotsizeEA/L/7_Ratio_500_L_10_R_5.png","img/750/equaldotsize/L/6_Ratio_750_L_24_R_18.png","img/500/equaldotanddens/L/10_Ratio_500_L_4_R_2.png","img/900/equaldotanddens/L/2_Ratio_900_L_20_R_18.png","img/900/randomdotsizeEA/L/4_Ratio_900_L_20_R_18.png","img/500/equaldotsize/L/13_Ratio_500_L_12_R_6.png","img/250/randomdotsizeEA/R/11_Ratio_250_L_3_R_12.png","img/500/equaldotsize/L/4_Ratio_500_L_18_R_9.png","img/900/equaldotsize/L/10_Ratio_900_L_20_R_18.png","img/250/equaldotanddens/L/5_Ratio_250_L_24_R_6.png","img/500/equaldotsize/R/14_Ratio_500_L_5_R_10.png","img/250/equaldotsize/R/9_Ratio_250_L_3_R_12.png","img/750/randomdotsizeEA/L/10_Ratio_750_L_4_R_3.png","img/500/randomdotsizeEA/R/14_Ratio_500_L_5_R_10.png","img/500/equaldotanddens/R/9_Ratio_500_L_2_R_4.png","img/750/equaldotsize/L/1_Ratio_750_L_20_R_15.png","img/250/equaldotanddens/R/13_Ratio_250_L_2_R_8.png","img/250/randomdotsizeEA/R/12_Ratio_250_L_5_R_20.png","img/250/randomdotsizeEA/L/5_Ratio_250_L_24_R_6.png","img/500/equaldotanddens/L/10_Ratio_500_L_4_R_2.png","img/750/randomdotsizeEA/L/14_Ratio_750_L_8_R_6.png","img/500/equaldotsize/R/14_Ratio_500_L_5_R_10.png","img/250/randomdotsizeEA/R/8_Ratio_250_L_1_R_4.png","img/250/equaldotanddens/L/7_Ratio_250_L_8_R_2.png","img/900/equaldotsize/R/3_Ratio_900_L_9_R_10.png","img/750/randomdotsizeEA/R/12_Ratio_750_L_3_R_4.png","img/750/equaldotsize/R/11_Ratio_750_L_12_R_16.png","img/900/randomdotsizeEA/R/6_Ratio_900_L_9_R_10.png","img/900/equaldotsize/R/3_Ratio_900_L_9_R_10.png","img/900/equaldotanddens/L/10_Ratio_900_L_20_R_18.png","img/500/randomdotsizeEA/L/8_Ratio_500_L_8_R_4.png","img/250/equaldotanddens/L/2_Ratio_250_L_16_R_4.png","img/750/randomdotsizeEA/L/13_Ratio_750_L_8_R_6.png","img/500/randomdotsizeEA/R/9_Ratio_500_L_2_R_4.png","img/500/randomdotsizeEA/R/6_Ratio_500_L_9_R_18.png","img/250/randomdotsizeEA/R/4_Ratio_250_L_3_R_12.png","img/750/randomdotsizeEA/R/11_Ratio_750_L_12_R_16.png","img/500/randomdotsizeEA/R/12_Ratio_500_L_1_R_2.png","img/500/equaldotsize/R/1_Ratio_500_L_9_R_18.png","img/750/equaldotanddens/R/2_Ratio_750_L_6_R_8.png","img/750/randomdotsizeEA/R/2_Ratio_750_L_6_R_8.png","img/500/equaldotanddens/L/4_Ratio_500_L_18_R_9.png","img/250/equaldotanddens/R/11_Ratio_250_L_3_R_12.png","img/750/randomdotsizeEA/L/10_Ratio_750_L_4_R_3.png","img/900/randomdotsizeEA/R/13_Ratio_900_L_18_R_20.png","img/900/randomdotsizeEA/L/4_Ratio_900_L_20_R_18.png","img/900/equaldotsize/R/14_Ratio_900_L_18_R_20.png","img/250/equaldotsize/L/3_Ratio_250_L_8_R_2.png"],"Rat0":[["12_Ratio_0_L_9_R_0.png","13_Ratio_0_L_6_R_0.png","5_Ratio_0_L_2_R_0.png","6_Ratio_0_L_4_R_0.png","8_Ratio_0_L_6_R_0.png"],["1_Ratio_0_L_0_R_17.png","10_Ratio_0_L_0_R_22.png","11_Ratio_0_L_0_R_1.png","14_Ratio_0_L_0_R_24.png","15_Ratio_0_L_0_R_4.png","2_Ratio_0_L_0_R_5.png","3_Ratio_0_L_0_R_17.png","4_Ratio_0_L_0_R_7.png","7_Ratio_0_L_0_R_19.png","9_Ratio_0_L_0_R_15.png"]],"Rat250":[["1_Ratio_250_L_8_R_2.png","14_Ratio_250_L_12_R_3.png","15_Ratio_250_L_12_R_3.png","2_Ratio_250_L_16_R_4.png","3_Ratio_250_L_8_R_2.png","5_Ratio_250_L_24_R_6.png","7_Ratio_250_L_8_R_2.png"],["10_Ratio_250_L_4_R_16.png","11_Ratio_250_L_3_R_12.png","12_Ratio_250_L_5_R_20.png","13_Ratio_250_L_2_R_8.png","4_Ratio_250_L_3_R_12.png","6_Ratio_250_L_6_R_24.png","8_Ratio_250_L_1_R_4.png","9_Ratio_250_L_3_R_12.png"]],"Rat500":[["10_Ratio_500_L_4_R_2.png","11_Ratio_500_L_12_R_6.png","13_Ratio_500_L_12_R_6.png","4_Ratio_500_L_18_R_9.png","5_Ratio_500_L_4_R_2.png","7_Ratio_500_L_10_R_5.png","8_Ratio_500_L_8_R_4.png"],["1_Ratio_500_L_9_R_18.png","12_Ratio_500_L_1_R_2.png","14_Ratio_500_L_5_R_10.png","15_Ratio_500_L_1_R_2.png","2_Ratio_500_L_3_R_6.png","3_Ratio_500_L_10_R_20.png","6_Ratio_500_L_9_R_18.png","9_Ratio_500_L_2_R_4.png"]],"Rat750":[["1_Ratio_750_L_20_R_15.png","10_Ratio_750_L_4_R_3.png","13_Ratio_750_L_8_R_6.png","14_Ratio_750_L_8_R_6.png","6_Ratio_750_L_24_R_18.png","8_Ratio_750_L_4_R_3.png","9_Ratio_750_L_4_R_3.png"],["11_Ratio_750_L_12_R_16.png","12_Ratio_750_L_3_R_4.png","15_Ratio_750_L_9_R_12.png","2_Ratio_750_L_6_R_8.png","3_Ratio_750_L_15_R_20.png","4_Ratio_750_L_15_R_20.png","5_Ratio_750_L_15_R_20.png","7_Ratio_750_L_3_R_4.png"]],"Rat900":[["1_Ratio_900_L_10_R_9.png","10_Ratio_900_L_20_R_18.png","2_Ratio_900_L_20_R_18.png","4_Ratio_900_L_20_R_18.png","8_Ratio_900_L_20_R_18.png"],["11_Ratio_900_L_18_R_20.png","12_Ratio_900_L_18_R_20.png","13_Ratio_900_L_18_R_20.png","14_Ratio_900_L_18_R_20.png","15_Ratio_900_L_9_R_10.png","3_Ratio_900_L_9_R_10.png","5_Ratio_900_L_9_R_10.png","6_Ratio_900_L_9_R_10.png","7_Ratio_900_L_9_R_10.png","9_Ratio_900_L_18_R_20.png"]],"Rat1000":[["10_Ratio_1000_L_16_R_16.png","11_Ratio_1000_L_6_R_6.png","12_Ratio_1000_L_14_R_14.png","13_Ratio_1000_L_20_R_20.png","15_Ratio_1000_L_15_R_15.png","2_Ratio_1000_L_17_R_17.png","4_Ratio_1000_L_9_R_9.png","5_Ratio_1000_L_6_R_6.png","6_Ratio_1000_L_19_R_19.png","8_Ratio_1000_L_14_R_14.png","9_Ratio_1000_L_25_R_25.png"],["1_Ratio_1000_L_1_R_1.png","14_Ratio_1000_L_17_R_17.png","3_Ratio_1000_L_17_R_17.png","7_Ratio_1000_L_6_R_6.png"]]}},{"start_time":1552069378483,"click_time":1552069380289,"finger_time":1552069379908,"fix_duration":1253.0564613925878,"trial":1,"RT":1425,"MT":381,"sideResp":1,"stimulus":"img/500/equaldotsize/L/11_Ratio_500_L_12_R_6.png","xmouse":[831,831,831,831,831,831,831,831,831,831,831,831,831,831,831,831,831,831,831,831,831,831,831,831,831,831,831,831,831,831,831,831,831,831,831,831,831,831,831,831,831,831,831,831,831,831,831,831,831,831,831,831,831,831,831,831,831,831,831,831,831,831,831,831,827,819,797,785,779,773,768,743,729,713,690,664,617,603,591,577,562,540,531,524,515,509,488,482,474,468],"ymouse":[637,637,637,637,637,637,637,637,637,637,637,637,637,637,637,637,637,637,637,637,637,637,637,637,637,637,637,637,637,637,637,637,637,637,637,637,637,637,637,637,637,637,637,637,637,637,637,637,637,637,637,637,637,637,637,637,637,637,637,637,637,637,637,637,636,628,606,591,581,574,564,533,511,488,458,421,350,324,304,280,264,243,232,221,209,197,153,131,111,96],"timestamp_mouse":[12,28,68,86,105,125,147,166,187,206,226,247,267,286,305,326,346,365,385,405,426,445,467,486,506,526,545,567,585,605,626,645,665,686,705,727,745,765,785,805,825,846,867,885,905,925,945,965,987,1005,1027,1046,1066,1085,1106,1127,1146,1165,1186,1207,1225,1245,1267,1287,1305,1326,1345,1365,1387,1405,1425,1445,1465,1485,1505,1526,1545,1566,1586,1606,1626,1646,1666,1686,1705,1726,1746,1765,1785,1805],"xSR":741.5,"ySR":573.95,"xT1":424.9,"yT1":0,"xT2":1058.1,"yT2":0,"toosoon":0,"cond_shown":"equaldotsize","ratio_trial":500,"smaller_num":"6","larger_num":"12","correct_side":1,"subjID":"JuanEstebanGuzmanAcosta10","gender":"0","age":"9","school":"4"},{"start_time":1552069383827,"click_time":1552069385349,"finger_time":1552069384649,"fix_duration":877.832351959802,"trial":2,"RT":822,"MT":700,"sideResp":2,"stimulus":"img/500/equaldotanddens/R/14_Ratio_500_L_5_R_10.png","xmouse":[824,824,824,824,824,824,824,824,824,824,824,824,824,824,824,824,824,824,824,824,824,824,824,824,824,824,824,824,824,824,824,824,824,824,824,823,824,825,827,830,833,852,853,853,854,861,892,907,933,944,951,958,966,974,980,988,998,1001,1001,1003,1004,1006,1010,1017,1029,1050,1088,1094,1095,1097,1099,1103,1105,1108,1109,1110,1110],"ymouse":[602,602,602,602,602,602,602,602,602,602,602,602,602,602,602,602,602,602,602,602,602,602,602,602,602,602,602,602,602,602,602,602,602,602,602,603,603,603,603,603,603,612,613,613,613,606,533,468,374,330,290,274,247,225,213,195,159,156,156,156,156,156,156,156,156,152,142,139,137,132,129,122,117,113,108,100,93],"timestamp_mouse":[9,22,43,65,82,102,122,142,163,182,201,222,242,261,283,302,322,342,361,381,402,423,443,461,483,502,521,541,562,583,602,622,642,663,682,702,721,742,763,783,801,822,842,861,882,901,921,942,961,982,1002,1021,1042,1062,1081,1101,1121,1142,1161,1181,1202,1222,1242,1263,1283,1301,1321,1342,1362,1382,1403,1422,1441,1462,1482,1502,1522],"xSR":741.5,"ySR":573.95,"xT1":424.9,"yT1":0,"xT2":1058.1,"yT2":0,"toosoon":0,"cond_shown":"equaldotanddens","ratio_trial":500,"smaller_num":"5","larger_num":"10","correct_side":2,"subjID":"JuanEstebanGuzmanAcosta10","gender":"0","age":"9","school":"4"},{"start_time":1552069387687,"click_time":1552069389848,"finger_time":1552069388549,"fix_duration":356.6355817020631,"trial":3,"RT":862,"MT":1299,"sideResp":1,"stimulus":"img/750/equaldotsize/L/14_Ratio_750_L_8_R_6.png","xmouse":[767,767,767,767,767,767,767,767,767,767,767,767,767,767,767,767,767,767,767,767,767,767,767,767,767,767,767,767,767,767,767,767,767,768,768,768,768,768,768,768,771,775,784,807,821,838,853,867,897,906,912,914,915,915,915,915,915,915,915,915,915,915,913,899,884,877,868,852,812,801,796,791,787,776,767,755,738,720,686,682,676,673,672,658,644,629,613,598,571,566,566,564,564,564,564,564,564,564,564,561,553,542,536,530,529,527,527,525,524],"ymouse":[630,630,630,630,630,630,630,630,630,630,630,630,630,630,630,630,630,630,630,630,630,630,630,630,630,630,630,630,630,630,630,630,630,630,630,630,630,630,630,628,621,610,582,533,517,497,476,448,389,370,361,357,355,355,355,355,355,355,355,355,354,351,347,336,327,324,318,306,251,231,214,203,197,175,158,143,124,109,86,83,80,79,78,73,70,69,69,69,69,69,69,69,69,69,69,68,68,68,68,68,68,68,68,66,66,65,65,65,64],"timestamp_mouse":[9,21,41,61,81,103,122,142,163,182,201,221,243,263,282,302,321,341,361,381,403,421,443,461,482,503,521,541,561,582,603,621,641,663,683,701,721,741,761,783,801,821,842,862,882,901,922,942,962,981,1001,1021,1041,1062,1082,1102,1122,1141,1161,1182,1202,1221,1241,1261,1282,1301,1321,1341,1362,1381,1401,1421,1442,1461,1482,1502,1521,1541,1561,1581,1602,1622,1641,1661,1682,1701,1722,1743,1762,1781,1801,1822,1841,1861,1883,1902,1922,1942,1961,1983,2001,2021,2041,2062,2082,2102,2122,2142,2161],"xSR":741.5,"ySR":573.95,"xT1":424.9,"yT1":0,"xT2":1058.1,"yT2":0,"toosoon":0,"cond_shown":"equaldotsize","ratio_trial":750,"smaller_num":"6","larger_num":"8","correct_side":1,"subjID":"JuanEstebanGuzmanAcosta10","gender":"0","age":"9","school":"4"},{"start_time":1552069391258,"click_time":1552069392609,"finger_time":1552069392089,"fix_duration":288.2335057310329,"trial":4,"RT":831,"MT":520,"sideResp":1,"stimulus":"img/500/equaldotsize/L/7_Ratio_500_L_10_R_5.png","xmouse":[818,818,818,818,818,818,818,818,818,818,818,818,818,818,818,818,818,818,818,818,818,818,818,818,818,818,818,818,818,818,818,818,818,818,818,818,818,818,818,816,790,745,682,631,585,579,577,576,576,575,572,565,553,541,520,510,496,474,456,437,434,430,423,420,419,419,423,426],"ymouse":[628,628,628,628,628,628,628,628,628,628,628,628,628,628,628,628,628,628,628,628,628,628,628,628,628,628,628,628,628,628,628,628,628,628,628,628,628,628,628,628,604,543,473,429,387,376,364,351,340,326,320,312,302,287,241,221,202,189,178,167,159,147,131,122,107,100,96,90],"timestamp_mouse":[10,39,51,70,90,110,131,152,170,190,212,232,251,271,291,311,332,350,370,390,411,431,452,471,492,510,531,551,570,591,611,631,651,671,690,712,732,751,771,791,810,831,850,870,892,910,931,951,970,991,1011,1030,1050,1071,1091,1110,1131,1151,1172,1191,1210,1230,1250,1270,1292,1311,1330,1351],"xSR":741.5,"ySR":573.95,"xT1":424.9,"yT1":0,"xT2":1058.1,"yT2":0,"toosoon":0,"cond_shown":"equaldotsize","ratio_trial":500,"smaller_num":"5","larger_num":"10","correct_side":1,"subjID":"JuanEstebanGuzmanAcosta10","gender":"0","age":"9","school":"4"},{"start_time":1552069394581,"click_time":1552069395729,"finger_time":1552069395270,"fix_duration":1170.0034958262772,"trial":5,"RT":689,"MT":459,"sideResp":2,"stimulus":"img/500/equaldotsize/R/2_Ratio_500_L_3_R_6.png","xmouse":[810,810,810,810,810,810,810,810,810,810,810,810,810,810,810,810,810,810,810,810,810,810,810,810,810,810,810,810,810,810,810,810,815,824,895,923,933,939,944,954,961,972,981,986,989,990,993,1002,1016,1027,1028,1030,1032,1042,1055,1057,1063,1066],"ymouse":[611,611,611,611,611,611,611,611,611,611,611,611,611,611,611,611,611,611,611,611,611,611,611,611,611,611,611,611,611,611,611,611,604,582,405,353,340,328,312,283,268,252,241,236,232,227,207,195,186,179,178,172,163,149,124,119,107,98],"timestamp_mouse":[10,27,49,67,89,107,128,148,169,188,207,227,249,267,288,308,328,348,369,389,408,428,448,469,487,508,529,547,568,587,609,629,648,668,689,707,727,748,767,787,808,828,847,868,887,907,927,948,967,987,1008,1028,1049,1068,1087,1107,1128,1148],"xSR":741.5,"ySR":573.95,"xT1":424.9,"yT1":0,"xT2":1058.1,"yT2":0,"toosoon":0,"cond_shown":"equaldotsize","ratio_trial":500,"smaller_num":"3","larger_num":"6","correct_side":2,"subjID":"JuanEstebanGuzmanAcosta10","gender":"0","age":"9","school":"4"},{"start_time":1552069417921,"click_time":1552069420189,"finger_time":1552069419950,"fix_duration":609.5352367611424,"trial":6,"RT":2029,"MT":239,"sideResp":2,"stimulus":"img/900/equaldotsize/L/10_Ratio_900_L_20_R_18.png","xmouse":[773,773,773,773,773,773,773,773,773,773,773,773,773,773,773,773,773,773,773,773,773,773,773,773,773,773,773,773,773,773,773,773,773,773,773,773,773,773,773,773,773,773,773,773,773,773,773,773,773,773,773,773,773,773,773,773,773,773,773,773,773,773,773,773,773,773,773,773,773,773,773,773,773,773,773,773,773,773,773,773,773,773,773,773,773,773,773,773,773,773,773,773,773,773,773,773,773,773,773,784,800,814,834,851,877,930,944,955,965,988,1014,1050,1082,1108],"ymouse":[616,616,616,616,616,616,616,616,616,616,616,616,616,616,616,616,616,616,616,616,616,616,616,616,616,616,616,616,616,616,616,616,616,616,616,616,616,616,616,616,616,616,616,616,616,616,616,616,616,616,616,616,616,616,616,616,616,616,616,616,616,616,616,616,616,616,616,616,616,616,616,616,616,616,616,616,616,616,616,616,616,616,616,616,616,616,616,616,616,616,616,616,616,616,616,616,616,616,616,605,582,556,526,503,466,389,371,356,342,309,247,176,120,87],"timestamp_mouse":[9,28,48,77,88,108,128,148,168,188,208,229,248,268,289,308,328,348,369,389,409,428,448,469,488,508,528,549,569,589,609,629,649,669,689,708,728,749,769,789,809,829,849,868,889,909,929,948,968,988,1008,1028,1049,1069,1089,1109,1129,1148,1169,1188,1209,1229,1249,1268,1289,1309,1329,1349,1369,1389,1409,1430,1449,1469,1488,1508,1529,1548,1568,1589,1609,1629,1649,1668,1689,1709,1728,1749,1768,1789,1807,1827,1848,1868,1888,1908,1929,1948,1969,1989,2009,2029,2049,2069,2088,2109,2129,2148,2168,2189,2208,2228,2248,2268],"xSR":741.5,"ySR":573.95,"xT1":424.9,"yT1":0,"xT2":1058.1,"yT2":0,"toosoon":0,"cond_shown":"equaldotsize","ratio_trial":900,"smaller_num":"18","larger_num":"20","correct_side":1,"subjID":"JuanEstebanGuzmanAcosta10","gender":"0","age":"9","school":"4"},{"start_time":1552069422494,"click_time":1552069423829,"finger_time":1552069423310,"fix_duration":1102.3496973864785,"trial":7,"RT":816,"MT":519,"sideResp":1,"stimulus":"img/250/equaldotanddens/L/15_Ratio_250_L_12_R_3.png","xmouse":[789,789,789,789,789,789,789,789,789,789,789,789,789,789,789,789,789,789,789,789,789,789,789,789,789,789,789,789,789,789,789,789,789,789,789,789,789,789,787,779,760,650,597,580,578,578,588,592,593,587,566,546,546,546,546,543,533,530,530,530,528,524,521,521,521,521,518],"ymouse":[635,635,635,635,635,635,635,635,635,635,635,635,635,635,635,635,635,635,635,635,635,635,635,635,635,635,635,635,635,635,635,635,635,635,635,635,635,635,628,597,549,374,301,256,245,241,224,211,200,178,143,115,115,114,114,114,113,111,111,111,110,108,105,105,105,105,98],"timestamp_mouse":[15,35,67,75,95,116,136,156,175,195,216,234,256,276,295,316,336,355,376,395,414,436,455,475,495,514,536,556,576,596,616,636,656,675,694,715,735,756,775,795,816,835,856,875,895,915,935,955,974,996,1016,1035,1055,1076,1096,1115,1136,1155,1175,1195,1216,1235,1255,1276,1295,1314,1334],"xSR":741.5,"ySR":573.95,"xT1":424.9,"yT1":0,"xT2":1058.1,"yT2":0,"toosoon":0,"cond_shown":"equaldotanddens","ratio_trial":250,"smaller_num":"3","larger_num":"12","correct_side":1,"subjID":"JuanEstebanGuzmanAcosta10","gender":"0","age":"9","school":"4"},{"start_time":1552069427068,"click_time":1552069428731,"finger_time":1552069428030,"fix_duration":1375.841303902378,"trial":8,"RT":962,"MT":701,"sideResp":1,"stimulus":"img/750/equaldotanddens/L/6_Ratio_750_L_24_R_18.png","xmouse":[788,788,788,788,788,788,788,788,788,788,788,788,788,788,788,788,788,788,788,788,788,788,788,788,788,788,788,788,788,788,788,788,788,788,788,788,788,788,788,788,788,788,788,788,788,788,788,786,775,771,765,760,757,750,744,737,735,730,719,711,702,689,675,665,658,657,657,657,657,657,656,646,623,594,552,550,550,550,550,551,551,548,532,517],"ymouse":[612,612,612,612,612,612,612,612,612,612,612,612,612,612,612,612,612,612,612,612,612,612,612,612,612,612,612,612,612,612,612,612,612,612,612,612,612,612,612,612,612,612,612,612,612,608,599,595,570,559,544,528,508,453,409,341,315,260,206,178,153,128,103,90,78,78,78,78,78,77,77,77,80,81,72,71,65,57,53,52,51,49,47,47],"timestamp_mouse":[10,20,42,64,81,102,121,142,161,181,202,221,241,261,283,301,322,341,362,382,402,421,442,462,481,501,521,541,562,582,602,621,641,661,681,701,722,742,762,782,802,822,842,862,881,902,921,941,962,981,1001,1022,1041,1062,1080,1102,1121,1141,1162,1181,1201,1222,1242,1261,1281,1301,1322,1341,1361,1381,1401,1421,1442,1463,1481,1501,1521,1541,1561,1581,1602,1622,1642,1662],"xSR":741.5,"ySR":573.95,"xT1":424.9,"yT1":0,"xT2":1058.1,"yT2":0,"toosoon":0,"cond_shown":"equaldotanddens","ratio_trial":750,"smaller_num":"18","larger_num":"24","correct_side":1,"subjID":"JuanEstebanGuzmanAcosta10","gender":"0","age":"9","school":"4"},{"start_time":1552069435276,"click_time":1552069436129,"finger_time":1552069435989,"fix_duration":606.5128384600786,"trial":9,"RT":713,"MT":140,"sideResp":2,"stimulus":"img/750/equaldotanddens/R/4_Ratio_750_L_15_R_20.png","xmouse":[779,779,779,779,779,779,779,779,779,779,779,779,779,779,779,779,779,779,779,779,779,779,779,779,779,779,779,779,779,779,779,779,779,779,787,801,824,855,923,963,1001,1037,1082],"ymouse":[600,600,600,600,600,600,600,600,600,600,600,600,600,600,600,600,600,600,600,600,600,600,600,600,600,600,600,600,600,600,600,600,600,600,593,562,522,467,325,248,164,93,32],"timestamp_mouse":[14,33,63,73,93,114,133,154,174,193,214,234,252,274,293,314,333,354,374,394,413,434,454,473,494,513,534,553,574,593,614,632,652,674,694,713,734,753,774,792,813,833,853],"xSR":741.5,"ySR":573.95,"xT1":424.9,"yT1":0,"xT2":1058.1,"yT2":0,"toosoon":0,"cond_shown":"equaldotanddens","ratio_trial":750,"smaller_num":"15","larger_num":"20","correct_side":2,"subjID":"JuanEstebanGuzmanAcosta10","gender":"0","age":"9","school":"4"},{"start_time":1552069438739,"click_time":1552069440569,"finger_time":1552069439449,"fix_duration":408.28823563691566,"trial":10,"RT":710,"MT":1120,"sideResp":1,"stimulus":"img/250/equaldotanddens/L/14_Ratio_250_L_12_R_3.png","xmouse":[787,787,787,787,787,787,787,787,787,787,787,787,787,787,787,787,787,787,787,787,787,787,787,787,787,787,787,787,787,787,787,787,787,786,770,704,471,350,304,270,242,201,192,190,189,189,199,214,226,232,236,247,255,261,273,280,280,280,282,285,305,324,324,324,324,324,340,340,340,340,340,342,351,360,365,366,366,366,366,366,367,372,375,377,379,380,382,382,382,386,401,451],"ymouse":[629,629,629,629,629,629,629,629,629,629,629,629,629,629,629,629,629,629,629,629,629,629,629,629,629,629,629,629,629,629,629,629,629,627,623,598,461,350,280,214,149,23,0,0,0,0,0,0,0,0,0,0,0,0,0,0,0,0,0,0,0,0,0,0,0,0,2,2,2,2,2,3,4,5,5,5,5,5,5,5,5,3,1,1,1,0,0,0,0,0,1,3],"timestamp_mouse":[15,37,51,70,91,111,131,150,170,190,211,231,251,270,290,310,331,350,370,391,410,431,451,470,490,511,531,550,570,590,611,630,650,669,690,710,730,750,770,789,811,829,850,870,890,910,931,950,970,991,1011,1031,1051,1071,1090,1110,1131,1150,1170,1191,1210,1230,1250,1270,1291,1310,1330,1350,1371,1390,1409,1431,1451,1470,1491,1511,1530,1550,1570,1590,1610,1630,1650,1670,1691,1711,1730,1750,1771,1790,1810,1830],"xSR":741.5,"ySR":573.95,"xT1":424.9,"yT1":0,"xT2":1058.1,"yT2":0,"toosoon":0,"cond_shown":"equaldotanddens","ratio_trial":250,"smaller_num":"3","larger_num":"12","correct_side":1,"subjID":"JuanEstebanGuzmanAcosta10","gender":"0","age":"9","school":"4"},{"start_time":1552069442907,"click_time":1552069444330,"finger_time":1552069443990,"fix_duration":1255.1313040915197,"trial":11,"RT":1083,"MT":340,"sideResp":1,"stimulus":"img/900/equaldotanddens/L/8_Ratio_900_L_20_R_18.png","xmouse":[811,811,811,811,811,811,811,811,811,811,811,811,811,811,811,811,811,811,811,811,811,811,811,811,811,811,811,811,811,811,811,811,811,811,811,811,811,811,811,811,811,811,811,811,811,811,810,806,803,803,803,802,800,779,750,701,658,629,624,613,612,610,607,607,606,602,595,580,549,536,527,519],"ymouse":[612,612,612,612,612,612,612,612,612,612,612,612,612,612,612,612,612,612,612,612,612,612,612,612,612,612,612,612,612,612,612,612,612,612,612,612,612,612,612,612,612,612,612,612,612,612,612,612,611,611,611,611,610,585,548,477,415,353,334,289,278,268,261,253,247,232,211,179,134,119,108,96],"timestamp_mouse":[10,23,42,62,82,102,122,142,162,182,203,223,243,262,282,301,322,342,362,382,403,422,443,462,483,502,522,543,562,583,603,622,642,662,683,703,723,743,762,782,802,822,843,862,881,903,922,942,962,982,1002,1023,1042,1062,1083,1103,1123,1143,1162,1182,1202,1222,1242,1262,1282,1303,1322,1343,1363,1381,1403,1423],"xSR":741.5,"ySR":573.95,"xT1":424.9,"yT1":0,"xT2":1058.1,"yT2":0,"toosoon":0,"cond_shown":"equaldotanddens","ratio_trial":900,"smaller_num":"18","larger_num":"20","correct_side":1,"subjID":"JuanEstebanGuzmanAcosta10","gender":"0","age":"9","school":"4"},{"start_time":1552069458034,"click_time":1552069459809,"finger_time":1552069459209,"fix_duration":324.2310840681364,"trial":12,"RT":1175,"MT":600,"sideResp":1,"stimulus":"img/250/equaldotanddens/L/5_Ratio_250_L_24_R_6.png","xmouse":[782,782,782,782,782,782,782,782,782,782,782,782,782,782,782,782,782,782,782,782,782,782,782,782,782,782,782,782,782,782,782,782,782,782,782,782,782,782,782,782,782,782,782,782,782,782,782,782,782,782,782,782,782,782,782,782,782,782,771,754,737,720,707,689,683,679,673,665,644,640,640,639,639,638,636,618,601,582,563,563,563,563,563,560,559,559,556,543,453],"ymouse":[590,590,590,590,590,590,590,590,590,590,590,590,590,590,590,590,590,590,590,590,590,590,590,590,590,590,590,590,590,590,590,590,590,590,590,590,590,590,590,590,590,590,590,590,590,590,590,590,590,590,590,590,590,590,590,590,590,588,552,517,474,433,410,356,332,304,263,204,115,97,86,74,64,60,60,60,60,61,61,61,61,62,62,62,62,62,62,62,61],"timestamp_mouse":[15,40,56,76,96,115,135,155,175,195,216,235,254,276,296,315,335,356,375,394,416,435,456,475,496,516,536,556,575,596,615,636,656,675,695,716,736,754,774,796,815,836,856,876,895,915,936,956,975,996,1015,1035,1056,1076,1095,1116,1136,1155,1175,1195,1215,1235,1255,1275,1295,1314,1336,1356,1375,1396,1414,1436,1455,1475,1496,1515,1535,1555,1574,1595,1616,1635,1656,1674,1694,1716,1735,1756,1775],"xSR":741.5,"ySR":573.95,"xT1":424.9,"yT1":0,"xT2":1058.1,"yT2":0,"toosoon":0,"cond_shown":"equaldotanddens","ratio_trial":250,"smaller_num":"6","larger_num":"24","correct_side":1,"subjID":"JuanEstebanGuzmanAcosta10","gender":"0","age":"9","school":"4"},{"start_time":1552069464310,"click_time":1552069466011,"finger_time":1552069464990,"fix_duration":1238.484314009931,"trial":13,"RT":680,"MT":1021,"sideResp":2,"stimulus":"img/900/equaldotanddens/R/5_Ratio_900_L_9_R_10.png","xmouse":[775,775,775,775,775,775,775,775,775,775,775,775,775,775,775,775,775,775,775,775,775,775,775,775,775,775,775,775,775,775,775,775,781,792,812,828,853,855,865,873,883,889,891,891,892,893,896,900,904,908,912,918,923,926,932,937,950,958,962,964,967,973,975,981,986,994,1018,1025,1029,1035,1037,1042,1043,1043,1043,1043,1045,1049,1054,1059,1067,1079,1089,1101,1120,1134],"ymouse":[651,651,651,651,651,651,651,651,651,651,651,651,651,651,651,651,651,651,651,651,651,651,651,651,651,651,651,651,651,651,651,651,637,611,568,523,436,424,387,359,338,322,319,318,317,315,306,296,290,284,279,267,258,249,236,221,198,187,183,181,180,178,177,175,174,172,160,156,153,149,147,143,143,143,143,143,141,139,136,133,130,125,120,114,105,97],"timestamp_mouse":[3,25,47,60,79,99,119,139,159,179,200,220,239,260,280,300,319,340,359,379,399,420,439,460,479,499,519,539,560,579,598,620,639,660,680,699,719,739,759,780,800,820,840,859,879,899,919,939,958,978,999,1019,1040,1059,1079,1099,1119,1140,1159,1179,1199,1219,1240,1259,1280,1299,1319,1340,1358,1379,1399,1419,1439,1459,1479,1499,1519,1539,1559,1579,1599,1619,1639,1658,1680,1701],"xSR":741.5,"ySR":573.95,"xT1":424.9,"yT1":0,"xT2":1058.1,"yT2":0,"toosoon":0,"cond_shown":"equaldotanddens","ratio_trial":900,"smaller_num":"9","larger_num":"10","correct_side":2,"subjID":"JuanEstebanGuzmanAcosta10","gender":"0","age":"9","school":"4"},{"start_time":1552069468528,"click_time":1552069469450,"finger_time":1552069469129,"fix_duration":1317.2550591440543,"trial":14,"RT":601,"MT":321,"sideResp":1,"stimulus":"img/250/equaldotsize/L/7_Ratio_250_L_8_R_2.png","xmouse":[796,796,796,796,796,796,796,796,796,796,796,796,796,796,796,796,796,796,796,796,796,796,796,793,793,793,793,792,789,768,726,592,527,483,463,458,456,454,450,449,446,445,444,444,446,456,460],"ymouse":[615,615,615,615,615,615,615,615,615,615,615,615,615,615,615,615,615,615,615,615,615,615,615,615,615,615,615,615,615,593,538,378,302,251,221,204,172,161,150,146,135,129,126,122,116,101,97],"timestamp_mouse":[9,22,41,62,82,101,122,142,162,182,201,222,241,262,282,301,322,341,361,382,401,422,441,462,482,501,522,540,561,582,601,621,641,661,682,701,721,741,761,782,801,821,841,861,881,901,922],"xSR":741.5,"ySR":573.95,"xT1":424.9,"yT1":0,"xT2":1058.1,"yT2":0,"toosoon":0,"cond_shown":"equaldotsize","ratio_trial":250,"smaller_num":"2","larger_num":"8","correct_side":1,"subjID":"JuanEstebanGuzmanAcosta10","gender":"0","age":"9","school":"4"},{"start_time":1552069470446,"click_time":1552069473350,"finger_time":1552069472270,"fix_duration":253.03496658669522,"trial":15,"RT":1824,"MT":1080,"sideResp":2,"stimulus":"img/500/randomdotsizeEA/R/12_Ratio_500_L_1_R_2.png","xmouse":[801,801,801,801,801,801,801,801,801,801,801,801,801,801,801,801,801,801,801,801,801,801,801,801,801,801,801,801,801,801,801,801,801,801,801,801,801,801,801,801,801,801,801,801,801,801,801,801,801,801,801,801,801,801,801,801,801,801,801,801,801,801,801,801,801,802,802,802,802,802,802,802,802,802,802,802,802,802,802,802,802,802,802,802,802,802,802,802,802,801,794,786,781,777,776,777,785,791,797,805,806,806,805,794,777,732,728,728,728,728,728,728,728,728,747,757,768,779,794,826,847,863,878,894,910,940,954,962,966,970,980,985,993,1002,1013,1028,1036,1039,1041,1042,1043,1043,1043,1045,1051,1062],"ymouse":[620,620,620,620,620,620,620,620,620,620,620,620,620,620,620,620,620,620,620,620,620,620,620,620,620,620,620,620,620,620,620,620,620,620,620,620,620,620,620,620,620,620,620,620,620,620,620,620,620,620,620,620,620,620,620,620,620,620,620,620,620,620,620,620,617,615,614,614,614,614,614,614,614,614,614,614,614,614,614,614,614,614,614,614,614,614,614,614,613,608,590,566,541,507,458,445,431,421,414,397,387,375,356,333,308,273,270,270,270,270,270,270,270,267,253,244,232,217,196,176,171,165,159,151,143,131,125,120,119,117,113,110,107,103,98,92,89,89,89,88,87,87,87,86,84,79],"timestamp_mouse":[9,23,43,66,83,103,123,143,164,183,203,223,244,263,284,303,323,344,364,383,404,424,444,463,483,504,523,544,564,584,604,624,643,662,684,704,724,744,764,783,803,823,844,864,884,903,923,944,982,983,1003,1024,1043,1063,1083,1104,1123,1144,1163,1184,1203,1224,1243,1263,1284,1303,1324,1343,1364,1383,1402,1424,1443,1463,1483,1504,1523,1542,1564,1584,1603,1624,1644,1664,1683,1704,1724,1744,1763,1784,1803,1824,1843,1864,1884,1902,1923,1943,1963,1984,2003,2023,2043,2063,2084,2103,2124,2143,2164,2185,2203,2224,2243,2263,2284,2303,2323,2343,2363,2384,2403,2423,2444,2464,2484,2503,2523,2543,2563,2583,2604,2623,2644,2664,2684,2703,2723,2743,2764,2783,2804,2823,2844,2863,2883,2904],"xSR":741.5,"ySR":573.95,"xT1":424.9,"yT1":0,"xT2":1058.1,"yT2":0,"toosoon":0,"cond_shown":"randomdotsizeEA","ratio_trial":500,"smaller_num":"1","larger_num":"2","correct_side":2,"subjID":"JuanEstebanGuzmanAcosta10","gender":"0","age":"9","school":"4"},{"start_time":1552069474602,"click_time":1552069475571,"finger_time":1552069475329,"fix_duration":250,"trial":16,"RT":727,"MT":242,"sideResp":2,"stimulus":"img/500/equaldotanddens/R/9_Ratio_500_L_2_R_4.png","xmouse":[828,828,828,828,828,828,828,828,828,828,828,828,828,828,828,828,828,828,828,828,828,828,828,828,828,828,828,828,828,828,828,828,828,828,828,831,844,925,955,987,1014,1034,1071,1087,1097,1104,1110,1116,1117],"ymouse":[583,583,583,583,583,583,583,583,583,583,583,583,583,583,583,583,583,583,583,583,583,583,583,583,583,583,583,583,583,583,583,583,583,583,583,582,573,509,478,432,382,336,261,216,178,155,136,104,85],"timestamp_mouse":[10,40,47,67,87,107,128,148,168,188,208,227,247,268,287,307,328,348,367,387,408,427,448,468,487,507,528,548,568,587,608,627,647,668,688,707,727,748,768,787,807,828,847,867,887,907,927,947,968],"xSR":741.5,"ySR":573.95,"xT1":424.9,"yT1":0,"xT2":1058.1,"yT2":0,"toosoon":0,"cond_shown":"equaldotanddens","ratio_trial":500,"smaller_num":"2","larger_num":"4","correct_side":2,"subjID":"JuanEstebanGuzmanAcosta10","gender":"0","age":"9","school":"4"},{"start_time":1552069478619,"click_time":1552069480790,"finger_time":1552069479969,"fix_duration":1186.089055194774,"trial":17,"RT":1350,"MT":821,"sideResp":2,"stimulus":"img/250/randomdotsizeEA/R/8_Ratio_250_L_1_R_4.png","xmouse":[815,815,815,815,815,815,815,815,815,815,815,815,815,815,815,815,815,815,815,815,815,815,815,815,815,815,815,815,815,815,815,815,815,815,815,815,815,815,815,815,815,815,815,815,815,815,815,815,815,815,815,815,815,815,815,815,815,815,815,815,815,815,815,815,815,815,815,815,815,815,815,815,815,815,815,815,815,817,817,814,813,813,836,843,845,845,845,846,848,854,862,884,900,915,930,937,964,988,1011,1024,1033,1038,1042,1043,1044,1045,1050,1053,1060],"ymouse":[597,597,597,597,597,597,597,597,597,597,597,597,597,597,597,597,597,597,597,597,597,597,597,597,597,597,597,597,597,597,597,597,597,597,597,597,597,597,597,597,597,597,597,597,597,597,597,597,597,597,597,597,597,597,597,597,597,597,597,597,597,597,597,597,597,596,575,569,565,564,564,564,560,555,526,499,473,372,318,267,230,201,148,124,110,98,80,76,75,72,70,67,66,64,59,57,53,50,44,38,32,29,26,26,26,25,24,22,21],"timestamp_mouse":[10,31,64,71,90,110,130,150,171,191,210,230,250,271,290,310,331,350,371,391,410,430,450,470,491,510,530,550,571,591,610,631,650,671,691,710,730,751,770,790,810,830,850,872,890,911,931,950,971,990,1010,1031,1050,1070,1091,1111,1131,1150,1171,1190,1211,1230,1251,1270,1290,1310,1331,1350,1370,1390,1412,1431,1450,1470,1490,1510,1530,1550,1570,1591,1611,1630,1651,1670,1690,1710,1731,1750,1770,1790,1810,1831,1850,1871,1890,1910,1931,1950,1970,1991,2010,2030,2051,2070,2090,2110,2131,2150,2171],"xSR":741.5,"ySR":573.95,"xT1":424.9,"yT1":0,"xT2":1058.1,"yT2":0,"toosoon":0,"cond_shown":"randomdotsizeEA","ratio_trial":250,"smaller_num":"1","larger_num":"4","correct_side":2,"subjID":"JuanEstebanGuzmanAcosta10","gender":"0","age":"9","school":"4"},{"start_time":1552069483122,"click_time":1552069484291,"finger_time":1552069483810,"fix_duration":1209.2641270989477,"trial":18,"RT":688,"MT":481,"sideResp":2,"stimulus":"img/500/equaldotsize/R/14_Ratio_500_L_5_R_10.png","xmouse":[830,830,830,830,830,830,830,830,830,830,830,830,830,830,830,830,830,830,830,830,830,830,830,830,830,830,830,830,830,830,830,830,830,830,830,826,821,812,812,821,838,858,896,908,916,919,925,934,938,940,941,944,954,961,970,981,996,1041,1062],"ymouse":[636,636,636,636,636,636,636,636,636,636,636,636,636,636,636,636,636,636,636,636,636,636,636,636,636,636,636,636,636,636,636,636,635,607,547,493,457,405,342,309,275,250,209,201,196,194,188,178,173,171,170,167,158,150,138,125,113,90,85],"timestamp_mouse":[10,28,49,68,88,107,127,147,168,187,208,229,247,268,288,308,328,349,368,388,408,427,447,467,488,508,528,548,568,588,607,627,648,668,688,708,728,747,769,787,807,828,847,867,887,908,928,947,968,987,1007,1027,1047,1068,1087,1107,1127,1147,1169],"xSR":741.5,"ySR":573.95,"xT1":424.9,"yT1":0,"xT2":1058.1,"yT2":0,"toosoon":0,"cond_shown":"equaldotsize","ratio_trial":500,"smaller_num":"5","larger_num":"10","correct_side":2,"subjID":"JuanEstebanGuzmanAcosta10","gender":"0","age":"9","school":"4"},{"start_time":1552069486152,"click_time":1552069487289,"finger_time":1552069486869,"fix_duration":780.4124065920594,"trial":19,"RT":717,"MT":420,"sideResp":2,"stimulus":"img/750/equaldotanddens/R/12_Ratio_750_L_3_R_4.png","xmouse":[815,815,815,815,815,815,816,816,816,816,816,816,816,816,816,816,816,816,816,816,816,816,816,816,816,816,816,816,816,816,816,816,816,816,816,845,870,889,906,918,940,952,968,989,1024,1106,1117,1122,1126,1129,1134,1134,1136,1137,1137,1137,1133],"ymouse":[650,650,650,650,650,650,650,650,650,650,650,650,650,650,650,650,650,650,650,650,650,650,650,650,650,650,650,650,650,650,650,650,650,650,644,530,443,373,325,296,253,233,212,191,167,125,120,116,114,114,114,114,113,111,111,104,97],"timestamp_mouse":[21,47,57,77,98,117,138,157,177,198,217,237,258,278,298,318,338,358,378,398,417,438,457,477,498,517,537,558,577,598,617,637,658,679,697,717,738,757,777,797,817,837,858,879,897,917,937,957,977,998,1017,1037,1058,1077,1097,1117,1137],"xSR":741.5,"ySR":573.95,"xT1":424.9,"yT1":0,"xT2":1058.1,"yT2":0,"toosoon":0,"cond_shown":"equaldotanddens","ratio_trial":750,"smaller_num":"3","larger_num":"4","correct_side":2,"subjID":"JuanEstebanGuzmanAcosta10","gender":"0","age":"9","school":"4"},{"start_time":1552069488981,"click_time":1552069490389,"finger_time":1552069489729,"fix_duration":728.7138488961559,"trial":20,"RT":748,"MT":660,"sideResp":2,"stimulus":"img/750/equaldotanddens/R/4_Ratio_750_L_15_R_20.png","xmouse":[749,749,749,749,749,749,749,749,749,749,749,749,749,749,749,749,749,749,749,749,749,749,749,749,749,749,749,749,749,749,749,749,749,749,749,753,761,776,796,821,839,856,869,882,906,920,935,944,951,980,1018,1034,1071,1114,1132,1158,1162,1166,1174,1187,1208,1208,1206,1206,1206,1205,1203,1199,1192,1178,1153],"ymouse":[620,620,620,620,620,620,620,620,620,620,620,620,620,620,620,620,620,620,620,620,620,620,620,620,620,620,620,620,620,620,620,620,620,620,616,610,592,564,522,480,439,408,389,371,347,338,333,329,326,306,285,277,254,217,187,138,120,103,75,34,0,0,0,0,0,0,1,4,11,22,43],"timestamp_mouse":[14,34,48,68,89,108,128,149,168,188,209,228,248,268,289,308,329,349,368,388,409,428,448,468,489,508,528,549,568,589,609,628,649,668,689,708,728,748,768,789,808,829,848,868,889,908,928,948,968,989,1008,1029,1048,1069,1088,1108,1128,1148,1168,1188,1209,1228,1249,1269,1288,1309,1328,1348,1368,1388,1408],"xSR":741.5,"ySR":573.95,"xT1":424.9,"yT1":0,"xT2":1058.1,"yT2":0,"toosoon":0,"cond_shown":"equaldotanddens","ratio_trial":750,"smaller_num":"15","larger_num":"20","correct_side":2,"subjID":"JuanEstebanGuzmanAcosta10","gender":"0","age":"9","school":"4"},{"start_time":1552069492761,"click_time":1552069493589,"finger_time":1552069493410,"fix_duration":628.6966629297433,"trial":21,"RT":649,"MT":179,"sideResp":2,"stimulus":"img/750/equaldotanddens/R/2_Ratio_750_L_6_R_8.png","xmouse":[773,773,773,773,773,773,773,773,773,773,773,773,773,773,773,773,773,773,773,773,773,773,773,773,773,773,773,773,773,773,773,780,817,864,907,942,990,1008,1024,1040,1050,1071],"ymouse":[611,611,611,611,611,611,611,611,611,611,611,611,611,611,611,611,611,611,611,611,611,611,611,611,611,611,611,611,611,611,611,605,555,480,400,327,207,164,131,100,78,38],"timestamp_mouse":[15,29,49,69,88,109,129,150,169,188,208,229,248,268,289,309,328,349,368,388,408,429,449,468,488,509,528,548,568,589,608,628,649,670,689,709,728,748,768,788,809,828],"xSR":741.5,"ySR":573.95,"xT1":424.9,"yT1":0,"xT2":1058.1,"yT2":0,"toosoon":0,"cond_shown":"equaldotanddens","ratio_trial":750,"smaller_num":"6","larger_num":"8","correct_side":2,"subjID":"JuanEstebanGuzmanAcosta10","gender":"0","age":"9","school":"4"},{"start_time":1552069495324,"click_time":1552069496249,"finger_time":1552069495990,"fix_duration":753.938304079717,"trial":22,"RT":666,"MT":259,"sideResp":2,"stimulus":"img/900/randomdotsizeEA/L/8_Ratio_900_L_20_R_18.png","xmouse":[780,780,780,780,780,780,780,780,780,780,780,780,780,780,780,780,780,780,780,780,780,780,780,780,780,780,780,780,780,780,780,781,782,794,798,799,804,813,853,889,934,978,1028,1073,1094,1113,1132],"ymouse":[583,583,583,583,583,583,583,583,583,583,583,583,583,583,583,583,583,583,583,583,583,583,583,583,583,583,583,583,583,583,583,582,582,573,570,568,563,555,501,444,379,314,245,183,155,125,90],"timestamp_mouse":[9,26,47,65,85,105,125,146,165,186,206,225,246,265,286,305,326,345,365,386,406,425,445,465,485,505,526,546,565,585,605,625,646,666,685,705,725,746,765,786,805,826,845,865,885,905,925],"xSR":741.5,"ySR":573.95,"xT1":424.9,"yT1":0,"xT2":1058.1,"yT2":0,"toosoon":0,"cond_shown":"randomdotsizeEA","ratio_trial":900,"smaller_num":"18","larger_num":"20","correct_side":1,"subjID":"JuanEstebanGuzmanAcosta10","gender":"0","age":"9","school":"4"},{"start_time":1552069498871,"click_time":1552069500269,"finger_time":1552069499930,"fix_duration":1459.6515430533257,"trial":23,"RT":1059,"MT":339,"sideResp":1,"stimulus":"img/500/randomdotsizeEA/L/10_Ratio_500_L_4_R_2.png","xmouse":[808,808,808,808,808,808,808,808,808,808,808,808,808,808,808,808,808,808,808,808,808,808,808,808,808,808,808,808,808,808,808,808,808,808,808,808,808,808,808,808,808,808,808,808,808,808,808,808,809,809,808,802,788,778,749,708,572,504,435,370,318,316,319,322,326,331,357,378,407,438],"ymouse":[633,633,633,633,633,633,633,633,633,633,633,633,633,633,633,633,633,633,633,633,633,633,633,633,633,633,633,633,633,633,633,633,633,633,633,633,633,633,633,633,633,633,633,633,633,633,633,633,633,632,626,600,568,543,505,459,363,303,230,161,116,111,102,98,95,92,81,72,59,47],"timestamp_mouse":[25,38,62,78,98,119,138,158,178,198,218,238,259,278,298,319,339,359,379,399,419,439,459,478,498,519,538,560,578,598,618,638,658,679,700,719,738,758,779,799,819,838,859,879,898,919,938,958,978,999,1018,1038,1059,1078,1098,1119,1138,1159,1179,1198,1220,1238,1259,1278,1299,1319,1339,1358,1378,1398],"xSR":741.5,"ySR":573.95,"xT1":424.9,"yT1":0,"xT2":1058.1,"yT2":0,"toosoon":0,"cond_shown":"randomdotsizeEA","ratio_trial":500,"smaller_num":"2","larger_num":"4","correct_side":1,"subjID":"JuanEstebanGuzmanAcosta10","gender":"0","age":"9","school":"4"},{"start_time":1552069502102,"click_time":1552069503029,"finger_time":1552069502690,"fix_duration":570.3951890445095,"trial":24,"RT":588,"MT":339,"sideResp":2,"stimulus":"img/250/equaldotanddens/R/11_Ratio_250_L_3_R_12.png","xmouse":[744,744,744,744,744,744,744,744,744,744,744,744,745,746,746,746,746,746,746,746,746,746,749,750,751,755,760,774,791,847,971,1031,1092,1140,1179,1212,1218,1221,1222,1222,1222,1222,1222,1216,1201,1167,1155],"ymouse":[627,627,627,627,627,627,627,627,627,627,627,627,627,627,627,627,627,627,627,627,627,627,627,627,626,624,620,610,596,548,412,345,272,202,142,90,81,74,70,68,64,63,62,60,58,53,50],"timestamp_mouse":[10,28,47,68,87,108,127,148,168,187,207,227,247,268,288,307,328,347,368,387,407,427,447,468,489,507,527,547,568,588,607,627,647,667,687,707,727,747,767,788,807,827,847,868,888,907,927],"xSR":741.5,"ySR":573.95,"xT1":424.9,"yT1":0,"xT2":1058.1,"yT2":0,"toosoon":0,"cond_shown":"equaldotanddens","ratio_trial":250,"smaller_num":"3","larger_num":"12","correct_side":2,"subjID":"JuanEstebanGuzmanAcosta10","gender":"0","age":"9","school":"4"},{"start_time":1552069504562,"click_time":1552069505310,"finger_time":1552069505110,"fix_duration":631.7049177869596,"trial":25,"RT":548,"MT":200,"sideResp":1,"stimulus":"img/750/equaldotsize/L/8_Ratio_750_L_4_R_3.png","xmouse":[774,774,774,774,774,774,774,774,774,774,774,774,774,774,774,774,774,774,774,774,774,774,774,774,771,766,748,697,660,629,605,583,575,559,539,517,507],"ymouse":[611,611,611,611,611,611,611,611,611,611,611,611,611,611,611,611,611,611,611,611,611,611,611,611,604,593,547,416,343,292,256,214,193,167,134,105,89],"timestamp_mouse":[13,47,67,88,107,128,147,169,188,209,228,247,268,287,307,327,347,367,387,408,427,448,467,487,508,528,548,568,588,608,627,647,667,687,708,728,748],"xSR":741.5,"ySR":573.95,"xT1":424.9,"yT1":0,"xT2":1058.1,"yT2":0,"toosoon":0,"cond_shown":"equaldotsize","ratio_trial":750,"smaller_num":"3","larger_num":"4","correct_side":1,"subjID":"JuanEstebanGuzmanAcosta10","gender":"0","age":"9","school":"4"},{"start_time":1552069506321,"click_time":1552069507110,"finger_time":1552069506930,"fix_duration":250,"trial":26,"RT":609,"MT":180,"sideResp":2,"stimulus":"img/750/randomdotsizeEA/R/5_Ratio_750_L_15_R_20.png","xmouse":[781,781,781,781,781,781,781,781,781,781,781,781,781,781,781,781,781,781,781,781,781,781,781,781,781,781,781,781,781,802,841,892,948,990,1035,1043,1047,1062,1071,1081],"ymouse":[632,632,632,632,632,632,632,632,632,632,632,632,632,632,632,632,632,632,632,632,632,632,632,632,632,632,632,632,632,599,546,475,397,315,233,208,189,142,117,91],"timestamp_mouse":[8,28,61,69,88,109,128,149,168,188,209,228,249,269,288,308,330,348,368,388,409,428,449,469,489,508,529,549,568,589,609,629,648,669,690,708,729,748,768,789],"xSR":741.5,"ySR":573.95,"xT1":424.9,"yT1":0,"xT2":1058.1,"yT2":0,"toosoon":0,"cond_shown":"randomdotsizeEA","ratio_trial":750,"smaller_num":"15","larger_num":"20","correct_side":2,"subjID":"JuanEstebanGuzmanAcosta10","gender":"0","age":"9","school":"4"},{"start_time":1552069508260,"click_time":1552069509429,"finger_time":1552069509010,"fix_duration":367.6295299214942,"trial":27,"RT":750,"MT":419,"sideResp":2,"stimulus":"img/900/equaldotsize/L/8_Ratio_900_L_20_R_18.png","xmouse":[810,810,810,810,810,810,810,810,810,810,810,810,810,810,810,810,810,810,810,810,810,810,810,810,810,810,810,810,810,810,810,810,810,810,812,822,835,849,885,920,942,963,975,988,990,993,996,998,998,993,988,987,987,989,991,995,1009,1032,1101],"ymouse":[631,631,631,631,631,631,631,631,631,631,631,631,631,631,631,631,631,631,631,631,631,631,631,631,631,631,631,631,631,631,631,631,631,630,623,610,588,562,490,406,352,313,281,225,207,189,174,157,123,95,77,65,59,54,52,52,49,47,47],"timestamp_mouse":[9,42,50,70,90,109,129,149,170,189,209,229,250,269,290,309,329,349,369,389,409,429,449,469,489,510,530,550,570,590,610,629,649,669,689,710,729,750,769,790,809,829,849,869,890,909,929,949,969,989,1009,1029,1049,1069,1089,1110,1129,1150,1169],"xSR":741.5,"ySR":573.95,"xT1":424.9,"yT1":0,"xT2":1058.1,"yT2":0,"toosoon":0,"cond_shown":"equaldotsize","ratio_trial":900,"smaller_num":"18","larger_num":"20","correct_side":1,"subjID":"JuanEstebanGuzmanAcosta10","gender":"0","age":"9","school":"4"},{"start_time":1552069511629,"click_time":1552069512349,"finger_time":1552069512229,"fix_duration":1215.08109330761,"trial":28,"RT":600,"MT":120,"sideResp":1,"stimulus":"img/750/equaldotsize/L/8_Ratio_750_L_4_R_3.png","xmouse":[818,818,818,818,818,818,818,818,818,818,816,816,816,816,816,816,816,816,816,816,816,819,819,819,819,819,819,819,818,815,774,733,668,611,573,549,522],"ymouse":[601,601,601,601,601,601,601,601,601,603,611,612,612,612,612,612,612,612,612,612,610,607,606,606,606,606,606,606,606,606,532,443,331,227,155,120,98],"timestamp_mouse":[10,33,40,60,81,101,120,141,161,180,200,221,240,260,281,301,320,341,361,380,400,420,441,460,480,500,520,542,561,580,600,620,640,661,680,700,720],"xSR":741.5,"ySR":573.95,"xT1":424.9,"yT1":0,"xT2":1058.1,"yT2":0,"toosoon":0,"cond_shown":"equaldotsize","ratio_trial":750,"smaller_num":"3","larger_num":"4","correct_side":1,"subjID":"JuanEstebanGuzmanAcosta10","gender":"0","age":"9","school":"4"},{"start_time":1552069517217,"click_time":1552069517990,"finger_time":1552069517850,"fix_duration":1366.6205447790057,"trial":29,"RT":633,"MT":140,"sideResp":2,"stimulus":"img/900/equaldotsize/L/8_Ratio_900_L_20_R_18.png","xmouse":[839,839,839,839,839,839,839,839,839,839,839,839,839,839,839,839,839,839,839,839,839,839,839,839,839,839,839,839,839,839,839,842,856,899,948,987,1044,1062,1074],"ymouse":[597,597,597,597,597,597,597,597,597,597,597,597,597,597,597,597,597,597,597,597,597,597,597,597,597,597,597,597,597,597,597,593,570,490,400,328,191,131,90],"timestamp_mouse":[14,33,52,72,93,113,132,153,172,193,213,233,252,273,293,312,333,352,373,393,412,432,452,473,492,513,532,552,574,593,613,633,653,672,692,713,732,754,773],"xSR":741.5,"ySR":573.95,"xT1":424.9,"yT1":0,"xT2":1058.1,"yT2":0,"toosoon":0,"cond_shown":"equaldotsize","ratio_trial":900,"smaller_num":"18","larger_num":"20","correct_side":1,"subjID":"JuanEstebanGuzmanAcosta10","gender":"0","age":"9","school":"4"},{"start_time":1552069520069,"click_time":1552069521311,"finger_time":1552069520809,"fix_duration":1078.395804363319,"trial":30,"RT":740,"MT":502,"sideResp":2,"stimulus":"img/900/equaldotanddens/R/12_Ratio_900_L_18_R_20.png","xmouse":[777,777,777,777,777,777,777,777,777,777,777,777,777,777,777,777,777,777,777,777,777,777,777,777,777,777,777,777,777,777,777,777,777,777,777,779,785,799,830,919,945,960,968,974,980,983,988,991,992,993,994,995,997,1000,1005,1007,1012,1018,1026,1034,1040,1052,1066],"ymouse":[624,624,624,624,624,624,624,624,624,624,624,624,624,624,624,624,624,624,624,624,624,624,624,624,624,624,624,624,624,624,624,624,624,624,623,617,603,572,502,378,326,291,270,244,214,197,178,154,133,99,90,83,77,71,67,65,63,63,62,60,60,58,58],"timestamp_mouse":[9,21,40,61,81,101,120,141,160,180,201,221,240,260,281,301,320,341,360,380,401,420,441,462,480,501,520,540,560,580,601,621,641,661,680,701,721,740,761,780,801,821,841,860,880,901,920,941,961,980,1002,1020,1040,1060,1080,1100,1120,1141,1161,1180,1200,1220,1241],"xSR":741.5,"ySR":573.95,"xT1":424.9,"yT1":0,"xT2":1058.1,"yT2":0,"toosoon":0,"cond_shown":"equaldotanddens","ratio_trial":900,"smaller_num":"18","larger_num":"20","correct_side":2,"subjID":"JuanEstebanGuzmanAcosta10","gender":"0","age":"9","school":"4"},{"start_time":1552069522767,"click_time":1552069523909,"finger_time":1552069523530,"fix_duration":555.3177706497391,"trial":31,"RT":763,"MT":379,"sideResp":2,"stimulus":"img/900/equaldotanddens/L/2_Ratio_900_L_20_R_18.png","xmouse":[759,759,759,759,759,759,759,759,759,759,759,759,759,759,759,759,759,759,759,759,759,759,759,759,759,759,759,759,759,759,759,759,759,759,760,765,784,825,880,954,1056,1102,1138,1154,1170,1173,1174,1177,1178,1180,1180,1180,1180,1180,1176,1170,1160,1148],"ymouse":[633,633,633,633,633,633,633,633,633,633,633,633,633,633,633,633,633,633,633,633,633,633,633,633,633,633,633,633,633,633,633,633,633,633,633,632,614,576,521,445,319,278,244,218,185,177,174,167,162,157,149,147,145,141,126,113,94,69],"timestamp_mouse":[10,22,43,62,82,103,123,143,163,182,202,223,242,262,282,302,322,343,362,382,402,423,442,462,482,503,524,543,562,583,603,623,642,663,683,702,723,743,763,782,802,822,842,863,883,902,923,942,962,982,1003,1022,1042,1063,1083,1102,1123,1142],"xSR":741.5,"ySR":573.95,"xT1":424.9,"yT1":0,"xT2":1058.1,"yT2":0,"toosoon":0,"cond_shown":"equaldotanddens","ratio_trial":900,"smaller_num":"18","larger_num":"20","correct_side":1,"subjID":"JuanEstebanGuzmanAcosta10","gender":"0","age":"9","school":"4"},{"start_time":1552069525763,"click_time":1552069526631,"finger_time":1552069526529,"fix_duration":250,"trial":32,"RT":766,"MT":102,"sideResp":2,"stimulus":"img/500/equaldotanddens/R/9_Ratio_500_L_2_R_4.png","xmouse":[750,750,750,750,750,750,750,750,750,750,750,750,750,750,750,750,750,750,750,750,750,750,750,750,750,750,750,750,750,750,750,750,750,750,750,750,765,793,826,862,952,1008,1067,1127],"ymouse":[627,627,627,627,627,627,627,627,627,627,627,627,627,627,627,627,627,627,627,627,627,627,627,627,627,627,627,627,627,627,627,627,627,627,627,627,614,591,559,518,406,312,208,99],"timestamp_mouse":[12,32,47,66,86,106,127,146,166,186,206,226,247,266,287,306,327,346,366,386,407,427,447,467,486,507,528,547,566,587,606,626,646,666,687,706,727,747,766,786,806,827,846,867],"xSR":741.5,"ySR":573.95,"xT1":424.9,"yT1":0,"xT2":1058.1,"yT2":0,"toosoon":0,"cond_shown":"equaldotanddens","ratio_trial":500,"smaller_num":"2","larger_num":"4","correct_side":2,"subjID":"JuanEstebanGuzmanAcosta10","gender":"0","age":"9","school":"4"},{"start_time":1552069529776,"click_time":1552069530729,"finger_time":1552069530549,"fix_duration":944.3459892088378,"trial":33,"RT":773,"MT":180,"sideResp":2,"stimulus":"img/750/equaldotanddens/R/12_Ratio_750_L_3_R_4.png","xmouse":[811,811,811,811,811,811,811,811,811,811,811,811,811,811,811,811,811,811,811,811,811,811,811,811,811,811,811,811,811,811,811,811,811,811,813,817,823,832,849,903,928,955,1002,1028,1046,1052,1056,1059],"ymouse":[649,649,649,649,649,649,649,649,649,649,649,649,649,649,649,649,649,649,649,649,649,649,649,649,649,649,649,649,649,649,649,649,649,649,642,632,616,596,554,449,400,354,269,220,154,139,119,97],"timestamp_mouse":[13,39,53,73,93,114,133,154,174,193,213,233,254,273,293,313,333,354,374,393,414,434,453,473,493,514,533,554,573,593,614,633,654,673,693,714,734,754,773,793,813,834,853,873,893,913,933,953],"xSR":741.5,"ySR":573.95,"xT1":424.9,"yT1":0,"xT2":1058.1,"yT2":0,"toosoon":0,"cond_shown":"equaldotanddens","ratio_trial":750,"smaller_num":"3","larger_num":"4","correct_side":2,"subjID":"JuanEstebanGuzmanAcosta10","gender":"0","age":"9","school":"4"},{"start_time":1552069532101,"click_time":1552069533389,"finger_time":1552069532970,"fix_duration":250,"trial":34,"RT":869,"MT":419,"sideResp":1,"stimulus":"img/750/equaldotsize/L/9_Ratio_750_L_4_R_3.png","xmouse":[825,825,825,825,825,825,825,825,825,825,825,825,825,825,825,825,825,825,825,825,825,825,825,825,825,825,825,825,825,825,825,825,825,825,825,825,825,825,825,825,825,825,826,846,856,864,868,870,870,870,870,870,870,870,870,869,859,777,610,571,556,549,537,524,490],"ymouse":[623,623,623,623,623,623,623,623,623,623,623,623,623,623,623,623,623,623,623,623,623,623,623,623,623,623,623,623,623,623,623,623,623,623,623,623,623,623,623,623,623,622,619,598,582,570,565,563,563,563,563,563,563,563,563,563,563,552,480,450,421,372,283,183,72],"timestamp_mouse":[14,28,49,69,88,109,128,148,168,188,209,229,250,269,289,308,328,348,368,388,408,428,449,469,489,509,529,550,569,588,609,629,648,668,689,708,728,749,769,788,808,829,849,869,888,908,928,948,969,989,1009,1029,1048,1068,1089,1108,1128,1148,1169,1188,1208,1228,1248,1268,1288],"xSR":741.5,"ySR":573.95,"xT1":424.9,"yT1":0,"xT2":1058.1,"yT2":0,"toosoon":0,"cond_shown":"equaldotsize","ratio_trial":750,"smaller_num":"3","larger_num":"4","correct_side":1,"subjID":"JuanEstebanGuzmanAcosta10","gender":"0","age":"9","school":"4"},{"start_time":1552069546004,"click_time":1552069546890,"finger_time":1552069546649,"fix_duration":1213.9115560433418,"trial":35,"RT":645,"MT":241,"sideResp":2,"stimulus":"img/900/equaldotsize/R/9_Ratio_900_L_18_R_20.png","xmouse":[809,809,809,809,809,809,809,809,809,809,809,809,809,809,809,809,809,809,809,809,809,809,809,809,809,809,809,809,809,809,815,828,846,861,867,869,869,874,879,893,939,981,1020,1056,1085],"ymouse":[615,615,615,615,615,615,615,615,615,615,615,615,615,615,615,615,615,615,615,615,615,615,615,615,615,615,615,615,615,615,602,581,556,540,535,533,532,528,517,497,390,283,191,108,45],"timestamp_mouse":[10,25,46,70,85,105,125,146,165,186,205,226,245,265,286,305,325,345,366,386,406,426,446,465,485,505,525,545,565,586,605,626,645,666,685,705,726,746,766,785,805,826,845,866,885],"xSR":741.5,"ySR":573.95,"xT1":424.9,"yT1":0,"xT2":1058.1,"yT2":0,"toosoon":0,"cond_shown":"equaldotsize","ratio_trial":900,"smaller_num":"18","larger_num":"20","correct_side":2,"subjID":"JuanEstebanGuzmanAcosta10","gender":"0","age":"9","school":"4"},{"start_time":1552069548474,"click_time":1552069550429,"finger_time":1552069549990,"fix_duration":682.9777884682062,"trial":36,"RT":1516,"MT":439,"sideResp":2,"stimulus":"img/500/equaldotanddens/R/14_Ratio_500_L_5_R_10.png","xmouse":[771,771,771,771,771,771,771,771,771,771,771,771,771,771,771,771,771,771,771,771,771,771,771,771,771,771,771,771,771,771,773,777,777,777,777,777,777,777,777,777,777,777,777,777,777,777,777,777,777,777,777,777,777,777,777,777,777,777,777,777,777,777,777,777,777,777,777,777,777,777,777,777,779,781,785,791,799,831,876,918,957,995,1001,1003,1005,1005,1005,1005,1005,1005,1005,1005,1006,1009,1017,1030,1044,1069],"ymouse":[618,618,618,617,617,617,617,617,617,617,617,617,617,617,617,617,617,617,617,617,617,617,617,617,617,617,617,617,617,616,609,600,600,600,600,600,600,600,600,600,600,600,600,600,600,600,600,600,600,600,600,600,600,600,600,600,600,600,600,600,600,600,600,600,600,600,600,600,600,600,600,599,593,589,579,563,539,458,351,272,208,128,112,105,103,102,102,102,102,102,102,102,101,98,91,84,77,62],"timestamp_mouse":[16,35,56,76,96,116,135,156,176,195,215,235,257,276,296,316,336,355,375,395,416,434,455,476,496,515,536,556,575,596,616,635,656,675,695,715,735,756,776,795,815,836,856,876,895,916,935,956,976,995,1015,1036,1056,1075,1095,1115,1136,1155,1177,1195,1216,1235,1256,1276,1296,1315,1336,1356,1376,1395,1415,1436,1456,1475,1495,1516,1535,1555,1575,1595,1616,1636,1655,1675,1695,1715,1736,1755,1775,1795,1816,1836,1855,1875,1895,1915,1935,1955],"xSR":741.5,"ySR":573.95,"xT1":424.9,"yT1":0,"xT2":1058.1,"yT2":0,"toosoon":0,"cond_shown":"equaldotanddens","ratio_trial":500,"smaller_num":"5","larger_num":"10","correct_side":2,"subjID":"JuanEstebanGuzmanAcosta10","gender":"0","age":"9","school":"4"},{"start_time":1552069557419,"click_time":1552069558510,"finger_time":1552069558350,"fix_duration":1228.0836251142307,"trial":37,"RT":931,"MT":160,"sideResp":1,"stimulus":"img/500/equaldotanddens/L/11_Ratio_500_L_12_R_6.png","xmouse":[763,763,763,763,763,763,763,763,763,763,763,763,763,763,763,763,763,763,763,763,763,763,763,763,763,763,763,763,763,763,763,763,763,763,763,763,763,763,763,763,763,763,763,763,764,764,764,754,737,694,673,613,573,532,509],"ymouse":[631,631,631,631,631,631,631,631,631,631,631,631,631,631,631,631,631,631,631,631,631,631,631,631,631,631,631,631,631,631,631,631,631,631,631,631,631,631,631,631,631,631,631,631,630,600,513,370,341,287,250,184,150,116,97],"timestamp_mouse":[10,30,51,70,90,110,131,151,170,192,211,230,251,270,290,311,330,351,370,391,411,430,450,471,490,510,530,551,570,590,610,631,650,671,690,710,730,750,770,791,810,830,851,871,890,911,931,950,970,990,1010,1030,1050,1070,1091],"xSR":741.5,"ySR":573.95,"xT1":424.9,"yT1":0,"xT2":1058.1,"yT2":0,"toosoon":0,"cond_shown":"equaldotanddens","ratio_trial":500,"smaller_num":"6","larger_num":"12","correct_side":1,"subjID":"JuanEstebanGuzmanAcosta10","gender":"0","age":"9","school":"4"},{"start_time":1552069559861,"click_time":1552069560910,"finger_time":1552069560549,"fix_duration":250,"trial":38,"RT":688,"MT":361,"sideResp":2,"stimulus":"img/900/equaldotsize/L/1_Ratio_900_L_10_R_9.png","xmouse":[774,774,774,774,774,774,774,774,774,774,774,774,774,774,774,774,774,774,774,774,774,774,774,774,774,774,774,774,774,774,774,774,774,782,886,920,1036,1102,1146,1168,1168,1169,1169,1172,1174,1174,1173,1173,1172,1166,1164,1162,1158],"ymouse":[622,622,622,622,622,622,622,622,622,622,622,622,622,622,622,622,622,622,622,622,622,622,622,622,622,622,622,622,622,622,622,622,623,617,502,467,359,282,226,166,142,123,112,95,62,56,54,54,54,54,54,55,57],"timestamp_mouse":[10,41,48,68,88,109,129,149,169,188,208,229,249,268,289,309,329,349,369,388,408,428,448,469,489,508,529,549,569,588,609,628,648,668,688,709,728,748,769,788,808,828,849,869,888,908,929,948,969,988,1009,1029,1048],"xSR":741.5,"ySR":573.95,"xT1":424.9,"yT1":0,"xT2":1058.1,"yT2":0,"toosoon":0,"cond_shown":"equaldotsize","ratio_trial":900,"smaller_num":"9","larger_num":"10","correct_side":1,"subjID":"JuanEstebanGuzmanAcosta10","gender":"0","age":"9","school":"4"},{"start_time":1552069570022,"click_time":1552069571030,"finger_time":1552069570869,"fix_duration":250,"trial":39,"RT":847,"MT":161,"sideResp":2,"stimulus":"img/500/equaldotsize/R/15_Ratio_500_L_1_R_2.png","xmouse":[823,823,823,823,824,824,824,824,824,824,824,824,824,824,824,824,824,824,824,824,824,824,824,824,824,824,825,825,825,825,825,825,825,825,825,825,825,825,825,825,825,829,870,913,957,990,1004,1020,1028,1049,1076],"ymouse":[651,651,651,651,651,651,651,651,651,651,651,651,651,651,651,651,651,651,651,651,651,651,651,651,651,651,651,651,651,651,651,651,651,651,651,651,651,651,651,651,651,651,630,604,571,535,507,423,348,212,10],"timestamp_mouse":[11,28,48,68,88,108,128,148,167,187,207,227,247,267,288,308,327,348,368,387,408,428,447,469,487,508,528,547,568,587,607,628,648,667,687,707,727,748,767,788,807,828,847,867,887,908,928,947,967,988,1008],"xSR":741.5,"ySR":573.95,"xT1":424.9,"yT1":0,"xT2":1058.1,"yT2":0,"toosoon":0,"cond_shown":"equaldotsize","ratio_trial":500,"smaller_num":"1","larger_num":"2","correct_side":2,"subjID":"JuanEstebanGuzmanAcosta10","gender":"0","age":"9","school":"4"},{"start_time":1552069572483,"click_time":1552069574329,"finger_time":1552069574129,"fix_duration":250,"trial":40,"RT":1646,"MT":200,"sideResp":2,"stimulus":"img/250/randomdotsizeEA/R/11_Ratio_250_L_3_R_12.png","xmouse":[758,758,758,758,758,758,758,758,758,758,758,758,758,758,758,758,758,758,758,758,758,758,758,758,758,758,758,758,758,758,758,758,758,758,758,758,758,758,758,758,758,758,758,758,758,758,758,758,758,758,758,758,758,758,758,758,758,758,758,758,758,758,758,758,758,758,758,758,758,758,758,758,758,758,758,758,758,758,758,758,758,779,841,926,1068,1098,1114,1122,1131,1134,1134,1134,1134],"ymouse":[600,600,600,600,600,600,600,600,600,600,600,600,600,600,600,600,600,600,600,600,600,600,600,600,600,600,600,600,600,600,600,600,600,600,600,600,600,600,600,600,600,600,600,600,600,600,600,600,600,600,600,600,600,600,600,600,600,600,600,600,600,600,600,600,600,600,600,600,600,600,600,600,600,600,600,600,600,600,600,600,600,577,525,455,352,321,292,268,225,164,137,115,93],"timestamp_mouse":[9,27,47,66,86,106,128,146,166,186,206,226,246,266,286,307,327,348,367,386,407,426,447,467,486,506,527,547,567,586,606,626,647,668,686,706,726,747,766,786,806,827,846,867,886,906,926,946,966,986,1007,1028,1046,1067,1086,1106,1127,1146,1166,1186,1207,1227,1246,1267,1287,1307,1326,1347,1366,1386,1407,1426,1447,1467,1486,1507,1527,1546,1567,1587,1606,1626,1646,1667,1686,1706,1727,1747,1767,1786,1806,1826,1846],"xSR":741.5,"ySR":573.95,"xT1":424.9,"yT1":0,"xT2":1058.1,"yT2":0,"toosoon":0,"cond_shown":"randomdotsizeEA","ratio_trial":250,"smaller_num":"3","larger_num":"12","correct_side":2,"subjID":"JuanEstebanGuzmanAcosta10","gender":"0","age":"9","school":"4"},{"start_time":1552069577054,"click_time":1552069579189,"finger_time":1552069578629,"fix_duration":1104.8127557820103,"trial":41,"RT":1575,"MT":560,"sideResp":1,"stimulus":"img/750/randomdotsizeEA/L/8_Ratio_750_L_4_R_3.png","xmouse":[769,769,769,769,769,769,769,769,769,769,769,769,769,769,769,769,769,769,769,769,769,769,769,769,769,769,769,769,769,769,769,769,769,769,769,769,769,769,771,774,775,775,775,775,775,775,775,775,775,775,775,775,775,775,775,775,775,775,775,775,775,775,775,775,775,775,775,776,777,777,777,777,777,777,777,778,780,780,780,773,763,732,710,687,668,654,638,636,633,631,629,629,629,630,634,635,633,624,613,591,568,553,542,531,523,516,508],"ymouse":[640,640,640,640,640,640,640,640,640,640,640,640,640,640,640,640,640,640,640,640,640,640,640,640,640,640,640,640,640,640,640,640,640,640,640,640,640,640,638,636,634,634,634,634,634,634,634,634,634,634,634,634,634,634,634,634,634,634,634,634,634,634,634,634,634,634,634,632,631,631,631,631,631,631,631,631,613,583,569,543,518,448,406,369,337,313,283,277,269,262,256,245,238,231,218,208,194,182,175,166,154,143,132,122,111,101,87],"timestamp_mouse":[15,36,66,76,95,115,135,156,175,196,215,235,255,276,295,315,336,356,375,396,416,435,455,476,495,515,536,555,576,595,616,635,655,676,696,716,735,756,776,795,816,835,855,875,895,916,935,955,976,996,1016,1035,1055,1076,1096,1115,1135,1156,1176,1196,1216,1236,1256,1275,1297,1316,1335,1355,1376,1395,1416,1435,1456,1476,1496,1516,1535,1555,1575,1596,1616,1635,1657,1675,1696,1715,1735,1755,1775,1795,1817,1835,1856,1875,1896,1916,1935,1957,1975,1996,2015,2035,2055,2075,2096,2116,2135],"xSR":741.5,"ySR":573.95,"xT1":424.9,"yT1":0,"xT2":1058.1,"yT2":0,"toosoon":0,"cond_shown":"randomdotsizeEA","ratio_trial":750,"smaller_num":"3","larger_num":"4","correct_side":1,"subjID":"JuanEstebanGuzmanAcosta10","gender":"0","age":"9","school":"4"},{"start_time":1552069581409,"click_time":1552069582170,"finger_time":1552069582089,"fix_duration":1399.0620858972727,"trial":42,"RT":680,"MT":81,"sideResp":1,"stimulus":"img/250/equaldotsize/L/7_Ratio_250_L_8_R_2.png","xmouse":[821,821,821,821,821,821,821,821,821,821,821,821,821,821,821,821,821,821,821,821,821,821,821,821,821,821,821,821,821,821,821,821,820,817,779,720,635,553,491],"ymouse":[598,598,598,598,598,598,598,598,598,598,598,598,598,598,598,598,598,598,598,598,598,598,598,598,598,598,598,598,598,598,598,598,598,591,456,327,190,93,43],"timestamp_mouse":[10,20,44,60,80,100,120,141,160,180,200,220,240,260,280,300,321,340,361,380,400,420,440,461,480,500,521,541,560,580,601,622,640,661,680,700,721,740,761],"xSR":741.5,"ySR":573.95,"xT1":424.9,"yT1":0,"xT2":1058.1,"yT2":0,"toosoon":0,"cond_shown":"equaldotsize","ratio_trial":250,"smaller_num":"2","larger_num":"8","correct_side":1,"subjID":"JuanEstebanGuzmanAcosta10","gender":"0","age":"9","school":"4"},{"start_time":1552069585421,"click_time":1552069586390,"finger_time":1552069586129,"fix_duration":1070.8647774547635,"trial":43,"RT":708,"MT":261,"sideResp":2,"stimulus":"img/900/randomdotsizeEA/R/11_Ratio_900_L_18_R_20.png","xmouse":[807,807,807,807,807,807,807,807,807,807,807,807,807,807,807,807,807,807,807,807,807,807,807,807,807,807,807,807,807,807,807,807,807,808,822,847,870,897,954,971,983,999,1010,1028,1035,1047,1076,1082,1085],"ymouse":[605,605,605,605,605,605,605,605,605,605,605,605,605,605,605,605,605,605,605,605,605,605,605,605,605,605,605,605,605,605,605,605,605,605,590,554,519,471,361,323,294,260,237,202,186,166,118,101,92],"timestamp_mouse":[9,28,48,69,88,108,128,149,168,188,208,229,248,269,290,308,328,348,368,389,408,429,449,469,488,509,528,549,569,589,609,629,648,669,689,708,728,748,769,789,809,829,848,869,888,908,928,948,969],"xSR":741.5,"ySR":573.95,"xT1":424.9,"yT1":0,"xT2":1058.1,"yT2":0,"toosoon":0,"cond_shown":"randomdotsizeEA","ratio_trial":900,"smaller_num":"18","larger_num":"20","correct_side":2,"subjID":"JuanEstebanGuzmanAcosta10","gender":"0","age":"9","school":"4"},{"start_time":1552069588349,"click_time":1552069589509,"finger_time":1552069589031,"fix_duration":638.6502755125001,"trial":44,"RT":682,"MT":478,"sideResp":1,"stimulus":"img/750/equaldotanddens/L/6_Ratio_750_L_24_R_18.png","xmouse":[787,787,787,787,787,787,787,787,787,787,787,787,787,787,787,787,787,787,787,787,787,787,787,787,787,787,787,787,787,787,787,787,782,757,741,727,714,704,697,695,692,687,682,660,638,612,598,589,586,586,586,586,583,570,561,555,549,542,520],"ymouse":[615,615,615,615,615,615,615,615,615,615,615,615,615,615,615,615,615,615,615,615,615,615,615,615,615,615,615,615,615,615,615,615,615,601,591,579,559,531,486,470,456,437,417,361,312,276,254,239,209,195,181,172,165,147,137,129,121,110,85],"timestamp_mouse":[10,20,40,60,80,100,121,141,160,180,201,220,241,260,280,301,320,340,361,380,401,420,440,460,481,501,521,540,561,581,602,620,640,660,682,700,721,741,760,780,800,820,840,861,881,901,921,941,960,981,1000,1021,1041,1060,1080,1101,1120,1140,1160],"xSR":741.5,"ySR":573.95,"xT1":424.9,"yT1":0,"xT2":1058.1,"yT2":0,"toosoon":0,"cond_shown":"equaldotanddens","ratio_trial":750,"smaller_num":"18","larger_num":"24","correct_side":1,"subjID":"JuanEstebanGuzmanAcosta10","gender":"0","age":"9","school":"4"},{"start_time":1552069591765,"click_time":1552069592690,"finger_time":1552069592429,"fix_duration":1293.0945799821814,"trial":45,"RT":664,"MT":261,"sideResp":2,"stimulus":"img/900/equaldotanddens/L/10_Ratio_900_L_20_R_18.png","xmouse":[808,808,808,808,808,808,808,808,808,808,808,808,808,808,808,808,808,808,808,808,808,808,808,808,808,808,808,808,808,808,808,826,839,917,974,1003,1031,1074,1094,1109,1121,1131,1147,1153,1156,1158,1158],"ymouse":[603,603,603,603,603,603,603,603,603,603,603,603,603,603,603,603,603,603,603,603,603,603,603,603,603,603,603,603,603,603,603,591,578,478,403,361,322,248,216,192,172,156,131,119,110,101,99],"timestamp_mouse":[9,24,45,65,84,105,124,144,165,185,205,225,244,264,285,305,325,344,365,385,405,425,445,464,484,505,525,544,564,584,604,625,645,664,684,704,725,744,764,785,805,825,845,864,884,904,925],"xSR":741.5,"ySR":573.95,"xT1":424.9,"yT1":0,"xT2":1058.1,"yT2":0,"toosoon":0,"cond_shown":"equaldotanddens","ratio_trial":900,"smaller_num":"18","larger_num":"20","correct_side":1,"subjID":"JuanEstebanGuzmanAcosta10","gender":"0","age":"9","school":"4"},{"start_time":1552069594349,"click_time":1552069595711,"finger_time":1552069595409,"fix_duration":677.9247103191601,"trial":46,"RT":1060,"MT":302,"sideResp":2,"stimulus":"img/250/randomdotsizeEA/L/5_Ratio_250_L_24_R_6.png","xmouse":[751,751,751,751,751,751,751,751,751,751,751,751,751,751,751,751,751,751,751,751,751,751,751,751,751,751,751,751,751,751,751,751,751,751,751,751,751,751,751,751,751,751,751,751,751,751,751,751,751,751,751,753,762,788,878,916,942,956,969,992,1001,1014,1027,1044,1050,1052,1052,1052,1061],"ymouse":[648,648,648,648,648,648,648,648,648,648,648,648,648,648,648,648,648,648,648,648,648,648,648,648,648,648,648,648,648,648,648,648,648,648,648,648,648,648,648,648,648,648,648,648,648,648,648,648,648,648,648,639,618,547,321,242,180,147,123,83,68,53,38,22,19,18,18,18,17],"timestamp_mouse":[11,20,44,60,80,100,121,140,160,180,201,220,241,262,282,301,321,340,361,380,401,421,440,461,481,501,521,541,560,580,600,621,640,660,680,700,720,740,761,781,800,821,840,860,880,901,921,941,961,980,1000,1021,1042,1060,1080,1101,1122,1140,1160,1180,1201,1220,1240,1262,1281,1301,1320,1341,1362],"xSR":741.5,"ySR":573.95,"xT1":424.9,"yT1":0,"xT2":1058.1,"yT2":0,"toosoon":0,"cond_shown":"randomdotsizeEA","ratio_trial":250,"smaller_num":"6","larger_num":"24","correct_side":1,"subjID":"JuanEstebanGuzmanAcosta10","gender":"0","age":"9","school":"4"},{"start_time":1552069598151,"click_time":1552069599510,"finger_time":1552069598869,"fix_duration":520.874435016253,"trial":47,"RT":718,"MT":641,"sideResp":2,"stimulus":"img/250/equaldotsize/R/9_Ratio_250_L_3_R_12.png","xmouse":[757,757,757,757,757,757,757,757,757,757,757,757,757,757,757,757,757,757,757,757,757,757,757,757,757,757,757,757,757,757,757,757,757,757,757,768,777,806,906,957,1002,1033,1066,1170,1182,1193,1202,1210,1222,1223,1223,1223,1223,1210,1167,1123,1086,1071,1070,1070,1070,1070,1072,1083,1091,1097,1102,1103],"ymouse":[588,588,588,588,588,588,588,588,588,588,588,588,588,588,588,588,588,588,588,588,588,588,588,588,588,588,588,588,588,588,588,588,588,588,588,572,559,513,374,298,235,193,127,0,0,0,0,0,0,0,0,0,0,18,71,116,145,156,156,156,156,156,153,138,124,112,104,98],"timestamp_mouse":[19,39,58,78,99,119,138,159,178,198,219,238,259,278,299,318,339,359,378,398,419,438,459,478,499,518,539,559,578,599,619,638,659,679,699,718,738,759,779,798,819,838,858,879,900,918,938,959,978,998,1018,1038,1059,1078,1098,1120,1138,1159,1179,1198,1218,1239,1259,1280,1298,1320,1339,1359],"xSR":741.5,"ySR":573.95,"xT1":424.9,"yT1":0,"xT2":1058.1,"yT2":0,"toosoon":0,"cond_shown":"equaldotsize","ratio_trial":250,"smaller_num":"3","larger_num":"12","correct_side":2,"subjID":"JuanEstebanGuzmanAcosta10","gender":"0","age":"9","school":"4"},{"start_time":1552069601603,"click_time":1552069602850,"finger_time":1552069602470,"fix_duration":1312.521599704108,"trial":48,"RT":867,"MT":380,"sideResp":1,"stimulus":"img/750/equaldotsize/L/6_Ratio_750_L_24_R_18.png","xmouse":[789,789,789,789,789,789,789,789,789,789,789,789,789,789,789,789,789,789,789,789,789,789,789,789,789,789,789,789,789,789,789,789,789,789,789,789,789,789,789,789,789,789,780,755,721,675,637,599,589,586,580,566,555,544,538,537,537,537,537,537,537,530,519],"ymouse":[653,653,653,653,653,653,653,653,653,653,653,653,653,653,653,653,653,653,653,653,653,653,653,653,653,653,653,653,653,653,653,653,653,653,653,653,653,653,653,653,653,653,605,528,445,348,276,209,172,152,132,87,64,48,39,37,37,37,37,37,37,40,46],"timestamp_mouse":[10,42,47,67,87,107,127,146,166,188,207,227,246,267,286,307,327,346,367,386,406,427,447,466,487,506,526,547,567,586,608,626,646,666,686,706,726,748,767,786,807,826,846,867,887,907,926,946,966,986,1006,1027,1046,1066,1087,1106,1127,1146,1166,1187,1206,1227,1247],"xSR":741.5,"ySR":573.95,"xT1":424.9,"yT1":0,"xT2":1058.1,"yT2":0,"toosoon":0,"cond_shown":"equaldotsize","ratio_trial":750,"smaller_num":"18","larger_num":"24","correct_side":1,"subjID":"JuanEstebanGuzmanAcosta10","gender":"0","age":"9","school":"4"},{"start_time":1552069603963,"click_time":1552069605051,"finger_time":1552069604709,"fix_duration":250,"trial":49,"RT":746,"MT":342,"sideResp":1,"stimulus":"img/750/equaldotsize/L/8_Ratio_750_L_4_R_3.png","xmouse":[764,764,764,764,764,764,764,764,764,764,764,764,764,764,764,764,764,764,764,764,764,764,764,764,764,764,764,764,764,764,764,764,764,764,764,764,764,762,749,675,649,638,626,613,602,601,598,594,590,576,571,563,551,541,509],"ymouse":[612,612,612,612,612,612,612,612,612,612,612,612,612,612,612,612,612,612,612,612,612,612,612,612,612,612,612,612,612,612,612,612,612,612,612,611,600,566,517,304,240,212,183,153,119,105,92,84,77,71,71,72,76,77,76],"timestamp_mouse":[12,37,46,67,86,106,127,146,166,186,206,226,247,267,286,306,327,347,366,386,406,427,446,467,486,507,526,547,567,588,608,627,647,666,686,706,726,746,767,786,806,826,846,867,887,908,926,946,967,986,1006,1026,1047,1067,1087],"xSR":741.5,"ySR":573.95,"xT1":424.9,"yT1":0,"xT2":1058.1,"yT2":0,"toosoon":0,"cond_shown":"equaldotsize","ratio_trial":750,"smaller_num":"3","larger_num":"4","correct_side":1,"subjID":"JuanEstebanGuzmanAcosta10","gender":"0","age":"9","school":"4"},{"start_time":1552069606375,"click_time":1552069607590,"finger_time":1552069607089,"fix_duration":584.9153248560966,"trial":50,"RT":714,"MT":501,"sideResp":2,"stimulus":"img/750/randomdotsizeEA/R/4_Ratio_750_L_15_R_20.png","xmouse":[769,769,769,769,769,769,769,769,769,769,769,769,769,769,769,769,769,769,769,769,769,769,769,769,769,769,769,769,769,769,769,769,773,780,785,789,792,794,795,795,795,795,802,815,860,892,925,956,1036,1066,1086,1097,1101,1113,1124,1135,1142,1142,1142,1142,1141],"ymouse":[632,632,632,632,632,632,632,632,632,632,632,632,632,632,632,632,632,632,632,632,632,632,632,632,632,632,632,632,632,632,632,632,629,596,578,564,555,548,546,546,546,545,534,512,432,369,293,223,21,0,0,0,0,0,0,0,0,0,0,0,5],"timestamp_mouse":[14,34,55,74,95,115,134,154,174,195,214,235,255,274,294,315,334,355,374,394,415,435,454,474,495,514,535,555,574,595,614,634,655,675,695,714,734,755,774,794,815,835,854,874,895,914,935,956,974,994,1014,1034,1055,1076,1096,1115,1134,1155,1175,1194,1215],"xSR":741.5,"ySR":573.95,"xT1":424.9,"yT1":0,"xT2":1058.1,"yT2":0,"toosoon":0,"cond_shown":"randomdotsizeEA","ratio_trial":750,"smaller_num":"15","larger_num":"20","correct_side":2,"subjID":"JuanEstebanGuzmanAcosta10","gender":"0","age":"9","school":"4"},{"start_time":1552069610712,"click_time":1552069611551,"finger_time":1552069611429,"fix_duration":821.9610366091147,"trial":51,"RT":717,"MT":122,"sideResp":2,"stimulus":"img/900/randomdotsizeEA/R/3_Ratio_900_L_9_R_10.png","xmouse":[807,807,807,807,807,807,807,807,807,807,807,807,807,807,807,807,807,807,807,807,807,807,807,807,807,807,807,807,807,807,807,807,807,807,807,837,949,998,1026,1048,1058,1070],"ymouse":[630,630,630,630,630,630,630,630,630,630,630,630,630,630,630,630,630,630,630,630,630,630,630,630,630,630,630,630,630,630,630,630,630,628,615,531,285,195,149,114,99,76],"timestamp_mouse":[17,49,57,77,97,118,138,157,177,198,217,237,257,279,297,317,337,358,377,397,418,437,458,478,497,518,537,557,579,598,618,638,658,677,697,717,739,757,778,797,818,838],"xSR":741.5,"ySR":573.95,"xT1":424.9,"yT1":0,"xT2":1058.1,"yT2":0,"toosoon":0,"cond_shown":"randomdotsizeEA","ratio_trial":900,"smaller_num":"9","larger_num":"10","correct_side":2,"subjID":"JuanEstebanGuzmanAcosta10","gender":"0","age":"9","school":"4"},{"start_time":1552069613057,"click_time":1552069614010,"finger_time":1552069613710,"fix_duration":625.2072315407986,"trial":52,"RT":653,"MT":300,"sideResp":1,"stimulus":"img/500/randomdotsizeEA/L/10_Ratio_500_L_4_R_2.png","xmouse":[806,806,806,806,806,806,806,806,806,806,806,806,806,806,806,806,806,806,806,806,806,806,806,806,806,806,806,806,806,806,794,785,777,765,746,705,688,675,662,613,588,577,571,566,563,551,539,524],"ymouse":[651,651,651,651,651,651,651,651,651,651,651,651,651,651,651,651,651,651,651,651,651,651,651,651,651,651,651,651,651,650,626,599,570,517,454,352,314,284,263,205,177,169,163,160,158,136,119,99],"timestamp_mouse":[20,40,52,73,93,112,132,153,173,192,213,233,253,273,294,313,332,354,372,392,413,433,452,473,492,512,532,552,573,593,614,633,653,674,693,712,732,753,773,794,812,833,852,874,893,912,932,953],"xSR":741.5,"ySR":573.95,"xT1":424.9,"yT1":0,"xT2":1058.1,"yT2":0,"toosoon":0,"cond_shown":"randomdotsizeEA","ratio_trial":500,"smaller_num":"2","larger_num":"4","correct_side":1,"subjID":"JuanEstebanGuzmanAcosta10","gender":"0","age":"9","school":"4"},{"start_time":1552069617304,"click_time":1552069619570,"finger_time":1552069618910,"fix_duration":1173.3367933450836,"trial":53,"RT":1606,"MT":660,"sideResp":1,"stimulus":"img/250/equaldotsize/L/5_Ratio_250_L_24_R_6.png","xmouse":[777,777,777,777,777,777,777,777,777,777,777,777,777,777,777,777,777,777,777,777,777,777,777,777,777,777,777,777,777,777,777,777,777,777,777,777,777,777,777,777,777,777,777,777,777,777,777,777,777,777,777,777,777,777,777,777,777,777,777,777,777,777,777,777,777,777,777,777,777,777,777,777,777,777,777,777,777,777,777,777,724,673,671,671,671,671,671,671,671,671,671,671,670,658,585,466,415,397,373,344,290,238,209,202,200,203,204,207,226,238,255,275,301,455],"ymouse":[641,641,641,641,641,641,641,641,641,641,641,641,641,641,641,641,641,641,641,641,641,641,641,641,641,641,641,641,641,641,641,641,641,641,641,641,641,641,641,641,641,641,641,641,641,641,641,641,641,641,641,641,641,641,641,641,641,641,641,641,641,641,641,641,641,641,641,641,641,641,641,641,641,641,641,641,641,641,641,641,632,626,626,626,626,626,626,626,626,626,626,626,626,626,611,560,507,475,434,383,287,184,155,150,142,138,137,135,117,108,100,92,81,38],"timestamp_mouse":[9,25,45,65,85,105,126,146,165,187,205,226,246,265,287,306,325,345,365,386,406,425,445,465,486,505,525,546,565,586,606,625,645,665,685,705,725,745,765,785,805,825,847,865,886,906,926,945,965,987,1006,1026,1046,1065,1085,1105,1126,1146,1165,1186,1206,1225,1246,1266,1286,1305,1325,1345,1365,1386,1405,1425,1446,1466,1486,1506,1526,1546,1565,1586,1606,1626,1645,1666,1685,1705,1726,1746,1766,1785,1806,1825,1845,1866,1885,1905,1925,1945,1965,1985,2006,2025,2045,2066,2085,2105,2125,2145,2166,2185,2206,2225,2245,2266],"xSR":741.5,"ySR":573.95,"xT1":424.9,"yT1":0,"xT2":1058.1,"yT2":0,"toosoon":0,"cond_shown":"equaldotsize","ratio_trial":250,"smaller_num":"6","larger_num":"24","correct_side":1,"subjID":"JuanEstebanGuzmanAcosta10","gender":"0","age":"9","school":"4"},{"start_time":1552069622180,"click_time":1552069623450,"finger_time":1552069622870,"fix_duration":250,"trial":54,"RT":690,"MT":580,"sideResp":2,"stimulus":"img/250/equaldotsize/R/11_Ratio_250_L_3_R_12.png","xmouse":[795,795,795,795,795,795,795,795,795,795,795,795,795,795,795,795,795,795,795,795,795,795,795,795,795,795,795,795,795,795,795,795,795,798,809,841,859,879,896,914,931,938,943,947,949,954,959,965,971,982,1008,1021,1027,1030,1032,1035,1036,1037,1041,1044,1052,1056,1063,1072],"ymouse":[615,615,615,615,615,615,615,615,615,615,615,615,615,615,615,615,615,615,615,615,615,615,615,615,615,615,615,615,615,615,615,615,610,599,560,478,448,414,388,364,336,322,310,301,294,283,271,258,247,227,189,174,165,162,158,154,150,146,138,136,125,117,105,93],"timestamp_mouse":[11,30,50,69,89,110,129,149,170,190,210,230,250,270,289,309,330,349,370,389,409,430,450,469,489,510,529,550,570,590,610,629,649,670,690,710,731,751,770,790,809,830,849,870,889,910,930,950,969,989,1009,1029,1049,1069,1090,1109,1129,1149,1170,1190,1209,1230,1250,1269],"xSR":741.5,"ySR":573.95,"xT1":424.9,"yT1":0,"xT2":1058.1,"yT2":0,"toosoon":0,"cond_shown":"equaldotsize","ratio_trial":250,"smaller_num":"3","larger_num":"12","correct_side":2,"subjID":"JuanEstebanGuzmanAcosta10","gender":"0","age":"9","school":"4"},{"start_time":1552069625408,"click_time":1552069626169,"finger_time":1552069626010,"fix_duration":1317.1783024565136,"trial":55,"RT":602,"MT":159,"sideResp":1,"stimulus":"img/750/equaldotsize/L/13_Ratio_750_L_8_R_6.png","xmouse":[795,795,795,795,795,795,795,795,795,795,795,795,795,795,795,795,795,795,795,795,795,795,795,795,795,795,795,795,795,789,759,697,612,525,419,409,409,418,427],"ymouse":[626,626,626,626,626,626,626,626,626,626,626,626,626,626,626,626,626,626,626,626,626,626,626,626,626,626,626,626,626,611,546,454,340,238,114,97,92,76,65],"timestamp_mouse":[16,25,45,61,81,101,122,141,161,183,202,221,241,261,281,301,321,342,362,382,402,421,441,461,481,502,521,541,561,581,602,621,642,661,681,701,722,741,761],"xSR":741.5,"ySR":573.95,"xT1":424.9,"yT1":0,"xT2":1058.1,"yT2":0,"toosoon":0,"cond_shown":"equaldotsize","ratio_trial":750,"smaller_num":"6","larger_num":"8","correct_side":1,"subjID":"JuanEstebanGuzmanAcosta10","gender":"0","age":"9","school":"4"},{"start_time":1552069627673,"click_time":1552069629091,"finger_time":1552069628269,"fix_duration":380.42620061150944,"trial":56,"RT":596,"MT":822,"sideResp":1,"stimulus":"img/250/equaldotsize/L/3_Ratio_250_L_8_R_2.png","xmouse":[813,813,813,813,813,813,813,813,813,813,813,813,813,813,813,813,813,813,813,813,813,813,813,813,813,813,809,802,794,781,732,694,687,673,669,669,669,666,658,641,572,485,456,391,375,369,369,369,369,369,369,369,369,369,369,374,382,389,391,391,391,391,391,392,392,398,404,410,417,423,432],"ymouse":[603,603,603,604,604,604,604,604,604,604,604,604,604,604,604,604,604,604,604,604,604,604,604,604,604,604,601,594,583,565,498,456,448,433,428,427,427,424,414,395,317,206,165,70,37,16,14,14,14,14,14,14,14,14,14,14,14,14,15,15,15,15,15,15,15,18,21,24,27,30,35],"timestamp_mouse":[16,43,56,77,97,117,137,157,177,197,216,236,256,276,297,316,337,357,376,397,416,436,456,477,496,517,537,556,576,596,617,636,656,676,696,717,736,756,776,796,818,836,856,876,897,917,936,956,977,996,1017,1036,1056,1078,1096,1117,1136,1157,1176,1196,1217,1236,1256,1278,1296,1317,1336,1356,1376,1397,1418],"xSR":741.5,"ySR":573.95,"xT1":424.9,"yT1":0,"xT2":1058.1,"yT2":0,"toosoon":0,"cond_shown":"equaldotsize","ratio_trial":250,"smaller_num":"2","larger_num":"8","correct_side":1,"subjID":"JuanEstebanGuzmanAcosta10","gender":"0","age":"9","school":"4"},{"start_time":1552069631152,"click_time":1552069632390,"finger_time":1552069631809,"fix_duration":1200.090842050168,"trial":57,"RT":657,"MT":581,"sideResp":2,"stimulus":"img/900/equaldotsize/L/2_Ratio_900_L_20_R_18.png","xmouse":[748,748,748,748,748,748,748,748,748,748,748,748,748,748,748,748,748,748,748,748,748,748,748,748,748,748,748,748,748,752,757,766,798,813,824,835,842,859,867,880,893,905,931,942,952,959,973,982,986,992,998,1006,1016,1017,1017,1017,1018,1022,1031,1041,1053,1059],"ymouse":[631,631,631,631,631,631,631,631,631,631,631,631,631,631,631,631,631,631,631,631,631,631,631,631,631,631,631,631,631,628,623,611,566,547,535,524,516,497,488,474,460,444,404,376,341,317,289,265,255,240,220,194,126,109,99,96,96,91,88,80,73,71],"timestamp_mouse":[19,40,58,78,98,119,137,158,179,198,218,237,258,277,298,318,337,358,377,398,419,437,457,478,497,518,537,557,577,598,618,638,657,677,699,718,738,757,777,797,819,837,857,878,897,918,937,957,977,997,1018,1037,1059,1077,1097,1118,1137,1157,1178,1198,1218,1238],"xSR":741.5,"ySR":573.95,"xT1":424.9,"yT1":0,"xT2":1058.1,"yT2":0,"toosoon":0,"cond_shown":"equaldotsize","ratio_trial":900,"smaller_num":"18","larger_num":"20","correct_side":1,"subjID":"JuanEstebanGuzmanAcosta10","gender":"0","age":"9","school":"4"},{"start_time":1552069633883,"click_time":1552069634911,"finger_time":1552069634550,"fix_duration":272.7010194573938,"trial":58,"RT":667,"MT":361,"sideResp":1,"stimulus":"img/750/equaldotanddens/L/13_Ratio_750_L_8_R_6.png","xmouse":[753,753,753,753,753,753,755,758,759,759,759,759,759,759,760,760,761,761,761,761,761,761,761,761,761,761,761,761,761,761,761,761,759,758,754,747,738,735,742,742,729,715,690,676,658,636,622,621,610,602,567,508],"ymouse":[594,594,594,594,594,594,591,587,586,586,586,586,586,586,587,588,592,592,592,593,593,593,593,593,593,593,593,593,593,593,593,590,575,558,537,506,454,333,273,232,178,143,85,55,16,0,0,0,0,0,0,5],"timestamp_mouse":[9,39,47,66,86,106,126,147,166,187,206,226,246,266,286,307,326,346,366,387,408,426,447,467,487,507,527,547,566,587,607,626,647,667,686,707,726,747,766,786,807,826,847,867,886,907,928,947,967,986,1006,1028],"xSR":741.5,"ySR":573.95,"xT1":424.9,"yT1":0,"xT2":1058.1,"yT2":0,"toosoon":0,"cond_shown":"equaldotanddens","ratio_trial":750,"smaller_num":"6","larger_num":"8","correct_side":1,"subjID":"JuanEstebanGuzmanAcosta10","gender":"0","age":"9","school":"4"},{"start_time":1552069636477,"click_time":1552069637429,"finger_time":1552069637070,"fix_duration":566.8980199414448,"trial":59,"RT":593,"MT":359,"sideResp":2,"stimulus":"img/250/randomdotsizeEA/R/4_Ratio_250_L_3_R_12.png","xmouse":[756,756,756,756,756,756,756,756,757,758,759,759,759,760,760,760,760,760,760,760,760,760,760,760,760,761,763,778,796,836,875,918,976,986,996,1007,1068,1089,1111,1128,1132,1133,1136,1138,1140,1141,1141,1139],"ymouse":[632,632,632,632,632,632,630,630,630,629,628,627,627,627,627,627,627,627,627,627,627,627,627,627,627,626,625,614,601,571,541,499,414,393,371,350,264,248,231,215,205,198,182,167,149,129,106,98],"timestamp_mouse":[16,46,52,73,93,113,132,152,174,192,213,233,253,274,292,313,333,353,372,393,412,432,452,472,492,512,532,553,573,593,612,632,653,673,692,713,733,752,773,793,812,833,853,873,894,913,933,952],"xSR":741.5,"ySR":573.95,"xT1":424.9,"yT1":0,"xT2":1058.1,"yT2":0,"toosoon":0,"cond_shown":"randomdotsizeEA","ratio_trial":250,"smaller_num":"3","larger_num":"12","correct_side":2,"subjID":"JuanEstebanGuzmanAcosta10","gender":"0","age":"9","school":"4"},{"start_time":1552069639112,"click_time":1552069640169,"finger_time":1552069639710,"fix_duration":1021.022357077563,"trial":60,"RT":598,"MT":459,"sideResp":1,"stimulus":"img/500/randomdotsizeEA/L/13_Ratio_500_L_12_R_6.png","xmouse":[803,803,803,803,803,803,803,803,803,803,803,803,803,803,803,803,803,803,803,803,803,803,803,803,803,803,803,801,796,779,663,598,543,526,517,511,511,510,505,501,504,523,555,596,604,605,605,601,591,565,553,539,520],"ymouse":[594,594,594,594,594,594,594,594,594,594,594,594,594,594,594,594,594,594,594,594,594,594,594,594,594,594,594,593,582,547,431,385,348,327,300,222,196,176,156,147,142,138,131,119,117,116,116,113,112,104,99,92,85],"timestamp_mouse":[17,40,58,77,98,119,138,158,178,198,218,239,258,278,297,317,337,358,377,398,417,437,458,477,498,518,538,557,577,598,618,637,657,678,698,717,738,757,777,797,817,837,857,878,897,917,938,957,978,999,1017,1037,1057],"xSR":741.5,"ySR":573.95,"xT1":424.9,"yT1":0,"xT2":1058.1,"yT2":0,"toosoon":0,"cond_shown":"randomdotsizeEA","ratio_trial":500,"smaller_num":"6","larger_num":"12","correct_side":1,"subjID":"JuanEstebanGuzmanAcosta10","gender":"0","age":"9","school":"4"},{"start_time":1552069641040,"click_time":1552069641909,"finger_time":1552069641690,"fix_duration":250,"trial":61,"RT":650,"MT":219,"sideResp":2,"stimulus":"img/250/randomdotsizeEA/R/12_Ratio_250_L_5_R_20.png","xmouse":[820,820,820,820,819,819,819,819,819,819,819,818,818,818,817,817,817,817,817,817,817,817,817,817,817,817,817,817,817,818,823,827,840,862,938,982,1008,1017,1019,1031,1038,1042,1056,1082],"ymouse":[638,638,638,637,636,636,635,635,634,634,633,631,629,628,626,626,625,625,625,625,625,625,625,625,625,625,625,625,624,614,602,587,558,497,349,293,261,241,222,175,149,131,113,90],"timestamp_mouse":[11,42,49,70,89,109,129,149,169,190,211,229,250,269,289,310,329,349,369,389,409,430,450,470,489,510,530,550,569,589,609,631,650,670,689,711,729,749,769,789,810,829,849,869],"xSR":741.5,"ySR":573.95,"xT1":424.9,"yT1":0,"xT2":1058.1,"yT2":0,"toosoon":0,"cond_shown":"randomdotsizeEA","ratio_trial":250,"smaller_num":"5","larger_num":"20","correct_side":2,"subjID":"JuanEstebanGuzmanAcosta10","gender":"0","age":"9","school":"4"},{"start_time":1552069645343,"click_time":1552069646349,"finger_time":1552069645930,"fix_duration":1211.1645044402633,"trial":62,"RT":587,"MT":419,"sideResp":2,"stimulus":"img/250/equaldotsize/R/11_Ratio_250_L_3_R_12.png","xmouse":[800,800,800,800,800,800,800,800,800,800,800,800,800,800,800,800,800,800,800,800,800,800,800,800,800,800,800,800,805,821,842,868,916,953,1010,1025,1035,1041,1046,1054,1055,1056,1057,1057,1057,1057,1057,1058,1058,1063,1070],"ymouse":[604,604,604,604,604,604,604,604,604,604,604,604,604,604,604,604,604,604,604,604,604,604,604,604,604,604,604,604,593,561,526,481,403,341,261,239,219,205,192,169,163,153,143,133,125,113,110,109,108,102,92],"timestamp_mouse":[12,32,47,66,87,106,127,146,166,186,207,226,247,266,286,306,326,346,366,386,406,426,447,467,486,506,527,548,567,587,606,627,646,666,687,706,726,748,767,786,806,826,846,868,886,906,927,946,967,988,1006],"xSR":741.5,"ySR":573.95,"xT1":424.9,"yT1":0,"xT2":1058.1,"yT2":0,"toosoon":0,"cond_shown":"equaldotsize","ratio_trial":250,"smaller_num":"3","larger_num":"12","correct_side":2,"subjID":"JuanEstebanGuzmanAcosta10","gender":"0","age":"9","school":"4"},{"start_time":1552069647790,"click_time":1552069648410,"finger_time":1552069648310,"fix_duration":719.3828829919424,"trial":63,"RT":520,"MT":100,"sideResp":2,"stimulus":"img/250/equaldotanddens/R/11_Ratio_250_L_3_R_12.png","xmouse":[802,802,802,802,802,802,802,802,802,802,802,802,802,802,802,802,802,802,802,802,802,802,802,802,802,812,830,966,1031,1085,1111],"ymouse":[582,582,582,582,582,582,582,582,582,582,582,582,582,582,582,582,582,582,582,582,582,582,582,582,582,562,528,290,195,124,94],"timestamp_mouse":[19,41,60,79,100,119,140,160,181,200,221,240,259,280,299,320,339,359,380,401,420,440,459,479,499,520,540,559,581,599,620],"xSR":741.5,"ySR":573.95,"xT1":424.9,"yT1":0,"xT2":1058.1,"yT2":0,"toosoon":0,"cond_shown":"equaldotanddens","ratio_trial":250,"smaller_num":"3","larger_num":"12","correct_side":2,"subjID":"JuanEstebanGuzmanAcosta10","gender":"0","age":"9","school":"4"},{"start_time":1552069650943,"click_time":1552069651949,"finger_time":1552069651649,"fix_duration":352.57674589761245,"trial":64,"RT":706,"MT":300,"sideResp":1,"stimulus":"img/900/equaldotanddens/L/4_Ratio_900_L_20_R_18.png","xmouse":[776,776,776,776,776,776,776,776,776,776,776,776,776,776,776,776,776,776,776,776,776,776,776,776,776,776,776,776,776,776,776,780,782,782,783,772,761,756,753,750,749,747,735,720,709,705,698,678,617,574,497],"ymouse":[604,604,604,604,604,604,604,604,604,604,604,604,604,604,604,604,604,604,604,604,604,604,604,604,605,605,605,605,605,605,608,610,611,611,603,534,483,450,428,411,409,409,409,412,412,410,396,364,240,160,55],"timestamp_mouse":[14,26,47,66,86,106,127,146,167,186,206,226,246,267,286,307,326,347,366,386,406,427,448,467,487,506,526,546,567,588,606,626,646,666,686,706,726,747,767,786,806,827,847,867,887,906,926,946,966,986,1006],"xSR":741.5,"ySR":573.95,"xT1":424.9,"yT1":0,"xT2":1058.1,"yT2":0,"toosoon":0,"cond_shown":"equaldotanddens","ratio_trial":900,"smaller_num":"18","larger_num":"20","correct_side":1,"subjID":"JuanEstebanGuzmanAcosta10","gender":"0","age":"9","school":"4"},{"start_time":1552069653301,"click_time":1552069654650,"finger_time":1552069654170,"fix_duration":250,"trial":65,"RT":869,"MT":480,"sideResp":2,"stimulus":"img/900/randomdotsizeEA/R/15_Ratio_900_L_9_R_10.png","xmouse":[783,783,783,783,783,783,783,783,783,783,783,783,783,783,783,783,783,783,783,783,783,783,783,783,783,783,783,783,783,783,783,783,783,783,783,783,783,783,783,783,786,791,793,802,813,830,850,927,982,1048,1067,1077,1097,1109,1124,1144,1159,1187,1191,1191,1191,1191,1191,1191,1190,1185,1173,1158],"ymouse":[635,635,635,635,635,635,635,635,635,635,635,635,635,635,635,635,635,635,635,635,635,635,635,635,635,635,635,635,635,635,635,635,635,635,635,635,635,635,635,635,621,607,597,573,555,531,505,409,349,282,252,227,188,166,143,116,93,55,45,42,41,41,41,40,40,42,50,58],"timestamp_mouse":[9,42,48,69,88,108,127,148,168,188,208,228,248,269,288,308,328,349,369,388,409,428,449,469,489,508,528,548,567,589,609,629,648,669,688,709,728,749,768,789,809,828,848,869,888,908,928,950,968,989,1008,1028,1049,1068,1089,1109,1129,1150,1168,1188,1209,1229,1249,1269,1288,1309,1328,1348],"xSR":741.5,"ySR":573.95,"xT1":424.9,"yT1":0,"xT2":1058.1,"yT2":0,"toosoon":0,"cond_shown":"randomdotsizeEA","ratio_trial":900,"smaller_num":"9","larger_num":"10","correct_side":2,"subjID":"JuanEstebanGuzmanAcosta10","gender":"0","age":"9","school":"4"},{"start_time":1552069656951,"click_time":1552069658249,"finger_time":1552069657869,"fix_duration":1359.921415201005,"trial":66,"RT":918,"MT":380,"sideResp":2,"stimulus":"img/900/randomdotsizeEA/L/2_Ratio_900_L_20_R_18.png","xmouse":[814,814,814,814,814,814,814,814,814,814,814,814,814,814,815,815,815,815,815,815,815,815,815,815,815,815,815,815,815,815,815,815,815,815,815,815,815,815,815,816,816,816,816,816,816,817,830,841,851,861,869,909,943,988,1024,1037,1041,1042,1047,1058,1076,1104,1110,1113,1115,1117],"ymouse":[591,591,591,591,591,591,591,591,591,592,592,593,593,593,593,593,593,593,593,593,593,593,593,593,593,593,593,593,593,593,593,593,593,593,593,593,593,593,593,593,592,591,590,586,584,576,544,528,513,496,482,413,363,310,267,246,225,217,203,185,167,134,119,111,103,98],"timestamp_mouse":[1,19,38,57,79,98,118,138,158,177,199,219,237,258,278,299,318,338,358,378,398,418,438,458,479,499,517,539,558,578,598,618,638,657,679,698,718,738,759,779,799,818,838,859,878,898,918,939,957,978,999,1018,1038,1058,1079,1098,1118,1139,1158,1178,1198,1218,1239,1258,1278,1298],"xSR":741.5,"ySR":573.95,"xT1":424.9,"yT1":0,"xT2":1058.1,"yT2":0,"toosoon":0,"cond_shown":"randomdotsizeEA","ratio_trial":900,"smaller_num":"18","larger_num":"20","correct_side":1,"subjID":"JuanEstebanGuzmanAcosta10","gender":"0","age":"9","school":"4"},{"start_time":1552069660019,"click_time":1552069661370,"finger_time":1552069660790,"fix_duration":866.0521052825209,"trial":67,"RT":771,"MT":580,"sideResp":1,"stimulus":"img/900/randomdotsizeEA/L/10_Ratio_900_L_20_R_18.png","xmouse":[762,762,762,762,762,762,762,762,762,762,762,762,762,762,762,762,762,762,762,762,762,762,762,762,762,762,762,762,762,762,762,762,762,762,762,762,762,752,737,717,694,660,602,568,534,494,463,422,413,409,409,423,447,451,454,455,456,456,456,456,449,440,413,408,406,407,413,425],"ymouse":[640,640,640,640,640,640,640,640,640,640,640,640,640,640,640,640,640,640,640,640,640,640,640,640,640,640,640,640,640,640,640,640,640,640,640,639,638,626,610,592,572,540,489,460,434,400,373,329,309,287,26