[{"start_time":1552068665682,"click_time":1552068670245,"finger_time":1552068665693,"fix_duration":394.351721447998,"trial":0,"RT":11,"MT":4552,"sideResp":2,"stimulus":[],"xmouse":[814,814,814,814,814,814,814,814,814,814,814,814,814,814,814,814,814,814,814,814,814,814,814,814,814,814,814,814,814,814,814,814,814,814,814,814,814,814,814,814,814,814,814,814,814,814,814,814,814,814,814,814,813,813,813,813,813,813,813,813,812,812,812,811,811,811,811,809,808,808,808,808,808,808,808,808,808,808,808,808,808,808,808,808,808,808,808,808,808,808,808,808,808,808,808,808,808,808,808,808,808,808,808,808,808,808,808,808,808,808,808,808,808,808,808,805,804,804,804,804,804,804,804,804,804,804,804,804,804,802,801,801,801,801,801,801,801,801,801,801,801,801,801,801,803,804,805,806,806,806,806,806,806,807,810,812,813,814,814,814,814,814,814,814,814,814,814,814,814,814,816,817,818,820,825,835,852,858,866,866,866,866,866,866,866,866,866,866,866,866,866,866,866,866,866,866,865,856,857,866,878,906,954,1048,1082,1105,1118,1120,1126,1134,1144,1155,1167,1181,1182,1182,1182,1181,1169,1163,1157,1147,1142,1141,1141,1141,1141,1139,1137],"ymouse":[549,549,549,549,549,549,549,549,549,549,549,549,549,549,549,549,549,549,549,549,549,549,549,549,549,549,549,549,549,549,549,549,549,549,549,549,549,549,549,549,549,549,549,549,549,549,549,549,549,549,549,549,551,557,558,559,561,563,565,567,570,572,572,573,574,577,578,584,585,587,587,587,587,587,587,587,588,589,589,590,590,590,590,590,590,591,591,591,591,591,591,591,591,591,591,591,591,591,591,591,591,591,591,591,591,591,591,591,591,591,591,591,591,591,591,593,593,593,593,593,593,593,593,593,593,593,593,593,593,594,594,595,595,595,595,595,595,595,595,595,595,595,595,595,595,595,595,595,595,595,595,595,595,595,595,595,595,595,595,595,595,595,595,595,595,595,595,595,595,595,594,592,592,591,588,585,580,578,575,575,575,575,575,575,575,575,575,575,575,575,575,575,575,575,559,521,463,419,399,389,374,346,308,217,198,188,182,180,175,170,164,157,148,130,125,121,120,116,111,109,108,107,106,106,106,106,106,101,92],"timestamp_mouse":[10,21,41,62,81,102,122,141,161,181,201,222,241,262,282,302,321,342,361,381,401,423,442,462,482,502,522,542,561,581,601,622,642,663,682,702,722,741,761,782,802,822,841,862,881,901,921,942,962,982,1003,1022,1042,1061,1081,1102,1121,1141,1161,1182,1202,1223,1241,1261,1282,1301,1322,1341,1362,1382,1402,1422,1443,1462,1482,1502,1522,1542,1562,1582,1602,1623,1642,1662,1681,1702,1722,1742,1762,1783,1803,1822,1842,1862,1882,1901,1921,1942,1961,1981,2003,2022,2041,2061,2081,2101,2121,2141,2162,2182,2201,2222,2242,2262,2282,2302,2321,2341,2361,2382,2401,2422,2442,2462,2482,2502,2522,2542,2561,2581,2602,2621,2643,2662,2682,2702,2721,2742,2761,2783,2801,2822,2841,2861,2881,2901,2922,2942,2961,2981,3001,3021,3041,3061,3081,3101,3121,3143,3163,3182,3201,3222,3241,3263,3282,3302,3322,3341,3362,3381,3401,3421,3442,3461,3481,3502,3522,3541,3561,3582,3602,3621,3643,3661,3681,3702,3721,3741,3761,3783,3802,3822,3842,3861,3882,3901,3922,3941,3962,3981,4001,4023,4042,4061,4081,4101,4121,4142,4163,4181,4201,4221,4243,4261,4281,4301,4321,4341,4361,4382,4402,4422,4442,4461,4482,4502,4521,4542,4561],"xSR":741.5,"ySR":501.8,"xT1":424.9,"yT1":0,"xT2":1058.1,"yT2":0,"toosoon":0,"cond_shown":"Congruent","ratio_trial":300,"L_num":12,"L_den":24,"R_num":2,"R_den":10,"correct_side":1,"subjID":"JuanEstabanGuzmanAcosta10","gender":"0","age":"9","school":"4","test":{"fix_dur":[250,1500],"timestim":1000,"targets_dim":[100,100],"targets_relative_coord":[0.3,0.7],"size_stim":[880,420],"start_dim":[100,100],"size_start":[300,300],"size_fix":60,"samplingrate":20,"img_types":["Congruent","Incongruent"],"ratios":[100,200,300],"rep_conds":19,"nTrials":120,"trials_to_rest":500,"Trials_order":[118,100,24,55,30,45,19,85,35,14,58,43,2,37,13,11,27,0,57,115,32,42,16,56,39,109,101,22,25,10,15,33,68,23,53,117,110,73,99,66,102,61,93,72,75,28,41,82,114,64,91,108,103,7,44,47,76,36,96,26,84,90,111,50,78,9,63,95,81,3,67,105,1,62,48,69,86,12,4,17,52,54,18,87,80,104,77,21,49,31,97,74,20,92,83,98,6,70,5,89,112,107,8,46,38,79,116,34,88,113,29,59,106,94,40,119,71,51,65,60],"cond_shown":["Congruent","Congruent","Congruent","Incongruent","Congruent","Incongruent","Incongruent","Incongruent","Incongruent","Congruent","Congruent","Incongruent","Congruent","Incongruent","Incongruent","Incongruent","Incongruent","Congruent","Incongruent","Incongruent","Congruent","Congruent","Congruent","Congruent","Incongruent","Incongruent","Incongruent","Congruent","Incongruent","Congruent","Incongruent","Incongruent","Congruent","Incongruent","Incongruent","Incongruent","Congruent","Incongruent","Incongruent","Congruent","Congruent","Incongruent","Incongruent","Congruent","Incongruent","Congruent","Incongruent","Congruent","Congruent","Congruent","Incongruent","Congruent","Incongruent","Incongruent","Congruent","Incongruent","Congruent","Congruent","Congruent","Congruent","Congruent","Congruent","Incongruent","Congruent","Congruent","Incongruent","Incongruent","Incongruent","Incongruent","Incongruent","Incongruent","Incongruent","Incongruent","Congruent","Congruent","Incongruent","Congruent","Congruent","Congruent","Incongruent","Congruent","Congruent","Congruent","Incongruent","Congruent","Congruent","Incongruent","Incongruent","Incongruent","Incongruent","Incongruent","Congruent","Congruent","Congruent","Incongruent","Congruent","Congruent","Congruent","Incongruent","Incongruent","Congruent","Incongruent","Congruent","Congruent","Congruent","Incongruent","Congruent","Congruent","Congruent","Incongruent","Incongruent","Incongruent","Congruent","Congruent","Congruent","Incongruent","Incongruent","Incongruent","Incongruent","Congruent"],"ratio_trial":[300,300,100,100,100,200,100,100,300,200,300,100,200,100,100,300,200,100,200,100,200,100,300,200,200,100,300,300,100,300,200,200,200,300,300,200,200,100,200,100,100,100,200,100,200,300,300,300,100,300,100,100,100,100,200,300,300,100,100,200,100,100,200,200,100,200,200,300,200,200,100,200,100,200,100,200,200,100,300,300,300,100,100,200,200,200,300,200,100,100,100,200,200,200,300,200,100,300,300,300,300,300,200,300,200,100,200,300,300,300,300,300,300,300,300,300,300,200,300,100],"left_num":[12,20,2,1,9,7,3,6,8,21,11,6,15,6,8,4,4,12,1,11,7,15,4,7,4,3,1,4,2,12,7,7,9,4,4,4,3,9,6,6,1,9,7,10,7,24,1,11,3,20,10,7,6,8,8,4,24,1,15,8,12,3,6,3,4,7,4,8,7,3,1,9,10,12,8,14,3,7,3,13,20,2,7,11,3,15,2,11,13,12,6,7,13,7,4,11,11,24,4,4,3,13,6,4,1,12,5,2,5,4,13,13,12,2,3,13,8,11,1,3],"right_num":[2,8,6,8,8,8,4,13,14,2,2,3,4,7,1,2,14,13,3,9,18,13,2,2,6,11,2,2,8,2,14,6,13,6,8,1,14,20,3,15,18,14,6,3,8,8,2,4,4,9,8,9,11,1,2,6,2,18,13,3,13,4,3,14,15,14,1,14,6,1,8,8,8,6,2,6,9,9,4,12,5,11,9,3,9,4,6,3,6,9,7,18,14,18,2,3,4,2,2,2,11,12,7,2,21,2,14,10,6,2,12,12,2,12,2,12,14,3,2,4],"left_den":[24,25,5,2,15,10,6,10,10,30,22,12,25,10,20,20,6,30,2,22,15,25,5,21,5,5,2,5,4,24,10,15,30,5,5,30,10,10,20,12,2,15,15,25,10,30,2,22,20,25,25,14,10,20,15,5,30,2,25,15,30,20,20,6,10,10,30,10,15,10,2,15,25,15,16,30,12,14,6,26,25,5,14,20,12,25,4,20,26,24,10,15,26,15,20,22,22,30,20,20,12,26,12,5,2,30,10,20,25,20,26,26,24,10,6,26,10,20,2,20],"right_den":[10,16,12,20,16,16,10,26,28,4,10,5,10,14,2,4,30,26,10,15,27,26,4,15,10,22,10,4,20,10,28,9,26,12,16,3,28,25,6,25,30,28,9,10,16,16,10,20,16,18,16,15,22,2,6,12,4,30,26,9,26,16,6,20,30,28,3,28,9,2,20,10,16,10,5,9,20,15,5,15,10,22,15,4,20,10,30,4,10,15,14,27,20,27,4,10,10,4,4,4,20,15,10,4,30,4,20,25,12,4,15,15,10,24,10,15,28,4,10,16],"correct_side":[1,1,2,1,1,1,1,1,1,1,1,2,1,1,2,2,1,2,1,2,2,1,1,1,1,1,1,1,1,1,1,2,2,1,1,2,2,1,2,2,2,1,2,1,1,1,1,1,2,1,2,2,1,2,1,1,1,2,1,1,2,2,2,2,2,1,2,1,2,2,1,2,2,1,1,2,2,2,2,2,1,2,2,2,2,1,1,2,2,2,1,2,2,2,2,1,1,1,2,2,2,2,2,1,2,2,2,2,2,2,2,2,1,2,1,2,1,2,1,2],"img_shown":["img2/300/Congruent/L/C_Dist_300_LN_12_LD_24_RN_2_RD_10_0.png","img2/300/Congruent/L/C_Dist_300_LN_20_LD_25_RN_8_RD_16_0.png","img2/100/Congruent/R/C_Dist_100_LN_2_LD_5_RN_6_RD_12_1.png","img2/100/Incongruent/L/I_Dist_100_LN_1_LD_2_RN_8_RD_20_0.png","img2/100/Congruent/L/C_Dist_100_LN_9_LD_15_RN_8_RD_16_0.png","img2/200/Incongruent/L/I_Dist_200_LN_7_LD_10_RN_8_RD_16_0.png","img2/100/Incongruent/L/I_Dist_100_LN_3_LD_6_RN_4_RD_10_0.png","img2/100/Incongruent/L/I_Dist_100_LN_6_LD_10_RN_13_RD_26_0.png","img2/300/Incongruent/L/I_Dist_300_LN_8_LD_10_RN_14_RD_28_0.png","img2/200/Congruent/L/C_Dist_200_LN_21_LD_30_RN_2_RD_4_0.png","img2/300/Congruent/L/C_Dist_300_LN_11_LD_22_RN_2_RD_10_0.png","img2/100/Incongruent/R/I_Dist_100_LN_6_LD_12_RN_3_RD_5_1.png","img2/200/Congruent/L/C_Dist_200_LN_15_LD_25_RN_4_RD_10_0.png","img2/100/Incongruent/L/I_Dist_100_LN_6_LD_10_RN_7_RD_14_0.png","img2/100/Incongruent/R/I_Dist_100_LN_8_LD_20_RN_1_RD_2_1.png","img2/300/Incongruent/R/I_Dist_300_LN_4_LD_20_RN_2_RD_4_1.png","img2/200/Incongruent/L/I_Dist_200_LN_4_LD_6_RN_14_RD_30_0.png","img2/100/Congruent/R/C_Dist_100_LN_12_LD_30_RN_13_RD_26_1.png","img2/200/Incongruent/L/I_Dist_200_LN_1_LD_2_RN_3_RD_10_0.png","img2/100/Incongruent/R/I_Dist_100_LN_11_LD_22_RN_9_RD_15_1.png","img2/200/Congruent/R/C_Dist_200_LN_7_LD_15_RN_18_RD_27_1.png","img2/100/Congruent/L/C_Dist_100_LN_15_LD_25_RN_13_RD_26_0.png","img2/300/Congruent/L/C_Dist_300_LN_4_LD_5_RN_2_RD_4_0.png","img2/200/Congruent/L/C_Dist_200_LN_7_LD_21_RN_2_RD_15_0.png","img2/200/Incongruent/L/I_Dist_200_LN_4_LD_5_RN_6_RD_10_0.png","img2/100/Incongruent/L/I_Dist_100_LN_3_LD_5_RN_11_RD_22_0.png","img2/300/Incongruent/L/I_Dist_300_LN_1_LD_2_RN_2_RD_10_0.png","img2/300/Congruent/L/C_Dist_300_LN_4_LD_5_RN_2_RD_4_0.png","img2/100/Incongruent/L/I_Dist_100_LN_2_LD_4_RN_8_RD_20_0.png","img2/300/Congruent/L/C_Dist_300_LN_12_LD_24_RN_2_RD_10_0.png","img2/200/Incongruent/L/I_Dist_200_LN_7_LD_10_RN_14_RD_28_0.png","img2/200/Incongruent/R/I_Dist_200_LN_7_LD_15_RN_6_RD_9_1.png","img2/200/Congruent/R/C_Dist_200_LN_9_LD_30_RN_13_RD_26_1.png","img2/300/Incongruent/L/I_Dist_300_LN_4_LD_5_RN_6_RD_12_0.png","img2/300/Incongruent/L/I_Dist_300_LN_4_LD_5_RN_8_RD_16_0.png","img2/200/Incongruent/R/I_Dist_200_LN_4_LD_30_RN_1_RD_3_1.png","img2/200/Congruent/R/C_Dist_200_LN_3_LD_10_RN_14_RD_28_1.png","img2/100/Incongruent/L/I_Dist_100_LN_9_LD_10_RN_20_RD_25_0.png","img2/200/Incongruent/R/I_Dist_200_LN_6_LD_20_RN_3_RD_6_1.png","img2/100/Congruent/R/C_Dist_100_LN_6_LD_12_RN_15_RD_25_1.png","img2/100/Congruent/R/C_Dist_100_LN_1_LD_2_RN_18_RD_30_1.png","img2/100/Incongruent/L/I_Dist_100_LN_9_LD_15_RN_14_RD_28_0.png","img2/200/Incongruent/R/I_Dist_200_LN_7_LD_15_RN_6_RD_9_1.png","img2/100/Congruent/L/C_Dist_100_LN_10_LD_25_RN_3_RD_10_0.png","img2/200/Incongruent/L/I_Dist_200_LN_7_LD_10_RN_8_RD_16_0.png","img2/300/Congruent/L/C_Dist_300_LN_24_LD_30_RN_8_RD_16_0.png","img2/300/Incongruent/L/I_Dist_300_LN_1_LD_2_RN_2_RD_10_0.png","img2/300/Congruent/L/C_Dist_300_LN_11_LD_22_RN_4_RD_20_0.png","img2/100/Congruent/R/C_Dist_100_LN_3_LD_20_RN_4_RD_16_1.png","img2/300/Congruent/L/C_Dist_300_LN_20_LD_25_RN_9_RD_18_0.png","img2/100/Incongruent/R/I_Dist_100_LN_10_LD_25_RN_8_RD_16_1.png","img2/100/Congruent/R/C_Dist_100_LN_7_LD_14_RN_9_RD_15_1.png","img2/100/Incongruent/L/I_Dist_100_LN_6_LD_10_RN_11_RD_22_0.png","img2/100/Incongruent/R/I_Dist_100_LN_8_LD_20_RN_1_RD_2_1.png","img2/200/Congruent/L/C_Dist_200_LN_8_LD_15_RN_2_RD_6_0.png","img2/300/Incongruent/L/I_Dist_300_LN_4_LD_5_RN_6_RD_12_0.png","img2/300/Congruent/L/C_Dist_300_LN_24_LD_30_RN_2_RD_4_0.png","img2/100/Congruent/R/C_Dist_100_LN_1_LD_2_RN_18_RD_30_1.png","img2/100/Congruent/L/C_Dist_100_LN_15_LD_25_RN_13_RD_26_0.png","img2/200/Congruent/L/C_Dist_200_LN_8_LD_15_RN_3_RD_9_0.png","img2/100/Congruent/R/C_Dist_100_LN_12_LD_30_RN_13_RD_26_1.png","img2/100/Congruent/R/C_Dist_100_LN_3_LD_20_RN_4_RD_16_1.png","img2/200/Incongruent/R/I_Dist_200_LN_6_LD_20_RN_3_RD_6_1.png","img2/200/Congruent/R/C_Dist_200_LN_3_LD_6_RN_14_RD_20_1.png","img2/100/Congruent/R/C_Dist_100_LN_4_LD_10_RN_15_RD_30_1.png","img2/200/Incongruent/L/I_Dist_200_LN_7_LD_10_RN_14_RD_28_0.png","img2/200/Incongruent/R/I_Dist_200_LN_4_LD_30_RN_1_RD_3_1.png","img2/300/Incongruent/L/I_Dist_300_LN_8_LD_10_RN_14_RD_28_0.png","img2/200/Incongruent/R/I_Dist_200_LN_7_LD_15_RN_6_RD_9_1.png","img2/200/Incongruent/R/I_Dist_200_LN_3_LD_10_RN_1_RD_2_1.png","img2/100/Incongruent/L/I_Dist_100_LN_1_LD_2_RN_8_RD_20_0.png","img2/200/Incongruent/R/I_Dist_200_LN_9_LD_15_RN_8_RD_10_1.png","img2/100/Incongruent/R/I_Dist_100_LN_10_LD_25_RN_8_RD_16_1.png","img2/200/Congruent/L/C_Dist_200_LN_12_LD_15_RN_6_RD_10_0.png","img2/100/Congruent/L/C_Dist_100_LN_8_LD_16_RN_2_RD_5_0.png","img2/200/Incongruent/R/I_Dist_200_LN_14_LD_30_RN_6_RD_9_1.png","img2/200/Congruent/R/C_Dist_200_LN_3_LD_12_RN_9_RD_20_1.png","img2/100/Congruent/R/C_Dist_100_LN_7_LD_14_RN_9_RD_15_1.png","img2/300/Congruent/R/C_Dist_300_LN_3_LD_6_RN_4_RD_5_1.png","img2/300/Incongruent/R/I_Dist_300_LN_13_LD_26_RN_12_RD_15_1.png","img2/300/Congruent/L/C_Dist_300_LN_20_LD_25_RN_5_RD_10_0.png","img2/100/Congruent/R/C_Dist_100_LN_2_LD_5_RN_11_RD_22_1.png","img2/100/Congruent/R/C_Dist_100_LN_7_LD_14_RN_9_RD_15_1.png","img2/200/Incongruent/R/I_Dist_200_LN_11_LD_20_RN_3_RD_4_1.png","img2/200/Congruent/R/C_Dist_200_LN_3_LD_12_RN_9_RD_20_1.png","img2/200/Congruent/L/C_Dist_200_LN_15_LD_25_RN_4_RD_10_0.png","img2/300/Incongruent/L/I_Dist_300_LN_2_LD_4_RN_6_RD_30_0.png","img2/200/Incongruent/R/I_Dist_200_LN_11_LD_20_RN_3_RD_4_1.png","img2/100/Incongruent/R/I_Dist_100_LN_13_LD_26_RN_6_RD_10_1.png","img2/100/Incongruent/R/I_Dist_100_LN_12_LD_24_RN_9_RD_15_1.png","img2/100/Incongruent/L/I_Dist_100_LN_6_LD_10_RN_7_RD_14_0.png","img2/200/Congruent/R/C_Dist_200_LN_7_LD_15_RN_18_RD_27_1.png","img2/200/Congruent/R/C_Dist_200_LN_13_LD_26_RN_14_RD_20_1.png","img2/200/Congruent/R/C_Dist_200_LN_7_LD_15_RN_18_RD_27_1.png","img2/300/Incongruent/R/I_Dist_300_LN_4_LD_20_RN_2_RD_4_1.png","img2/200/Congruent/L/C_Dist_200_LN_11_LD_22_RN_3_RD_10_0.png","img2/100/Congruent/L/C_Dist_100_LN_11_LD_22_RN_4_RD_10_0.png","img2/300/Congruent/L/C_Dist_300_LN_24_LD_30_RN_2_RD_4_0.png","img2/300/Incongruent/R/I_Dist_300_LN_4_LD_20_RN_2_RD_4_1.png","img2/300/Incongruent/R/I_Dist_300_LN_4_LD_20_RN_2_RD_4_1.png","img2/300/Congruent/R/C_Dist_300_LN_3_LD_12_RN_11_RD_20_1.png","img2/300/Incongruent/R/I_Dist_300_LN_13_LD_26_RN_12_RD_15_1.png","img2/200/Congruent/R/C_Dist_200_LN_6_LD_12_RN_7_RD_10_1.png","img2/300/Congruent/L/C_Dist_300_LN_4_LD_5_RN_2_RD_4_0.png","img2/200/Congruent/R/C_Dist_200_LN_1_LD_2_RN_21_RD_30_1.png","img2/100/Incongruent/R/I_Dist_100_LN_12_LD_30_RN_2_RD_4_1.png","img2/200/Congruent/R/C_Dist_200_LN_5_LD_10_RN_14_RD_20_1.png","img2/300/Congruent/R/C_Dist_300_LN_2_LD_20_RN_10_RD_25_1.png","img2/300/Congruent/R/C_Dist_300_LN_5_LD_25_RN_6_RD_12_1.png","img2/300/Incongruent/R/I_Dist_300_LN_4_LD_20_RN_2_RD_4_1.png","img2/300/Incongruent/R/I_Dist_300_LN_13_LD_26_RN_12_RD_15_1.png","img2/300/Incongruent/R/I_Dist_300_LN_13_LD_26_RN_12_RD_15_1.png","img2/300/Congruent/L/C_Dist_300_LN_12_LD_24_RN_2_RD_10_0.png","img2/300/Congruent/R/C_Dist_300_LN_2_LD_10_RN_12_RD_24_1.png","img2/300/Congruent/L/C_Dist_300_LN_3_LD_6_RN_2_RD_10_0.png","img2/300/Incongruent/R/I_Dist_300_LN_13_LD_26_RN_12_RD_15_1.png","img2/300/Incongruent/L/I_Dist_300_LN_8_LD_10_RN_14_RD_28_0.png","img2/200/Incongruent/R/I_Dist_200_LN_11_LD_20_RN_3_RD_4_1.png","img2/300/Incongruent/L/I_Dist_300_LN_1_LD_2_RN_2_RD_10_0.png","img2/100/Congruent/R/C_Dist_100_LN_3_LD_20_RN_4_RD_16_1.png"],"dist100_C":[["C_Dist_100_LN_10_LD_25_RN_3_RD_10_0.png","C_Dist_100_LN_11_LD_22_RN_4_RD_10_0.png","C_Dist_100_LN_11_LD_22_RN_6_RD_15_0.png","C_Dist_100_LN_15_LD_25_RN_13_RD_26_0.png","C_Dist_100_LN_3_LD_6_RN_2_RD_5_0.png","C_Dist_100_LN_6_LD_20_RN_5_RD_25_0.png","C_Dist_100_LN_8_LD_16_RN_2_RD_5_0.png","C_Dist_100_LN_9_LD_15_RN_8_RD_16_0.png"],["C_Dist_100_LN_1_LD_2_RN_18_RD_30_1.png","C_Dist_100_LN_1_LD_2_RN_3_RD_5_1.png","C_Dist_100_LN_12_LD_30_RN_13_RD_26_1.png","C_Dist_100_LN_2_LD_5_RN_11_RD_22_1.png","C_Dist_100_LN_2_LD_5_RN_6_RD_12_1.png","C_Dist_100_LN_3_LD_20_RN_4_RD_16_1.png","C_Dist_100_LN_4_LD_10_RN_15_RD_30_1.png","C_Dist_100_LN_4_LD_8_RN_6_RD_10_1.png","C_Dist_100_LN_6_LD_12_RN_15_RD_25_1.png","C_Dist_100_LN_7_LD_14_RN_15_RD_25_1.png","C_Dist_100_LN_7_LD_14_RN_9_RD_15_1.png"]],"dist100_I":[["I_Dist_100_LN_1_LD_2_RN_8_RD_20_0.png","I_Dist_100_LN_2_LD_4_RN_6_RD_15_0.png","I_Dist_100_LN_2_LD_4_RN_8_RD_20_0.png","I_Dist_100_LN_3_LD_5_RN_11_RD_22_0.png","I_Dist_100_LN_3_LD_5_RN_8_RD_16_0.png","I_Dist_100_LN_3_LD_6_RN_4_RD_10_0.png","I_Dist_100_LN_3_LD_9_RN_7_RD_30_0.png","I_Dist_100_LN_4_LD_8_RN_8_RD_20_0.png","I_Dist_100_LN_6_LD_10_RN_11_RD_22_0.png","I_Dist_100_LN_6_LD_10_RN_13_RD_26_0.png","I_Dist_100_LN_6_LD_10_RN_7_RD_14_0.png","I_Dist_100_LN_9_LD_10_RN_20_RD_25_0.png","I_Dist_100_LN_9_LD_15_RN_13_RD_26_0.png","I_Dist_100_LN_9_LD_15_RN_14_RD_28_0.png"],["I_Dist_100_LN_10_LD_25_RN_8_RD_16_1.png","I_Dist_100_LN_10_LD_25_RN_9_RD_18_1.png","I_Dist_100_LN_11_LD_22_RN_9_RD_15_1.png","I_Dist_100_LN_12_LD_24_RN_9_RD_15_1.png","I_Dist_100_LN_12_LD_30_RN_2_RD_4_1.png","I_Dist_100_LN_13_LD_26_RN_12_RD_20_1.png","I_Dist_100_LN_13_LD_26_RN_6_RD_10_1.png","I_Dist_100_LN_17_LD_30_RN_10_RD_15_1.png","I_Dist_100_LN_6_LD_12_RN_3_RD_5_1.png","I_Dist_100_LN_8_LD_16_RN_6_RD_10_1.png","I_Dist_100_LN_8_LD_20_RN_1_RD_2_1.png","I_Dist_100_LN_9_LD_18_RN_6_RD_10_1.png"]],"dist100_S":[["E_Dist_100_LN_2_LD_12_RN_2_RD_30_0.png","E_Dist_100_LN_6_LD_10_RN_6_RD_12_0.png"],["E_Dist_100_LN_6_LD_12_RN_6_RD_10_1.png"]],"dist200_C":[["C_Dist_200_LN_11_LD_22_RN_3_RD_10_0.png","C_Dist_200_LN_12_LD_15_RN_6_RD_10_0.png","C_Dist_200_LN_12_LD_20_RN_6_RD_15_0.png","C_Dist_200_LN_14_LD_28_RN_6_RD_20_0.png","C_Dist_200_LN_15_LD_25_RN_4_RD_10_0.png","C_Dist_200_LN_16_LD_20_RN_12_RD_20_0.png","C_Dist_200_LN_16_LD_30_RN_9_RD_27_0.png","C_Dist_200_LN_20_LD_25_RN_9_RD_15_0.png","C_Dist_200_LN_21_LD_30_RN_2_RD_4_0.png","C_Dist_200_LN_4_LD_10_RN_3_RD_15_0.png","C_Dist_200_LN_4_LD_8_RN_3_RD_10_0.png","C_Dist_200_LN_6_LD_15_RN_3_RD_15_0.png","C_Dist_200_LN_7_LD_21_RN_2_RD_15_0.png","C_Dist_200_LN_8_LD_15_RN_2_RD_6_0.png","C_Dist_200_LN_8_LD_15_RN_3_RD_9_0.png","C_Dist_200_LN_8_LD_15_RN_7_RD_21_0.png","C_Dist_200_LN_9_LD_20_RN_4_RD_16_0.png"],["C_Dist_200_LN_1_LD_2_RN_21_RD_30_1.png","C_Dist_200_LN_13_LD_26_RN_14_RD_20_1.png","C_Dist_200_LN_3_LD_10_RN_11_RD_22_1.png","C_Dist_200_LN_3_LD_10_RN_14_RD_28_1.png","C_Dist_200_LN_3_LD_10_RN_7_RD_14_1.png","C_Dist_200_LN_3_LD_12_RN_9_RD_20_1.png","C_Dist_200_LN_3_LD_6_RN_14_RD_20_1.png","C_Dist_200_LN_5_LD_10_RN_14_RD_20_1.png","C_Dist_200_LN_6_LD_12_RN_7_RD_10_1.png","C_Dist_200_LN_6_LD_20_RN_11_RD_22_1.png","C_Dist_200_LN_7_LD_15_RN_18_RD_27_1.png","C_Dist_200_LN_9_LD_30_RN_13_RD_26_1.png"]],"dist200_I":[["I_Dist_200_LN_1_LD_2_RN_3_RD_10_0.png","I_Dist_200_LN_1_LD_3_RN_2_RD_15_0.png","I_Dist_200_LN_3_LD_4_RN_11_RD_20_0.png","I_Dist_200_LN_4_LD_5_RN_6_RD_10_0.png","I_Dist_200_LN_4_LD_6_RN_14_RD_30_0.png","I_Dist_200_LN_7_LD_10_RN_12_RD_24_0.png","I_Dist_200_LN_7_LD_10_RN_14_RD_28_0.png","I_Dist_200_LN_7_LD_10_RN_8_RD_16_0.png"],["I_Dist_200_LN_11_LD_20_RN_3_RD_4_1.png","I_Dist_200_LN_14_LD_30_RN_12_RD_18_1.png","I_Dist_200_LN_14_LD_30_RN_6_RD_9_1.png","I_Dist_200_LN_3_LD_10_RN_1_RD_2_1.png","I_Dist_200_LN_4_LD_30_RN_1_RD_3_1.png","I_Dist_200_LN_6_LD_20_RN_3_RD_6_1.png","I_Dist_200_LN_7_LD_15_RN_4_RD_6_1.png","I_Dist_200_LN_7_LD_15_RN_6_RD_9_1.png","I_Dist_200_LN_9_LD_15_RN_8_RD_10_1.png"]],"dist200_S":[["E_Dist_200_LN_3_LD_6_RN_3_RD_10_0.png"],["E_Dist_200_LN_3_LD_10_RN_3_RD_6_1.png"]],"dist300_C":[["C_Dist_300_LN_11_LD_22_RN_1_RD_5_0.png","C_Dist_300_LN_11_LD_22_RN_2_RD_10_0.png","C_Dist_300_LN_11_LD_22_RN_4_RD_20_0.png","C_Dist_300_LN_12_LD_24_RN_2_RD_10_0.png","C_Dist_300_LN_18_LD_20_RN_9_RD_15_0.png","C_Dist_300_LN_20_LD_25_RN_13_RD_26_0.png","C_Dist_300_LN_20_LD_25_RN_14_RD_28_0.png","C_Dist_300_LN_20_LD_25_RN_5_RD_10_0.png","C_Dist_300_LN_20_LD_25_RN_8_RD_16_0.png","C_Dist_300_LN_20_LD_25_RN_9_RD_18_0.png","C_Dist_300_LN_24_LD_30_RN_2_RD_4_0.png","C_Dist_300_LN_24_LD_30_RN_8_RD_16_0.png","C_Dist_300_LN_3_LD_6_RN_2_RD_10_0.png","C_Dist_300_LN_4_LD_10_RN_1_RD_10_0.png","C_Dist_300_LN_4_LD_5_RN_2_RD_4_0.png","C_Dist_300_LN_8_LD_16_RN_1_RD_5_0.png","C_Dist_300_LN_9_LD_10_RN_3_RD_5_0.png"],["C_Dist_300_LN_1_LD_20_RN_7_RD_20_1.png","C_Dist_300_LN_1_LD_3_RN_19_RD_30_1.png","C_Dist_300_LN_1_LD_30_RN_8_RD_24_1.png","C_Dist_300_LN_1_LD_5_RN_11_RD_22_1.png","C_Dist_300_LN_1_LD_5_RN_3_RD_6_1.png","C_Dist_300_LN_1_LD_5_RN_6_RD_12_1.png","C_Dist_300_LN_2_LD_10_RN_12_RD_24_1.png","C_Dist_300_LN_2_LD_20_RN_10_RD_25_1.png","C_Dist_300_LN_3_LD_12_RN_11_RD_20_1.png","C_Dist_300_LN_3_LD_6_RN_4_RD_5_1.png","C_Dist_300_LN_4_LD_20_RN_13_RD_26_1.png","C_Dist_300_LN_5_LD_25_RN_6_RD_12_1.png","C_Dist_300_LN_5_LD_25_RN_7_RD_14_1.png","C_Dist_300_LN_7_LD_14_RN_20_RD_25_1.png","C_Dist_300_LN_8_LD_15_RN_10_RD_12_1.png"]],"dist300_I":[["I_Dist_300_LN_1_LD_2_RN_2_RD_10_0.png","I_Dist_300_LN_1_LD_2_RN_3_RD_15_0.png","I_Dist_300_LN_2_LD_4_RN_6_RD_30_0.png","I_Dist_300_LN_3_LD_6_RN_4_RD_20_0.png","I_Dist_300_LN_4_LD_5_RN_6_RD_12_0.png","I_Dist_300_LN_4_LD_5_RN_8_RD_16_0.png","I_Dist_300_LN_7_LD_10_RN_8_RD_20_0.png","I_Dist_300_LN_8_LD_10_RN_14_RD_28_0.png","I_Dist_300_LN_8_LD_10_RN_9_RD_18_0.png"],["I_Dist_300_LN_13_LD_26_RN_12_RD_15_1.png","I_Dist_300_LN_4_LD_20_RN_2_RD_4_1.png"]],"dist300_S":[["E_Dist_300_LN_9_LD_12_RN_9_RD_20_0.png"],["E_Dist_300_LN_18_LD_30_RN_18_RD_20_1.png","E_Dist_300_LN_3_LD_10_RN_3_RD_5_1.png","E_Dist_300_LN_9_LD_20_RN_9_RD_12_1.png"]],"dist500_C":[["C_Dist_500_LN_10_LD_13_RN_7_RD_26_0.png","C_Dist_500_LN_10_LD_15_RN_4_RD_24_0.png","C_Dist_500_LN_12_LD_16_RN_3_RD_12_0.png","C_Dist_500_LN_12_LD_18_RN_4_RD_24_0.png","C_Dist_500_LN_15_LD_18_RN_5_RD_15_0.png","C_Dist_500_LN_15_LD_20_RN_1_RD_4_0.png","C_Dist_500_LN_18_LD_27_RN_1_RD_6_0.png","C_Dist_500_LN_20_LD_24_RN_1_RD_3_0.png","C_Dist_500_LN_20_LD_24_RN_3_RD_9_0.png","C_Dist_500_LN_20_LD_24_RN_7_RD_21_0.png","C_Dist_500_LN_20_LD_28_RN_3_RD_14_0.png","C_Dist_500_LN_21_LD_28_RN_6_RD_24_0.png","C_Dist_500_LN_22_LD_28_RN_2_RD_7_0.png","C_Dist_500_LN_25_LD_30_RN_9_RD_27_0.png","C_Dist_500_LN_4_LD_6_RN_1_RD_6_0.png","C_Dist_500_LN_5_LD_6_RN_2_RD_6_0.png","C_Dist_500_LN_6_LD_9_RN_1_RD_6_0.png","C_Dist_500_LN_7_LD_10_RN_1_RD_5_0.png","C_Dist_500_LN_8_LD_12_RN_1_RD_6_0.png","C_Dist_500_LN_8_LD_12_RN_4_RD_24_0.png"],["C_Dist_500_LN_1_LD_4_RN_12_RD_16_1.png","C_Dist_500_LN_1_LD_4_RN_9_RD_12_1.png","C_Dist_500_LN_1_LD_9_RN_11_RD_18_1.png","C_Dist_500_LN_10_LD_24_RN_22_RD_24_1.png","C_Dist_500_LN_2_LD_12_RN_10_RD_15_1.png","C_Dist_500_LN_2_LD_12_RN_12_RD_18_1.png","C_Dist_500_LN_2_LD_12_RN_4_RD_6_1.png","C_Dist_500_LN_2_LD_24_RN_7_RD_12_1.png","C_Dist_500_LN_2_LD_5_RN_18_RD_20_1.png","C_Dist_500_LN_2_LD_5_RN_9_RD_10_1.png","C_Dist_500_LN_2_LD_8_RN_12_RD_16_1.png","C_Dist_500_LN_2_LD_8_RN_21_RD_28_1.png","C_Dist_500_LN_3_LD_10_RN_4_RD_5_1.png","C_Dist_500_LN_3_LD_12_RN_15_RD_20_1.png","C_Dist_500_LN_3_LD_30_RN_6_RD_10_1.png","C_Dist_500_LN_3_LD_8_RN_14_RD_16_1.png","C_Dist_500_LN_4_LD_16_RN_15_RD_20_1.png","C_Dist_500_LN_4_LD_24_RN_12_RD_18_1.png","C_Dist_500_LN_5_LD_14_RN_6_RD_7_1.png","C_Dist_500_LN_7_LD_21_RN_20_RD_24_1.png","C_Dist_500_LN_7_LD_28_RN_12_RD_16_1.png","C_Dist_500_LN_7_LD_28_RN_9_RD_12_1.png","C_Dist_500_LN_9_LD_27_RN_20_RD_24_1.png"]],"dist500_I":[["I_Dist_500_LN_2_LD_3_RN_4_RD_24_0.png","I_Dist_500_LN_5_LD_6_RN_6_RD_18_0.png","I_Dist_500_LN_7_LD_8_RN_9_RD_24_0.png"],["I_Dist_500_LN_7_LD_21_RN_5_RD_6_1.png"]],"dist500_S":[["E_Dist_500_LN_6_LD_8_RN_6_RD_24_0.png"],["E_Dist_500_LN_2_LD_12_RN_2_RD_3_1.png","E_Dist_500_LN_6_LD_24_RN_6_RD_8_1.png"]]}},{"start_time":1552068675211,"click_time":1552068676946,"finger_time":1552068676583,"fix_duration":1425.9714531544168,"trial":1,"RT":1372,"MT":363,"sideResp":1,"stimulus":[],"xmouse":[787,787,787,787,787,787,787,787,787,787,787,787,787,787,787,787,787,787,787,787,787,787,787,787,787,787,787,787,787,787,787,787,787,787,787,787,787,787,787,787,787,787,787,787,787,787,787,787,787,787,787,787,787,787,787,787,787,787,787,787,787,787,787,787,787,787,780,760,748,726,692,645,571,532,498,479,476,476,476,476,476,476,476,476,476,480,484],"ymouse":[608,608,608,608,608,608,608,608,608,608,608,608,608,608,608,608,608,608,608,608,608,608,608,608,608,608,608,608,608,608,608,608,608,608,608,608,608,608,608,608,608,608,608,608,608,608,608,608,608,608,608,608,608,608,608,608,608,608,608,608,608,608,608,608,608,609,604,576,553,515,458,381,134,22,0,0,0,0,0,0,0,0,0,0,0,0,4],"timestamp_mouse":[13,33,52,73,94,112,132,152,173,192,212,232,252,273,292,312,332,353,373,393,413,432,452,473,492,512,532,552,573,593,614,632,653,673,694,713,733,753,772,792,814,833,852,872,892,912,932,953,972,993,1012,1032,1052,1072,1092,1113,1132,1152,1173,1193,1212,1233,1252,1272,1293,1313,1333,1353,1372,1393,1412,1433,1452,1473,1492,1512,1533,1554,1573,1593,1612,1633,1652,1672,1693,1713,1735],"xSR":741.5,"ySR":573.95,"xT1":424.9,"yT1":0,"xT2":1058.1,"yT2":0,"toosoon":0,"cond_shown":"Congruent","ratio_trial":300,"L_num":20,"L_den":25,"R_num":8,"R_den":16,"correct_side":1,"subjID":"JuanEstabanGuzmanAcosta10","gender":"0","school":"4","age":"9"},{"start_time":1552068679284,"click_time":1552068682104,"finger_time":1552068681424,"fix_duration":558.1965298037651,"trial":2,"RT":2140,"MT":680,"sideResp":2,"stimulus":[],"xmouse":[799,799,799,799,799,799,799,799,799,799,800,800,800,800,800,800,800,800,800,800,800,800,800,800,800,801,801,801,801,801,801,801,801,802,807,808,808,808,808,808,808,808,808,808,808,808,808,808,808,808,808,808,808,808,808,808,808,808,808,808,808,808,808,808,808,808,808,808,808,808,808,808,808,808,808,808,808,808,808,808,808,808,808,808,808,808,808,808,808,808,810,810,810,810,810,810,810,810,810,810,810,810,810,811,815,818,826,839,860,929,953,969,977,984,993,996,998,1002,1004,1005,1008,1017,1021,1024,1028,1032,1033,1035,1037,1041,1042,1042,1042,1042,1042,1043,1045,1047,1051,1055,1060,1065],"ymouse":[613,613,613,613,613,613,613,613,613,613,613,613,613,613,613,613,613,613,613,613,613,613,613,613,613,613,613,613,613,613,613,613,613,613,611,611,610,610,610,610,610,610,610,610,610,610,610,610,610,610,610,610,610,610,610,610,610,610,610,610,610,610,610,610,610,610,610,610,610,610,610,610,610,610,610,610,610,610,610,610,610,610,610,610,610,610,610,610,610,610,610,610,610,610,610,610,610,610,610,610,610,610,610,608,603,599,588,569,539,395,345,306,285,266,241,235,234,229,226,223,218,199,185,174,162,148,143,139,137,131,131,131,131,131,131,130,127,125,121,115,105,91],"timestamp_mouse":[9,20,39,60,80,99,121,139,160,180,200,220,240,260,280,300,320,340,360,380,399,420,439,459,480,500,519,540,559,580,600,620,639,660,680,699,720,739,759,780,800,820,840,860,880,900,919,940,960,980,999,1020,1040,1060,1080,1099,1120,1139,1161,1181,1200,1220,1239,1259,1279,1300,1320,1340,1359,1381,1401,1420,1439,1460,1480,1499,1519,1540,1560,1580,1599,1619,1640,1660,1679,1700,1721,1741,1760,1779,1799,1820,1839,1860,1880,1901,1920,1939,1959,1979,1999,2019,2039,2059,2079,2099,2120,2140,2159,2179,2199,2219,2240,2259,2279,2299,2319,2339,2360,2379,2399,2419,2440,2460,2479,2499,2520,2540,2560,2579,2600,2619,2639,2660,2679,2699,2719,2739,2760,2780,2799,2820],"xSR":741.5,"ySR":573.95,"xT1":424.9,"yT1":0,"xT2":1058.1,"yT2":0,"toosoon":0,"cond_shown":"Congruent","ratio_trial":100,"L_num":2,"L_den":5,"R_num":6,"R_den":12,"correct_side":2,"subjID":"JuanEstabanGuzmanAcosta10","gender":"0","school":"4","age":"9"},{"start_time":1552068684544,"click_time":1552068686663,"finger_time":1552068686285,"fix_duration":1318.934494416205,"trial":3,"RT":1741,"MT":378,"sideResp":2,"stimulus":[],"xmouse":[779,779,779,779,779,779,779,779,779,779,779,779,779,779,779,779,779,779,779,779,779,779,779,779,779,779,779,779,779,779,779,779,779,779,779,779,779,779,779,779,779,779,779,779,779,779,779,779,779,779,779,779,779,779,779,779,779,779,779,779,779,779,779,779,779,779,779,779,779,779,779,779,779,779,779,779,779,779,779,779,779,779,783,787,790,793,801,821,832,835,835,842,848,853,866,884,916,930,942,962,990,1016,1047,1053,1056,1058,1064],"ymouse":[607,607,607,607,607,607,607,607,607,607,607,607,607,607,607,607,607,607,607,607,607,607,607,607,607,607,607,607,607,607,607,607,607,607,607,607,607,607,607,607,607,607,607,607,607,607,607,607,607,607,607,607,607,607,607,607,607,607,607,607,607,607,607,607,607,607,607,607,607,607,607,607,607,607,607,607,607,607,607,607,607,607,605,602,600,595,586,567,556,553,552,547,539,536,524,506,467,424,388,307,217,155,87,72,60,57,43],"timestamp_mouse":[10,21,39,71,79,99,120,139,159,179,199,219,240,260,279,300,320,340,360,379,400,419,441,460,479,500,519,540,560,579,600,619,640,660,679,699,720,739,759,781,800,820,841,860,880,900,919,940,959,979,999,1019,1039,1061,1080,1100,1120,1141,1160,1180,1201,1220,1239,1259,1279,1300,1320,1341,1361,1380,1400,1420,1441,1460,1479,1501,1520,1539,1560,1581,1600,1620,1639,1659,1679,1699,1719,1741,1760,1779,1800,1819,1839,1859,1880,1899,1920,1941,1959,1979,1999,2020,2039,2060,2080,2100,2119],"xSR":741.5,"ySR":573.95,"xT1":424.9,"yT1":0,"xT2":1058.1,"yT2":0,"toosoon":0,"cond_shown":"Incongruent","ratio_trial":100,"L_num":1,"L_den":2,"R_num":8,"R_den":20,"correct_side":1,"subjID":"JuanEstabanGuzmanAcosta10","gender":"0","school":"4","age":"9"},{"start_time":1552068689310,"click_time":1552068693303,"finger_time":1552068692004,"fix_duration":1164.8351796363766,"trial":4,"RT":2694,"MT":1299,"sideResp":2,"stimulus":[],"xmouse":[810,810,810,810,810,810,810,810,810,810,810,810,810,810,810,810,810,810,810,810,810,810,810,810,810,810,810,810,810,810,810,810,810,810,810,810,810,810,810,810,810,810,810,810,810,810,810,810,810,810,810,810,810,810,810,810,810,810,810,810,810,810,810,810,810,810,810,810,810,810,810,810,810,810,810,810,810,810,810,810,810,810,810,810,810,810,810,810,810,810,810,810,810,810,810,810,810,810,810,810,810,810,810,810,810,810,810,810,810,810,810,810,810,810,810,810,810,810,810,810,810,810,810,810,810,810,809,806,798,795,793,792,789,777,770,766,762,756,728,698,650,613,597,584,584,586,586,586,583,581,581,581,581,581,581,581,581,581,581,581,581,581,581,581,581,581,581,581,581,581,581,581,581,581,589,598,612,629,642,657,658,658,658,664,681,699,716,738,769,777,787,801,820,874,900,928,953,979,1042,1065],"ymouse":[625,625,625,625,625,625,625,625,625,625,625,625,625,625,625,625,625,625,625,625,625,625,625,625,625,625,625,625,625,625,625,625,625,625,625,625,625,625,625,625,625,625,625,625,625,625,625,625,625,625,625,625,625,625,625,625,625,625,625,625,625,625,625,625,625,625,625,625,625,625,625,625,625,625,625,625,625,625,625,625,625,625,625,625,625,625,625,625,625,625,625,625,625,625,625,625,625,625,625,625,625,625,625,625,625,625,625,625,625,625,625,625,625,625,625,625,625,625,625,625,625,625,625,625,625,625,624,624,617,614,610,607,600,584,573,563,557,547,505,459,391,352,330,299,284,270,248,196,117,109,109,109,109,109,109,109,109,109,109,109,109,109,109,109,109,109,109,109,109,109,109,109,109,108,108,108,110,112,114,116,116,116,116,116,116,116,116,113,109,108,106,104,101,93,90,85,82,79,70,66],"timestamp_mouse":[14,34,57,74,94,114,134,154,174,194,213,234,253,273,294,313,333,355,374,394,413,434,454,473,493,513,534,553,574,594,614,633,654,674,693,715,734,753,773,794,815,833,854,873,893,913,934,954,975,993,1013,1033,1053,1074,1093,1113,1133,1154,1174,1195,1214,1233,1255,1275,1295,1314,1333,1354,1373,1393,1414,1433,1453,1473,1494,1513,1533,1554,1573,1595,1614,1633,1653,1673,1693,1713,1734,1754,1773,1793,1814,1833,1854,1874,1893,1913,1934,1953,1973,1994,2013,2035,2054,2073,2093,2115,2134,2154,2173,2194,2213,2233,2253,2273,2294,2314,2334,2353,2373,2393,2414,2433,2454,2473,2494,2513,2534,2553,2574,2593,2614,2634,2654,2673,2694,2713,2734,2753,2773,2793,2814,2834,2853,2873,2893,2913,2934,2954,2973,2993,3014,3034,3053,3074,3093,3113,3134,3154,3174,3194,3213,3235,3254,3273,3294,3313,3334,3354,3374,3393,3413,3433,3453,3473,3494,3513,3533,3554,3574,3593,3613,3633,3653,3674,3693,3714,3733,3754,3773,3793,3813,3834,3853,3874,3893,3913,3934,3953,3974,3993],"xSR":741.5,"ySR":573.95,"xT1":424.9,"yT1":0,"xT2":1058.1,"yT2":0,"toosoon":0,"cond_shown":"Congruent","ratio_trial":100,"L_num":9,"L_den":15,"R_num":8,"R_den":16,"correct_side":1,"subjID":"JuanEstabanGuzmanAcosta10","gender":"0","school":"4","age":"9"},{"start_time":1552068695440,"click_time":1552068697783,"finger_time":1552068697383,"fix_duration":874.9980385192744,"trial":5,"RT":1943,"MT":400,"sideResp":2,"stimulus":[],"xmouse":[771,771,771,771,771,771,771,771,773,773,773,773,774,774,774,774,774,774,774,774,774,774,774,774,774,774,774,774,774,774,774,774,774,774,774,774,774,774,774,774,774,774,774,774,774,774,774,774,774,774,774,774,774,774,774,774,774,774,774,774,774,774,774,774,774,774,774,775,775,775,776,778,779,784,786,787,788,788,788,788,788,788,788,788,788,788,788,788,788,788,788,788,788,788,788,791,803,823,854,881,914,956,1012,1129,1188,1197,1202,1202,1202,1202,1202,1202,1202,1201,1196,1189,1173,1154],"ymouse":[610,610,610,610,610,610,610,610,611,611,611,611,611,611,611,611,611,611,611,611,611,611,611,611,611,611,611,611,611,611,611,611,611,611,611,611,611,611,611,611,611,611,611,611,611,611,611,611,611,611,611,611,611,611,611,611,611,611,611,611,611,611,611,611,611,611,611,611,611,611,611,611,611,607,605,603,603,603,603,603,603,603,603,603,603,603,603,603,603,603,603,603,603,603,603,596,580,557,514,473,421,352,273,136,65,55,49,48,48,48,48,47,45,37,36,36,36,36],"timestamp_mouse":[10,23,58,63,83,104,123,143,163,183,203,224,244,264,284,305,325,343,363,383,403,423,444,464,484,504,523,543,563,585,604,623,643,663,685,703,723,744,763,784,805,825,844,863,883,903,923,943,964,983,1003,1024,1044,1063,1083,1104,1124,1144,1163,1183,1204,1223,1244,1264,1284,1303,1323,1343,1364,1384,1404,1423,1444,1463,1484,1503,1523,1543,1563,1583,1604,1625,1644,1663,1684,1704,1724,1745,1764,1784,1804,1823,1843,1864,1884,1903,1925,1943,1963,1983,2003,2023,2044,2063,2084,2103,2124,2144,2165,2184,2204,2223,2244,2263,2284,2304,2324,2343],"xSR":741.5,"ySR":573.95,"xT1":424.9,"yT1":0,"xT2":1058.1,"yT2":0,"toosoon":0,"cond_shown":"Incongruent","ratio_trial":200,"L_num":7,"L_den":10,"R_num":8,"R_den":16,"correct_side":1,"subjID":"JuanEstabanGuzmanAcosta10","gender":"0","school":"4","age":"9"},{"start_time":1552068699833,"click_time":1552068701244,"finger_time":1552068700324,"fix_duration":1067.1111160400708,"trial":6,"RT":491,"MT":920,"sideResp":1,"stimulus":[],"xmouse":[826,826,826,826,826,826,826,826,826,826,826,826,826,826,826,826,826,826,826,826,826,826,826,818,785,711,612,548,530,530,532,533,533,533,533,533,533,533,533,533,533,533,534,537,538,538,538,538,538,538,538,538,535,523,520,520,520,521,523,523,523,523,523,523,523,523,522,521,520,520,517],"ymouse":[610,610,610,610,610,610,610,610,610,610,610,610,610,610,610,610,610,610,610,610,610,610,609,602,561,489,391,308,258,251,246,241,236,232,232,232,232,232,232,232,232,233,238,249,256,258,258,258,258,258,258,253,239,194,166,154,146,139,124,121,118,116,116,116,114,113,111,108,107,103,95],"timestamp_mouse":[10,40,51,70,91,110,130,151,170,191,210,230,252,270,291,311,330,350,370,390,410,431,450,471,491,511,531,550,570,590,611,631,650,670,691,711,730,751,771,791,810,831,852,871,890,911,931,950,970,992,1012,1030,1051,1070,1090,1111,1130,1151,1170,1190,1211,1232,1251,1270,1290,1311,1330,1350,1371,1390,1411],"xSR":741.5,"ySR":573.95,"xT1":424.9,"yT1":0,"xT2":1058.1,"yT2":0,"toosoon":0,"cond_shown":"Incongruent","ratio_trial":100,"L_num":3,"L_den":6,"R_num":4,"R_den":10,"correct_side":1,"subjID":"JuanEstabanGuzmanAcosta10","gender":"0","school":"4","age":"9"},{"start_time":1552068703276,"click_time":1552068706785,"finger_time":1552068704664,"fix_duration":670.4611153009115,"trial":7,"RT":1388,"MT":2121,"sideResp":1,"stimulus":[],"xmouse":[803,803,803,803,803,803,803,803,803,803,803,803,803,803,803,803,803,803,803,803,803,803,803,803,803,803,803,803,803,803,803,803,803,803,803,803,803,803,803,803,803,803,803,803,803,803,803,803,803,803,803,803,803,803,803,803,803,803,803,803,803,803,803,803,803,803,803,805,813,837,881,950,1021,1032,1041,1051,1065,1071,1081,1092,1098,1099,1106,1108,1109,1110,1111,1112,1112,1112,1112,1112,1112,1112,1112,1111,1111,1111,1111,1111,1110,1105,1096,1092,1091,1091,1091,1090,1090,1090,1090,1089,1085,1080,1076,1071,1066,1065,1065,1065,1064,1063,1053,1042,1025,1006,988,961,946,928,904,890,864,851,834,821,811,801,793,791,782,774,738,705,669,646,632,618,600,592,562,542,506,495,492,492,492,490,484,478,477,477,477,470,456,438,421,412,412,412,412,412,412,416,422,434],"ymouse":[594,594,594,594,594,594,594,594,594,594,594,594,594,594,594,594,594,594,594,594,594,594,594,594,594,594,594,594,594,594,594,594,594,594,594,594,594,594,594,594,594,594,594,594,594,594,594,594,594,594,594,594,594,594,594,594,594,594,594,594,594,594,594,594,594,594,594,594,585,565,523,434,331,313,295,270,241,237,225,205,189,188,181,180,179,178,173,172,172,172,172,172,172,173,174,176,176,177,177,178,178,182,189,191,192,192,192,193,193,193,193,193,192,192,191,189,188,188,188,188,188,188,188,187,187,184,182,182,180,176,175,174,171,169,168,167,166,166,166,166,166,169,183,193,200,207,210,214,217,218,220,220,220,217,216,216,214,201,194,188,187,187,187,179,160,145,133,125,125,124,124,122,114,106,93,75],"timestamp_mouse":[9,45,49,68,87,108,127,147,168,187,207,228,248,269,288,308,327,347,367,388,407,428,448,469,487,508,528,547,568,588,608,629,649,668,687,708,727,747,768,788,809,828,848,868,889,908,928,947,967,987,1008,1027,1048,1067,1087,1107,1128,1147,1168,1187,1209,1228,1249,1269,1288,1307,1327,1347,1367,1388,1407,1427,1448,1467,1487,1507,1528,1548,1568,1587,1607,1627,1648,1667,1688,1707,1727,1748,1768,1788,1807,1828,1848,1868,1888,1909,1928,1948,1968,1988,2007,2027,2047,2069,2088,2107,2128,2148,2167,2188,2207,2227,2248,2267,2288,2307,2327,2348,2367,2388,2407,2427,2447,2467,2487,2507,2528,2548,2568,2589,2608,2628,2649,2667,2688,2707,2727,2747,2767,2788,2808,2828,2848,2867,2887,2907,2928,2947,2968,2987,3007,3028,3047,3068,3089,3108,3129,3147,3167,3187,3208,3228,3248,3267,3288,3307,3328,3347,3368,3387,3409,3428,3447,3467,3487,3509],"xSR":741.5,"ySR":573.95,"xT1":424.9,"yT1":0,"xT2":1058.1,"yT2":0,"toosoon":0,"cond_shown":"Incongruent","ratio_trial":100,"L_num":6,"L_den":10,"R_num":13,"R_den":26,"correct_side":1,"subjID":"JuanEstabanGuzmanAcosta10","gender":"0","school":"4","age":"9"},{"start_time":1552068709069,"click_time":1552068710643,"finger_time":1552068710444,"fix_duration":1024.1191536613271,"trial":8,"RT":1375,"MT":199,"sideResp":1,"stimulus":[],"xmouse":[806,806,806,806,806,806,806,806,806,806,806,806,806,806,806,806,806,806,806,806,806,806,806,806,806,806,806,806,806,806,806,806,806,806,806,806,806,806,806,806,806,806,806,806,806,806,806,806,806,806,806,806,806,806,806,806,806,806,806,806,806,806,806,806,806,806,806,806,788,767,719,652,553,547,545,542,532,511,451],"ymouse":[589,589,589,589,589,589,589,589,589,589,589,589,589,589,589,589,589,589,589,589,589,589,589,589,589,589,589,589,589,589,589,589,589,589,589,589,589,589,589,589,589,589,589,589,589,589,589,589,589,589,589,589,589,589,589,589,589,589,589,589,589,589,589,589,589,589,589,589,560,531,469,387,262,240,229,223,208,183,97],"timestamp_mouse":[15,34,55,74,95,116,135,154,174,195,215,234,255,274,297,315,335,355,374,394,414,434,454,475,494,514,534,554,574,596,615,635,654,675,695,714,735,754,774,794,814,835,855,875,894,915,934,954,975,995,1014,1035,1054,1076,1095,1115,1134,1154,1174,1196,1215,1234,1254,1275,1294,1314,1335,1354,1375,1395,1414,1434,1455,1474,1494,1514,1534,1555,1574],"xSR":741.5,"ySR":573.95,"xT1":424.9,"yT1":0,"xT2":1058.1,"yT2":0,"toosoon":0,"cond_shown":"Incongruent","ratio_trial":300,"L_num":8,"L_den":10,"R_num":14,"R_den":28,"correct_side":1,"subjID":"JuanEstabanGuzmanAcosta10","gender":"0","school":"4","age":"9"},{"start_time":1552068711794,"click_time":1552068715425,"finger_time":1552068714784,"fix_duration":250,"trial":9,"RT":2990,"MT":641,"sideResp":2,"stimulus":[],"xmouse":[817,817,817,817,817,817,817,817,817,817,817,817,817,817,817,817,817,817,817,817,817,817,817,817,817,817,817,817,817,817,817,817,817,817,817,817,817,817,817,817,817,817,817,817,817,817,817,817,817,817,817,817,817,817,817,817,817,817,817,817,817,817,817,817,817,817,817,817,817,817,817,817,817,817,817,817,817,817,817,817,817,817,817,817,817,817,817,817,817,817,817,817,817,817,817,817,817,817,817,817,817,817,817,817,817,817,817,817,817,817,817,817,817,817,817,817,817,817,817,817,817,817,817,817,817,817,817,817,817,817,817,817,817,817,817,817,817,817,817,817,817,817,817,816,816,818,820,833,837,846,869,884,901,916,931,944,949,953,969,972,985,992,998,1003,1009,1011,1013,1017,1018,1020,1022,1022,1023,1023,1023,1023,1023,1029,1037,1044,1054,1060],"ymouse":[649,649,649,649,649,649,649,649,649,649,649,649,649,649,649,649,649,649,649,649,649,649,649,649,649,649,649,649,649,649,649,649,649,649,649,649,649,649,649,649,649,649,649,649,649,649,649,649,649,649,649,649,649,649,649,649,649,649,649,649,649,649,649,649,649,649,649,649,649,649,649,649,649,649,649,649,649,649,649,649,649,649,649,649,649,649,649,649,649,649,649,649,649,649,649,649,649,649,649,649,649,649,649,649,649,649,649,649,644,644,644,644,644,644,644,644,644,644,644,644,644,644,644,644,644,644,644,644,644,644,644,644,644,644,644,644,644,644,644,644,644,644,644,643,638,633,624,594,585,567,526,501,456,432,413,392,376,355,329,325,312,306,293,284,274,273,271,263,258,247,229,225,220,220,220,220,220,170,140,115,86,74],"timestamp_mouse":[9,30,50,69,93,109,129,150,170,191,210,230,250,270,289,310,330,350,370,389,411,431,451,470,490,510,529,551,570,590,609,629,650,670,690,709,730,751,770,789,809,830,850,869,890,910,929,950,970,991,1010,1030,1050,1070,1091,1109,1130,1151,1170,1190,1210,1229,1249,1270,1289,1309,1329,1349,1370,1390,1409,1431,1450,1469,1490,1509,1531,1550,1570,1590,1609,1629,1651,1670,1690,1709,1729,1749,1770,1789,1811,1829,1849,1870,1890,1911,1930,1950,1969,1989,2009,2029,2051,2070,2090,2110,2129,2149,2169,2190,2209,2229,2251,2270,2291,2309,2330,2350,2371,2390,2410,2430,2449,2470,2489,2510,2530,2550,2570,2590,2610,2629,2649,2669,2689,2709,2730,2749,2769,2790,2810,2830,2850,2869,2890,2909,2930,2949,2969,2990,3010,3030,3049,3069,3090,3110,3131,3149,3169,3189,3210,3229,3249,3269,3290,3310,3330,3349,3369,3389,3410,3429,3449,3469,3489,3509,3530,3549,3569,3590,3609,3630],"xSR":741.5,"ySR":573.95,"xT1":424.9,"yT1":0,"xT2":1058.1,"yT2":0,"toosoon":0,"cond_shown":"Congruent","ratio_trial":200,"L_num":21,"L_den":30,"R_num":2,"R_den":4,"correct_side":1,"subjID":"JuanEstabanGuzmanAcosta10","gender":"0","school":"4","age":"9"},{"start_time":1552068720505,"click_time":1552068722185,"finger_time":1552068722063,"fix_duration":1240.1685700478565,"trial":10,"RT":1558,"MT":122,"sideResp":1,"stimulus":[],"xmouse":[798,798,798,798,798,798,798,798,798,798,798,798,798,798,798,798,798,798,798,798,798,798,798,798,798,798,798,798,798,798,798,798,798,798,798,798,798,798,798,798,798,798,798,798,798,798,798,798,798,798,798,798,799,799,799,800,800,800,800,800,800,800,800,800,800,800,800,800,800,800,800,800,800,800,800,800,795,754,729,699,640,606,545,524],"ymouse":[633,633,633,633,633,633,633,633,633,633,633,633,633,633,633,633,633,633,633,633,633,633,633,633,633,633,633,633,633,633,633,633,633,633,633,633,633,633,633,633,635,635,635,635,635,635,635,635,635,635,635,635,636,636,636,637,637,637,637,637,637,637,637,637,637,637,637,637,637,637,637,637,637,637,637,631,616,472,398,330,246,199,115,83],"timestamp_mouse":[19,40,58,79,100,118,139,159,179,199,218,239,259,279,298,319,339,359,378,398,419,438,459,479,499,520,539,560,579,599,618,638,659,678,700,719,739,758,778,799,818,838,858,879,899,918,938,960,978,999,1018,1038,1060,1080,1100,1118,1139,1160,1179,1199,1219,1240,1260,1278,1299,1318,1339,1359,1378,1398,1419,1440,1458,1478,1498,1518,1538,1558,1579,1599,1618,1638,1660,1680],"xSR":741.5,"ySR":573.95,"xT1":424.9,"yT1":0,"xT2":1058.1,"yT2":0,"toosoon":0,"cond_shown":"Congruent","ratio_trial":300,"L_num":11,"L_den":22,"R_num":2,"R_den":10,"correct_side":1,"subjID":"JuanEstabanGuzmanAcosta10","gender":"0","school":"4","age":"9"},{"start_time":1552068731900,"click_time":1552068733507,"finger_time":1552068733386,"fix_duration":250,"trial":11,"RT":1486,"MT":121,"sideResp":2,"stimulus":[],"xmouse":[781,781,781,781,781,781,781,781,781,781,781,781,781,781,781,781,781,781,781,781,781,781,781,781,781,781,781,781,781,781,781,781,781,781,781,781,781,781,781,781,781,781,781,781,781,781,781,781,781,781,781,781,781,781,781,781,781,781,781,781,781,781,781,781,781,783,783,786,787,787,787,787,790,794,818,851,884,940,973,1033,1071],"ymouse":[624,624,624,624,624,624,624,624,624,624,624,624,624,624,624,624,624,624,624,624,624,624,624,624,624,624,624,624,624,624,624,624,624,624,624,624,624,624,624,624,624,624,624,624,624,624,624,624,624,624,624,624,624,624,624,624,624,624,624,624,624,624,624,624,624,624,622,617,617,617,617,617,613,610,569,503,430,297,218,103,53],"timestamp_mouse":[11,27,46,67,87,107,127,147,166,187,206,228,247,267,287,307,326,346,368,388,406,427,446,466,487,507,527,546,566,586,606,626,646,666,687,706,727,748,767,787,808,826,847,868,888,907,926,948,968,987,1007,1028,1047,1068,1087,1108,1126,1148,1167,1186,1207,1227,1247,1268,1287,1307,1326,1346,1367,1387,1407,1427,1446,1468,1486,1506,1527,1547,1567,1587,1606],"xSR":741.5,"ySR":573.95,"xT1":424.9,"yT1":0,"xT2":1058.1,"yT2":0,"toosoon":0,"cond_shown":"Incongruent","ratio_trial":100,"L_num":6,"L_den":12,"R_num":3,"R_den":5,"correct_side":2,"subjID":"JuanEstabanGuzmanAcosta10","gender":"0","school":"4","age":"9"},{"start_time":1552068736685,"click_time":1552068738607,"finger_time":1552068738246,"fix_duration":277.7688728528599,"trial":12,"RT":1561,"MT":361,"sideResp":1,"stimulus":[],"xmouse":[801,801,801,801,801,801,801,801,801,801,801,801,801,801,801,801,801,801,801,801,801,801,801,801,801,801,801,801,801,801,801,801,801,801,801,801,801,801,801,801,801,801,801,801,801,801,801,801,801,801,801,801,801,801,801,801,801,801,801,801,801,801,801,801,801,801,801,801,801,801,801,801,801,801,801,801,801,801,796,783,726,703,692,686,676,651,634,613,591,569,552,543,543,543,541,531,514],"ymouse":[633,633,633,633,633,633,633,633,633,633,633,633,633,633,633,633,633,633,633,633,633,633,633,633,633,633,633,633,633,633,633,633,633,633,633,633,633,633,633,633,633,633,633,633,633,633,633,633,633,633,633,633,633,633,633,633,633,633,633,633,633,633,633,633,633,633,633,633,633,633,633,633,633,633,633,633,626,583,509,429,270,214,187,169,144,104,86,70,59,50,43,40,40,40,40,46,59],"timestamp_mouse":[14,31,41,61,82,101,122,142,161,183,201,222,242,263,281,302,322,342,363,381,402,421,441,462,483,502,522,541,563,583,602,621,643,661,683,702,722,741,762,783,802,821,842,863,882,902,922,941,963,981,1001,1022,1041,1061,1081,1102,1121,1141,1163,1182,1202,1222,1243,1263,1282,1302,1322,1341,1362,1381,1402,1423,1441,1461,1482,1503,1521,1541,1561,1581,1602,1621,1643,1662,1681,1702,1721,1743,1762,1782,1803,1822,1842,1863,1882,1902,1922],"xSR":741.5,"ySR":573.95,"xT1":424.9,"yT1":0,"xT2":1058.1,"yT2":0,"toosoon":0,"cond_shown":"Congruent","ratio_trial":200,"L_num":15,"L_den":25,"R_num":4,"R_den":10,"correct_side":1,"subjID":"JuanEstabanGuzmanAcosta10","gender":"0","school":"4","age":"9"},{"start_time":1552068742849,"click_time":1552068744987,"finger_time":1552068744566,"fix_duration":1401.110041982504,"trial":13,"RT":1717,"MT":421,"sideResp":2,"stimulus":[],"xmouse":[814,813,813,813,813,813,813,813,813,813,813,813,813,813,813,813,813,813,813,813,813,813,813,813,813,813,813,813,813,813,813,813,813,813,813,813,813,813,813,813,813,813,813,813,813,813,813,813,813,813,813,813,813,813,813,813,813,813,813,813,813,813,813,813,813,813,813,813,813,813,813,813,813,813,813,813,813,813,813,813,813,813,813,813,841,899,933,957,965,969,971,971,973,975,977,977,980,982,985,989,994,1004,1014,1019,1031,1045,1062],"ymouse":[641,641,641,641,641,641,641,641,641,641,641,641,641,641,641,641,641,641,641,641,641,641,641,641,641,641,641,641,641,641,641,641,641,641,641,641,641,641,641,641,641,641,641,641,641,641,641,641,641,641,641,641,641,641,641,641,641,641,641,641,641,641,641,641,641,641,641,641,641,641,641,641,641,641,641,641,641,641,641,641,641,641,641,638,591,502,411,267,225,200,187,179,161,156,152,150,146,138,133,124,111,95,85,81,73,68,64],"timestamp_mouse":[18,38,58,79,99,117,138,159,177,198,219,239,257,277,298,317,339,358,377,398,419,439,457,477,497,518,537,557,578,599,618,637,657,678,699,718,739,758,777,797,818,839,859,878,898,918,938,957,979,997,1017,1037,1057,1079,1097,1119,1138,1157,1178,1197,1219,1237,1257,1279,1297,1317,1339,1357,1379,1398,1418,1438,1457,1478,1498,1518,1538,1558,1577,1598,1617,1638,1658,1678,1697,1717,1737,1758,1777,1798,1818,1837,1858,1877,1897,1917,1938,1958,1977,1999,2018,2038,2058,2077,2097,2117,2138],"xSR":741.5,"ySR":573.95,"xT1":424.9,"yT1":0,"xT2":1058.1,"yT2":0,"toosoon":0,"cond_shown":"Incongruent","ratio_trial":100,"L_num":6,"L_den":10,"R_num":7,"R_den":14,"correct_side":1,"subjID":"JuanEstabanGuzmanAcosta10","gender":"0","school":"4","age":"9"},{"start_time":1552068751605,"click_time":1552068753127,"finger_time":1552068752966,"fix_duration":1475.3755356695658,"trial":14,"RT":1361,"MT":161,"sideResp":2,"stimulus":[],"xmouse":[773,773,773,773,773,773,773,773,773,775,776,779,782,782,782,782,782,782,782,782,782,782,782,782,782,782,782,782,782,782,782,782,782,782,782,782,782,782,782,782,782,782,782,782,782,782,782,782,782,782,782,782,782,782,782,782,782,782,782,782,782,782,782,782,782,783,793,804,821,848,877,923,960,988,1016,1040,1062],"ymouse":[621,621,621,621,621,621,621,621,621,625,627,632,634,634,634,634,634,634,634,634,634,634,634,634,634,634,634,634,634,634,634,634,634,634,634,634,634,634,634,634,634,634,634,634,634,634,634,634,634,634,634,634,634,634,634,634,634,634,634,634,634,634,634,634,634,634,611,586,546,477,404,292,216,164,118,75,47],"timestamp_mouse":[10,22,42,62,81,102,123,143,163,181,201,221,242,262,281,301,321,343,361,382,402,422,442,461,483,501,522,542,563,582,601,621,641,663,683,703,721,742,762,781,802,822,842,861,882,901,921,942,962,983,1002,1021,1042,1062,1082,1102,1121,1142,1161,1183,1202,1221,1242,1261,1282,1301,1322,1341,1361,1382,1401,1421,1441,1461,1482,1502,1521],"xSR":741.5,"ySR":573.95,"xT1":424.9,"yT1":0,"xT2":1058.1,"yT2":0,"toosoon":0,"cond_shown":"Incongruent","ratio_trial":100,"L_num":8,"L_den":20,"R_num":1,"R_den":2,"correct_side":2,"subjID":"JuanEstabanGuzmanAcosta10","gender":"0","school":"4","age":"9"},{"start_time":1552068755482,"click_time":1552068757026,"finger_time":1552068756848,"fix_duration":1313.376626486835,"trial":15,"RT":1366,"MT":178,"sideResp":2,"stimulus":[],"xmouse":[801,801,801,800,800,800,800,800,800,800,800,800,800,800,800,800,800,800,800,800,800,800,800,800,800,800,800,800,800,800,800,800,800,800,800,800,800,800,800,800,800,800,800,800,800,800,800,800,800,800,800,799,798,798,798,798,798,798,798,798,798,798,798,798,798,798,798,798,803,825,868,949,1038,1120,1122,1122,1122,1122],"ymouse":[627,627,627,627,627,627,627,627,627,627,627,627,627,627,627,627,627,627,627,627,627,627,627,627,627,627,627,627,627,627,627,627,627,627,627,626,626,626,626,626,626,626,626,626,626,626,626,626,626,626,626,624,614,609,605,604,603,603,603,603,603,603,603,603,603,603,603,601,537,456,315,143,3,0,0,0,0,6],"timestamp_mouse":[9,25,44,80,85,105,125,144,164,186,205,225,244,264,284,304,326,344,364,386,405,426,444,465,486,504,525,546,566,585,606,626,645,664,684,705,725,744,765,785,804,824,846,866,885,904,924,945,966,984,1005,1024,1045,1064,1086,1105,1124,1145,1165,1186,1206,1224,1244,1264,1285,1304,1324,1345,1366,1385,1405,1426,1446,1464,1485,1505,1525,1544],"xSR":741.5,"ySR":573.95,"xT1":424.9,"yT1":0,"xT2":1058.1,"yT2":0,"toosoon":0,"cond_shown":"Incongruent","ratio_trial":300,"L_num":4,"L_den":20,"R_num":2,"R_den":4,"correct_side":2,"subjID":"JuanEstabanGuzmanAcosta10","gender":"0","school":"4","age":"9"},{"start_time":1552068759402,"click_time":1552068761107,"finger_time":1552068760746,"fix_duration":1373.4170693639326,"trial":16,"RT":1344,"MT":361,"sideResp":1,"stimulus":[],"xmouse":[795,795,795,795,795,795,795,795,795,795,795,795,795,795,795,795,795,795,795,795,795,795,795,795,795,795,795,795,795,795,795,795,795,795,795,795,795,789,772,767,766,766,766,766,766,766,766,766,766,766,766,766,766,766,766,766,766,766,766,766,766,766,766,766,766,766,760,735,657,586,536,507,489,485,483,483,483,483,483,476,465,451,438,440,449,459],"ymouse":[628,628,628,628,628,628,628,628,628,628,628,628,628,628,628,628,628,628,628,628,628,628,628,628,628,628,628,628,628,628,628,628,628,628,628,628,628,628,640,644,644,644,644,644,644,644,644,644,644,644,644,644,644,644,644,644,644,644,644,644,644,644,644,644,644,644,644,629,551,473,404,370,342,334,326,316,308,281,244,221,201,190,182,172,141,76],"timestamp_mouse":[9,24,45,65,84,104,124,146,165,184,206,225,244,265,285,304,325,344,364,385,404,425,446,465,485,504,526,544,566,586,604,624,644,664,686,706,726,744,764,784,806,825,846,866,885,906,925,944,966,986,1006,1025,1044,1064,1084,1106,1125,1144,1164,1185,1206,1224,1244,1264,1284,1304,1325,1344,1364,1384,1406,1425,1445,1464,1484,1504,1525,1545,1565,1584,1604,1624,1645,1664,1684,1704],"xSR":741.5,"ySR":573.95,"xT1":424.9,"yT1":0,"xT2":1058.1,"yT2":0,"toosoon":0,"cond_shown":"Incongruent","ratio_trial":200,"L_num":4,"L_den":6,"R_num":14,"R_den":30,"correct_side":1,"subjID":"JuanEstabanGuzmanAcosta10","gender":"0","school":"4","age":"9"},{"start_time":1552068762581,"click_time":1552068764646,"finger_time":1552068763926,"fix_duration":553.572415533097,"trial":17,"RT":1345,"MT":720,"sideResp":1,"stimulus":[],"xmouse":[793,793,793,793,793,793,793,793,793,793,793,793,793,793,793,793,791,790,790,790,790,790,790,790,790,790,790,790,790,790,790,790,790,789,789,789,789,789,789,789,789,789,788,782,780,780,780,780,780,780,780,780,779,779,779,779,779,779,778,778,778,778,778,778,778,778,781,784,813,827,837,847,856,864,866,872,875,875,875,875,874,857,834,798,711,676,634,559,508,489,460,420,388,367,358,359,364,371,380,397,408,416,423,427],"ymouse":[595,595,595,595,595,595,595,595,595,595,596,596,596,596,598,600,605,606,606,606,606,606,606,606,606,606,606,606,606,606,606,606,606,606,606,605,605,605,605,605,605,605,605,604,604,604,604,604,604,604,604,604,603,603,601,599,598,595,590,589,589,589,589,589,589,585,575,564,451,399,370,354,343,336,335,329,325,325,325,325,325,330,341,351,354,344,322,276,233,210,176,128,88,61,39,31,24,19,17,15,15,17,18,20],"timestamp_mouse":[5,26,54,65,86,107,125,146,166,186,206,225,245,265,286,305,325,347,366,386,407,426,446,466,485,507,527,546,566,586,605,626,646,666,685,706,725,745,766,785,806,827,845,866,885,905,925,945,965,986,1005,1026,1045,1066,1086,1105,1125,1146,1165,1185,1206,1225,1247,1265,1286,1305,1325,1345,1366,1385,1406,1426,1446,1466,1485,1506,1526,1545,1585,1586,1605,1627,1646,1665,1686,1705,1725,1746,1766,1785,1805,1826,1845,1865,1886,1906,1926,1946,1965,1986,2005,2026,2047,2065],"xSR":741.5,"ySR":573.95,"xT1":424.9,"yT1":0,"xT2":1058.1,"yT2":0,"toosoon":0,"cond_shown":"Congruent","ratio_trial":100,"L_num":12,"L_den":30,"R_num":13,"R_den":26,"correct_side":2,"subjID":"JuanEstabanGuzmanAcosta10","gender":"0","school":"4","age":"9"},{"start_time":1552068765881,"click_time":1552068767106,"finger_time":1552068766666,"fix_duration":512.4118724626132,"trial":18,"RT":785,"MT":440,"sideResp":1,"stimulus":[],"xmouse":[772,772,772,772,772,772,772,772,772,772,772,772,772,772,772,772,772,772,772,772,772,772,772,772,772,772,772,772,772,773,773,773,773,773,773,774,772,770,756,739,693,670,596,570,552,551,551,554,560,560,560,560,560,561,562,562,562,562,562,547,525,500],"ymouse":[647,647,647,647,647,647,647,647,647,647,647,647,647,647,647,647,647,647,647,647,647,647,647,647,647,647,647,647,647,647,647,647,647,647,647,646,642,636,588,528,412,372,261,216,163,150,139,120,100,94,93,92,92,91,84,82,81,80,80,84,91,92],"timestamp_mouse":[10,25,46,67,85,105,125,147,165,185,206,225,247,266,285,306,327,346,365,385,407,426,446,466,485,505,526,545,566,586,606,626,646,667,685,707,727,746,767,785,805,825,845,865,885,905,926,945,966,987,1006,1026,1046,1065,1085,1105,1126,1146,1165,1186,1206,1225],"xSR":741.5,"ySR":573.95,"xT1":424.9,"yT1":0,"xT2":1058.1,"yT2":0,"toosoon":0,"cond_shown":"Incongruent","ratio_trial":200,"L_num":1,"L_den":2,"R_num":3,"R_den":10,"correct_side":1,"subjID":"JuanEstabanGuzmanAcosta10","gender":"0","school":"4","age":"9"},{"start_time":1552068771269,"click_time":1552068773186,"finger_time":1552068772407,"fix_duration":602.4679115033631,"trial":19,"RT":1138,"MT":779,"sideResp":2,"stimulus":[],"xmouse":[815,815,815,815,815,815,815,815,815,815,815,815,815,815,815,815,815,815,815,815,815,815,815,815,815,815,815,815,815,815,815,815,815,815,815,815,815,815,815,815,815,815,815,815,815,815,815,815,815,815,815,815,815,817,821,825,828,831,833,835,837,839,841,843,846,853,855,858,858,860,878,891,908,932,977,1068,1094,1119,1134,1137,1145,1155,1168,1182,1225,1235,1236,1236,1230,1201,1196,1192,1186,1178,1161,1106],"ymouse":[615,615,615,615,615,615,615,615,615,615,615,615,615,615,615,615,615,615,615,615,615,615,615,615,615,615,615,615,615,615,615,615,615,615,615,615,615,615,615,615,615,615,615,615,615,615,615,615,615,615,615,615,615,611,596,582,569,559,554,546,541,536,533,530,526,513,509,505,503,499,468,450,428,405,372,257,214,179,154,143,128,119,93,52,0,0,0,0,7,47,51,53,54,51,41,29],"timestamp_mouse":[17,46,58,77,98,117,137,157,177,198,217,237,257,277,298,317,338,358,377,398,419,438,458,477,498,519,537,558,577,598,618,637,658,679,697,719,737,757,778,797,817,838,859,878,898,918,938,959,978,998,1019,1038,1058,1077,1098,1117,1138,1158,1179,1198,1217,1238,1257,1277,1297,1317,1337,1358,1379,1398,1417,1438,1457,1478,1498,1517,1539,1557,1577,1597,1618,1638,1657,1677,1699,1718,1738,1758,1778,1798,1817,1837,1858,1878,1897,1917],"xSR":741.5,"ySR":573.95,"xT1":424.9,"yT1":0,"xT2":1058.1,"yT2":0,"toosoon":0,"cond_shown":"Incongruent","ratio_trial":100,"L_num":11,"L_den":22,"R_num":9,"R_den":15,"correct_side":2,"subjID":"JuanEstabanGuzmanAcosta10","gender":"0","school":"4","age":"9"},{"start_time":1552068774632,"click_time":1552068776186,"finger_time":1552068775506,"fix_duration":543.7125181802911,"trial":20,"RT":874,"MT":680,"sideResp":2,"stimulus":[],"xmouse":[778,778,778,778,778,778,778,778,778,778,778,778,778,778,778,778,778,778,778,778,778,778,778,779,779,779,779,779,779,779,779,779,779,779,779,779,779,779,779,779,779,781,788,792,800,808,852,872,897,911,944,952,963,963,963,963,963,963,963,964,967,971,984,996,1003,1008,1010,1014,1018,1024,1033,1038,1042,1043,1044,1046,1049,1062],"ymouse":[617,617,617,617,617,617,617,617,617,617,617,617,617,617,617,617,617,617,617,617,617,617,617,617,617,617,617,617,617,617,617,617,617,617,617,617,617,617,617,617,617,613,596,573,547,517,410,366,308,280,198,168,125,114,108,103,101,99,99,95,92,86,73,65,60,56,54,52,50,48,39,33,30,29,28,28,27,27],"timestamp_mouse":[14,34,60,74,94,114,135,156,175,195,216,234,255,274,296,314,334,355,374,394,415,434,455,475,495,516,536,554,576,596,616,635,655,675,696,716,735,754,774,795,815,835,854,874,895,915,936,955,975,995,1015,1034,1054,1074,1095,1114,1136,1154,1175,1195,1216,1234,1254,1274,1295,1314,1335,1356,1375,1395,1414,1435,1454,1474,1496,1515,1536,1554],"xSR":741.5,"ySR":573.95,"xT1":424.9,"yT1":0,"xT2":1058.1,"yT2":0,"toosoon":0,"cond_shown":"Congruent","ratio_trial":200,"L_num":7,"L_den":15,"R_num":18,"R_den":27,"correct_side":2,"subjID":"JuanEstabanGuzmanAcosta10","gender":"0","school":"4","age":"9"},{"start_time":1552068778698,"click_time":1552068784092,"finger_time":1552068780407,"fix_duration":1389.1932678374128,"trial":21,"RT":1709,"MT":3685,"sideResp":1,"stimulus":[],"xmouse":[812,812,812,812,812,812,812,812,812,812,812,812,812,812,812,812,812,812,812,812,812,812,812,812,812,812,812,812,812,812,812,812,812,812,812,812,812,812,812,812,812,812,812,812,812,812,812,812,812,812,812,812,812,812,812,812,812,812,812,812,812,812,812,812,812,812,812,812,812,816,817,819,821,821,821,821,821,821,821,821,821,816,813,805,791,740,724,713,711,711,711,711,711,711,711,711,711,711,711,711,711,711,711,711,711,711,711,711,711,711,711,711,711,711,711,711,711,711,711,711,711,711,711,711,711,711,711,711,711,711,711,711,711,711,711,711,711,711,711,712,714,716,718,722,724,732,736,741,745,748,749,750,753,759,760,760,760,760,760,760,760,760,760,760,760,760,760,760,760,760,760,760,760,760,760,760,760,760,760,760,760,760,760,760,760,761,761,761,761,761,766,774,783,787,792,796,796,798,801,804,814,817,827,848,848,866,876,887,901,918,958,976,1000,1009,1017,1040,1048,1056,1061,1065,1076,1079,1082,1086,1089,1089,1089,1089,1089,1089,1089,1085,1074,1046,999,976,958,947,936,907,880,814,794,765,757,748,739,716,686,659,632,628,628,628,627,616,596,560,496,401,389,388,388,387,387,388,393,404,416,425],"ymouse":[609,609,609,609,609,609,609,609,609,609,609,609,609,609,609,609,609,609,609,609,609,609,609,609,609,609,609,609,609,609,609,609,609,609,609,609,609,609,609,609,609,609,609,609,609,609,609,609,609,609,609,609,609,609,609,609,609,609,609,609,609,609,609,609,609,609,609,609,610,611,612,613,613,613,613,613,613,613,613,613,613,613,610,604,590,538,522,508,506,506,506,506,506,506,506,506,506,506,506,506,506,506,506,506,506,506,506,506,506,506,506,506,504,503,502,502,502,502,502,502,502,502,502,502,502,502,502,502,502,502,502,502,502,502,502,502,502,501,499,496,492,488,486,481,481,477,476,474,474,474,474,473,472,467,467,467,467,467,467,467,467,467,467,467,467,467,467,467,467,467,467,467,467,467,467,467,467,467,467,467,467,467,467,467,467,465,462,458,456,444,433,420,406,398,392,387,386,383,379,376,366,364,359,346,346,336,330,325,318,311,299,294,284,279,274,257,251,244,240,236,226,222,218,211,208,208,208,208,208,208,207,206,201,189,171,167,164,163,163,158,148,120,113,104,102,99,96,89,81,74,67,67,67,67,67,66,67,82,104,126,126,126,126,125,119,117,112,105,98,91],"timestamp_mouse":[10,44,49,68,89,109,128,149,170,188,208,230,249,269,288,310,328,348,370,388,408,430,449,469,489,508,529,548,568,588,610,630,649,669,688,709,729,750,768,788,809,830,848,869,889,909,929,949,968,989,1009,1029,1050,1070,1089,1109,1129,1149,1170,1189,1208,1229,1249,1269,1289,1309,1328,1349,1368,1388,1409,1429,1449,1468,1488,1510,1528,1548,1568,1588,1608,1630,1649,1668,1688,1709,1729,1749,1770,1789,1808,1829,1849,1869,1889,1908,1928,1949,1970,1989,2010,2029,2050,2069,2089,2109,2128,2149,2169,2189,2208,2228,2248,2269,2289,2309,2329,2348,2369,2389,2409,2429,2448,2468,2489,2508,2528,2549,2569,2589,2608,2629,2649,2670,2689,2710,2729,2749,2770,2789,2808,2828,2848,2869,2888,2909,2928,2948,2968,2988,3008,3029,3049,3069,3090,3110,3129,3149,3169,3188,3209,3229,3248,3268,3290,3308,3329,3348,3369,3389,3409,3430,3449,3469,3489,3508,3528,3549,3569,3590,3610,3629,3650,3669,3688,3709,3728,3748,3769,3789,3808,3829,3849,3868,3889,3909,3929,3948,3968,3989,4008,4029,4048,4074,4088,4108,4129,4149,4169,4190,4208,4229,4248,4273,4292,4313,4332,4352,4373,4392,4413,4433,4453,4472,4493,4512,4532,4553,4574,4593,4613,4633,4653,4672,4697,4712,4732,4754,4773,4793,4812,4833,4853,4873,4892,4912,4932,4952,4972,4993,5012,5032,5053,5072,5092,5113,5132,5152,5172,5193,5212,5232,5252,5272,5293,5312,5332,5352,5372,5393],"xSR":741.5,"ySR":573.95,"xT1":424.9,"yT1":0,"xT2":1058.1,"yT2":0,"toosoon":0,"cond_shown":"Congruent","ratio_trial":100,"L_num":15,"L_den":25,"R_num":13,"R_den":26,"correct_side":1,"subjID":"JuanEstabanGuzmanAcosta10","gender":"0","school":"4","age":"9"},{"start_time":1552068785506,"click_time":1552068787511,"finger_time":1552068787110,"fix_duration":474.6134659733964,"trial":22,"RT":1604,"MT":401,"sideResp":1,"stimulus":[],"xmouse":[762,762,762,763,763,764,764,764,764,764,764,764,764,764,764,764,764,764,764,764,764,764,765,768,769,770,770,770,770,770,770,770,770,770,770,770,770,770,770,770,770,770,770,770,766,765,765,765,765,765,765,765,765,765,765,765,765,765,765,765,765,765,765,765,765,765,765,765,765,765,765,765,765,765,765,762,759,754,748,743,726,720,711,705,698,658,625,593,571,560,532,504,490,487,487,487,487,488,491,496,517],"ymouse":[658,658,658,656,655,653,653,653,653,653,653,653,653,653,653,653,653,653,653,653,653,653,649,643,640,639,639,639,639,639,639,639,639,639,639,639,639,639,639,639,639,639,639,639,639,639,639,639,639,639,639,639,639,639,639,639,639,639,639,639,639,639,639,639,639,639,639,639,639,639,639,639,639,639,639,639,636,634,632,629,613,598,565,536,492,391,339,290,253,233,190,152,136,132,132,130,125,121,114,105,67],"timestamp_mouse":[10,24,44,65,84,104,125,144,164,186,205,224,245,264,285,306,326,345,364,384,406,425,445,465,485,504,525,546,564,585,605,626,646,665,685,705,726,744,764,784,804,826,844,865,884,905,925,945,965,985,1004,1024,1045,1065,1084,1105,1126,1144,1164,1185,1206,1225,1246,1265,1284,1304,1325,1344,1365,1384,1404,1424,1445,1466,1484,1504,1524,1546,1565,1585,1604,1624,1644,1664,1684,1704,1724,1745,1765,1785,1804,1825,1844,1864,1886,1905,1924,1944,1964,1985,2004],"xSR":741.5,"ySR":573.95,"xT1":424.9,"yT1":0,"xT2":1058.1,"yT2":0,"toosoon":0,"cond_shown":"Congruent","ratio_trial":300,"L_num":4,"L_den":5,"R_num":2,"R_den":4,"correct_side":1,"subjID":"JuanEstabanGuzmanAcosta10","gender":"0","school":"4","age":"9"},{"start_time":1552068793226,"click_time":1552068795650,"finger_time":1552068795110,"fix_duration":1134.9249415799939,"trial":23,"RT":1884,"MT":540,"sideResp":1,"stimulus":[],"xmouse":[797,797,797,797,797,797,797,797,797,797,797,797,797,797,797,797,797,797,797,797,797,797,797,797,797,797,797,797,797,797,797,797,797,797,797,797,797,797,797,797,797,797,797,797,797,797,797,797,797,797,797,797,797,797,797,797,797,797,797,797,797,797,797,797,797,797,797,797,797,797,797,797,797,797,797,797,797,797,797,797,797,797,797,797,797,797,797,797,797,797,797,797,794,780,742,577,486,422,403,402,405,405,405,401,394,389,389,394,403,413,423,438,441,443,443,443,443,445,446,447,449,450],"ymouse":[636,636,636,636,636,636,636,636,636,636,636,636,636,636,636,636,636,636,636,636,636,636,636,636,636,636,636,636,636,636,636,636,636,636,636,636,636,636,636,636,636,636,636,636,636,636,636,636,636,636,636,636,636,636,636,636,636,636,636,636,636,636,636,636,636,636,636,636,636,636,636,636,636,636,636,636,636,636,636,636,636,636,636,636,636,636,636,636,636,636,636,636,629,603,534,321,228,160,136,128,116,103,95,81,66,52,42,26,12,0,0,0,0,0,0,0,0,0,0,0,0,1],"timestamp_mouse":[10,24,45,65,85,105,124,145,164,184,205,225,244,264,285,305,325,345,365,385,405,424,445,465,485,504,525,544,565,584,604,626,646,665,685,704,724,746,764,785,805,824,845,864,885,904,924,944,964,985,1004,1025,1045,1065,1085,1105,1125,1146,1165,1185,1204,1225,1244,1266,1285,1306,1326,1344,1365,1384,1405,1424,1444,1465,1485,1504,1525,1545,1565,1584,1604,1624,1644,1665,1685,1704,1725,1744,1765,1785,1804,1825,1845,1864,1884,1904,1924,1944,1964,1984,2004,2024,2044,2064,2084,2105,2124,2144,2165,2186,2205,2224,2244,2265,2285,2304,2324,2344,2364,2384,2405,2424],"xSR":741.5,"ySR":573.95,"xT1":424.9,"yT1":0,"xT2":1058.1,"yT2":0,"toosoon":0,"cond_shown":"Congruent","ratio_trial":200,"L_num":7,"L_den":21,"R_num":2,"R_den":15,"correct_side":1,"subjID":"JuanEstabanGuzmanAcosta10","gender":"0","school":"4","age":"9"},{"start_time":1552068798061,"click_time":1552068799971,"finger_time":1552068799311,"fix_duration":1128.788353297704,"trial":24,"RT":1250,"MT":660,"sideResp":1,"stimulus":[],"xmouse":[801,801,801,801,801,801,801,801,801,801,801,801,801,801,801,801,801,801,801,801,801,801,801,801,801,801,801,801,801,801,801,801,801,801,801,801,801,801,801,801,801,801,801,801,801,801,801,801,801,801,801,801,801,801,801,801,801,801,799,786,776,763,736,660,619,574,506,426,329,311,311,314,315,317,325,329,334,339,347,369,376,380,384,389,405,409,410,410,411,411,413,414,415,416,418,425],"ymouse":[637,637,637,637,637,637,637,637,637,637,637,637,637,637,637,637,637,637,637,637,637,637,637,637,637,637,637,637,637,637,637,637,637,637,637,637,637,637,637,637,637,637,637,637,637,637,637,637,637,637,637,637,637,637,637,637,637,637,636,617,604,591,568,508,472,425,340,226,68,4,0,0,0,0,0,0,0,0,0,11,17,21,24,30,43,46,47,47,47,47,46,46,46,46,46,46],"timestamp_mouse":[10,39,50,70,90,109,129,150,170,190,210,229,250,270,290,309,329,350,369,390,410,429,450,470,490,509,530,550,570,589,610,630,650,670,690,710,730,749,769,790,811,830,851,870,890,910,930,949,971,990,1010,1029,1050,1070,1089,1109,1130,1150,1169,1190,1209,1230,1250,1270,1289,1309,1329,1349,1369,1389,1411,1429,1449,1469,1489,1509,1530,1549,1571,1589,1609,1630,1649,1671,1690,1710,1729,1750,1771,1789,1809,1830,1850,1870,1890,1909],"xSR":741.5,"ySR":573.95,"xT1":424.9,"yT1":0,"xT2":1058.1,"yT2":0,"toosoon":0,"cond_shown":"Incongruent","ratio_trial":200,"L_num":4,"L_den":5,"R_num":6,"R_den":10,"correct_side":1,"subjID":"JuanEstabanGuzmanAcosta10","gender":"0","school":"4","age":"9"},{"start_time":1552068801432,"click_time":1552068802891,"finger_time":1552068802412,"fix_duration":721.4129227517835,"trial":25,"RT":980,"MT":479,"sideResp":1,"stimulus":[],"xmouse":[789,789,789,789,789,789,789,789,789,789,789,789,789,789,789,789,789,789,789,789,789,789,789,789,789,789,789,788,788,787,787,786,785,784,783,776,773,772,772,772,772,772,772,772,772,772,771,768,755,732,648,607,590,581,571,511,451,436,411,409,409,409,409,409,409,409,411,412,412,412,412,419,428],"ymouse":[606,606,606,606,606,606,606,606,606,606,606,606,606,606,606,606,606,606,606,606,606,606,606,606,606,606,606,607,607,607,607,607,607,606,604,594,592,590,590,590,590,590,590,590,590,590,589,584,560,521,399,353,326,307,282,183,113,101,77,70,51,36,24,16,11,4,0,0,0,0,0,6,18],"timestamp_mouse":[19,38,58,79,99,119,138,158,179,199,219,240,259,279,300,318,339,359,378,398,418,440,459,479,498,520,538,558,578,599,620,638,659,678,699,718,738,760,779,799,818,839,859,879,900,920,939,959,980,998,1020,1038,1058,1079,1100,1118,1138,1158,1178,1198,1220,1238,1258,1279,1299,1319,1338,1358,1378,1400,1419,1439,1459],"xSR":741.5,"ySR":573.95,"xT1":424.9,"yT1":0,"xT2":1058.1,"yT2":0,"toosoon":0,"cond_shown":"Incongruent","ratio_trial":100,"L_num":3,"L_den":5,"R_num":11,"R_den":22,"correct_side":1,"subjID":"JuanEstabanGuzmanAcosta10","gender":"0","school":"4","age":"9"},{"start_time":1552068804138,"click_time":1552068805591,"finger_time":1552068805152,"fix_duration":306.63112918642975,"trial":26,"RT":1014,"MT":439,"sideResp":1,"stimulus":[],"xmouse":[821,821,821,821,821,821,821,821,821,821,821,821,821,821,821,821,821,821,821,821,821,821,821,821,821,821,821,821,821,821,821,821,821,821,821,821,821,821,821,821,821,821,821,821,821,821,821,821,816,803,736,700,695,692,682,651,539,519,517,517,517,517,517,516,510,486,485,485,486,489,490,491,491],"ymouse":[612,612,612,612,612,612,612,612,612,612,612,612,612,612,612,612,612,612,612,612,612,612,612,612,612,612,612,612,612,612,612,612,612,612,612,612,612,612,612,612,612,612,612,612,612,612,607,606,598,581,515,469,453,432,408,362,245,219,213,212,212,212,211,205,190,145,137,131,126,121,109,100,95],"timestamp_mouse":[12,42,52,72,94,112,133,152,173,193,212,234,254,272,292,312,332,353,373,393,412,432,452,472,493,512,533,553,572,593,612,634,653,673,693,712,733,754,774,793,812,832,852,873,892,912,932,953,973,992,1014,1032,1052,1072,1092,1112,1132,1153,1172,1193,1214,1234,1253,1273,1292,1312,1332,1352,1373,1392,1412,1432,1452],"xSR":741.5,"ySR":573.95,"xT1":424.9,"yT1":0,"xT2":1058.1,"yT2":0,"toosoon":0,"cond_shown":"Incongruent","ratio_trial":300,"L_num":1,"L_den":2,"R_num":2,"R_den":10,"correct_side":1,"subjID":"JuanEstabanGuzmanAcosta10","gender":"0","school":"4","age":"9"},{"start_time":1552068807663,"click_time":1552068808730,"finger_time":1552068808291,"fix_duration":1130.1059533712491,"trial":27,"RT":628,"MT":439,"sideResp":1,"stimulus":[],"xmouse":[778,779,779,779,779,779,779,779,779,779,779,779,779,779,779,779,779,779,779,779,779,779,779,779,779,779,777,775,769,762,744,732,713,704,612,587,577,575,575,568,557,544,535,531,524,510,496,480,466,458,451,449,447,445],"ymouse":[615,616,616,620,621,622,622,622,622,622,622,622,622,622,622,623,623,623,623,624,624,624,624,624,624,624,624,624,624,621,600,587,550,529,391,360,340,329,318,286,265,249,238,230,215,187,168,150,137,129,121,113,101,85],"timestamp_mouse":[13,39,48,67,87,108,127,147,168,187,207,227,247,268,287,308,329,347,367,388,409,427,447,468,487,508,527,549,567,587,607,628,647,667,688,707,727,748,767,788,807,827,848,868,888,908,927,947,967,987,1007,1027,1048,1067],"xSR":741.5,"ySR":573.95,"xT1":424.9,"yT1":0,"xT2":1058.1,"yT2":0,"toosoon":0,"cond_shown":"Congruent","ratio_trial":300,"L_num":4,"L_den":5,"R_num":2,"R_den":4,"correct_side":1,"subjID":"JuanEstabanGuzmanAcosta10","gender":"0","school":"4","age":"9"},{"start_time":1552068810246,"click_time":1552068812692,"finger_time":1552068810970,"fix_duration":773.8509964662999,"trial":28,"RT":724,"MT":1722,"sideResp":1,"stimulus":[],"xmouse":[814,814,814,814,814,814,814,814,814,814,814,814,814,814,814,814,814,814,814,814,814,814,814,814,814,813,813,813,813,812,811,808,807,806,804,796,761,743,719,695,671,654,652,652,652,652,652,652,652,652,652,652,652,652,652,652,659,669,680,696,716,747,755,757,760,761,763,764,766,768,768,768,768,768,768,768,768,768,768,768,768,768,768,768,768,768,768,768,768,768,768,768,768,768,768,768,768,768,766,764,758,743,737,715,700,689,673,666,660,647,624,576,567,564,562,560,548,540,538,538,538,514,494],"ymouse":[611,611,611,611,611,611,612,613,613,613,613,613,613,613,613,613,613,613,613,613,613,613,613,613,613,614,614,614,614,614,614,615,615,615,615,603,559,544,524,506,490,469,464,463,463,463,463,462,462,463,467,469,470,470,470,472,493,506,516,529,546,572,581,584,588,590,594,595,597,599,599,599,599,599,599,599,599,599,599,599,599,599,600,601,601,602,607,609,610,610,610,610,610,610,610,610,610,610,606,602,588,536,522,476,451,427,375,351,328,301,257,206,192,186,179,169,145,134,132,132,131,114,99],"timestamp_mouse":[11,25,44,64,84,104,125,144,164,185,204,225,244,264,284,304,325,344,366,385,404,425,444,464,484,505,524,545,564,585,605,625,645,665,685,704,724,744,765,784,804,824,845,864,884,906,924,944,964,984,1006,1024,1044,1064,1084,1105,1124,1145,1164,1185,1204,1224,1244,1264,1284,1305,1324,1344,1365,1385,1404,1425,1445,1465,1486,1505,1525,1544,1564,1585,1604,1625,1644,1666,1684,1705,1724,1744,1764,1784,1806,1824,1846,1865,1885,1905,1925,1944,1964,1984,2005,2024,2046,2065,2085,2104,2124,2144,2166,2184,2205,2224,2244,2264,2285,2304,2324,2344,2365,2384,2405,2424,2445],"xSR":741.5,"ySR":573.95,"xT1":424.9,"yT1":0,"xT2":1058.1,"yT2":0,"toosoon":0,"cond_shown":"Incongruent","ratio_trial":100,"L_num":2,"L_den":4,"R_num":8,"R_den":20,"correct_side":1,"subjID":"JuanEstabanGuzmanAcosta10","gender":"0","school":"4","age":"9"},{"start_time":1552068815379,"click_time":1552068817671,"finger_time":1552068817110,"fix_duration":505.11102117046426,"trial":29,"RT":1731,"MT":561,"sideResp":1,"stimulus":[],"xmouse":[781,781,781,781,781,781,781,781,781,781,781,781,781,781,781,781,781,781,781,781,781,781,781,781,781,781,781,781,781,781,781,781,781,781,781,781,781,781,781,781,781,781,781,781,781,781,781,781,781,781,781,781,781,781,781,781,781,781,781,781,781,781,781,781,781,781,781,781,781,781,781,781,781,781,781,781,781,781,781,781,781,781,781,779,765,753,735,720,708,698,683,682,682,682,683,683,683,683,683,683,683,683,678,677,677,677,677,677,677,675,663,636,590,536,490],"ymouse":[638,638,638,638,638,638,638,638,638,638,638,638,638,638,638,638,638,638,638,638,638,638,638,638,638,638,638,638,638,638,638,638,638,638,638,638,638,638,638,638,638,638,638,638,638,638,638,638,638,638,638,638,638,638,638,638,638,638,638,638,638,638,638,638,638,638,638,638,638,638,638,638,638,638,638,638,638,638,638,638,638,638,638,638,627,617,603,587,568,549,511,506,505,502,495,470,449,421,389,298,220,144,117,112,112,112,112,111,111,107,103,96,83,69,55],"timestamp_mouse":[16,41,51,72,91,112,132,152,171,191,212,231,251,272,291,311,332,352,372,391,411,431,451,471,491,512,531,552,573,592,611,631,651,671,691,712,733,751,771,791,811,832,851,872,891,912,933,951,971,991,1011,1032,1052,1073,1092,1112,1131,1151,1172,1191,1211,1231,1251,1271,1292,1311,1332,1352,1371,1392,1411,1431,1453,1471,1492,1512,1533,1552,1571,1592,1612,1632,1651,1671,1692,1711,1731,1752,1771,1791,1811,1832,1852,1872,1891,1911,1931,1952,1971,1992,2012,2031,2051,2073,2092,2113,2131,2152,2171,2192,2211,2232,2251,2272,2292],"xSR":741.5,"ySR":573.95,"xT1":424.9,"yT1":0,"xT2":1058.1,"yT2":0,"toosoon":0,"cond_shown":"Congruent","ratio_trial":300,"L_num":12,"L_den":24,"R_num":2,"R_den":10,"correct_side":1,"subjID":"JuanEstabanGuzmanAcosta10","gender":"0","school":"4","age":"9"},{"start_time":1552068821064,"click_time":1552068822711,"finger_time":1552068822410,"fix_duration":612.999634408568,"trial":30,"RT":1346,"MT":301,"sideResp":1,"stimulus":[],"xmouse":[798,798,798,798,798,798,798,798,798,798,798,798,798,798,798,798,798,798,798,798,798,798,798,798,798,798,798,798,798,798,798,798,798,798,798,798,798,798,798,798,798,798,798,798,798,798,798,798,798,798,798,798,798,798,798,798,798,798,798,798,798,798,798,798,798,798,791,726,694,672,651,530,456,414,401,395,390,389,389,390,395,407,438],"ymouse":[615,615,615,615,615,615,615,615,615,615,615,615,615,615,615,615,615,615,615,615,615,615,615,615,615,615,615,615,615,615,615,615,615,615,615,615,615,615,615,615,615,615,615,615,615,615,615,615,615,615,615,615,615,615,615,615,615,615,615,615,615,615,615,615,615,615,604,557,513,480,449,315,240,198,178,163,144,139,139,135,127,100,52],"timestamp_mouse":[10,43,46,67,86,106,127,148,166,186,206,226,246,268,286,307,326,347,367,386,406,426,447,468,486,506,528,547,567,587,606,626,646,666,686,708,726,746,767,786,808,828,848,867,888,906,926,946,966,986,1006,1026,1047,1067,1087,1106,1126,1147,1166,1186,1206,1226,1247,1266,1287,1306,1327,1346,1366,1386,1406,1427,1447,1467,1486,1507,1526,1546,1566,1587,1606,1626,1646],"xSR":741.5,"ySR":573.95,"xT1":424.9,"yT1":0,"xT2":1058.1,"yT2":0,"toosoon":0,"cond_shown":"Incongruent","ratio_trial":200,"L_num":7,"L_den":10,"R_num":14,"R_den":28,"correct_side":1,"subjID":"JuanEstabanGuzmanAcosta10","gender":"0","school":"4","age":"9"},{"start_time":1552068826683,"click_time":1552068828312,"finger_time":1552068827910,"fix_duration":1490.061317094079,"trial":31,"RT":1227,"MT":402,"sideResp":2,"stimulus":[],"xmouse":[797,797,797,797,797,797,797,797,797,797,797,797,797,797,797,797,797,797,797,797,797,797,797,797,797,797,797,797,797,797,797,797,797,797,797,797,797,797,797,797,797,797,797,797,797,797,797,797,797,797,797,797,797,797,797,797,797,797,795,795,794,796,803,824,849,880,938,957,963,970,979,998,1004,1007,1009,1013,1029,1039,1046,1049,1052,1059],"ymouse":[614,614,614,614,614,614,614,614,614,614,614,614,614,614,614,614,614,614,614,614,614,614,614,614,614,614,614,614,614,614,614,614,614,614,614,614,614,614,614,614,614,614,614,614,614,614,614,614,614,614,614,614,614,614,614,614,614,614,608,605,597,567,542,468,409,353,252,222,213,206,196,170,156,131,107,91,54,37,27,21,17,12],"timestamp_mouse":[9,29,50,68,89,108,127,147,167,187,208,227,248,268,288,307,328,349,368,387,408,428,447,467,488,507,528,549,568,587,607,627,649,668,689,709,729,748,768,787,808,827,848,867,887,908,928,947,968,988,1007,1028,1048,1069,1087,1108,1127,1148,1168,1188,1208,1227,1248,1267,1287,1308,1328,1348,1368,1387,1408,1427,1447,1467,1488,1508,1527,1547,1567,1587,1607,1629],"xSR":741.5,"ySR":573.95,"xT1":424.9,"yT1":0,"xT2":1058.1,"yT2":0,"toosoon":0,"cond_shown":"Incongruent","ratio_trial":200,"L_num":7,"L_den":15,"R_num":6,"R_den":9,"correct_side":2,"subjID":"JuanEstabanGuzmanAcosta10","gender":"0","school":"4","age":"9"},{"start_time":1552068830813,"click_time":1552068832891,"finger_time":1552068832292,"fix_duration":1162.498615910775,"trial":32,"RT":1479,"MT":599,"sideResp":2,"stimulus":[],"xmouse":[760,760,760,760,760,760,760,760,760,760,760,760,760,760,760,760,760,760,760,760,760,760,760,760,760,760,760,760,760,760,760,760,760,760,760,760,760,760,760,760,760,760,760,760,760,760,760,760,760,760,760,760,760,760,760,760,760,760,760,760,760,760,760,760,760,760,760,760,760,760,760,760,780,815,845,918,977,1056,1135,1227,1239,1244,1247,1251,1255,1256,1256,1256,1256,1256,1241,1234,1229,1222,1211,1197,1191,1184,1183,1179,1176,1170,1165,1157],"ymouse":[597,597,597,597,597,597,597,597,597,597,597,597,597,597,597,597,597,597,597,597,597,597,597,597,597,597,597,597,597,597,597,597,597,597,597,597,597,597,597,597,597,597,597,597,597,597,597,597,597,597,597,597,597,597,597,597,597,597,597,597,597,597,597,597,597,597,597,597,597,597,597,597,589,568,551,479,395,269,125,0,0,0,0,0,0,0,0,0,0,0,7,9,10,12,15,17,17,18,18,20,20,23,26,33],"timestamp_mouse":[17,48,57,77,98,118,139,158,177,197,217,239,258,278,297,317,338,357,377,397,417,437,457,479,498,517,537,558,579,598,618,638,657,678,697,718,739,758,777,797,817,839,858,879,897,918,937,958,978,997,1017,1039,1058,1078,1097,1118,1137,1157,1177,1198,1218,1238,1257,1278,1298,1317,1337,1358,1377,1397,1417,1437,1457,1479,1497,1518,1537,1557,1577,1598,1617,1637,1658,1677,1697,1717,1738,1758,1777,1798,1817,1838,1858,1877,1898,1918,1937,1957,1977,1997,2017,2037,2058,2077],"xSR":741.5,"ySR":573.95,"xT1":424.9,"yT1":0,"xT2":1058.1,"yT2":0,"toosoon":0,"cond_shown":"Congruent","ratio_trial":200,"L_num":9,"L_den":30,"R_num":13,"R_den":26,"correct_side":2,"subjID":"JuanEstabanGuzmanAcosta10","gender":"0","school":"4","age":"9"},{"start_time":1552068834319,"click_time":1552068835730,"finger_time":1552068835290,"fix_duration":586.10582829579,"trial":33,"RT":971,"MT":440,"sideResp":1,"stimulus":[],"xmouse":[795,795,795,795,795,795,795,795,795,795,795,795,795,795,795,795,795,795,795,795,795,795,795,795,795,795,795,795,795,795,795,795,795,795,795,795,795,795,795,795,795,795,795,795,795,793,792,781,730,685,595,540,475,421,382,378,376,374,369,358,322,311,307,307,307,329,364,399,421,424,425],"ymouse":[613,613,613,613,613,613,613,613,613,613,613,613,613,613,613,613,613,613,613,613,613,613,613,613,613,613,613,613,613,613,613,613,613,613,613,613,613,613,613,613,613,613,613,613,613,612,612,610,591,555,455,383,296,217,162,157,154,152,147,135,106,97,94,94,89,72,57,44,38,37,36],"timestamp_mouse":[11,43,51,72,92,112,131,152,171,192,212,231,252,271,292,312,331,352,372,393,413,432,451,472,491,512,531,551,572,592,611,633,651,671,692,713,731,752,771,793,813,831,852,872,893,911,931,951,971,991,1011,1031,1051,1072,1093,1111,1132,1151,1171,1192,1212,1231,1252,1271,1292,1311,1332,1352,1371,1392,1411],"xSR":741.5,"ySR":573.95,"xT1":424.9,"yT1":0,"xT2":1058.1,"yT2":0,"toosoon":0,"cond_shown":"Incongruent","ratio_trial":300,"L_num":4,"L_den":5,"R_num":6,"R_den":12,"correct_side":1,"subjID":"JuanEstabanGuzmanAcosta10","gender":"0","school":"4","age":"9"},{"start_time":1552068836944,"click_time":1552068838471,"finger_time":1552068837690,"fix_duration":311.84284529924946,"trial":34,"RT":746,"MT":781,"sideResp":1,"stimulus":[],"xmouse":[801,801,801,801,801,801,801,801,801,801,801,801,801,801,801,801,801,801,801,801,801,801,801,801,801,801,801,801,801,801,801,801,801,801,801,801,792,756,703,623,604,592,585,584,582,577,569,561,558,559,563,570,578,588,595,595,587,573,553,533,533,541,545,546,546,546,546,546,546,546,546,546,545,540,537,529,514],"ymouse":[598,598,598,598,598,598,598,598,598,598,598,598,598,598,598,598,598,598,598,598,598,598,598,598,598,598,598,598,598,598,598,598,598,598,598,598,595,557,483,384,361,345,333,328,315,295,276,256,244,231,221,207,189,168,144,139,135,130,127,122,116,102,86,71,64,61,61,61,61,65,68,69,71,72,73,73,69],"timestamp_mouse":[14,36,46,68,87,106,126,147,166,187,207,227,246,266,287,306,328,347,367,386,407,427,446,467,487,506,526,546,567,586,606,627,646,667,686,707,727,746,766,786,807,826,847,867,886,907,926,946,967,986,1006,1026,1046,1067,1086,1106,1126,1147,1167,1186,1206,1226,1246,1267,1286,1306,1326,1347,1367,1386,1407,1426,1446,1467,1486,1507,1527],"xSR":741.5,"ySR":573.95,"xT1":424.9,"yT1":0,"xT2":1058.1,"yT2":0,"toosoon":0,"cond_shown":"Incongruent","ratio_trial":300,"L_num":4,"L_den":5,"R_num":8,"R_den":16,"correct_side":1,"subjID":"JuanEstabanGuzmanAcosta10","gender":"0","school":"4","age":"9"},{"start_time":1552068839802,"click_time":1552068840830,"finger_time":1552068840550,"fix_duration":570.4858641047967,"trial":35,"RT":748,"MT":280,"sideResp":2,"stimulus":[],"xmouse":[788,788,788,788,788,788,788,788,788,788,788,788,788,788,788,788,788,788,788,788,788,788,788,788,788,788,788,788,788,787,788,791,791,791,794,799,836,863,896,924,941,999,1071,1106,1128,1140,1143,1141,1133,1126,1116,1061],"ymouse":[612,612,612,612,612,612,612,612,612,612,612,612,612,612,612,612,612,612,612,612,612,612,612,612,612,612,612,612,612,611,610,610,610,610,607,605,589,577,556,535,520,461,370,315,278,244,190,170,153,138,127,79],"timestamp_mouse":[10,28,48,69,90,108,128,150,169,188,208,228,250,269,289,308,328,348,370,389,410,428,448,469,488,508,529,549,568,588,610,628,649,669,688,708,728,748,769,789,808,828,848,868,888,908,928,948,968,988,1009,1028],"xSR":741.5,"ySR":573.95,"xT1":424.9,"yT1":0,"xT2":1058.1,"yT2":0,"toosoon":0,"cond_shown":"Incongruent","ratio_trial":200,"L_num":4,"L_den":30,"R_num":1,"R_den":3,"correct_side":2,"subjID":"JuanEstabanGuzmanAcosta10","gender":"0","school":"4","age":"9"},{"start_time":1552068842444,"click_time":1552068844093,"finger_time":1552068844013,"fix_duration":712.9925213246568,"trial":36,"RT":1569,"MT":80,"sideResp":2,"stimulus":[],"xmouse":[801,801,801,801,801,801,801,801,801,801,801,801,801,801,801,801,801,801,801,801,801,801,801,801,801,801,801,801,801,801,801,801,801,801,800,798,797,797,797,797,797,797,797,797,797,797,797,797,797,797,797,797,797,797,797,797,797,797,797,797,797,797,797,797,797,797,797,797,797,796,794,794,794,794,794,795,800,809,859,976,1042,1093,1123],"ymouse":[637,637,637,637,637,637,637,637,637,637,637,637,637,637,637,637,637,637,637,637,637,637,637,637,637,637,637,637,637,637,637,637,637,637,637,638,638,638,638,638,638,638,638,638,638,638,638,638,638,638,638,638,638,638,638,638,638,638,638,638,638,638,638,638,638,638,638,638,638,638,625,619,614,610,605,604,597,582,518,353,250,160,97],"timestamp_mouse":[12,26,48,66,86,107,127,148,167,186,207,226,247,266,286,307,328,346,367,386,406,427,447,467,486,506,530,549,568,590,609,628,649,669,690,709,728,750,768,788,809,828,850,870,889,908,930,949,969,988,1008,1029,1050,1070,1089,1110,1130,1150,1169,1189,1210,1230,1250,1270,1289,1310,1328,1350,1369,1389,1409,1429,1450,1468,1490,1509,1529,1549,1569,1590,1609,1628,1648],"xSR":741.5,"ySR":573.95,"xT1":424.9,"yT1":0,"xT2":1058.1,"yT2":0,"toosoon":0,"cond_shown":"Congruent","ratio_trial":200,"L_num":3,"L_den":10,"R_num":14,"R_den":28,"correct_side":2,"subjID":"JuanEstabanGuzmanAcosta10","gender":"0","school":"4","age":"9"},{"start_time":1552068847985,"click_time":1552068849754,"finger_time":1552068848773,"fix_duration":1170.9994990942105,"trial":37,"RT":788,"MT":981,"sideResp":1,"stimulus":[],"xmouse":[773,773,773,773,773,773,773,773,773,773,773,773,773,773,773,773,773,773,773,773,773,773,773,773,773,773,773,773,773,773,773,773,773,773,773,765,761,752,743,737,736,736,736,736,736,736,736,736,736,736,736,736,736,736,731,714,687,636,575,506,516,516,512,484,460,407,330,239,134,134,138,160,198,283,315,332,333,333,333,335,336,340,344,348,351,369,395,416,458],"ymouse":[631,631,631,631,631,631,631,631,631,631,631,631,631,631,631,631,631,631,631,631,631,631,631,631,631,631,631,631,631,631,631,631,631,631,631,628,627,622,617,613,613,613,613,613,613,613,613,613,613,613,613,613,613,613,604,576,526,441,344,189,180,180,172,152,138,109,61,8,0,0,0,7,19,37,41,41,41,41,41,41,41,39,37,36,35,35,40,48,74],"timestamp_mouse":[10,43,48,68,88,109,127,147,169,188,207,228,247,267,287,308,328,348,367,388,408,427,449,468,487,507,528,548,568,588,608,629,649,668,687,708,728,749,768,788,807,828,849,868,888,907,928,948,967,987,1007,1028,1048,1068,1088,1109,1127,1148,1167,1188,1207,1229,1248,1267,1287,1308,1328,1348,1367,1387,1408,1428,1448,1470,1489,1507,1528,1547,1569,1588,1607,1629,1649,1669,1689,1708,1728,1747,1768],"xSR":741.5,"ySR":573.95,"xT1":424.9,"yT1":0,"xT2":1058.1,"yT2":0,"toosoon":0,"cond_shown":"Incongruent","ratio_trial":100,"L_num":9,"L_den":10,"R_num":20,"R_den":25,"correct_side":1,"subjID":"JuanEstabanGuzmanAcosta10","gender":"0","school":"4","age":"9"},{"start_time":1552068851399,"click_time":1552068853173,"finger_time":1552068852773,"fix_duration":843.2675923569516,"trial":38,"RT":1374,"MT":400,"sideResp":2,"stimulus":[],"xmouse":[803,803,803,803,803,803,803,803,803,803,803,803,803,803,803,803,803,803,803,803,803,803,803,803,803,803,803,803,803,803,803,803,803,803,803,803,803,803,803,803,803,803,803,803,803,803,803,803,803,803,803,803,803,803,803,803,803,803,803,803,803,803,803,803,803,803,805,819,871,915,962,999,1027,1059,1070,1075,1078,1085,1087,1087,1087,1087,1087,1086,1084,1082,1082,1088,1117],"ymouse":[640,640,640,640,640,640,640,640,640,640,640,640,640,640,640,640,640,640,640,640,640,640,640,640,640,640,640,640,640,640,640,640,640,640,640,640,640,640,640,640,640,640,640,640,640,640,640,640,640,640,640,640,640,640,640,640,640,640,640,640,640,640,640,640,640,640,638,616,521,461,407,364,331,281,253,217,196,175,169,166,165,165,165,156,150,141,121,101,65],"timestamp_mouse":[13,42,54,74,94,114,134,155,174,195,215,234,253,275,293,314,335,354,375,393,414,435,455,475,494,514,533,553,575,594,615,633,655,675,695,714,734,754,775,795,814,834,853,873,895,914,934,954,975,993,1015,1033,1054,1075,1093,1115,1134,1153,1173,1194,1213,1233,1253,1274,1294,1313,1333,1354,1374,1394,1414,1434,1455,1473,1493,1513,1535,1555,1573,1593,1613,1633,1655,1674,1693,1714,1735,1755,1774],"xSR":741.5,"ySR":573.95,"xT1":424.9,"yT1":0,"xT2":1058.1,"yT2":0,"toosoon":0,"cond_shown":"Incongruent","ratio_trial":200,"L_num":6,"L_den":20,"R_num":3,"R_den":6,"correct_side":2,"subjID":"JuanEstabanGuzmanAcosta10","gender":"0","school":"4","age":"9"},{"start_time":1552068854371,"click_time":1552068856213,"finger_time":1552068855854,"fix_duration":315.300731445232,"trial":39,"RT":1483,"MT":359,"sideResp":1,"stimulus":[],"xmouse":[806,806,806,806,806,806,806,806,806,806,806,806,806,806,806,806,806,806,806,806,806,806,806,806,806,806,806,806,806,806,806,806,806,806,806,806,806,806,806,806,806,806,806,806,806,806,806,806,806,806,806,806,806,806,806,806,806,806,806,806,806,806,806,806,806,806,806,806,806,806,806,806,804,801,792,745,696,669,654,644,627,616,610,603,596,582,568,562,557,552,541,530,512],"ymouse":[608,608,608,608,608,608,608,608,608,608,608,608,608,608,608,608,608,608,608,608,608,608,608,608,608,608,608,608,608,608,608,608,608,608,608,608,608,608,608,608,608,608,608,608,608,608,608,608,608,608,608,608,608,608,608,608,608,608,608,608,608,608,608,608,608,608,608,608,608,608,608,608,602,594,571,466,376,326,291,261,201,163,138,115,92,53,30,24,21,20,18,17,14],"timestamp_mouse":[11,21,44,61,81,101,123,142,162,183,201,222,241,261,283,303,322,342,363,381,402,423,442,462,483,501,523,542,563,582,602,622,641,662,683,702,722,743,761,782,803,822,842,862,882,903,922,942,963,982,1002,1022,1042,1062,1083,1101,1121,1142,1162,1181,1202,1221,1242,1262,1282,1302,1322,1342,1362,1383,1402,1422,1442,1461,1483,1501,1523,1541,1562,1581,1601,1622,1642,1661,1681,1701,1721,1741,1763,1782,1802,1821,1841],"xSR":741.5,"ySR":573.95,"xT1":424.9,"yT1":0,"xT2":1058.1,"yT2":0,"toosoon":0,"cond_shown":"Congruent","ratio_trial":100,"L_num":6,"L_den":12,"R_num":15,"R_den":25,"correct_side":2,"subjID":"JuanEstabanGuzmanAcosta10","gender":"0","school":"4","age":"9"},{"start_time":1552068860400,"click_time":1552068861293,"finger_time":1552068861214,"fix_duration":1425.3548287494982,"trial":40,"RT":814,"MT":79,"sideResp":1,"stimulus":[],"xmouse":[776,776,776,776,776,776,776,776,776,776,776,776,776,776,776,776,776,776,776,776,776,776,776,776,776,776,776,776,776,776,776,776,776,776,776,776,776,776,770,757,728,689,645,567,468],"ymouse":[623,623,623,623,623,623,623,623,623,623,623,623,623,623,623,623,623,623,623,623,623,623,623,623,623,623,623,623,623,623,623,623,623,623,623,623,622,621,618,608,575,501,396,230,46],"timestamp_mouse":[12,40,52,74,94,113,134,152,172,194,214,233,252,274,293,313,333,353,374,393,413,433,453,472,493,514,534,552,573,594,614,633,654,674,694,714,733,753,774,793,814,833,853,872,892],"xSR":741.5,"ySR":573.95,"xT1":424.9,"yT1":0,"xT2":1058.1,"yT2":0,"toosoon":0,"cond_shown":"Congruent","ratio_trial":100,"L_num":1,"L_den":2,"R_num":18,"R_den":30,"correct_side":2,"subjID":"JuanEstabanGuzmanAcosta10","gender":"0","school":"4","age":"9"},{"start_time":1552068865101,"click_time":1552068867994,"finger_time":1552068867734,"fix_duration":387.58886422728466,"trial":41,"RT":2633,"MT":260,"sideResp":1,"stimulus":[],"xmouse":[803,803,803,803,803,803,803,803,803,803,803,803,803,803,803,803,803,803,803,803,803,803,803,803,803,803,803,803,803,803,803,803,803,803,803,803,803,803,803,803,803,803,803,803,803,803,803,803,803,803,803,803,803,803,803,803,803,803,803,803,803,803,803,803,803,803,803,803,803,803,803,803,803,803,803,803,803,803,803,803,803,803,803,803,803,803,803,803,803,803,803,803,803,803,803,803,803,803,803,803,803,803,803,803,803,803,803,803,803,803,803,803,803,803,803,803,804,804,799,795,793,790,789,787,786,782,781,779,777,768,763,754,742,722,657,628,603,589,576,541,514,482,444,435,426],"ymouse":[627,627,627,627,627,627,627,627,627,627,627,627,627,627,627,627,627,627,627,627,627,627,627,627,627,627,627,627,627,627,627,627,627,627,627,627,627,627,627,627,627,627,627,627,627,627,627,627,627,627,627,627,627,627,627,627,627,627,627,627,627,627,627,627,627,627,627,627,627,627,627,627,627,627,627,627,627,627,627,627,627,627,627,627,627,627,627,627,627,627,627,627,627,627,627,627,627,627,627,627,627,627,627,627,627,627,627,627,627,627,627,627,627,627,627,627,627,625,621,615,613,612,612,610,610,607,605,603,601,591,584,572,553,525,433,392,356,330,306,239,198,158,112,102,88],"timestamp_mouse":[12,47,51,72,92,111,133,153,172,192,211,231,251,271,293,311,332,351,372,392,413,433,453,472,491,511,532,552,572,592,612,632,653,673,691,711,731,753,773,792,811,831,853,872,892,912,932,952,972,992,1012,1032,1053,1072,1091,1113,1132,1152,1173,1191,1211,1233,1252,1273,1292,1312,1331,1352,1373,1391,1412,1433,1452,1472,1491,1512,1533,1552,1573,1591,1613,1633,1651,1672,1692,1713,1733,1753,1772,1791,1813,1832,1851,1873,1893,1913,1933,1953,1972,1992,2011,2032,2052,2071,2092,2113,2133,2152,2172,2192,2211,2232,2252,2273,2292,2313,2332,2351,2371,2391,2412,2432,2451,2473,2491,2511,2531,2552,2572,2592,2611,2633,2653,2672,2692,2713,2732,2752,2771,2792,2811,2832,2852,2871,2892],"xSR":741.5,"ySR":573.95,"xT1":424.9,"yT1":0,"xT2":1058.1,"yT2":0,"toosoon":0,"cond_shown":"Incongruent","ratio_trial":100,"L_num":9,"L_den":15,"R_num":14,"R_den":28,"correct_side":1,"subjID":"JuanEstabanGuzmanAcosta10","gender":"0","school":"4","age":"9"},{"start_time":1552068870093,"click_time":1552068871934,"finger_time":1552068871273,"fix_duration":1078.752147499264,"trial":42,"RT":1180,"MT":661,"sideResp":2,"stimulus":[],"xmouse":[802,802,802,802,802,802,802,802,802,802,802,802,802,802,802,802,802,802,802,802,802,802,802,802,802,802,802,802,802,802,802,802,802,802,802,802,802,802,802,802,802,802,802,802,802,802,802,802,802,802,802,802,802,802,802,802,809,827,841,848,852,851,850,850,850,853,867,882,901,924,948,955,957,958,959,962,964,968,975,985,1004,1008,1014,1017,1021,1034,1040,1044,1049,1050,1055,1072],"ymouse":[608,608,608,608,608,608,608,608,608,608,608,608,608,608,608,608,608,608,608,608,608,608,608,608,608,608,608,608,608,608,608,608,608,608,608,608,608,608,608,608,608,608,608,608,608,608,608,608,608,608,608,608,608,608,608,608,602,582,565,554,542,535,522,492,383,340,296,247,184,128,70,50,47,46,45,41,40,39,39,39,42,43,43,43,42,44,45,48,49,50,50,50],"timestamp_mouse":[21,41,61,81,99,119,141,161,179,199,219,241,260,281,300,319,341,360,380,400,420,440,460,480,500,519,539,561,580,600,619,639,661,680,701,721,740,760,781,801,819,839,860,879,900,921,939,959,981,1000,1023,1041,1060,1080,1101,1121,1139,1159,1180,1201,1220,1240,1259,1280,1301,1319,1339,1359,1380,1400,1420,1439,1459,1480,1499,1519,1540,1560,1581,1600,1619,1640,1659,1680,1699,1719,1739,1760,1781,1800,1820,1841],"xSR":741.5,"ySR":573.95,"xT1":424.9,"yT1":0,"xT2":1058.1,"yT2":0,"toosoon":0,"cond_shown":"Incongruent","ratio_trial":200,"L_num":7,"L_den":15,"R_num":6,"R_den":9,"correct_side":2,"subjID":"JuanEstabanGuzmanAcosta10","gender":"0","school":"4","age":"9"},{"start_time":1552068875608,"click_time":1552068877693,"finger_time":1552068877213,"fix_duration":1172.5173004850237,"trial":43,"RT":1605,"MT":480,"sideResp":1,"stimulus":[],"xmouse":[818,818,818,818,818,818,818,818,818,818,818,818,818,818,818,818,818,818,818,818,818,818,818,818,818,818,818,818,818,818,818,818,818,818,818,818,818,818,818,818,818,818,818,818,818,818,818,818,818,818,818,818,818,818,818,818,818,818,818,818,818,818,818,818,818,818,818,818,818,818,818,812,802,798,796,795,795,793,789,780,768,741,717,687,663,636,623,616,606,592,578,556,550,549,549,549,548,547,545,542,539,536,531,525,521],"ymouse":[627,627,627,627,627,627,627,627,627,627,627,627,627,627,627,627,627,627,627,627,627,627,627,627,627,627,627,627,627,627,627,627,627,627,627,627,627,627,627,627,627,627,627,627,627,627,627,627,627,627,627,627,627,627,627,627,627,627,627,627,627,627,627,627,627,627,627,627,627,627,627,623,617,613,610,606,603,598,588,574,553,500,453,383,322,264,231,215,197,176,150,112,101,99,99,99,99,99,99,97,94,92,90,87,84],"timestamp_mouse":[10,40,45,66,86,104,126,145,164,184,204,226,244,266,284,304,325,346,365,385,405,425,445,466,484,505,525,546,565,586,605,624,646,664,685,705,726,746,764,785,805,825,844,865,885,905,926,945,965,985,1005,1025,1045,1065,1086,1105,1124,1145,1164,1185,1205,1225,1245,1266,1285,1305,1326,1346,1364,1384,1404,1424,1445,1466,1485,1505,1526,1545,1565,1585,1605,1624,1645,1664,1685,1705,1724,1744,1764,1784,1804,1825,1845,1865,1884,1905,1926,1945,1965,1985,2006,2024,2046,2065,2085],"xSR":741.5,"ySR":573.95,"xT1":424.9,"yT1":0,"xT2":1058.1,"yT2":0,"toosoon":0,"cond_shown":"Congruent","ratio_trial":100,"L_num":10,"L_den":25,"R_num":3,"R_den":10,"correct_side":1,"subjID":"JuanEstabanGuzmanAcosta10","gender":"0","school":"4","age":"9"},{"start_time":1552068880320,"click_time":1552068881872,"finger_time":1552068881312,"fix_duration":1285.428354255978,"trial":44,"RT":992,"MT":560,"sideResp":1,"stimulus":[],"xmouse":[808,808,808,808,808,808,808,808,808,808,808,808,808,808,808,808,808,808,808,808,808,808,808,808,808,808,808,808,808,808,808,808,808,808,808,808,808,808,808,808,808,808,808,808,808,808,808,807,805,803,802,799,792,784,774,764,762,762,760,756,742,734,727,718,711,692,678,659,647,636,596,571,554,541,535,528,521,515],"ymouse":[585,585,585,585,585,585,585,585,585,585,585,585,585,585,585,585,585,585,585,585,585,585,585,585,585,585,585,585,585,585,585,585,585,585,585,585,585,585,585,585,585,585,585,585,585,585,585,586,582,572,556,543,526,509,493,476,472,471,469,463,444,432,422,408,396,362,338,304,282,260,198,167,142,124,115,107,102,99],"timestamp_mouse":[13,42,53,73,94,113,133,152,173,193,212,232,253,273,293,314,333,352,373,393,414,433,453,473,494,512,534,554,573,593,614,634,654,673,694,713,732,754,774,793,813,834,853,872,893,913,933,953,972,992,1013,1033,1052,1073,1093,1112,1132,1152,1173,1192,1213,1232,1253,1272,1293,1312,1334,1353,1374,1393,1412,1433,1453,1473,1494,1512,1533,1552],"xSR":741.5,"ySR":573.95,"xT1":424.9,"yT1":0,"xT2":1058.1,"yT2":0,"toosoon":0,"cond_shown":"Incongruent","ratio_trial":200,"L_num":7,"L_den":10,"R_num":8,"R_den":16,"correct_side":1,"subjID":"JuanEstabanGuzmanAcosta10","gender":"0","school":"4","age":"9"},{"start_time":1552068884619,"click_time":1552068886413,"finger_time":1552068885992,"fix_duration":1265.7726636261675,"trial":45,"RT":1373,"MT":421,"sideResp":1,"stimulus":[],"xmouse":[761,761,762,762,762,762,762,762,762,762,762,762,762,762,762,762,762,762,762,762,762,762,762,762,762,762,762,762,762,762,762,762,762,762,762,762,762,762,762,762,762,762,762,762,762,762,762,762,762,762,762,762,762,762,762,762,762,762,762,762,762,762,762,762,762,762,762,761,761,758,750,730,713,691,671,654,639,636,624,611,594,558,534,504,486,463,456,452,451,451],"ymouse":[614,614,614,614,614,614,614,614,614,614,614,614,614,614,614,614,614,614,614,614,614,614,614,614,614,614,614,614,614,614,614,614,614,614,614,614,614,614,614,614,614,614,614,614,614,614,614,614,614,614,614,614,614,614,614,614,614,614,614,614,614,614,614,614,614,613,600,582,569,543,523,473,446,420,396,381,360,357,343,327,309,262,230,193,168,134,120,110,105