[{"start_time":1552073733141,"click_time":1552073737046,"finger_time":1552073736206,"fix_duration":250,"trial":0,"RT":3065,"MT":840,"sideResp":1,"stimulus":[],"xmouse":[799,799,799,799,799,799,799,799,799,799,799,799,799,799,799,799,799,799,799,799,799,799,799,799,799,799,799,799,799,799,799,799,799,799,799,799,799,799,799,799,799,799,799,799,800,800,800,800,800,800,800,800,800,800,800,800,800,800,800,801,801,801,801,801,801,801,801,801,801,801,801,801,801,801,801,801,801,801,801,801,801,801,801,801,801,801,801,801,801,801,801,801,801,802,803,803,803,800,800,799,799,798,795,788,783,779,778,778,778,778,778,778,778,778,778,779,779,779,779,779,779,779,779,779,781,781,781,781,781,781,781,781,781,781,781,781,782,782,782,782,782,782,783,784,784,784,784,784,785,786,787,790,814,831,844,853,860,869,869,870,872,876,878,878,878,874,865,854,851,851,851,851,846,843,837,829,821,807,800,793,783,771,733,716,699,680,660,630,620,613,609,594,562,545,529,514],"ymouse":[541,541,541,541,541,541,541,541,541,541,541,541,541,541,541,541,541,541,541,541,541,541,541,541,541,541,541,541,541,541,541,541,541,541,541,541,541,540,540,540,540,540,540,540,540,540,540,540,540,540,540,540,540,540,540,540,540,540,540,540,540,540,540,540,540,540,540,540,540,540,540,540,540,540,540,540,540,540,540,540,540,540,540,540,540,540,540,540,540,540,540,540,540,540,538,537,535,532,531,530,529,529,526,524,522,522,521,521,521,521,521,521,521,521,521,521,521,521,521,521,521,521,521,521,521,521,521,521,521,521,521,521,521,521,521,521,520,520,520,520,520,519,516,514,513,513,513,513,511,509,507,502,476,454,434,421,409,388,377,365,350,310,275,250,226,202,176,142,130,120,113,106,98,97,97,97,98,100,100,100,100,98,93,90,88,87,87,83,79,76,75,70,64,59,57,55],"timestamp_mouse":[9,25,51,65,85,105,125,145,165,184,205,224,246,265,285,305,325,344,364,385,405,424,444,465,486,505,525,544,564,584,605,624,645,664,684,704,724,744,766,784,805,824,846,865,886,905,926,944,965,986,1004,1025,1045,1065,1084,1104,1125,1144,1165,1184,1204,1225,1245,1264,1284,1305,1325,1344,1364,1384,1404,1425,1444,1465,1485,1504,1525,1544,1564,1586,1604,1625,1646,1665,1685,1705,1724,1744,1765,1785,1806,1824,1844,1864,1884,1904,1924,1945,1964,1985,2005,2025,2045,2065,2084,2104,2126,2145,2164,2184,2205,2225,2244,2265,2284,2306,2325,2345,2366,2385,2404,2424,2445,2465,2484,2505,2525,2545,2565,2584,2605,2625,2645,2665,2685,2705,2725,2745,2765,2785,2806,2824,2844,2865,2885,2905,2924,2945,2966,2984,3004,3024,3046,3065,3085,3105,3124,3144,3164,3184,3204,3227,3245,3265,3285,3304,3324,3346,3365,3384,3404,3425,3444,3464,3484,3505,3525,3544,3565,3585,3605,3624,3644,3664,3685,3704,3725,3745,3764,3785,3805,3824,3844,3864,3885,3905],"xSR":741.5,"ySR":501.8,"xT1":424.9,"yT1":0,"xT2":1058.1,"yT2":0,"toosoon":0,"cond_shown":"Incongruent","ratio_trial":100,"L_num":9,"L_den":15,"R_num":13,"R_den":26,"correct_side":1,"subjID":"Juan Felipe Amaya Gomez","gender":"0","age":"9","school":"4","test":{"fix_dur":[250,1500],"timestim":1000,"targets_dim":[100,100],"targets_relative_coord":[0.3,0.7],"size_stim":[880,420],"start_dim":[100,100],"size_start":[300,300],"size_fix":60,"samplingrate":20,"img_types":["Congruent","Incongruent"],"ratios":[100,200,300],"rep_conds":19,"nTrials":120,"trials_to_rest":500,"Trials_order":[43,65,54,57,60,44,25,29,107,101,53,30,46,98,22,26,106,99,118,42,113,56,88,92,73,4,89,47,3,37,91,66,33,1,63,9,70,34,67,51,52,38,18,27,103,48,114,74,100,81,16,2,109,14,96,104,64,69,24,108,94,102,7,19,0,40,28,15,105,12,83,87,78,86,76,117,80,50,62,36,13,84,23,41,35,8,5,32,61,6,110,119,97,31,39,58,17,115,71,11,95,49,82,90,45,68,59,75,21,111,10,77,72,55,20,112,79,116,93,85],"cond_shown":["Incongruent","Incongruent","Congruent","Incongruent","Congruent","Congruent","Incongruent","Incongruent","Incongruent","Incongruent","Incongruent","Congruent","Congruent","Congruent","Congruent","Congruent","Congruent","Incongruent","Congruent","Congruent","Incongruent","Congruent","Congruent","Congruent","Incongruent","Congruent","Incongruent","Incongruent","Incongruent","Incongruent","Incongruent","Congruent","Incongruent","Incongruent","Incongruent","Incongruent","Congruent","Congruent","Incongruent","Incongruent","Congruent","Congruent","Congruent","Incongruent","Incongruent","Congruent","Congruent","Congruent","Congruent","Incongruent","Congruent","Congruent","Incongruent","Congruent","Congruent","Congruent","Congruent","Incongruent","Congruent","Congruent","Congruent","Congruent","Incongruent","Incongruent","Congruent","Congruent","Congruent","Incongruent","Incongruent","Congruent","Incongruent","Incongruent","Congruent","Congruent","Congruent","Incongruent","Congruent","Congruent","Congruent","Congruent","Incongruent","Congruent","Incongruent","Incongruent","Incongruent","Congruent","Incongruent","Congruent","Incongruent","Congruent","Congruent","Incongruent","Incongruent","Incongruent","Incongruent","Congruent","Incongruent","Incongruent","Incongruent","Incongruent","Incongruent","Incongruent","Congruent","Congruent","Incongruent","Congruent","Incongruent","Incongruent","Incongruent","Incongruent","Congruent","Incongruent","Congruent","Incongruent","Congruent","Congruent","Incongruent","Congruent","Incongruent","Incongruent"],"ratio_trial":[100,300,100,200,100,200,100,300,300,300,300,100,300,200,300,200,300,200,300,100,300,200,300,200,100,300,300,300,200,100,100,100,200,100,200,200,300,300,100,200,300,200,100,200,100,100,100,200,300,200,300,200,100,200,100,200,300,200,100,100,300,100,100,100,100,300,300,200,200,100,300,200,100,200,300,200,200,200,200,100,100,100,300,300,300,200,300,200,100,100,200,300,100,100,200,300,300,100,300,300,300,100,300,100,200,200,300,200,200,200,300,300,100,100,200,300,100,200,200,100],"left_num":[9,4,1,14,9,5,3,7,13,13,3,10,18,6,3,5,11,7,20,3,4,3,8,3,2,5,2,3,14,9,12,6,1,2,1,1,2,8,6,14,2,3,9,6,6,15,8,9,5,11,11,5,6,15,1,8,1,7,11,7,20,12,9,10,1,8,3,4,4,9,4,7,9,13,3,3,4,5,16,12,12,7,1,2,13,12,13,4,3,3,8,2,11,8,14,20,1,1,13,13,4,6,20,6,11,9,13,1,7,3,1,4,3,3,14,2,12,8,7,8],"right_num":[13,6,3,12,8,14,11,8,12,12,4,3,9,11,11,14,1,12,13,2,8,14,10,14,6,6,6,4,12,20,9,5,3,8,2,3,10,10,3,6,10,14,8,3,3,13,2,4,6,3,1,14,7,4,18,7,11,6,6,9,14,13,13,8,18,10,11,6,6,8,2,8,8,14,11,11,3,14,9,13,9,15,2,6,12,6,12,3,4,2,2,6,9,1,12,14,3,8,12,12,2,11,8,5,3,13,12,3,14,11,11,8,2,8,6,12,2,7,4,1],"left_den":[15,5,2,30,15,10,5,10,26,26,6,25,20,20,12,10,22,10,25,6,5,6,15,10,4,25,4,6,30,10,24,20,2,4,3,2,20,15,12,30,20,6,15,20,12,25,16,20,25,20,22,10,10,25,2,15,5,15,22,14,25,30,15,25,2,15,12,5,5,15,20,10,15,26,12,4,8,10,30,30,24,14,2,4,26,15,26,8,6,6,15,4,22,20,30,25,2,2,26,26,20,10,25,20,20,30,26,2,10,4,5,5,6,5,28,10,30,15,15,20],"right_den":[26,12,5,18,16,20,22,20,15,15,20,10,15,22,20,20,5,24,26,5,16,20,12,28,15,12,30,20,18,25,15,25,10,20,15,10,25,12,5,9,25,20,16,6,5,26,5,16,12,4,5,20,14,10,30,21,22,9,15,15,28,26,26,16,30,12,20,10,10,16,4,16,16,20,20,20,10,20,27,26,15,25,10,30,15,10,15,10,10,5,6,30,15,2,18,28,15,20,15,15,4,22,16,25,4,26,15,10,28,20,22,16,5,16,20,24,4,21,6,2],"correct_side":[1,1,2,2,1,2,1,1,2,2,1,1,1,2,2,2,1,1,1,1,1,2,2,2,1,2,1,1,2,1,2,1,1,1,1,1,2,2,2,2,2,2,1,2,2,1,1,1,2,2,1,2,1,1,2,1,2,2,1,2,1,2,1,2,2,2,2,1,1,1,2,1,1,2,2,1,1,2,1,2,2,2,1,1,2,1,2,1,1,1,1,1,2,2,2,1,1,1,2,2,2,1,1,1,2,2,2,1,1,1,2,1,1,1,1,2,2,1,2,2],"img_shown":["img2/100/Incongruent/L/I_Dist_100_LN_9_LD_15_RN_13_RD_26_0.png","img2/300/Incongruent/L/I_Dist_300_LN_4_LD_5_RN_6_RD_12_0.png","img2/100/Congruent/R/C_Dist_100_LN_1_LD_2_RN_3_RD_5_1.png","img2/200/Incongruent/R/I_Dist_200_LN_14_LD_30_RN_12_RD_18_1.png","img2/100/Congruent/L/C_Dist_100_LN_9_LD_15_RN_8_RD_16_0.png","img2/200/Congruent/R/C_Dist_200_LN_5_LD_10_RN_14_RD_20_1.png","img2/100/Incongruent/L/I_Dist_100_LN_3_LD_5_RN_11_RD_22_0.png","img2/300/Incongruent/L/I_Dist_300_LN_7_LD_10_RN_8_RD_20_0.png","img2/300/Incongruent/R/I_Dist_300_LN_13_LD_26_RN_12_RD_15_1.png","img2/300/Incongruent/R/I_Dist_300_LN_13_LD_26_RN_12_RD_15_1.png","img2/300/Incongruent/L/I_Dist_300_LN_3_LD_6_RN_4_RD_20_0.png","img2/100/Congruent/L/C_Dist_100_LN_10_LD_25_RN_3_RD_10_0.png","img2/300/Congruent/L/C_Dist_300_LN_18_LD_20_RN_9_RD_15_0.png","img2/200/Congruent/R/C_Dist_200_LN_6_LD_20_RN_11_RD_22_1.png","img2/300/Congruent/R/C_Dist_300_LN_3_LD_12_RN_11_RD_20_1.png","img2/200/Congruent/R/C_Dist_200_LN_5_LD_10_RN_14_RD_20_1.png","img2/300/Congruent/L/C_Dist_300_LN_11_LD_22_RN_1_RD_5_0.png","img2/200/Incongruent/L/I_Dist_200_LN_7_LD_10_RN_12_RD_24_0.png","img2/300/Congruent/L/C_Dist_300_LN_20_LD_25_RN_13_RD_26_0.png","img2/100/Congruent/L/C_Dist_100_LN_3_LD_6_RN_2_RD_5_0.png","img2/300/Incongruent/L/I_Dist_300_LN_4_LD_5_RN_8_RD_16_0.png","img2/200/Congruent/R/C_Dist_200_LN_3_LD_6_RN_14_RD_20_1.png","img2/300/Congruent/R/C_Dist_300_LN_8_LD_15_RN_10_RD_12_1.png","img2/200/Congruent/R/C_Dist_200_LN_3_LD_10_RN_14_RD_28_1.png","img2/100/Incongruent/L/I_Dist_100_LN_2_LD_4_RN_6_RD_15_0.png","img2/300/Congruent/R/C_Dist_300_LN_5_LD_25_RN_6_RD_12_1.png","img2/300/Incongruent/L/I_Dist_300_LN_2_LD_4_RN_6_RD_30_0.png","img2/300/Incongruent/L/I_Dist_300_LN_3_LD_6_RN_4_RD_20_0.png","img2/200/Incongruent/R/I_Dist_200_LN_14_LD_30_RN_12_RD_18_1.png","img2/100/Incongruent/L/I_Dist_100_LN_9_LD_10_RN_20_RD_25_0.png","img2/100/Incongruent/R/I_Dist_100_LN_12_LD_24_RN_9_RD_15_1.png","img2/100/Congruent/L/C_Dist_100_LN_6_LD_20_RN_5_RD_25_0.png","img2/200/Incongruent/L/I_Dist_200_LN_1_LD_2_RN_3_RD_10_0.png","img2/100/Incongruent/L/I_Dist_100_LN_2_LD_4_RN_8_RD_20_0.png","img2/200/Incongruent/L/I_Dist_200_LN_1_LD_3_RN_2_RD_15_0.png","img2/200/Incongruent/L/I_Dist_200_LN_1_LD_2_RN_3_RD_10_0.png","img2/300/Congruent/R/C_Dist_300_LN_2_LD_20_RN_10_RD_25_1.png","img2/300/Congruent/R/C_Dist_300_LN_8_LD_15_RN_10_RD_12_1.png","img2/100/Incongruent/R/I_Dist_100_LN_6_LD_12_RN_3_RD_5_1.png","img2/200/Incongruent/R/I_Dist_200_LN_14_LD_30_RN_6_RD_9_1.png","img2/300/Congruent/R/C_Dist_300_LN_2_LD_20_RN_10_RD_25_1.png","img2/200/Congruent/R/C_Dist_200_LN_3_LD_6_RN_14_RD_20_1.png","img2/100/Congruent/L/C_Dist_100_LN_9_LD_15_RN_8_RD_16_0.png","img2/200/Incongruent/R/I_Dist_200_LN_6_LD_20_RN_3_RD_6_1.png","img2/100/Incongruent/R/I_Dist_100_LN_6_LD_12_RN_3_RD_5_1.png","img2/100/Congruent/L/C_Dist_100_LN_15_LD_25_RN_13_RD_26_0.png","img2/100/Congruent/L/C_Dist_100_LN_8_LD_16_RN_2_RD_5_0.png","img2/200/Congruent/L/C_Dist_200_LN_9_LD_20_RN_4_RD_16_0.png","img2/300/Congruent/R/C_Dist_300_LN_5_LD_25_RN_6_RD_12_1.png","img2/200/Incongruent/R/I_Dist_200_LN_11_LD_20_RN_3_RD_4_1.png","img2/300/Congruent/L/C_Dist_300_LN_11_LD_22_RN_1_RD_5_0.png","img2/200/Congruent/R/C_Dist_200_LN_5_LD_10_RN_14_RD_20_1.png","img2/100/Incongruent/L/I_Dist_100_LN_6_LD_10_RN_7_RD_14_0.png","img2/200/Congruent/L/C_Dist_200_LN_15_LD_25_RN_4_RD_10_0.png","img2/100/Congruent/R/C_Dist_100_LN_1_LD_2_RN_18_RD_30_1.png","img2/200/Congruent/L/C_Dist_200_LN_8_LD_15_RN_7_RD_21_0.png","img2/300/Congruent/R/C_Dist_300_LN_1_LD_5_RN_11_RD_22_1.png","img2/200/Incongruent/R/I_Dist_200_LN_7_LD_15_RN_6_RD_9_1.png","img2/100/Congruent/L/C_Dist_100_LN_11_LD_22_RN_6_RD_15_0.png","img2/100/Congruent/R/C_Dist_100_LN_7_LD_14_RN_9_RD_15_1.png","img2/300/Congruent/L/C_Dist_300_LN_20_LD_25_RN_14_RD_28_0.png","img2/100/Congruent/R/C_Dist_100_LN_12_LD_30_RN_13_RD_26_1.png","img2/100/Incongruent/L/I_Dist_100_LN_9_LD_15_RN_13_RD_26_0.png","img2/100/Incongruent/R/I_Dist_100_LN_10_LD_25_RN_8_RD_16_1.png","img2/100/Congruent/R/C_Dist_100_LN_1_LD_2_RN_18_RD_30_1.png","img2/300/Congruent/R/C_Dist_300_LN_8_LD_15_RN_10_RD_12_1.png","img2/300/Congruent/R/C_Dist_300_LN_3_LD_12_RN_11_RD_20_1.png","img2/200/Incongruent/L/I_Dist_200_LN_4_LD_5_RN_6_RD_10_0.png","img2/200/Incongruent/L/I_Dist_200_LN_4_LD_5_RN_6_RD_10_0.png","img2/100/Congruent/L/C_Dist_100_LN_9_LD_15_RN_8_RD_16_0.png","img2/300/Incongruent/R/I_Dist_300_LN_4_LD_20_RN_2_RD_4_1.png","img2/200/Incongruent/L/I_Dist_200_LN_7_LD_10_RN_8_RD_16_0.png","img2/100/Congruent/L/C_Dist_100_LN_9_LD_15_RN_8_RD_16_0.png","img2/200/Congruent/R/C_Dist_200_LN_13_LD_26_RN_14_RD_20_1.png","img2/300/Congruent/R/C_Dist_300_LN_3_LD_12_RN_11_RD_20_1.png","img2/200/Incongruent/L/I_Dist_200_LN_3_LD_4_RN_11_RD_20_0.png","img2/200/Congruent/L/C_Dist_200_LN_4_LD_8_RN_3_RD_10_0.png","img2/200/Congruent/R/C_Dist_200_LN_5_LD_10_RN_14_RD_20_1.png","img2/200/Congruent/L/C_Dist_200_LN_16_LD_30_RN_9_RD_27_0.png","img2/100/Congruent/R/C_Dist_100_LN_12_LD_30_RN_13_RD_26_1.png","img2/100/Incongruent/R/I_Dist_100_LN_12_LD_24_RN_9_RD_15_1.png","img2/100/Congruent/R/C_Dist_100_LN_7_LD_14_RN_15_RD_25_1.png","img2/300/Incongruent/L/I_Dist_300_LN_1_LD_2_RN_2_RD_10_0.png","img2/300/Incongruent/L/I_Dist_300_LN_2_LD_4_RN_6_RD_30_0.png","img2/300/Incongruent/R/I_Dist_300_LN_13_LD_26_RN_12_RD_15_1.png","img2/200/Congruent/L/C_Dist_200_LN_12_LD_15_RN_6_RD_10_0.png","img2/300/Incongruent/R/I_Dist_300_LN_13_LD_26_RN_12_RD_15_1.png","img2/200/Congruent/L/C_Dist_200_LN_4_LD_8_RN_3_RD_10_0.png","img2/100/Incongruent/L/I_Dist_100_LN_3_LD_6_RN_4_RD_10_0.png","img2/100/Congruent/L/C_Dist_100_LN_3_LD_6_RN_2_RD_5_0.png","img2/200/Congruent/L/C_Dist_200_LN_8_LD_15_RN_2_RD_6_0.png","img2/300/Incongruent/L/I_Dist_300_LN_2_LD_4_RN_6_RD_30_0.png","img2/100/Incongruent/R/I_Dist_100_LN_11_LD_22_RN_9_RD_15_1.png","img2/100/Incongruent/R/I_Dist_100_LN_8_LD_20_RN_1_RD_2_1.png","img2/200/Incongruent/R/I_Dist_200_LN_14_LD_30_RN_12_RD_18_1.png","img2/300/Congruent/L/C_Dist_300_LN_20_LD_25_RN_14_RD_28_0.png","img2/300/Incongruent/L/I_Dist_300_LN_1_LD_2_RN_3_RD_15_0.png","img2/100/Incongruent/L/I_Dist_100_LN_1_LD_2_RN_8_RD_20_0.png","img2/300/Incongruent/R/I_Dist_300_LN_13_LD_26_RN_12_RD_15_1.png","img2/300/Incongruent/R/I_Dist_300_LN_13_LD_26_RN_12_RD_15_1.png","img2/300/Incongruent/R/I_Dist_300_LN_4_LD_20_RN_2_RD_4_1.png","img2/100/Incongruent/L/I_Dist_100_LN_6_LD_10_RN_11_RD_22_0.png","img2/300/Congruent/L/C_Dist_300_LN_20_LD_25_RN_8_RD_16_0.png","img2/100/Congruent/L/C_Dist_100_LN_6_LD_20_RN_5_RD_25_0.png","img2/200/Incongruent/R/I_Dist_200_LN_11_LD_20_RN_3_RD_4_1.png","img2/200/Congruent/R/C_Dist_200_LN_9_LD_30_RN_13_RD_26_1.png","img2/300/Incongruent/R/I_Dist_300_LN_13_LD_26_RN_12_RD_15_1.png","img2/200/Incongruent/L/I_Dist_200_LN_1_LD_2_RN_3_RD_10_0.png","img2/200/Incongruent/L/I_Dist_200_LN_7_LD_10_RN_14_RD_28_0.png","img2/200/Incongruent/L/I_Dist_200_LN_3_LD_4_RN_11_RD_20_0.png","img2/300/Congruent/R/C_Dist_300_LN_1_LD_5_RN_11_RD_22_1.png","img2/300/Incongruent/L/I_Dist_300_LN_4_LD_5_RN_8_RD_16_0.png","img2/100/Congruent/L/C_Dist_100_LN_3_LD_6_RN_2_RD_5_0.png","img2/100/Incongruent/L/I_Dist_100_LN_3_LD_5_RN_8_RD_16_0.png","img2/200/Congruent/L/C_Dist_200_LN_14_LD_28_RN_6_RD_20_0.png","img2/300/Congruent/R/C_Dist_300_LN_2_LD_10_RN_12_RD_24_1.png","img2/100/Incongruent/R/I_Dist_100_LN_12_LD_30_RN_2_RD_4_1.png","img2/200/Congruent/L/C_Dist_200_LN_8_LD_15_RN_7_RD_21_0.png","img2/200/Incongruent/R/I_Dist_200_LN_7_LD_15_RN_4_RD_6_1.png","img2/100/Incongruent/R/I_Dist_100_LN_8_LD_20_RN_1_RD_2_1.png"],"dist100_C":[["C_Dist_100_LN_10_LD_25_RN_3_RD_10_0.png","C_Dist_100_LN_11_LD_22_RN_4_RD_10_0.png","C_Dist_100_LN_11_LD_22_RN_6_RD_15_0.png","C_Dist_100_LN_15_LD_25_RN_13_RD_26_0.png","C_Dist_100_LN_3_LD_6_RN_2_RD_5_0.png","C_Dist_100_LN_6_LD_20_RN_5_RD_25_0.png","C_Dist_100_LN_8_LD_16_RN_2_RD_5_0.png","C_Dist_100_LN_9_LD_15_RN_8_RD_16_0.png"],["C_Dist_100_LN_1_LD_2_RN_18_RD_30_1.png","C_Dist_100_LN_1_LD_2_RN_3_RD_5_1.png","C_Dist_100_LN_12_LD_30_RN_13_RD_26_1.png","C_Dist_100_LN_2_LD_5_RN_11_RD_22_1.png","C_Dist_100_LN_2_LD_5_RN_6_RD_12_1.png","C_Dist_100_LN_3_LD_20_RN_4_RD_16_1.png","C_Dist_100_LN_4_LD_10_RN_15_RD_30_1.png","C_Dist_100_LN_4_LD_8_RN_6_RD_10_1.png","C_Dist_100_LN_6_LD_12_RN_15_RD_25_1.png","C_Dist_100_LN_7_LD_14_RN_15_RD_25_1.png","C_Dist_100_LN_7_LD_14_RN_9_RD_15_1.png"]],"dist100_I":[["I_Dist_100_LN_1_LD_2_RN_8_RD_20_0.png","I_Dist_100_LN_2_LD_4_RN_6_RD_15_0.png","I_Dist_100_LN_2_LD_4_RN_8_RD_20_0.png","I_Dist_100_LN_3_LD_5_RN_11_RD_22_0.png","I_Dist_100_LN_3_LD_5_RN_8_RD_16_0.png","I_Dist_100_LN_3_LD_6_RN_4_RD_10_0.png","I_Dist_100_LN_3_LD_9_RN_7_RD_30_0.png","I_Dist_100_LN_4_LD_8_RN_8_RD_20_0.png","I_Dist_100_LN_6_LD_10_RN_11_RD_22_0.png","I_Dist_100_LN_6_LD_10_RN_13_RD_26_0.png","I_Dist_100_LN_6_LD_10_RN_7_RD_14_0.png","I_Dist_100_LN_9_LD_10_RN_20_RD_25_0.png","I_Dist_100_LN_9_LD_15_RN_13_RD_26_0.png","I_Dist_100_LN_9_LD_15_RN_14_RD_28_0.png"],["I_Dist_100_LN_10_LD_25_RN_8_RD_16_1.png","I_Dist_100_LN_10_LD_25_RN_9_RD_18_1.png","I_Dist_100_LN_11_LD_22_RN_9_RD_15_1.png","I_Dist_100_LN_12_LD_24_RN_9_RD_15_1.png","I_Dist_100_LN_12_LD_30_RN_2_RD_4_1.png","I_Dist_100_LN_13_LD_26_RN_12_RD_20_1.png","I_Dist_100_LN_13_LD_26_RN_6_RD_10_1.png","I_Dist_100_LN_17_LD_30_RN_10_RD_15_1.png","I_Dist_100_LN_6_LD_12_RN_3_RD_5_1.png","I_Dist_100_LN_8_LD_16_RN_6_RD_10_1.png","I_Dist_100_LN_8_LD_20_RN_1_RD_2_1.png","I_Dist_100_LN_9_LD_18_RN_6_RD_10_1.png"]],"dist100_S":[["E_Dist_100_LN_2_LD_12_RN_2_RD_30_0.png","E_Dist_100_LN_6_LD_10_RN_6_RD_12_0.png"],["E_Dist_100_LN_6_LD_12_RN_6_RD_10_1.png"]],"dist200_C":[["C_Dist_200_LN_11_LD_22_RN_3_RD_10_0.png","C_Dist_200_LN_12_LD_15_RN_6_RD_10_0.png","C_Dist_200_LN_12_LD_20_RN_6_RD_15_0.png","C_Dist_200_LN_14_LD_28_RN_6_RD_20_0.png","C_Dist_200_LN_15_LD_25_RN_4_RD_10_0.png","C_Dist_200_LN_16_LD_20_RN_12_RD_20_0.png","C_Dist_200_LN_16_LD_30_RN_9_RD_27_0.png","C_Dist_200_LN_20_LD_25_RN_9_RD_15_0.png","C_Dist_200_LN_21_LD_30_RN_2_RD_4_0.png","C_Dist_200_LN_4_LD_10_RN_3_RD_15_0.png","C_Dist_200_LN_4_LD_8_RN_3_RD_10_0.png","C_Dist_200_LN_6_LD_15_RN_3_RD_15_0.png","C_Dist_200_LN_7_LD_21_RN_2_RD_15_0.png","C_Dist_200_LN_8_LD_15_RN_2_RD_6_0.png","C_Dist_200_LN_8_LD_15_RN_3_RD_9_0.png","C_Dist_200_LN_8_LD_15_RN_7_RD_21_0.png","C_Dist_200_LN_9_LD_20_RN_4_RD_16_0.png"],["C_Dist_200_LN_1_LD_2_RN_21_RD_30_1.png","C_Dist_200_LN_13_LD_26_RN_14_RD_20_1.png","C_Dist_200_LN_3_LD_10_RN_11_RD_22_1.png","C_Dist_200_LN_3_LD_10_RN_14_RD_28_1.png","C_Dist_200_LN_3_LD_10_RN_7_RD_14_1.png","C_Dist_200_LN_3_LD_12_RN_9_RD_20_1.png","C_Dist_200_LN_3_LD_6_RN_14_RD_20_1.png","C_Dist_200_LN_5_LD_10_RN_14_RD_20_1.png","C_Dist_200_LN_6_LD_12_RN_7_RD_10_1.png","C_Dist_200_LN_6_LD_20_RN_11_RD_22_1.png","C_Dist_200_LN_7_LD_15_RN_18_RD_27_1.png","C_Dist_200_LN_9_LD_30_RN_13_RD_26_1.png"]],"dist200_I":[["I_Dist_200_LN_1_LD_2_RN_3_RD_10_0.png","I_Dist_200_LN_1_LD_3_RN_2_RD_15_0.png","I_Dist_200_LN_3_LD_4_RN_11_RD_20_0.png","I_Dist_200_LN_4_LD_5_RN_6_RD_10_0.png","I_Dist_200_LN_4_LD_6_RN_14_RD_30_0.png","I_Dist_200_LN_7_LD_10_RN_12_RD_24_0.png","I_Dist_200_LN_7_LD_10_RN_14_RD_28_0.png","I_Dist_200_LN_7_LD_10_RN_8_RD_16_0.png"],["I_Dist_200_LN_11_LD_20_RN_3_RD_4_1.png","I_Dist_200_LN_14_LD_30_RN_12_RD_18_1.png","I_Dist_200_LN_14_LD_30_RN_6_RD_9_1.png","I_Dist_200_LN_3_LD_10_RN_1_RD_2_1.png","I_Dist_200_LN_4_LD_30_RN_1_RD_3_1.png","I_Dist_200_LN_6_LD_20_RN_3_RD_6_1.png","I_Dist_200_LN_7_LD_15_RN_4_RD_6_1.png","I_Dist_200_LN_7_LD_15_RN_6_RD_9_1.png","I_Dist_200_LN_9_LD_15_RN_8_RD_10_1.png"]],"dist200_S":[["E_Dist_200_LN_3_LD_6_RN_3_RD_10_0.png"],["E_Dist_200_LN_3_LD_10_RN_3_RD_6_1.png"]],"dist300_C":[["C_Dist_300_LN_11_LD_22_RN_1_RD_5_0.png","C_Dist_300_LN_11_LD_22_RN_2_RD_10_0.png","C_Dist_300_LN_11_LD_22_RN_4_RD_20_0.png","C_Dist_300_LN_12_LD_24_RN_2_RD_10_0.png","C_Dist_300_LN_18_LD_20_RN_9_RD_15_0.png","C_Dist_300_LN_20_LD_25_RN_13_RD_26_0.png","C_Dist_300_LN_20_LD_25_RN_14_RD_28_0.png","C_Dist_300_LN_20_LD_25_RN_5_RD_10_0.png","C_Dist_300_LN_20_LD_25_RN_8_RD_16_0.png","C_Dist_300_LN_20_LD_25_RN_9_RD_18_0.png","C_Dist_300_LN_24_LD_30_RN_2_RD_4_0.png","C_Dist_300_LN_24_LD_30_RN_8_RD_16_0.png","C_Dist_300_LN_3_LD_6_RN_2_RD_10_0.png","C_Dist_300_LN_4_LD_10_RN_1_RD_10_0.png","C_Dist_300_LN_4_LD_5_RN_2_RD_4_0.png","C_Dist_300_LN_8_LD_16_RN_1_RD_5_0.png","C_Dist_300_LN_9_LD_10_RN_3_RD_5_0.png"],["C_Dist_300_LN_1_LD_20_RN_7_RD_20_1.png","C_Dist_300_LN_1_LD_3_RN_19_RD_30_1.png","C_Dist_300_LN_1_LD_30_RN_8_RD_24_1.png","C_Dist_300_LN_1_LD_5_RN_11_RD_22_1.png","C_Dist_300_LN_1_LD_5_RN_3_RD_6_1.png","C_Dist_300_LN_1_LD_5_RN_6_RD_12_1.png","C_Dist_300_LN_2_LD_10_RN_12_RD_24_1.png","C_Dist_300_LN_2_LD_20_RN_10_RD_25_1.png","C_Dist_300_LN_3_LD_12_RN_11_RD_20_1.png","C_Dist_300_LN_3_LD_6_RN_4_RD_5_1.png","C_Dist_300_LN_4_LD_20_RN_13_RD_26_1.png","C_Dist_300_LN_5_LD_25_RN_6_RD_12_1.png","C_Dist_300_LN_5_LD_25_RN_7_RD_14_1.png","C_Dist_300_LN_7_LD_14_RN_20_RD_25_1.png","C_Dist_300_LN_8_LD_15_RN_10_RD_12_1.png"]],"dist300_I":[["I_Dist_300_LN_1_LD_2_RN_2_RD_10_0.png","I_Dist_300_LN_1_LD_2_RN_3_RD_15_0.png","I_Dist_300_LN_2_LD_4_RN_6_RD_30_0.png","I_Dist_300_LN_3_LD_6_RN_4_RD_20_0.png","I_Dist_300_LN_4_LD_5_RN_6_RD_12_0.png","I_Dist_300_LN_4_LD_5_RN_8_RD_16_0.png","I_Dist_300_LN_7_LD_10_RN_8_RD_20_0.png","I_Dist_300_LN_8_LD_10_RN_14_RD_28_0.png","I_Dist_300_LN_8_LD_10_RN_9_RD_18_0.png"],["I_Dist_300_LN_13_LD_26_RN_12_RD_15_1.png","I_Dist_300_LN_4_LD_20_RN_2_RD_4_1.png"]],"dist300_S":[["E_Dist_300_LN_9_LD_12_RN_9_RD_20_0.png"],["E_Dist_300_LN_18_LD_30_RN_18_RD_20_1.png","E_Dist_300_LN_3_LD_10_RN_3_RD_5_1.png","E_Dist_300_LN_9_LD_20_RN_9_RD_12_1.png"]],"dist500_C":[["C_Dist_500_LN_10_LD_13_RN_7_RD_26_0.png","C_Dist_500_LN_10_LD_15_RN_4_RD_24_0.png","C_Dist_500_LN_12_LD_16_RN_3_RD_12_0.png","C_Dist_500_LN_12_LD_18_RN_4_RD_24_0.png","C_Dist_500_LN_15_LD_18_RN_5_RD_15_0.png","C_Dist_500_LN_15_LD_20_RN_1_RD_4_0.png","C_Dist_500_LN_18_LD_27_RN_1_RD_6_0.png","C_Dist_500_LN_20_LD_24_RN_1_RD_3_0.png","C_Dist_500_LN_20_LD_24_RN_3_RD_9_0.png","C_Dist_500_LN_20_LD_24_RN_7_RD_21_0.png","C_Dist_500_LN_20_LD_28_RN_3_RD_14_0.png","C_Dist_500_LN_21_LD_28_RN_6_RD_24_0.png","C_Dist_500_LN_22_LD_28_RN_2_RD_7_0.png","C_Dist_500_LN_25_LD_30_RN_9_RD_27_0.png","C_Dist_500_LN_4_LD_6_RN_1_RD_6_0.png","C_Dist_500_LN_5_LD_6_RN_2_RD_6_0.png","C_Dist_500_LN_6_LD_9_RN_1_RD_6_0.png","C_Dist_500_LN_7_LD_10_RN_1_RD_5_0.png","C_Dist_500_LN_8_LD_12_RN_1_RD_6_0.png","C_Dist_500_LN_8_LD_12_RN_4_RD_24_0.png"],["C_Dist_500_LN_1_LD_4_RN_12_RD_16_1.png","C_Dist_500_LN_1_LD_4_RN_9_RD_12_1.png","C_Dist_500_LN_1_LD_9_RN_11_RD_18_1.png","C_Dist_500_LN_10_LD_24_RN_22_RD_24_1.png","C_Dist_500_LN_2_LD_12_RN_10_RD_15_1.png","C_Dist_500_LN_2_LD_12_RN_12_RD_18_1.png","C_Dist_500_LN_2_LD_12_RN_4_RD_6_1.png","C_Dist_500_LN_2_LD_24_RN_7_RD_12_1.png","C_Dist_500_LN_2_LD_5_RN_18_RD_20_1.png","C_Dist_500_LN_2_LD_5_RN_9_RD_10_1.png","C_Dist_500_LN_2_LD_8_RN_12_RD_16_1.png","C_Dist_500_LN_2_LD_8_RN_21_RD_28_1.png","C_Dist_500_LN_3_LD_10_RN_4_RD_5_1.png","C_Dist_500_LN_3_LD_12_RN_15_RD_20_1.png","C_Dist_500_LN_3_LD_30_RN_6_RD_10_1.png","C_Dist_500_LN_3_LD_8_RN_14_RD_16_1.png","C_Dist_500_LN_4_LD_16_RN_15_RD_20_1.png","C_Dist_500_LN_4_LD_24_RN_12_RD_18_1.png","C_Dist_500_LN_5_LD_14_RN_6_RD_7_1.png","C_Dist_500_LN_7_LD_21_RN_20_RD_24_1.png","C_Dist_500_LN_7_LD_28_RN_12_RD_16_1.png","C_Dist_500_LN_7_LD_28_RN_9_RD_12_1.png","C_Dist_500_LN_9_LD_27_RN_20_RD_24_1.png"]],"dist500_I":[["I_Dist_500_LN_2_LD_3_RN_4_RD_24_0.png","I_Dist_500_LN_5_LD_6_RN_6_RD_18_0.png","I_Dist_500_LN_7_LD_8_RN_9_RD_24_0.png"],["I_Dist_500_LN_7_LD_21_RN_5_RD_6_1.png"]],"dist500_S":[["E_Dist_500_LN_6_LD_8_RN_6_RD_24_0.png"],["E_Dist_500_LN_2_LD_12_RN_2_RD_3_1.png","E_Dist_500_LN_6_LD_24_RN_6_RD_8_1.png"]]}},{"start_time":1552073739438,"click_time":1552073741326,"finger_time":1552073740746,"fix_duration":831.8355544942224,"trial":1,"RT":1308,"MT":580,"sideResp":2,"stimulus":[],"xmouse":[796,796,796,796,796,796,796,796,796,796,796,796,796,796,796,796,796,796,796,796,796,796,796,796,796,796,796,796,796,796,796,796,796,796,796,796,796,796,796,796,796,796,796,796,796,796,796,796,796,796,796,796,796,796,796,796,796,796,796,796,796,796,798,803,810,831,848,877,901,936,956,972,1002,1011,1017,1027,1031,1034,1034,1034,1032,1032,1031,1031,1031,1032,1038,1040,1041,1043,1044,1047,1052,1056,1064],"ymouse":[501,501,501,501,501,501,501,501,501,501,501,501,501,501,501,501,501,501,501,501,501,501,501,501,501,501,501,501,501,501,501,501,501,501,501,501,501,501,501,501,501,501,501,501,501,501,501,501,501,501,501,501,501,501,501,501,501,501,501,501,501,501,497,491,485,465,446,405,372,324,300,286,266,257,249,236,225,189,163,142,128,124,123,123,123,122,118,115,111,109,107,103,93,89,84],"timestamp_mouse":[15,27,47,67,88,108,127,148,168,187,207,227,247,268,288,308,328,347,367,387,408,427,447,468,488,507,529,547,569,588,608,628,647,668,687,707,729,747,767,788,808,827,847,868,888,909,928,947,968,988,1007,1028,1048,1068,1088,1109,1128,1147,1168,1187,1207,1228,1247,1267,1288,1308,1328,1348,1367,1388,1407,1427,1448,1467,1488,1507,1527,1548,1567,1588,1607,1628,1648,1668,1687,1707,1727,1748,1767,1788,1807,1827,1849,1867,1887],"xSR":741.5,"ySR":469.95,"xT1":424.9,"yT1":0,"xT2":1058.1,"yT2":0,"toosoon":0,"cond_shown":"Incongruent","ratio_trial":300,"L_num":4,"L_den":5,"R_num":6,"R_den":12,"correct_side":1,"subjID":"Juan Felipe Amaya Gomez","gender":"0","school":"4","age":"9"},{"start_time":1552073745896,"click_time":1552073748106,"finger_time":1552073747485,"fix_duration":1488.862324641508,"trial":2,"RT":1589,"MT":621,"sideResp":2,"stimulus":[],"xmouse":[774,774,774,774,774,774,774,774,774,774,774,774,774,774,774,774,774,774,774,774,774,774,774,774,774,774,774,774,774,774,774,774,774,774,774,774,774,774,774,774,774,774,774,774,774,774,774,774,774,774,774,774,774,774,774,774,774,774,774,774,774,774,774,774,774,774,774,774,774,774,774,774,774,774,774,774,778,794,818,831,858,870,887,901,915,931,963,974,985,999,1012,1015,1017,1018,1020,1025,1027,1029,1030,1030,1035,1041,1044,1046,1046,1048,1049,1051,1053,1057,1062],"ymouse":[552,552,552,552,552,552,552,552,552,552,552,552,552,552,552,552,552,552,552,552,552,552,552,552,552,552,552,552,552,552,552,552,552,552,552,552,552,552,552,552,552,552,552,552,552,552,552,552,552,552,552,552,552,552,552,552,552,552,552,552,552,552,552,552,552,552,552,552,552,552,552,552,552,552,552,552,547,530,496,468,406,374,348,324,298,271,219,197,172,139,107,99,97,97,95,95,93,91,90,89,86,85,83,82,82,79,77,75,74,73,71],"timestamp_mouse":[11,31,49,71,90,109,130,150,170,190,210,230,249,270,289,310,330,349,371,390,410,429,449,470,490,510,529,550,570,590,609,629,650,669,689,710,729,750,769,790,809,830,850,870,889,910,930,951,971,990,1009,1029,1049,1070,1090,1110,1129,1150,1169,1189,1209,1229,1250,1270,1290,1309,1331,1350,1369,1389,1411,1430,1450,1470,1491,1509,1530,1549,1570,1589,1610,1630,1651,1669,1690,1709,1729,1749,1771,1790,1809,1830,1849,1869,1889,1910,1929,1950,1970,1990,2009,2030,2049,2069,2090,2110,2129,2149,2170,2189,2210],"xSR":741.5,"ySR":469.95,"xT1":424.9,"yT1":0,"xT2":1058.1,"yT2":0,"toosoon":0,"cond_shown":"Congruent","ratio_trial":100,"L_num":1,"L_den":2,"R_num":3,"R_den":5,"correct_side":2,"subjID":"Juan Felipe Amaya Gomez","gender":"0","school":"4","age":"9"},{"start_time":1552073750338,"click_time":1552073752085,"finger_time":1552073751606,"fix_duration":1150.0886367081685,"trial":3,"RT":1268,"MT":479,"sideResp":2,"stimulus":[],"xmouse":[783,783,783,783,783,783,783,783,783,783,783,783,783,783,783,783,783,783,783,783,783,783,783,783,783,783,783,783,783,783,783,783,783,783,783,783,783,783,783,783,783,783,783,783,783,783,783,783,783,783,783,783,783,783,783,783,783,783,783,784,797,812,828,841,858,870,897,923,1001,1054,1094,1128,1158,1194,1207,1219,1223,1223,1223,1223,1221,1212,1201,1192,1180,1167,1160,1157],"ymouse":[519,519,519,519,519,519,519,519,519,519,519,519,519,519,519,519,519,519,519,519,519,519,519,519,519,519,519,519,519,519,519,519,519,519,519,519,519,519,519,519,519,519,519,519,519,519,519,519,519,519,519,519,519,519,519,519,519,519,519,519,511,500,483,462,422,389,337,294,229,199,174,148,123,73,49,24,11,5,2,2,2,2,3,7,13,21,27,31],"timestamp_mouse":[9,27,48,68,87,107,127,147,167,187,207,229,248,268,288,308,328,348,367,388,407,428,448,467,487,508,527,548,568,587,607,627,647,668,687,708,728,748,767,787,808,829,849,868,888,908,928,947,968,988,1008,1028,1047,1069,1089,1108,1127,1148,1169,1187,1207,1227,1248,1268,1288,1307,1327,1347,1369,1387,1408,1427,1447,1469,1487,1508,1527,1547,1567,1587,1607,1627,1648,1668,1689,1707,1727,1747],"xSR":741.5,"ySR":469.95,"xT1":424.9,"yT1":0,"xT2":1058.1,"yT2":0,"toosoon":0,"cond_shown":"Incongruent","ratio_trial":200,"L_num":14,"L_den":30,"R_num":12,"R_den":18,"correct_side":2,"subjID":"Juan Felipe Amaya Gomez","gender":"0","school":"4","age":"9"},{"start_time":1552073758838,"click_time":1552073760686,"finger_time":1552073759986,"fix_duration":250,"trial":4,"RT":1148,"MT":700,"sideResp":2,"stimulus":[],"xmouse":[795,796,798,798,798,798,798,798,798,798,798,798,798,798,798,798,798,798,798,798,798,798,798,798,798,798,798,798,798,798,798,798,798,798,798,798,798,798,798,798,798,798,798,798,798,798,798,798,798,797,797,796,796,795,794,794,796,804,813,819,831,839,846,856,879,890,904,916,928,942,956,956,956,956,956,956,956,956,956,956,956,956,956,956,1028,1034,1039,1043,1044,1048,1051,1055,1061],"ymouse":[534,533,532,531,531,531,531,531,531,531,531,531,531,531,531,531,531,531,531,531,531,531,531,531,531,531,531,531,531,531,531,531,531,531,531,531,531,531,531,531,531,531,531,531,531,529,527,526,525,523,522,520,518,515,510,495,476,455,432,393,313,267,220,180,116,95,71,53,37,20,4,4,4,4,4,4,4,4,4,4,4,4,4,4,5,20,27,28,28,28,28,28,27],"timestamp_mouse":[12,27,47,69,87,107,127,148,169,188,208,227,247,268,288,308,328,347,367,388,408,428,447,467,488,507,527,547,568,588,608,628,648,668,688,708,729,748,768,788,807,828,847,867,888,907,928,947,968,988,1007,1027,1049,1067,1087,1108,1128,1148,1168,1187,1208,1228,1247,1267,1289,1307,1329,1349,1368,1388,1407,1427,1447,1469,1488,1507,1527,1547,1568,1588,1608,1627,1649,1668,1689,1707,1728,1747,1768,1788,1807,1828,1848],"xSR":741.5,"ySR":469.95,"xT1":424.9,"yT1":0,"xT2":1058.1,"yT2":0,"toosoon":0,"cond_shown":"Congruent","ratio_trial":100,"L_num":9,"L_den":15,"R_num":8,"R_den":16,"correct_side":1,"subjID":"Juan Felipe Amaya Gomez","gender":"0","school":"4","age":"9"},{"start_time":1552073763383,"click_time":1552073766065,"finger_time":1552073764845,"fix_duration":937.8832458835088,"trial":5,"RT":1462,"MT":1220,"sideResp":1,"stimulus":[],"xmouse":[798,798,798,797,797,797,797,797,797,797,797,797,797,797,797,797,797,797,797,797,797,797,797,797,796,796,796,796,796,796,796,796,796,796,796,796,796,796,796,796,796,796,796,796,796,796,796,796,796,796,796,796,796,796,796,796,796,796,796,796,796,796,796,796,796,796,796,796,796,796,796,799,803,810,817,827,835,856,882,894,903,909,912,920,922,927,931,937,950,960,970,981,990,1002,1007,1009,1012,1013,1015,1016,1018,1020,1022,1023,1024,1024,1024,1024,1024,1024,1024,1024,1024,1021,1014,1003,995,986,982,981,976,970,967,964,963,958,946,937,927,911,886,805,718,543,463],"ymouse":[523,523,523,523,523,523,523,523,523,523,523,523,523,523,523,523,523,523,523,523,523,523,523,523,523,523,522,522,522,522,522,522,522,522,522,522,522,522,522,522,522,522,522,522,522,522,522,522,522,522,522,522,522,522,522,522,522,522,522,522,522,522,522,522,522,522,522,522,522,520,515,506,493,451,425,393,363,313,260,239,221,209,201,190,186,184,181,176,155,142,129,114,98,72,64,59,56,55,55,54,54,53,53,53,53,53,53,53,53,53,53,53,53,53,53,53,53,53,55,55,58,59,62,62,62,62,62,62,63,65,71,78,78,87,90],"timestamp_mouse":[13,24,43,62,82,102,123,143,163,183,204,223,242,263,282,303,322,342,363,382,403,422,443,463,482,502,523,543,562,582,604,623,643,662,684,702,723,743,762,783,802,822,843,862,882,902,923,943,962,983,1002,1023,1043,1062,1082,1102,1123,1143,1162,1183,1203,1222,1242,1263,1283,1304,1322,1342,1362,1383,1403,1422,1442,1462,1482,1502,1523,1543,1562,1582,1602,1623,1642,1663,1682,1702,1722,1742,1762,1782,1803,1822,1843,1863,1882,1902,1922,1942,1962,1983,2003,2022,2042,2063,2082,2103,2123,2143,2163,2182,2203,2222,2243,2262,2283,2304,2323,2342,2363,2382,2403,2423,2443,2462,2484,2502,2522,2542,2562,2584,2603,2623,2642,2663,2682],"xSR":741.5,"ySR":469.95,"xT1":424.9,"yT1":0,"xT2":1058.1,"yT2":0,"toosoon":0,"cond_shown":"Congruent","ratio_trial":200,"L_num":5,"L_den":10,"R_num":14,"R_den":20,"correct_side":2,"subjID":"Juan Felipe Amaya Gomez","gender":"0","school":"4","age":"9"},{"start_time":1552073769222,"click_time":1552073770765,"finger_time":1552073770187,"fix_duration":1094.292681656407,"trial":6,"RT":965,"MT":578,"sideResp":2,"stimulus":[],"xmouse":[786,786,786,786,786,786,786,786,786,786,786,786,786,786,786,786,786,786,786,786,786,786,786,786,786,786,786,786,786,786,786,786,786,786,786,786,786,786,786,786,786,786,786,788,789,791,794,805,811,818,828,841,864,881,893,898,907,910,914,918,922,926,932,935,940,946,950,961,971,980,984,988,1022,1029,1035,1047,1057,1066],"ymouse":[518,518,518,518,518,518,518,518,518,518,518,518,518,518,518,518,518,518,518,518,518,518,518,518,518,518,518,518,518,518,518,518,518,518,518,518,518,518,518,518,518,516,514,509,506,500,493,471,449,424,391,349,265,200,157,119,61,41,26,16,12,11,10,10,10,10,10,10,14,17,20,24,47,49,52,55,57,57],"timestamp_mouse":[14,24,43,63,85,103,124,143,163,183,203,224,243,263,284,303,324,345,364,383,403,425,444,464,483,505,524,544,563,584,604,625,645,664,683,704,724,745,764,785,804,823,843,863,885,904,923,943,965,983,1003,1023,1043,1063,1083,1105,1125,1144,1165,1184,1204,1223,1244,1263,1284,1304,1324,1344,1365,1384,1404,1424,1443,1465,1483,1504,1524,1543],"xSR":741.5,"ySR":469.95,"xT1":424.9,"yT1":0,"xT2":1058.1,"yT2":0,"toosoon":0,"cond_shown":"Incongruent","ratio_trial":100,"L_num":3,"L_den":5,"R_num":11,"R_den":22,"correct_side":1,"subjID":"Juan Felipe Amaya Gomez","gender":"0","school":"4","age":"9"},{"start_time":1552073773123,"click_time":1552073775745,"finger_time":1552073774486,"fix_duration":695.6063074030471,"trial":7,"RT":1363,"MT":1259,"sideResp":1,"stimulus":[],"xmouse":[802,802,802,802,802,802,802,802,802,802,802,802,802,802,802,802,802,802,802,802,802,802,802,802,802,802,802,802,802,802,802,802,802,802,802,802,802,802,802,802,802,802,802,802,802,802,802,802,802,802,802,802,802,806,809,809,810,811,811,811,811,811,811,811,811,809,807,804,802,802,802,802,802,802,801,801,799,798,798,798,798,797,795,794,793,792,792,792,792,792,793,794,795,795,795,795,795,795,795,795,795,795,795,795,795,795,795,795,795,795,796,798,798,800,800,800,800,800,800,800,800,800,795,780,759,721,665,584,544,503,470,446],"ymouse":[514,514,514,514,514,514,514,514,514,514,514,514,514,514,514,514,514,514,514,514,514,514,514,514,514,514,514,514,514,514,514,514,514,514,514,514,514,514,514,514,514,514,514,514,514,514,514,514,514,514,514,513,512,502,496,494,489,487,487,487,487,487,487,487,486,481,476,472,469,469,469,469,469,469,469,470,472,474,474,474,474,476,482,486,490,497,501,502,502,501,498,495,493,493,493,493,493,493,493,493,493,493,493,493,493,493,493,493,493,493,493,493,493,492,492,492,492,492,492,492,492,492,490,481,462,429,360,261,211,156,104,71],"timestamp_mouse":[13,22,42,64,83,103,123,144,163,183,204,222,242,262,283,304,323,343,363,383,404,422,442,462,484,504,524,544,562,583,603,623,642,662,682,703,723,742,763,782,804,823,842,862,882,902,922,943,963,983,1002,1023,1042,1064,1087,1103,1122,1143,1162,1182,1203,1222,1242,1262,1282,1303,1323,1342,1363,1383,1403,1422,1442,1462,1482,1503,1522,1542,1562,1583,1602,1622,1643,1662,1683,1703,1722,1742,1762,1782,1802,1822,1843,1863,1882,1902,1923,1942,1963,1983,2003,2022,2042,2063,2083,2103,2122,2142,2164,2183,2202,2222,2242,2263,2282,2303,2322,2342,2364,2384,2403,2424,2443,2463,2482,2503,2522,2543,2562,2582,2604,2622],"xSR":741.5,"ySR":469.95,"xT1":424.9,"yT1":0,"xT2":1058.1,"yT2":0,"toosoon":0,"cond_shown":"Incongruent","ratio_trial":300,"L_num":7,"L_den":10,"R_num":8,"R_den":20,"correct_side":1,"subjID":"Juan Felipe Amaya Gomez","gender":"0","school":"4","age":"9"},{"start_time":1552073779141,"click_time":1552073783967,"finger_time":1552073783786,"fix_duration":334.5543098951193,"trial":8,"RT":4645,"MT":181,"sideResp":2,"stimulus":[],"xmouse":[793,793,793,793,793,793,793,793,793,793,793,793,793,793,793,793,793,793,793,793,793,793,793,793,793,793,793,793,793,793,793,793,793,793,793,793,793,793,793,793,793,793,793,793,793,793,793,793,793,793,793,793,793,793,793,793,793,793,793,793,793,793,793,793,793,793,793,793,793,793,793,793,793,793,793,793,793,793,793,793,793,793,793,793,793,793,793,793,793,793,793,793,793,793,793,793,793,793,793,793,793,793,793,793,793,793,793,793,793,793,793,793,793,793,793,793,793,793,793,793,793,793,793,793,793,793,793,793,793,793,793,793,792,792,792,791,791,791,791,789,789,789,785,784,784,784,784,784,784,784,784,784,784,784,784,784,784,784,784,784,784,784,784,784,784,784,784,784,784,784,784,784,784,784,784,784,784,784,784,784,784,784,784,784,784,784,784,784,784,784,784,784,784,784,784,784,784,784,784,784,784,784,784,784,784,784,784,784,784,784,784,784,784,784,784,784,784,784,784,784,784,784,784,784,784,784,784,784,784,786,790,792,800,804,813,823,839,889,924,953,1014,1059],"ymouse":[565,565,565,565,565,565,565,565,565,565,565,565,565,565,565,565,565,565,565,565,565,565,565,565,565,565,565,565,565,565,565,565,565,565,565,565,565,565,565,565,565,565,565,565,565,565,565,565,565,565,565,565,565,565,565,565,565,565,565,565,565,565,565,565,565,565,565,565,565,565,565,565,565,565,565,565,565,565,565,565,565,565,565,565,565,565,565,565,565,565,565,565,565,565,565,565,565,565,565,565,565,565,565,565,565,565,565,565,565,565,565,565,565,565,565,565,565,565,565,565,565,565,565,565,565,565,565,565,565,565,565,563,563,562,561,559,557,552,549,545,538,529,520,519,518,518,518,518,518,518,518,518,518,518,518,518,518,518,518,518,518,518,518,518,518,518,518,518,518,518,518,518,518,518,518,518,518,518,518,518,518,518,518,518,518,518,518,518,518,518,518,518,518,518,518,518,518,518,518,518,518,518,518,518,518,518,518,518,518,518,518,518,518,518,518,518,518,518,518,518,518,518,518,518,518,518,518,518,514,510,498,490,464,445,427,407,379,287,226,166,78,18],"timestamp_mouse":[14,25,44,64,84,104,125,145,165,184,204,224,245,264,284,306,325,345,365,386,405,425,444,465,484,506,524,545,564,584,605,624,646,665,685,704,724,745,764,786,805,824,844,864,885,905,925,946,964,984,1005,1025,1045,1066,1086,1105,1125,1145,1166,1184,1205,1224,1244,1265,1285,1304,1326,1344,1364,1385,1404,1424,1446,1464,1485,1505,1525,1545,1564,1585,1605,1624,1645,1664,1685,1706,1725,1744,1764,1784,1805,1825,1845,1864,1885,1906,1925,1944,1964,1984,2005,2025,2046,2064,2084,2105,2125,2144,2164,2184,2204,2225,2245,2264,2284,2305,2325,2346,2366,2385,2405,2424,2446,2464,2484,2505,2524,2545,2564,2586,2606,2625,2644,2664,2685,2704,2724,2744,2766,2784,2805,2824,2844,2864,2884,2904,2926,2944,2964,2986,3005,3024,3045,3064,3085,3105,3126,3144,3165,3184,3206,3225,3245,3266,3284,3305,3326,3345,3364,3385,3404,3424,3444,3465,3484,3504,3525,3545,3564,3584,3604,3624,3645,3667,3687,3706,3726,3745,3766,3787,3806,3826,3845,3865,3886,3905,3926,3945,3966,3987,4007,4026,4046,4066,4085,4106,4125,4145,4166,4187,4206,4225,4245,4266,4286,4305,4327,4346,4366,4386,4406,4425,4445,4465,4487,4506,4525,4545,4565,4585,4606,4627,4645,4665,4685,4706,4726,4746,4765,4786,4806,4826],"xSR":741.5,"ySR":469.95,"xT1":424.9,"yT1":0,"xT2":1058.1,"yT2":0,"toosoon":0,"cond_shown":"Incongruent","ratio_trial":300,"L_num":13,"L_den":26,"R_num":12,"R_den":15,"correct_side":2,"subjID":"Juan Felipe Amaya Gomez","gender":"0","school":"4","age":"9"},{"start_time":1552073786048,"click_time":1552073801147,"finger_time":1552073787106,"fix_duration":539.6848424948269,"trial":9,"RT":1058,"MT":14041,"sideResp":2,"stimulus":[],"xmouse":[771,771,771,771,771,771,772,774,777,777,777,777,777,777,777,777,777,777,777,777,777,777,777,777,777,777,777,777,777,777,777,777,777,777,777,777,777,777,777,777,777,779,781,783,785,787,787,787,787,787,787,787,783,781,777,773,770,770,770,770,767,759,730,723,720,720,720,720,720,720,720,720,718,716,716,716,716,715,715,718,721,727,738,743,751,766,788,789,789,789,789,788,785,782,780,779,777,775,775,775,775,775,775,775,775,776,777,781,784,786,787,790,790,790,790,790,790,790,790,790,790,790,790,790,790,790,790,790,790,790,790,790,790,790,790,790,790,790,790,790,790,790,790,790,790,790,790,790,790,790,790,790,790,789,788,787,786,786,786,786,786,786,786,786,786,786,786,786,786,786,786,786,786,786,786,786,786,786,786,786,786,786,786,786,786,786,786,786,786,786,786,786,786,786,786,786,786,786,786,786,786,786,786,786,786,786,786,786,786,786,786,786,786,786,786,787,787,788,788,788,788,788,788,788,788,788,788,788,788,788,788,788,790,790,790,790,790,790,791,792,793,794,796,796,796,796,796,796,796,796,796,796,796,796,796,796,796,796,796,796,796,796,796,796,796,796,796,796,796,795,794,793,793,793,793,793,793,793,793,793,793,793,793,793,792,788,786,785,785,785,785,785,785,785,785,785,785,785,785,785,785,785,785,785,785,785,785,785,785,785,785,785,785,785,785,785,785,785,785,785,785,785,785,785,785,785,785,785,785,785,785,785,785,785,785,785,785,785,785,785,785,785,785,785,785,785,785,785,785,785,785,785,785,785,785,785,785,785,785,785,785,785,785,785,785,785,785,785,785,785,785,785,785,785,785,785,785,785,786,787,787,787,787,787,787,787,787,787,787,787,787,787,787,787,787,787,787,787,787,787,787,787,787,787,787,787,787,787,787,787,787,787,787,787,787,787,787,787,787,787,787,787,787,787,787,787,787,787,787,787,787,787,787,787,787,787,787,787,787,787,787,787,787,787,787,787,787,787,787,787,787,787,787,787,787,787,787,787,787,787,787,787,787,787,787,787,787,787,787,786,786,785,785,785,784,784,784,783,782,782,782,782,782,782,782,782,782,782,782,782,782,781,780,780,780,780,780,780,780,780,780,780,780,780,780,780,780,780,780,780,780,780,780,780,780,780,780,780,780,780,780,780,780,780,780,780,780,780,780,780,780,780,780,780,780,780,780,780,780,780,780,780,780,780,780,780,780,780,780,780,780,780,780,780,780,780,780,780,780,780,780,780,780,780,780,780,780,780,780,780,780,780,780,780,780,780,780,780,780,780,780,780,780,780,780,780,780,780,780,780,780,780,780,780,780,780,780,780,780,780,780,780,780,780,780,780,780,780,780,780,780,780,780,780,780,780,780,780,780,780,780,780,780,780,780,780,780,780,779,779,778,778,778,778,780,780,782,783,783,784,784,785,785,787,787,788,788,788,788,788,788,788,788,788,788,788,788,788,788,788,788,788,788,788,788,788,788,788,788,788,788,788,788,788,788,788,788,788,788,788,787,787,787,787,787,787,787,787,788,788,789,789,789,789,789,789,789,789,789,789,789,789,789,789,789,789,789,789,789,789,789,789,789,789,789,789,789,789,789,789,789,789,789,794,797,800,805,816,839,860,891,919,937,961,969,979,979,979,979,979,979,979,979,979,979,979,979,979,979,979,979,1083,1083,1083,1083],"ymouse":[511,511,511,511,511,511,512,513,513,514,514,514,514,514,514,514,514,514,514,514,514,514,514,514,514,514,514,514,514,514,514,514,514,514,514,514,514,514,514,514,514,514,510,505,498,492,486,477,476,475,474,472,466,462,459,456,455,455,455,453,450,448,442,441,439,439,439,439,439,439,439,439,439,439,439,439,439,439,441,448,453,459,469,470,473,477,485,485,485,485,486,488,491,494,499,502,504,509,509,509,509,509,509,509,510,510,510,511,512,514,514,516,516,516,516,516,516,516,516,516,516,516,516,516,516,516,516,516,516,516,516,516,516,516,516,516,516,516,516,516,516,516,516,516,516,516,516,516,516,516,516,516,517,517,517,516,516,516,516,516,516,516,516,515,515,515,515,515,515,514,513,513,513,513,513,513,513,513,513,513,513,513,513,513,513,513,513,512,512,511,511,511,511,511,511,511,511,511,511,511,511,511,511,511,505,499,489,478,478,478,478,478,478,478,478,478,478,480,480,480,480,480,480,480,481,481,481,481,481,483,484,489,498,502,504,507,508,509,510,511,514,517,523,524,527,527,528,528,528,528,528,528,528,528,528,528,528,528,528,528,528,528,528,528,528,528,528,528,528,527,527,525,525,525,525,525,525,525,525,525,525,525,525,524,519,511,506,501,501,501,501,501,501,501,501,501,501,501,501,501,501,501,501,501,502,503,503,503,503,503,503,503,503,503,503,503,504,505,505,507,508,508,509,509,509,509,509,509,509,509,509,509,509,509,509,509,509,509,509,509,509,509,509,509,509,509,509,509,509,509,509,509,509,509,509,509,509,509,509,509,509,509,509,509,509,509,509,509,511,512,512,512,512,512,512,512,512,512,512,513,513,513,513,513,513,513,513,513,513,513,513,513,513,513,513,513,513,513,513,513,513,513,513,513,513,513,513,513,513,513,514,514,515,515,515,515,515,515,515,515,515,515,515,515,515,515,515,515,515,515,515,515,515,515,515,515,515,515,515,515,515,515,515,515,515,515,515,515,515,515,515,515,515,515,515,515,515,515,515,515,515,515,515,515,515,515,515,515,516,518,519,519,519,521,523,523,523,526,527,527,527,527,527,527,527,527,527,527,527,527,527,527,528,528,528,528,528,528,528,528,528,528,528,528,528,528,528,528,528,528,528,528,528,528,528,528,528,528,528,528,528,528,528,528,528,528,528,528,528,528,528,528,528,528,528,528,528,528,528,528,528,528,528,528,528,528,528,528,528,528,528,528,528,528,528,528,528,528,528,528,528,528,528,528,528,528,528,528,528,528,528,528,528,528,528,528,528,528,528,528,528,528,528,528,528,528,528,528,528,528,528,528,528,528,528,528,528,528,528,528,528,528,528,528,528,528,528,528,528,528,528,528,528,528,528,528,528,528,528,528,528,528,528,528,528,528,528,528,528,528,528,528,527,525,522,520,518,517,516,514,513,512,511,508,506,505,505,505,504,504,504,504,504,504,504,504,504,504,504,504,504,504,504,504,504,504,504,504,504,504,504,504,504,504,504,504,504,504,504,504,505,505,506,507,507,507,509,510,515,517,518,518,518,518,518,518,518,518,518,518,518,518,518,518,518,518,518,518,518,518,518,517,516,516,516,516,516,516,516,515,512,509,504,494,488,480,468,440,397,357,296,241,189,97,60,10,10,10,10,10,10,10,10,10,10,10,10,10,10,10,10,0,0,0,1],"timestamp_mouse":[25,38,59,80,99,120,139,159,178,198,219,239,258,279,300,319,338,358,379,400,419,440,459,479,498,520,539,559,579,598,619,639,660,678,700,720,739,758,779,800,820,839,858,879,899,918,939,958,978,1000,1020,1039,1058,1078,1098,1119,1138,1158,1178,1199,1218,1238,1259,1279,1299,1320,1339,1360,1379,1399,1419,1439,1458,1479,1499,1519,1539,1558,1579,1599,1619,1639,1659,1678,1699,1719,1740,1760,1778,1799,1819,1838,1859,1878,1899,1919,1939,1959,1979,1999,2018,2038,2058,2079,2099,2120,2139,2158,2178,2199,2219,2239,2259,2279,2298,2318,2338,2359,2378,2399,2419,2438,2459,2480,2498,2519,2540,2560,2579,2599,2618,2638,2658,2678,2699,2719,2739,2759,2778,2799,2820,2839,2859,2880,2898,2920,2938,2960,2979,2998,3020,3039,3058,3080,3100,3118,3138,3159,3180,3200,3219,3238,3259,3279,3299,3318,3339,3358,3379,3399,3419,3439,3459,3479,3499,3518,3539,3559,3580,3599,3619,3638,3660,3678,3699,3719,3738,3760,3780,3799,3819,3840,3860,3878,3899,3918,3940,3959,3978,3999,4019,4039,4059,4079,4098,4119,4139,4159,4179,4198,4219,4238,4260,4279,4299,4318,4340,4358,4378,4399,4418,4439,4460,4479,4500,4519,4538,4558,4578,4600,4619,4638,4658,4680,4699,4718,4738,4760,4779,4799,4819,4840,4858,4879,4899,4919,4940,4958,4978,4998,5019,5038,5058,5078,5099,5120,5138,5158,5179,5200,5220,5239,5258,5280,5298,5318,5338,5358,5378,5399,5419,5439,5458,5478,5498,5519,5540,5560,5580,5600,5619,5639,5658,5679,5698,5720,5739,5758,5778,5799,5818,5838,5859,5879,5899,5920,5938,5959,5978,6000,6018,6039,6059,6078,6099,6119,6139,6158,6178,6199,6219,6240,6258,6279,6298,6319,6338,6358,6379,6399,6418,6438,6458,6479,6498,6518,6538,6559,6579,6599,6618,6638,6659,6679,6700,6719,6738,6760,6779,6798,6819,6840,6859,6879,6900,6918,6939,6958,6978,6998,7020,7040,7059,7079,7100,7119,7139,7159,7179,7199,7220,7238,7259,7279,7300,7319,7339,7358,7378,7399,7419,7438,7458,7480,7498,7518,7539,7559,7579,7598,7618,7640,7660,7679,7699,7719,7738,7759,7778,7799,7818,7839,7860,7880,7899,7918,7939,7959,7978,7999,8019,8040,8059,8079,8099,8120,8140,8159,8179,8199,8218,8239,8260,8278,8299,8318,8340,8359,8378,8399,8419,8439,8459,8479,8499,8518,8539,8558,8578,8598,8619,8638,8660,8679,8699,8719,8738,8759,8779,8798,8818,8840,8858,8879,8900,8919,8939,8959,8979,8998,9018,9039,9060,9079,9099,9119,9139,9159,9179,9198,9219,9239,9258,9279,9298,9318,9340,9359,9378,9399,9420,9438,9458,9479,9498,9518,9538,9559,9580,9598,9620,9638,9658,9678,9700,9719,9740,9760,9779,9800,9818,9839,9858,9879,9898,9920,9939,9960,9979,10000,10019,10038,10058,10079,10098,10118,10140,10158,10180,10199,10218,10238,10259,10278,10299,10320,10339,10358,10379,10398,10419,10440,10458,10479,10499,10519,10539,10559,10580,10599,10618,10640,10659,10679,10699,10720,10739,10759,10778,10799,10820,10838,10859,10879,10898,10918,10938,10958,10980,10998,11018,11038,11059,11078,11099,11119,11140,11159,11179,11199,11218,11239,11259,11278,11298,11318,11339,11358,11378,11400,11419,11439,11459,11480,11499,11519,11539,11560,11580,11598,11619,11639,11659,11680,11698,11719,11739,11760,11779,11798,11819,11839,11858,11879,11899,11919,11939,11958,11980,11998,12018,12039,12059,12079,12099,12120,12138,12158,12180,12198,12219,12239,12260,12278,12299,12320,12339,12359,12378,12398,12419,12438,12458,12479,12500,12519,12538,12558,12579,12598,12618,12638,12659,12679,12699,12720,12739,12759,12780,12799,12820,12838,12859,12879,12900,12919,12939,12959,12978,12999,13018,13039,13059,13080,13100,13119,13139,13159,13179,13199,13219,13238,13259,13279,13298,13319,13338,13360,13378,13398,13419,13438,13458,13480,13499,13518,13538,13558,13580,13600,13618,13638,13659,13678,13698,13720,13739,13759,13778,13798,13819,13839,13858,13880,13898,13919,13939,13960,13978,13999,14019,14039,14059,14080,14099,14118,14139,14160,14179,14199,14219,14238,14259,14280,14299,14318,14339,14360,14379,14399,14419,14440,14459,14478,14499,14518,14539,14559,14579,14598,14619,14639,14659,14679,14698,14718,14738,14759,14779,14798,14819,14839,14859,14879,14899,14919,14939,14959,14979,14998,15020,15040,15059,15078,15099],"xSR":741.5,"ySR":469.95,"xT1":424.9,"yT1":0,"xT2":1058.1,"yT2":0,"toosoon":0,"cond_shown":"Incongruent","ratio_trial":300,"L_num":13,"L_den":26,"R_num":12,"R_den":15,"correct_side":2,"subjID":"Juan Felipe Amaya Gomez","gender":"0","school":"4","age":"9"},{"start_time":1552073803427,"click_time":1552073804827,"finger_time":1552073804466,"fix_duration":898.94824969157,"trial":10,"RT":1039,"MT":361,"sideResp":1,"stimulus":[],"xmouse":[767,767,767,767,767,767,767,767,767,767,767,767,767,767,767,767,767,767,767,767,767,767,767,767,769,769,769,769,769,769,769,769,769,769,769,769,769,769,769,769,769,769,769,769,769,769,769,767,765,762,760,746,733,717,691,633,616,596,585,575,567,548,538,528,519,515,503,500,491,480,464],"ymouse":[521,521,521,521,521,521,521,521,521,521,521,521,521,521,521,521,521,521,521,521,521,521,521,521,519,519,519,519,519,519,519,519,519,519,519,519,519,519,519,519,519,519,519,519,519,518,515,513,511,507,504,488,474,458,435,387,371,347,335,322,314,301,293,284,276,268,225,196,161,110,56],"timestamp_mouse":[1,35,40,59,79,100,120,140,160,179,200,221,239,259,279,300,319,339,359,379,401,419,439,459,480,499,520,540,560,580,599,620,641,660,680,700,719,739,760,779,799,821,840,859,880,901,920,939,959,979,999,1021,1039,1061,1080,1102,1119,1140,1160,1181,1200,1219,1240,1259,1280,1299,1319,1340,1360,1381,1400],"xSR":741.5,"ySR":469.95,"xT1":424.9,"yT1":0,"xT2":1058.1,"yT2":0,"toosoon":0,"cond_shown":"Incongruent","ratio_trial":300,"L_num":3,"L_den":6,"R_num":4,"R_den":20,"correct_side":1,"subjID":"Juan Felipe Amaya Gomez","gender":"0","school":"4","age":"9"},{"start_time":1552073831549,"click_time":1552073833566,"finger_time":1552073833206,"fix_duration":1360.7004005128822,"trial":11,"RT":1657,"MT":360,"sideResp":2,"stimulus":[],"xmouse":[776,776,777,778,778,778,778,778,778,778,778,778,778,778,778,778,778,778,778,778,778,778,778,778,778,778,778,778,778,778,778,778,778,778,778,778,778,778,778,778,778,778,778,778,778,778,778,778,778,778,778,778,778,778,778,778,778,778,778,778,778,778,778,778,778,778,778,778,778,778,778,778,778,778,778,778,777,777,776,776,776,776,787,793,799,803,809,844,862,880,894,908,921,946,954,963,974,1012,1028,1045,1062],"ymouse":[516,516,517,517,517,517,517,517,517,517,517,517,517,517,517,517,517,517,517,517,517,517,517,517,517,517,517,517,517,517,517,517,517,517,517,518,518,518,518,518,518,518,518,518,518,518,518,518,518,518,518,518,518,518,518,518,518,518,518,518,518,518,518,518,518,518,518,518,518,518,518,518,518,518,518,518,518,518,517,513,507,499,461,438,418,395,367,254,223,191,165,142,123,90,82,73,63,36,25,20,16],"timestamp_mouse":[18,42,58,78,97,117,139,158,179,198,219,238,258,277,299,318,337,358,377,398,417,438,458,477,497,518,537,558,577,599,618,637,658,677,697,718,738,758,777,798,817,837,859,877,899,917,938,959,977,998,1018,1037,1058,1079,1099,1117,1137,1158,1178,1197,1217,1238,1258,1278,1297,1318,1339,1359,1377,1398,1417,1438,1457,1477,1498,1519,1537,1557,1578,1598,1618,1638,1657,1677,1699,1718,1737,1757,1779,1798,1818,1839,1857,1879,1898,1919,1938,1957,1979,1999,2017],"xSR":741.5,"ySR":469.95,"xT1":424.9,"yT1":0,"xT2":1058.1,"yT2":0,"toosoon":0,"cond_shown":"Congruent","ratio_trial":100,"L_num":10,"L_den":25,"R_num":3,"R_den":10,"correct_side":1,"subjID":"Juan Felipe Amaya Gomez","gender":"0","school":"4","age":"9"},{"start_time":1552073835520,"click_time":1552073837627,"finger_time":1552073837207,"fix_duration":250,"trial":12,"RT":1687,"MT":420,"sideResp":1,"stimulus":[],"xmouse":[785,785,784,784,784,784,784,784,784,784,784,784,784,784,784,784,784,784,784,784,784,784,784,784,784,784,784,784,784,784,784,784,784,784,784,784,784,784,784,784,784,784,784,784,784,784,784,784,784,784,784,784,784,784,784,784,784,784,784,784,784,784,784,784,784,784,784,784,784,784,784,784,784,784,784,784,784,784,784,784,784,783,781,776,748,691,671,599,557,538,538,538,537,536,534,534,534,532,532,530,526,524,520,514,504,498],"ymouse":[502,502,502,503,504,504,504,504,504,504,506,507,508,509,511,511,511,511,511,511,511,511,511,511,511,511,511,511,511,511,511,511,511,511,511,511,511,511,511,511,511,511,511,511,511,511,511,511,511,511,511,511,511,511,511,511,511,511,511,511,511,511,511,511,511,511,511,511,511,511,511,511,511,511,511,511,511,511,511,511,511,508,503,492,442,380,363,318,297,281,278,276,272,268,260,255,252,245,237,228,200,184,167,148,109,93],"timestamp_mouse":[12,32,46,67,87,107,127,147,167,186,208,226,248,267,286,306,326,346,366,387,407,428,447,466,487,506,527,547,567,587,607,626,647,666,686,707,726,747,768,786,806,828,847,867,887,908,927,947,966,987,1007,1026,1047,1067,1087,1108,1127,1146,1166,1187,1206,1227,1247,1266,1287,1308,1328,1347,1366,1387,1406,1426,1446,1467,1487,1507,1528,1546,1566,1587,1607,1626,1647,1667,1687,1706,1726,1746,1766,1788,1806,1826,1846,1867,1888,1906,1927,1947,1967,1987,2007,2027,2048,2067,2089,2106],"xSR":741.5,"ySR":469.95,"xT1":424.9,"yT1":0,"xT2":1058.1,"yT2":0,"toosoon":0,"cond_shown":"Congruent","ratio_trial":300,"L_num":18,"L_den":20,"R_num":9,"R_den":15,"correct_side":1,"subjID":"Juan Felipe Amaya Gomez","gender":"0","school":"4","age":"9"},{"start_time":1552073841199,"click_time":1552073847709,"finger_time":1552073847408,"fix_duration":250,"trial":13,"RT":6209,"MT":301,"sideResp":1,"stimulus":[],"xmouse":[799,799,799,799,799,799,799,799,799,799,799,799,799,799,799,799,799,799,799,799,799,799,799,799,799,799,799,799,799,799,799,799,799,799,799,799,799,799,799,799,799,799,799,799,799,799,799,799,799,799,799,799,799,799,799,799,799,799,799,799,799,799,799,799,799,799,799,799,799,799,799,799,799,799,799,799,799,799,799,799,799,799,799,799,799,799,799,799,799,799,799,799,799,799,799,799,799,799,799,799,799,799,799,799,799,799,799,799,799,799,799,799,799,799,799,799,799,799,799,799,799,799,799,799,799,799,799,799,799,799,799,799,799,799,799,799,799,799,799,799,799,799,799,799,799,799,799,799,799,799,799,799,799,799,799,799,799,799,799,799,799,799,799,799,799,799,799,799,799,799,799,799,799,799,799,799,799,799,799,799,799,799,799,799,799,799,799,799,799,799,799,799,799,799,799,799,799,799,799,799,799,799,799,799,799,799,799,799,799,799,799,799,799,799,799,798,797,797,797,797,797,797,797,797,797,797,797,797,797,797,797,797,797,797,797,797,797,797,797,797,797,797,797,797,797,792,788,782,780,777,777,777,777,777,777,777,777,777,777,777,777,777,777,777,777,777,777,779,779,779,779,779,779,779,779,780,781,783,784,784,784,784,784,784,784,784,784,784,784,784,784,784,784,784,784,784,784,784,784,784,784,784,784,784,784,784,783,773,765,757,750,737,731,723,714,704,681,667,640,622,607,569,553,540,529,524],"ymouse":[530,530,530,530,530,530,530,530,530,530,530,530,530,530,530,530,530,530,530,530,530,530,530,530,530,530,530,530,530,530,530,530,530,530,530,530,530,530,530,530,530,530,530,530,530,530,530,530,530,530,530,530,530,530,530,530,530,530,530,530,530,530,530,530,530,530,530,530,530,530,530,530,530,530,530,530,530,530,530,530,530,530,530,530,530,530,530,530,530,530,530,530,530,530,530,530,530,530,530,530,530,530,530,530,530,530,530,530,530,530,530,530,530,530,530,530,530,530,530,530,530,530,530,530,530,530,530,530,530,530,530,530,530,530,530,530,530,530,530,530,530,530,530,530,530,530,530,530,530,530,530,530,530,530,530,530,530,530,530,530,530,530,530,530,530,530,530,530,530,530,530,530,530,530,530,530,530,530,530,530,530,530,530,530,530,530,530,530,530,530,530,530,530,530,530,530,530,530,530,530,530,530,530,530,530,530,530,530,530,530,530,530,530,530,530,531,531,531,531,531,531,531,531,531,531,531,531,531,531,531,531,531,531,531,531,531,531,531,531,531,531,531,531,531,531,528,526,522,521,519,519,519,519,519,519,518,518,518,518,518,518,518,518,518,518,518,517,516,516,516,516,516,516,516,515,514,514,513,512,512,512,512,512,512,512,512,512,512,512,512,512,512,512,512,512,512,512,512,512,512,512,512,512,512,512,510,506,492,483,472,461,440,429,416,403,386,346,319,265,226,189,103,67,39,18,8],"timestamp_mouse":[10,28,55,68,87,107,127,147,167,188,208,227,247,268,288,307,327,349,369,387,408,427,447,468,489,509,528,548,567,587,607,628,647,668,687,708,729,747,768,787,808,827,847,867,887,908,929,948,967,987,1008,1029,1048,1068,1088,1108,1127,1149,1168,1188,1207,1229,1247,1267,1289,1308,1328,1348,1367,1389,1407,1427,1447,1469,1487,1508,1528,1549,1568,1589,1608,1628,1649,1668,1688,1709,1728,1748,1768,1789,1809,1829,1848,1868,1888,1909,1929,1948,1968,1988,2008,2028,2048,2069,2088,2109,2128,2148,2169,2188,2209,2229,2248,2268,2289,2308,2329,2348,2369,2388,2408,2429,2449,2468,2489,2508,2528,2549,2569,2589,2608,2628,2648,2669,2688,2708,2728,2748,2768,2788,2808,2828,2849,2869,2888,2908,2928,2948,2969,2988,3008,3028,3048,3069,3088,3109,3128,3148,3169,3189,3208,3229,3249,3269,3289,3309,3328,3348,3369,3388,3408,3428,3448,3469,3489,3508,3528,3549,3568,3588,3609,3628,3649,3668,3689,3709,3728,3748,3769,3788,3808,3828,3849,3869,3888,3908,3928,3949,3968,3989,4009,4029,4048,4069,4089,4109,4127,4149,4168,4189,4209,4228,4249,4269,4288,4308,4328,4349,4368,4388,4409,4428,4448,4469,4488,4509,4528,4548,4569,4588,4608,4629,4649,4668,4688,4709,4728,4749,4768,4788,4809,4829,4848,4869,4889,4909,4928,4949,4969,4988,5008,5028,5049,5069,5089,5109,5128,5149,5169,5188,5208,5229,5248,5269,5288,5307,5328,5349,5369,5388,5409,5429,5449,5468,5488,5508,5528,5548,5569,5589,5609,5628,5649,5669,5688,5709,5729,5749,5768,5788,5808,5829,5848,5869,5889,5909,5928,5948,5969,5988,6008,6029,6049,6068,6089,6108,6129,6152,6169,6189,6209,6229,6248,6268,6289,6308,6330,6348,6368,6388,6409,6429,6448,6468,6489,6509],"xSR":741.5,"ySR":469.95,"xT1":424.9,"yT1":0,"xT2":1058.1,"yT2":0,"toosoon":0,"cond_shown":"Congruent","ratio_trial":200,"L_num":6,"L_den":20,"R_num":11,"R_den":22,"correct_side":2,"subjID":"Juan Felipe Amaya Gomez","gender":"0","school":"4","age":"9"},{"start_time":1552073849599,"click_time":1552073850908,"finger_time":1552073850147,"fix_duration":250,"trial":14,"RT":548,"MT":761,"sideResp":2,"stimulus":[],"xmouse":[790,790,790,790,790,790,790,790,790,790,790,790,790,790,790,790,790,790,790,790,790,790,790,792,793,798,800,818,828,837,846,859,887,903,921,938,957,998,1014,1025,1030,1032,1032,1033,1037,1039,1039,1039,1039,1039,1039,1039,1039,1039,1039,1037,1037,1036,1036,1036,1036,1036,1039,1050,1058,1065],"ymouse":[517,517,517,517,517,517,517,517,517,517,517,517,517,517,517,517,517,517,517,517,517,517,517,517,515,507,502,467,446,427,405,382,336,313,285,251,212,125,96,77,67,65,65,73,78,82,82,82,82,82,82,82,85,88,90,93,95,97,98,98,99,99,99,90,84,78],"timestamp_mouse":[9,28,57,69,88,108,129,148,168,189,208,228,248,269,289,308,329,349,369,388,408,429,448,468,489,509,529,548,568,588,608,628,648,669,689,708,729,749,769,788,809,828,848,868,888,909,929,948,968,988,1009,1029,1048,1068,1089,1109,1128,1148,1168,1189,1209,1228,1248,1269,1289,1309],"xSR":741.5,"ySR":469.95,"xT1":424.9,"yT1":0,"xT2":1058.1,"yT2":0,"toosoon":0,"cond_shown":"Congruent","ratio_trial":300,"L_num":3,"L_den":12,"R_num":11,"R_den":20,"correct_side":2,"subjID":"Juan Felipe Amaya Gomez","gender":"0","school":"4","age":"9"},{"start_time":1552073852318,"click_time":1552073855727,"finger_time":1552073853947,"fix_duration":250,"trial":15,"RT":1629,"MT":1780,"sideResp":2,"stimulus":[],"xmouse":[793,793,793,793,793,793,793,793,793,793,793,793,793,793,793,793,793,793,793,793,793,793,793,793,793,793,793,793,793,793,793,793,793,793,793,793,793,793,793,793,793,793,793,793,793,793,793,793,793,793,793,793,793,793,793,793,793,793,793,793,793,793,793,793,793,793,793,793,793,793,793,793,793,793,793,794,799,803,806,811,814,818,821,823,826,829,839,852,859,884,901,918,941,950,954,957,967,980,989,996,1005,1017,1023,1028,1034,1041,1045,1045,1045,1045,1045,1045,1045,1045,1045,1045,1045,1045,1045,1045,1045,1045,1045,1045,1045,1045,1045,1045,1045,1045,1045,1045,1045,1045,1046,1048,1053,1053,1055,1056,1056,1056,1056,1056,1056,1056,1056,1056,1056,1056,1056,1056,1056,1056,1056,1056,1056,1056,1056,1056,1056,1056,1056,1056,1056,1056,1056,1056,1056,1056,1060],"ymouse":[527,527,527,527,527,527,527,527,527,527,527,527,527,527,527,527,527,527,527,527,527,527,527,527,527,527,527,527,527,527,527,527,527,527,527,527,527,527,527,527,527,527,527,527,527,527,527,527,527,527,527,527,527,527,527,527,527,527,527,527,527,527,527,527,527,527,527,527,527,527,527,527,527,527,527,522,513,502,497,486,477,461,452,446,437,428,393,365,354,309,271,231,176,159,148,144,137,134,130,125,118,107,100,93,87,80,74,72,72,72,72,72,72,72,72,72,72,72,72,72,72,72,72,72,72,72,72,72,72,72,72,72,72,72,72,72,72,72,71,71,71,71,71,71,71,71,71,71,71,71,71,71,71,71,71,71,71,71,71,71,71,71,71,71,71,71,71,71,71,70,69],"timestamp_mouse":[10,34,49,70,90,111,129,149,170,189,209,229,249,270,290,309,330,350,370,390,409,430,450,470,490,510,529,550,569,590,609,630,649,669,689,710,729,749,770,790,810,829,849,869,890,909,929,949,969,990,1009,1029,1049,1070,1089,1109,1129,1149,1169,1190,1210,1229,1250,1270,1289,1309,1329,1349,1369,1390,1409,1429,1450,1470,1489,1510,1529,1550,1570,1589,1610,1629,1650,1670,1690,1709,1730,1749,1769,1789,1810,1830,1849,1869,1890,1909,1930,1949,1969,1989,2009,2030,2048,2069,2089,2109,2131,2149,2169,2189,2209,2229,2249,2269,2289,2310,2330,2348,2370,2389,2409,2430,2449,2470,2489,2510,2529,2549,2568,2590,2610,2630,2649,2669,2689,2709,2730,2750,2769,2789,2809,2830,2849,2870,2890,2910,2930,2950,2969,2989,3009,3029,3049,3069,3090,3110,3129,3149,3170,3190,3209,3230,3250,3269,3289,3309,3330,3350,3369,3390,3409],"xSR":741.5,"ySR":469.95,"xT1":424.9,"yT1":0,"xT2":1058.1,"yT2":0,"toosoon":0,"cond_shown":"Congruent","ratio_trial":200,"L_num":5,"L_den":10,"R_num":14,"R_den":20,"correct_side":2,"subjID":"Juan Felipe Amaya Gomez","gender":"0","school":"4","age":"9"},{"start_time":1552073889458,"click_time":1552073891328,"finger_time":1552073890528,"fix_duration":250,"trial":16,"RT":1070,"MT":800,"sideResp":1,"stimulus":[],"xmouse":[774,774,774,774,774,774,777,778,779,779,779,779,779,779,779,779,779,779,779,779,779,779,779,779,779,779,779,779,779,779,779,779,779,779,779,779,779,779,779,779,779,779,779,779,779,779,779,779,779,777,772,765,758,748,738,731,723,715,708,691,686,682,678,668,659,651,645,637,625,620,618,617,615,614,608,600,591,581,573,562,559,555,552,549,545,544,543,543,540,537,536,533,529,524],"ymouse":[520,520,520,520,520,520,520,520,520,520,520,520,520,520,520,520,520,520,520,520,520,520,520,520,520,520,520,520,520,520,520,520,520,520,520,520,520,520,520,520,520,520,520,520,520,520,520,520,514,509,503,494,484,467,449,436,424,411,398,372,365,360,355,340,327,316,306,295,280,274,270,267,262,248,228,211,193,176,161,139,131,122,117,110,102,101,101,101,99,99,98,96,94,92],"timestamp_mouse":[10,35,49,70,89,110,130,150,169,190,210,230,249,269,289,310,329,350,370,390,410,430,449,470,490,510,530,550,570,590,610,629,649,669,689,710,729,750,768,790,809,830,849,869,888,909,930,950,970,990,1009,1029,1050,1070,1089,1109,1129,1150,1169,1190,1210,1230,1249,1271,1289,1309,1329,1349,1371,1388,1409,1430,1450,1470,1489,1510,1529,1549,1569,1589,1610,1630,1650,1669,1689,1709,1730,1749,1769,1790,1809,1829,1849,1869],"xSR":741.5,"ySR":469.95,"xT1":424.9,"yT1":0,"xT2":1058.1,"yT2":0,"toosoon":0,"cond_shown":"Congruent","ratio_trial":300,"L_num":11,"L_den":22,"R_num":1,"R_den":5,"correct_side":1,"subjID":"Juan Felipe Amaya Gomez","gender":"0","school":"4","age":"9"},{"start_time":1552073893161,"click_time":1552073895687,"finger_time":1552073894747,"fix_duration":250,"trial":17,"RT":1586,"MT":940,"sideResp":1,"stimulus":[],"xmouse":[798,798,798,797,796,795,795,795,795,795,795,795,795,795,795,795,795,795,795,795,795,795,795,795,795,795,795,795,795,795,795,795,795,795,795,795,795,795,795,795,795,795,795,795,795,795,795,795,795,795,795,795,795,795,795,795,795,795,795,795,795,795,795,795,795,795,795,795,795,795,795,795,795,795,795,793,789,783,775,763,757,752,746,741,728,721,713,707,695,678,672,666,664,662,659,657,656,656,656,652,650,645,639,633,617,611,604,597,593,584,578,573,570,567,563,561,559,557,555,551,542,535,530,528,527,524,511],"ymouse":[521,520,520,519,518,518,517,517,517,517,517,517,517,517,517,517,517,517,517,517,517,517,517,517,517,517,517,517,517,517,517,517,517,517,517,517,517,517,517,517,517,517,517,517,517,517,517,517,517,517,517,517,517,517,517,517,517,517,517,517,517,517,517,517,517,517,517,517,517,517,517,517,517,517,512,507,498,489,477,465,458,450,441,432,403,387,372,357,333,302,287,272,257,243,221,215,210,206,202,196,192,189,184,180,175,174,171,167,164,154,147,138,131,126,118,116,113,110,106,104,104,103,102,101,101,100,99],"timestamp_mouse":[13,39,46,66,86,107,126,146,166,186,206,226,246,267,286,306,327,347,366,387,406,427,447,466,486,506,526,547,567,587,606,626,646,666,686,707,726,746,766,787,806,827,847,866,886,906,926,945,966,987,1006,1026,1046,1067,1087,1106,1126,1146,1166,1187,1206,1226,1246,1266,1287,1306,1326,1345,1367,1386,1406,1427,1447,1466,1486,1506,1526,1546,1567,1586,1606,1626,1647,1666,1686,1706,1727,1747,1767,1786,1806,1826,1847,1867,1886,1906,1926,1946,1966,1986,2006,2026,2046,2066,2086,2107,2126,2146,2167,2186,2207,2227,2247,2266,2286,2307,2326,2346,2366,2386,2406,2426,2446,2467,2486,2506,2526],"xSR":741.5,"ySR":469.95,"xT1":424.9,"yT1":0,"xT2":1058.1,"yT2":0,"toosoon":0,"cond_shown":"Incongruent","ratio_trial":200,"L_num":7,"L_den":10,"R_num":12,"R_den":24,"correct_side":1,"subjID":"Juan Felipe Amaya Gomez","gender":"0","school":"4","age":"9"},{"start_time":1552073897740,"click_time":1552073936689,"finger_time":1552073935848,"fix_duration":630.7205618616022,"trial":18,"RT":38108,"MT":841,"sideResp":1,"stimulus":[],"xmouse":[784,784,784,784,784,784,784,784,784,784,784,784,784,784,784,784,784,784,784,784,784,784,784,784,784,784,784,784,784,784,784,784,784,784,784,784,784,784,784,784,784,784,784,784,784,784,784,784,784,784,784,784,784,784,784,784,784,784,784,784,784,784,784,784,784,784,784,784,784,784,784,784,784,784,784,784,784,784,784,784,784,784,784,784,784,784,784,784,784,784,784,784,784,784,784,784,784,784,784,784,784,784,784,784,784,784,784,784,784,784,784,784,784,784,784,784,784,784,784,784,784,784,784,784,784,784,784,784,784,784,784,784,784,784,784,784,784,784,784,784,784,784,784,784,784,784,784,784,784,784,784,784,784,784,784,784,784,784,784,784,784,784,784,784,784,784,784,784,784,784,784,784,784,784,784,784,784,784,784,784,784,784,784,784,784,784,784,784,784,784,784,784,784,784,784,784,784,784,784,784,784,784,784,784,784,784,784,784,784,784,784,784,784,784,784,784,784,784,784,784,784,784,784,784,784,784,784,784,784,784,784,784,784,784,784,784,784,784,784,784,784,784,784,784,784,784,784,784,784,784,784,784,784,784,784,784,784,784,784,784,784,784,784,784,784,784,784,784,784,784,784,784,784,784,784,784,784,784,784,784,784,784,784,784,784,784,784,784,784,784,784,784,784,784,784,784,784,784,784,784,784,784,784,784,784,784,784,784,784,784,784,784,784,784,784,784,784,784,784,784,784,784,784,784,784,784,784,784,784,784,784,784,784,784,784,784,784,784,784,784,784,784,784,784,784,784,784,784,784,784,784,784,784,784,784,784,784,784,784,784,784,784,784,784,784,784,784,784,784,784,784,784,784,784,784,784,784,784,784,784,784,784,784,784,784,784,784,784,784,784,784,784,784,784,784,784,784,784,784,784,784,784,784,784,784,784,784,784,784,784,784,784,784,784,784,784,784,784,784,784,784,784,784,784,784,784,784,784,784,784,784,784,784,784,784,784,784,784,784,784,784,784,784,784,784,784,784,784,784,784,784,784,784,784,784,784,784,784,784,784,784,784,784,784,784,784,784,784,784,784,784,784,784,784,784,784,784,784,784,784,784,784,784,784,784,784,784,784,784,784,784,784,784,784,784,784,784,784,784,784,784,784,784,784,784,784,784,784,784,784,784,784,784,784,784,784,784,784,784,784,784,784,784,784,784,784,784,784,784,784,784,784,784,784,784,784,784,784,784,784,784,784,784,784,784,784,784,784,784,784,784,784,784,784,784,784,784,784,784,784,784,784,784,784,784,784,784,784,784,784,784,784,784,784,784,784,784,784,784,784,784,784,784,784,784,784,784,784,784,784,784,784,784,784,784,784,784,784,784,784,784,784,784,784,784,784,784,784,784,784,784,784,784,784,784,784,784,784,784,784,784,784,784,784,784,784,784,784,784,784,784,784,784,784,784,784,784,784,784,784,784,784,784,784,784,784,784,784,784,784,784,784,784,784,784,784,784,784,784,784,784,784,784,784,784,784,784,784,784,784,784,784,784,784,784,784,784,784,784,784,784,784,784,784,784,784,784,784,784,784,784,784,784,784,784,784,784,784,784,784,784,784,784,784,784,784,784,784,784,784,784,784,784,784,784,784,784,784,784,784,784,784,784,784,784,784,784,784,784,784,784,784,784,784,784,784,784,784,784,784,784,784,784,784,784,784,784,784,784,784,784,784,784,784,784,784,784,784,784,784,784,784,784,784,784,784,784,784,784,784,784,784,784,784,784,784,784,784,784,784,784,784,784,784,784,784,784,784,784,784,784,784,784,784,784,784,784,784,784,784,784,784,784,784,784,784,784,784,784,784,784,784,784,784,784,784,784,784,784,784,784,784,784,784,784,784,784,784,784,784,784,784,784,784,784,784,784,784,784,784,784,784,784,784,784,784,784,784,784,784,784,784,784,784,784,784,784,784,784,784,784,784,784,784,784,784,784,784,784,784,784,784,784,784,784,784,784,784,784,784,784,784,784,784,784,784,784,784,784,784,784,784,784,784,784,784,784,784,784,784,784,784,784,784,784,784,784,784,784,784,784,784,784,784,784,784,784,784,784,784,784,784,784,784,784,784,784,784,784,784,784,784,784,784,784,784,784,784,784,784,784,784,784,784,784,784,784,784,784,784,784,784,784,784,784,784,784,784,784,784,784,784,784,784,784,784,784,784,784,784,784,784,784,784,784,784,784,784,784,784,784,784,784,784,784,784,784,784,784,784,784,784,784,784,784,784,784,784,784,784,784,784,784,784,784,784,784,784,784,784,784,784,784,784,784,784,784,784,784,784,784,784,784,784,784,784,784,784,784,784,784,784,784,784,784,784,784,784,784,784,784,784,784,784,784,784,784,784,784,784,784,784,784,784,784,784,784,784,784,784,784,784,784,784,784,784,784,784,784,784,784,784,784,784,784,784,784,784,784,784,784,784,784,784,784,784,784,784,784,784,784,784,784,784,784,784,784,784,784,784,784,784,784,784,784,784,784,784,784,784,784,784,784,784,784,784,784,784,784,784,784,784,784,784,784,784,784,784,784,784,784,784,784,784,784,784,784,784,784,784,784,784,784,784,784,784,784,784,784,784,784,784,784,784,784,784,784,784,784,784,784,784,784,784,784,784,784,784,784,784,784,784,784,784,784,784,784,784,784,784,784,784,784,784,784,784,784,784,784,784,784,784,784,784,784,784,784,784,784,784,784,784,784,784,784,784,784,784,784,784,784,784,784,784,784,784,784,784,784,784,784,784,784,784,784,784,784,784,784,784,784,784,784,784,784,784,784,784,784,784,784,784,784,784,784,784,784,784,784,784,784,784,784,784,784,784,784,784,784,784,784,784,784,784,784,784,784,784,784,784,784,784,784,784,784,784,784,784,784,784,784,784,784,784,784,784,784,784,784,784,784,784,784,784,784,784,784,784,784,784,784,784,784,784,784,784,784,784,784,784,784,784,784,784,784,784,784,784,784,784,784,784,784,784,784,784,784,784,784,784,784,784,784,784,784,784,784,784,784,784,784,784,784,784,784,784,784,784,784,784,784,784,784,784,784,784,784,784,784,784,784,784,784,784,784,784,784,784,784,784,784,784,784,784,784,784,784,784,784,784,784,784,784,784,784,784,784,784,784,784,784,784,784,784,784,784,784,784,784,784,784,784,784,784,784,784,784,784,784,784,784,784,784,784,784,784,784,784,784,784,784,784,784,784,784,784,784,784,784,784,784,784,784,784,784,784,784,784,784,784,784,784,784,784,784,784,784,784,784,784,784,784,784,784,784,784,784,784,784,784,784,784,784,784,784,784,784,784,784,784,784,784,784,784,784,784,784,784,784,784,784,784,784,784,784,784,784,784,784,784,784,784,784,784,784,784,784,784,784,784,784,784,784,784,784,784,784,784,784,784,784,784,784,784,784,784,784,784,784,784,784,784,784,784,784,784,784,784,784,784,784,784,784,784,784,784,784,784,784,784,784,784,784,784,784,784,784,784,784,784,784,784,784,784,784,784,784,784,784,784,784,784,784,784,784,784,784,784,784,784,784,784,784,784,784,784,784,784,784,784,784,784,784,784,784,784,784,784,784,784,784,784,784,784,784,784,784,784,784,784,784,784,784,784,784,784,784,784,784,784,784,784,784,784,784,784,784,784,784,784,784,784,784,784,784,784,784,784,784,784,784,784,784,784,784,784,784,784,784,784,784,784,784,784,784,784,784,784,784,784,784,784,784,784,784,784,784,784,784,784,784,784,784,784,784,784,784,784,784,784,784,784,784,784,784,784,784,784,784,784,784,784,784,784,784,784,784,784,784,784,784,784,784,784,784,784,784,784,784,784,784,784,784,784,784,784,784,784,784,784,784,784,784,784,784,784,784,784,784,784,784,784,784,784,784,784,784,784,784,784,784,784,784,784,784,784,784,784,784,784,784,784,784,784,784,784,784,784,784,784,784,784,784,784,784,784,784,784,784,784,784,784,784,784,784,784,784,784,784,784,784,784,784,784,784,784,784,784,784,784,784,784,784,784,784,784,784,784,784,784,784,784,784,784,784,784,784,784,784,784,784,784,784,784,784,784,784,784,784,784,784,784,784,784,784,784,784,784,784,784,784,784,784,784,784,784,784,784,784,784,784,784,784,784,784,784,784,784,784,784,784,784,784,784,784,784,784,784,784,784,784,784,784,784,784,784,784,784,784,784,784,784,784,784,784,784,784,784,784,784,784,784,784,784,784,784,784,784,784,784,784,784,784,784,784,784,784,784,784,784,784,784,784,784,784,784,784,784,784,784,784,784,784,786,788,792,792,792,788,778,769,761,749,737,724,708,706,706,706,708,712,712,712,708,700,684,677,667,657,638,628,628,628,628,628,623,621,618,612,602,597,593,589,585,574,540,528,521],"ymouse":[519,519,519,519,519,519,519,519,519,519,519,519,519,519,519,519,519,519,519,519,519,519,519,519,519,519,519,519,519,519,519,519,519,519,519,519,519,519,519,519,519,519,519,519,519,519,519,519,519,519,519,519,519,519,519,519,519,519,519,519,519,519,519,519,519,519,519,519,519,519,519,519,519,519,519,519,519,519,519,519,519,519,519,519,519,519,519,519,519,519,519,519,519,519,519,519,519,519,519,519,519,519,519,519,519,519,519,519,519,519,519,519,519,519,519,519,519,519,519,519,519,519,519,519,519,519,519,519,519,519,519,519,519,519,519,519,519,519,519,519,519,519,519,519,519,519,519,519,519,519,519,519,519,519,519,519,519,519,519,519,519,519,519,519,519,519,519,519,519,519,519,519,519,519,519,519,519,519,519,519,519,519,519,519,519,519,519,519,519,519,519,519,519,519,519,519,519,519,519,519,519,519,519,519,519,519,519,519,519,519,519,519,519,519,519,519,519,519,519,519,519,519,519,519,519,519,519,519,519,519,519,519,519,519,519,519,519,519,519,519,519,519,519,519,519,519,519,519,519,519,519,519,519,519,519,519,519,519,519,519,519,519,519,519,519,519,519,519,519,519,519,519,519,519,519,519,519,519,519,519,519,519,519,519,519,519,519,519,519,519,519,519,519,519,519,519,519,519,519,519,519,519,519,519,519,519,519,519,519,519,519,519,519,519,519,519,519,519,519,519,519,519,519,519,519,519,519,519,519,519,519,519,519,519,519,519,519,519,519,519,519,519,519,519,519,519,519,519,519,519,519,519,519,519,519,519,519,519,519,519,519,519,519,519,519,519,519,519,519,519,519,519,519,519,519,519,519,519,519,519,519,519,519,519,519,519,519,519,519,519,519,519,519,519,519,519,519,519,519,519,519,519,519,519,519,519,519,519,519,519,519,519,519,519,519,519,519,519,519,519,519,519,519,519,519,519,519,519,519,519,519,519,519,519,519,519,519,519,519,519,519,519,519,519,519,519,519,519,519,519,519,519,519,519,519,519,519,519,519,519,519,519,519,519,519,519,519,519,519,519,519,519,519,519,519,519,519,519,519,519,519,519,519,519,519,519,519,519,519,519,519,519,519,519,519,519,519,519,519,519,519,519,519,519,519,519,519,519,519,519,519,519,519,519,519,519,519,519,519,519,519,519,519,519,519,519,519,519,519,519,519,519,519,519,519,519,519,519,519,519,519,519,519,519,519,519,519,519,519,519,519,519,519,519,519,519,519,519,519,519,519,519,519,519,519,519,519,519,519,519,519,519,519,519,519,519,519,519,519,519,519,519,519,519,519,519,519,519,519,519,519,519,519,519,519,519,519,519,519,519,519,519,519,519,519,519,519,519,519,519,519,519,519,519,519,519,519,519,519,519,519,519,519,519,519,519,519,519,519,519,519,519,519,519,519,519,519,519,519,519,519,519,519,519,519,519,519,519,519,519,519,519,519,519,519,519,519,519,519,519,519,519,519,519,519,519,519,519,519,519,519,519,519,519,519,519,519,519,519,519,519,519,519,519,519,519,519,519,519,519,519,519,519,519,519,519,519,519,519,519,519,519,519,519,519,519,519,519,519,519,519,519,519,519,519,519,519,519,519,519,519,519,519,519,519,519,519,519,519,519,519,519,519,519,519,519,519,519,519,519,519,519,519,519,519,519,519,519,519,519,519,519,519,519,519,519,519,519,519,519,519,519,519,519,519,519,519,519,519,519,519,519,519,519,519,519,519,519,519,519,519,519,519,519,519,519,519,519,519,519,519,519,519,519,519,519,519,519,519,519,519,519,519,519,519,519,519,519,519,519,519,519,519,519,519,519,519,519,519,519,519,519,519,519,519,519,519,519,519,519,519,519,519,519,519,519,519,519,519,519,519,519,519,519,519,519,519,519,519,519,519,519,519,519,519,519,519,519,519,519,519,519,519,519,519,519,519,519,519,519,519,519,519,519,519,519,519,519,519,519,519,519,519,519,519,519,519,519,519,519,519,519,519,519,519,519,519,519,519,519,519,519,519,519,519,519,519,519,519,519,519,519,519,519,519,519,519,519,519,519,519,519,519,519,519,519,519,519,519,519,519,519,519,519,519,519,519,519,519,519,519,519,519,519,519,519,519,519,519,519,519,519,519,519,519,519,519,519,519,519,519,519,519,519,519,519,519,519,519,519,519,519,519,519,519,519,519,519,519,519,519,519,519,519,519,519,519,519,519,519,519,519,519,519,519,519,519,519,519,519,519,519,519,519,519,519,519,519,519,519,519,519,519,519,519,519,519,519,519,519,519,519,519,519,519,519,519,519,519,519,519,519,519,519,519,519,519,519,519,519,519,519,519,519,519,519,519,519,519,519,519,519,519,519,519,519,519,519,519,519,519,519,519,519,519,519,519,519,519,519,519,519,519,519,519,519,519,519,519,519,519,519,519,519,519,519,519,519,519,519,519,519,519,519,519,519,519,519,519,519,519,519,519,519,519,519,519,519,519,519,519,519,519,519,519,519,519,519,519,519,519,519,519,519,519,519,519,519,519,519,519,519,519,519,519,519,519,519,519,519,519,519,519,519,519,519,519,519,519,519,519,519,519,519,519,519,519,519,519,519,519,519,519,519,519,519,519,519,519,519,519,519,519,519,519,519,519,519,519,519,519,519,519,519,519,519,519,519,519,519,519,519,519,519,519,519,519,519,519,519,519,519,519,519,519,519,519,519,519,519,519,519,519,519,519,519,519,519,519,519,519,519,519,519,519,519,519,519,519,519,519,519,519,519,519,519,519,519,519,519,519,519,519,519,519,519,519,519,519,519,519,519,519,519,519,519,519,519,519,519,519,519,519,519,519,519,519,519,519,519,519,519,519,519,519,519,519,519,519,519,519,519,519,519,519,519,519,519,519,519,519,519,519,519,519,519,519,519,519,519,519,519,519,519,519,519,519,519,519,519,519,519,519,519,519,519,519,519,519,519,519,519,519,519,519,519,519,519,519,519,519,519,519,519,519,519,519,519,519,519,519,519,519,519,519,519,519,519,519,519,519,519,519,519,519,519,519,519,519,519,519,519,519,519,519,519,519,519,519,519,519,519,519,519,519,519,519,519,519,519,519,519,519,519,519,519,519,519,519,519,519,519,519,519,519,519,519,519,519,519,519,519,519,519,519,519,519,519,519,519,519,519,519,519,519,519,519,519,519,519,519,519,519,519,519,519,519,519,519,519,519,519,519,519,519,519,519,519,519,519,519,519,519,519,519,519,519,519,519,519,519,519,519,519,519,519,519,519,519,519,519,519,519,519,519,519,519,519,519,519,519,519,519,519,519,519,519,519,519,519,519,519,519,519,519,519,519,519,519,519,519,519,519,519,519,519,519,519,519,519,519,519,519,519,519,519,519,519,519,519,519,519,519,519,519,519,519,519,519,519,519,519,519,519,519,519,519,519,519,519,519,519,519,519,519,519,519,519,519,519,519,519,519,519,519,519,519,519,519,519,519,519,519,519,519,519,519,519,519,519,519,519,519,519,519,519,519,519,519,519,519,519,519,519,519,519,519,519,519,519,519,519,519,519,519,519,519,519,519,519,519,519,519,519,519,519,519,519,519,519,519,519,519,519,519,519,519,519,519,519,519,519,519,519,519,519,519,519,519,519,519,519,519,519,519,519,519,519,519,519,519,519,519,519,519,519,519,519,519,519,519,519,519,519,519,519,519,519,519,519,519,519,519,519,519,519,519,519,519,519,519,519,519,519,519,519,519,519,519,519,519,519,519,519,519,519,519,519,519,519,519,519,519,519,519,519,519,519,519,519,519,519,519,519,519,519,519,519,519,519,519,519,519,519,519,519,519,519,519,519,519,519,519,519,519,519,519,519,519,519,519,519,519,519,519,519,519,519,519,519,519,519,519,519,519,519,519,519,519,519,519,519,519,519,519,519,519,519,519,519,519,519,519,519,519,519,519,519,519,519,519,519,519,519,519,519,519,519,519,519,519,519,519,519,519,519,519,519,519,519,519,519,519,519,519,519,519,519,519,519,519,519,519,519,519,519,519,519,519,519,519,519,519,519,519,519,519,519,519,519,519,519,519,519,519,519,519,519,519,519,519,519,519,519,519,519,519,519,519,519,519,519,519,519,519,519,519,519,519,519,519,519,519,519,519,519,519,519,519,519,519,519,519,519,519,519,519,519,519,519,519,519,519,519,519,519,519,519,519,519,519,519,519,519,519,519,519,519,519,519,519,519,519,519,519,519,519,519,519,519,519,519,519,519,519,519,519,519,519,519,519,519,518,510,495,463,448,434,421,402,390,383,373,364,356,343,334,329,324,310,292,277,259,239,220,195,187,182,179,177,175,175,175,175,174,154,135,112,81,55,47,42,40,40,41,52,56,59],"timestamp_mouse":[14,30,47,68,88,107,127,147,167,187,207,228,247,268,288,308,327,347,368,387,407,428,448,467,487,507,527,548,568,587,607,628,648,668,687,706,728,748,768,788,807,827,847,867,887,908,928,948,967,987,1007,1028,1047,1068,1088,1107,1128,1148,1168,1187,1207,1227,1248,1267,1288,1307,1328,1348,1368,1387,1407,1428,1447,1468,1487,1508,1528,1547,1566,1588,1608,1628,1647,1667,1688,1707,1728,1748,1768,1787,1808,1828,1847,1868,1888,1908,1927,1948,1967,1988,2008,2027,2047,2067,2087,2108,2128,2148,2167,2188,2208,2228,2247,2268,2288,2308,2327,2347,2368,2388,2408,2428,2448,2467,2487,2507,2527,2548,2567,2588,2607,2627,2648,2667,2688,2708,2727,2747,2768,2787,2807,2828,2847,2867,2888,2908,2928,2947,2968,2988,3008,3027,3047,3068,3088,3108,3127,3147,3167,3188,3208,3229,3248,3268,3287,3307,3328,3348,3367,3388,3407,3428,3447,3467,3488,3507,3528,3547,3568,3587,3608,3628,3647,3668,3688,3707,3727,3747,3767,3788,3807,3827,3847,3868,3888,3908,3928,3947,3968,3988,4007,4028,4047,4067,4088,4107,4127,4147,4168,4188,4207,4229,4248,4268,4288,4308,4328,4347,4368,4387,4407,4428,4447,4468,4488,4507,4528,4547,4567,4588,4608,4627,4648,4668,4688,4707,4727,4748,4767,4788,4808,4828,4847,4868,4888,4908,4928,4947,4967,4988,5007,5026,5046,5068,5088,5109,5128,5147,5168,5188,5207,5229,5247,5269,5289,5309,5328,5348,5368,5388,5409,5429,5448,5467,5488,5509,5529,5549,5567,5589,5607,5629,5647,5668,5688,5708,5727,5747,5768,5788,5808,5829,5848,5869,5888,5908,5928,5949,5969,5987,6008,6028,6047,6068,6089,6107,6128,6147,6167,6188,6208,6227,6247,6269,6289,6308,6327,6347,6368,6388,6408,6427,6449,6468,6489,6508,6527,6547,6567,6587,6609,6629,6647,6667,6687,6708,6728,6749,6768,6788,6808,6828,6849,6868,6887,6908,6928,6948,6968,6989,7009,7028,7047,7067,7087,7109,7128,7148,7168,7188,7209,7227,7248,7268,7289,7308,7328,7348,7368,7388,7409,7428,7448,7467,7488,7508,7527,7549,7568,7589,7609,7628,7648,7667,7689,7708,7728,7748,7769,7787,7807,7828,7848,7868,7887,7907,7928,7948,7969,7989,8008,8027,8047,8068,8087,8108,8128,8148,8169,8188,8207,8227,8249,8267,8288,8307,8327,8347,8368,8388,8408,8428,8448,8468,8488,8508,8528,8548,8567,8589,8608,8627,8649,8669,8688,8708,8727,8747,8769,8789,8809,8828,8849,8869,8888,8908,8928,8948,8968,8988,9008,9027,9049,9067,9087,9107,9128,9147,9167,9189,9209,9227,9248,9267,9287,9309,9328,9347,9368,9388,9409,9428,9447,9468,9489,9508,9528,9547,9568,9588,9609,9627,9648,9667,9689,9708,9728,9748,9767,9789,9808,9827,9847,9868,9888,9908,9928,9949,9968,9989,10008,10028,10048,10069,10088,10107,10128,10149,10169,10188,10208,10227,10249,10269,10288,10308,10328,10349,10369,10389,10409,10427,10448,10467,10489,10509,10527,10547,10567,10588,10608,10628,10649,10668,10687,10707,10728,10747,10769,10789,10809,10828,10847,10868,10889,10909,10928,10948,10969,10988,11007,11027,11047,11069,11088,11107,11127,11148,11167,11188,11208,11229,11249,11267,11289,11309,11328,11347,11368,11389,11407,11428,11448,11467,11488,11509,11527,11547,11568,11587,11609,11629,11649,11668,11688,11708,11729,11748,11769,11787,11808,11827,11848,11868,11889,11908,11927,11948,11969,11989,12007,12029,12048,12068,12088,12108,12128,12149,12169,12188,12209,12229,12249,12267,12287,12307,12329,12348,12369,12388,12408,12428,12449,12469,12488,12508,12527,12547,12568,12587,12609,12629,12648,12668,12688,12708,12728,12748,12767,12787,12809,12829,12847,12868,12887,12908,12927,12947,12969,12989,13009,13027,13049,13067,13088,13108,13129,13147,13168,13189,13209,13227,13248,13267,13288,13309,13329,13348,13367,13388,13408,13428,13448,13467,13489,13508,13529,13549,13567,13589,13608,13628,13648,13668,13688,13709,13727,13748,13767,13788,13809,13828,13848,13868,13888,13908,13927,13949,13969,13988,14008,14028,14047,14069,14089,14107,14128,14148,14167,14188,14209,14229,14249,14269,14289,14308,14328,14347,14367,14388,14407,14428,14447,14468,14489,14508,14528,14547,14568,14589,14608,14629,14649,14667,14687,14709,14727,14747,14767,14789,14808,14827,14847,14867,14889,14907,14928,14948,14967,14989,15008,15029,15048,15067,15087,15107,15127,15148,15169,15187,15208,15229,15249,15267,15287,15309,15328,15349,15369,15388,15408,15427,15449,15468,15488,15507,15528,15548,15567,15589,15607,15627,15647,15668,15688,15708,15728,15747,15768,15788,15809,15829,15848,15869,15887,15908,15929,15948,15968,15989,16008,16028,16047,16068,16089,16109,16127,16147,16167,16189,16208,16227,16247,16268,16289,16309,16329,16349,16368,16387,16409,16428,16447,16467,16487,16507,16527,16548,16568,16589,16608,16627,16648,16668,16688,16709,16729,16748,16768,16788,16808,16829,16848,16868,16888,16907,16928,16947,16967,16989,17008,17029,17047,17068,17088,17109,17128,17147,17168,17188,17207,17228,17248,17268,17287,17309,17329,17348,17367,17387,17409,17427,17447,17467,17489,17508,17528,17548,17568,17588,17607,17627,17648,17668,17687,17708,17729,17747,17768,17788,17809,17827,17848,17869,17888,17909,17927,17948,17969,17989,18007,18027,18047,18069,18087,18108,18127,18148,18169,18188,18207,18229,18248,18269,18288,18307,18328,18348,18369,18388,18408,18429,18448,18467,18488,18507,18528,18547,18569,18589,18607,18627,18647,18669,18689,18708,18727,18747,18768,18789,18808,18828,18847,18867,18888,18907,18928,18947,18968,18989,19009,19028,19047,19068,19089,19108,19127,19148,19169,19189,19208,19228,19248,19269,19287,19308,19327,19349,19368,19388,19409,19428,19448,19468,19488,19507,19528,19547,19569,19589,19607,19627,19648,19669,19688,19708,19729,19748,19769,19788,19808,19827,19848,19869,19887,19908,19927,19949,19969,19987,20008,20029,20048,20069,20088,20107,20127,20149,20167,20187,20208,20228,20248,20267,20287,20309,20328,20347,20367,20388,20409,20428,20448,20467,20488,20508,20529,20549,20567,20588,20607,20627,20649,20668,20687,20708,20728,20748,20769,20789,20809,20827,20847,20867,20887,20909,20928,20949,20969,20988,21008,21028,21048,21067,21088,21109,21128,21147,21169,21187,21208,21228,21249,21268,21288,21308,21327,21347,21368,21389,21407,21428,21447,21467,21489,21509,21528,21548,21569,21589,21607,21627,21647,21668,21689,21709,21727,21748,21768,21788,21809,21827,21848,21868,21889,21907,21928,21947,21969,21987,22008,22029,22048,22068,22089,22108,22127,22148,22168,22188,22209,22228,22247,22268,22288,22309,22329,22347,22368,22389,22407,22428,22447,22469,22489,22508,22528,22547,22569,22589,22609,22629,22648,22668,22689,22708,22727,22749,22767,22789,22807,22827,22847,22867,22887,22908,22927,22947,22969,22987,23007,23028,23048,23069,23089,23107,23127,23147,23169,23187,23207,23228,23247,23268,23288,23309,23328,23348,23369,23388,23408,23427,23448,23469,23489,23509,23527,23547,23568,23589,23608,23628,23647,23667,23687,23708,23729,23748,23767,23787,23808,23829,23849,23867,23888,23908,23928,23949,23969,23987,24008,24028,24047,24069,24088,24107,24128,24149,24169,24187,24208,24228,24249,24267,24288,24308,24327,24347,24367,24388,24408,24428,24448,24467,24488,24508,24528,24548,24569,24587,24608,24627,24648,24667,24689,24707,24728,24747,24768,24788,24809,24828,24848,24867,24888,24909,24928,24947,24967,24988,25008,25028,25049,25068,25087,25109,25128,25147,25167,25187,25207,25229,25247,25268,25289,25309,25328,25347,25367,25388,25409,25429,25447,25467,25488,25508,25528,25547,25569,25589,25608,25627,25647,25667,25688,25709,25729,25748,25768,25788,25809,25829,25849,25868,25888,25908,25928,25948,25968,25988,26008,26028,26048,26067,26089,26109,26129,26149,26168,26187,26209,26229,26249,26268,26288,26308,26328,26348,26368,26389,26407,26428,26448,26468,26487,26507,26528,26547,26568,26587,26608,26627,26648,26667,26688,26708,26727,26747,26768,26788,26808,26827,26847,26867,26889,26907,26927,26949,26968,26989,27008,27027,27049,27068,27088,27108,27127,27148,27168,27187,27208,27228,27248,27268,27287,27309,27327,27348,27369,27387,27408,27429,27448,27468,27488,27508,27528,27548,27569,27589,27608,27627,27648,27667,27689,27708,27727,27748,27768,27788,27809,27829,27849,27867,27888,27908,27929,27949,27969,27987,28008,28027,28049,28069,28088,28108,28127,28149,28168,28189,28208,28227,28247,28268,28289,28309,28328,28349,28369,28388,28408,28428,28449,28468,28489,28509,28528,28547,28568,28588,28609,28629,28649,28669,28688,28707,28728,28749,28769,28789,28809,28828,28848,28868,28889,28909,28928,28947,28968,28988,29007,29028,29047,29069,29089,29108,29127,29148,29168,29187,29208,29228,29249,29268,29288,29308,29329,29348,29369,29388,29408,29429,29449,29469,29487,29508,29528,29548,29569,29589,29608,29627,29648,29669,29688,29709,29728,29748,29769,29788,29808,29828,29847,29868,29889,29909,29928,29947,29967,29988,30009,30028,30049,30067,30088,30108,30128,30149,30169,30187,30208,30229,30248,30268,30288,30307,30328,30347,30368,30388,30409,30427,30448,30467,30488,30508,30527,30547,30568,30587,30609,30628,30648,30667,30688,30709,30728,30749,30769,30788,30807,30828,30848,30868,30889,30908,30928,30948,30967,30989,31009,31028,31047,31068,31089,31109,31129,31148,31167,31188,31207,31229,31248,31268,31289,31308,31328,31349,31368,31387,31407,31429,31449,31468,31488,31507,31528,31547,31568,31589,31609,31628,31647,31668,31689,31709,31728,31749,31768,31789,31809,31827,31847,31868,31889,31907,31928,31949,31968,31987,32007,32029,32048,32067,32087,32107,32127,32148,32168,32189,32208,32229,32247,32267,32287,32309,32328,32349,32368,32388,32408,32429,32447,32468,32489,32509,32527,32547,32568,32589,32608,32628,32647,32669,32688,32708,32727,32747,32767,32788,32808,32829,32848,32868,32888,32908,32928,32949,32968,32987,33007,33029,33049,33068,33088,33109,33128,33147,33168,33187,33208,33228,33248,33267,33288,33309,33328,33348,33368,33387,33408,33427,33448,33468,33487,33508,33528,33548,33567,33588,33607,33628,33648,33669,33687,33708,33728,33747,33768,33788,33807,33828,33847,33869,33887,33908,33929,33948,33967,33987,34009,34027,34047,34068,34088,34109,34128,34149,34169,34187,34207,34228,34249,34267,34287,34308,34329,34349,34367,34387,34407,34428,34449,34469,34488,34508,34528,34547,34568,34588,34607,34627,34647,34668,34688,34707,34727,34748,34769,34788,34808,34827,34848,34869,34888,34907,34927,34948,34968,34989,35007,35027,35047,35067,35088,35109,35128,35147,35167,35188,35208,35229,35248,35268,35287,35308,35329,35348,35368,35387,35409,35427,35447,35469,35487,35508,35529,35548,35569,35587,35608,35627,35649,35668,35688,35709,35728,35749,35768,35787,35808,35828,35847,35867,35889,35907,35927,35948,35967,35988,36009,36027,36047,36067,36089,36108,36127,36148,36168,36187,36208,36229,36249,36268,36288,36307,36327,36347,36369,36389,36408,36428,36448,36468,36488,36507,36529,36548,36567,36588,36609,36629,36648,36668,36689,36709,36727,36748,36767,36788,36808,36827,36847,36868,36888,36907,36927,36947,36969,36989,37007,37027,37048,37067,37088,37107,37128,37149,37168,37188,37208,37227,37248,37269,37289,37307,37329,37348,37367,37388,37409,37428,37447,37468,37488,37509,37529,37548,37567,37587,37608,37628,37649,37668,37687,37709,37727,37749,37769,37789,37807,37828,37848,37868,37889,37908,37928,37948,37969,37987,38007,38028,38048,38068,38087,38108,38128,38148,38167,38189,38207,38228,38247,38268,38288,38308,38328,38349,38368,38390,38408,38428,38448,38468,38488,38508,38527,38548,38567,38588,38608,38628,38648,38668,38687,38708,38727,38748,38768,38789,38807,38829,38849,38869,38888,38908,38928,38948],"xSR":741.5,"ySR":469.95,"xT1":424.9,"yT1":0,"xT2":1058.1,"yT2":0,"toosoon":0,"cond_shown":"Congruent","ratio_trial":300,"L_num":20,"L_den":25,"R_num":13,"R_den":26,"correct_side":1,"subjID":"Juan Felipe Amaya Gomez","gender":"0","school":"4","age":"9"},{"start_time":1552073938812,"click_time":1552073940849,"finger_time":1552073940408,"fix_duration":783.0986235576765,"trial":19,"RT":1596,"MT":441,"sideResp":1,"stimulus":[],"xmouse":[793,793,792,791,789,789,789,788,786,783,780,773,772,772,772,772,772,772,772,772,772,772,772,772,772,772,772,772,772,772,772,772,772,772,772,772,772,772,772,772,772,772,772,772,772,772,772,772,772,772,772,772,772,772,772,772,772,772,772,772,772,772,772,772,772,772,772,772,772,772,772,772,772,772,771,771,771,771,771,771,770,763,755,743,703,675,644,633,625,622,620,618,616,608,603,593,575,561,547,537,529,516],"ymouse":[510,510,510,510,510,510,510,510,510,510,510,509,509,508,508,508,508,508,508,508,508,508,508,508,508,508,508,508,508,508,508,508,508,508,508,508,508,508,508,508,508,508,508,508,508,508,508,508,508,508,508,508,508,508,508,508,508,508,508,508,508,508,508,508,508,508,508,508,508,508,508,508,508,508,507,505,493,485,475,468,457,425,399,370,308,271,231,218,209,200,191,159,137,101,82,66,58,58,61,63,63,63],"timestamp_mouse":[17,36,56,76,96,116,135,156,176,195,217,235,257,276,296,316,336,356,377,397,416,435,456,476,495,515,537,556,576,596,615,636,656,677,695,715,736,756,775,796,815,836,856,875,896,916,936,957,976,997,1017,1036,1056,1076,1096,1116,1136,1157,1176,1196,1216,1235,1257,1276,1296,1316,1336,1357,1377,1395,1415,1436,1457,1476,1495,1516,1536,1556,1575,1596,1616,1636,1655,1676,1697,1715,1736,1755,1775,1796,1817,1837,1855,1876,1895,1916,1936,1955,1976,1995,2017,2036],"xSR":741.5,"ySR":469.95,"xT1":424.9,"yT1":0,"xT2":1058.1,"yT2":0,"toosoon":0,"cond_shown":"Congruent","ratio_trial":100,"L_num":3,"L_den":6,"R_num":2,"R_den":5,"correct_side":1,"subjID":"Juan Felipe Amaya Gomez","gender":"0","school":"4","age":"9"},{"start_time":1552073943452,"click_time":1552073944768,"finger_time":1552073944427,"fix_duration":1181.0692825181447,"trial":20,"RT":975,"MT":341,"sideResp":1,"stimulus":[],"xmouse":[792,792,792,792,792,792,792,792,792,792,792,792,792,792,792,792,792,792,792,792,792,792,792,792,792,792,792,792,792,792,792,792,792,792,792,792,792,792,792,791,783,777,774,770,767,761,755,747,737,725,692,680,671,665,661,656,651,645,639,631,605,594,583,568,551,516],"ymouse":[520,520,520,520,520,520,520,520,520,520,520,520,520,520,520,520,520,520,520,520,520,520,520,520,520,520,520,520,520,520,520,520,520,520,520,520,520,520,520,519,509,504,501,499,496,494,491,483,472,456,403,386,375,371,368,360,352,342,330,316,270,247,220,186,148,65],"timestamp_mouse":[15,36,57,77,95,115,136,156,175,196,215,237,255,275,295,317,336,357,376,396,415,436,455,477,495,515,536,557,576,596,615,636,657,676,695,716,736,757,776,795,816,836,856,876,895,915,937,957,975,996,1016,1035,1055,1075,1095,1116,1135,1156,1176,1195,1215,1236,1255,1275,1295,1316],"xSR":741.5,"ySR":469.95,"xT1":424.9,"yT1":0,"xT2":1058.1,"yT2":0,"toosoon":0,"cond_shown":"Incongruent","ratio_trial":300,"L_num":4,"L_den":5,"R_num":8,"R_den":16,"correct_side":1,"subjID":"Juan Felipe Amaya Gomez","gender":"0","school":"4","age":"9"},{"start_time":1552073974875,"click_time":1552073977368,"finger_time":1552073976568,"fix_duration":1264.8238436689692,"trial":21,"RT":1693,"MT":800,"sideResp":2,"stimulus":[],"xmouse":[796,796,796,796,796,796,796,796,796,796,796,796,796,796,796,796,796,796,796,796,796,796,796,796,796,796,796,796,796,796,796,796,796,796,796,796,796,796,796,796,796,796,796,796,796,796,796,796,796,796,796,796,796,796,796,796,796,796,796,796,796,796,796,796,796,796,796,796,796,796,796,796,796,796,796,796,798,802,803,804,807,808,814,831,842,852,864,875,894,904,916,925,935,953,965,971,977,985,996,1003,1008,1013,1018,1020,1020,1020,1020,1020,1020,1020,1021,1022,1024,1025,1030,1034,1036,1045,1049,1052,1054,1055,1056,1057,1059],"ymouse":[508,508,508,508,508,508,508,508,508,508,508,508,508,508,508,508,508,508,508,508,508,508,508,508,508,508,508,508,508,508,508,508,508,508,508,508,508,508,508,508,508,508,508,508,508,508,508,508,508,508,508,508,508,508,508,508,508,508,508,508,508,508,508,508,508,508,508,508,508,508,508,508,508,508,507,506,505,503,503,503,501,500,496,484,473,460,440,420,379,358,339,322,305,275,258,251,244,235,219,208,199,190,174,170,165,163,163,163,160,159,155,152,144,140,125,114,101,74,63,54,48,44,43,42,42],"timestamp_mouse":[15,39,53,72,94,114,133,153,173,193,214,233,253,274,292,313,333,353,373,392,413,433,454,473,493,514,532,553,573,593,612,632,652,673,693,714,734,753,773,793,814,834,852,873,893,914,932,952,972,994,1013,1033,1052,1074,1093,1113,1132,1152,1174,1194,1213,1233,1252,1274,1294,1312,1333,1352,1372,1394,1413,1433,1452,1474,1493,1513,1533,1553,1573,1593,1613,1634,1653,1673,1693,1712,1733,1752,1772,1793,1812,1832,1852,1872,1893,1914,1932,1953,1973,1993,2013,2033,2054,2073,2094,2114,2132,2153,2172,2192,2214,2233,2253,2272,2293,2312,2332,2354,2373,2393,2414,2432,2454,2472,2493],"xSR":741.5,"ySR":469.95,"xT1":424.9,"yT1":0,"xT2":1058.1,"yT2":0,"toosoon":0,"cond_shown":"Congruent","ratio_trial":200,"L_num":3,"L_den":6,"R_num":14,"R_den":20,"correct_side":2,"subjID":"Juan Felipe Amaya Gomez","gender":"0","school":"4","age":"9"},{"start_time":1552073981446,"click_time":1552073983508,"finger_time":1552073982947,"fix_duration":1156.1101665882316,"trial":22,"RT":1501,"MT":561,"sideResp":2,"stimulus":[],"xmouse":[840,840,840,840,840,840,840,840,840,840,840,840,840,840,840,840,840,840,840,840,840,840,840,840,840,840,840,840,840,840,840,840,840,840,840,840,840,840,840,840,840,840,840,840,840,840,840,840,840,840,840,840,840,840,840,840,840,840,840,840,840,840,840,840,840,840,840,840,840,840,840,840,840,840,841,844,844,841,832,821,813,813,813,813,813,813,813,813,817,828,865,882,904,947,975,1010,1022,1031,1043,1063,1089,1097,1104,1114],"ymouse":[522,522,522,522,522,522,522,522,522,522,522,522,522,522,522,522,522,522,522,522,522,522,522,522,522,522,522,522,522,522,522,522,522,522,522,522,522,522,522,522,522,522,522,522,522,522,522,522,522,522,522,522,522,522,522,522,522,522,522,522,522,522,522,522,522,522,522,522,522,522,522,522,522,522,521,486,455,428,406,389,380,380,380,380,380,380,380,378,371,356,324,311,299,272,254,226,212,194,176,150,120,111,100,76],"timestamp_mouse":[10,21,48,61,82,103,122,141,162,182,202,221,241,262,282,301,322,342,362,382,403,421,441,463,481,503,522,542,561,583,603,623,642,662,683,703,722,743,763,783,802,823,843,861,882,902,923,942,962,982,1001,1022,1041,1062,1083,1103,1123,1142,1161,1182,1203,1222,1242,1261,1281,1301,1322,1343,1363,1381,1402,1423,1443,1462,1482,1501,1521,1541,1562,1581,1602,16