[{"start_time":1552074727275,"click_time":1552074732549,"finger_time":1552074727628,"fix_duration":1422.7355396518087,"trial":0,"RT":353,"MT":4921,"sideResp":1,"stimulus":"img/250/equaldotanddens/L/5_Ratio_250_L_24_R_6.png","xmouse":[768,768,768,768,768,768,768,768,768,768,768,768,768,768,768,768,777,788,802,814,814,814,814,816,820,821,822,822,822,822,822,822,825,829,839,842,843,843,843,843,843,843,843,843,843,843,843,844,837,835,835,835,835,835,835,835,835,834,834,834,835,835,835,835,835,835,835,835,835,835,835,835,835,835,835,835,835,835,835,835,835,835,835,835,835,835,835,834,834,833,832,832,831,831,831,831,831,831,831,831,831,831,831,831,831,831,831,831,831,831,831,831,831,830,827,824,822,821,821,821,820,818,816,813,809,807,806,804,803,800,798,797,797,797,797,797,797,797,797,797,797,797,797,797,797,797,797,797,797,797,797,797,797,797,797,797,797,797,797,797,797,797,797,797,797,797,797,797,797,797,797,797,797,797,797,797,797,797,797,797,797,797,797,797,797,797,797,797,797,797,797,797,797,797,797,797,797,797,797,797,797,797,797,797,797,794,794,793,792,792,792,792,792,792,792,792,791,789,787,784,784,784,784,784,784,784,784,784,784,784,783,783,783,783,783,783,783,783,783,783,783,782,775,767,735,712,676,638,595,541,534,533,533,532,528,512,505,499,497,497,497,497,494,491],"ymouse":[507,507,507,507,507,507,507,507,507,507,507,507,507,507,507,507,476,440,386,319,307,303,299,297,290,289,287,287,287,287,287,287,285,278,271,270,270,270,270,270,270,270,270,270,270,270,270,272,324,360,388,409,425,445,461,467,471,476,481,489,491,492,493,493,493,494,494,494,494,494,494,494,494,494,494,494,494,494,494,494,494,494,495,496,497,497,498,500,501,505,507,511,513,515,516,516,517,517,517,517,517,517,517,519,519,519,519,519,519,519,520,520,522,524,528,531,534,535,535,535,535,535,535,534,533,532,532,532,532,533,533,534,534,534,534,534,534,534,534,534,534,534,534,534,534,534,534,534,534,534,534,534,534,534,534,534,534,534,534,534,534,534,534,534,534,534,534,534,534,534,534,534,534,534,534,534,534,534,534,534,534,534,534,534,534,534,534,534,534,534,534,534,534,534,534,534,534,534,534,534,534,534,534,534,533,526,524,523,523,523,523,523,523,523,523,523,521,519,517,515,515,515,515,515,515,515,515,515,515,515,520,528,529,533,536,537,537,537,537,537,537,537,537,532,491,447,386,324,271,231,227,226,226,223,207,170,156,146,141,136,128,121,106,94],"timestamp_mouse":[13,47,53,75,94,114,133,154,175,194,214,233,254,275,293,313,334,353,374,394,415,435,454,473,493,513,533,553,573,593,613,633,653,673,693,713,734,753,774,794,814,833,853,875,893,913,933,954,975,993,1014,1034,1053,1073,1093,1115,1133,1153,1174,1194,1214,1234,1253,1273,1293,1315,1333,1353,1373,1395,1413,1433,1454,1474,1493,1513,1534,1554,1574,1595,1615,1635,1654,1674,1694,1714,1734,1754,1774,1794,1814,1833,1853,1874,1893,1914,1934,1954,1974,1993,2015,2033,2054,2074,2093,2113,2135,2153,2173,2194,2214,2234,2254,2273,2293,2314,2335,2355,2373,2394,2415,2433,2453,2473,2493,2513,2533,2554,2574,2593,2614,2634,2653,2675,2694,2713,2733,2754,2773,2794,2814,2834,2853,2873,2895,2915,2934,2955,2974,2994,3014,3034,3054,3075,3095,3114,3133,3154,3174,3195,3215,3235,3255,3273,3294,3314,3335,3354,3373,3393,3413,3434,3454,3475,3493,3514,3533,3554,3575,3594,3614,3634,3654,3674,3695,3714,3734,3755,3774,3793,3813,3834,3854,3874,3895,3913,3933,3955,3973,3993,4015,4034,4053,4074,4093,4114,4133,4154,4173,4194,4213,4235,4253,4274,4294,4313,4334,4354,4373,4394,4414,4435,4454,4475,4495,4513,4533,4554,4573,4593,4613,4634,4654,4673,4693,4713,4733,4755,4773,4794,4813,4833,4853,4874,4893,4913,4934,4955,4974,4994,5014,5033,5054,5074,5094,5114,5135,5155,5173,5194,5213,5233,5253,5274],"xSR":741.5,"ySR":469.95,"xT1":424.9,"yT1":0,"xT2":1058.1,"yT2":0,"toosoon":0,"cond_shown":"equaldotanddens","ratio_trial":250,"smaller_num":"6","larger_num":"24","correct_side":1,"subjID":"JuanFelipeZambranoJoya33","gender":"0","age":"9","school":"4","test":{"fix_dur":[250,1500],"timestim":300,"targets_dim":[100,100],"targets_relative_coord":[0.3,0.7],"size_stim":[880,420],"start_dim":[100,100],"size_start":[300,300],"size_fix":60,"samplingrate":20,"img_types":["equaldotsize","equaldotanddens","randomdotsizeEA"],"ratios":[250,500,750,900],"rep_conds":9,"nTrials":120,"trials_to_rest":500,"Trials_order":[109,49,54,23,87,115,26,57,82,42,58,93,84,3,112,66,101,2,22,24,62,14,116,17,95,70,50,113,89,44,45,67,37,106,64,97,1,40,104,31,25,48,107,92,10,28,51,117,0,94,47,86,13,119,65,81,33,88,15,69,35,34,7,29,39,8,43,105,41,16,21,74,18,118,102,12,96,5,32,103,98,68,19,55,114,6,71,9,11,56,36,60,110,38,80,77,73,78,46,63,75,52,72,76,108,99,111,30,27,91,4,20,53,79,83,59,61,100,90,85],"cond_shown":["equaldotanddens","equaldotanddens","equaldotsize","randomdotsizeEA","equaldotsize","equaldotanddens","randomdotsizeEA","equaldotsize","equaldotanddens","equaldotsize","equaldotanddens","equaldotsize","equaldotsize","equaldotsize","equaldotanddens","equaldotsize","randomdotsizeEA","randomdotsizeEA","equaldotanddens","equaldotsize","randomdotsizeEA","randomdotsizeEA","randomdotsizeEA","randomdotsizeEA","randomdotsizeEA","equaldotanddens","randomdotsizeEA","randomdotsizeEA","randomdotsizeEA","randomdotsizeEA","equaldotsize","equaldotanddens","equaldotanddens","equaldotanddens","equaldotanddens","equaldotanddens","equaldotanddens","equaldotanddens","randomdotsizeEA","equaldotanddens","equaldotanddens","equaldotsize","randomdotsizeEA","randomdotsizeEA","equaldotanddens","equaldotanddens","equaldotsize","equaldotsize","equaldotsize","equaldotanddens","randomdotsizeEA","randomdotsizeEA","equaldotanddens","randomdotsizeEA","randomdotsizeEA","equaldotsize","equaldotsize","equaldotanddens","equaldotsize","equaldotsize","randomdotsizeEA","equaldotanddens","equaldotanddens","randomdotsizeEA","equaldotsize","randomdotsizeEA","equaldotanddens","equaldotsize","randomdotsizeEA","equaldotanddens","equaldotsize","randomdotsizeEA","equaldotsize","equaldotanddens","equaldotsize","equaldotsize","equaldotsize","randomdotsizeEA","randomdotsizeEA","equaldotanddens","randomdotsizeEA","randomdotsizeEA","equaldotanddens","equaldotanddens","equaldotsize","equaldotsize","randomdotsizeEA","equaldotsize","randomdotsizeEA","randomdotsizeEA","equaldotsize","equaldotsize","randomdotsizeEA","randomdotsizeEA","randomdotsizeEA","randomdotsizeEA","equaldotanddens","equaldotsize","equaldotanddens","equaldotsize","equaldotsize","equaldotanddens","equaldotsize","equaldotanddens","equaldotsize","equaldotsize","equaldotsize","equaldotsize","equaldotsize","equaldotanddens","equaldotanddens","randomdotsizeEA","randomdotsizeEA","equaldotanddens","randomdotsizeEA","randomdotsizeEA","equaldotanddens","equaldotanddens","equaldotsize","equaldotanddens"],"ratio_trial":[250,250,750,900,500,750,250,900,900,750,900,900,250,500,500,750,500,250,900,250,250,250,750,500,900,900,250,500,500,750,900,750,250,900,500,250,250,500,750,750,250,250,900,750,900,500,500,900,250,900,900,250,250,900,500,900,900,500,500,900,900,900,750,500,500,750,750,900,500,500,900,250,750,900,750,250,250,500,750,750,250,750,750,750,750,750,900,900,900,750,250,250,250,250,750,500,250,750,900,500,500,500,250,500,250,500,500,750,500,750,500,750,500,750,900,900,250,500,750,250],"smaller_num":["6","2","6","9","4","12","6","18","18","6","9","18","2","2","3","18","9","6","18","3","5","3","15","2","9","18","4","9","2","6","18","12","3","9","9","2","3","1","6","3","2","2","18","6","9","3","9","18","2","9","9","4","3","18","4","9","9","1","1","18","18","9","6","6","5","18","6","9","10","4","9","2","15","18","6","1","5","2","6","15","6","6","3","18","3","18","9","18","18","15","2","6","1","3","3","6","6","12","18","9","10","1","2","1","3","10","2","3","3","3","2","6","1","15","9","18","5","2","15","1"],"larger_num":["24","8","8","10","8","16","24","20","20","8","10","20","8","4","6","24","18","24","20","12","20","12","20","4","10","20","16","18","4","8","20","16","12","10","18","8","12","2","8","4","8","8","20","8","10","6","18","20","8","10","10","16","12","20","8","10","10","2","2","20","20","10","8","12","10","24","8","10","20","8","10","8","20","20","8","4","20","4","8","20","24","8","4","24","4","24","10","20","20","20","8","24","4","12","4","12","24","16","20","18","20","2","8","2","12","20","4","4","6","4","4","8","2","20","10","20","20","4","20","4"],"correct_side":[1,1,1,2,1,2,2,2,2,1,2,2,2,1,2,1,2,1,1,1,2,2,2,2,1,1,1,1,1,1,2,2,2,1,2,1,2,2,1,2,2,2,2,1,2,2,1,1,1,2,2,2,1,1,1,2,1,2,2,1,1,2,1,1,2,1,1,2,2,1,2,1,1,2,1,2,2,2,1,1,2,1,1,1,2,1,2,2,2,1,1,1,2,1,1,1,2,2,1,2,2,2,2,2,1,2,1,2,2,2,1,1,2,2,2,1,2,1,1,2],"img_shown":["img/250/equaldotanddens/L/5_Ratio_250_L_24_R_6.png","img/250/equaldotanddens/L/3_Ratio_250_L_8_R_2.png","img/750/equaldotsize/L/13_Ratio_750_L_8_R_6.png","img/900/randomdotsizeEA/R/5_Ratio_900_L_9_R_10.png","img/500/equaldotsize/L/8_Ratio_500_L_8_R_4.png","img/750/equaldotanddens/R/11_Ratio_750_L_12_R_16.png","img/250/randomdotsizeEA/R/6_Ratio_250_L_6_R_24.png","img/900/equaldotsize/R/9_Ratio_900_L_18_R_20.png","img/900/equaldotanddens/R/12_Ratio_900_L_18_R_20.png","img/750/equaldotsize/L/14_Ratio_750_L_8_R_6.png","img/900/equaldotanddens/R/7_Ratio_900_L_9_R_10.png","img/900/equaldotsize/R/11_Ratio_900_L_18_R_20.png","img/250/equaldotsize/R/13_Ratio_250_L_2_R_8.png","img/500/equaldotsize/L/10_Ratio_500_L_4_R_2.png","img/500/equaldotanddens/R/2_Ratio_500_L_3_R_6.png","img/750/equaldotsize/L/6_Ratio_750_L_24_R_18.png","img/500/randomdotsizeEA/R/1_Ratio_500_L_9_R_18.png","img/250/randomdotsizeEA/L/5_Ratio_250_L_24_R_6.png","img/900/equaldotanddens/L/10_Ratio_900_L_20_R_18.png","img/250/equaldotsize/L/14_Ratio_250_L_12_R_3.png","img/250/randomdotsizeEA/R/12_Ratio_250_L_5_R_20.png","img/250/randomdotsizeEA/R/9_Ratio_250_L_3_R_12.png","img/750/randomdotsizeEA/R/4_Ratio_750_L_15_R_20.png","img/500/randomdotsizeEA/R/9_Ratio_500_L_2_R_4.png","img/900/randomdotsizeEA/L/1_Ratio_900_L_10_R_9.png","img/900/equaldotanddens/L/8_Ratio_900_L_20_R_18.png","img/250/randomdotsizeEA/L/2_Ratio_250_L_16_R_4.png","img/500/randomdotsizeEA/L/4_Ratio_500_L_18_R_9.png","img/500/randomdotsizeEA/L/10_Ratio_500_L_4_R_2.png","img/750/randomdotsizeEA/L/13_Ratio_750_L_8_R_6.png","img/900/equaldotsize/R/12_Ratio_900_L_18_R_20.png","img/750/equaldotanddens/R/11_Ratio_750_L_12_R_16.png","img/250/equaldotanddens/R/4_Ratio_250_L_3_R_12.png","img/900/equaldotanddens/L/1_Ratio_900_L_10_R_9.png","img/500/equaldotanddens/R/1_Ratio_500_L_9_R_18.png","img/250/equaldotanddens/L/3_Ratio_250_L_8_R_2.png","img/250/equaldotanddens/R/4_Ratio_250_L_3_R_12.png","img/500/equaldotanddens/R/12_Ratio_500_L_1_R_2.png","img/750/randomdotsizeEA/L/14_Ratio_750_L_8_R_6.png","img/750/equaldotanddens/R/12_Ratio_750_L_3_R_4.png","img/250/equaldotanddens/R/13_Ratio_250_L_2_R_8.png","img/250/equaldotsize/R/13_Ratio_250_L_2_R_8.png","img/900/randomdotsizeEA/R/9_Ratio_900_L_18_R_20.png","img/750/randomdotsizeEA/L/13_Ratio_750_L_8_R_6.png","img/900/equaldotanddens/R/3_Ratio_900_L_9_R_10.png","img/500/equaldotanddens/R/2_Ratio_500_L_3_R_6.png","img/500/equaldotsize/L/4_Ratio_500_L_18_R_9.png","img/900/equaldotsize/L/10_Ratio_900_L_20_R_18.png","img/250/equaldotsize/L/3_Ratio_250_L_8_R_2.png","img/900/equaldotanddens/R/15_Ratio_900_L_9_R_10.png","img/900/randomdotsizeEA/R/7_Ratio_900_L_9_R_10.png","img/250/randomdotsizeEA/R/10_Ratio_250_L_4_R_16.png","img/250/equaldotanddens/L/15_Ratio_250_L_12_R_3.png","img/900/randomdotsizeEA/L/2_Ratio_900_L_20_R_18.png","img/500/randomdotsizeEA/L/8_Ratio_500_L_8_R_4.png","img/900/equaldotsize/R/3_Ratio_900_L_9_R_10.png","img/900/equaldotsize/L/1_Ratio_900_L_10_R_9.png","img/500/equaldotanddens/R/15_Ratio_500_L_1_R_2.png","img/500/equaldotsize/R/15_Ratio_500_L_1_R_2.png","img/900/equaldotsize/L/2_Ratio_900_L_20_R_18.png","img/900/randomdotsizeEA/L/2_Ratio_900_L_20_R_18.png","img/900/equaldotanddens/R/15_Ratio_900_L_9_R_10.png","img/750/equaldotanddens/L/13_Ratio_750_L_8_R_6.png","img/500/randomdotsizeEA/L/11_Ratio_500_L_12_R_6.png","img/500/equaldotsize/R/14_Ratio_500_L_5_R_10.png","img/750/randomdotsizeEA/L/6_Ratio_750_L_24_R_18.png","img/750/equaldotanddens/L/14_Ratio_750_L_8_R_6.png","img/900/equaldotsize/R/5_Ratio_900_L_9_R_10.png","img/500/randomdotsizeEA/R/3_Ratio_500_L_10_R_20.png","img/500/equaldotanddens/L/8_Ratio_500_L_8_R_4.png","img/900/equaldotsize/R/6_Ratio_900_L_9_R_10.png","img/250/randomdotsizeEA/L/7_Ratio_250_L_8_R_2.png","img/750/equaldotsize/L/1_Ratio_750_L_20_R_15.png","img/900/equaldotanddens/R/14_Ratio_900_L_18_R_20.png","img/750/equaldotsize/L/14_Ratio_750_L_8_R_6.png","img/250/equaldotsize/R/8_Ratio_250_L_1_R_4.png","img/250/equaldotsize/R/12_Ratio_250_L_5_R_20.png","img/500/randomdotsizeEA/R/9_Ratio_500_L_2_R_4.png","img/750/randomdotsizeEA/L/13_Ratio_750_L_8_R_6.png","img/750/equaldotanddens/L/1_Ratio_750_L_20_R_15.png","img/250/randomdotsizeEA/R/6_Ratio_250_L_6_R_24.png","img/750/randomdotsizeEA/L/14_Ratio_750_L_8_R_6.png","img/750/equaldotanddens/L/9_Ratio_750_L_4_R_3.png","img/750/equaldotanddens/L/6_Ratio_750_L_24_R_18.png","img/750/equaldotsize/R/7_Ratio_750_L_3_R_4.png","img/750/equaldotsize/L/6_Ratio_750_L_24_R_18.png","img/900/randomdotsizeEA/R/5_Ratio_900_L_9_R_10.png","img/900/equaldotsize/R/13_Ratio_900_L_18_R_20.png","img/900/randomdotsizeEA/R/14_Ratio_900_L_18_R_20.png","img/750/randomdotsizeEA/L/1_Ratio_750_L_20_R_15.png","img/250/equaldotsize/L/3_Ratio_250_L_8_R_2.png","img/250/equaldotsize/L/5_Ratio_250_L_24_R_6.png","img/250/randomdotsizeEA/R/8_Ratio_250_L_1_R_4.png","img/250/randomdotsizeEA/L/14_Ratio_250_L_12_R_3.png","img/750/randomdotsizeEA/L/8_Ratio_750_L_4_R_3.png","img/500/randomdotsizeEA/L/11_Ratio_500_L_12_R_6.png","img/250/equaldotanddens/R/6_Ratio_250_L_6_R_24.png","img/750/equaldotsize/R/11_Ratio_750_L_12_R_16.png","img/900/equaldotanddens/L/2_Ratio_900_L_20_R_18.png","img/500/equaldotsize/R/1_Ratio_500_L_9_R_18.png","img/500/equaldotsize/R/3_Ratio_500_L_10_R_20.png","img/500/equaldotanddens/R/12_Ratio_500_L_1_R_2.png","img/250/equaldotsize/R/13_Ratio_250_L_2_R_8.png","img/500/equaldotanddens/R/15_Ratio_500_L_1_R_2.png","img/250/equaldotsize/L/15_Ratio_250_L_12_R_3.png","img/500/equaldotsize/R/3_Ratio_500_L_10_R_20.png","img/500/equaldotsize/L/5_Ratio_500_L_4_R_2.png","img/750/equaldotsize/R/7_Ratio_750_L_3_R_4.png","img/500/equaldotsize/R/2_Ratio_500_L_3_R_6.png","img/750/equaldotanddens/R/12_Ratio_750_L_3_R_4.png","img/500/equaldotanddens/L/10_Ratio_500_L_4_R_2.png","img/750/randomdotsizeEA/L/13_Ratio_750_L_8_R_6.png","img/500/randomdotsizeEA/R/15_Ratio_500_L_1_R_2.png","img/750/equaldotanddens/R/3_Ratio_750_L_15_R_20.png","img/900/randomdotsizeEA/R/6_Ratio_900_L_9_R_10.png","img/900/randomdotsizeEA/L/10_Ratio_900_L_20_R_18.png","img/250/equaldotanddens/R/12_Ratio_250_L_5_R_20.png","img/500/equaldotanddens/L/10_Ratio_500_L_4_R_2.png","img/750/equaldotsize/L/1_Ratio_750_L_20_R_15.png","img/250/equaldotanddens/R/8_Ratio_250_L_1_R_4.png"],"Rat0":[["12_Ratio_0_L_9_R_0.png","13_Ratio_0_L_6_R_0.png","5_Ratio_0_L_2_R_0.png","6_Ratio_0_L_4_R_0.png","8_Ratio_0_L_6_R_0.png"],["1_Ratio_0_L_0_R_17.png","10_Ratio_0_L_0_R_22.png","11_Ratio_0_L_0_R_1.png","14_Ratio_0_L_0_R_24.png","15_Ratio_0_L_0_R_4.png","2_Ratio_0_L_0_R_5.png","3_Ratio_0_L_0_R_17.png","4_Ratio_0_L_0_R_7.png","7_Ratio_0_L_0_R_19.png","9_Ratio_0_L_0_R_15.png"]],"Rat250":[["1_Ratio_250_L_8_R_2.png","14_Ratio_250_L_12_R_3.png","15_Ratio_250_L_12_R_3.png","2_Ratio_250_L_16_R_4.png","3_Ratio_250_L_8_R_2.png","5_Ratio_250_L_24_R_6.png","7_Ratio_250_L_8_R_2.png"],["10_Ratio_250_L_4_R_16.png","11_Ratio_250_L_3_R_12.png","12_Ratio_250_L_5_R_20.png","13_Ratio_250_L_2_R_8.png","4_Ratio_250_L_3_R_12.png","6_Ratio_250_L_6_R_24.png","8_Ratio_250_L_1_R_4.png","9_Ratio_250_L_3_R_12.png"]],"Rat500":[["10_Ratio_500_L_4_R_2.png","11_Ratio_500_L_12_R_6.png","13_Ratio_500_L_12_R_6.png","4_Ratio_500_L_18_R_9.png","5_Ratio_500_L_4_R_2.png","7_Ratio_500_L_10_R_5.png","8_Ratio_500_L_8_R_4.png"],["1_Ratio_500_L_9_R_18.png","12_Ratio_500_L_1_R_2.png","14_Ratio_500_L_5_R_10.png","15_Ratio_500_L_1_R_2.png","2_Ratio_500_L_3_R_6.png","3_Ratio_500_L_10_R_20.png","6_Ratio_500_L_9_R_18.png","9_Ratio_500_L_2_R_4.png"]],"Rat750":[["1_Ratio_750_L_20_R_15.png","10_Ratio_750_L_4_R_3.png","13_Ratio_750_L_8_R_6.png","14_Ratio_750_L_8_R_6.png","6_Ratio_750_L_24_R_18.png","8_Ratio_750_L_4_R_3.png","9_Ratio_750_L_4_R_3.png"],["11_Ratio_750_L_12_R_16.png","12_Ratio_750_L_3_R_4.png","15_Ratio_750_L_9_R_12.png","2_Ratio_750_L_6_R_8.png","3_Ratio_750_L_15_R_20.png","4_Ratio_750_L_15_R_20.png","5_Ratio_750_L_15_R_20.png","7_Ratio_750_L_3_R_4.png"]],"Rat900":[["1_Ratio_900_L_10_R_9.png","10_Ratio_900_L_20_R_18.png","2_Ratio_900_L_20_R_18.png","4_Ratio_900_L_20_R_18.png","8_Ratio_900_L_20_R_18.png"],["11_Ratio_900_L_18_R_20.png","12_Ratio_900_L_18_R_20.png","13_Ratio_900_L_18_R_20.png","14_Ratio_900_L_18_R_20.png","15_Ratio_900_L_9_R_10.png","3_Ratio_900_L_9_R_10.png","5_Ratio_900_L_9_R_10.png","6_Ratio_900_L_9_R_10.png","7_Ratio_900_L_9_R_10.png","9_Ratio_900_L_18_R_20.png"]],"Rat1000":[["10_Ratio_1000_L_16_R_16.png","11_Ratio_1000_L_6_R_6.png","12_Ratio_1000_L_14_R_14.png","13_Ratio_1000_L_20_R_20.png","15_Ratio_1000_L_15_R_15.png","2_Ratio_1000_L_17_R_17.png","4_Ratio_1000_L_9_R_9.png","5_Ratio_1000_L_6_R_6.png","6_Ratio_1000_L_19_R_19.png","8_Ratio_1000_L_14_R_14.png","9_Ratio_1000_L_25_R_25.png"],["1_Ratio_1000_L_1_R_1.png","14_Ratio_1000_L_17_R_17.png","3_Ratio_1000_L_17_R_17.png","7_Ratio_1000_L_6_R_6.png"]]}},{"start_time":1552074739719,"click_time":1552074740889,"finger_time":1552074740589,"fix_duration":1087.0141128416521,"trial":1,"RT":870,"MT":300,"sideResp":1,"stimulus":"img/250/equaldotanddens/L/3_Ratio_250_L_8_R_2.png","xmouse":[754,754,754,754,754,754,754,754,754,754,754,754,754,754,754,754,754,754,754,754,754,754,754,754,754,754,754,754,754,754,754,754,754,754,754,754,754,754,754,754,755,755,744,670,616,541,513,500,485,480,477,474,472,467,466,466,466,466,467],"ymouse":[497,497,497,497,497,497,497,497,497,497,497,497,497,497,497,497,497,497,497,497,497,497,497,497,497,497,497,497,497,497,497,497,497,497,497,497,497,497,497,497,496,494,476,377,318,248,218,199,174,165,160,155,150,143,139,139,135,127,93],"timestamp_mouse":[9,31,49,70,89,109,131,151,170,190,210,230,251,270,289,309,330,349,370,390,411,431,450,470,489,510,531,551,571,590,609,630,651,670,689,710,730,750,770,790,810,830,849,870,890,910,929,949,970,989,1010,1030,1049,1070,1089,1109,1131,1150,1170],"xSR":741.5,"ySR":469.95,"xT1":424.9,"yT1":0,"xT2":1058.1,"yT2":0,"toosoon":0,"cond_shown":"equaldotanddens","ratio_trial":250,"smaller_num":"2","larger_num":"8","correct_side":1,"subjID":"JuanFelipeZambranoJoya33","gender":"0","age":"9","school":"4"},{"start_time":1552074743537,"click_time":1552074745590,"finger_time":1552074744569,"fix_duration":285.73348810421186,"trial":2,"RT":1032,"MT":1021,"sideResp":2,"stimulus":"img/750/equaldotsize/L/13_Ratio_750_L_8_R_6.png","xmouse":[801,801,801,801,801,801,801,801,801,801,801,801,801,801,801,801,801,801,801,801,801,801,801,801,801,801,801,801,801,801,801,801,801,801,801,801,801,801,801,801,801,801,801,801,801,801,801,801,801,804,818,869,973,1106,1161,1196,1219,1230,1233,1233,1233,1233,1233,1233,1233,1233,1233,1231,1229,1228,1227,1226,1224,1218,1215,1213,1210,1208,1203,1201,1196,1194,1190,1185,1183,1179,1177,1175,1175,1175,1175,1175,1175,1175,1175,1175,1175,1175,1174,1172,1169,1160,1155],"ymouse":[511,511,511,511,511,511,511,511,511,511,511,511,511,511,511,511,511,511,511,511,511,511,511,511,511,511,511,511,511,511,511,511,511,511,511,511,511,511,511,511,511,511,511,511,511,511,511,511,511,511,494,428,326,219,179,155,138,126,121,121,121,121,121,121,121,119,116,112,110,109,108,107,107,105,105,105,105,105,105,105,105,106,108,110,112,115,116,118,118,118,118,118,118,118,118,118,118,118,116,110,101,86,77],"timestamp_mouse":[11,31,51,71,91,111,131,151,171,191,212,232,251,273,292,312,332,352,372,393,412,431,453,472,493,513,533,553,571,593,611,631,651,671,692,711,731,751,771,792,811,833,851,872,893,911,931,953,972,993,1011,1032,1051,1071,1091,1111,1132,1151,1171,1193,1212,1232,1252,1271,1292,1311,1331,1353,1371,1392,1412,1432,1452,1471,1491,1512,1531,1551,1571,1592,1612,1632,1652,1672,1691,1712,1731,1753,1773,1791,1811,1832,1852,1873,1891,1912,1931,1951,1971,1991,2011,2031,2052],"xSR":741.5,"ySR":469.95,"xT1":424.9,"yT1":0,"xT2":1058.1,"yT2":0,"toosoon":0,"cond_shown":"equaldotsize","ratio_trial":750,"smaller_num":"6","larger_num":"8","correct_side":1,"subjID":"JuanFelipeZambranoJoya33","gender":"0","age":"9","school":"4"},{"start_time":1552074750964,"click_time":1552074753410,"finger_time":1552074752029,"fix_duration":1493.1459666062037,"trial":3,"RT":1065,"MT":1381,"sideResp":2,"stimulus":"img/900/randomdotsizeEA/R/5_Ratio_900_L_9_R_10.png","xmouse":[767,767,767,767,767,767,767,767,767,767,767,767,767,767,767,767,767,767,767,767,767,767,767,767,767,767,767,767,767,767,767,767,767,767,767,767,767,767,767,767,767,767,767,767,767,767,767,767,767,767,767,767,774,812,855,908,945,961,961,961,961,961,961,961,961,961,961,961,956,946,939,935,935,935,935,935,935,935,935,935,935,935,935,935,935,935,935,935,935,935,935,935,935,935,935,935,935,935,935,935,935,935,935,935,935,935,935,935,935,935,935,940,949,978,992,1003,1011,1016,1031,1040,1049,1055,1059],"ymouse":[509,509,509,509,509,509,509,509,509,509,509,509,509,509,509,509,509,509,509,509,509,509,509,509,509,509,509,509,509,509,509,509,509,509,509,509,509,509,509,509,509,509,509,509,509,509,509,509,509,509,509,508,482,379,316,255,223,207,207,207,207,207,207,207,207,207,207,206,215,231,242,246,246,246,246,246,246,246,246,246,246,246,246,246,246,246,246,246,246,246,246,246,246,246,246,246,246,246,246,246,246,246,246,246,246,246,246,246,246,246,246,233,217,166,146,132,119,109,85,75,66,61,58],"timestamp_mouse":[8,31,45,64,85,106,126,145,165,186,206,224,245,264,284,305,325,345,365,384,406,425,444,466,484,504,525,545,565,586,605,625,645,664,686,704,724,745,764,784,806,825,846,865,885,905,925,945,964,984,1006,1025,1045,1065,1084,1104,1124,1146,1165,1185,1205,1224,1244,1264,1285,1308,1324,1345,1364,1385,1405,1424,1444,1464,1485,1505,1524,1544,1565,1584,1604,1625,1646,1664,1684,1705,1724,1744,1764,1785,1805,1826,1845,1866,1885,1904,1925,1944,1964,1984,2005,2024,2044,2065,2085,2106,2125,2145,2164,2184,2205,2224,2244,2265,2285,2305,2325,2344,2364,2384,2405,2425,2446],"xSR":741.5,"ySR":469.95,"xT1":424.9,"yT1":0,"xT2":1058.1,"yT2":0,"toosoon":0,"cond_shown":"randomdotsizeEA","ratio_trial":900,"smaller_num":"9","larger_num":"10","correct_side":2,"subjID":"JuanFelipeZambranoJoya33","gender":"0","age":"9","school":"4"},{"start_time":1552074756739,"click_time":1552074757970,"finger_time":1552074757608,"fix_duration":387.7427365397017,"trial":4,"RT":869,"MT":362,"sideResp":1,"stimulus":"img/500/equaldotsize/L/8_Ratio_500_L_8_R_4.png","xmouse":[772,772,772,772,772,772,772,772,772,772,772,772,772,772,772,773,773,773,773,773,773,773,773,773,773,773,773,773,773,773,773,773,773,773,773,773,773,773,773,773,773,773,764,748,667,637,626,624,624,624,624,622,621,619,606,592,582,568,556,534,526,518],"ymouse":[517,517,517,517,517,517,517,517,517,517,517,517,517,517,517,516,515,514,513,513,513,513,513,513,513,513,513,513,513,513,513,513,513,513,513,513,513,513,513,513,513,513,492,456,302,260,248,245,245,245,244,236,234,228,188,154,131,109,91,62,54,48],"timestamp_mouse":[11,35,51,70,90,110,130,149,170,190,211,230,250,271,289,310,329,350,369,391,410,429,450,469,491,510,530,550,571,589,609,630,651,670,689,710,729,751,769,789,810,829,849,869,891,909,930,949,969,990,1009,1031,1050,1069,1090,1109,1130,1149,1170,1190,1209,1231],"xSR":741.5,"ySR":469.95,"xT1":424.9,"yT1":0,"xT2":1058.1,"yT2":0,"toosoon":0,"cond_shown":"equaldotsize","ratio_trial":500,"smaller_num":"4","larger_num":"8","correct_side":1,"subjID":"JuanFelipeZambranoJoya33","gender":"0","age":"9","school":"4"},{"start_time":1552074759601,"click_time":1552074760749,"finger_time":1552074760408,"fix_duration":250,"trial":5,"RT":807,"MT":341,"sideResp":2,"stimulus":"img/750/equaldotanddens/R/11_Ratio_750_L_12_R_16.png","xmouse":[800,800,800,800,800,800,800,800,800,800,800,800,800,800,800,800,800,800,802,805,813,817,819,819,819,819,819,819,819,819,819,819,819,819,819,819,819,819,819,832,845,893,916,944,954,963,992,1003,1013,1021,1029,1041,1047,1048,1048,1049,1053,1062],"ymouse":[556,556,556,556,556,556,556,556,556,556,556,556,556,556,556,556,556,556,551,541,518,503,494,494,494,494,494,494,494,494,494,494,494,494,494,494,494,494,494,470,446,343,289,223,201,179,112,87,64,48,35,13,6,4,4,4,4,4],"timestamp_mouse":[8,30,48,68,87,108,127,147,167,189,207,228,247,268,289,308,328,348,367,388,408,428,448,469,489,508,528,547,568,588,608,627,649,669,688,708,727,748,767,787,807,829,847,869,889,907,928,947,967,989,1009,1029,1047,1068,1089,1108,1130,1148],"xSR":741.5,"ySR":469.95,"xT1":424.9,"yT1":0,"xT2":1058.1,"yT2":0,"toosoon":0,"cond_shown":"equaldotanddens","ratio_trial":750,"smaller_num":"12","larger_num":"16","correct_side":2,"subjID":"JuanFelipeZambranoJoya33","gender":"0","age":"9","school":"4"},{"start_time":1552074762312,"click_time":1552074763449,"finger_time":1552074763170,"fix_duration":381.0113850402446,"trial":6,"RT":858,"MT":279,"sideResp":2,"stimulus":"img/250/randomdotsizeEA/R/6_Ratio_250_L_6_R_24.png","xmouse":[832,832,832,832,832,832,832,832,832,832,832,832,832,832,832,832,832,832,832,832,832,832,832,832,832,832,832,832,832,832,832,832,832,832,832,832,832,832,832,832,832,833,845,867,886,912,950,963,977,986,996,1019,1032,1045,1055,1066,1076],"ymouse":[493,493,493,493,493,493,493,493,493,493,493,493,493,493,493,493,493,493,493,493,493,493,493,493,493,493,493,493,493,493,493,493,493,493,493,493,493,493,493,493,493,492,475,438,406,370,323,304,284,267,247,211,193,175,157,130,92],"timestamp_mouse":[17,37,56,78,97,116,136,157,177,197,218,236,257,278,296,316,336,356,377,398,416,436,457,477,497,516,537,557,578,597,618,638,658,677,696,717,738,757,777,797,817,837,858,877,897,917,937,956,976,997,1017,1037,1057,1076,1096,1117,1137],"xSR":741.5,"ySR":469.95,"xT1":424.9,"yT1":0,"xT2":1058.1,"yT2":0,"toosoon":0,"cond_shown":"randomdotsizeEA","ratio_trial":250,"smaller_num":"6","larger_num":"24","correct_side":2,"subjID":"JuanFelipeZambranoJoya33","gender":"0","age":"9","school":"4"},{"start_time":1552074765757,"click_time":1552074769549,"finger_time":1552074767149,"fix_duration":1167.578391305379,"trial":7,"RT":1392,"MT":2400,"sideResp":1,"stimulus":"img/900/equaldotsize/R/9_Ratio_900_L_18_R_20.png","xmouse":[781,781,781,781,781,781,781,781,781,781,781,781,781,781,781,781,781,781,781,781,781,781,781,781,781,781,781,781,781,781,781,781,781,781,781,781,781,781,781,781,781,781,781,781,781,781,781,781,781,781,781,781,781,781,781,781,781,781,781,781,781,781,781,781,781,781,782,782,779,767,756,749,743,738,726,719,712,706,702,695,691,689,688,687,685,685,683,678,672,664,644,635,633,631,631,632,636,644,660,721,780,902,994,1095,1190,1320,1343,1355,1355,1355,1356,1329,1297,1239,1183,1103,1081,1073,1071,1083,1119,1191,1245,1312,1452,1493,1511,1514,1514,1514,1514,1514,1508,1492,1455,1292,1200,1142,1103,1071,1065,1064,1063,1057,1038,1033,1032,1032,1036,1047,1047,1048,1048,1048,1048,1048,1048,1048,1048,1048,1044,1039,1033,1028,1020,980,935,875,806,627,467,382,315,282,268,267,269,272,276,282,322,347,367,377,385,398,412,418,424,427],"ymouse":[498,498,498,498,498,498,498,498,498,498,498,498,498,498,498,498,498,498,498,498,498,498,498,498,498,498,498,498,498,498,498,498,498,498,498,498,498,498,498,498,498,498,498,498,498,498,498,498,498,498,498,498,498,498,498,498,498,498,498,498,498,498,498,498,498,498,492,486,470,439,415,402,394,387,376,371,366,361,358,352,350,349,349,349,349,349,349,354,366,386,437,474,497,519,560,579,599,620,641,677,688,700,700,699,686,676,672,670,670,670,669,656,641,620,600,569,558,551,549,535,509,475,452,424,390,385,385,384,384,384,384,384,384,384,375,309,270,241,220,186,165,152,139,123,99,92,87,82,78,72,72,72,72,72,72,72,72,73,77,90,105,116,129,139,152,188,211,230,242,243,211,185,154,133,121,111,106,103,100,97,79,72,65,63,61,57,53,52,51,51],"timestamp_mouse":[11,34,52,71,92,111,131,153,172,192,212,231,252,272,291,312,333,352,372,393,412,431,452,473,492,513,531,553,573,592,612,632,653,672,691,711,731,752,772,793,812,831,853,871,891,911,933,952,972,992,1012,1031,1051,1071,1091,1112,1132,1151,1172,1191,1212,1233,1251,1273,1291,1311,1332,1351,1372,1392,1411,1432,1451,1472,1492,1511,1533,1553,1572,1592,1611,1631,1651,1673,1692,1712,1732,1752,1771,1792,1812,1832,1851,1872,1891,1911,1932,1952,1973,1993,2012,2032,2052,2072,2092,2111,2131,2152,2171,2192,2212,2232,2251,2271,2292,2312,2331,2352,2372,2393,2411,2431,2451,2472,2493,2511,2531,2551,2573,2592,2611,2631,2651,2671,2691,2712,2733,2752,2773,2792,2811,2831,2852,2871,2892,2911,2931,2952,2971,2993,3011,3032,3053,3073,3092,3117,3131,3153,3172,3192,3211,3232,3251,3271,3291,3311,3332,3352,3371,3393,3411,3432,3452,3472,3492,3511,3532,3552,3573,3592,3613,3632,3652,3671,3693,3711,3731,3752,3773,3792],"xSR":741.5,"ySR":469.95,"xT1":424.9,"yT1":0,"xT2":1058.1,"yT2":0,"toosoon":0,"cond_shown":"equaldotsize","ratio_trial":900,"smaller_num":"18","larger_num":"20","correct_side":2,"subjID":"JuanFelipeZambranoJoya33","gender":"0","age":"9","school":"4"},{"start_time":1552074772276,"click_time":1552074773549,"finger_time":1552074773090,"fix_duration":564.1155657473342,"trial":8,"RT":814,"MT":459,"sideResp":2,"stimulus":"img/900/equaldotanddens/R/12_Ratio_900_L_18_R_20.png","xmouse":[809,809,809,809,809,809,809,809,809,809,809,809,809,809,809,809,809,809,809,809,809,809,809,809,809,809,809,809,809,809,809,809,809,809,809,809,809,809,814,838,861,896,935,985,1019,1033,1047,1061,1069,1074,1074,1073,1071,1070,1068,1065,1058,1055,1055,1055,1055,1056,1057,1059],"ymouse":[558,558,558,558,558,558,558,558,558,558,558,558,558,558,558,558,558,558,558,558,558,558,558,558,558,558,558,558,558,558,558,558,558,558,558,558,558,558,541,486,442,388,350,309,273,257,241,226,215,202,197,194,190,185,171,150,130,115,101,78,73,70,69,68],"timestamp_mouse":[12,38,52,72,94,112,133,153,174,192,213,232,254,272,292,313,333,352,372,394,414,433,452,472,494,513,533,552,573,592,614,633,654,673,692,713,733,753,772,792,814,832,852,873,892,914,933,952,972,992,1012,1033,1053,1072,1092,1112,1132,1153,1172,1193,1213,1233,1252,1273],"xSR":741.5,"ySR":469.95,"xT1":424.9,"yT1":0,"xT2":1058.1,"yT2":0,"toosoon":0,"cond_shown":"equaldotanddens","ratio_trial":900,"smaller_num":"18","larger_num":"20","correct_side":2,"subjID":"JuanFelipeZambranoJoya33","gender":"0","age":"9","school":"4"},{"start_time":1552074776041,"click_time":1552074778129,"finger_time":1552074777409,"fix_duration":1450.5367245631196,"trial":9,"RT":1368,"MT":720,"sideResp":2,"stimulus":"img/750/equaldotsize/L/14_Ratio_750_L_8_R_6.png","xmouse":[805,805,805,805,805,805,805,805,805,805,805,805,805,805,805,805,805,805,805,805,805,805,805,805,805,805,805,805,805,805,805,805,805,805,805,805,805,805,805,805,805,805,805,805,805,805,805,805,805,805,805,805,805,805,805,805,805,805,805,805,805,805,805,805,805,809,825,834,848,862,875,886,912,923,934,941,950,952,955,956,958,962,981,989,996,1002,1008,1009,1011,1012,1016,1020,1030,1034,1037,1042,1046,1051,1053,1054,1055,1058,1058,1058,1059],"ymouse":[540,540,540,540,540,540,540,540,540,540,540,540,540,540,540,540,540,540,540,540,540,540,540,540,540,540,540,540,540,540,540,540,540,540,540,540,540,540,540,540,540,540,540,540,540,540,540,540,540,540,540,540,540,540,540,540,540,540,540,540,540,540,540,540,538,528,493,473,442,410,380,353,296,277,259,246,228,223,218,211,204,192,149,129,114,103,95,93,92,90,87,84,77,75,73,71,69,68,68,68,67,67,67,67,67],"timestamp_mouse":[11,39,47,67,88,109,128,147,168,187,207,227,248,267,287,308,328,348,368,387,408,428,449,467,488,508,528,549,569,587,607,627,648,668,688,708,728,748,767,787,809,827,848,869,887,908,927,948,968,988,1007,1027,1049,1067,1088,1109,1127,1148,1169,1189,1207,1227,1249,1268,1288,1307,1328,1348,1368,1389,1407,1427,1447,1468,1488,1509,1528,1548,1568,1588,1608,1629,1648,1667,1687,1707,1728,1747,1768,1788,1808,1829,1847,1868,1888,1907,1929,1948,1969,1988,2008,2029,2047,2067,2087],"xSR":741.5,"ySR":469.95,"xT1":424.9,"yT1":0,"xT2":1058.1,"yT2":0,"toosoon":0,"cond_shown":"equaldotsize","ratio_trial":750,"smaller_num":"6","larger_num":"8","correct_side":1,"subjID":"JuanFelipeZambranoJoya33","gender":"0","age":"9","school":"4"},{"start_time":1552074780965,"click_time":1552074781409,"finger_time":1552074781229,"fix_duration":1435.1372815313373,"trial":10,"RT":264,"MT":180,"sideResp":1,"stimulus":"img/900/equaldotanddens/R/7_Ratio_900_L_9_R_10.png","xmouse":[823,823,823,823,823,823,823,823,823,823,823,823,818,816,803,792,758,723,684,629,588,525,505],"ymouse":[499,499,499,499,499,499,499,499,499,499,499,499,477,465,426,402,346,306,258,196,156,94,74],"timestamp_mouse":[11,35,43,63,85,103,124,145,163,185,203,224,244,264,284,303,323,343,363,384,403,423,444],"xSR":741.5,"ySR":469.95,"xT1":424.9,"yT1":0,"xT2":1058.1,"yT2":0,"toosoon":0,"cond_shown":"equaldotanddens","ratio_trial":900,"smaller_num":"9","larger_num":"10","correct_side":2,"subjID":"JuanFelipeZambranoJoya33","gender":"0","age":"9","school":"4"},{"start_time":1552074785291,"click_time":1552074786450,"finger_time":1552074786269,"fix_duration":1282.8157992833765,"trial":11,"RT":978,"MT":181,"sideResp":2,"stimulus":"img/900/equaldotsize/R/11_Ratio_900_L_18_R_20.png","xmouse":[802,802,802,802,802,802,802,802,802,802,802,802,802,802,802,802,802,802,802,802,802,802,802,802,802,802,802,802,802,802,802,802,802,802,802,802,802,802,802,802,802,802,802,802,802,802,802,802,812,845,937,973,992,1002,1023,1042,1056,1068],"ymouse":[500,500,500,500,500,500,500,500,500,500,500,500,500,500,500,500,500,500,500,500,500,500,500,500,500,500,500,500,500,500,500,500,500,500,500,500,500,500,500,500,500,500,500,500,500,500,500,499,466,396,211,142,110,89,58,33,19,9],"timestamp_mouse":[29,37,58,78,98,118,138,158,178,198,217,237,259,277,298,317,339,357,378,398,417,438,458,478,499,518,537,559,578,597,619,639,658,678,698,718,738,757,779,798,817,838,858,879,898,918,938,960,978,998,1017,1038,1058,1077,1099,1118,1138,1159],"xSR":741.5,"ySR":469.95,"xT1":424.9,"yT1":0,"xT2":1058.1,"yT2":0,"toosoon":0,"cond_shown":"equaldotsize","ratio_trial":900,"smaller_num":"18","larger_num":"20","correct_side":2,"subjID":"JuanFelipeZambranoJoya33","gender":"0","age":"9","school":"4"},{"start_time":1552074788891,"click_time":1552074790572,"finger_time":1552074790252,"fix_duration":1356.0399367047814,"trial":12,"RT":1361,"MT":320,"sideResp":2,"stimulus":"img/250/equaldotsize/R/13_Ratio_250_L_2_R_8.png","xmouse":[787,787,787,787,787,787,785,784,784,784,784,784,784,784,784,784,784,784,784,784,784,784,784,784,784,784,784,784,784,784,784,784,784,784,784,784,784,784,784,784,784,784,784,784,784,784,784,784,784,784,784,784,784,784,784,784,784,784,784,784,784,784,784,784,787,793,803,808,815,827,841,887,926,961,988,1005,1009,1010,1011,1015,1021,1027,1031,1041,1059],"ymouse":[551,551,551,551,551,551,539,537,537,537,537,537,537,537,537,537,537,537,537,537,537,537,537,537,537,537,537,537,537,537,537,537,537,537,537,537,537,537,537,537,537,537,537,537,537,537,537,537,537,537,533,531,531,531,531,531,531,531,531,531,531,531,531,531,521,510,489,478,466,451,435,363,304,252,215,194,188,186,179,164,148,128,119,102,77],"timestamp_mouse":[9,32,40,61,81,102,120,141,162,181,201,222,241,260,281,301,321,341,362,382,402,420,441,462,481,502,521,542,562,581,602,622,642,661,682,701,722,741,761,782,801,822,841,861,882,901,922,942,962,982,1001,1021,1042,1062,1081,1101,1121,1142,1161,1182,1201,1222,1241,1261,1281,1301,1321,1342,1361,1381,1401,1421,1441,1461,1481,1502,1521,1540,1561,1581,1602,1621,1642,1662,1681],"xSR":741.5,"ySR":469.95,"xT1":424.9,"yT1":0,"xT2":1058.1,"yT2":0,"toosoon":0,"cond_shown":"equaldotsize","ratio_trial":250,"smaller_num":"2","larger_num":"8","correct_side":2,"subjID":"JuanFelipeZambranoJoya33","gender":"0","age":"9","school":"4"},{"start_time":1552074793123,"click_time":1552074794313,"finger_time":1552074794012,"fix_duration":250,"trial":13,"RT":889,"MT":301,"sideResp":1,"stimulus":"img/500/equaldotsize/L/10_Ratio_500_L_4_R_2.png","xmouse":[743,743,743,743,743,743,743,743,743,743,743,743,743,743,743,743,743,743,743,743,743,743,743,743,743,743,743,743,743,743,743,743,743,743,743,743,743,743,743,743,743,743,743,743,724,701,678,659,644,612,588,572,557,545,537,536,535,535,534,524],"ymouse":[494,494,494,494,494,494,494,494,494,494,494,494,494,494,494,494,494,494,494,494,494,494,494,494,494,494,494,494,494,494,494,494,494,494,494,494,494,494,494,494,494,494,494,494,494,494,494,490,473,379,264,190,149,130,120,119,114,102,85,55],"timestamp_mouse":[9,34,50,69,89,109,129,150,170,189,209,230,249,269,289,309,330,349,368,390,410,430,450,470,490,510,530,550,568,589,610,628,650,670,688,710,730,749,769,789,809,829,850,870,889,908,929,950,970,990,1009,1028,1050,1069,1090,1109,1130,1149,1169,1190],"xSR":741.5,"ySR":469.95,"xT1":424.9,"yT1":0,"xT2":1058.1,"yT2":0,"toosoon":0,"cond_shown":"equaldotsize","ratio_trial":500,"smaller_num":"2","larger_num":"4","correct_side":1,"subjID":"JuanFelipeZambranoJoya33","gender":"0","age":"9","school":"4"},{"start_time":1552074795972,"click_time":1552074797314,"finger_time":1552074797012,"fix_duration":877.1689675999856,"trial":14,"RT":1040,"MT":302,"sideResp":2,"stimulus":"img/500/equaldotanddens/R/2_Ratio_500_L_3_R_6.png","xmouse":[767,767,767,767,767,767,767,767,767,767,767,767,767,767,767,767,767,767,767,767,767,767,767,767,767,767,767,767,767,767,767,767,767,767,767,767,767,767,767,767,767,767,767,767,767,767,767,767,767,767,767,776,793,871,925,983,1022,1049,1063,1066,1066,1067,1067,1067,1067,1070,1075,1082],"ymouse":[501,501,501,501,501,501,501,501,501,501,501,501,501,501,501,501,501,501,501,501,501,501,501,501,501,501,501,501,501,501,501,501,501,501,501,501,501,501,501,501,501,501,501,501,501,501,501,501,501,501,501,487,467,390,335,265,213,166,141,136,135,135,135,135,134,124,108,80],"timestamp_mouse":[14,24,40,60,81,100,121,141,161,180,201,220,241,259,280,301,320,341,361,381,401,420,441,461,480,501,521,539,561,580,600,621,640,661,681,700,721,741,761,781,801,820,841,861,881,901,921,941,961,981,1000,1021,1040,1060,1080,1100,1120,1142,1160,1180,1200,1220,1241,1260,1279,1300,1321,1342],"xSR":741.5,"ySR":469.95,"xT1":424.9,"yT1":0,"xT2":1058.1,"yT2":0,"toosoon":0,"cond_shown":"equaldotanddens","ratio_trial":500,"smaller_num":"3","larger_num":"6","correct_side":2,"subjID":"JuanFelipeZambranoJoya33","gender":"0","age":"9","school":"4"},{"start_time":1552074799243,"click_time":1552074800393,"finger_time":1552074800253,"fix_duration":969.6920819338807,"trial":15,"RT":1010,"MT":140,"sideResp":1,"stimulus":"img/750/equaldotsize/L/6_Ratio_750_L_24_R_18.png","xmouse":[794,794,794,794,794,794,794,794,794,794,794,794,794,794,794,794,794,794,794,794,796,799,799,799,799,799,799,799,799,799,799,799,799,799,799,799,799,799,799,799,799,799,799,799,799,799,799,799,799,796,785,744,699,659,565,527,508,496],"ymouse":[495,495,495,495,495,495,495,495,495,495,495,495,495,495,495,495,495,495,495,495,486,479,479,479,479,479,479,479,479,479,479,479,479,479,479,479,479,479,479,479,479,479,479,479,479,479,479,479,479,477,467,413,350,283,163,122,100,84],"timestamp_mouse":[11,33,50,70,89,110,128,148,170,190,210,230,249,269,289,310,329,350,369,389,409,429,449,470,489,509,530,549,569,590,609,630,650,670,690,709,728,749,769,789,810,829,849,870,890,909,930,948,970,989,1010,1030,1050,1070,1089,1109,1130,1150],"xSR":741.5,"ySR":469.95,"xT1":424.9,"yT1":0,"xT2":1058.1,"yT2":0,"toosoon":0,"cond_shown":"equaldotsize","ratio_trial":750,"smaller_num":"18","larger_num":"24","correct_side":1,"subjID":"JuanFelipeZambranoJoya33","gender":"0","age":"9","school":"4"},{"start_time":1552074803530,"click_time":1552074805652,"finger_time":1552074804412,"fix_duration":1195.8172895441292,"trial":16,"RT":882,"MT":1240,"sideResp":1,"stimulus":"img/500/randomdotsizeEA/R/1_Ratio_500_L_9_R_18.png","xmouse":[801,801,801,801,801,801,801,801,801,801,801,801,801,801,801,801,801,801,801,801,801,801,801,801,801,801,801,801,801,801,801,801,801,801,801,801,801,801,800,799,794,787,785,784,784,784,791,797,802,806,807,798,784,766,744,725,699,689,676,658,631,620,602,572,533,520,488,487,487,487,487,484,484,483,483,483,483,484,485,485,485,485,485,485,485,478,476,476,476,476,475,473,472,468,467,466,466,466,466,466,466,467,468,468,469,470,470],"ymouse":[526,526,526,526,526,526,526,526,526,526,526,526,526,526,526,526,526,526,526,526,526,526,526,526,526,526,526,526,526,526,526,526,526,526,526,526,526,526,526,524,513,497,488,477,469,460,427,410,383,343,275,259,248,242,237,236,229,225,219,211,198,195,188,181,167,158,139,139,139,139,138,135,133,133,130,126,123,122,121,121,121,121,121,121,121,121,123,123,123,123,123,123,123,123,123,123,121,121,121,121,120,117,115,112,108,104,99],"timestamp_mouse":[9,34,42,63,82,102,122,143,163,181,203,222,243,263,282,302,322,342,363,383,403,422,443,463,482,504,523,542,563,583,602,623,643,663,683,702,722,743,762,782,803,823,843,863,882,902,921,942,962,982,1003,1022,1042,1063,1082,1102,1122,1143,1163,1182,1203,1222,1242,1262,1282,1303,1322,1343,1363,1383,1403,1422,1443,1462,1481,1503,1522,1542,1563,1583,1603,1623,1643,1661,1682,1704,1722,1742,1763,1783,1801,1822,1843,1863,1882,1902,1922,1943,1962,1982,2003,2022,2042,2063,2082,2103,2122],"xSR":741.5,"ySR":469.95,"xT1":424.9,"yT1":0,"xT2":1058.1,"yT2":0,"toosoon":0,"cond_shown":"randomdotsizeEA","ratio_trial":500,"smaller_num":"9","larger_num":"18","correct_side":2,"subjID":"JuanFelipeZambranoJoya33","gender":"0","age":"9","school":"4"},{"start_time":1552074808615,"click_time":1552074809833,"finger_time":1552074809693,"fix_duration":380.4216674888835,"trial":17,"RT":1078,"MT":140,"sideResp":1,"stimulus":"img/250/randomdotsizeEA/L/5_Ratio_250_L_24_R_6.png","xmouse":[760,760,760,760,760,760,760,760,760,760,760,760,760,760,760,760,760,760,760,760,760,760,760,760,760,760,760,760,760,760,760,760,760,760,760,760,760,760,760,760,760,760,760,760,760,760,760,760,760,760,760,760,748,698,645,604,548,533,517,509,502],"ymouse":[506,506,506,506,506,506,506,506,506,506,506,506,506,506,506,506,506,506,506,506,506,506,506,506,506,506,506,506,506,506,506,506,506,506,506,506,506,506,506,506,506,506,506,506,506,506,506,506,506,506,506,506,488,397,319,266,186,165,135,114,91],"timestamp_mouse":[17,37,57,78,97,118,137,157,178,197,218,238,258,277,298,318,337,357,378,396,417,438,457,478,497,518,537,557,576,598,617,637,656,677,697,718,737,757,777,798,817,837,858,878,898,917,937,957,978,997,1018,1037,1058,1078,1097,1117,1137,1158,1177,1197,1218],"xSR":741.5,"ySR":469.95,"xT1":424.9,"yT1":0,"xT2":1058.1,"yT2":0,"toosoon":0,"cond_shown":"randomdotsizeEA","ratio_trial":250,"smaller_num":"6","larger_num":"24","correct_side":1,"subjID":"JuanFelipeZambranoJoya33","gender":"0","age":"9","school":"4"},{"start_time":1552074812830,"click_time":1552074814052,"finger_time":1552074813733,"fix_duration":1056.491593391389,"trial":18,"RT":903,"MT":319,"sideResp":2,"stimulus":"img/900/equaldotanddens/L/10_Ratio_900_L_20_R_18.png","xmouse":[750,750,750,750,750,750,750,750,750,750,750,750,750,750,750,750,750,750,750,750,750,750,750,750,750,750,750,750,750,750,750,750,750,750,750,750,750,750,750,750,750,750,750,752,761,804,850,953,990,1020,1044,1063,1089,1098,1102,1106,1110,1112,1112,1114,1116,1121],"ymouse":[509,509,509,509,509,509,509,509,509,509,509,509,509,509,509,509,509,509,509,509,509,509,509,509,509,509,509,509,509,509,509,509,509,509,509,509,509,509,509,509,509,509,509,509,497,435,386,287,259,238,219,203,178,165,156,147,136,125,120,113,106,94],"timestamp_mouse":[8,22,43,61,83,103,123,143,163,182,203,223,242,261,283,303,322,343,362,383,402,423,442,463,482,501,523,543,562,582,602,623,642,662,683,703,723,743,763,783,802,822,842,863,882,903,923,942,963,982,1003,1022,1042,1062,1081,1102,1123,1142,1162,1182,1202,1222],"xSR":741.5,"ySR":469.95,"xT1":424.9,"yT1":0,"xT2":1058.1,"yT2":0,"toosoon":0,"cond_shown":"equaldotanddens","ratio_trial":900,"smaller_num":"18","larger_num":"20","correct_side":1,"subjID":"JuanFelipeZambranoJoya33","gender":"0","age":"9","school":"4"},{"start_time":1552074816564,"click_time":1552074817593,"finger_time":1552074817232,"fix_duration":471.5390760854674,"trial":19,"RT":668,"MT":361,"sideResp":1,"stimulus":"img/250/equaldotsize/L/14_Ratio_250_L_12_R_3.png","xmouse":[813,813,813,813,813,813,813,813,813,813,813,813,813,813,813,813,813,813,813,813,813,813,813,813,813,813,813,813,813,813,813,813,812,806,779,674,614,559,542,532,528,528,528,528,528,528,528,528,528,528,527,523],"ymouse":[496,496,496,496,496,496,496,496,496,496,496,496,496,496,496,496,496,496,496,496,496,496,496,496,496,496,496,496,496,496,496,496,494,461,367,177,103,44,26,13,5,5,5,5,5,5,5,5,5,5,11,25],"timestamp_mouse":[9,36,49,69,88,109,127,149,169,188,209,228,249,268,289,309,329,349,368,389,408,429,449,468,489,509,528,547,569,589,609,628,649,668,688,708,728,748,769,789,808,827,849,868,888,908,929,948,969,988,1008,1029],"xSR":741.5,"ySR":469.95,"xT1":424.9,"yT1":0,"xT2":1058.1,"yT2":0,"toosoon":0,"cond_shown":"equaldotsize","ratio_trial":250,"smaller_num":"3","larger_num":"12","correct_side":1,"subjID":"JuanFelipeZambranoJoya33","gender":"0","age":"9","school":"4"},{"start_time":1552074819394,"click_time":1552074820392,"finger_time":1552074820053,"fix_duration":681.1157875011567,"trial":20,"RT":659,"MT":339,"sideResp":2,"stimulus":"img/250/randomdotsizeEA/R/12_Ratio_250_L_5_R_20.png","xmouse":[792,792,792,792,792,792,792,792,792,792,792,792,792,792,792,792,792,792,792,792,792,792,792,792,792,792,792,792,792,792,792,792,807,824,918,987,1006,1010,1010,1010,1010,1010,1010,1010,1010,1010,1010,1010,1044,1070],"ymouse":[479,479,479,479,479,479,479,479,479,479,479,479,479,479,479,479,479,479,479,479,479,479,479,479,479,479,479,479,479,479,479,479,462,435,273,174,153,148,148,148,148,148,148,148,148,148,148,148,101,64],"timestamp_mouse":[31,38,58,78,99,119,137,158,178,199,219,239,257,277,299,319,339,358,377,399,419,438,459,478,499,517,538,559,578,598,619,638,659,679,698,719,739,759,778,799,818,839,859,879,899,918,939,959,979,998],"xSR":741.5,"ySR":469.95,"xT1":424.9,"yT1":0,"xT2":1058.1,"yT2":0,"toosoon":0,"cond_shown":"randomdotsizeEA","ratio_trial":250,"smaller_num":"5","larger_num":"20","correct_side":2,"subjID":"JuanFelipeZambranoJoya33","gender":"0","age":"9","school":"4"},{"start_time":1552074821883,"click_time":1552074823192,"finger_time":1552074822493,"fix_duration":250,"trial":21,"RT":610,"MT":699,"sideResp":2,"stimulus":"img/250/randomdotsizeEA/R/9_Ratio_250_L_3_R_12.png","xmouse":[800,800,800,800,800,800,800,800,800,800,800,800,800,800,800,800,800,800,800,800,800,800,800,800,800,800,800,800,799,823,862,904,948,993,1042,1158,1209,1231,1243,1247,1249,1252,1258,1261,1263,1263,1263,1263,1260,1238,1212,1198,1184,1176,1171,1166,1166,1166,1166,1166,1166,1166,1165,1165,1162,1153],"ymouse":[545,545,545,545,545,545,545,545,545,545,545,545,545,545,545,545,545,545,545,545,545,545,545,545,545,545,545,545,542,494,436,383,334,290,246,154,127,114,110,108,104,96,85,77,70,68,67,66,63,59,59,60,61,61,61,61,61,61,61,61,61,61,61,61,61,67],"timestamp_mouse":[15,47,49,69,89,109,129,149,169,189,209,230,248,270,290,309,329,349,370,390,409,428,448,470,489,509,530,550,570,590,610,629,649,670,689,709,729,750,770,789,809,830,849,869,890,909,929,950,970,989,1008,1030,1049,1070,1088,1109,1129,1148,1169,1190,1209,1229,1249,1269,1290,1309],"xSR":741.5,"ySR":469.95,"xT1":424.9,"yT1":0,"xT2":1058.1,"yT2":0,"toosoon":0,"cond_shown":"randomdotsizeEA","ratio_trial":250,"smaller_num":"3","larger_num":"12","correct_side":2,"subjID":"JuanFelipeZambranoJoya33","gender":"0","age":"9","school":"4"},{"start_time":1552074826056,"click_time":1552074827212,"finger_time":1552074826853,"fix_duration":443.97505451820285,"trial":22,"RT":797,"MT":359,"sideResp":2,"stimulus":"img/750/randomdotsizeEA/R/4_Ratio_750_L_15_R_20.png","xmouse":[759,759,759,759,759,759,759,759,759,759,759,760,760,760,760,760,760,760,760,760,760,760,760,760,760,760,760,760,760,760,760,760,760,760,760,760,760,760,789,862,964,1143,1178,1185,1185,1185,1185,1185,1185,1185,1185,1185,1185,1185,1185,1186,1182,1139],"ymouse":[542,542,542,542,542,542,542,542,542,542,542,542,542,542,542,542,542,542,542,542,542,542,542,542,542,542,542,542,542,542,542,542,542,542,542,542,542,542,515,429,325,178,156,153,153,153,153,153,153,153,153,153,153,153,153,153,141,39],"timestamp_mouse":[16,36,57,76,97,115,137,157,177,196,217,236,256,276,297,316,336,357,377,397,416,436,457,476,496,516,535,556,577,597,616,637,655,677,696,717,737,757,777,797,817,836,857,876,897,917,936,956,976,997,1016,1037,1056,1076,1096,1117,1136,1156],"xSR":741.5,"ySR":469.95,"xT1":424.9,"yT1":0,"xT2":1058.1,"yT2":0,"toosoon":0,"cond_shown":"randomdotsizeEA","ratio_trial":750,"smaller_num":"15","larger_num":"20","correct_side":2,"subjID":"JuanFelipeZambranoJoya33","gender":"0","age":"9","school":"4"},{"start_time":1552074829427,"click_time":1552074831212,"finger_time":1552074830013,"fix_duration":412.9827961646425,"trial":23,"RT":586,"MT":1199,"sideResp":2,"stimulus":"img/500/randomdotsizeEA/R/9_Ratio_500_L_2_R_4.png","xmouse":[789,789,789,789,789,789,789,789,789,789,789,789,789,789,789,789,789,789,789,789,789,789,789,789,789,789,789,789,801,880,903,919,931,940,962,977,991,1006,1023,1034,1042,1049,1053,1054,1054,1054,1054,1054,1054,1054,1054,1054,1052,1042,1013,1000,988,980,969,887,835,777,733,710,703,703,703,703,703,703,703,703,703,703,718,737,765,798,883,905,925,944,965,995,1009,1022,1037,1050,1057,1061],"ymouse":[516,516,516,516,516,516,516,516,516,516,516,516,516,516,516,516,516,516,516,516,516,516,516,516,516,516,516,515,493,397,377,362,351,342,312,295,278,262,234,214,198,184,174,170,169,169,169,169,169,169,169,169,170,182,203,208,213,216,221,240,247,249,249,249,249,249,249,249,249,249,249,249,249,249,232,220,209,199,171,160,149,140,128,106,93,82,71,65,61,57],"timestamp_mouse":[12,33,46,65,85,105,125,146,165,185,206,225,246,266,286,306,324,346,366,385,405,426,446,466,484,506,525,545,565,586,605,625,646,665,685,705,726,745,766,785,806,826,846,866,886,904,925,945,967,985,1005,1024,1045,1065,1085,1105,1126,1146,1165,1185,1205,1226,1245,1265,1286,1305,1325,1345,1365,1385,1406,1425,1444,1464,1485,1505,1526,1545,1567,1585,1605,1625,1645,1667,1684,1706,1725,1746,1765,1785],"xSR":741.5,"ySR":469.95,"xT1":424.9,"yT1":0,"xT2":1058.1,"yT2":0,"toosoon":0,"cond_shown":"randomdotsizeEA","ratio_trial":500,"smaller_num":"2","larger_num":"4","correct_side":2,"subjID":"JuanFelipeZambranoJoya33","gender":"0","age":"9","school":"4"},{"start_time":1552074832469,"click_time":1552074833834,"finger_time":1552074833412,"fix_duration":334.54088074009456,"trial":24,"RT":943,"MT":422,"sideResp":1,"stimulus":"img/900/randomdotsizeEA/L/1_Ratio_900_L_10_R_9.png","xmouse":[809,809,809,809,809,809,809,809,809,809,809,809,809,809,809,809,809,809,809,809,809,809,809,809,809,809,809,809,809,809,809,809,809,809,809,809,809,809,809,809,809,809,809,809,807,793,781,761,752,743,736,728,716,708,698,680,664,633,618,603,591,582,567,561,557,551,543,530,522],"ymouse":[557,557,557,557,557,557,557,557,557,557,557,557,557,557,557,557,557,557,557,557,557,557,557,557,557,557,557,557,557,557,557,557,557,557,557,557,557,557,557,557,557,557,557,549,540,514,496,462,448,436,419,402,372,356,337,310,281,224,189,160,139,124,104,99,97,94,91,86,83],"timestamp_mouse":[10,22,44,63,83,103,122,142,163,184,203,223,244,263,284,303,324,344,364,384,403,423,444,464,483,504,523,543,564,583,604,623,643,664,683,704,723,744,764,784,803,824,842,864,884,904,923,943,963,983,1003,1024,1043,1063,1083,1104,1123,1143,1163,1183,1204,1222,1243,1263,1283,1304,1324,1343,1364],"xSR":741.5,"ySR":469.95,"xT1":424.9,"yT1":0,"xT2":1058.1,"yT2":0,"toosoon":0,"cond_shown":"randomdotsizeEA","ratio_trial":900,"smaller_num":"9","larger_num":"10","correct_side":1,"subjID":"JuanFelipeZambranoJoya33","gender":"0","age":"9","school":"4"},{"start_time":1552074838231,"click_time":1552074840612,"finger_time":1552074839093,"fix_duration":1115.789250966732,"trial":25,"RT":862,"MT":1519,"sideResp":1,"stimulus":"img/900/equaldotanddens/L/8_Ratio_900_L_20_R_18.png","xmouse":[778,778,778,778,778,778,778,778,778,778,778,778,778,778,778,778,778,778,778,778,778,778,778,778,778,778,778,778,778,778,778,778,778,778,778,778,778,778,778,778,777,774,768,754,738,701,688,678,668,659,636,626,613,606,602,592,586,574,559,542,506,486,466,455,451,451,451,451,451,451,451,451,452,452,454,455,455,455,455,455,455,455,455,455,455,455,455,455,455,456,456,456,456,456,456,456,456,456,456,456,458,461,464,464,464,464,464,464,464,464,464,464,464,464,464,464,465,466,467,467],"ymouse":[532,532,532,532,532,532,532,532,532,532,532,532,532,532,532,532,532,532,532,532,532,532,532,532,532,532,532,532,532,532,532,532,532,532,532,532,532,532,532,532,528,504,487,466,440,391,370,351,330,307,252,225,201,187,182,174,172,167,163,158,145,139,133,130,128,128,128,128,128,128,128,128,125,124,120,118,118,117,117,117,117,117,117,117,117,117,117,117,117,117,117,117,117,117,117,117,117,117,117,117,114,113,112,112,112,112,112,112,112,112,112,112,112,112,112,111,108,105,100,98],"timestamp_mouse":[9,31,41,61,82,101,122,141,162,182,202,222,242,261,282,301,321,340,362,381,402,421,442,462,482,502,522,541,562,582,601,622,642,662,681,702,721,742,762,781,802,822,842,861,882,901,921,942,961,983,1001,1022,1041,1061,1081,1101,1121,1142,1161,1181,1201,1221,1241,1262,1282,1301,1321,1342,1361,1382,1401,1421,1442,1461,1483,1501,1521,1541,1561,1580,1601,1622,1642,1661,1682,1701,1721,1742,1762,1781,1800,1822,1841,1862,1882,1902,1921,1942,1961,1981,2001,2021,2041,2061,2081,2101,2121,2142,2161,2182,2201,2221,2241,2262,2283,2302,2321,2341,2362,2381],"xSR":741.5,"ySR":469.95,"xT1":424.9,"yT1":0,"xT2":1058.1,"yT2":0,"toosoon":0,"cond_shown":"equaldotanddens","ratio_trial":900,"smaller_num":"18","larger_num":"20","correct_side":1,"subjID":"JuanFelipeZambranoJoya33","gender":"0","age":"9","school":"4"},{"start_time":1552074842884,"click_time":1552074844092,"finger_time":1552074843712,"fix_duration":250,"trial":26,"RT":828,"MT":380,"sideResp":1,"stimulus":"img/250/randomdotsizeEA/L/2_Ratio_250_L_16_R_4.png","xmouse":[751,751,751,751,751,751,751,751,751,751,751,751,751,751,751,751,751,751,751,751,751,751,751,751,751,751,751,751,751,751,751,751,751,751,751,751,751,751,751,751,746,741,727,709,682,645,606,569,564,562,562,562,562,559,556,554,552,536,508,471,443],"ymouse":[546,546,546,546,546,546,546,546,546,546,546,546,546,546,546,546,546,546,546,546,546,546,546,546,546,546,546,546,546,546,546,546,546,546,546,546,546,546,546,544,533,523,490,462,421,360,305,258,249,245,244,243,238,231,226,224,220,196,162,126,95],"timestamp_mouse":[11,31,48,68,88,109,128,149,168,188,209,228,249,269,289,308,329,349,369,389,408,428,448,468,489,509,528,549,568,589,609,629,648,668,689,708,729,749,768,788,809,828,847,868,888,909,928,949,969,989,1008,1028,1048,1069,1089,1109,1128,1148,1167,1189,1208],"xSR":741.5,"ySR":469.95,"xT1":424.9,"yT1":0,"xT2":1058.1,"yT2":0,"toosoon":0,"cond_shown":"randomdotsizeEA","ratio_trial":250,"smaller_num":"4","larger_num":"16","correct_side":1,"subjID":"JuanFelipeZambranoJoya33","gender":"0","age":"9","school":"4"},{"start_time":1552074846917,"click_time":1552074848153,"finger_time":1552074847633,"fix_duration":1203.3878066258997,"trial":27,"RT":716,"MT":520,"sideResp":2,"stimulus":"img/500/randomdotsizeEA/L/4_Ratio_500_L_18_R_9.png","xmouse":[776,776,776,776,776,776,776,776,776,776,776,776,776,776,776,776,776,779,784,790,795,800,801,801,801,801,801,801,801,801,801,801,801,801,803,814,833,848,861,873,893,901,912,932,955,990,1007,1029,1068,1116,1151,1170,1170,1170,1170,1170,1170,1170,1168,1167,1166,1154],"ymouse":[478,478,478,478,478,478,478,478,478,478,478,478,478,478,478,478,478,478,478,478,478,478,479,479,479,479,479,479,479,479,479,479,479,479,479,469,448,431,414,398,369,357,344,327,310,284,269,248,215,174,143,126,124,124,124,123,119,114,102,91,82,64],"timestamp_mouse":[15,35,55,75,96,116,135,155,176,196,216,235,256,275,295,315,334,356,375,395,415,436,456,476,494,516,535,556,576,596,616,635,656,675,695,716,734,755,775,796,817,835,855,876,896,917,934,956,976,995,1014,1035,1055,1076,1095,1116,1135,1156,1175,1195,1215,1235],"xSR":741.5,"ySR":469.95,"xT1":424.9,"yT1":0,"xT2":1058.1,"yT2":0,"toosoon":0,"cond_shown":"randomdotsizeEA","ratio_trial":500,"smaller_num":"9","larger_num":"18","correct_side":1,"subjID":"JuanFelipeZambranoJoya33","gender":"0","age":"9","school":"4"},{"start_time":1552074849706,"click_time":1552074851314,"finger_time":1552074850774,"fix_duration":250,"trial":28,"RT":1068,"MT":540,"sideResp":1,"stimulus":"img/500/randomdotsizeEA/L/10_Ratio_500_L_4_R_2.png","xmouse":[771,771,771,771,771,771,771,771,771,771,771,771,771,771,771,771,771,771,771,771,771,771,771,771,771,771,771,771,771,771,771,771,771,771,771,771,771,771,771,771,771,771,771,771,771,771,771,771,771,771,771,769,755,717,651,527,443,376,368,368,368,367,364,364,364,364,373,384,390,400,406,410,415,415,417,418,418,420,422,424,425],"ymouse":[536,536,536,536,536,536,536,536,536,536,536,536,536,536,536,536,536,536,536,536,536,536,536,536,536,536,536,536,536,536,536,536,536,536,536,536,536,536,536,536,536,536,536,536,536,536,536,536,536,536,536,535,496,390,300,182,125,81,74,72,65,54,36,32,32,31,31,31,31,33,33,34,36,36,36,36,36,37,37,37,37],"timestamp_mouse":[9,31,48,69,88,108,128,148,169,190,208,229,248,270,288,308,330,349,369,388,409,430,449,469,489,510,530,549,568,589,610,629,650,670,689,709,728,748,769,789,808,829,850,869,889,908,929,948,969,989,1010,1029,1048,1068,1090,1109,1129,1148,1169,1188,1209,1228,1248,1269,1289,1309,1328,1349,1368,1389,1409,1429,1448,1468,1489,1509,1528,1548,1568,1589,1608],"xSR":741.5,"ySR":469.95,"xT1":424.9,"yT1":0,"xT2":1058.1,"yT2":0,"toosoon":0,"cond_shown":"randomdotsizeEA","ratio_trial":500,"smaller_num":"2","larger_num":"4","correct_side":1,"subjID":"JuanFelipeZambranoJoya33","gender":"0","age":"9","school":"4"},{"start_time":1552074853373,"click_time":1552074855734,"finger_time":1552074854215,"fix_duration":916.0143366835833,"trial":29,"RT":842,"MT":1519,"sideResp":2,"stimulus":"img/750/randomdotsizeEA/L/13_Ratio_750_L_8_R_6.png","xmouse":[799,799,799,799,799,799,799,799,799,799,800,800,800,800,800,800,800,800,800,800,800,800,800,800,800,800,800,800,800,800,800,800,800,800,800,800,800,800,800,801,811,835,855,872,900,905,906,906,906,906,906,906,906,906,906,906,906,906,906,906,904,895,887,878,869,859,859,859,859,859,859,859,859,859,862,869,874,881,888,909,921,941,953,966,994,1011,1026,1040,1050,1055,1058,1059,1059,1059,1059,1059,1059,1059,1059,1059,1059,1061,1064,1069,1074,1085,1086,1089,1089,1090,1091,1091,1092,1093,1097,1101,1108,1115,1120],"ymouse":[520,520,520,520,520,520,520,520,520,520,521,521,521,521,521,521,521,521,521,521,521,521,521,521,521,521,521,521,521,521,521,521,521,521,521,521,521,521,521,521,521,521,516,510,500,498,497,497,497,497,497,497,497,497,497,497,497,497,492,492,456,427,406,389,373,357,356,355,354,353,353,351,348,345,338,321,313,305,297,280,272,259,252,245,230,223,216,210,205,203,201,201,201,201,201,201,201,201,201,201,199,197,192,185,181,173,172,170,170,170,168,167,165,162,148,133,116,103,93],"timestamp_mouse":[10,28,43,63,82,103,122,142,162,183,201,222,242,261,281,301,321,343,361,381,402,421,441,463,482,501,522,541,563,582,602,621,642,661,681,702,722,741,762,782,802,822,842,862,882,901,921,941,962,982,1002,1021,1043,1062,1083,1101,1121,1142,1162,1182,1203,1222,1242,1262,1281,1301,1321,1341,1362,1382,1403,1422,1442,1462,1481,1502,1521,1542,1563,1583,1602,1621,1642,1661,1685,1701,1722,1741,1761,1782,1801,1822,1841,1862,1881,1902,1921,1942,1961,1983,2001,2022,2043,2062,2081,2101,2121,2141,2161,2181,2201,2221,2242,2263,2282,2301,2322,2342,2361],"xSR":741.5,"ySR":469.95,"xT1":424.9,"yT1":0,"xT2":1058.1,"yT2":0,"toosoon":0,"cond_shown":"randomdotsizeEA","ratio_trial":750,"smaller_num":"6","larger_num":"8","correct_side":1,"subjID":"JuanFelipeZambranoJoya33","gender":"0","age":"9","school":"4"},{"start_time":1552074860295,"click_time":1552074861095,"finger_time":1552074860575,"fix_duration":1478.4597654788465,"trial":30,"RT":280,"MT":520,"sideResp":1,"stimulus":"img/900/equaldotsize/R/12_Ratio_900_L_18_R_20.png","xmouse":[816,816,816,816,816,816,816,816,816,816,816,816,816,815,810,807,803,798,794,785,785,785,784,774,700,634,594,564,550,547,547,547,547,547,547,547,547,547,538,528,499],"ymouse":[503,503,503,503,503,503,503,503,503,503,503,503,503,503,452,429,408,383,360,338,336,336,335,321,252,207,181,166,160,159,159,159,159,159,159,159,159,159,138,108,33],"timestamp_mouse":[1,19,39,59,80,100,119,141,160,180,199,220,240,261,280,300,319,339,360,380,400,420,439,460,479,500,520,539,560,579,600,619,640,659,680,701,720,740,760,779,800],"xSR":741.5,"ySR":469.95,"xT1":424.9,"yT1":0,"xT2":1058.1,"yT2":0,"toosoon":0,"cond_shown":"equaldotsize","ratio_trial":900,"smaller_num":"18","larger_num":"20","correct_side":2,"subjID":"JuanFelipeZambranoJoya33","gender":"0","age":"9","school":"4"},{"start_time":1552074863400,"click_time":1552074864476,"finger_time":1552074864214,"fix_duration":1024.2295517532768,"trial":31,"RT":814,"MT":262,"sideResp":2,"stimulus":"img/750/equaldotanddens/R/11_Ratio_750_L_12_R_16.png","xmouse":[802,802,802,802,802,802,802,802,802,802,802,802,802,802,802,802,802,802,802,802,802,802,802,802,802,802,802,802,802,802,802,802,802,802,802,802,802,802,802,815,861,927,1006,1120,1133,1135,1136,1136,1137,1140,1143,1145,1147,1142],"ymouse":[506,506,506,506,506,506,506,506,506,506,506,506,506,506,506,506,506,506,506,506,506,506,506,506,506,506,506,506,506,506,506,506,506,506,506,506,506,506,506,485,446,397,324,205,193,188,187,186,184,173,162,143,123,89],"timestamp_mouse":[14,36,54,74,95,115,135,154,175,196,215,235,255,275,295,315,335,354,376,396,415,435,455,474,495,515,535,555,574,596,615,635,656,675,694,714,734,756,774,795,814,835,854,875,894,915,935,954,975,994,1015,1036,1055,1076],"xSR":741.5,"ySR":469.95,"xT1":424.9,"yT1":0,"xT2":1058.1,"yT2":0,"toosoon":0,"cond_shown":"equaldotanddens","ratio_trial":750,"smaller_num":"12","larger_num":"16","correct_side":2,"subjID":"JuanFelipeZambranoJoya33","gender":"0","age":"9","school":"4"},{"start_time":1552074865967,"click_time":1552074868975,"finger_time":1552074868154,"fix_duration":250,"trial":32,"RT":2187,"MT":821,"sideResp":2,"stimulus":"img/250/equaldotanddens/R/4_Ratio_250_L_3_R_12.png","xmouse":[822,822,822,822,822,822,822,822,822,822,822,822,822,822,822,822,822,822,822,822,822,822,822,822,822,822,822,822,822,822,822,822,822,822,822,822,822,822,822,822,822,822,822,822,822,822,822,822,822,822,822,822,822,822,822,822,822,822,822,822,822,822,822,822,822,822,822,822,822,822,822,822,822,822,822,822,822,822,823,824,825,825,825,825,825,825,825,825,825,825,825,825,825,825,825,825,825,825,825,825,825,825,825,825,825,825,825,825,832,846,861,884,891,895,900,909,936,952,975,999,1024,1054,1061,1064,1064,1066,1072,1084,1101,1120,1140,1160,1164,1165,1166,1166,1166,1166,1166,1166,1166,1166,1166,1166,1166,1166,1166,1166,1165,1162,1158],"ymouse":[516,516,516,516,516,516,516,516,516,516,516,516,516,516,516,516,516,516,516,516,516,516,516,516,516,516,516,516,516,516,516,516,516,516,516,516,516,516,516,516,516,516,516,516,516,516,516,516,516,516,516,516,516,516,516,516,516,516,516,516,516,516,516,516,516,516,516,516,516,516,516,516,516,516,516,516,516,516,516,516,516,516,516,516,516,516,516,516,516,516,516,516,516,516,516,516,516,516,516,516,516,516,516,516,516,516,516,516,516,516,516,516,515,513,511,506,490,478,459,438,414,369,359,355,354,352,326,286,224,168,113,46,26,14,7,5,2,1,1,1,1,1,1,1,1,1,1,1,1,7,14],"timestamp_mouse":[8,39,48,68,88,108,127,149,167,188,208,227,248,269,287,307,327,347,368,389,409,428,447,468,488,507,529,547,568,588,607,628,649,667,687,707,727,747,769,788,807,828,848,869,889,908,928,948,968,989,1009,1028,1048,1068,1087,1109,1128,1148,1168,1187,1207,1228,1249,1267,1287,1308,1328,1348,1367,1388,1408,1427,1449,1468,1488,1508,1529,1548,1567,1589,1608,1628,1649,1667,1687,1707,1729,1748,1768,1789,1807,1828,1847,1868,1888,1908,1927,1947,1968,1987,2008,2027,2047,2067,2088,2108,2129,2148,2168,2187,2207,2227,2248,2268,2288,2308,2328,2347,2368,2387,2407,2427,2448,2468,2487,2508,2527,2548,2567,2588,2607,2627,2648,2669,2687,2707,2727,2748,2768,2788,2808,2828,2849,2868,2887,2908,2927,2948,2967,2987,3008],"xSR":741.5,"ySR":469.95,"xT1":424.9,"yT1":0,"xT2":1058.1,"yT2":0,"toosoon":0,"cond_shown":"equaldotanddens","ratio_trial":250,"smaller_num":"3","larger_num":"12","correct_side":2,"subjID":"JuanFelipeZambranoJoya33","gender":"0","age":"9","school":"4"},{"start_time":1552074879287,"click_time":1552074880455,"finger_time":1552074879815,"fix_duration":951.5553079148794,"trial":33,"RT":528,"MT":640,"sideResp":2,"stimulus":"img/900/equaldotanddens/L/1_Ratio_900_L_10_R_9.png","xmouse":[794,794,794,794,794,794,794,794,794,794,794,794,794,794,794,794,794,794,794,794,794,794,794,794,786,773,762,749,745,744,744,744,744,744,744,744,744,744,744,744,744,744,744,772,816,858,905,968,982,988,990,1009,1041,1060,1069,1071,1072,1074,1081],"ymouse":[509,509,509,509,509,509,509,509,509,509,509,509,509,509,509,509,509,509,509,509,509,509,509,509,494,477,465,450,447,445,445,445,445,445,445,445,445,445,445,445,445,445,440,377,319,268,227,180,171,164,158,132,119,110,107,106,103,100,93],"timestamp_mouse":[11,38,48,67,88,107,127,149,167,189,207,227,248,267,289,309,328,347,377,388,407,430,448,467,489,507,528,547,567,588,607,628,647,667,689,709,729,748,767,788,807,829,848,867,887,908,928,948,968,988,1007,1027,1047,1068,1087,1108,1129,1148,1167],"xSR":741.5,"ySR":469.95,"xT1":424.9,"yT1":0,"xT2":1058.1,"yT2":0,"toosoon":0,"cond_shown":"equaldotanddens","ratio_trial":900,"smaller_num":"9","larger_num":"10","correct_side":1,"subjID":"JuanFelipeZambranoJoya33","gender":"0","age":"9","school":"4"},{"start_time":1552074886741,"click_time":1552074887735,"finger_time":1552074887355,"fix_duration":1285.5135138664791,"trial":34,"RT":614,"MT":380,"sideResp":2,"stimulus":"img/500/equaldotanddens/R/1_Ratio_500_L_9_R_18.png","xmouse":[780,780,780,780,780,780,780,780,780,780,780,780,780,780,780,780,780,780,780,780,780,780,780,780,780,780,780,780,780,800,822,846,868,886,907,918,930,952,973,1020,1037,1052,1065,1075,1086,1089,1096,1104,1116,1148],"ymouse":[512,512,512,512,512,512,512,512,512,512,512,512,512,512,512,512,512,512,512,512,512,512,512,512,512,512,512,512,512,476,434,398,365,342,306,287,266,234,212,176,163,150,139,133,127,126,123,117,108,87],"timestamp_mouse":[14,40,55,73,93,114,134,154,174,193,214,234,254,273,293,314,334,354,375,393,414,434,454,473,494,514,534,553,573,593,614,634,655,674,694,714,733,754,774,794,813,834,854,874,894,913,934,953,975,994],"xSR":741.5,"ySR":469.95,"xT1":424.9,"yT1":0,"xT2":1058.1,"yT2":0,"toosoon":0,"cond_shown":"equaldotanddens","ratio_trial":500,"smaller_num":"9","larger_num":"18","correct_side":2,"subjID":"JuanFelipeZambranoJoya33","gender":"0","age":"9","school":"4"},{"start_time":1552074896578,"click_time":1552074897856,"finger_time":1552074897295,"fix_duration":1381.5834777964353,"trial":35,"RT":717,"MT":561,"sideResp":1,"stimulus":"img/250/equaldotanddens/L/3_Ratio_250_L_8_R_2.png","xmouse":[799,799,799,799,799,799,799,799,799,799,799,799,799,799,799,799,799,799,799,799,799,799,799,799,799,799,799,799,799,799,799,799,799,799,795,763,730,695,644,628,610,600,592,582,575,562,549,533,501,498,491,488,485,483,478,475,472,469,467,463,459,455,451,447],"ymouse":[489,489,489,489,489,489,489,489,489,489,489,489,489,489,489,489,489,489,489,489,489,489,489,489,489,489,489,489,489,489,489,489,489,489,487,451,419,390,337,317,293,281,272,265,260,251,241,230,199,194,186,179,174,166,156,152,148,145,142,135,126,114,104,93],"timestamp_mouse":[17,37,57,76,97,116,136,156,176,198,216,236,257,278,296,317,336,356,377,396,417,436,457,478,496,516,536,557,577,597,617,637,656,676,697,717,737,756,777,797,816,837,856,877,896,916,937,958,978,996,1016,1038,1058,1077,1097,1117,1137,1156,1176,1196,1217,1236,1257,1277],"xSR":741.5,"ySR":469.95,"xT1":424.9,"yT1":0,"xT2":1058.1,"yT2":0,"toosoon":0,"cond_shown":"equaldotanddens","ratio_trial":250,"smaller_num":"2","larger_num":"8","correct_side":1,"subjID":"JuanFelipeZambranoJoya33","gender":"0","age":"9","school":"4"},{"start_time":1552074900342,"click_time":1552074901395,"finger_time":1552074901054,"fix_duration":1386.3989660128284,"trial":36,"RT":712,"MT":341,"sideResp":2,"stimulus":"img/250/equaldotanddens/R/4_Ratio_250_L_3_R_12.png","xmouse":[793,793,793,793,793,793,793,793,793,793,793,793,793,793,793,793,793,793,793,793,793,793,793,793,793,793,793,793,793,793,793,793,793,796,809,855,956,982,993,997,997,997,997,997,997,997,997,997,1000,1015,1036,1057,1064],"ymouse":[528,528,528,528,528,528,528,528,528,528,528,528,528,528,528,528,528,528,528,528,528,528,528,528,528,528,528,528,528,528,528,528,528,518,476,356,93,29,8,0,0,0,0,0,0,0,0,0,6,37,68,81,83],"timestamp_mouse":[12,33,52,74,92,113,132,152,172,192,212,232,252,272,292,314,332,354,372,393,414,432,453,473,493,513,533,552,572,592,613,633,653,673,693,712,732,752,773,792,814,832,852,873,893,914,933,952,973,994,1013,1033,1052],"xSR":741.5,"ySR":469.95,"xT1":424.9,"yT1":0,"xT2":1058.1,"yT2":0,"toosoon":0,"cond_shown":"equaldotanddens","ratio_trial":250,"smaller_num":"3","larger_num":"12","correct_side":2,"subjID":"JuanFelipeZambranoJoya33","gender":"0","age":"9","school":"4"},{"start_time":1552074903135,"click_time":1552074904595,"finger_time":1552074903595,"fix_duration":577.1669264673404,"trial":37,"RT":460,"MT":1000,"sideResp":2,"stimulus":"img/500/equaldotanddens/R/12_Ratio_500_L_1_R_2.png","xmouse":[809,809,808,808,808,808,808,808,808,808,808,808,808,808,808,808,808,808,808,807,805,803,803,803,803,803,802,800,798,796,793,793,793,793,793,800,813,867,914,927,948,953,954,954,954,954,954,967,994,1009,1009,1009,1009,1009,1009,1009,1009,1050,1037,1033,1032,1032,1032,1032,1032,1032,1032,1032,1032,1032,1036,1040,1054,1060],"ymouse":[523,523,525,525,525,525,525,525,525,525,525,525,525,525,525,525,525,525,525,521,507,495,470,457,449,443,438,432,428,425,420,420,419,419,412,398,375,289,209,181,112,90,81,80,79,79,79,58,23,9,9,9,9,9,9,9,9,13,47,55,57,57,58,58,58,58,58,58,58,58,54,51,45,44],"timestamp_mouse":[2,21,40,59,79,99,120,141,159,179,199,220,240,259,280,299,319,339,361,379,399,420,440,460,480,499,519,539,560,580,600,620,639,661,679,699,720,739,759,781,800,821,839,859,880,900,920,939,959,979,999,1019,1040,1059,1079,1100,1120,1139,1159,1179,1200,1220,1240,1259,1281,1301,1320,1340,1360,1381,1400,1420,1440,1460],"xSR":741.5,"ySR":469.95,"xT1":424.9,"yT1":0,"xT2":1058.1,"yT2":0,"toosoon":0,"cond_shown":"equaldotanddens","ratio_trial":500,"smaller_num":"1","larger_num":"2","correct_side":2,"subjID":"JuanFelipeZambranoJoya33","gender":"0","age":"9","school":"4"},{"start_time":1552074908312,"click_time":1552074909936,"finger_time":1552074909135,"fix_duration":1377.920925261787,"trial":38,"RT":823,"MT":801,"sideResp":1,"stimulus":"img/750/randomdotsizeEA/L/14_Ratio_750_L_8_R_6.png","xmouse":[811,811,811,811,811,811,811,811,811,811,811,811,811,811,811,811,811,811,811,811,811,811,811,811,811,811,811,811,811,811,811,811,811,811,811,811,811,811,811,815,824,848,886,934,999,1008,1010,1010,1010,1010,1010,1011,1013,1013,1014,1014,1014,1014,1014,1014,1014,1014,1014,1014,1014,1014,1014,1012,992,935,912,877,837,769,731,704,686,667,652,596,553,518],"ymouse":[529,529,529,529,529,529,529,529,529,529,529,529,529,529,529,529,529,529,529,529,529,529,529,529,529,529,529,529,529,529,529,529,529,529,529,529,529,529,529,522,500,456,385,304,197,185,181,181,181,181,181,179,172,166,160,160,160,160,160,160,160,161,161,161,161,161,161,161,159,156,156,156,156,143,127,116,107,96,88,57,39,28],"timestamp_mouse":[9,33,43,63,82,102,122,142,163,183,202,223,244,264,283,302,323,344,363,383,402,424,442,463,482,502,523,543,562,583,602,623,642,663,683,703,723,744,764,782,803,823,843,862,882,903,924,942,963,982,1003,1024,1043,1062,1083,1103,1122,1142,1162,1182,1203,1223,1242,1263,1283,1302,1323,1343,1362,1382,1404,1425,1444,1465,1484,1504,1524,1544,1564,1584,1604,1624],"xSR":741.5,"ySR":469.95,"xT1":424.9,"yT1":0,"xT2":1058.1,"yT2":0,"toosoon":0,"cond_shown":"randomdotsizeEA","ratio_trial":750,"smaller_num":"6","larger_num":"8","correct_side":1,"subjID":"JuanFelipeZambranoJoya33","gender":"0","age":"9","school":"4"},{"start_time":1552074911512,"click_time":1552074912397,"finger_time":1552074912157,"fix_duration":734.9328328223755,"trial":39,"RT":645,"MT":240,"sideResp":2,"stimulus":"img/750/equaldotanddens/R/12_Ratio_750_L_3_R_4.png","xmouse":[819,819,819,819,819,819,819,819,819,819,819,819,819,819,819,819,819,819,819,819,819,819,819,819,819,819,819,819,819,819,819,828,853,897,1032,1078,1092,1095,1097,1103,1106,1107,1109,1110,1115],"ymouse":[556,556,556,556,556,556,556,556,556,556,556,556,556,556,556,556,556,556,556,556,556,556,556,556,556,556,556,556,556,556,556,548,517,466,305,256,233,223,210,171,153,142,135,127,91],"timestamp_mouse":[10,27,44,63,84,104,125,144,163,185,204,224,243,263,285,305,324,345,364,385,404,424,443,464,485,503,524,545,565,584,604,624,645,664,685,705,724,745,765,784,805,824,844,864,884],"xSR":741.5,"ySR":469.95,"xT1":424.9,"yT1":0,"xT2":1058.1,"yT2":0,"toosoon":0,"cond_shown":"equaldotanddens","ratio_trial":750,"smaller_num":"3","larger_num":"4","correct_side":2,"subjID":"JuanFelipeZambranoJoya33","gender":"0","age":"9","school":"4"},{"start_time":1552074913978,"click_time":1552074915037,"finger_time":1552074914556,"fix_duration":699.0508816951228,"trial":40,"RT":578,"MT":481,"sideResp":2,"stimulus":"img/250/equaldotanddens/R/13_Ratio_250_L_2_R_8.png","xmouse":[794,794,794,794,794,794,794,794,794,794,794,794,794,794,794,794,794,794,794,794,794,794,794,794,794,794,800,828,854,873,893,905,922,936,948,973,984,995,1006,1022,1051,1069,1076,1082,1084,1086,1086,1086,1085,1084,1084,1084,1086],"ymouse":[542,542,542,542,542,542,542,542,542,542,542,542,542,542,542,542,542,542,542,542,542,542,542,542,542,542,530,489,451,428,403,388,366,350,335,311,300,288,272,254,218,194,179,166,157,146,139,134,127,120,106,101,95],"timestamp_mouse":[31,38,58,79,99,118,138,158,178,199,217,239,258,278,299,318,338,359,379,399,418,438,458,479,498,518,538,558,578,598,618,638,659,678,699,719,739,759,778,798,818,837,857,877,898,918,937,958,978,998,1019,1038,1059],"xSR":741.5,"ySR":469.95,"xT1":424.9,"yT1":0,"xT2":1058.1,"yT2":0,"toosoon":0,"cond_shown":"equaldotanddens","ratio_trial":250,"smaller_num":"2","larger_num":"8","correct_side":2,"subjID":"JuanFelipeZambranoJoya33","gender":"0","age":"9","school":"4"},{"start_time":1552074916528,"click_time":1552074917797,"finger_time":1552074917497,"fix_duration":450.81715761846095,"trial":41,"RT":969,"MT":300,"sideResp":2,"stimulus":"img/250/equaldotsize/R/13_Ratio_250_L_2_R_8.png","xmouse":[773,773,773,773,773,773,773,773,773,773,773,773,773,773,773,773,773,773,773,773,773,773,773,773,773,773,773,773,773,773,773,773,773,773,773,773,773,773,773,773,773,773,773,773,773,775,789,818,859,866,867,867,867,867,875,887,902,917,940,1023,1068,1094,1112,1128],"ymouse":[523,523,523,523,523,523,523,523,523,523,523,523,523,523,523,523,523,523,523,523,523,523,523,523,523,523,523,523,523,523,523,523,523,523,523,523,523,523,523,523,523,523,523,523,523,522,512,493,471,468,468,467,467,467,463,456,444,429,400,263,188,145,116,96],"timestamp_mouse":[9,31,48,69,89,108,129,148,167,187,209,229,249,268,289,308,329,348,368,389,408,429,449,468,489,508,528,549,568,588,609,627,647,669,688,708,727,747,769,789,808,828,849,868,887,908,928,949,969,988,1008,1027,1048,1068,1088,1107,1128,1148,1169,1188,1208,1229,1248,1268],"xSR":741.5,"ySR":469.95,"xT1":424.9,"yT1":0,"xT2":1058.1,"yT2":0,"toosoon":0,"cond_shown":"equaldotsize","ratio_trial":250,"smaller_num":"2","larger_num":"8","correct_side":2,"subjID":"JuanFelipeZambranoJoya33","gender":"0","age":"9","school":"4"},{"start_time":1552074919112,"click_time":1552074920776,"finger_time":1552074919836,"fix_duration":373.8859922947441,"trial":42,"RT":724,"MT":940,"sideResp":1,"stimulus":"img/900/randomdotsizeEA/R/9_Ratio_900_L_18_R_20.png","xmouse":[775,775,775,775,775,775,775,775,775,775,775,775,775,775,775,775,775,775,775,775,775,775,775,775,775,775,775,775,775,775,775,775,775,775,775,779,782,788,797,808,847,862,869,870,870,870,870,869,868,864,786,694,586,479,352,290,289,289,289,289,289,289,290,291,296,300,327,353,380,400,414,416,416,416,416,416,416,416,416,416,416,416,417,426],"ymouse":[509,509,509,509,509,509,509,509,509,509,509,509,509,509,509,509,509,509,509,509,509,509,508,508,508,508,508,508,508,508,508,508,508,507,499,482,469,451,429,405,324,289,272,265,263,263,263,263,263,262,240,199,152,109,62,33,32,32,32,32,24,18,10,7,1,0,1,5,10,16,20,21,21,21,21,21,21,21,21,24,32,43,58,77],"timestamp_mouse":[11,34,43,65,85,105,125,145,165,185,205,224,245,264,284,304,325,345,364,384,405,425,444,464,485,504,525,544,565,585,605,623,644,665,684,703,724,745,765,785,805,824,845,865,884,905,924,943,965,985,1003,1023,1044,1064,1085,1104,1124,1145,1165,1184,1204,1225,1245,1264,1284,1305,1323,1344,1363,1384,1404,1424,1444,1464,1484,1504,1524,1544,1565,1584,1605,1624,1644,1664],"xSR":741.5,"ySR":469.95,"xT1":424.9,"yT1":0,"xT2":1058.1,"yT2":0,"toosoon":0,"cond_shown":"randomdotsizeEA","ratio_trial":900,"smaller_num":"18","larger_num":"20","correct_side":2,"subjID":"JuanFelipeZambranoJoya33","gender":"0","age":"9","school":"4"},{"start_time":1552074922444,"click_time":1552074923295,"finger_time":1552074923176,"fix_duration":365.95296298221524,"trial":43,"RT":732,"MT":119,"sideResp":1,"stimulus":"img/750/randomdotsizeEA/L/13_Ratio_750_L_8_R_6.png","xmouse":[809,809,809,809,809,809,809,809,809,809,809,809,809,809,809,809,809,809,809,809,809,809,809,809,809,809,809,809,809,809,809,809,809,809,809,807,796,777,712,655,594,543,513],"ymouse":[543,543,543,543,543,543,543,543,543,543,543,543,543,543,543,543,543,543,543,543,543,543,543,543,543,543,543,543,543,543,543,543,543,543,543,523,452,382,246,169,106,64,36],"timestamp_mouse":[13,34,52,72,93,112,133,152,172,193,212,233,252,271,292,313,332,351,371,393,413,432,452,472,492,512,532,552,572,592,612,633,653,672,692,712,732,752,773,792,812,832,851],"xSR":741.5,"ySR":469.95,"xT1":424.9,"yT1":0,"xT2":1058.1,"yT2":0,"toosoon":0,"cond_shown":"randomdotsizeEA","ratio_trial":750,"smaller_num":"6","larger_num":"8","correct_side":1,"subjID":"JuanFelipeZambranoJoya33","gender":"0","age":"9","school":"4"},{"start_time":1552074924747,"click_time":1552074925796,"finger_time":1552074925377,"fix_duration":250,"trial":44,"RT":630,"MT":419,"sideResp":2,"stimulus":"img/900/equaldotanddens/R/3_Ratio_900_L_9_R_10.png","xmouse":[804,804,804,804,804,804,804,804,804,804,804,804,804,804,804,804,804,804,804,804,804,804,804,804,804,804,804,804,804,805,822,840,857,892,905,913,921,926,936,955,966,974,977,979,983,986,993,1001,1025,1036,1047,1058,1069],"ymouse":[517,517,517,517,517,517,517,517,517,517,517,517,517,517,517,517,517,517,517,517,517,517,517,517,517,517,517,517,517,516,483,443,402,334,313,293,277,260,228,175,153,136,127,122,113,108,102,98,81,72,62,56,48],"timestamp_mouse":[17,39,49,68,89,110,129,150,169,190,209,229,248,270,290,309,328,350,370,389,409,430,450,469,488,510,530,548,570,589,609,630,649,671,689,710,730,749,769,789,809,829,848,869,889,909,930,950,971,989,1009,1030,1049],"xSR":741.5,"ySR":469.95,"xT1":424.9,"yT1":0,"xT2":1058.1,"yT2":0,"toosoon":0,"cond_shown":"equaldotanddens","ratio_trial":900,"smaller_num":"9","larger_num":"10","correct_side":2,"subjID":"JuanFelipeZambranoJoya33","gender":"0","age":"9","school":"4"},{"start_time":1552074927748,"click_time":1552074928596,"finger_time":1552074928296,"fix_duration":931.2469948276188,"trial":45,"RT":548,"MT":300,"sideResp":2,"stimulus":"img/500/equaldotanddens/R/2_Ratio_500_L_3_R_6.png","xmouse":[764,764,764,764,764,764,764,764,764,764,764,764,764,764,764,764,764,764,764,764,764,764,764,764,764,781,800,856,926,975,981,986,989,995,1009,1016,1026,1033,1040,1047,1051,1055,1059],"ymouse":[551,551,551,551,551,551,551,551,551,551,551,551,551,551,551,551,551,551,551,551,551,551,551,551,551,534,514,456,374,297,270,245,221,196,157,139,125,114,100,87,82,78,75],"timestamp_mouse":[8,34,48,69,88,108,128,147,169,188,208,228,248,267,288,308,328,347,369,387,407,429,448,467,489,509,528,548,569,588,608,628,648,668,688,708,728,748,769,788,807,827,848],"xSR":741.5,"ySR":469.95,"xT1":424.9,"yT1":0,"xT2":1058.1,"yT2":0,"toosoon":0,"cond_shown":"equaldotanddens","ratio_trial":500,"smaller_num":"3","larger_num":"6","correct_side":2,"subjID":"JuanFelipeZambranoJoya33","gender":"0","age":"9","school":"4"},{"start_time":1552074930064,"click_time":1552074930517,"finger_time":1552074930436,"fix_duration":566.5027441632932,"trial":46,"RT":372,"MT":81,"sideResp":1,"stimulus":"img/500/equaldotsize/L/4_Ratio_500_L_18_R_9.png","xmouse":[804,804,804,804,804,804,804,804,804,804,804,804,804,804,804,804,801,799,786,738,710,588,524],"ymouse":[512,512,512,512,512,512,512,512,512,512,512,512,512,512,512,512,505,500,463,357,303,157,89],"timestamp_mouse":[13,36,52,73,92,112,133,152,173,193,213,231,253,273,293,312,332,352,372,391,412,432,453],"xSR":741.5,"ySR":469.95,"xT1":424.9,"yT1":0,"xT2":1058.1,"yT2":0,"toosoon":0,"cond_shown":"equaldotsize","ratio_trial":500,"smaller_num":"9","larger_num":"18","correct_side":1,"subjID":"JuanFelipeZambranoJoya33","gender":"0","age":"9","school":"4"},{"start_time":1552074931848,"click_time":1552074932676,"finger_time":1552074932136,"fix_duration":250,"trial":47,"RT":288,"MT":540,"sideResp":1,"stimulus":"img/900/equaldotsize/L/10_Ratio_900_L_20_R_18.png","xmouse":[777,777,777,777,777,777,777,777,777,777,777,777,777,774,752,735,719,705,694,687,684,682,677,668,633,610,589,574,564,558,558,558,558,558,558,556,550,538,529,502,495,489],"ymouse":[508,508,508,508,508,508,508,508,508,508,508,508,508,505,468,445,424,405,390,381,377,375,369,355,299,268,237,221,210,206,206,206,206,206,206,203,188,167,150,112,103,96],"timestamp_mouse":[7,34,48,67,88,109,128,148,169,189,208,229,248,268,288,307,328,348,368,388,408,428,448,469,489,508,528,549,568,589,608,628,648,668,688,708,728,748,769,790,808,828],"xSR":741.5,"ySR":469.95,"xT1":424.9,"yT1":0,"xT2":1058.1,"yT2":0,"toosoon":0,"cond_shown":"equaldotsize","ratio_trial":900,"smaller_num":"18","larger_num":"20","correct_side":1,"subjID":"JuanFelipeZambranoJoya33","gender":"0","age":"9","school":"4"},{"start_time":1552074934726,"click_time":1552074935138,"finger_time":1552074935036,"fix_duration":1128.3360830185827,"trial":48,"RT":310,"MT":102,"sideResp":2,"stimulus":"img/250/equaldotsize/L/3_Ratio_250_L_8_R_2.png","xmouse":[789,789,789,789,789,789,789,789,789,789,789,789,790,792,812,856,956,1022,1092,1136,1158],"ymouse":[516,516,516,516,516,516,516,516,516,516,516,516,516,516,492,451,372,312,224,139,68],"timestamp_mouse":[10,31,50,70,90,109,130,151,170,190,210,230,251,270,290,310,330,350,369,390,411],"xSR":741.5,"ySR":469.95,"xT1":424.9,"yT1":0,"xT2":1058.1,"yT2":0,"toosoon":0,"cond_shown":"equaldotsize","ratio_trial":250,"smaller_num":"2","larger_num":"8","correct_side":1,"subjID":"JuanFelipeZambranoJoya33","gender":"0","age":"9","school":"4"},{"start_time":1552074937610,"click_time":1552074938635,"finger_time":1552074938116,"fix_duration":1053.2862085842025,"trial":49,"RT":506,"MT":519,"sideResp":2,"stimulus":"img/900/equaldotanddens/R/15_Ratio_900_L_9_R_10.png","xmouse":[812,812,813,813,813,813,813,813,813,813,813,813,813,813,813,813,813,813,813,813,813,813,811,804,796,784,772,760,759,759,759,759,759,759,759,759,759,759,759,759,759,759,759,786,825,866,902,950,973,1010,1040,1075],"ymouse":[541,532,527,526,525,525,525,525,525,525,525,525,525,525,525,525,525,525,525,525,525,525,516,496,477,456,437,423,422,422,422,422,422,422,422,422,422,422,422,422,422,422,420,367,301,250,214,182,167,139,117,95],"timestamp_mouse":[6,27,46,67,86,105,127,147,166,187,207,226,247,267,287,306,326,346,366,387,407,426,446,465,486,506,526,545,565,586,606,627,647,667,686,706,726,747,767,786,806,826,846,866,885,906,927,946,966,986,1006,1025],"xSR":741.5,"ySR":469.95,"xT1":424.9,"yT1":0,"xT2":1058.1,"yT2":0,"toosoon":0,"cond_shown":"equaldotanddens","ratio_trial":900,"smaller_num":"9","larger_num":"10","correct_side":2,"subjID":"JuanFelipeZambranoJoya33","gender":"0","age":"9","school":"4"},{"start_time":1552074941987,"click_time":1552074943037,"finger_time":1552074942776,"fix_duration":788.2816985012016,"trial":50,"RT":789,"MT":261,"sideResp":2,"stimulus":"img/900/randomdotsizeEA/R/7_Ratio_900_L_9_R_10.png","xmouse":[813,813,813,813,813,812,812,812,812,812,812,812,812,812,812,812,812,812,812,812,812,812,812,812,812,812,812,812,812,812,812,812,812,812,812,812,812,813,817,842,856,869,879,912,929,948,959,969,988,1011,1032,1054,1083],"ymouse":[563,563,563,563,563,563,563,563,563,563,563,563,563,563,563,563,563,563,563,563,563,563,563,563,563,563,563,563,563,563,563,563,563,563,563,563,563,556,544,470,430,396,365,285,244,213,193,179,161,147,135,119,99],"timestamp_mouse":[8,36,49,70,90,109,130,148,170,190,210,229,250,270,290,310,329,349,370,390,408,430,449,470,489,509,530,550,569,589,610,630,649,670,689,708,730,749,770,789,809,828,850,871,889,910,930,949,971,989,1010,1029,1050],"xSR":741.5,"ySR":469.95,"xT1":424.9,"yT1":0,"xT2":1058.1,"yT2":0,"toosoon":0,"cond_shown":"randomdotsizeEA","ratio_trial":900,"smaller_num":"9","larger_num":"10","correct_side":2,"subjID":"JuanFelipeZambranoJoya33","gender":"0","age":"9","school":"4"},{"start_time":1552074944410,"click_time":1552074945036,"finger_time":1552074944637,"fix_duration":451.44532102661185,"trial":51,"RT":227,"MT":399,"sideResp":1,"stimulus":"img/250/randomdotsizeEA/R/10_Ratio_250_L_4_R_16.png","xmouse":[762,762,762,762,762,762,762,762,762,762,762,762,765,765,763,756,750,743,727,708,684,659,633,590,575,564,557,554,551,545,535,520],"ymouse":[495,495,495,495,495,495,495,495,495,495,470,432,308,267,239,221,210,202,188,175,159,145,132,113,105,99,93,89,85,78,69,59],"timestamp_mouse":[11,36,46,67,85,106,127,145,167,186,206,227,248,266,287,307,327,346,366,387,406,425,446,465,486,507,526,548,566,586,606,626],"xSR":741.5,"ySR":469.95,"xT1":424.9,"yT1":0,"xT2":1058.1,"yT2":0,"toosoon":0,"cond_shown":"randomdotsizeEA","ratio_trial":250,"smaller_num":"4","larger_num":"16","correct_side":2,"subjID":"JuanFelipeZambranoJoya33","gender":"0","age":"9","school":"4"},{"start_time":1552074946248,"click_time":1552074947377,"finger_time":1552074946556,"fix_duration":250,"trial":52,"RT":308,"MT":821,"sideResp":1,"stimulus":"img/250/equaldotanddens/L/15_Ratio_250_L_12_R_3.png","xmouse":[795,795,795,795,795,795,795,795,795,795,795,795,795,795,799,825,886,912,926,941,953,966,970,972,975,976,976,976,976,976,976,976,976,976,967,946,892,865,842,806,754,606,516,418,392,383,383,383,383,383,383,387,392,402,411,419,439],"ymouse":[511,511,511,511,511,511,511,511,511,511,511,511,511,510,497,444,340,304,278,251,212,152,135,127,120,119,117,117,117,117,117,117,117,117,133,163,232,253,264,272,273,245,217,176,159,150,133,118,102,86,72,45,36,24,17,15,12],"timestamp_mouse":[9,29,48,69,88,109,129,148,169,188,209,228,249,268,288,308,328,349,368,389,409,428,448,468,488,508,528,548,569,588,609,627,649,668,688,708,728,748,769,789,809,828,848,868,888,908,928,948,969,988,1009,1028,1047,1069,1089,1109,1129],"xSR":741.5,"ySR":469.95,"xT1":424.9,"yT1":0,"xT2":1058.1,"yT2":0,"toosoon":0,"cond_shown":"equaldotanddens","ratio_trial":250,"smaller_num":"3","larger_num":"12","correct_side":1,"subjID":"JuanFelipeZambranoJoya33","gender":"0","age":"9","school":"4"},{"start_time":1552074948629,"click_time":1552074949897,"finger_time":1552074948816,"fix_duration":250,"trial":53,"RT":187,"MT":1081,"sideResp":2,"stimulus":"img/900/randomdotsizeEA/L/2_Ratio_900_L_20_R_18.png","xmouse":[822,822,822,822,822,822,822,826,829,835,842,850,856,874,880,889,900,927,946,960,974,983,996,1001,1005,1012,1020,1031,1033,1033,1033,1035,1037,1042,1046,1048,1048,1049,1049,1049,1050,1050,1050,1050,1050,1050,1050,1050,1050,1050,1050,1050,1050,1050,1050,1050,1050,1050,1050,1051,1053,1055,1056,1059],"ymouse":[510,510,510,510,510,510,510,498,487,466,437,400,374,326,305,288,275,252,241,231,220,213,201,194,188,180,171,156,146,140,131,126,121,105,92,85,79,72,69,68,67,67,66,65,64,64,64,64,64,64,64,64,64,64,64,64,64,64,64,63,61,59,57,56],"timestamp_mouse":[8,31,48,68,88,107,127,147,167,187,207,227,247,268,287,307,326,348,367,387,406,427,447,467,487,507,527,548,568,588,608,627,646,667,687,708,727,747,766,787,808,828,847,868,887,908,926,948,967,988,1008,1028,1048,1068,1088,1106,1128,1148,1167,1187,1207,1227,1246,1268],"xSR":741.5,"ySR":469.95,"xT1":424.9,"yT1":0,"xT2":1058.1,"yT2":0,"toosoon":0,"cond_shown":"randomdotsizeEA","ratio_trial":900,"smaller_num":"18","larger_num":"20","correct_side":1,"subjID":"JuanFelipeZambranoJoya33","gender":"0","age":"9","school":"4"},{"start_time":1552074951516,"click_time":1552074952576,"finger_time":1552074952176,"fix_duration":417.3437222047247,"trial":54,"RT":660,"MT":400,"sideResp":1,"stimulus":"img/500/randomdotsizeEA/L/8_Ratio_500_L_8_R_4.png","xmouse":[774,774,774,774,774,774,774,774,774,774,774,774,774,774,774,774,774,774,774,774,774,774,774,774,774,774,774,774,774,774,774,767,758,740,712,702,695,691,679,665,658,652,648,646,641,638,634,625,609,564,539,513,493,483],"ymouse":[548,548,548,548,548,548,548,548,548,548,548,548,548,548,548,548,548,548,548,548,548,548,548,548,548,548,548,548,548,548,548,513,478,420,355,337,325,314,285,254,242,233,227,223,218,215,210,201,181,145,129,115,105,98],"timestamp_mouse":[8,32,41,61,79,100,120,140,159,180,200,221,241,260,281,301,321,339,361,380,400,421,441,461,480,500,520,541,560,581,601,621,640,660,680,701,721,741,760,780,800,821,841,861,879,901,920,940,960,979,1000,1020,1040,1060],"xSR":741.5,"ySR":469.95,"xT1":424.9,"yT1":0,"xT2":1058.1,"yT2":0,"toosoon":0,"cond_shown":"randomdotsizeEA","ratio_trial":500,"smaller_num":"4","larger_num":"8","correct_side":1,"subjID":"JuanFelipeZambranoJoya33","gender":"0","age":"9","school":"4"},{"start_time":1552074954624,"click_time":1552074955396,"finger_time":1552074954976,"fix_duration":765.7003757851103,"trial":55,"RT":352,"MT":420,"sideResp":1,"stimulus":"img/900/equaldotsize/R/3_Ratio_900_L_9_R_10.png","xmouse":[755,755,755,755,755,755,755,755,755,755,755,755,755,755,755,755,755,748,737,733,728,723,706,668,650,637,628,626,625,625,625,625,625,625,625,614,592,556,473],"ymouse":[482,482,482,482,482,482,482,482,482,482,482,482,482,482,482,480,470,444,405,393,375,352,310,237,208,189,176,172,169,169,169,169,169,169,166,149,118,78,9],"timestamp_mouse":[12,34,52,71,92,113,132,153,171,192,212,233,252,271,292,312,333,352,372,392,413,432,453,472,492,512,532,552,572,593,612,633,652,673,692,712,731,753,772],"xSR":741.5,"ySR":469.95,"xT1":424.9,"yT1":0,"xT2":1058.1,"yT2":0,"toosoon":0,"cond_shown":"equaldotsize","ratio_trial":900,"smaller_num":"9","larger_num":"10","correct_side":2,"subjID":"JuanFelipeZambranoJoya33","gender":"0","age":"9","school":"4"},{"start_time":1552074957192,"click_time":1552074957877,"finger_time":1552074957476,"fix_duration":734.2875698397786,"trial":56,"RT":284,"MT":401,"sideResp":2,"stimulus":"img/900/equaldotsize/L/1_Ratio_900_L_10_R_9.png","xmouse":[831,831,831,831,831,831,831,831,831,831,831,831,831,836,846,914,967,1017,1058,1090,1116,1121,1124,1124,1125,1126,1128,1131,1134,1137,1139,1139,1138,1137,1137],"ymouse":[546,546,546,546,546,546,546,546,546,546,546,546,546,546,541,502,472,446,415,389,346,325,314,312,310,301,290,274,252,224,168,136,117,102,93],"timestamp_mouse":[12,24,44,65,83,104,125,145,164,185,205,225,244,264,284,306,324,344,364,385,405,425,443,464,484,504,524,544,563,585,605,623,643,663,684],"xSR":741.5,"ySR":469.95,"xT1":424.9,"yT1":0,"xT2":1058.1,"yT2":0,"toosoon":0,"cond_shown":"equaldotsize","ratio_trial":900,"smaller_num":"9","larger_num":"10","correct_side":1,"subjID":"JuanFelipeZambranoJoya33","gender":"0","age":"9","school":"4"},{"start_time":1552074964752,"click_time":1552074968118,"finger_time":1552074967717,"fix_duration":1172.2723725540855,"trial":57,"RT":2965,"MT":401,"sideResp":2,"stimulus":"img/500/equaldotanddens/R/15_Ratio_500_L_1_R_2.png","xmouse":[795,795,795,795,795,795,795,795,795,795,795,795,795,795,795,795,795,795,795,795,795,795,795,795,795,795,795,795,795,795,795,795,795,795,795,795,795,795,795,795,795,795,795,795,795,795,795,795,795,795,795,795,795,795,795,795,795,795,795,795,795,795,795,795,795,795,795,795,795,795,795,795,795,795,795,795,795,795,795,795,795,795,795,795,795,795,795,795,795,795,795,795,795,795,795,795,795,795,795,795,795,795,795,795,795,795,795,795,795,795,795,795,795,795,795,795,795,795,795,795,795,795,795,795,795,795,795,795,795,795,795,795,795,795,795,795,795,795,795,795,795,795,795,795,795,801,814,836,867,903,937,981,1032,1117,1137,1151,1156,1157,1157,1157,1158,1161,1165,1173,1183,1182,1175,1161,1137],"ymouse":[551,551,551,551,551,551,551,551,551,551,551,551,551,551,551,551,551,551,551,551,551,551,551,551,551,551,551,551,551,551,551,551,551,551,551,551,551,551,551,551,551,551,551,551,551,551,551,551,551,551,551,551,551,551,551,551,551,551,551,551,551,551,551,551,551,551,551,551,551,551,551,551,551,551,551,551,551,551,551,551,551,551,551,551,551,551,551,551,551,551,551,551,551,551,551,551,551,551,551,551,551,551,551,551,551,551,551,551,551,551,551,551,551,551,551,551,551,551,551,551,551,551,551,551,551,551,551,551,551,551,551,551,551,551,551,551,551,551,551,551,551,551,551,551,551,549,541,531,511,484,458,420,376,292,266,242,228,218,205,192,181,164,139,116,79,69,62,58,51],"timestamp_mouse":[10,28,44,63,85,105,124,145,164,185,204,224,245,265,284,305,324,344,363,385,405,425,445,465,485,504,524,543,565,584,605,623,644,665,685,703,724,744,765,785,805,824,845,864,884,903,924,945,964,985,1004,1025,1045,1063,1085,1104,1124,1143,1165,1184,1205,1225,1245,1264,1284,1304,1325,1345,1365,1385,1404,1424,1445,1465,1485,1504,1525,1544,1564,1585,1605,1624,1645,1664,1684,1705,1723,1744,1765,1785,1804,1825,1845,1864,1883,1904,1924,1944,1965,1984,2005,2025,2045,2063,2084,2104,2125,2144,2165,2184,2205,2224,2245,2264,2285,2303,2324,2345,2364,2385,2404,2424,2445,2464,2485,2503,2523,2543,2565,2584,2604,2624,2644,2665,2684,2704,2725,2744,2764,2785,2805,2825,2844,2863,2884,2904,2925,2945,2964,2984,3004,3024,3045,3065,3084,3104,3124,3144,3166,3184,3203,3224,3244,3263,3284,3304,3324,3344,3366],"xSR":741.5,"ySR":469.95,"xT1":424.9,"yT1":0,"xT2":1058.1,"yT2":0,"toosoon":0,"cond_shown":"equaldotanddens","ratio_trial":500,"smaller_num":"1","larger_num":"2","correct_side":2,"subjID":"JuanFelipeZambranoJoya33","gender":"0","age":"9","school":"4"},{"start_time":1552074969348,"click_time":1552074970138,"finger_time":1552074970017,"fix_duration":250,"trial":58,"RT":669,"MT":121,"sideResp":2,"stimulus":"img/500/equaldotsize/R/15_Ratio_500_L_1_R_2.png","xmouse":[790,790,790,790,790,790,790,790,790,790,790,790,790,790,790,790,790,790,790,790,790,791,796,797,799,799,799,799,799,799,799,802,803,807,829,856,886,946,988,1108],"ymouse":[538,538,538,538,538,538,538,538,538,538,538,538,538,538,538,538,538,538,538,538,538,530,517,512,507,507,506,506,506,506,506,492,482,455,369,323,286,228,177,69],"timestamp_mouse":[10,32,48,69,87,109,127,147,168,189,208,229,249,269,289,309,328,348,371,390,409,429,451,469,490,509,530,549,569,589,609,630,650,669,689,710,729,750,769,790],"xSR":741.5,"ySR":469.95,"xT1":424.9,"yT1":0,"xT2":1058.1,"yT2":0,"toosoon":0,"cond_shown":"equaldotsize","ratio_trial":500,"smaller_num":"1","larger_num":"2","correct_side":2,"subjID":"JuanFelipeZambranoJoya33","gender":"0","age":"9","school":"4"},{"start_time":1552074972311,"click_time":1552074973177,"finger_time":1552074972778,"fix_duration":1490.9427584768025,"trial":59,"RT":467,"MT":399,"sideResp":2,"stimulus":"img/900/equaldotsize/L/2_Ratio_900_L_20_R_18.png","xmouse":[789,789,789,789,789,789,789,789,789,789,788,787,787,787,787,787,787,787,787,787,787,788,790,809,828,842,851,852,852,853,853,853,858,863,869,877,900,911,924,952,975,1024,1044,1059],"ymouse":[515,515,515,515,515,515,515,515,514,514,515,519,521,522,523,524,525,525,525,525,525,526,522,448,375,326,298,296,295,295,295,285,271,250,230,211,177,162,147,124,108,77,66,61],"timestamp_mouse":[8,37,46,66,86,106,127,147,166,186,206,226,246,267,286,306,326,346,367,386,406,426,446,467,486,506,526,546,567,586,607,626,647,667,687,706,727,747,766,786,807,827,846,866],"xSR":741.5,"ySR":469.95,"xT1":424.9,"yT1":0,"xT2":1058.1,"yT2":0,"toosoon":0,"cond_shown":"equaldotsize","ratio_trial":900,"smaller_num":"18","larger_num":"20","correct_side":1,"subjID":"JuanFelipeZambranoJoya33","gender":"0","age":"9","school":"4"},{"start_time":1552074974271,"click_time":1552074974877,"finger_time":1552074974537,"fix_duration":250,"trial":60,"RT":266,"MT":340,"sideResp":1,"stimulus":"img/900/randomdotsizeEA/L/2_Ratio_900_L_20_R_18.png","xmouse":[751,751,751,751,751,751,751,751,751,751,751,751,750,740,722,703,687,669,646,643,643,643,643,643,641,633,610,581,533,513,490],"ymouse":[555,555,555,555,555,555,555,555,555,555,555,555,556,509,451,410,381,359,341,340,339,339,339,339,337,316,265,198,130,106,81],"timestamp_mouse":[6,26,47,67,87,107,126,146,167,186,206,227,246,266,287,307,326,347,367,388,407,426,447,466,487,507,527,548,566,587,606],"xSR":741.5,"ySR":469.95,"xT1":424.9,"yT1":0,"xT2":1058.1,"yT2":0,"toosoon":0,"cond_shown":"randomdotsizeEA","ratio_trial":900,"smaller_num":"18","larger_num":"20","correct_side":1,"subjID":"JuanFelipeZambranoJoya33","gender":"0","age":"9","school":"4"},{"start_time":1552074975964,"click_time":1552074976918,"finger_time":1552074976258,"fix_duration":286.1303316793996,"trial":61,"RT":294,"MT":660,"sideResp":2,"stimulus":"img/900/equaldotanddens/R/15_Ratio_900_L_9_R_10.png","xmouse":[764,764,764,764,764,764,764,764,764,764,765,766,768,771,803,826,833,836,837,837,837,837,837,837,837,838,840,847,878,900,939,995,1054,1102,1177,1195,1207,1213,1217,1219,1220,1220,1219,1201,1184,1175,1164,1149],"ymouse":[493,493,493,493,493,493,493,493,493,493,493,493,492,491,447,414,402,398,397,396,396,396,396,396,396,395,394,392,376,363,344,321,296,269,210,188,170,150,120,112,103,95,85,69,66,66,66,66],"timestamp_mouse":[14,37,54,73,94,113,134,153,174,194,213,234,253,274,294,314,333,353,373,394,414,433,453,473,494,513,534,554,573,593,613,633,653,673,694,713,733,754,774,793,813,833,855,874,893,913,933,954],"xSR":741.5,"ySR":469.95,"xT1":424.9,"yT1":0,"xT2":1058.1,"yT2":0,"toosoon":0,"cond_shown":"equaldotanddens","ratio_trial":900,"smaller_num":"9","larger_num":"10","correct_side":2,"subjID":"JuanFelipeZambranoJoya33","gender":"0","age":"9","school":"4"},{"start_time":1552074978125,"click_time":1552074979039,"finger_time":1552074978517,"fix_duration":625.9300175748151,"trial":62,"RT":392,"MT":522,"sideResp":1,"stimulus":"img/750/equaldotanddens/L/13_Ratio_750_L_8_R_6.png","xmouse":[754,754,754,754,754,754,754,754,754,754,754,754,754,754,754,756,774,789,807,829,856,906,933,966,977,981,981,981,981,981,978,924,851,761,654,532,418,416,416,416,416,416,416,417,421,429],"ymouse":[512,512,512,512,512,512,512,512,512,512,512,512,512,512,512,512,500,495,485,466,432,349,306,257,236,230,229,229,229,229,228,216,206,193,183,165,133,131,130,128,124,117,115,111,103,79],"timestamp_mouse":[15,36,52,72,92,112,133,153,172,192,212,234,252,273,292,313,332,353,373,392,412,432,453,472,492,513,532,552,573,592,613,632,652,672,692,713,732,752,773,793,814,832,852,873,892,914],"xSR":741.5,"ySR":469.95,"xT1":424.9,"yT1":0,"xT2":1058.1,"yT2":0,"toosoon":0,"cond_shown":"equaldotanddens","ratio_trial":750,"smaller_num":"6","larger_num":"8","correct_side":1,"subjID":"JuanFelipeZambranoJoya33","gender":"0","age":"9","school":"4"},{"start_time":1552074980716,"click_time":1552074981737,"finger_time":1552074981257,"fix_duration":516.2799969114735,"trial":63,"RT":541,"MT":480,"sideResp":1,"stimulus":"img/500/randomdotsizeEA/L/11_Ratio_500_L_12_R_6.png","xmouse":[796,796,796,796,796,796,796,796,796,796,796,796,796,796,796,796,796,796,796,796,796,796,796,796,796,794,788,777,746,728,707,691,678,677,677,677,677,673,668,663,661,657,642,626,603,584,568,551,539,534,527,521],"ymouse":[490,490,490,490,490,490,490,490,490,490,490,490,490,490,490,490,490,490,490,490,490,490,490,490,490,487,472,443,330,270,216,183,154,152,151,151,150,140,131,125,123,121,116,109,99,92,87,83,81