[{"start_time":1552073715473,"click_time":1552073716629,"finger_time":1552073715515,"fix_duration":1242.9067574786013,"trial":0,"RT":42,"MT":1114,"sideResp":1,"stimulus":[],"xmouse":[795,795,795,795,795,795,795,795,795,795,795,795,795,795,795,795,795,795,795,795,795,795,795,795,795,795,795,795,795,792,787,785,781,773,749,732,716,697,675,643,627,621,618,618,618,616,615,612,610,609,605,602,599,593,566,544,521],"ymouse":[447,442,442,442,442,442,442,442,442,442,442,442,442,442,442,442,442,442,442,442,442,442,442,442,442,442,440,423,407,382,366,356,343,323,274,247,222,197,171,141,131,127,125,124,124,123,122,120,119,119,118,118,116,114,96,84,69],"timestamp_mouse":[42,53,74,94,114,135,154,174,195,214,235,255,274,295,314,335,354,375,395,414,434,455,475,495,514,534,554,574,594,614,635,654,674,695,714,735,754,774,795,814,835,854,875,895,915,934,954,975,994,1015,1034,1054,1075,1094,1115,1133,1155],"xSR":741.5,"ySR":501.8,"xT1":424.9,"yT1":0,"xT2":1058.1,"yT2":0,"toosoon":0,"cond_shown":"Incongruent","ratio_trial":300,"L_num":3,"L_den":6,"R_num":4,"R_den":20,"correct_side":1,"subjID":"juan felipe zambrano joya 33","gender":"0","age":"10","school":"4","test":{"fix_dur":[250,1500],"timestim":1000,"targets_dim":[100,100],"targets_relative_coord":[0.3,0.7],"size_stim":[880,420],"start_dim":[100,100],"size_start":[300,300],"size_fix":60,"samplingrate":20,"img_types":["Congruent","Incongruent"],"ratios":[100,200,300],"rep_conds":19,"nTrials":120,"trials_to_rest":500,"Trials_order":[59,11,63,40,35,88,60,2,62,31,81,91,90,96,38,45,80,57,85,111,110,78,101,43,12,58,102,33,55,51,26,76,74,44,7,27,104,71,118,114,115,52,119,97,25,5,84,105,108,99,106,0,20,8,1,16,112,23,113,107,66,83,49,69,13,68,67,92,75,42,72,22,116,21,6,39,79,19,56,9,17,77,14,46,36,73,98,64,103,95,37,65,109,4,61,48,28,94,18,100,93,29,24,89,15,87,34,82,3,54,32,41,86,70,30,10,117,53,50,47],"cond_shown":["Incongruent","Incongruent","Incongruent","Congruent","Incongruent","Congruent","Congruent","Congruent","Congruent","Incongruent","Incongruent","Incongruent","Congruent","Congruent","Congruent","Incongruent","Congruent","Incongruent","Incongruent","Incongruent","Congruent","Congruent","Incongruent","Incongruent","Congruent","Congruent","Congruent","Incongruent","Incongruent","Incongruent","Congruent","Congruent","Congruent","Congruent","Incongruent","Incongruent","Congruent","Incongruent","Congruent","Congruent","Incongruent","Congruent","Incongruent","Incongruent","Incongruent","Incongruent","Congruent","Incongruent","Congruent","Incongruent","Congruent","Congruent","Congruent","Congruent","Incongruent","Congruent","Congruent","Incongruent","Incongruent","Incongruent","Congruent","Incongruent","Incongruent","Incongruent","Incongruent","Congruent","Incongruent","Congruent","Incongruent","Congruent","Congruent","Congruent","Congruent","Incongruent","Congruent","Incongruent","Incongruent","Incongruent","Congruent","Incongruent","Incongruent","Incongruent","Congruent","Congruent","Congruent","Incongruent","Congruent","Congruent","Incongruent","Incongruent","Incongruent","Incongruent","Incongruent","Congruent","Incongruent","Congruent","Congruent","Congruent","Congruent","Congruent","Incongruent","Incongruent","Congruent","Incongruent","Incongruent","Incongruent","Congruent","Congruent","Incongruent","Congruent","Congruent","Incongruent","Congruent","Congruent","Congruent","Congruent","Incongruent","Incongruent","Congruent","Incongruent"],"ratio_trial":[300,300,200,300,300,300,100,200,200,100,200,100,100,100,200,200,200,200,100,200,200,100,300,100,100,300,100,200,100,200,200,300,200,200,100,200,200,300,300,100,100,300,300,100,100,300,100,200,100,200,300,100,200,200,100,300,300,300,300,300,100,300,100,200,100,200,100,200,200,100,100,300,200,200,100,200,100,100,200,200,300,300,200,300,100,100,200,300,100,300,100,300,100,300,100,100,300,300,100,300,200,300,100,300,200,200,300,300,200,100,200,300,200,300,100,300,200,300,200,300],"left_num":[3,8,1,1,13,2,11,16,3,6,1,10,12,15,7,11,21,7,9,7,6,6,2,8,3,11,9,9,4,1,3,20,16,3,11,4,11,4,11,1,6,4,8,4,6,4,4,1,6,3,1,1,8,12,8,11,20,13,1,4,4,2,13,4,2,11,2,8,3,3,9,5,3,7,11,1,13,12,9,11,4,4,20,20,7,3,1,11,3,1,11,2,3,20,6,11,3,1,6,3,7,3,10,13,7,4,1,8,14,15,9,4,8,11,9,24,14,13,3,4],"right_num":[4,9,3,3,12,12,4,12,11,13,2,8,13,13,2,3,2,6,13,14,11,5,6,6,2,2,8,8,8,2,9,13,9,14,9,1,3,2,4,3,3,1,9,8,11,2,15,2,5,11,3,3,3,6,6,1,8,12,2,2,15,6,12,1,6,3,6,7,11,4,8,6,7,6,4,3,12,2,4,3,2,2,9,13,9,8,21,1,8,2,9,6,4,9,7,4,2,3,5,4,4,4,3,12,4,1,19,10,6,13,13,2,7,2,8,8,6,12,14,2],"left_den":[6,10,2,5,26,10,22,20,10,10,3,25,30,25,21,20,30,15,15,10,20,20,4,16,6,22,15,15,8,3,12,25,30,6,22,30,22,20,22,2,12,10,10,8,10,20,10,3,20,4,5,2,15,20,16,22,25,26,2,20,10,4,26,30,4,22,4,15,4,20,15,25,10,15,22,2,26,30,20,20,20,20,25,25,14,5,2,22,5,2,22,4,6,25,10,22,6,5,20,6,15,6,25,26,15,30,3,15,30,25,30,20,15,22,15,30,30,26,6,20],"right_den":[20,18,10,6,15,24,10,20,22,26,15,16,26,26,15,4,4,9,26,28,22,25,30,10,5,10,16,10,20,15,20,26,27,20,15,3,10,4,20,5,5,10,18,20,22,4,30,15,25,20,6,5,9,15,10,5,16,15,10,4,30,30,20,3,15,10,15,21,20,16,16,12,14,9,10,10,20,4,16,4,4,4,15,26,15,16,30,5,16,10,15,30,10,18,14,10,10,6,25,5,6,20,10,15,6,3,30,12,9,26,26,4,21,10,16,16,9,15,20,4],"correct_side":[1,1,1,2,2,2,1,1,2,1,1,2,2,1,1,2,1,2,1,1,2,1,1,2,1,1,1,2,1,1,2,1,1,2,2,2,1,2,1,2,2,1,1,1,1,2,2,1,1,1,2,2,1,1,2,1,1,2,1,2,2,1,2,2,1,1,1,1,1,2,1,2,2,2,1,1,2,2,1,2,2,2,1,1,2,1,2,1,1,1,2,1,1,1,1,1,1,2,1,2,2,1,1,2,2,2,2,2,2,1,2,2,1,1,1,1,2,2,2,2],"img_shown":["img2/300/Incongruent/L/I_Dist_300_LN_3_LD_6_RN_4_RD_20_0.png","img2/300/Incongruent/L/I_Dist_300_LN_8_LD_10_RN_9_RD_18_0.png","img2/200/Incongruent/L/I_Dist_200_LN_1_LD_2_RN_3_RD_10_0.png","img2/300/Congruent/R/C_Dist_300_LN_1_LD_5_RN_3_RD_6_1.png","img2/300/Incongruent/R/I_Dist_300_LN_13_LD_26_RN_12_RD_15_1.png","img2/300/Congruent/R/C_Dist_300_LN_2_LD_10_RN_12_RD_24_1.png","img2/100/Congruent/L/C_Dist_100_LN_11_LD_22_RN_4_RD_10_0.png","img2/200/Congruent/L/C_Dist_200_LN_16_LD_20_RN_12_RD_20_0.png","img2/200/Congruent/R/C_Dist_200_LN_3_LD_10_RN_11_RD_22_1.png","img2/100/Incongruent/L/I_Dist_100_LN_6_LD_10_RN_13_RD_26_0.png","img2/200/Incongruent/L/I_Dist_200_LN_1_LD_3_RN_2_RD_15_0.png","img2/100/Incongruent/R/I_Dist_100_LN_10_LD_25_RN_8_RD_16_1.png","img2/100/Congruent/R/C_Dist_100_LN_12_LD_30_RN_13_RD_26_1.png","img2/100/Congruent/L/C_Dist_100_LN_15_LD_25_RN_13_RD_26_0.png","img2/200/Congruent/L/C_Dist_200_LN_7_LD_21_RN_2_RD_15_0.png","img2/200/Incongruent/R/I_Dist_200_LN_11_LD_20_RN_3_RD_4_1.png","img2/200/Congruent/L/C_Dist_200_LN_21_LD_30_RN_2_RD_4_0.png","img2/200/Incongruent/R/I_Dist_200_LN_7_LD_15_RN_6_RD_9_1.png","img2/100/Incongruent/L/I_Dist_100_LN_9_LD_15_RN_13_RD_26_0.png","img2/200/Incongruent/L/I_Dist_200_LN_7_LD_10_RN_14_RD_28_0.png","img2/200/Congruent/R/C_Dist_200_LN_6_LD_20_RN_11_RD_22_1.png","img2/100/Congruent/L/C_Dist_100_LN_6_LD_20_RN_5_RD_25_0.png","img2/300/Incongruent/L/I_Dist_300_LN_2_LD_4_RN_6_RD_30_0.png","img2/100/Incongruent/R/I_Dist_100_LN_8_LD_16_RN_6_RD_10_1.png","img2/100/Congruent/L/C_Dist_100_LN_3_LD_6_RN_2_RD_5_0.png","img2/300/Congruent/L/C_Dist_300_LN_11_LD_22_RN_2_RD_10_0.png","img2/100/Congruent/L/C_Dist_100_LN_9_LD_15_RN_8_RD_16_0.png","img2/200/Incongruent/R/I_Dist_200_LN_9_LD_15_RN_8_RD_10_1.png","img2/100/Incongruent/L/I_Dist_100_LN_4_LD_8_RN_8_RD_20_0.png","img2/200/Incongruent/L/I_Dist_200_LN_1_LD_3_RN_2_RD_15_0.png","img2/200/Congruent/R/C_Dist_200_LN_3_LD_12_RN_9_RD_20_1.png","img2/300/Congruent/L/C_Dist_300_LN_20_LD_25_RN_13_RD_26_0.png","img2/200/Congruent/L/C_Dist_200_LN_16_LD_30_RN_9_RD_27_0.png","img2/200/Congruent/R/C_Dist_200_LN_3_LD_6_RN_14_RD_20_1.png","img2/100/Incongruent/R/I_Dist_100_LN_11_LD_22_RN_9_RD_15_1.png","img2/200/Incongruent/R/I_Dist_200_LN_4_LD_30_RN_1_RD_3_1.png","img2/200/Congruent/L/C_Dist_200_LN_11_LD_22_RN_3_RD_10_0.png","img2/300/Incongruent/R/I_Dist_300_LN_4_LD_20_RN_2_RD_4_1.png","img2/300/Congruent/L/C_Dist_300_LN_11_LD_22_RN_4_RD_20_0.png","img2/100/Congruent/R/C_Dist_100_LN_1_LD_2_RN_3_RD_5_1.png","img2/100/Incongruent/R/I_Dist_100_LN_6_LD_12_RN_3_RD_5_1.png","img2/300/Congruent/L/C_Dist_300_LN_4_LD_10_RN_1_RD_10_0.png","img2/300/Incongruent/L/I_Dist_300_LN_8_LD_10_RN_9_RD_18_0.png","img2/100/Incongruent/L/I_Dist_100_LN_4_LD_8_RN_8_RD_20_0.png","img2/100/Incongruent/L/I_Dist_100_LN_6_LD_10_RN_11_RD_22_0.png","img2/300/Incongruent/R/I_Dist_300_LN_4_LD_20_RN_2_RD_4_1.png","img2/100/Congruent/R/C_Dist_100_LN_4_LD_10_RN_15_RD_30_1.png","img2/200/Incongruent/L/I_Dist_200_LN_1_LD_3_RN_2_RD_15_0.png","img2/100/Congruent/L/C_Dist_100_LN_6_LD_20_RN_5_RD_25_0.png","img2/200/Incongruent/L/I_Dist_200_LN_3_LD_4_RN_11_RD_20_0.png","img2/300/Congruent/R/C_Dist_300_LN_1_LD_5_RN_3_RD_6_1.png","img2/100/Congruent/R/C_Dist_100_LN_1_LD_2_RN_3_RD_5_1.png","img2/200/Congruent/L/C_Dist_200_LN_8_LD_15_RN_3_RD_9_0.png","img2/200/Congruent/L/C_Dist_200_LN_12_LD_20_RN_6_RD_15_0.png","img2/100/Incongruent/R/I_Dist_100_LN_8_LD_16_RN_6_RD_10_1.png","img2/300/Congruent/L/C_Dist_300_LN_11_LD_22_RN_1_RD_5_0.png","img2/300/Congruent/L/C_Dist_300_LN_20_LD_25_RN_8_RD_16_0.png","img2/300/Incongruent/R/I_Dist_300_LN_13_LD_26_RN_12_RD_15_1.png","img2/300/Incongruent/L/I_Dist_300_LN_1_LD_2_RN_2_RD_10_0.png","img2/300/Incongruent/R/I_Dist_300_LN_4_LD_20_RN_2_RD_4_1.png","img2/100/Congruent/R/C_Dist_100_LN_4_LD_10_RN_15_RD_30_1.png","img2/300/Incongruent/L/I_Dist_300_LN_2_LD_4_RN_6_RD_30_0.png","img2/100/Incongruent/R/I_Dist_100_LN_13_LD_26_RN_12_RD_20_1.png","img2/200/Incongruent/R/I_Dist_200_LN_4_LD_30_RN_1_RD_3_1.png","img2/100/Incongruent/L/I_Dist_100_LN_2_LD_4_RN_6_RD_15_0.png","img2/200/Congruent/L/C_Dist_200_LN_11_LD_22_RN_3_RD_10_0.png","img2/100/Incongruent/L/I_Dist_100_LN_2_LD_4_RN_6_RD_15_0.png","img2/200/Congruent/L/C_Dist_200_LN_8_LD_15_RN_7_RD_21_0.png","img2/200/Incongruent/L/I_Dist_200_LN_3_LD_4_RN_11_RD_20_0.png","img2/100/Congruent/R/C_Dist_100_LN_3_LD_20_RN_4_RD_16_1.png","img2/100/Congruent/L/C_Dist_100_LN_9_LD_15_RN_8_RD_16_0.png","img2/300/Congruent/R/C_Dist_300_LN_5_LD_25_RN_6_RD_12_1.png","img2/200/Congruent/R/C_Dist_200_LN_3_LD_10_RN_7_RD_14_1.png","img2/200/Incongruent/R/I_Dist_200_LN_7_LD_15_RN_6_RD_9_1.png","img2/100/Congruent/L/C_Dist_100_LN_11_LD_22_RN_4_RD_10_0.png","img2/200/Incongruent/L/I_Dist_200_LN_1_LD_2_RN_3_RD_10_0.png","img2/100/Incongruent/R/I_Dist_100_LN_13_LD_26_RN_12_RD_20_1.png","img2/100/Incongruent/R/I_Dist_100_LN_12_LD_30_RN_2_RD_4_1.png","img2/200/Congruent/L/C_Dist_200_LN_9_LD_20_RN_4_RD_16_0.png","img2/200/Incongruent/R/I_Dist_200_LN_11_LD_20_RN_3_RD_4_1.png","img2/300/Incongruent/R/I_Dist_300_LN_4_LD_20_RN_2_RD_4_1.png","img2/300/Incongruent/R/I_Dist_300_LN_4_LD_20_RN_2_RD_4_1.png","img2/200/Congruent/L/C_Dist_200_LN_20_LD_25_RN_9_RD_15_0.png","img2/300/Congruent/L/C_Dist_300_LN_20_LD_25_RN_13_RD_26_0.png","img2/100/Congruent/R/C_Dist_100_LN_7_LD_14_RN_9_RD_15_1.png","img2/100/Incongruent/L/I_Dist_100_LN_3_LD_5_RN_8_RD_16_0.png","img2/200/Congruent/R/C_Dist_200_LN_1_LD_2_RN_21_RD_30_1.png","img2/300/Congruent/L/C_Dist_300_LN_11_LD_22_RN_1_RD_5_0.png","img2/100/Incongruent/L/I_Dist_100_LN_3_LD_5_RN_8_RD_16_0.png","img2/300/Incongruent/L/I_Dist_300_LN_1_LD_2_RN_2_RD_10_0.png","img2/100/Incongruent/R/I_Dist_100_LN_11_LD_22_RN_9_RD_15_1.png","img2/300/Incongruent/L/I_Dist_300_LN_2_LD_4_RN_6_RD_30_0.png","img2/100/Incongruent/L/I_Dist_100_LN_3_LD_6_RN_4_RD_10_0.png","img2/300/Congruent/L/C_Dist_300_LN_20_LD_25_RN_9_RD_18_0.png","img2/100/Incongruent/L/I_Dist_100_LN_6_LD_10_RN_7_RD_14_0.png","img2/100/Congruent/L/C_Dist_100_LN_11_LD_22_RN_4_RD_10_0.png","img2/300/Congruent/L/C_Dist_300_LN_3_LD_6_RN_2_RD_10_0.png","img2/300/Congruent/R/C_Dist_300_LN_1_LD_5_RN_3_RD_6_1.png","img2/100/Congruent/L/C_Dist_100_LN_6_LD_20_RN_5_RD_25_0.png","img2/300/Congruent/R/C_Dist_300_LN_3_LD_6_RN_4_RD_5_1.png","img2/200/Incongruent/R/I_Dist_200_LN_7_LD_15_RN_4_RD_6_1.png","img2/300/Incongruent/L/I_Dist_300_LN_3_LD_6_RN_4_RD_20_0.png","img2/100/Congruent/L/C_Dist_100_LN_10_LD_25_RN_3_RD_10_0.png","img2/300/Incongruent/R/I_Dist_300_LN_13_LD_26_RN_12_RD_15_1.png","img2/200/Incongruent/R/I_Dist_200_LN_7_LD_15_RN_4_RD_6_1.png","img2/200/Incongruent/R/I_Dist_200_LN_4_LD_30_RN_1_RD_3_1.png","img2/300/Congruent/R/C_Dist_300_LN_1_LD_3_RN_19_RD_30_1.png","img2/300/Congruent/R/C_Dist_300_LN_8_LD_15_RN_10_RD_12_1.png","img2/200/Incongruent/R/I_Dist_200_LN_14_LD_30_RN_6_RD_9_1.png","img2/100/Congruent/L/C_Dist_100_LN_15_LD_25_RN_13_RD_26_0.png","img2/200/Congruent/R/C_Dist_200_LN_9_LD_30_RN_13_RD_26_1.png","img2/300/Incongruent/R/I_Dist_300_LN_4_LD_20_RN_2_RD_4_1.png","img2/200/Congruent/L/C_Dist_200_LN_8_LD_15_RN_7_RD_21_0.png","img2/300/Congruent/L/C_Dist_300_LN_11_LD_22_RN_2_RD_10_0.png","img2/100/Congruent/L/C_Dist_100_LN_9_LD_15_RN_8_RD_16_0.png","img2/300/Congruent/L/C_Dist_300_LN_24_LD_30_RN_8_RD_16_0.png","img2/200/Incongruent/R/I_Dist_200_LN_14_LD_30_RN_6_RD_9_1.png","img2/300/Incongruent/R/I_Dist_300_LN_13_LD_26_RN_12_RD_15_1.png","img2/200/Congruent/R/C_Dist_200_LN_3_LD_6_RN_14_RD_20_1.png","img2/300/Incongruent/R/I_Dist_300_LN_4_LD_20_RN_2_RD_4_1.png"],"dist100_C":[["C_Dist_100_LN_10_LD_25_RN_3_RD_10_0.png","C_Dist_100_LN_11_LD_22_RN_4_RD_10_0.png","C_Dist_100_LN_11_LD_22_RN_6_RD_15_0.png","C_Dist_100_LN_15_LD_25_RN_13_RD_26_0.png","C_Dist_100_LN_3_LD_6_RN_2_RD_5_0.png","C_Dist_100_LN_6_LD_20_RN_5_RD_25_0.png","C_Dist_100_LN_8_LD_16_RN_2_RD_5_0.png","C_Dist_100_LN_9_LD_15_RN_8_RD_16_0.png"],["C_Dist_100_LN_1_LD_2_RN_18_RD_30_1.png","C_Dist_100_LN_1_LD_2_RN_3_RD_5_1.png","C_Dist_100_LN_12_LD_30_RN_13_RD_26_1.png","C_Dist_100_LN_2_LD_5_RN_11_RD_22_1.png","C_Dist_100_LN_2_LD_5_RN_6_RD_12_1.png","C_Dist_100_LN_3_LD_20_RN_4_RD_16_1.png","C_Dist_100_LN_4_LD_10_RN_15_RD_30_1.png","C_Dist_100_LN_4_LD_8_RN_6_RD_10_1.png","C_Dist_100_LN_6_LD_12_RN_15_RD_25_1.png","C_Dist_100_LN_7_LD_14_RN_15_RD_25_1.png","C_Dist_100_LN_7_LD_14_RN_9_RD_15_1.png"]],"dist100_I":[["I_Dist_100_LN_1_LD_2_RN_8_RD_20_0.png","I_Dist_100_LN_2_LD_4_RN_6_RD_15_0.png","I_Dist_100_LN_2_LD_4_RN_8_RD_20_0.png","I_Dist_100_LN_3_LD_5_RN_11_RD_22_0.png","I_Dist_100_LN_3_LD_5_RN_8_RD_16_0.png","I_Dist_100_LN_3_LD_6_RN_4_RD_10_0.png","I_Dist_100_LN_3_LD_9_RN_7_RD_30_0.png","I_Dist_100_LN_4_LD_8_RN_8_RD_20_0.png","I_Dist_100_LN_6_LD_10_RN_11_RD_22_0.png","I_Dist_100_LN_6_LD_10_RN_13_RD_26_0.png","I_Dist_100_LN_6_LD_10_RN_7_RD_14_0.png","I_Dist_100_LN_9_LD_10_RN_20_RD_25_0.png","I_Dist_100_LN_9_LD_15_RN_13_RD_26_0.png","I_Dist_100_LN_9_LD_15_RN_14_RD_28_0.png"],["I_Dist_100_LN_10_LD_25_RN_8_RD_16_1.png","I_Dist_100_LN_10_LD_25_RN_9_RD_18_1.png","I_Dist_100_LN_11_LD_22_RN_9_RD_15_1.png","I_Dist_100_LN_12_LD_24_RN_9_RD_15_1.png","I_Dist_100_LN_12_LD_30_RN_2_RD_4_1.png","I_Dist_100_LN_13_LD_26_RN_12_RD_20_1.png","I_Dist_100_LN_13_LD_26_RN_6_RD_10_1.png","I_Dist_100_LN_17_LD_30_RN_10_RD_15_1.png","I_Dist_100_LN_6_LD_12_RN_3_RD_5_1.png","I_Dist_100_LN_8_LD_16_RN_6_RD_10_1.png","I_Dist_100_LN_8_LD_20_RN_1_RD_2_1.png","I_Dist_100_LN_9_LD_18_RN_6_RD_10_1.png"]],"dist100_S":[["E_Dist_100_LN_2_LD_12_RN_2_RD_30_0.png","E_Dist_100_LN_6_LD_10_RN_6_RD_12_0.png"],["E_Dist_100_LN_6_LD_12_RN_6_RD_10_1.png"]],"dist200_C":[["C_Dist_200_LN_11_LD_22_RN_3_RD_10_0.png","C_Dist_200_LN_12_LD_15_RN_6_RD_10_0.png","C_Dist_200_LN_12_LD_20_RN_6_RD_15_0.png","C_Dist_200_LN_14_LD_28_RN_6_RD_20_0.png","C_Dist_200_LN_15_LD_25_RN_4_RD_10_0.png","C_Dist_200_LN_16_LD_20_RN_12_RD_20_0.png","C_Dist_200_LN_16_LD_30_RN_9_RD_27_0.png","C_Dist_200_LN_20_LD_25_RN_9_RD_15_0.png","C_Dist_200_LN_21_LD_30_RN_2_RD_4_0.png","C_Dist_200_LN_4_LD_10_RN_3_RD_15_0.png","C_Dist_200_LN_4_LD_8_RN_3_RD_10_0.png","C_Dist_200_LN_6_LD_15_RN_3_RD_15_0.png","C_Dist_200_LN_7_LD_21_RN_2_RD_15_0.png","C_Dist_200_LN_8_LD_15_RN_2_RD_6_0.png","C_Dist_200_LN_8_LD_15_RN_3_RD_9_0.png","C_Dist_200_LN_8_LD_15_RN_7_RD_21_0.png","C_Dist_200_LN_9_LD_20_RN_4_RD_16_0.png"],["C_Dist_200_LN_1_LD_2_RN_21_RD_30_1.png","C_Dist_200_LN_13_LD_26_RN_14_RD_20_1.png","C_Dist_200_LN_3_LD_10_RN_11_RD_22_1.png","C_Dist_200_LN_3_LD_10_RN_14_RD_28_1.png","C_Dist_200_LN_3_LD_10_RN_7_RD_14_1.png","C_Dist_200_LN_3_LD_12_RN_9_RD_20_1.png","C_Dist_200_LN_3_LD_6_RN_14_RD_20_1.png","C_Dist_200_LN_5_LD_10_RN_14_RD_20_1.png","C_Dist_200_LN_6_LD_12_RN_7_RD_10_1.png","C_Dist_200_LN_6_LD_20_RN_11_RD_22_1.png","C_Dist_200_LN_7_LD_15_RN_18_RD_27_1.png","C_Dist_200_LN_9_LD_30_RN_13_RD_26_1.png"]],"dist200_I":[["I_Dist_200_LN_1_LD_2_RN_3_RD_10_0.png","I_Dist_200_LN_1_LD_3_RN_2_RD_15_0.png","I_Dist_200_LN_3_LD_4_RN_11_RD_20_0.png","I_Dist_200_LN_4_LD_5_RN_6_RD_10_0.png","I_Dist_200_LN_4_LD_6_RN_14_RD_30_0.png","I_Dist_200_LN_7_LD_10_RN_12_RD_24_0.png","I_Dist_200_LN_7_LD_10_RN_14_RD_28_0.png","I_Dist_200_LN_7_LD_10_RN_8_RD_16_0.png"],["I_Dist_200_LN_11_LD_20_RN_3_RD_4_1.png","I_Dist_200_LN_14_LD_30_RN_12_RD_18_1.png","I_Dist_200_LN_14_LD_30_RN_6_RD_9_1.png","I_Dist_200_LN_3_LD_10_RN_1_RD_2_1.png","I_Dist_200_LN_4_LD_30_RN_1_RD_3_1.png","I_Dist_200_LN_6_LD_20_RN_3_RD_6_1.png","I_Dist_200_LN_7_LD_15_RN_4_RD_6_1.png","I_Dist_200_LN_7_LD_15_RN_6_RD_9_1.png","I_Dist_200_LN_9_LD_15_RN_8_RD_10_1.png"]],"dist200_S":[["E_Dist_200_LN_3_LD_6_RN_3_RD_10_0.png"],["E_Dist_200_LN_3_LD_10_RN_3_RD_6_1.png"]],"dist300_C":[["C_Dist_300_LN_11_LD_22_RN_1_RD_5_0.png","C_Dist_300_LN_11_LD_22_RN_2_RD_10_0.png","C_Dist_300_LN_11_LD_22_RN_4_RD_20_0.png","C_Dist_300_LN_12_LD_24_RN_2_RD_10_0.png","C_Dist_300_LN_18_LD_20_RN_9_RD_15_0.png","C_Dist_300_LN_20_LD_25_RN_13_RD_26_0.png","C_Dist_300_LN_20_LD_25_RN_14_RD_28_0.png","C_Dist_300_LN_20_LD_25_RN_5_RD_10_0.png","C_Dist_300_LN_20_LD_25_RN_8_RD_16_0.png","C_Dist_300_LN_20_LD_25_RN_9_RD_18_0.png","C_Dist_300_LN_24_LD_30_RN_2_RD_4_0.png","C_Dist_300_LN_24_LD_30_RN_8_RD_16_0.png","C_Dist_300_LN_3_LD_6_RN_2_RD_10_0.png","C_Dist_300_LN_4_LD_10_RN_1_RD_10_0.png","C_Dist_300_LN_4_LD_5_RN_2_RD_4_0.png","C_Dist_300_LN_8_LD_16_RN_1_RD_5_0.png","C_Dist_300_LN_9_LD_10_RN_3_RD_5_0.png"],["C_Dist_300_LN_1_LD_20_RN_7_RD_20_1.png","C_Dist_300_LN_1_LD_3_RN_19_RD_30_1.png","C_Dist_300_LN_1_LD_30_RN_8_RD_24_1.png","C_Dist_300_LN_1_LD_5_RN_11_RD_22_1.png","C_Dist_300_LN_1_LD_5_RN_3_RD_6_1.png","C_Dist_300_LN_1_LD_5_RN_6_RD_12_1.png","C_Dist_300_LN_2_LD_10_RN_12_RD_24_1.png","C_Dist_300_LN_2_LD_20_RN_10_RD_25_1.png","C_Dist_300_LN_3_LD_12_RN_11_RD_20_1.png","C_Dist_300_LN_3_LD_6_RN_4_RD_5_1.png","C_Dist_300_LN_4_LD_20_RN_13_RD_26_1.png","C_Dist_300_LN_5_LD_25_RN_6_RD_12_1.png","C_Dist_300_LN_5_LD_25_RN_7_RD_14_1.png","C_Dist_300_LN_7_LD_14_RN_20_RD_25_1.png","C_Dist_300_LN_8_LD_15_RN_10_RD_12_1.png"]],"dist300_I":[["I_Dist_300_LN_1_LD_2_RN_2_RD_10_0.png","I_Dist_300_LN_1_LD_2_RN_3_RD_15_0.png","I_Dist_300_LN_2_LD_4_RN_6_RD_30_0.png","I_Dist_300_LN_3_LD_6_RN_4_RD_20_0.png","I_Dist_300_LN_4_LD_5_RN_6_RD_12_0.png","I_Dist_300_LN_4_LD_5_RN_8_RD_16_0.png","I_Dist_300_LN_7_LD_10_RN_8_RD_20_0.png","I_Dist_300_LN_8_LD_10_RN_14_RD_28_0.png","I_Dist_300_LN_8_LD_10_RN_9_RD_18_0.png"],["I_Dist_300_LN_13_LD_26_RN_12_RD_15_1.png","I_Dist_300_LN_4_LD_20_RN_2_RD_4_1.png"]],"dist300_S":[["E_Dist_300_LN_9_LD_12_RN_9_RD_20_0.png"],["E_Dist_300_LN_18_LD_30_RN_18_RD_20_1.png","E_Dist_300_LN_3_LD_10_RN_3_RD_5_1.png","E_Dist_300_LN_9_LD_20_RN_9_RD_12_1.png"]],"dist500_C":[["C_Dist_500_LN_10_LD_13_RN_7_RD_26_0.png","C_Dist_500_LN_10_LD_15_RN_4_RD_24_0.png","C_Dist_500_LN_12_LD_16_RN_3_RD_12_0.png","C_Dist_500_LN_12_LD_18_RN_4_RD_24_0.png","C_Dist_500_LN_15_LD_18_RN_5_RD_15_0.png","C_Dist_500_LN_15_LD_20_RN_1_RD_4_0.png","C_Dist_500_LN_18_LD_27_RN_1_RD_6_0.png","C_Dist_500_LN_20_LD_24_RN_1_RD_3_0.png","C_Dist_500_LN_20_LD_24_RN_3_RD_9_0.png","C_Dist_500_LN_20_LD_24_RN_7_RD_21_0.png","C_Dist_500_LN_20_LD_28_RN_3_RD_14_0.png","C_Dist_500_LN_21_LD_28_RN_6_RD_24_0.png","C_Dist_500_LN_22_LD_28_RN_2_RD_7_0.png","C_Dist_500_LN_25_LD_30_RN_9_RD_27_0.png","C_Dist_500_LN_4_LD_6_RN_1_RD_6_0.png","C_Dist_500_LN_5_LD_6_RN_2_RD_6_0.png","C_Dist_500_LN_6_LD_9_RN_1_RD_6_0.png","C_Dist_500_LN_7_LD_10_RN_1_RD_5_0.png","C_Dist_500_LN_8_LD_12_RN_1_RD_6_0.png","C_Dist_500_LN_8_LD_12_RN_4_RD_24_0.png"],["C_Dist_500_LN_1_LD_4_RN_12_RD_16_1.png","C_Dist_500_LN_1_LD_4_RN_9_RD_12_1.png","C_Dist_500_LN_1_LD_9_RN_11_RD_18_1.png","C_Dist_500_LN_10_LD_24_RN_22_RD_24_1.png","C_Dist_500_LN_2_LD_12_RN_10_RD_15_1.png","C_Dist_500_LN_2_LD_12_RN_12_RD_18_1.png","C_Dist_500_LN_2_LD_12_RN_4_RD_6_1.png","C_Dist_500_LN_2_LD_24_RN_7_RD_12_1.png","C_Dist_500_LN_2_LD_5_RN_18_RD_20_1.png","C_Dist_500_LN_2_LD_5_RN_9_RD_10_1.png","C_Dist_500_LN_2_LD_8_RN_12_RD_16_1.png","C_Dist_500_LN_2_LD_8_RN_21_RD_28_1.png","C_Dist_500_LN_3_LD_10_RN_4_RD_5_1.png","C_Dist_500_LN_3_LD_12_RN_15_RD_20_1.png","C_Dist_500_LN_3_LD_30_RN_6_RD_10_1.png","C_Dist_500_LN_3_LD_8_RN_14_RD_16_1.png","C_Dist_500_LN_4_LD_16_RN_15_RD_20_1.png","C_Dist_500_LN_4_LD_24_RN_12_RD_18_1.png","C_Dist_500_LN_5_LD_14_RN_6_RD_7_1.png","C_Dist_500_LN_7_LD_21_RN_20_RD_24_1.png","C_Dist_500_LN_7_LD_28_RN_12_RD_16_1.png","C_Dist_500_LN_7_LD_28_RN_9_RD_12_1.png","C_Dist_500_LN_9_LD_27_RN_20_RD_24_1.png"]],"dist500_I":[["I_Dist_500_LN_2_LD_3_RN_4_RD_24_0.png","I_Dist_500_LN_5_LD_6_RN_6_RD_18_0.png","I_Dist_500_LN_7_LD_8_RN_9_RD_24_0.png"],["I_Dist_500_LN_7_LD_21_RN_5_RD_6_1.png"]],"dist500_S":[["E_Dist_500_LN_6_LD_8_RN_6_RD_24_0.png"],["E_Dist_500_LN_2_LD_12_RN_2_RD_3_1.png","E_Dist_500_LN_6_LD_24_RN_6_RD_8_1.png"]]}},{"start_time":1552073718475,"click_time":1552073724589,"finger_time":1552073719287,"fix_duration":306.3506532500586,"trial":1,"RT":812,"MT":5302,"sideResp":2,"stimulus":[],"xmouse":[756,756,756,756,756,756,756,756,759,761,769,773,774,775,775,775,775,775,775,775,775,775,775,775,775,775,775,775,775,775,775,775,775,775,775,775,775,775,774,772,764,761,761,761,761,761,761,761,761,761,761,760,760,760,760,760,762,762,762,763,764,765,765,766,766,766,766,766,766,766,767,771,772,775,777,780,780,780,780,780,780,780,780,780,780,780,780,780,780,780,780,780,780,780,780,780,780,780,780,780,780,780,780,780,780,780,775,770,765,759,759,759,759,759,759,759,759,759,759,759,759,759,759,759,759,759,759,759,759,759,759,759,759,759,759,759,759,759,759,759,759,759,759,759,759,759,759,759,759,760,762,781,789,797,801,804,809,809,809,809,809,809,809,809,809,809,809,809,809,809,809,809,809,809,809,809,809,809,809,809,809,809,809,809,809,809,809,809,809,809,809,809,809,809,809,809,809,809,809,809,809,809,809,809,809,809,809,809,809,809,809,807,805,804,803,802,801,801,800,800,800,800,800,800,800,800,800,800,800,800,800,800,800,800,800,800,800,800,800,800,799,799,799,799,799,799,802,803,804,804,804,804,804,804,804,804,804,804,804,803,803,802,802,801,801,801,799,798,798,798,798,797,797,796,796,796,796,796,796,796,796,796,796,796,796,798,805,809,821,833,853,876,926,946,961,976,992,999,1010,1019,1029,1043,1047,1050,1055,1063],"ymouse":[538,538,538,538,538,538,538,538,541,542,546,548,548,549,549,549,549,549,549,549,549,549,549,549,549,549,549,549,549,549,549,549,549,549,549,549,549,542,527,511,484,475,472,472,472,472,472,472,472,472,473,490,501,510,517,522,528,530,533,536,539,546,547,548,548,548,548,548,549,550,551,561,566,571,577,582,583,583,583,583,583,583,583,583,583,583,583,583,583,583,583,583,583,583,583,583,583,583,583,583,583,583,583,583,583,583,585,586,586,586,586,586,586,586,586,586,586,586,586,586,586,586,586,586,586,586,586,586,586,586,586,586,586,586,586,586,586,586,586,586,586,586,586,586,586,586,586,586,586,584,582,570,565,561,560,558,557,557,557,557,557,557,557,557,557,557,557,557,557,557,557,557,557,557,557,557,557,557,557,557,557,557,557,557,557,557,557,557,557,557,557,557,557,557,557,557,557,557,557,557,557,557,557,557,557,557,557,557,557,557,557,557,557,558,558,558,558,558,558,558,558,558,558,558,558,558,558,558,558,558,558,558,558,558,558,558,558,558,558,558,558,556,553,549,545,539,520,506,494,484,484,484,484,484,484,484,483,485,487,493,495,500,503,506,508,513,523,527,529,530,531,536,539,541,542,542,542,542,542,542,542,542,542,542,541,534,493,466,422,386,340,298,210,174,150,131,112,108,102,97,92,81,77,73,70,65],"timestamp_mouse":[13,42,53,73,92,113,133,153,172,193,213,232,252,272,292,313,332,353,373,392,412,432,453,472,492,512,533,553,572,593,613,633,653,673,692,713,732,752,773,792,812,832,852,873,893,913,932,952,973,992,1012,1032,1052,1072,1092,1113,1132,1153,1173,1193,1212,1232,1252,1273,1293,1313,1332,1352,1372,1392,1411,1432,1452,1473,1492,1513,1532,1553,1572,1592,1613,1633,1653,1672,1691,1713,1732,1752,1773,1792,1812,1833,1853,1872,1891,1913,1932,1952,1972,1993,2012,2032,2052,2072,2092,2112,2132,2153,2173,2193,2212,2233,2253,2272,2293,2312,2332,2352,2372,2392,2412,2432,2452,2473,2492,2513,2532,2553,2573,2593,2612,2633,2651,2673,2692,2713,2733,2752,2773,2792,2813,2832,2853,2872,2892,2912,2933,2953,2973,2993,3012,3033,3052,3072,3092,3112,3132,3153,3173,3192,3213,3232,3252,3273,3292,3313,3333,3353,3373,3393,3412,3433,3453,3473,3493,3512,3532,3553,3572,3593,3612,3632,3652,3673,3693,3712,3732,3752,3773,3793,3812,3833,3851,3871,3892,3912,3933,3953,3972,3993,4011,4033,4053,4072,4092,4113,4133,4152,4172,4192,4213,4232,4252,4273,4293,4313,4333,4352,4373,4392,4412,4432,4453,4473,4492,4512,4532,4552,4573,4593,4612,4632,4653,4672,4693,4712,4733,4753,4771,4793,4812,4833,4852,4873,4892,4912,4932,4953,4973,4992,5012,5032,5053,5073,5093,5113,5132,5152,5172,5193,5212,5232,5252,5271,5293,5313,5332,5352,5372,5392,5413,5432,5452,5473,5493,5512,5532,5552,5572,5592,5613,5631,5652,5673,5692,5712,5732,5753,5772,5792,5813,5832,5852,5872,5892,5913,5932,5953,5973,5993,6012,6032,6053,6073,6092,6113],"xSR":741.5,"ySR":501.8,"xT1":424.9,"yT1":0,"xT2":1058.1,"yT2":0,"toosoon":0,"cond_shown":"Incongruent","ratio_trial":300,"L_num":8,"L_den":10,"R_num":9,"R_den":18,"correct_side":1,"subjID":"juan felipe zambrano joya 33","gender":"0","school":"4","age":"10"},{"start_time":1552073728754,"click_time":1552073732268,"finger_time":1552073729087,"fix_duration":645.517856414808,"trial":2,"RT":333,"MT":3181,"sideResp":2,"stimulus":[],"xmouse":[768,768,768,768,768,768,768,768,768,768,768,768,768,768,768,770,772,772,738,689,637,604,604,604,604,604,605,670,720,752,760,760,760,760,760,760,758,758,755,754,752,752,751,750,748,743,733,717,688,683,681,681,681,681,681,681,681,681,681,681,681,675,569,340,233,216,207,205,205,205,205,205,205,205,205,205,205,205,205,205,205,205,205,205,205,205,205,205,204,202,196,193,190,188,187,186,177,150,150,150,150,150,150,150,150,150,150,150,150,150,150,150,150,295,378,449,486,495,497,499,512,517,543,597,630,656,672,679,683,684,684,684,689,778,844,876,881,881,815,739,675,672,672,672,672,673,673,673,671,669,666,666,666,666,671,697,723,762,821,835,857,939,1019,1186,1226,1234,1235,1235,1231,1228,1228,1223,1221,1206,1185,1149],"ymouse":[535,535,535,535,535,535,535,535,535,535,535,535,535,535,535,516,491,439,300,237,198,182,181,181,181,181,183,242,299,339,351,351,351,351,351,350,349,349,350,354,356,356,357,358,358,357,355,347,329,325,322,322,322,322,322,322,322,322,322,322,322,314,325,388,426,430,430,430,430,430,430,430,430,430,430,430,430,430,430,430,430,430,430,430,430,430,430,430,430,430,430,432,438,452,462,481,539,733,733,733,733,733,733,733,733,733,733,733,733,733,733,733,733,689,572,459,371,346,345,345,345,345,359,398,422,435,435,435,432,430,430,430,430,478,514,537,545,546,552,552,560,563,563,563,563,563,562,558,550,550,550,550,550,550,550,550,550,546,532,522,506,436,352,154,96,86,84,84,82,81,81,81,81,82,82,67],"timestamp_mouse":[13,34,54,74,93,114,133,154,173,194,213,233,254,273,293,314,333,354,373,394,413,433,453,474,493,513,533,554,573,593,614,634,654,673,693,713,734,754,773,793,813,833,853,873,893,914,933,953,973,994,1014,1033,1053,1073,1093,1113,1134,1155,1173,1193,1212,1233,1253,1273,1293,1314,1333,1354,1373,1394,1413,1433,1454,1473,1493,1514,1533,1554,1574,1594,1614,1634,1654,1674,1693,1714,1732,1754,1773,1794,1813,1833,1853,1873,1893,1914,1934,1953,1974,1993,2014,2033,2053,2074,2093,2114,2134,2154,2173,2193,2213,2234,2254,2273,2294,2313,2333,2354,2373,2394,2413,2433,2453,2473,2493,2513,2533,2554,2572,2593,2614,2634,2653,2672,2693,2714,2733,2754,2773,2793,2813,2832,2855,2872,2893,2914,2934,2954,2973,2993,3013,3033,3053,3074,3093,3114,3134,3153,3173,3193,3213,3233,3253,3273,3293,3314,3333,3353,3374,3394,3413,3434,3453,3473,3493,3514],"xSR":741.5,"ySR":501.8,"xT1":424.9,"yT1":0,"xT2":1058.1,"yT2":0,"toosoon":0,"cond_shown":"Incongruent","ratio_trial":200,"L_num":1,"L_den":2,"R_num":3,"R_den":10,"correct_side":1,"subjID":"juan felipe zambrano joya 33","gender":"0","school":"4","age":"10"},{"start_time":1552073739358,"click_time":1552073742748,"finger_time":1552073739668,"fix_duration":1489.1122084794486,"trial":3,"RT":310,"MT":3080,"sideResp":2,"stimulus":[],"xmouse":[790,790,790,790,790,790,790,790,790,790,790,790,790,790,790,797,804,803,795,783,777,771,767,766,766,763,733,733,703,692,692,692,692,692,692,692,690,688,682,675,672,670,669,668,667,666,666,663,661,657,657,657,657,656,652,649,649,649,648,648,648,648,648,648,648,648,648,648,648,648,648,648,648,648,648,648,648,648,648,648,648,648,648,648,648,648,648,648,648,648,648,648,648,648,648,648,648,647,647,659,668,677,684,690,701,707,722,731,736,739,739,739,739,739,739,739,740,750,764,790,800,804,807,808,809,810,811,811,811,811,811,811,811,811,811,811,812,813,813,813,814,815,818,824,839,855,864,886,896,917,927,929,931,933,942,952,957,963,970,993,1008,1020,1029,1035,1041,1048,1052,1054,1056,1060],"ymouse":[540,540,540,540,540,540,540,540,540,540,540,540,540,540,540,501,404,385,352,328,324,323,323,322,322,322,338,338,348,349,349,349,349,349,349,349,349,350,350,350,350,350,350,351,351,351,351,352,352,353,353,353,353,353,357,360,360,361,362,362,363,363,363,363,363,363,363,363,363,363,363,363,363,363,363,363,363,363,363,363,363,363,363,363,363,363,363,363,363,363,363,363,363,363,363,363,385,393,398,414,425,438,454,468,502,523,554,569,578,583,584,585,585,585,585,585,585,582,577,567,563,561,560,558,557,556,556,555,555,555,555,555,555,555,555,555,552,550,548,544,542,536,532,521,489,452,432,384,362,317,299,291,286,280,260,238,225,213,200,163,143,124,112,102,90,79,75,71,69,66],"timestamp_mouse":[11,33,49,69,89,110,129,150,170,190,210,230,249,269,289,310,329,350,369,388,409,429,449,470,489,510,530,549,570,589,610,629,649,670,689,710,729,748,769,788,809,829,849,869,889,910,929,949,970,989,1009,1029,1049,1069,1089,1109,1130,1150,1169,1189,1209,1230,1249,1269,1290,1310,1330,1350,1369,1390,1408,1429,1449,1470,1488,1509,1530,1550,1570,1589,1610,1630,1650,1670,1689,1710,1730,1749,1769,1789,1809,1830,1849,1870,1889,1909,1929,1949,1969,1989,2009,2029,2049,2069,2089,2110,2129,2149,2169,2189,2209,2230,2250,2270,2289,2310,2329,2349,2369,2389,2409,2429,2449,2469,2489,2509,2529,2550,2570,2588,2610,2629,2650,2669,2690,2709,2729,2750,2769,2789,2809,2830,2849,2869,2889,2909,2929,2949,2969,2989,3009,3030,3049,3069,3089,3109,3129,3149,3169,3189,3209,3229,3249,3269,3290,3309,3329,3349,3369,3390],"xSR":741.5,"ySR":501.8,"xT1":424.9,"yT1":0,"xT2":1058.1,"yT2":0,"toosoon":0,"cond_shown":"Congruent","ratio_trial":300,"L_num":1,"L_den":5,"R_num":3,"R_den":6,"correct_side":2,"subjID":"juan felipe zambrano joya 33","gender":"0","school":"4","age":"10"},{"start_time":1552073745610,"click_time":1552073750167,"finger_time":1552073746188,"fix_duration":1000.2905369334104,"trial":4,"RT":578,"MT":3979,"sideResp":1,"stimulus":[],"xmouse":[779,779,779,779,779,779,779,779,779,779,779,779,779,779,779,779,779,779,779,779,779,779,779,779,779,779,779,778,771,764,738,722,706,705,705,705,705,704,704,704,704,704,704,704,703,695,679,673,670,670,670,670,670,670,668,667,660,645,636,627,618,610,610,610,610,610,610,610,610,610,610,610,610,610,610,610,610,610,610,610,610,610,610,610,610,610,610,610,610,610,610,610,610,610,610,610,610,610,610,610,607,606,606,606,606,606,606,606,606,606,606,606,606,606,606,606,606,606,606,606,606,606,606,606,606,606,606,606,606,606,606,606,606,606,606,606,606,606,606,606,606,606,606,606,606,606,606,606,606,606,606,606,606,606,606,606,606,605,605,605,605,605,605,605,606,606,606,606,606,606,606,606,606,606,606,606,606,606,606,607,610,612,617,619,619,619,619,619,620,621,630,636,657,671,684,693,697,700,700,700,700,700,701,701,702,703,705,708,710,712,716,719,729,730,732,733,733,741,751,772,780,781,756,734,701,655,611,507],"ymouse":[564,564,564,564,564,564,564,564,564,564,564,564,564,564,564,564,564,564,564,564,564,564,564,564,564,564,555,527,501,473,428,410,395,395,395,395,395,394,394,394,394,394,394,394,394,392,389,388,388,388,388,388,388,388,388,388,388,393,399,402,406,407,407,407,407,407,407,407,407,407,407,407,407,407,407,407,407,407,407,407,407,407,407,407,407,407,407,407,407,407,407,407,407,407,407,407,407,407,407,407,409,409,409,409,409,409,409,409,409,409,409,409,409,409,409,409,409,409,409,409,409,409,409,409,409,409,409,409,409,409,409,409,409,409,409,409,409,409,409,409,409,409,409,409,409,409,409,409,409,409,409,409,409,409,409,409,409,412,415,418,421,423,428,430,431,434,437,438,440,440,440,440,440,440,440,440,440,443,448,454,465,473,487,491,492,492,492,492,492,492,496,498,508,514,517,519,520,520,520,520,520,520,520,520,520,520,519,515,512,510,506,502,492,491,490,489,489,485,477,454,432,406,334,297,256,207,158,49],"timestamp_mouse":[17,36,57,77,98,118,138,157,177,197,217,238,257,277,296,316,337,357,378,396,417,438,457,478,497,517,537,557,578,597,618,637,657,677,697,718,737,757,778,797,817,837,857,877,897,917,939,957,978,998,1018,1037,1057,1077,1097,1117,1137,1157,1178,1196,1217,1238,1258,1278,1298,1318,1339,1357,1377,1398,1417,1436,1457,1478,1497,1517,1538,1557,1576,1597,1617,1637,1657,1677,1698,1717,1738,1756,1777,1798,1817,1838,1857,1878,1898,1917,1938,1957,1977,1997,2018,2038,2057,2077,2097,2118,2138,2157,2178,2197,2217,2238,2257,2278,2298,2318,2339,2357,2378,2397,2417,2436,2458,2478,2497,2517,2538,2557,2578,2598,2617,2638,2658,2678,2698,2717,2737,2758,2777,2797,2817,2838,2857,2878,2897,2918,2938,2958,2977,2997,3018,3036,3057,3078,3098,3118,3138,3157,3178,3197,3217,3238,3256,3278,3298,3317,3337,3357,3377,3397,3417,3438,3457,3477,3498,3517,3538,3558,3577,3597,3617,3637,3657,3677,3697,3716,3737,3757,3778,3798,3817,3837,3857,3877,3897,3917,3937,3957,3978,3997,4017,4037,4057,4078,4098,4118,4138,4157,4177,4197,4217,4238,4256,4278,4298,4316,4337,4357,4378,4397,4417,4437,4457,4477,4497,4517,4538,4557],"xSR":741.5,"ySR":501.8,"xT1":424.9,"yT1":0,"xT2":1058.1,"yT2":0,"toosoon":0,"cond_shown":"Incongruent","ratio_trial":300,"L_num":13,"L_den":26,"R_num":12,"R_den":15,"correct_side":2,"subjID":"juan felipe zambrano joya 33","gender":"0","school":"4","age":"10"},{"start_time":1552073757343,"click_time":1552073763507,"finger_time":1552073757668,"fix_duration":1133.3877407760724,"trial":5,"RT":325,"MT":5839,"sideResp":2,"stimulus":[],"xmouse":[797,797,797,797,797,797,797,797,797,797,797,797,797,797,799,797,770,716,700,691,678,664,642,642,642,642,642,642,639,631,624,621,619,619,619,619,619,619,619,619,619,619,619,619,619,619,619,619,619,619,619,619,619,619,619,619,619,619,619,619,619,619,619,619,619,619,619,619,619,619,619,619,619,619,619,619,619,619,619,619,619,619,619,619,619,619,619,619,619,619,619,619,619,619,619,619,619,619,619,619,619,619,619,619,619,619,619,619,619,619,619,619,619,619,619,619,619,621,631,633,636,640,655,660,667,672,675,675,675,675,675,675,675,675,675,675,675,675,675,675,675,675,675,675,675,675,675,675,675,675,675,675,675,675,675,675,675,675,675,675,675,675,675,675,675,675,675,675,675,675,675,675,675,675,675,675,675,675,675,675,675,675,675,675,675,675,675,675,675,675,675,675,666,658,654,654,653,653,653,653,653,653,653,653,653,653,653,653,653,653,653,653,653,653,653,653,653,653,653,662,697,733,757,770,761,746,729,709,709,709,709,709,709,709,709,709,707,707,683,683,683,685,689,689,689,688,687,687,687,687,687,694,721,738,759,777,793,806,815,817,821,825,829,833,833,833,833,833,833,833,833,833,833,833,833,833,833,833,833,833,833,833,833,833,833,832,830,829,826,826,829,842,897,936,970,992,1006,1016,1019,1022,1028,1039,1061,1068,1070,1071,1071,1071,1086],"ymouse":[566,566,566,566,566,566,566,566,566,566,566,566,566,566,561,532,435,251,196,167,150,149,155,155,155,155,155,155,163,183,193,197,198,198,198,198,198,198,198,198,198,198,198,198,198,198,198,198,198,198,198,198,198,198,198,198,198,198,198,198,198,198,198,198,198,198,198,198,198,198,198,198,198,198,198,198,198,198,198,198,198,198,198,198,198,198,198,198,198,198,198,198,198,198,198,198,198,198,198,198,198,198,198,198,198,198,198,198,198,198,198,198,198,198,198,198,198,201,204,206,207,209,215,217,218,218,219,219,219,219,219,219,219,219,219,219,219,219,219,219,219,219,219,219,219,219,219,219,219,219,219,219,219,219,219,219,219,219,219,219,219,219,219,219,219,219,219,219,219,219,219,219,219,219,219,219,219,219,219,219,219,219,219,219,219,219,219,219,219,219,219,219,200,186,183,183,182,182,182,182,182,182,182,182,182,182,182,182,182,182,182,182,182,182,182,182,182,182,182,202,247,284,303,316,315,308,300,290,290,290,290,290,290,290,290,290,290,290,344,359,371,384,402,407,412,416,418,418,418,418,421,431,468,488,507,520,532,541,552,558,563,566,569,571,571,571,571,571,571,571,571,571,571,571,571,571,571,571,571,571,571,571,571,571,571,570,567,565,547,531,510,483,392,339,302,273,250,228,207,194,177,156,121,111,108,106,106,106,81],"timestamp_mouse":[11,24,45,65,84,104,124,145,164,185,205,225,245,264,285,304,325,343,364,384,404,424,444,464,484,504,524,545,564,584,603,624,644,664,684,704,724,744,765,784,805,825,844,864,885,904,925,944,964,985,1003,1024,1045,1064,1085,1104,1123,1144,1165,1185,1204,1224,1244,1265,1284,1305,1325,1344,1364,1384,1404,1424,1444,1465,1484,1504,1524,1546,1565,1584,1605,1624,1644,1665,1684,1704,1725,1745,1765,1784,1804,1825,1844,1864,1885,1904,1924,1944,1964,1985,2004,2025,2044,2064,2084,2104,2124,2145,2164,2185,2204,2225,2244,2265,2284,2304,2324,2344,2364,2384,2405,2424,2444,2464,2483,2505,2524,2544,2564,2585,2605,2623,2644,2664,2684,2705,2724,2744,2765,2785,2804,2824,2844,2864,2885,2904,2925,2944,2964,2985,3005,3025,3045,3065,3083,3105,3124,3144,3165,3185,3204,3223,3245,3265,3285,3304,3324,3344,3365,3385,3405,3423,3444,3464,3484,3504,3525,3545,3564,3584,3605,3624,3644,3664,3685,3703,3723,3745,3763,3785,3805,3824,3844,3864,3884,3904,3925,3945,3964,3984,4004,4024,4045,4064,4084,4105,4124,4144,4165,4184,4204,4225,4244,4264,4283,4305,4324,4345,4365,4385,4404,4424,4445,4463,4485,4504,4525,4546,4564,4584,4604,4624,4644,4664,4685,4705,4724,4745,4764,4784,4804,4825,4845,4864,4884,4904,4925,4944,4965,4984,5005,5024,5045,5064,5084,5105,5124,5144,5165,5184,5205,5224,5245,5264,5285,5305,5323,5345,5365,5385,5404,5425,5444,5465,5484,5505,5525,5545,5564,5584,5604,5624,5645,5664,5685,5704,5724,5744,5764,5784,5804,5824,5845,5863,5885,5905,5924,5944,5964,5984,6004,6025,6045,6064,6085,6104,6125,6145,6164],"xSR":741.5,"ySR":501.8,"xT1":424.9,"yT1":0,"xT2":1058.1,"yT2":0,"toosoon":0,"cond_shown":"Congruent","ratio_trial":300,"L_num":2,"L_den":10,"R_num":12,"R_den":24,"correct_side":2,"subjID":"juan felipe zambrano joya 33","gender":"0","school":"4","age":"10"},{"start_time":1552073765476,"click_time":1552073768548,"finger_time":1552073765707,"fix_duration":828.6120612245255,"trial":6,"RT":231,"MT":2841,"sideResp":2,"stimulus":[],"xmouse":[773,773,773,773,773,773,773,773,773,773,773,773,772,770,766,762,753,748,738,735,733,724,721,720,720,720,719,716,712,711,711,711,709,706,705,705,706,708,709,710,710,710,713,716,720,725,738,751,755,764,766,768,768,768,768,768,768,768,768,768,768,768,768,768,768,768,768,768,768,768,768,768,768,768,768,768,768,768,768,768,768,768,768,768,768,768,768,768,768,768,768,768,768,768,768,768,768,768,768,768,768,768,768,768,768,768,768,768,769,772,775,784,790,799,811,824,845,845,845,845,845,845,845,845,845,845,845,849,863,877,890,912,922,933,944,956,983,1001,1010,1016,1021,1041,1056,1064,1064,1064,1064,1064,1064,1064,1064,1064,1064,1107],"ymouse":[526,526,526,526,526,526,522,519,517,517,517,501,486,466,440,412,375,367,358,356,356,357,357,358,358,358,358,357,357,357,357,357,357,365,375,381,394,398,400,402,402,403,407,415,428,445,490,519,529,549,556,563,563,563,563,563,563,563,563,563,563,563,563,563,563,563,563,563,563,563,563,563,563,563,563,563,563,563,563,563,563,563,563,563,563,563,563,563,563,563,563,563,563,563,563,563,563,563,563,563,563,563,563,563,563,563,563,563,563,558,551,537,530,516,492,448,375,371,371,371,371,371,371,361,346,328,282,257,219,195,177,157,148,135,116,97,63,42,32,26,21,9,3,0,0,0,0,0,0,0,0,0,0,2],"timestamp_mouse":[12,32,51,70,91,111,131,152,172,191,211,231,251,271,292,311,331,351,371,392,412,431,451,472,491,511,531,551,571,592,611,631,650,672,691,711,731,751,771,791,812,832,852,871,891,911,931,951,971,991,1011,1031,1051,1071,1092,1110,1131,1151,1171,1190,1212,1231,1251,1272,1292,1312,1332,1351,1372,1392,1411,1431,1451,1472,1492,1511,1532,1552,1571,1591,1611,1631,1652,1671,1691,1711,1732,1752,1772,1791,1811,1831,1852,1872,1892,1912,1932,1952,1971,1992,2012,2031,2052,2072,2091,2112,2132,2152,2171,2191,2212,2231,2251,2271,2292,2311,2330,2351,2371,2391,2411,2431,2451,2471,2491,2511,2532,2552,2571,2591,2611,2631,2651,2672,2691,2711,2731,2751,2771,2791,2812,2831,2851,2872,2891,2912,2931,2951,2972,2990,3011,3031,3052,3071],"xSR":741.5,"ySR":501.8,"xT1":424.9,"yT1":0,"xT2":1058.1,"yT2":0,"toosoon":0,"cond_shown":"Congruent","ratio_trial":100,"L_num":11,"L_den":22,"R_num":4,"R_den":10,"correct_side":1,"subjID":"juan felipe zambrano joya 33","gender":"0","school":"4","age":"10"},{"start_time":1552073770231,"click_time":1552073774111,"finger_time":1552073770487,"fix_duration":262.81220526671933,"trial":7,"RT":256,"MT":3624,"sideResp":2,"stimulus":[],"xmouse":[788,788,788,788,788,788,788,788,788,791,802,823,856,882,905,912,917,923,928,928,928,928,928,928,928,928,928,928,928,928,928,928,928,928,928,928,928,928,928,928,928,928,928,928,928,928,928,928,928,928,928,928,928,928,928,928,928,928,928,928,928,928,928,928,928,928,928,928,928,928,928,928,928,928,928,928,928,928,928,928,928,928,928,928,928,928,928,928,928,928,928,928,928,928,928,928,928,928,928,928,928,928,928,928,928,928,928,928,928,928,928,928,928,928,928,928,928,928,928,928,928,928,928,928,928,930,936,948,951,951,951,936,913,893,876,876,876,888,925,953,968,992,1027,1046,1045,1020,989,960,925,894,892,892,892,885,860,851,849,854,899,963,986,999,1015,1028,1038,1039,1037,1034,1032,1031,1031,1031,1031,1031,1034,1039,1046,1055,1068,1078,1081,1085,1088,1091,1095,1095,1097,1097,1097,1097,1097,1097,1097,1097],"ymouse":[563,563,563,563,563,563,563,563,563,561,553,536,508,482,455,441,422,401,391,391,391,391,391,391,391,391,391,391,391,391,391,391,391,391,391,391,391,391,391,391,391,391,391,391,391,391,391,391,391,391,391,391,391,391,391,391,391,391,391,391,391,391,391,391,391,391,391,391,391,391,391,391,391,391,391,391,391,391,391,391,391,391,391,391,391,391,391,391,391,391,391,391,391,391,391,391,391,391,391,391,391,391,391,391,391,391,391,391,391,391,391,391,391,391,391,391,391,391,391,391,391,391,391,391,391,390,388,382,380,380,378,365,342,320,302,302,312,346,408,427,425,415,401,391,390,390,401,423,482,548,559,559,560,561,561,559,555,541,495,431,393,356,316,282,251,244,239,235,227,220,217,212,206,200,185,175,164,154,145,137,134,130,128,125,120,117,114,111,110,108,105,103,101,99],"timestamp_mouse":[17,39,56,77,96,116,136,157,176,196,216,237,256,276,296,316,337,356,377,396,416,437,457,477,496,516,536,556,577,596,616,636,657,677,696,716,737,756,778,796,816,837,856,876,896,916,937,957,977,997,1016,1037,1055,1077,1097,1117,1136,1157,1177,1196,1217,1236,1257,1277,1297,1316,1337,1357,1376,1396,1416,1436,1456,1477,1496,1516,1537,1555,1577,1596,1617,1637,1657,1677,1696,1716,1737,1756,1777,1797,1816,1836,1856,1877,1897,1916,1936,1956,1977,1997,2017,2037,2057,2076,2097,2117,2136,2156,2177,2197,2217,2237,2257,2276,2297,2317,2337,2356,2376,2396,2416,2439,2460,2480,2499,2519,2539,2560,2579,2599,2618,2640,2659,2679,2699,2718,2738,2759,2779,2799,2819,2839,2859,2879,2899,2920,2938,2960,2979,3000,3020,3039,3059,3079,3099,3120,3139,3159,3179,3199,3219,3239,3259,3280,3299,3320,3339,3358,3380,3400,3419,3440,3459,3479,3498,3519,3539,3560,3578,3599,3619,3639,3659,3679,3699,3719,3740,3759,3780,3799,3820,3839,3859,3880],"xSR":741.5,"ySR":501.8,"xT1":424.9,"yT1":0,"xT2":1058.1,"yT2":0,"toosoon":0,"cond_shown":"Congruent","ratio_trial":200,"L_num":16,"L_den":20,"R_num":12,"R_den":20,"correct_side":1,"subjID":"juan felipe zambrano joya 33","gender":"0","school":"4","age":"10"},{"start_time":1552073776816,"click_time":1552073779711,"finger_time":1552073777090,"fix_duration":1243.3217988615152,"trial":8,"RT":274,"MT":2621,"sideResp":2,"stimulus":[],"xmouse":[827,827,827,827,827,827,827,827,827,827,827,828,841,868,897,923,926,933,947,950,950,950,950,950,950,950,950,950,950,950,950,950,950,950,950,950,950,948,947,946,946,946,946,946,946,946,946,946,946,946,946,946,946,946,946,946,946,946,946,946,946,946,946,946,946,946,946,946,946,946,946,946,946,946,946,946,946,946,946,946,946,946,946,946,946,946,946,946,946,946,946,946,946,946,946,946,946,946,946,946,946,946,946,946,946,946,946,946,946,946,946,946,946,946,946,946,946,946,946,946,946,946,946,944,964,964,964,964,964,964,964,964,964,964,987,1019,1033,1040,1042,1042,1042,1045,1049,1055,1064],"ymouse":[564,564,564,564,564,564,564,564,564,564,564,563,543,495,435,379,373,356,346,346,345,345,345,345,345,345,345,345,345,345,345,345,345,345,345,345,345,345,345,345,345,345,345,345,345,345,345,345,345,345,345,345,345,345,345,345,345,345,345,345,345,345,345,345,345,345,345,345,345,345,345,345,345,345,345,345,345,345,345,345,345,345,345,345,345,345,345,345,345,345,345,345,345,345,345,345,345,345,345,345,345,345,345,345,345,345,345,345,345,345,345,345,345,345,345,345,345,345,345,345,345,345,345,345,62,62,62,62,62,62,62,62,62,62,20,87,110,125,129,130,130,129,122,105,87],"timestamp_mouse":[14,33,53,74,93,114,133,153,173,193,213,234,255,274,294,314,334,354,374,393,414,434,455,474,494,513,534,555,574,594,614,635,654,675,695,714,734,754,774,794,814,835,854,874,893,914,935,954,974,994,1015,1034,1053,1074,1094,1114,1135,1154,1174,1195,1214,1233,1253,1274,1294,1314,1334,1353,1374,1395,1415,1435,1454,1475,1494,1514,1534,1554,1574,1594,1615,1634,1654,1674,1693,1715,1734,1754,1775,1795,1814,1835,1855,1874,1895,1914,1933,1954,1974,1994,2014,2035,2054,2074,2094,2114,2135,2154,2174,2195,2214,2234,2255,2275,2295,2314,2334,2353,2375,2394,2415,2433,2455,2475,2494,2514,2534,2554,2574,2594,2615,2634,2653,2674,2695,2716,2733,2754,2774,2795,2814,2835,2854,2874,2895],"xSR":741.5,"ySR":501.8,"xT1":424.9,"yT1":0,"xT2":1058.1,"yT2":0,"toosoon":0,"cond_shown":"Congruent","ratio_trial":200,"L_num":3,"L_den":10,"R_num":11,"R_den":22,"correct_side":2,"subjID":"juan felipe zambrano joya 33","gender":"0","school":"4","age":"10"},{"start_time":1552073782985,"click_time":1552073787451,"finger_time":1552073783290,"fix_duration":1153.9398255587662,"trial":9,"RT":305,"MT":4161,"sideResp":2,"stimulus":[],"xmouse":[797,797,797,797,797,797,797,797,797,797,797,797,797,797,801,812,824,838,849,849,849,849,849,849,849,849,849,849,849,849,849,849,849,849,849,848,839,834,828,828,828,828,828,828,828,828,828,828,828,828,828,828,828,828,828,828,828,828,828,828,828,828,828,828,828,828,828,828,828,828,828,828,828,828,828,828,828,828,828,828,828,828,828,828,828,828,828,828,828,828,828,828,828,828,828,828,828,828,828,828,828,828,828,828,828,828,828,828,828,828,828,828,828,828,828,828,828,828,828,828,828,828,828,828,828,828,828,828,828,828,828,828,828,828,828,828,828,828,828,828,828,828,828,828,828,828,828,828,828,828,828,828,828,828,828,828,828,828,828,828,828,828,828,828,828,828,828,828,828,828,828,828,828,828,828,828,828,828,828,828,828,828,828,828,828,828,828,828,828,844,868,872,867,842,832,832,832,832,832,832,832,832,832,832,832,832,832,834,839,839,832,815,810,829,845,852,862,876,893,934,967,1008,1053,1079],"ymouse":[557,557,557,557,557,557,557,557,557,557,557,557,557,554,520,444,324,277,260,260,260,260,260,260,260,260,260,260,260,260,260,260,260,260,260,269,339,385,408,408,408,408,408,408,408,408,408,408,408,408,408,408,408,408,408,408,408,408,408,408,408,408,408,408,408,408,408,408,408,408,408,408,408,408,408,408,408,408,408,408,408,408,408,408,408,408,408,408,408,408,408,408,408,408,408,408,408,408,408,408,408,408,408,408,408,408,408,408,408,408,408,408,408,408,408,408,408,408,408,408,408,408,408,408,408,408,408,408,408,408,408,408,408,408,408,408,408,408,408,408,408,408,408,408,408,408,408,408,408,408,408,408,408,408,408,408,408,408,408,408,408,408,408,408,408,408,408,408,408,408,408,408,408,408,408,408,408,408,408,408,408,408,408,408,408,408,408,408,408,397,362,345,336,336,340,340,340,340,340,340,340,340,340,340,340,340,340,338,329,317,286,221,157,124,125,129,131,131,123,95,79,67,58,54],"timestamp_mouse":[11,31,45,66,86,104,126,145,164,184,206,224,244,265,285,305,324,346,364,385,405,424,446,465,486,505,525,544,565,586,605,626,645,664,685,705,726,745,766,784,806,824,846,865,885,906,925,946,964,984,1006,1026,1045,1065,1086,1106,1126,1146,1166,1186,1204,1225,1245,1264,1285,1305,1325,1345,1364,1385,1405,1425,1445,1465,1485,1505,1525,1544,1564,1586,1606,1626,1645,1665,1684,1705,1725,1746,1765,1786,1806,1825,1844,1865,1885,1905,1925,1946,1964,1984,2005,2025,2045,2066,2086,2105,2125,2145,2165,2186,2204,2225,2245,2265,2284,2305,2325,2346,2365,2385,2406,2424,2445,2465,2485,2506,2525,2546,2565,2584,2604,2624,2645,2666,2685,2705,2725,2745,2765,2785,2806,2825,2845,2866,2885,2906,2926,2945,2965,2986,3006,3024,3046,3065,3086,3106,3126,3145,3165,3186,3204,3225,3245,3266,3286,3306,3325,3345,3365,3386,3406,3426,3446,3465,3485,3506,3526,3545,3565,3585,3606,3625,3646,3666,3686,3705,3725,3744,3766,3784,3805,3825,3846,3865,3885,3906,3926,3945,3965,3985,4005,4024,4046,4065,4085,4105,4126,4145,4165,4184,4205,4225,4244,4266,4285,4305,4325,4346,4365,4385,4406,4425,4445,4466],"xSR":741.5,"ySR":501.8,"xT1":424.9,"yT1":0,"xT2":1058.1,"yT2":0,"toosoon":0,"cond_shown":"Incongruent","ratio_trial":100,"L_num":6,"L_den":10,"R_num":13,"R_den":26,"correct_side":1,"subjID":"juan felipe zambrano joya 33","gender":"0","school":"4","age":"10"},{"start_time":1552073794485,"click_time":1552073796629,"finger_time":1552073796270,"fix_duration":894.7354619427963,"trial":10,"RT":1785,"MT":359,"sideResp":2,"stimulus":[],"xmouse":[816,816,816,816,816,816,816,816,816,816,816,816,816,816,816,816,816,816,816,816,816,816,816,816,816,816,816,816,816,816,816,816,816,816,816,816,816,816,816,816,816,816,816,816,816,816,816,816,816,816,816,816,816,816,816,816,816,816,816,816,816,816,816,816,816,816,816,816,816,816,816,816,816,816,816,816,816,816,816,816,816,816,816,816,816,816,816,816,823,863,888,915,941,960,977,985,992,1000,1008,1019,1023,1028,1032,1035,1036,1042,1053,1069],"ymouse":[563,563,563,563,563,563,563,563,563,563,563,563,563,563,563,563,563,563,563,563,563,563,563,563,563,563,563,563,563,563,563,563,563,563,563,563,563,563,563,563,563,563,563,563,563,563,563,563,563,563,563,563,563,563,563,563,563,563,563,563,563,563,563,563,563,563,563,563,563,563,563,563,563,563,563,563,563,563,563,563,563,563,563,563,563,563,563,563,546,456,396,346,297,262,216,190,176,164,155,140,133,126,121,117,116,109,100,89],"timestamp_mouse":[16,30,46,65,86,104,125,145,165,186,205,224,246,266,285,304,326,345,365,386,406,426,445,465,486,505,525,545,565,585,605,625,645,665,686,705,724,745,765,785,804,826,846,865,886,906,924,946,965,985,1006,1025,1045,1066,1085,1105,1125,1145,1165,1185,1205,1226,1246,1266,1285,1305,1324,1345,1366,1385,1406,1426,1446,1466,1485,1504,1526,1545,1565,1586,1605,1626,1646,1665,1685,1706,1725,1745,1765,1785,1804,1826,1845,1865,1886,1905,1925,1945,1965,1985,2004,2025,2045,2065,2086,2106,2125,2144],"xSR":741.5,"ySR":501.8,"xT1":424.9,"yT1":0,"xT2":1058.1,"yT2":0,"toosoon":0,"cond_shown":"Incongruent","ratio_trial":200,"L_num":1,"L_den":3,"R_num":2,"R_den":15,"correct_side":1,"subjID":"juan felipe zambrano joya 33","gender":"0","school":"4","age":"10"},{"start_time":1552073799856,"click_time":1552073803310,"finger_time":1552073800370,"fix_duration":1384.068319252907,"trial":11,"RT":514,"MT":2940,"sideResp":2,"stimulus":[],"xmouse":[780,780,780,780,780,780,780,780,780,780,780,780,780,780,780,780,780,780,780,780,780,780,780,780,782,801,866,915,970,1009,1016,1014,1008,1008,1008,1008,1001,954,886,840,818,812,812,812,812,812,812,812,812,812,812,812,812,812,812,812,812,812,812,812,812,812,812,812,812,812,812,812,812,812,812,812,812,812,812,812,812,812,812,812,812,812,812,812,812,812,812,812,812,812,812,812,812,812,812,812,812,812,812,812,812,812,812,812,812,812,812,812,812,812,812,812,812,812,812,812,812,812,812,812,812,812,812,812,812,812,812,812,812,812,812,812,812,812,812,812,812,812,812,812,812,812,812,812,812,812,812,812,812,812,812,812,812,812,812,812,812,811,827,837,843,847,851,858,872,896,956,978,992,1010,1034,1063,1157],"ymouse":[558,558,558,558,558,558,558,558,558,558,558,558,558,558,558,558,558,558,558,558,558,558,558,558,549,483,322,234,158,121,117,146,169,169,169,169,178,214,250,277,295,299,299,299,299,299,299,299,299,299,299,299,299,299,299,299,299,299,299,299,299,299,299,299,299,299,299,299,299,299,299,299,299,299,299,299,299,299,299,299,299,299,299,299,299,299,299,299,299,299,299,299,299,299,299,299,299,299,299,299,299,299,299,299,299,299,299,299,299,299,299,299,299,299,299,299,299,299,299,299,299,299,299,299,299,299,299,299,299,299,299,299,299,299,299,299,299,299,299,299,299,299,299,299,299,299,299,299,299,299,299,299,299,299,299,299,299,296,268,244,229,212,201,193,182,167,140,134,132,128,119,107,79],"timestamp_mouse":[14,35,54,74,93,114,133,155,175,194,215,234,254,273,295,315,335,353,374,395,414,433,454,474,494,514,535,554,574,594,614,634,654,674,695,714,734,754,775,794,814,834,854,875,894,915,934,955,975,994,1015,1034,1054,1074,1093,1113,1135,1155,1175,1195,1214,1235,1254,1274,1293,1313,1333,1354,1375,1395,1415,1434,1453,1474,1495,1514,1534,1554,1573,1594,1615,1634,1654,1673,1694,1715,1735,1755,1775,1794,1815,1834,1854,1875,1895,1914,1934,1955,1974,1994,2014,2035,2054,2075,2095,2114,2134,2155,2174,2193,2214,2234,2255,2274,2295,2315,2334,2354,2375,2395,2414,2434,2454,2474,2494,2515,2535,2554,2574,2594,2615,2634,2654,2673,2695,2714,2734,2754,2775,2794,2813,2834,2854,2875,2894,2914,2934,2954,2975,2994,3014,3034,3054,3075,3095,3114,3134,3155,3174,3194,3213,3234,3254,3274,3295,3314,3334,3354,3376,3394,3415,3434,3454],"xSR":741.5,"ySR":501.8,"xT1":424.9,"yT1":0,"xT2":1058.1,"yT2":0,"toosoon":0,"cond_shown":"Incongruent","ratio_trial":100,"L_num":10,"L_den":25,"R_num":8,"R_den":16,"correct_side":2,"subjID":"juan felipe zambrano joya 33","gender":"0","school":"4","age":"10"},{"start_time":1552073806254,"click_time":1552073810171,"finger_time":1552073806511,"fix_duration":481.75838315319083,"trial":12,"RT":257,"MT":3660,"sideResp":2,"stimulus":[],"xmouse":[762,762,762,762,762,762,762,762,762,764,765,772,792,800,807,813,817,817,817,817,817,817,817,817,817,817,817,817,817,817,817,817,817,821,825,831,838,862,875,885,892,895,896,896,896,896,896,896,896,896,896,896,896,896,896,896,896,896,896,896,896,896,896,896,896,896,896,896,896,896,896,896,896,896,896,896,896,896,896,896,896,896,896,896,896,896,896,896,896,896,896,896,896,896,896,896,896,896,896,896,896,896,896,896,896,896,896,896,896,896,896,896,896,896,896,896,896,896,888,864,857,857,857,857,856,860,861,862,862,862,862,862,854,847,841,836,831,822,811,791,778,767,752,748,748,748,748,748,747,747,747,747,747,747,747,745,739,713,687,609,576,560,553,548,545,543,543,543,543,543,548,577,686,730,752,762,767,770,775,794,822,850,883,901,934,972,1000,1037,1054,1067,1081,1091,1104,1104,1096,1086],"ymouse":[542,542,542,542,542,542,542,542,539,534,527,504,440,405,380,360,335,329,329,329,329,329,329,329,329,329,329,329,329,329,329,329,329,335,339,345,353,365,369,372,374,375,376,376,376,376,376,376,376,376,376,376,376,376,376,376,376,376,376,376,376,376,376,376,376,376,376,376,376,376,376,376,376,376,376,376,376,376,376,376,376,376,376,376,376,376,376,376,376,376,376,376,376,376,376,376,376,376,376,376,376,376,376,376,376,376,376,376,376,376,376,376,376,376,376,376,376,376,373,361,357,357,357,357,355,349,346,345,345,345,349,358,377,388,392,397,401,404,409,418,425,433,443,445,445,445,445,445,445,445,445,445,445,445,445,445,445,445,445,443,442,442,440,439,439,439,439,439,439,439,438,437,437,443,449,454,457,457,457,439,398,354,303,283,262,246,242,240,243,244,238,217,152,127,104,87],"timestamp_mouse":[17,35,57,76,97,115,137,157,176,196,215,236,257,276,296,316,337,356,376,397,416,436,456,476,497,516,537,555,577,597,616,635,655,676,696,716,736,756,776,797,816,836,856,876,896,917,935,955,977,996,1017,1036,1056,1077,1096,1116,1136,1156,1177,1196,1216,1237,1255,1276,1296,1316,1336,1356,1377,1397,1417,1437,1456,1476,1497,1516,1536,1557,1577,1596,1616,1637,1656,1675,1696,1716,1737,1757,1777,1796,1816,1837,1855,1876,1896,1916,1935,1957,1976,1996,2015,2037,2057,2076,2096,2116,2136,2156,2176,2196,2215,2237,2256,2276,2297,2316,2337,2357,2376,2396,2416,2436,2456,2476,2497,2516,2537,2556,2576,2596,2616,2635,2656,2676,2696,2716,2737,2756,2776,2796,2815,2836,2856,2876,2897,2916,2936,2956,2976,2996,3016,3037,3055,3077,3097,3117,3137,3156,3176,3196,3217,3236,3256,3276,3296,3316,3336,3357,3377,3396,3417,3436,3457,3476,3496,3517,3537,3556,3575,3596,3615,3637,3655,3676,3697,3717,3737,3756,3777,3796,3816,3836,3855,3876,3896,3916],"xSR":741.5,"ySR":501.8,"xT1":424.9,"yT1":0,"xT2":1058.1,"yT2":0,"toosoon":0,"cond_shown":"Congruent","ratio_trial":100,"L_num":12,"L_den":30,"R_num":13,"R_den":26,"correct_side":2,"subjID":"juan felipe zambrano joya 33","gender":"0","school":"4","age":"10"},{"start_time":1552073819185,"click_time":1552073825150,"finger_time":1552073819411,"fix_duration":1154.6587688585732,"trial":13,"RT":226,"MT":5739,"sideResp":2,"stimulus":[],"xmouse":[785,785,785,785,785,785,785,785,785,785,785,785,786,799,816,827,832,833,833,833,833,833,833,833,833,833,833,833,833,833,833,833,836,836,836,836,836,836,836,836,836,836,836,836,836,836,836,836,836,836,836,836,836,836,836,836,836,836,836,836,836,836,836,836,836,836,836,836,836,836,836,836,836,836,836,836,836,836,836,836,836,836,836,836,836,836,836,836,836,836,836,836,836,836,836,836,836,836,836,836,836,836,836,836,836,836,836,836,836,836,836,836,836,836,836,836,836,836,836,836,836,836,836,836,836,836,836,836,836,836,836,836,836,836,836,836,836,836,836,836,836,836,836,836,836,836,836,836,836,836,836,836,836,836,836,836,836,836,836,836,836,836,836,836,836,836,836,836,836,836,836,836,836,836,836,836,836,836,836,836,836,836,836,836,836,836,837,837,841,822,797,749,749,749,749,749,749,749,749,749,749,749,749,749,749,749,749,749,749,749,749,749,678,666,632,569,483,387,193,154,121,99,82,72,72,72,72,72,72,71,71,72,91,115,151,207,256,303,340,356,376,397,444,465,494,533,577,692,721,743,756,759,759,762,779,814,881,910,931,931,931,931,923,910,895,881,869,842,838,835,832,831,831,831,831,831,831,831,831,831,831,831,859,990,1080,1152,1209,1264,1280,1280,1280,1273,1253,1220,1208,1191,1174,1155,1120],"ymouse":[524,524,524,524,524,524,524,524,524,524,519,492,431,390,350,325,313,310,310,310,310,310,310,310,310,310,310,310,310,310,310,310,310,310,310,310,310,310,310,310,310,310,310,310,310,310,310,310,310,310,310,310,310,310,310,310,310,310,310,310,310,310,310,310,310,310,310,310,310,310,310,310,310,310,310,310,310,310,310,310,310,310,310,310,310,310,310,310,310,310,310,310,310,310,310,310,310,310,310,310,310,310,310,310,310,310,310,310,310,310,310,310,310,310,310,310,310,310,310,310,310,310,310,310,310,310,310,310,310,310,310,310,310,310,310,310,310,310,310,310,310,310,310,310,310,310,310,310,310,310,310,310,310,310,310,310,310,310,310,310,310,310,310,310,310,310,310,310,310,310,310,310,310,310,310,310,310,310,310,310,310,310,310,310,310,310,310,310,240,182,127,20,20,20,20,20,20,20,20,20,20,20,20,20,20,20,20,20,20,20,20,20,1,15,52,111,187,267,426,463,493,513,526,534,534,534,534,534,534,534,530,527,519,506,488,466,453,439,429,421,414,407,403,403,403,406,413,439,449,455,458,459,459,460,464,475,491,497,500,500,500,500,506,513,518,521,524,533,534,537,538,539,539,539,539,539,539,539,539,539,539,539,518,423,357,296,248,209,193,193,193,192,197,204,204,196,177,147,85],"timestamp_mouse":[9,26,45,65,85,105,126,145,165,185,206,226,245,264,286,305,326,346,365,386,406,425,446,464,485,505,526,545,564,585,605,626,644,665,684,704,726,745,765,785,805,827,845,865,885,905,926,945,965,984,1005,1025,1045,1065,1086,1105,1124,1145,1164,1184,1205,1225,1246,1265,1286,1305,1326,1345,1365,1384,1404,1424,1446,1465,1484,1505,1525,1545,1566,1585,1605,1626,1645,1665,1685,1705,1725,1745,1765,1785,1805,1825,1845,1865,1886,1905,1925,1946,1965,1986,2005,2026,2045,2065,2086,2105,2125,2145,2166,2185,2205,2225,2245,2266,2285,2305,2325,2345,2365,2386,2405,2426,2445,2466,2486,2505,2525,2545,2566,2586,2606,2625,2645,2666,2685,2706,2725,2745,2765,2784,2805,2826,2845,2866,2886,2906,2925,2945,2965,2985,3005,3026,3045,3065,3085,3106,3126,3146,3165,3185,3206,3225,3246,3265,3286,3306,3326,3345,3365,3386,3405,3426,3446,3466,3485,3505,3525,3545,3564,3585,3605,3625,3646,3665,3685,3705,3725,3744,3766,3785,3805,3825,3846,3865,3885,3906,3925,3945,3965,3984,4004,4024,4045,4065,4084,4106,4125,4145,4165,4185,4206,4225,4246,4265,4285,4305,4326,4346,4366,4384,4406,4425,4445,4466,4486,4504,4526,4545,4566,4585,4605,4625,4647,4664,4685,4706,4726,4745,4765,4785,4806,4826,4846,4864,4885,4904,4925,4946,4964,4985,5005,5025,5046,5065,5084,5105,5125,5145,5166,5185,5205,5225,5246,5265,5285,5304,5325,5346,5366,5384,5406,5426,5445,5465,5485,5505,5525,5546,5565,5585,5606,5625,5646,5664,5684,5705,5725,5745,5765,5785,5804,5825,5846,5866,5886,5905,5926,5945,5965],"xSR":741.5,"ySR":501.8,"xT1":424.9,"yT1":0,"xT2":1058.1,"yT2":0,"toosoon":0,"cond_shown":"Congruent","ratio_trial":100,"L_num":15,"L_den":25,"R_num":13,"R_den":26,"correct_side":1,"subjID":"juan felipe zambrano joya 33","gender":"0","school":"4","age":"10"},{"start_time":1552073828111,"click_time":1552073829430,"finger_time":1552073828390,"fix_duration":1398.0580572531312,"trial":14,"RT":279,"MT":1040,"sideResp":1,"stimulus":[],"xmouse":[786,786,786,786,786,786,786,786,786,786,786,786,786,788,788,788,788,802,806,806,806,806,806,805,804,804,804,804,804,804,804,804,804,804,803,802,801,798,794,790,788,784,776,762,745,724,700,644,605,575,548,525,495,490,489,489,489,489,489,511,534,543,547,547,541,531,524],"ymouse":[523,523,523,523,523,523,523,523,523,523,523,523,523,521,499,471,421,343,308,301,301,301,301,301,301,301,301,301,301,301,301,301,301,301,303,306,311,324,334,337,338,340,342,346,348,352,353,358,365,368,370,373,376,376,377,377,377,377,377,369,351,334,245,182,128,90,69],"timestamp_mouse":[1,20,39,60,80,98,118,138,158,178,199,218,239,259,279,300,319,338,359,380,399,419,439,459,479,498,520,539,559,580,599,619,639,658,679,700,720,739,759,778,800,819,839,859,879,899,920,939,959,979,1000,1019,1039,1059,1080,1099,1119,1139,1160,1178,1199,1219,1239,1259,1280,1299,1319],"xSR":741.5,"ySR":501.8,"xT1":424.9,"yT1":0,"xT2":1058.1,"yT2":0,"toosoon":0,"cond_shown":"Congruent","ratio_trial":200,"L_num":7,"L_den":21,"R_num":2,"R_den":15,"correct_side":1,"subjID":"juan felipe zambrano joya 33","gender":"0","school":"4","age":"10"},{"start_time":1552073832511,"click_time":1552073836032,"finger_time":1552073832772,"fix_duration":699.4619250335369,"trial":15,"RT":261,"MT":3260,"sideResp":2,"stimulus":[],"xmouse":[817,817,817,817,817,817,817,817,817,817,814,812,805,787,781,776,773,772,744,684,629,601,586,586,585,585,585,585,587,593,598,603,607,613,616,617,619,623,628,630,632,632,633,634,635,636,637,638,638,638,638,638,638,638,638,638,638,638,638,638,638,638,638,638,638,638,638,638,638,638,638,638,637,634,632,631,629,629,629,630,634,638,653,664,676,696,710,729,767,786,801,812,821,841,852,865,899,941,1034,1074,1104,1124,1133,1139,1139,1139,1139,1139,1137,1137,1138,1140,1141,1144,1144,1144,1144,1144,1144,1144,1144,1143,1143,1137,1130,1113,1103,1053,980,950,924,903,885,850,826,815,785,757,695,663,633,614,603,598,598,598,598,598,598,593,582,570,563,561,561,576,596,623,728,785,839,895,937,982,995,1005,1008,1012,1016,1020,1021,1022,1024,1037,1043,1053,1059],"ymouse":[553,553,553,553,553,553,553,553,553,553,550,548,536,470,419,383,351,346,355,380,400,412,417,417,417,417,417,417,417,416,415,413,412,410,409,409,409,409,412,412,413,413,414,414,414,414,415,415,415,415,415,415,415,415,415,415,415,415,415,415,415,415,415,415,415,415,415,415,415,415,415,416,418,420,421,422,423,424,434,442,451,459,478,489,499,514,527,540,560,565,566,566,563,545,529,509,465,409,310,278,258,246,239,236,236,232,230,221,195,177,154,136,124,113,113,113,113,113,113,113,113,113,114,120,126,140,146,179,233,254,272,283,290,290,275,266,236,210,156,128,102,87,77,72,72,72,72,72,72,72,74,79,85,86,88,94,103,110,127,127,127,125,110,83,74,68,67,66,64,63,62,61,60,56,55,54,53],"timestamp_mouse":[5,24,40,60,80,98,119,139,159,182,202,221,240,261,281,301,321,341,361,381,401,421,442,461,481,501,521,542,561,581,601,621,641,661,681,701,721,741,761,781,801,821,841,861,881,901,922,942,961,981,1002,1021,1040,1062,1082,1101,1121,1141,1161,1181,1202,1222,1241,1261,1281,1301,1322,1341,1362,1381,1401,1421,1442,1461,1481,1502,1521,1541,1561,1581,1602,1621,1643,1661,1681,1701,1721,1741,1761,1781,1801,1821,1841,1860,1881,1901,1921,1941,1961,1981,2001,2020,2041,2061,2081,2101,2121,2141,2162,2181,2201,2222,2241,2260,2281,2302,2321,2342,2361,2381,2402,2421,2442,2461,2482,2501,2522,2541,2562,2581,2601,2622,2641,2661,2681,2702,2722,2741,2761,2781,2802,2822,2841,2861,2881,2901,2920,2942,2962,2981,3002,3021,3041,3062,3081,3100,3121,3143,3161,3180,3202,3221,3241,3261,3281,3301,3320,3342,3361,3380,3401,3421,3441,3461,3482,3501,3521],"xSR":741.5,"ySR":501.8,"xT1":424.9,"yT1":0,"xT2":1058.1,"yT2":0,"toosoon":0,"cond_shown":"Incongruent","ratio_trial":200,"L_num":11,"L_den":20,"R_num":3,"R_den":4,"correct_side":2,"subjID":"juan felipe zambrano joya 33","gender":"0","school":"4","age":"10"},{"start_time":1552073841088,"click_time":1552073846192,"finger_time":1552073841372,"fix_duration":635.8694388097807,"trial":16,"RT":284,"MT":4820,"sideResp":1,"stimulus":[],"xmouse":[807,807,807,807,807,807,807,807,807,807,807,807,819,830,852,891,901,908,917,934,946,957,966,971,972,972,972,972,972,972,972,972,972,972,972,972,972,972,972,972,972,972,972,972,971,957,943,925,900,870,798,751,714,656,628,598,591,587,587,587,586,586,586,586,586,586,586,586,586,586,586,586,586,585,585,585,585,583,583,583,582,581,577,551,526,482,475,472,472,469,452,439,423,403,375,352,347,345,345,345,345,345,345,345,345,345,355,371,384,392,399,399,399,399,399,399,399,399,403,407,420,425,427,432,437,441,441,441,441,441,441,441,442,442,442,442,442,442,442,442,443,443,443,443,443,443,443,443,444,449,471,481,485,499,511,535,544,555,565,575,594,599,599,599,599,599,599,599,600,600,600,600,600,592,586,582,582,585,593,607,679,736,788,828,844,855,857,857,857,857,857,857,857,857,857,857,857,857,858,859,860,861,861,861,861,861,861,861,861,860,851,842,837,821,810,806,806,806,806,806,806,806,806,806,806,806,806,806,806,806,802,792,765,697,639,567,422,374,341,333,333,333,333,333,333,343,357,370,381,390,398,402,411,417,424,433],"ymouse":[542,542,542,542,542,542,542,542,542,542,542,542,535,527,511,478,468,461,449,426,411,396,382,366,351,350,350,350,350,350,350,350,350,350,350,350,350,350,350,350,350,350,350,350,350,362,376,392,408,430,470,497,518,558,578,600,606,608,609,609,609,609,609,609,609,609,609,609,609,609,609,609,609,614,623,636,637,638,638,638,638,638,638,627,619,605,603,601,600,594,568,552,537,523,512,501,499,497,497,497,497,497,497,497,497,496,490,479,472,466,462,462,462,462,462,462,462,464,479,493,507,510,511,515,522,532,532,532,533,533,533,533,533,533,533,533,533,533,531,529,526,526,526,526,526,526,526,526,526,525,523,525,528,537,552,590,611,634,657,670,683,686,686,686,686,686,686,686,683,675,640,616,608,587,576,566,564,560,551,540,505,486,471,463,461,469,471,474,475,475,475,475,475,475,475,479,489,502,514,520,526,527,527,527,527,527,527,530,532,537,550,559,562,566,567,567,567,567,567,567,567,567,567,567,567,567,567,567,567,567,560,533,485,403,348,289,161,111,77,65,60,59,59,59,59,55,51,49,47,46,46,46,44,42,42,39],"timestamp_mouse":[11,32,45,65,84,105,125,144,165,185,204,224,244,264,284,304,324,344,365,386,404,424,445,465,484,504,524,544,563,585,604,624,644,665,684,704,723,744,765,784,805,825,845,865,884,904,924,945,964,985,1004,1024,1044,1065,1084,1104,1124,1144,1165,1184,1204,1224,1244,1264,1285,1304,1325,1344,1365,1385,1404,1424,1444,1464,1484,1504,1524,1544,1565,1584,1604,1624,1644,1665,1684,1705,1724,1744,1765,1784,1804,1824,1844,1865,1885,1904,1924,1943,1964,1984,2004,2025,2044,2064,2086,2103,2124,2144,2165,2185,2204,2224,2244,2264,2284,2304,2324,2344,2364,2385,2404,2425,2444,2464,2484,2505,2524,2545,2564,2584,2605,2623,2644,2665,2685,2705,2724,2745,2764,2785,2804,2824,2843,2864,2885,2904,2924,2944,2963,2984,3004,3025,3045,3065,3083,3103,3124,3144,3163,3184,3204,3223,3243,3264,3284,3304,3324,3344,3364,3385,3404,3423,3444,3464,3484,3504,3524,3544,3564,3585,3604,3624,3644,3664,3684,3704,3724,3744,3765,3784,3804,3824,3844,3865,3884,3905,3924,3944,3964,3985,4005,4024,4045,4065,4085,4104,4124,4144,4164,4184,4205,4224,4244,4265,4285,4305,4324,4344,4364,4384,4404,4424,4444,4465,4484,4505,4524,4545,4564,4584,4604,4624,4644,4664,4684,4704,4724,4744,4764,4784,4804,4825,4844,4864,4884,4904,4924,4944,4965,4984,5005,5024,5044,5064,5084,5104],"xSR":741.5,"ySR":501.8,"xT1":424.9,"yT1":0,"xT2":1058.1,"yT2":0,"toosoon":0,"cond_shown":"Congruent","ratio_trial":200,"L_num":21,"L_den":30,"R_num":2,"R_den":4,"correct_side":1,"subjID":"juan felipe zambrano joya 33","gender":"0","school":"4","age":"10"},{"start_time":1552073849128,"click_time":1552073850833,"finger_time":1552073849332,"fix_duration":1494.5546102526798,"trial":17,"RT":204,"MT":1501,"sideResp":2,"stimulus":[],"xmouse":[759,759,759,759,759,759,759,759,759,762,767,776,790,805,845,867,886,898,899,899,899,899,899,899,899,899,899,899,899,899,899,899,899,899,899,899,899,899,899,898,898,898,898,898,897,897,897,895,893,888,888,888,888,888,888,888,890,891,892,892,892,887,884,880,879,879,879,879,879,891,900,910,921,931,973,992,1008,1025,1029,1031,1031,1031,1032,1032,1040,1059],"ymouse":[536,536,536,536,536,536,536,536,536,512,485,445,398,367,323,306,295,290,290,290,290,290,290,290,290,290,290,290,290,290,290,290,290,290,290,290,290,294,307,310,312,312,313,313,316,321,329,339,348,365,370,373,379,396,404,413,420,428,442,468,481,495,507,519,521,523,523,523,523,475,402,334,258,207,129,101,81,60,57,54,54,54,53,53,50,44],"timestamp_mouse":[8,33,44,64,85,104,124,143,164,184,204,225,244,265,284,304,324,345,365,384,405,423,444,465,485,504,524,544,565,584,603,625,644,664,683,703,724,744,765,784,804,825,845,865,884,904,924,945,964,984,1004,1024,1044,1065,1084,1104,1125,1144,1165,1184,1204,1224,1244,1266,1284,1304,1323,1345,1363,1385,1404,1425,1444,1464,1484,1504,1524,1544,1564,1584,1603,1625,1644,1665,1684,1705],"xSR":741.5,"ySR":501.8,"xT1":424.9,"yT1":0,"xT2":1058.1,"yT2":0,"toosoon":0,"cond_shown":"Incongruent","ratio_trial":200,"L_num":7,"L_den":15,"R_num":6,"R_den":9,"correct_side":2,"subjID":"juan felipe zambrano joya 33","gender":"0","school":"4","age":"10"},{"start_time":1552073851976,"click_time":1552073854032,"finger_time":1552073852393,"fix_duration":442.8353626392434,"trial":18,"RT":417,"MT":1639,"sideResp":1,"stimulus":[],"xmouse":[778,778,778,778,778,778,778,778,778,778,778,778,778,778,778,778,778,785,801,827,858,926,957,960,960,960,960,960,960,960,960,960,960,960,960,960,960,960,960,960,960,960,960,960,960,960,960,960,959,957,956,954,953,952,951,949,946,945,945,945,945,945,945,945,945,945,945,945,945,945,945,945,945,945,945,945,945,945,945,945,945,945,945,945,942,937,865,802,729,660,588,442,409,388,384,383,383,386,390,393,398,419,443],"ymouse":[576,576,576,576,576,576,576,576,576,576,576,576,576,576,576,576,576,570,549,513,471,377,330,326,324,324,324,324,324,324,324,324,324,324,324,324,324,324,324,324,324,324,327,328,330,333,337,340,344,347,350,355,357,361,365,371,381,382,382,382,382,382,382,382,382,382,382,382,382,382,382,382,382,382,382,382,382,382,382,382,382,382,382,382,382,373,342,334,324,313,294,221,189,152,135,124,112,104,96,90,84,69,57],"timestamp_mouse":[16,37,55,77,97,117,137,156,176,195,216,237,257,277,297,317,336,356,377,397,417,435,456,476,496,517,536,556,577,596,616,637,656,677,696,717,736,756,776,796,816,836,857,876,897,916,935,956,976,997,1016,1036,1056,1076,1096,1116,1136,1156,1176,1197,1217,1237,1257,1277,1297,1315,1336,1357,1375,1397,1417,1436,1456,1477,1496,1517,1535,1557,1576,1596,1617,1636,1657,1677,1697,1717,1736,1756,1776,1795,1817,1836,1856,1876,1896,1916,1936,1956,1976,1996,2016,2036,2055],"xSR":741.5,"ySR":501.8,"xT1":424.9,"yT1":0,"xT2":1058.1,"yT2":0,"toosoon":0,"cond_shown":"Incongruent","ratio_trial":100,"L_num":9,"L_den":15,"R_num":13,"R_den":26,"correct_side":1,"subjID":"juan felipe zambrano joya 33","gender":"0","school":"4","age":"10"},{"start_time":1552073856348,"click_time":1552073859112,"finger_time":1552073856892,"fix_duration":1094.2586759959202,"trial":19,"RT":544,"MT":2220,"sideResp":2,"stimulus":[],"xmouse":[807,807,807,807,807,807,807,807,807,807,807,807,807,807,807,807,807,807,807,807,807,806,805,803,802,802,802,807,816,842,855,865,874,892,910,917,919,919,919,919,919,919,919,919,919,919,919,919,919,919,919,919,919,919,919,919,919,916,907,875,851,827,803,754,739,727,717,710,697,690,686,682,676,661,653,646,632,619,587,572,560,554,549,547,546,546,546,546,546,547,554,560,566,580,584,588,590,592,596,602,605,610,612,612,612,612,612,613,618,629,641,655,672,672,672,672,672,672,672,672,672,672,672,672,672,672,672,672,672,672,672,672,672,672,672,672,672,1116,1124],"ymouse":[586,586,586,586,586,586,586,586,586,586,586,586,586,586,586,586,586,586,586,586,586,582,575,563,538,527,508,482,459,415,398,384,374,358,345,341,339,339,339,339,339,339,339,339,339,339,339,339,339,339,339,339,339,339,339,339,339,339,340,354,366,377,387,405,411,414,417,418,416,410,405,393,376,319,295,267,225,193,135,108,88,75,63,58,51,50,50,50,50,50,49,47,45,43,42,42,41,41,40,40,39,39,38,38,38,38,38,37,32,25,17,9,2,2,2,2,2,2,2,2,2,2,2,2,2,2,2,2,2,2,2,2,2,2,2,2,2,0,6],"timestamp_mouse":[9,25,44,65,85,103,125,145,165,184,203,225,245,263,284,304,325,345,365,384,405,424,444,464,484,504,524,544,565,584,604,625,644,664,684,704,724,744,764,785,805,825,845,865,884,904,925,945,964,984,1005,1024,1044,1065,1084,1105,1125,1144,1164,1184,1204,1225,1245,1265,1284,1304,1325,1344,1365,1383,1403,1425,1445,1465,1484,1505,1525,1544,1565,1584,1604,1624,1644,1664,1685,1705,1724,1744,1764,1784,1805,1824,1843,1865,1884,1904,1924,1945,1965,1984,2004,2025,2044,2065,2085,2105,2124,2144,2165,2184,2204,2224,2244,2265,2285,2304,2324,2344,2365,2384,2405,2424,2444,2464,2485,2504,2525,2545,2564,2585,2605,2624,2644,2664,2685,2705,2724,2745,2764],"xSR":741.5,"ySR":501.8,"xT1":424.9,"yT1":0,"xT2":1058.1,"yT2":0,"toosoon":0,"cond_shown":"Incongruent","ratio_trial":200,"L_num":7,"L_den":10,"R_num":14,"R_den":28,"correct_side":1,"subjID":"juan felipe zambrano joya 33","gender":"0","school":"4","age":"10"},{"start_time":1552073860589,"click_time":1552073861973,"finger_time":1552073860792,"fix_duration":274.2626440829514,"trial":20,"RT":203,"MT":1181,"sideResp":1,"stimulus":[],"xmouse":[792,793,794,794,794,794,794,794,794,794,794,791,782,781,781,781,781,781,782,785,788,788,788,788,788,788,788,788,788,788,788,788,789,789,789,791,794,801,807,817,835,849,871,878,878,878,878,878,872,823,692,587,438,406,398,398,398,412,451,464,495,510,515,515,515,515,514,512,512,510],"ymouse":[570,567,564,558,555,554,552,544,535,505,478,447,418,415,415,415,415,413,403,388,370,363,357,357,357,357,357,357,357,357,357,357,356,356,356,356,356,356,357,360,364,366,369,370,370,370,370,370,370,357,315,283,240,234,232,232,231,222,206,203,191,183,175,170,166,160,150,123,110,98],"timestamp_mouse":[3,23,43,62,83,104,124,143,163,183,203,223,244,263,283,303,324,343,364,384,403,423,444,463,484,503,524,543,564,583,603,624,643,664,684,703,724,743,764,783,803,824,843,863,883,903,924,943,964,983,1003,1023,1043,1063,1084,1102,1123,1143,1163,1183,1204,1223,1242,1263,1283,1303,1324,1343,1363,1384],"xSR":741.5,"ySR":501.8,"xT1":424.9,"yT1":0,"xT2":1058.1,"yT2":0,"toosoon":0,"cond_shown":"Congruent","ratio_trial":200,"L_num":6,"L_den":20,"R_num":11,"R_den":22,"correct_side":2,"subjID":"juan felipe zambrano joya 33","gender":"0","school":"4","age":"10"},{"start_time":1552073863620,"click_time":1552073864532,"finger_time":1552073863640,"fix_duration":386.28742137527894,"trial":21,"RT":20,"MT":892,"sideResp":2,"stimulus":[],"xmouse":[805,805,805,805,805,805,805,805,805,805,807,808,810,812,815,817,827,833,836,841,851,856,864,869,878,893,899,900,900,900,900,900,900,900,900,900,900,900,900,904,939,971,1007,1044,1069,1089],"ymouse":[497,487,487,467,457,438,428,416,411,406,395,390,386,380,375,371,362,360,358,357,353,352,350,348,347,344,343,343,343,343,343,343,343,343,343,343,343,343,343,339,284,244,195,142,104,78],"timestamp_mouse":[20,45,52,72,91,113,132,152,173,193,213,232,253,272,292,312,332,352,372,393,412,432,452,472,492,512,532,553,573,592,612,632,652,672,692,712,733,753,773,792,812,832,853,872,893,912],"xSR":741.5,"ySR":501.8,"xT1":424.9,"yT1":0,"xT2":1058.1,"yT2":0,"toosoon":0,"cond_shown":"Congruent","ratio_trial":100,"L_num":6,"L_den":20,"R_num":5,"R_den":25,"correct_side":1,"subjID":"juan felipe zambrano joya 33","gender":"0","school":"4","age":"10"},{"start_time":1552073872409,"click_time":1552073874072,"finger_time":1552073872752,"fix_duration":937.8524600821922,"trial":22,"RT":343,"MT":1320,"sideResp":2,"stimulus":[],"xmouse":[804,804,804,804,804,804,804,804,804,804,804,804,804,804,804,804,804,811,836,858,869,882,889,890,890,890,890,890,890,890,890,890,890,890,890,890,890,890,890,890,890,890,890,890,890,890,890,890,890,890,890,890,890,890,890,890,890,890,890,890,890,890,890,890,890,890,890,890,890,890,890,890,890,890,890,890,890,890,890,890,890,905,1053,1121],"ymouse":[554,554,554,554,554,554,554,554,554,554,554,554,554,554,554,554,554,482,382,314,268,236,223,222,222,222,222,222,222,222,222,222,222,222,222,222,222,222,222,222,222,222,222,222,222,222,222,222,222,222,222,222,222,222,222,222,222,222,222,222,222,222,222,222,222,222,222,222,222,222,222,222,222,222,222,222,222,222,222,222,222,204,106,77],"timestamp_mouse":[4,32,43,64,84,103,123,143,163,183,204,223,244,263,283,304,323,343,363,383,404,423,443,464,484,503,523,544,564,584,604,623,644,663,683,704,723,743,763,783,803,823,844,863,884,903,923,944,963,983,1003,1024,1043,1064,1084,1103,1122,1144,1163,1183,1204,1224,1243,1264,1283,1303,1324,1344,1364,1383,1404,1423,1444,1463,1484,1503,1523,1543,1563,1583,1603,1624,1644,1663],"xSR":741.5,"ySR":501.8,"xT1":424.9,"yT1":0,"xT2":1058.1,"yT2":0,"toosoon":0,"cond_shown":"Incongruent","ratio_trial":300,"L_num":2,"L_den":4,"R_num":6,"R_den":30,"correct_side":1,"subjID":"juan felipe zambrano joya 33","gender":"0","school":"4","age":"10"},{"start_time":1552073884573,"click_time":1552073887692,"finger_time":1552073885392,"fix_duration":1140.60061368266,"trial":23,"RT":819,"MT":2300,"sideResp":2,"stimulus":[],"xmouse":[811,811,811,811,811,811,811,811,811,811,811,811,815,822,822,822,822,822,822,822,822,822,824,824,824,824,824,824,824,824,824,824,824,824,824,824,824,824,824,827,833,836,843,846,847,847,847,847,847,847,847,847,847,847,847,847,847,847,847,847,847,843,837,830,822,812,809,807,806,805,802,800,798,798,798,798,798,799,799,800,802,802,802,802,802,802,802,802,802,802,802,802,802,802,802,802,802,802,802,802,802,802,802,802,802,802,802,802,802,805,830,843,854,862,865,865,865,865,865,865,865,865,865,865,865,878,921,977,1055,1129,1223,1229,1229,1229,1229,1224,1219,1219,1219,1219,1219,1217,1211,1207,1200,1185,1178,1173,1170,1170,1170,1170,1169,1167,1159,1137],"ymouse":[586,586,586,586,586,586,586,586,586,586,582,555,532,508,507,507,507,507,507,507,507,507,510,510,510,510,510,510,510,510,510,510,510,510,510,510,510,510,510,502,463,438,417,408,407,407,407,407,407,407,407,407,407,407,407,407,407,407,407,407,407,407,407,408,412,422,426,429,431,434,448,460,477,497,515,549,561,568,573,578,585,586,586,586,586,586,586,586,586,586,586,586,586,586,586,586,586,586,586,586,586,586,586,586,586,586,586,586,586,583,546,530,517,508,505,505,505,505,505,505,505,505,505,505,505,491,437,366,264,180,70,56,52,46,42,32,26,26,26,26,26,26,26,28,31,39,42,45,47,47,47,47,47,47,47,41],"timestamp_mouse":[19,39,59,79,99,118,140,159,179,199,220,239,260,279,299,320,340,359,380,400,420,439,460,479,499,520,539,559,580,600,620,640,660,680,700,720,740,760,779,798,819,839,859,880,900,920,939,960,979,999,1019,1040,1060,1079,1100,1119,1140,1159,1179,1199,1219,1239,1260,1279,1299,1319,1340,1359,1379,1399,1419,1439,1460,1480,1500,1518,1539,1558,1579,1599,1620,1639,1660,1679,1700,1719,1739,1760,1780,1798,1819,1839,1859,1879,1899,1920,1939,1959,1980,1999,2020,2040,2059,2080,2099,2119,2140,2159,2180,2199,2219,2239,2259,2279,2299,2319,2338,2360,2379,2399,2419,2440,2459,2480,2498,2519,2540,2559,2579,2600,2619,2640,2659,2679,2700,2719,2740,2759,2779,2799,2819,2839,2860,2880,2899,2919,2940,2959,2979,3000,3018,3040,3059,3079,3099,3119],"xSR":741.5,"ySR":501.8,"xT1":424.9,"yT1":0,"xT2":1058.1,"yT2":0,"toosoon":0,"cond_shown":"Incongruent","ratio_trial":100,"L_num":8,"L_den":16,"R_num":6,"R_den":10,"correct_side":2,"subjID":"juan felipe zambrano joya 33","gender":"0","school":"4","age":"10"},{"start_time":1552073890317,"click_time":1552073892152,"finger_time":1552073890633,"fix_duration":944.0150365388527,"trial":24,"RT":316,"MT":1519,"sideResp":2,"stimulus":[],"xmouse":[769,769,769,769,769,769,769,769,769,769,769,769,769,769,781,828,877,915,924,924,924,924,924,924,924,924,924,924,924,924,924,924,924,924,924,924,924,924,924,924,924,924,924,929,938,941,941,941,941,941,941,941,941,941,941,941,941,941,941,941,941,941,941,941,941,941,941,941,941,941,941,941,941,941,946,963,977,996,1025,1029,1030,1030,1030,1030,1030,1030,1030,1031,1039,1052,1058,1063],"ymouse":[585,585,585,585,585,585,585,585,585,585,585,585,585,585,560,469,376,322,311,311,311,311,311,311,311,311,311,311,311,311,311,311,311,311,311,311,311,311,311,311,311,311,311,314,321,323,323,323,323,323,323,323,323,323,323,323,323,323,323,323,323,323,323,323,323,323,323,323,323,323,323,323,323,323,316,277,245,213,167,160,158,158,158,158,158,158,158,155,137,99,83,73],"timestamp_mouse":[15,38,56,75,95,116,135,156,175,196,215,236,255,275,295,316,335,355,376,396,415,436,455,475,496,515,535,555,575,595,615,636,655,676,695,716,735,756,776,795,815,836,855,875,895,916,935,955,976,996,1015,1035,1056,1076,1096,1115,1135,1155,1176,1196,1214,1236,1255,1275,1294,1316,1335,1355,1375,1395,1415,1435,1455,1476,1495,1515,1535,1555,1576,1595,1615,1635,1656,1676,1696,1716,1735,1756,1776,1796,1815,1835],"xSR":741.5,"ySR":501.8,"xT1":424.9,"yT1":0,"xT2":1058.1,"yT2":0,"toosoon":0,"cond_shown":"Congruent","ratio_trial":100,"L_num":3,"L_den":6,"R_num":2,"R_den":5,"correct_side":1,"subjID":"juan felipe zambrano joya 33","gender":"0","school":"4","age":"10"},{"start_time":1552073895139,"click_time":1552073897594,"finger_time":1552073895294,"fix_duration":1423.1079639871953,"trial":25,"RT":155,"MT":2300,"sideResp":1,"stimulus":[],"xmouse":[813,813,813,813,813,813,813,813,813,825,836,838,838,838,838,838,838,838,838,838,838,838,838,838,838,838,838,838,838,838,832,821,794,747,728,725,725,725,725,725,725,725,725,725,725,725,725,725,725,725,725,725,725,725,725,725,725,725,725,725,725,725,725,725,725,725,725,725,725,725,725,725,725,725,725,725,725,725,725,725,725,725,725,725,725,725,725,725,725,725,725,725,725,725,725,725,724,725,727,727,727,727,727,727,727,727,727,727,719,693,665,649,647,653,646,644,643,642,637,633,619,586,508],"ymouse":[521,521,521,521,521,521,513,437,301,235,199,192,192,192,192,192,192,192,192,192,192,192,192,192,192,192,192,192,192,192,191,192,218,236,238,238,238,238,238,238,238,238,238,238,238,238,238,238,238,238,238,238,238,238,238,238,238,238,238,238,238,238,238,238,238,238,238,238,238,238,238,238,238,238,238,238,238,238,238,238,238,238,238,238,238,238,238,238,238,238,238,238,238,238,238,238,238,238,238,238,238,238,238,238,238,238,238,238,238,238,238,224,191,97,82,82,82,82,82,82,79,70,52],"timestamp_mouse":[15,35,55,75,96,115,135,155,175,195,215,235,254,274,295,316,335,354,375,394,414,434,455,475,495,515,535,555,576,595,616,636,656,676,694,715,734,756,775,795,815,835,855,875,895,914,935,954,975,994,1015,1034,1054,1075,1096,1115,1136,1154,1175,1195,1215,1235,1254,1275,1296,1315,1335,1354,1375,1394,1415,1436,1456,1476,1495,1514,1535,1554,1574,1594,1615,1636,1656,1675,1694,1714,1734,1754,1774,1794,1815,1834,1856,1875,1895,1915,1935,1954,1974,1995,2014,2036,2056,2076,2095,2115,2134,2156,2175,2195,2216,2234,2254,2275,2296,2315,2334,2354,2375,2394,2416,2435,2455],"xSR":741.5,"ySR":501.8,"xT1":424.9,"yT1":0,"xT2":1058.1,"yT2":0,"toosoon":0,"cond_shown":"Congruent","ratio_trial":300,"L_num":11,"L_den":22,"R_num":2,"R_den":10,"correct_side":1,"subjID":"juan felipe zambrano joya 33","gender":"0","school":"4","age":"10"},{"start_time":1552073904195,"click_time":1552073907374,"finger_time":1552073904533,"fix_duration":558.048890302887,"trial":26,"RT":338,"MT":2841,"sideResp":2,"stimulus":[],"xmouse":[755,755,755,755,755,755,755,755,755,755,755,755,755,755,755,755,755,759,766,772,784,789,789,789,789,789,789,789,789,789,789,789,789,789,789,789,789,789,789,789,789,789,789,789,789,789,789,789,789,789,789,789,789,789,789,789,789,789,789,789,789,789,789,789,789,789,789,789,789,789,789,789,789,789,789,789,789,789,789,789,789,789,789,789,789,789,789,789,789,789,789,789,789,789,789,789,789,789,789,789,789,789,789,789,789,789,789,789,782,777,777,777,777,777,774,771,761,656,656,656,656,656,656,656,656,656,656,656,656,656,656,656,656,656,656,656,656,656,656,656,656,656,656,656,656,656,656,656,656,656,656,656,656,656,656,656,656,656,656,1113],"ymouse":[508,508,508,508,508,508,508,508,508,508,508,508,508,508,508,508,508,485,462,439,396,381,380,380,380,380,380,380,380,380,380,380,380,380,380,380,380,380,380,380,380,380,380,380,380,380,380,379,379,379,379,379,379,379,379,379,379,379,379,379,379,379,379,379,379,379,379,379,379,379,379,379,379,379,379,379,379,379,379,379,379,379,379,379,379,379,379,379,379,379,379,379,379,379,379,379,379,379,379,379,379,379,379,379,379,379,379,379,328,304,302,302,302,302,299,295,261,10,10,10,10,10,10,10,10,10,10,10,10,10,10,10,10,10,10,10,10,10,10,10,10,10,10,10,10,10,10,10,10,10,10,10,10,10,10,10,10,10,10,9],"timestamp_mouse":[1,18,38,59,79,100,120,139,160,180,198,219,239,259,280,299,320,338,359,378,400,420,439,459,480,499,519,539,560,578,599,620,639,659,679,698,719,739,760,779,798,818,838,859,879,898,919,938,959,979,998,1019,1039,1058,1078,1100,1119,1139,1159,1179,1200,1219,1239,1259,1280,1300,1319,1338,1359,1379,1399,1419,1438,1460,1479,1498,1520,1539,1560,1580,1600,1619,1639,1658,1678,1699,1719,1738,1758,1780,1800,1818,1838,1858,1879,1899,1919,1939,1959,1979,1998,2019,2038,2059,2080,2100,2120,2139,2159,2179,2199,2219,2239,2258,2280,2300,2320,2339,2358,2378,2398,2418,2438,2460,2479,2498,2519,2539,2560,2579,2600,2619,2638,2658,2678,2698,2718,2739,2760,2780,2799,2819,2839,2859,2879,2898,2919,2939,2960,2979,3000,3019,3040,3059,3080,3099,3120,3138,3159,3179],"xSR":741.5,"ySR":501.8,"xT1":424.9,"yT1":0,"xT2":1058.1,"yT2":0,"toosoon":0,"cond_shown":"Congruent","ratio_trial":100,"L_num":9,"L_den":15,"R_num":8,"R_den":16,"correct_side":1,"subjID":"juan felipe zambrano joya 33","gender":"0","school":"4","age":"10"},{"start_time":1552073908666,"click_time":1552073910235,"finger_time":1552073909014,"fix_duration":250,"trial":27,"RT":348,"MT":1221,"sideResp":1,"stimulus":[],"xmouse":[806,806,806,806,806,806,806,806,806,806,806,806,805,803,800,800,800,800,807,816,826,836,847,863,870,888,902,906,906,906,905,903,899,895,893,892,892,892,892,892,892,892,892,892,889,885,883,883,883,883,883,885,895,905,909,909,909,908,900,897,895,893,890,885,844,796,733,662,617,519,495,487,487,498,501,503,503,503,506],"ymouse":[565,565,565,565,565,565,565,565,565,560,547,535,525,518,512,511,508,498,444,414,393,379,364,341,335,325,317,312,312,312,311,311,313,317,321,325,325,325,325,325,325,326,329,355,369,384,395,400,400,400,400,401,397,392,389,389,389,391,393,393,393,393,387,379,331,295,248,212,190,147,131,121,114,107,104,103,103,103,90],"timestamp_mouse":[8,34,48,68,88,107,129,148,168,187,208,228,249,268,287,307,329,348,368,388,407,428,447,469,488,509,528,548,569,588,608,627,648,669,687,709,728,748,768,789,808,827,848,869,887,907,927,948,969,987,1008,1027,1047,1067,1087,1108,1127,1149,1168,1188,1208,1227,1249,1268,1289,1308,1328,1347,1368,1387,1408,1428,1447,1469,1487,1508,1529,1547,1568],"xSR":741.5,"ySR":501.8,"xT1":424.9,"yT1":0,"xT2":1058.1,"yT2":0,"toosoon":0,"cond_shown":"Incongruent","ratio_trial":200,"L_num":9,"L_den":15,"R_num":8,"R_den":10,"correct_side":2,"subjID":"juan felipe zambrano joya 33","gender":"0","school":"4","age":"10"},{"start_time":1552073917173,"click_time":1552073922313,"finger_time":1552073917534,"fix_duration":1237.7692872037767,"trial":28,"RT":361,"MT":4779,"sideResp":1,"stimulus":[],"xmouse":[813,813,813,813,813,813,813,813,813,813,813,813,813,813,813,813,813,819,830,839,841,841,841,841,841,843,852,860,866,867,867,867,867,867,867,867,867,867,867,867,867,867,867,867,867,867,867,867,867,863,853,846,846,846,846,844,839,833,831,831,831,831,831,831,831,831,831,831,831,831,831,831,831,831,831,831,831,831,831,831,831,831,831,831,831,831,831,831,831,831,831,831,830,818,807,786,784,784,784,784,784,784,784,784,784,784,784,784,784,784,784,784,784,784,784,784,784,784,784,784,784,784,784,784,784,784,784,784,789,803,862,882,903,920,940,951,960,972,982,992,1018,1042,1072,1122,1151,1194,1208,1222,1228,1234,1235,1235,1235,1232,1225,1217,1213,1209,1205,1203,1200,1199,1197,1194,1191,1183,1181,1181,1181,1181,1181,1179,1179,1178,1178,1178,1178,1178,1178,1178,1178,1178,1178,1178,1178,1178,1179,1181,1181,1181,1194,1214,1260,1286,1318,1352,1359,1361,1361,1361,1348,1322,1309,1260,1203,1038,916,751,569,359,0,0,0,0,0,43,83,108,120,124,132,140,156,178,208,265,283,292,298,300,301,301,301,316,345,477,548,589,609,609,609,609,609,605,598,585,576,566,556,546,541,541,541,541,539,532,527,523],"ymouse":[549,549,549,549,549,549,549,549,549,549,549,549,549,549,549,542,534,515,491,477,473,473,473,473,473,469,447,428,415,411,411,411,411,411,411,411,411,411,411,411,411,411,411,411,411,411,411,410,406,401,391,388,388,388,388,388,388,388,388,388,388,388,388,388,388,388,388,388,388,388,388,388,388,388,388,388,388,388,388,388,388,388,388,388,388,388,388,388,388,388,388,388,390,423,450,496,508,509,509,509,509,509,509,509,509,509,509,509,509,509,509,509,509,509,509,509,509,509,509,509,509,509,509,509,509,509,509,509,503,484,405,386,372,360,349,344,338,331,326,321,308,299,288,271,263,248,240,230,223,204,191,177,161,145,134,131,131,131,130,129,124,119,110,101,78,18,5,5,5,5,5,0,7,12,12,12,12,12,12,12,12,12,12,12,12,7,3,2,2,2,10,32,87,114,141,173,180,182,183,184,190,196,198,209,225,290,346,424,501,583,724,766,766,766,766,751,727,710,702,696,676,662,631,595,542,429,389,365,352,339,336,333,327,303,265,121,55,17,0,0,0,0,0,1,11,33,44,53,58,62,62,62,62,62,62,62,62,63],"timestamp_mouse":[13,28,40,60,80,100,121,140,160,181,201,222,240,260,281,300,320,341,361,380,400,421,441,461,481,500,521,540,561,582,601,621,641,661,682,701,721,741,760,782,802,821,841,861,881,900,920,940,960,980,1000,1020,1041,1061,1080,1101,1120,1140,1160,1181,1202,1222,1241,1261,1281,1300,1320,1340,1360,1381,1402,1421,1441,1460,1481,1500,1521,1541,1562,1582,1600,1621,1641,1662,1682,1702,1721,1741,1761,1782,1801,1821,1841,1862,1881,1902,1921,1941,1961,1980,2001,2020,2042,2061,2081,2100,2121,2141,2161,2181,2202,2220,2242,2260,2282,2301,2320,2341,2360,2382,2401,2420,2441,2462,2481,2500,2521,2542,2560,2580,2601,2621,2640,2661,2681,2701,2721,2741,2761,2781,2800,2820,2841,2860,2881,2900,2921,2941,2961,2982,3000,3020,3040,3060,3080,3100,3120,3141,3160,3180,3200,3221,3240,3261,3280,3300,3321,3342,3362,3382,3402,3422,3441,3461,3481,3501,3520,3540,3561,3582,3601,3622,3642,3661,3682,3701,3720,3740,3760,3781,3800,3820,3840,3860,3880,3901,3920,3941,3960,3981,4000,4022,4040,4060,4080,4100,4120,4140,4160,4182,4201,4221,4240,4261,4281,4301,4321,4341,4361,4380,4400,4421,4440,4462,4481,4500,4521,4541,4561,4582,4600,4620,4640,4662,4680,4701,4721,4740,4761,4780,4801,4821,4840,4860,4880,4901,4920,4941,4960,4982,5002,5022,5042,5062,5080,5100,5120,5140],"xSR":741.5,"ySR":501.8,"xT1":424.9,"yT1":0,"xT2":1058.1,"yT2":0,"toosoon":0,"cond_shown":"Incongruent","ratio_trial":100,"L_num":4,"L_den":8,"R_num":8,"R_den":20,"correct_side":1,"subjID":"juan felipe zambrano joya 33","gender":"0","school":"4","age":"10"},{"start_time":1552073926075,"click_time":1552073931454,"finger_time":1552073926374,"fix_duration":1439.2529759451763,"trial":29,"RT":299,"MT":5080,"sideResp":2,"stimulus":[],"xmouse":[821,821,821,821,821,821,821,821,821,821,821,821,821,821,830,904,948,972,979,979,979,979,979,979,979,979,979,979,979,979,979,979,980,980,980,980,980,980,980,980,980,980,980,980,980,980,980,980,980,980,980,980,980,980,980,980,980,980,980,980,980,980,980,980,980,980,980,980,980,980,980,980,980,980,980,980,980,980,980,980,980,980,980,980,980,980,980,980,980,980,980,980,980,980,980,980,980,980,980,980,980,980,980,980,980,980,980,980,980,980,980,980,980,980,980,980,980,980,980,980,980,980,980,980,980,980,980,980,980,980,980,980,980,980,980,980,980,980,980,980,980,980,980,980,980,980,980,980,980,980,980,980,980,980,980,980,980,980,980,980,980,980,980,980,980,980,980,980,980,980,980,980,980,980,980,980,980,980,980,980,980,980,980,980,980,980,980,980,980,980,980,980,980,980,980,980,980,980,980,980,980,980,980,980,980,980,980,980,980,980,980,980,980,980,980,980,980,980,980,980,980,980,980,980,980,980,980,980,980,980,980,980,980,980,980,980,980,980,980,980,980,980,980,980,980,980,980,980,980,980,974,972,971,971,971,985,991,996,1000,1001,1003,1003,1004,1006,1008,1011,1023,1052,1083],"ymouse":[524,524,524,524,524,524,524,524,524,524,524,524,517,506,480,389,349,326,321,321,321,321,321,321,321,321,321,321,321,321,321,321,321,321,321,321,321,321,321,321,321,321,321,321,321,321,321,321,321,321,321,321,321,321,321,321,321,321,321,321,321,321,321,321,321,321,321,321,321,321,321,321,321,321,321,321,321,321,321,321,321,321,321,321,321,321,321,321,321,321,321,321,321,321,321,321,321,321,321,321,321,321,321,321,321,321,321,321,321,321,321,321,321,321,321,321,321,321,321,321,321,321,321,321,321,321,321,321,321,321,321,321,321,321,321,321,321,321,321,321,321,321,321,321,321,321,321,321,321,321,321,321,321,321,321,321,321,321,321,321,321,321,321,321,321,321,321,321,321,321,321,321,321,321,321,321,321,321,321,321,321,321,321,321,321,321,321,321,321,321,321,321,321,321,321,321,321,321,321,321,321,321,321,321,321,321,321,321,321,321,321,321,321,321,321,321,321,321,321,321,321,321,321,321,321,321,321,321,321,321,321,321,321,321,321,321,321,321,321,321,321,321,321,321,321,321,321,299,257,218,188,185,184,184,178,99,60,38,29,27,26,24,23,22,21,21,21,32,47],"timestamp_mouse":[28,40,59,78,98,119,139,159,179,198,220,239,258,279,299,318,338,358,378,398,419,439,459,479,499,518,538,559,579,600,620,638,659,680,699,720,738,759,778,800,819,840,858,879,900,918,939,958,979,1000,1020,1040,1060,1079,1099,1119,1140,1160,1180,1199,1219,1238,1258,1279,1300,1320,1340,1360,1380,1400,1419,1439,1458,1479,1500,1520,1539,1560,1579,1600,1620,1638,1659,1679,1699,1718,1739,1760,1780,1799,1820,1840,1859,1880,1899,1919,1939,1958,1979,2000,2019,2039,2060,2080,2098,2118,2138,2159,2179,2198,2220,2240,2259,2279,2300,2318,2339,2359,2379,2399,2419,2438,2460,2479,2500,2518,2539,2558,2580,2599,2618,2639,2659,2679,2698,2718,2740,2759,2780,2799,2819,2838,2860,2880,2898,2919,2939,2958,2978,3000,3018,3040,3059,3079,3100,3120,3138,3159,3178,3199,3219,3240,3260,3279,3300,3318,3339,3359,3378,3399,3418,3440,3460,3478,3498,3518,3538,3558,3578,3599,3620,3639,3658,3679,3700,3718,3740,3759,3779,3799,3819,3839,3860,3879,3900,3918,3940,3959,3980,3999,4019,4039,4058,4079,4099,4120,4140,4160,4179,4199,4220,4238,4259,4278,4299,4320,4339,4359,4378,4398,4418,4438,4459,4479,4499,4520,4539,4560,4579,4598,4618,4639,4660,4679,4700,4718,4738,4758,4778,4800,4820,4840,4860,4879,4899,4919,4938,4958,4979,4999,5018,5039,5059,5080,5100,5118,5138,5158,5179,5199,5218,5239,5258,5278,5299,5319,5338,5359,5379],"xSR":741.5,"ySR":501.8,"xT1":424.9,"yT1":0,"xT2":1058.1,"yT2":0,"toosoon":0,"cond_shown":"Incongruent","ratio_trial":200,"L_num":1,"L_den":3,"R_num":2,"R_den":15,"correct_side":1,"subjID":"juan felipe zambrano joya 33","gender":"0","school":"4","age":"10"},{"start_time":1552073933161,"click_time":1552073935755,"finger_time":1552073933354,"fix_duration":466.7531124110744,"trial":30,"RT":193,"MT":2401,"sideResp":2,"stimulus":[],"xmouse":[775,775,775,775,775,775,775,779,793,809,824,851,859,860,860,860,862,871,881,884,884,884,884,884,884,884,884,884,884,884,884,884,884,884,884,884,884,884,884,884,884,884,884,884,884,884,884,884,884,884,884,884,884,884,884,884,884,884,884,884,884,884,884,884,884,884,884,884,884,884,884,884,884,884,884,884,884,884,884,884,870,747,705,699,699,704,720,729,733,735,735,735,739,743,753,766,785,802,804,805,806,806,807,808,809,810,810,810,810,810,810,810,810,810,810,810,810,810,810,810,823,934,996,1052,1095,1113,1126,1127,1127,1127],"ymouse":[534,534,534,534,534,534,534,527,502,474,447,401,387,385,385,385,382,366,349,340,340,340,340,340,340,340,340,340,340,340,340,340,340,340,340,340,340,340,340,340,340,340,340,340,340,340,340,340,340,340,340,340,340,340,340,340,340,340,340,340,340,340,340,340,340,340,340,340,340,340,340,340,340,340,340,340,340,340,340,339,358,535,614,657,681,697,713,715,715,715,715,715,715,707,694,677,651,609,599,596,592,584,570,562,556,551,550,550,550,550,550,550,550,550,550,550,550,550,550,545,520,353,278,218,174,152,122,108,102,98],"timestamp_mouse":[12,37,53,74,93,113,133,154,172,193,213,232,252,272,292,314,333,354,372,393,414,433,453,473,494,513,533,554,572,593,612,632,652,674,692,712,732,753,773,793,814,832,854,873,893,914,933,954,972,994,1013,1034,1053,1073,1093,1112,1133,1153,1174,1194,1212,1232,1252,1273,1292,1314,1333,1353,1372,1392,1412,1434,1452,1474,1494,1513,1534,1553,1573,1593,1613,1634,1653,1673,1693,1712,1733,1752,1772,1793,1813,1834,1852,1873,1893,1913,1932,1952,1972,1992,2012,2032,2052,2074,2093,2114,2133,2154,2174,2192,2212,2233,2253,2272,2294,2313,2333,2353,2372,2393,2413,2433,2452,2472,2493,2513,2533,2552,2572,2594],"xSR":741.5,"ySR":501.8,"xT1":424.9,"yT1":0,"xT2":1058.1,"yT2":0,"toosoon":0,"cond_shown":"Congruent","ratio_trial":200,"L_num":3,"L_den":12,"R_num":9,"R_den":20,"correct_side":2,"subjID":"juan felipe zambrano joya 33","gender":"0","school":"4","age":"10"},{"start_time":1552073938167,"click_time":1552073940033,"finger_time":1552073938395,"fix_duration":1152.821212109204,"trial":31,"RT":228,"MT":1638,"sideResp":2,"stimulus":[],"xmouse":[798,798,798,798,798,798,798,798,798,798,798,781,755,732,716,704,704,704,704,704,704,704,704,704,704,704,704,704,704,704,704,704,704,702,699,697,697,697,697,697,697,697,697,697,694,689,682,671,668,667,667,667,667,666,665,664,666,672,676,683,691,698,718,733,752,774,785,799,803,808,813,817,818,818,816,800,787,785,786,786,786,786,786,786,786,786,786,786,790,823,881,950,1066,1113],"ymouse":[576,576,576,576,576,576,576,576,576,576,576,500,395,316,267,229,228,228,228,228,228,228,228,228,228,228,228,228,228,228,228,228,228,230,241,258,264,267,268,269,270,270,271,272,289,309,332,372,385,392,396,398,410,419,433,446,449,450,450,443,430,413,368,333,295,245,216,179,166,154,146,145,146,180,211,331,410,491,508,518,534,554,599,614,619,619,619,619,608,540,444,346,175,97],"timestamp_mouse":[13,27,47,66,86,107,126,146,166,186,206,228,246,268,287,306,326,346,367,386,407,428,447,467,486,507,527,547,566,587,607,628,647,666,686,707,727,746,766,786,806,827,846,867,887,908,927,947,967,986,1007,1028,1047,1066,1086,1106,1126,1147,1167,1186,1206,1227,1246,1268,1287,1306,1326,1346,1367,1386,1406,1427,1446,1468,1486,1506,1526,1547,1567,1588,1607,1626,1646,1667,1686,1706,1727,1746,1766,1788,1807,1827,1847,1866],"xSR":741.5,"ySR":501.8,"xT1":424.9,"yT1":0,"xT2":1058.1,"yT2":0,"toosoon":0,"cond_shown":"Congruent","ratio_trial":300,"L_num":20,"L_den":25,"R_num":13,"R_den":26,"correct_side":1,"subjID":"juan felipe zambrano joya 33","gender":"0","school":"4","age":"10"},{"start_time":1552073947266,"click_time":1552073949873,"finger_t