[{"start_time":1552073552894,"click_time":1552073553878,"finger_time":1552073553377,"fix_duration":1193.3823132127886,"trial":0,"RT":483,"MT":501,"sideResp":2,"stimulus":[],"xmouse":[776,776,776,776,776,776,776,776,776,776,776,775,775,775,774,774,774,774,773,773,776,780,786,803,865,897,922,938,955,958,963,972,995,1011,1038,1049,1056,1057,1057,1057,1057,1057,1057,1058,1061,1065,1069,1073,1081,1095],"ymouse":[566,566,566,566,566,566,566,566,566,566,566,566,566,566,566,566,566,566,565,561,559,556,548,506,392,336,287,260,238,236,233,226,208,192,157,141,130,127,126,126,126,126,126,126,123,120,116,111,104,82],"timestamp_mouse":[3,23,44,63,83,103,123,145,165,183,204,223,244,265,285,305,324,343,364,383,405,425,444,464,483,504,524,544,565,583,604,624,645,665,684,703,723,743,765,783,804,825,844,864,884,904,923,943,964,983],"xSR":741.5,"ySR":501.8,"xT1":424.9,"yT1":0,"xT2":1058.1,"yT2":0,"toosoon":0,"cond_shown":"Incongruent","ratio_trial":300,"L_num":7,"L_den":10,"R_num":8,"R_den":20,"correct_side":1,"subjID":"Juanita Alvarado Castro23","gender":"1","age":"9","school":"4","test":{"fix_dur":[250,1500],"timestim":1000,"targets_dim":[100,100],"targets_relative_coord":[0.3,0.7],"size_stim":[880,420],"start_dim":[100,100],"size_start":[300,300],"size_fix":60,"samplingrate":20,"img_types":["Congruent","Incongruent"],"ratios":[100,200,300],"rep_conds":19,"nTrials":120,"trials_to_rest":500,"Trials_order":[41,117,103,53,56,67,34,102,116,14,59,35,47,98,26,20,17,105,51,90,85,39,30,5,118,104,74,37,19,55,62,54,43,44,106,46,25,65,77,42,110,80,38,99,78,10,76,8,48,115,113,6,111,12,96,4,50,66,69,60,100,64,79,83,27,18,71,15,119,9,16,45,11,94,3,92,101,2,7,82,91,13,52,1,0,33,84,23,89,93,95,40,28,21,31,112,107,73,88,81,108,57,29,97,22,72,49,68,61,70,109,58,114,75,87,24,63,86,36,32],"cond_shown":["Incongruent","Incongruent","Incongruent","Incongruent","Congruent","Incongruent","Congruent","Congruent","Congruent","Congruent","Incongruent","Incongruent","Incongruent","Congruent","Congruent","Congruent","Incongruent","Incongruent","Incongruent","Congruent","Incongruent","Incongruent","Congruent","Incongruent","Congruent","Congruent","Congruent","Incongruent","Incongruent","Incongruent","Congruent","Congruent","Incongruent","Congruent","Congruent","Congruent","Incongruent","Incongruent","Incongruent","Congruent","Congruent","Congruent","Congruent","Incongruent","Congruent","Congruent","Congruent","Congruent","Congruent","Incongruent","Incongruent","Congruent","Incongruent","Congruent","Congruent","Congruent","Congruent","Congruent","Incongruent","Congruent","Congruent","Congruent","Incongruent","Incongruent","Incongruent","Congruent","Incongruent","Incongruent","Incongruent","Incongruent","Congruent","Incongruent","Incongruent","Congruent","Incongruent","Congruent","Incongruent","Congruent","Incongruent","Congruent","Incongruent","Incongruent","Congruent","Incongruent","Congruent","Incongruent","Congruent","Incongruent","Incongruent","Incongruent","Incongruent","Congruent","Congruent","Incongruent","Incongruent","Congruent","Incongruent","Incongruent","Congruent","Incongruent","Congruent","Incongruent","Incongruent","Incongruent","Congruent","Congruent","Incongruent","Congruent","Incongruent","Congruent","Incongruent","Congruent","Congruent","Incongruent","Incongruent","Congruent","Incongruent","Congruent","Congruent","Congruent"],"ratio_trial":[300,200,100,300,200,100,300,100,200,200,300,300,300,200,200,200,300,200,200,100,100,200,100,300,300,200,200,100,100,100,200,100,100,200,300,300,100,300,300,100,200,200,200,200,100,300,300,200,100,100,300,100,200,100,100,300,200,100,200,100,300,300,100,300,200,100,300,200,300,200,300,200,300,300,200,200,300,200,100,300,100,100,300,100,100,200,100,300,300,200,300,300,300,200,100,300,300,100,300,200,100,200,300,100,300,100,100,200,100,300,100,300,100,200,200,100,200,200,100,200],"left_num":[7,11,10,8,11,3,2,11,20,8,13,2,13,6,3,9,4,4,7,8,13,4,9,4,2,5,12,6,8,3,4,7,2,6,20,1,12,1,4,1,6,16,3,14,11,24,11,8,6,2,1,12,1,7,3,8,14,15,3,11,5,20,2,4,7,9,1,3,4,7,1,4,2,1,7,9,4,3,13,8,3,3,1,8,3,7,3,2,4,7,4,20,4,4,8,9,4,9,20,4,11,1,4,2,4,1,4,3,3,11,3,3,9,7,14,6,6,3,3,21],"right_num":[8,3,9,14,3,7,10,6,9,7,12,6,12,11,9,13,6,1,6,2,12,1,8,2,12,14,6,7,6,7,3,15,8,7,13,3,9,3,2,3,3,12,7,12,6,2,2,7,15,6,3,13,2,9,4,10,6,13,1,6,6,9,8,2,8,8,3,11,2,8,8,14,6,6,14,13,2,14,6,1,4,4,8,1,2,6,2,6,6,6,2,8,1,14,6,3,8,20,9,1,4,2,2,8,13,3,8,11,7,2,4,2,8,14,12,15,3,14,2,2],"left_den":[10,20,25,10,22,9,20,22,25,15,26,4,26,20,12,30,5,30,15,16,26,30,15,20,10,10,15,10,16,9,10,14,4,12,25,5,24,2,20,2,15,20,10,30,22,30,22,15,12,4,2,30,3,14,20,15,28,25,10,22,25,25,4,20,10,15,2,4,20,10,30,6,4,5,10,30,20,6,26,16,6,6,30,20,6,15,6,4,5,15,20,25,10,6,16,10,5,10,25,30,22,3,20,4,20,2,8,10,9,22,6,6,15,10,30,12,20,6,6,30],"right_den":[20,4,18,28,10,30,25,15,15,21,15,30,15,22,20,26,12,3,9,5,20,3,16,4,24,20,10,14,10,30,15,25,20,10,26,6,15,15,4,5,15,20,14,18,15,4,10,21,25,15,15,26,15,15,16,12,20,26,2,15,12,18,20,4,16,16,15,20,4,16,24,30,30,12,28,26,4,20,10,5,10,10,24,2,5,9,5,30,12,9,4,16,10,30,10,5,16,25,18,3,10,15,4,20,26,5,20,22,30,10,10,10,16,28,18,25,6,20,5,4],"correct_side":[1,2,2,1,1,1,2,1,1,1,2,1,2,2,2,2,1,2,2,1,2,2,1,2,2,2,1,1,2,1,1,2,1,2,1,2,2,1,2,2,1,1,2,2,1,1,1,1,2,1,1,2,1,2,2,2,1,1,2,1,2,1,1,2,1,1,1,1,2,1,2,1,1,2,1,2,2,2,2,1,1,1,2,2,1,2,1,1,1,2,2,1,1,1,2,1,1,1,1,2,1,1,2,1,2,2,1,2,1,1,1,1,1,1,2,2,2,2,1,1],"img_shown":["img2/300/Incongruent/L/I_Dist_300_LN_7_LD_10_RN_8_RD_20_0.png","img2/200/Incongruent/R/I_Dist_200_LN_11_LD_20_RN_3_RD_4_1.png","img2/100/Incongruent/R/I_Dist_100_LN_10_LD_25_RN_9_RD_18_1.png","img2/300/Incongruent/L/I_Dist_300_LN_8_LD_10_RN_14_RD_28_0.png","img2/200/Congruent/L/C_Dist_200_LN_11_LD_22_RN_3_RD_10_0.png","img2/100/Incongruent/L/I_Dist_100_LN_3_LD_9_RN_7_RD_30_0.png","img2/300/Congruent/R/C_Dist_300_LN_2_LD_20_RN_10_RD_25_1.png","img2/100/Congruent/L/C_Dist_100_LN_11_LD_22_RN_6_RD_15_0.png","img2/200/Congruent/L/C_Dist_200_LN_20_LD_25_RN_9_RD_15_0.png","img2/200/Congruent/L/C_Dist_200_LN_8_LD_15_RN_7_RD_21_0.png","img2/300/Incongruent/R/I_Dist_300_LN_13_LD_26_RN_12_RD_15_1.png","img2/300/Incongruent/L/I_Dist_300_LN_2_LD_4_RN_6_RD_30_0.png","img2/300/Incongruent/R/I_Dist_300_LN_13_LD_26_RN_12_RD_15_1.png","img2/200/Congruent/R/C_Dist_200_LN_6_LD_20_RN_11_RD_22_1.png","img2/200/Congruent/R/C_Dist_200_LN_3_LD_12_RN_9_RD_20_1.png","img2/200/Congruent/R/C_Dist_200_LN_9_LD_30_RN_13_RD_26_1.png","img2/300/Incongruent/L/I_Dist_300_LN_4_LD_5_RN_6_RD_12_0.png","img2/200/Incongruent/R/I_Dist_200_LN_4_LD_30_RN_1_RD_3_1.png","img2/200/Incongruent/R/I_Dist_200_LN_7_LD_15_RN_6_RD_9_1.png","img2/100/Congruent/L/C_Dist_100_LN_8_LD_16_RN_2_RD_5_0.png","img2/100/Incongruent/R/I_Dist_100_LN_13_LD_26_RN_12_RD_20_1.png","img2/200/Incongruent/R/I_Dist_200_LN_4_LD_30_RN_1_RD_3_1.png","img2/100/Congruent/L/C_Dist_100_LN_9_LD_15_RN_8_RD_16_0.png","img2/300/Incongruent/R/I_Dist_300_LN_4_LD_20_RN_2_RD_4_1.png","img2/300/Congruent/R/C_Dist_300_LN_2_LD_10_RN_12_RD_24_1.png","img2/200/Congruent/R/C_Dist_200_LN_5_LD_10_RN_14_RD_20_1.png","img2/200/Congruent/L/C_Dist_200_LN_12_LD_15_RN_6_RD_10_0.png","img2/100/Incongruent/L/I_Dist_100_LN_6_LD_10_RN_7_RD_14_0.png","img2/100/Incongruent/R/I_Dist_100_LN_8_LD_16_RN_6_RD_10_1.png","img2/100/Incongruent/L/I_Dist_100_LN_3_LD_9_RN_7_RD_30_0.png","img2/200/Congruent/L/C_Dist_200_LN_4_LD_10_RN_3_RD_15_0.png","img2/100/Congruent/R/C_Dist_100_LN_7_LD_14_RN_15_RD_25_1.png","img2/100/Incongruent/L/I_Dist_100_LN_2_LD_4_RN_8_RD_20_0.png","img2/200/Congruent/R/C_Dist_200_LN_6_LD_12_RN_7_RD_10_1.png","img2/300/Congruent/L/C_Dist_300_LN_20_LD_25_RN_13_RD_26_0.png","img2/300/Congruent/R/C_Dist_300_LN_1_LD_5_RN_3_RD_6_1.png","img2/100/Incongruent/R/I_Dist_100_LN_12_LD_24_RN_9_RD_15_1.png","img2/300/Incongruent/L/I_Dist_300_LN_1_LD_2_RN_3_RD_15_0.png","img2/300/Incongruent/R/I_Dist_300_LN_4_LD_20_RN_2_RD_4_1.png","img2/100/Congruent/R/C_Dist_100_LN_1_LD_2_RN_3_RD_5_1.png","img2/200/Congruent/L/C_Dist_200_LN_6_LD_15_RN_3_RD_15_0.png","img2/200/Congruent/L/C_Dist_200_LN_16_LD_20_RN_12_RD_20_0.png","img2/200/Congruent/R/C_Dist_200_LN_3_LD_10_RN_7_RD_14_1.png","img2/200/Incongruent/R/I_Dist_200_LN_14_LD_30_RN_12_RD_18_1.png","img2/100/Congruent/L/C_Dist_100_LN_11_LD_22_RN_6_RD_15_0.png","img2/300/Congruent/L/C_Dist_300_LN_24_LD_30_RN_2_RD_4_0.png","img2/300/Congruent/L/C_Dist_300_LN_11_LD_22_RN_2_RD_10_0.png","img2/200/Congruent/L/C_Dist_200_LN_8_LD_15_RN_7_RD_21_0.png","img2/100/Congruent/R/C_Dist_100_LN_6_LD_12_RN_15_RD_25_1.png","img2/100/Incongruent/L/I_Dist_100_LN_2_LD_4_RN_6_RD_15_0.png","img2/300/Incongruent/L/I_Dist_300_LN_1_LD_2_RN_3_RD_15_0.png","img2/100/Congruent/R/C_Dist_100_LN_12_LD_30_RN_13_RD_26_1.png","img2/200/Incongruent/L/I_Dist_200_LN_1_LD_3_RN_2_RD_15_0.png","img2/100/Congruent/R/C_Dist_100_LN_7_LD_14_RN_9_RD_15_1.png","img2/100/Congruent/R/C_Dist_100_LN_3_LD_20_RN_4_RD_16_1.png","img2/300/Congruent/R/C_Dist_300_LN_8_LD_15_RN_10_RD_12_1.png","img2/200/Congruent/L/C_Dist_200_LN_14_LD_28_RN_6_RD_20_0.png","img2/100/Congruent/L/C_Dist_100_LN_15_LD_25_RN_13_RD_26_0.png","img2/200/Incongruent/R/I_Dist_200_LN_3_LD_10_RN_1_RD_2_1.png","img2/100/Congruent/L/C_Dist_100_LN_11_LD_22_RN_6_RD_15_0.png","img2/300/Congruent/R/C_Dist_300_LN_5_LD_25_RN_6_RD_12_1.png","img2/300/Congruent/L/C_Dist_300_LN_20_LD_25_RN_9_RD_18_0.png","img2/100/Incongruent/L/I_Dist_100_LN_2_LD_4_RN_8_RD_20_0.png","img2/300/Incongruent/R/I_Dist_300_LN_4_LD_20_RN_2_RD_4_1.png","img2/200/Incongruent/L/I_Dist_200_LN_7_LD_10_RN_8_RD_16_0.png","img2/100/Congruent/L/C_Dist_100_LN_9_LD_15_RN_8_RD_16_0.png","img2/300/Incongruent/L/I_Dist_300_LN_1_LD_2_RN_3_RD_15_0.png","img2/200/Incongruent/L/I_Dist_200_LN_3_LD_4_RN_11_RD_20_0.png","img2/300/Incongruent/R/I_Dist_300_LN_4_LD_20_RN_2_RD_4_1.png","img2/200/Incongruent/L/I_Dist_200_LN_7_LD_10_RN_8_RD_16_0.png","img2/300/Congruent/R/C_Dist_300_LN_1_LD_30_RN_8_RD_24_1.png","img2/200/Incongruent/L/I_Dist_200_LN_4_LD_6_RN_14_RD_30_0.png","img2/300/Incongruent/L/I_Dist_300_LN_2_LD_4_RN_6_RD_30_0.png","img2/300/Congruent/R/C_Dist_300_LN_1_LD_5_RN_6_RD_12_1.png","img2/200/Incongruent/L/I_Dist_200_LN_7_LD_10_RN_14_RD_28_0.png","img2/200/Congruent/R/C_Dist_200_LN_9_LD_30_RN_13_RD_26_1.png","img2/300/Incongruent/R/I_Dist_300_LN_4_LD_20_RN_2_RD_4_1.png","img2/200/Congruent/R/C_Dist_200_LN_3_LD_6_RN_14_RD_20_1.png","img2/100/Incongruent/R/I_Dist_100_LN_13_LD_26_RN_6_RD_10_1.png","img2/300/Congruent/L/C_Dist_300_LN_8_LD_16_RN_1_RD_5_0.png","img2/100/Incongruent/L/I_Dist_100_LN_3_LD_6_RN_4_RD_10_0.png","img2/100/Incongruent/L/I_Dist_100_LN_3_LD_6_RN_4_RD_10_0.png","img2/300/Congruent/R/C_Dist_300_LN_1_LD_30_RN_8_RD_24_1.png","img2/100/Incongruent/R/I_Dist_100_LN_8_LD_20_RN_1_RD_2_1.png","img2/100/Congruent/L/C_Dist_100_LN_3_LD_6_RN_2_RD_5_0.png","img2/200/Incongruent/R/I_Dist_200_LN_7_LD_15_RN_6_RD_9_1.png","img2/100/Congruent/L/C_Dist_100_LN_3_LD_6_RN_2_RD_5_0.png","img2/300/Incongruent/L/I_Dist_300_LN_2_LD_4_RN_6_RD_30_0.png","img2/300/Incongruent/L/I_Dist_300_LN_4_LD_5_RN_6_RD_12_0.png","img2/200/Incongruent/R/I_Dist_200_LN_7_LD_15_RN_6_RD_9_1.png","img2/300/Incongruent/R/I_Dist_300_LN_4_LD_20_RN_2_RD_4_1.png","img2/300/Congruent/L/C_Dist_300_LN_20_LD_25_RN_8_RD_16_0.png","img2/300/Congruent/L/C_Dist_300_LN_4_LD_10_RN_1_RD_10_0.png","img2/200/Incongruent/L/I_Dist_200_LN_4_LD_6_RN_14_RD_30_0.png","img2/100/Incongruent/R/I_Dist_100_LN_8_LD_16_RN_6_RD_10_1.png","img2/300/Congruent/L/C_Dist_300_LN_9_LD_10_RN_3_RD_5_0.png","img2/300/Incongruent/L/I_Dist_300_LN_4_LD_5_RN_8_RD_16_0.png","img2/100/Incongruent/L/I_Dist_100_LN_9_LD_10_RN_20_RD_25_0.png","img2/300/Congruent/L/C_Dist_300_LN_20_LD_25_RN_9_RD_18_0.png","img2/200/Incongruent/R/I_Dist_200_LN_4_LD_30_RN_1_RD_3_1.png","img2/100/Congruent/L/C_Dist_100_LN_11_LD_22_RN_4_RD_10_0.png","img2/200/Incongruent/L/I_Dist_200_LN_1_LD_3_RN_2_RD_15_0.png","img2/300/Incongruent/R/I_Dist_300_LN_4_LD_20_RN_2_RD_4_1.png","img2/100/Incongruent/L/I_Dist_100_LN_2_LD_4_RN_8_RD_20_0.png","img2/300/Congruent/R/C_Dist_300_LN_4_LD_20_RN_13_RD_26_1.png","img2/100/Congruent/R/C_Dist_100_LN_1_LD_2_RN_3_RD_5_1.png","img2/100/Incongruent/L/I_Dist_100_LN_4_LD_8_RN_8_RD_20_0.png","img2/200/Congruent/R/C_Dist_200_LN_3_LD_10_RN_11_RD_22_1.png","img2/100/Incongruent/L/I_Dist_100_LN_3_LD_9_RN_7_RD_30_0.png","img2/300/Congruent/L/C_Dist_300_LN_11_LD_22_RN_2_RD_10_0.png","img2/100/Incongruent/L/I_Dist_100_LN_3_LD_6_RN_4_RD_10_0.png","img2/300/Congruent/L/C_Dist_300_LN_3_LD_6_RN_2_RD_10_0.png","img2/100/Congruent/L/C_Dist_100_LN_9_LD_15_RN_8_RD_16_0.png","img2/200/Incongruent/L/I_Dist_200_LN_7_LD_10_RN_14_RD_28_0.png","img2/200/Incongruent/R/I_Dist_200_LN_14_LD_30_RN_12_RD_18_1.png","img2/100/Congruent/R/C_Dist_100_LN_6_LD_12_RN_15_RD_25_1.png","img2/200/Incongruent/R/I_Dist_200_LN_6_LD_20_RN_3_RD_6_1.png","img2/200/Congruent/R/C_Dist_200_LN_3_LD_6_RN_14_RD_20_1.png","img2/100/Congruent/L/C_Dist_100_LN_3_LD_6_RN_2_RD_5_0.png","img2/200/Congruent/L/C_Dist_200_LN_21_LD_30_RN_2_RD_4_0.png"],"dist100_C":[["C_Dist_100_LN_10_LD_25_RN_3_RD_10_0.png","C_Dist_100_LN_11_LD_22_RN_4_RD_10_0.png","C_Dist_100_LN_11_LD_22_RN_6_RD_15_0.png","C_Dist_100_LN_15_LD_25_RN_13_RD_26_0.png","C_Dist_100_LN_3_LD_6_RN_2_RD_5_0.png","C_Dist_100_LN_6_LD_20_RN_5_RD_25_0.png","C_Dist_100_LN_8_LD_16_RN_2_RD_5_0.png","C_Dist_100_LN_9_LD_15_RN_8_RD_16_0.png"],["C_Dist_100_LN_1_LD_2_RN_18_RD_30_1.png","C_Dist_100_LN_1_LD_2_RN_3_RD_5_1.png","C_Dist_100_LN_12_LD_30_RN_13_RD_26_1.png","C_Dist_100_LN_2_LD_5_RN_11_RD_22_1.png","C_Dist_100_LN_2_LD_5_RN_6_RD_12_1.png","C_Dist_100_LN_3_LD_20_RN_4_RD_16_1.png","C_Dist_100_LN_4_LD_10_RN_15_RD_30_1.png","C_Dist_100_LN_4_LD_8_RN_6_RD_10_1.png","C_Dist_100_LN_6_LD_12_RN_15_RD_25_1.png","C_Dist_100_LN_7_LD_14_RN_15_RD_25_1.png","C_Dist_100_LN_7_LD_14_RN_9_RD_15_1.png"]],"dist100_I":[["I_Dist_100_LN_1_LD_2_RN_8_RD_20_0.png","I_Dist_100_LN_2_LD_4_RN_6_RD_15_0.png","I_Dist_100_LN_2_LD_4_RN_8_RD_20_0.png","I_Dist_100_LN_3_LD_5_RN_11_RD_22_0.png","I_Dist_100_LN_3_LD_5_RN_8_RD_16_0.png","I_Dist_100_LN_3_LD_6_RN_4_RD_10_0.png","I_Dist_100_LN_3_LD_9_RN_7_RD_30_0.png","I_Dist_100_LN_4_LD_8_RN_8_RD_20_0.png","I_Dist_100_LN_6_LD_10_RN_11_RD_22_0.png","I_Dist_100_LN_6_LD_10_RN_13_RD_26_0.png","I_Dist_100_LN_6_LD_10_RN_7_RD_14_0.png","I_Dist_100_LN_9_LD_10_RN_20_RD_25_0.png","I_Dist_100_LN_9_LD_15_RN_13_RD_26_0.png","I_Dist_100_LN_9_LD_15_RN_14_RD_28_0.png"],["I_Dist_100_LN_10_LD_25_RN_8_RD_16_1.png","I_Dist_100_LN_10_LD_25_RN_9_RD_18_1.png","I_Dist_100_LN_11_LD_22_RN_9_RD_15_1.png","I_Dist_100_LN_12_LD_24_RN_9_RD_15_1.png","I_Dist_100_LN_12_LD_30_RN_2_RD_4_1.png","I_Dist_100_LN_13_LD_26_RN_12_RD_20_1.png","I_Dist_100_LN_13_LD_26_RN_6_RD_10_1.png","I_Dist_100_LN_17_LD_30_RN_10_RD_15_1.png","I_Dist_100_LN_6_LD_12_RN_3_RD_5_1.png","I_Dist_100_LN_8_LD_16_RN_6_RD_10_1.png","I_Dist_100_LN_8_LD_20_RN_1_RD_2_1.png","I_Dist_100_LN_9_LD_18_RN_6_RD_10_1.png"]],"dist100_S":[["E_Dist_100_LN_2_LD_12_RN_2_RD_30_0.png","E_Dist_100_LN_6_LD_10_RN_6_RD_12_0.png"],["E_Dist_100_LN_6_LD_12_RN_6_RD_10_1.png"]],"dist200_C":[["C_Dist_200_LN_11_LD_22_RN_3_RD_10_0.png","C_Dist_200_LN_12_LD_15_RN_6_RD_10_0.png","C_Dist_200_LN_12_LD_20_RN_6_RD_15_0.png","C_Dist_200_LN_14_LD_28_RN_6_RD_20_0.png","C_Dist_200_LN_15_LD_25_RN_4_RD_10_0.png","C_Dist_200_LN_16_LD_20_RN_12_RD_20_0.png","C_Dist_200_LN_16_LD_30_RN_9_RD_27_0.png","C_Dist_200_LN_20_LD_25_RN_9_RD_15_0.png","C_Dist_200_LN_21_LD_30_RN_2_RD_4_0.png","C_Dist_200_LN_4_LD_10_RN_3_RD_15_0.png","C_Dist_200_LN_4_LD_8_RN_3_RD_10_0.png","C_Dist_200_LN_6_LD_15_RN_3_RD_15_0.png","C_Dist_200_LN_7_LD_21_RN_2_RD_15_0.png","C_Dist_200_LN_8_LD_15_RN_2_RD_6_0.png","C_Dist_200_LN_8_LD_15_RN_3_RD_9_0.png","C_Dist_200_LN_8_LD_15_RN_7_RD_21_0.png","C_Dist_200_LN_9_LD_20_RN_4_RD_16_0.png"],["C_Dist_200_LN_1_LD_2_RN_21_RD_30_1.png","C_Dist_200_LN_13_LD_26_RN_14_RD_20_1.png","C_Dist_200_LN_3_LD_10_RN_11_RD_22_1.png","C_Dist_200_LN_3_LD_10_RN_14_RD_28_1.png","C_Dist_200_LN_3_LD_10_RN_7_RD_14_1.png","C_Dist_200_LN_3_LD_12_RN_9_RD_20_1.png","C_Dist_200_LN_3_LD_6_RN_14_RD_20_1.png","C_Dist_200_LN_5_LD_10_RN_14_RD_20_1.png","C_Dist_200_LN_6_LD_12_RN_7_RD_10_1.png","C_Dist_200_LN_6_LD_20_RN_11_RD_22_1.png","C_Dist_200_LN_7_LD_15_RN_18_RD_27_1.png","C_Dist_200_LN_9_LD_30_RN_13_RD_26_1.png"]],"dist200_I":[["I_Dist_200_LN_1_LD_2_RN_3_RD_10_0.png","I_Dist_200_LN_1_LD_3_RN_2_RD_15_0.png","I_Dist_200_LN_3_LD_4_RN_11_RD_20_0.png","I_Dist_200_LN_4_LD_5_RN_6_RD_10_0.png","I_Dist_200_LN_4_LD_6_RN_14_RD_30_0.png","I_Dist_200_LN_7_LD_10_RN_12_RD_24_0.png","I_Dist_200_LN_7_LD_10_RN_14_RD_28_0.png","I_Dist_200_LN_7_LD_10_RN_8_RD_16_0.png"],["I_Dist_200_LN_11_LD_20_RN_3_RD_4_1.png","I_Dist_200_LN_14_LD_30_RN_12_RD_18_1.png","I_Dist_200_LN_14_LD_30_RN_6_RD_9_1.png","I_Dist_200_LN_3_LD_10_RN_1_RD_2_1.png","I_Dist_200_LN_4_LD_30_RN_1_RD_3_1.png","I_Dist_200_LN_6_LD_20_RN_3_RD_6_1.png","I_Dist_200_LN_7_LD_15_RN_4_RD_6_1.png","I_Dist_200_LN_7_LD_15_RN_6_RD_9_1.png","I_Dist_200_LN_9_LD_15_RN_8_RD_10_1.png"]],"dist200_S":[["E_Dist_200_LN_3_LD_6_RN_3_RD_10_0.png"],["E_Dist_200_LN_3_LD_10_RN_3_RD_6_1.png"]],"dist300_C":[["C_Dist_300_LN_11_LD_22_RN_1_RD_5_0.png","C_Dist_300_LN_11_LD_22_RN_2_RD_10_0.png","C_Dist_300_LN_11_LD_22_RN_4_RD_20_0.png","C_Dist_300_LN_12_LD_24_RN_2_RD_10_0.png","C_Dist_300_LN_18_LD_20_RN_9_RD_15_0.png","C_Dist_300_LN_20_LD_25_RN_13_RD_26_0.png","C_Dist_300_LN_20_LD_25_RN_14_RD_28_0.png","C_Dist_300_LN_20_LD_25_RN_5_RD_10_0.png","C_Dist_300_LN_20_LD_25_RN_8_RD_16_0.png","C_Dist_300_LN_20_LD_25_RN_9_RD_18_0.png","C_Dist_300_LN_24_LD_30_RN_2_RD_4_0.png","C_Dist_300_LN_24_LD_30_RN_8_RD_16_0.png","C_Dist_300_LN_3_LD_6_RN_2_RD_10_0.png","C_Dist_300_LN_4_LD_10_RN_1_RD_10_0.png","C_Dist_300_LN_4_LD_5_RN_2_RD_4_0.png","C_Dist_300_LN_8_LD_16_RN_1_RD_5_0.png","C_Dist_300_LN_9_LD_10_RN_3_RD_5_0.png"],["C_Dist_300_LN_1_LD_20_RN_7_RD_20_1.png","C_Dist_300_LN_1_LD_3_RN_19_RD_30_1.png","C_Dist_300_LN_1_LD_30_RN_8_RD_24_1.png","C_Dist_300_LN_1_LD_5_RN_11_RD_22_1.png","C_Dist_300_LN_1_LD_5_RN_3_RD_6_1.png","C_Dist_300_LN_1_LD_5_RN_6_RD_12_1.png","C_Dist_300_LN_2_LD_10_RN_12_RD_24_1.png","C_Dist_300_LN_2_LD_20_RN_10_RD_25_1.png","C_Dist_300_LN_3_LD_12_RN_11_RD_20_1.png","C_Dist_300_LN_3_LD_6_RN_4_RD_5_1.png","C_Dist_300_LN_4_LD_20_RN_13_RD_26_1.png","C_Dist_300_LN_5_LD_25_RN_6_RD_12_1.png","C_Dist_300_LN_5_LD_25_RN_7_RD_14_1.png","C_Dist_300_LN_7_LD_14_RN_20_RD_25_1.png","C_Dist_300_LN_8_LD_15_RN_10_RD_12_1.png"]],"dist300_I":[["I_Dist_300_LN_1_LD_2_RN_2_RD_10_0.png","I_Dist_300_LN_1_LD_2_RN_3_RD_15_0.png","I_Dist_300_LN_2_LD_4_RN_6_RD_30_0.png","I_Dist_300_LN_3_LD_6_RN_4_RD_20_0.png","I_Dist_300_LN_4_LD_5_RN_6_RD_12_0.png","I_Dist_300_LN_4_LD_5_RN_8_RD_16_0.png","I_Dist_300_LN_7_LD_10_RN_8_RD_20_0.png","I_Dist_300_LN_8_LD_10_RN_14_RD_28_0.png","I_Dist_300_LN_8_LD_10_RN_9_RD_18_0.png"],["I_Dist_300_LN_13_LD_26_RN_12_RD_15_1.png","I_Dist_300_LN_4_LD_20_RN_2_RD_4_1.png"]],"dist300_S":[["E_Dist_300_LN_9_LD_12_RN_9_RD_20_0.png"],["E_Dist_300_LN_18_LD_30_RN_18_RD_20_1.png","E_Dist_300_LN_3_LD_10_RN_3_RD_5_1.png","E_Dist_300_LN_9_LD_20_RN_9_RD_12_1.png"]],"dist500_C":[["C_Dist_500_LN_10_LD_13_RN_7_RD_26_0.png","C_Dist_500_LN_10_LD_15_RN_4_RD_24_0.png","C_Dist_500_LN_12_LD_16_RN_3_RD_12_0.png","C_Dist_500_LN_12_LD_18_RN_4_RD_24_0.png","C_Dist_500_LN_15_LD_18_RN_5_RD_15_0.png","C_Dist_500_LN_15_LD_20_RN_1_RD_4_0.png","C_Dist_500_LN_18_LD_27_RN_1_RD_6_0.png","C_Dist_500_LN_20_LD_24_RN_1_RD_3_0.png","C_Dist_500_LN_20_LD_24_RN_3_RD_9_0.png","C_Dist_500_LN_20_LD_24_RN_7_RD_21_0.png","C_Dist_500_LN_20_LD_28_RN_3_RD_14_0.png","C_Dist_500_LN_21_LD_28_RN_6_RD_24_0.png","C_Dist_500_LN_22_LD_28_RN_2_RD_7_0.png","C_Dist_500_LN_25_LD_30_RN_9_RD_27_0.png","C_Dist_500_LN_4_LD_6_RN_1_RD_6_0.png","C_Dist_500_LN_5_LD_6_RN_2_RD_6_0.png","C_Dist_500_LN_6_LD_9_RN_1_RD_6_0.png","C_Dist_500_LN_7_LD_10_RN_1_RD_5_0.png","C_Dist_500_LN_8_LD_12_RN_1_RD_6_0.png","C_Dist_500_LN_8_LD_12_RN_4_RD_24_0.png"],["C_Dist_500_LN_1_LD_4_RN_12_RD_16_1.png","C_Dist_500_LN_1_LD_4_RN_9_RD_12_1.png","C_Dist_500_LN_1_LD_9_RN_11_RD_18_1.png","C_Dist_500_LN_10_LD_24_RN_22_RD_24_1.png","C_Dist_500_LN_2_LD_12_RN_10_RD_15_1.png","C_Dist_500_LN_2_LD_12_RN_12_RD_18_1.png","C_Dist_500_LN_2_LD_12_RN_4_RD_6_1.png","C_Dist_500_LN_2_LD_24_RN_7_RD_12_1.png","C_Dist_500_LN_2_LD_5_RN_18_RD_20_1.png","C_Dist_500_LN_2_LD_5_RN_9_RD_10_1.png","C_Dist_500_LN_2_LD_8_RN_12_RD_16_1.png","C_Dist_500_LN_2_LD_8_RN_21_RD_28_1.png","C_Dist_500_LN_3_LD_10_RN_4_RD_5_1.png","C_Dist_500_LN_3_LD_12_RN_15_RD_20_1.png","C_Dist_500_LN_3_LD_30_RN_6_RD_10_1.png","C_Dist_500_LN_3_LD_8_RN_14_RD_16_1.png","C_Dist_500_LN_4_LD_16_RN_15_RD_20_1.png","C_Dist_500_LN_4_LD_24_RN_12_RD_18_1.png","C_Dist_500_LN_5_LD_14_RN_6_RD_7_1.png","C_Dist_500_LN_7_LD_21_RN_20_RD_24_1.png","C_Dist_500_LN_7_LD_28_RN_12_RD_16_1.png","C_Dist_500_LN_7_LD_28_RN_9_RD_12_1.png","C_Dist_500_LN_9_LD_27_RN_20_RD_24_1.png"]],"dist500_I":[["I_Dist_500_LN_2_LD_3_RN_4_RD_24_0.png","I_Dist_500_LN_5_LD_6_RN_6_RD_18_0.png","I_Dist_500_LN_7_LD_8_RN_9_RD_24_0.png"],["I_Dist_500_LN_7_LD_21_RN_5_RD_6_1.png"]],"dist500_S":[["E_Dist_500_LN_6_LD_8_RN_6_RD_24_0.png"],["E_Dist_500_LN_2_LD_12_RN_2_RD_3_1.png","E_Dist_500_LN_6_LD_24_RN_6_RD_8_1.png"]]}},{"start_time":1552073555930,"click_time":1552073556978,"finger_time":1552073556178,"fix_duration":250,"trial":1,"RT":248,"MT":800,"sideResp":1,"stimulus":[],"xmouse":[783,784,788,791,793,793,793,799,805,813,828,841,868,882,890,895,898,898,898,898,898,899,887,873,856,840,821,786,768,758,749,742,727,720,710,700,689,680,635,613,595,582,560,551,544,536,529,526,522,514,509,502,476],"ymouse":[515,515,515,515,515,515,515,517,520,526,541,551,569,578,583,590,591,591,591,591,591,592,578,563,546,532,513,470,442,427,412,399,368,348,329,314,299,287,254,241,229,222,214,211,210,209,209,208,194,166,146,111,42],"timestamp_mouse":[9,27,48,68,88,109,127,147,168,188,209,229,248,267,289,308,328,348,369,389,409,427,449,468,488,507,529,547,567,588,609,629,648,668,687,707,728,748,769,788,809,829,848,868,889,909,929,948,969,987,1009,1029,1048],"xSR":741.5,"ySR":501.8,"xT1":424.9,"yT1":0,"xT2":1058.1,"yT2":0,"toosoon":0,"cond_shown":"Incongruent","ratio_trial":200,"L_num":11,"L_den":20,"R_num":3,"R_den":4,"correct_side":2,"subjID":"Juanita Alvarado Castro23","gender":"1","school":"4","age":"9"},{"start_time":1552073559030,"click_time":1552073559798,"finger_time":1552073559517,"fix_duration":250,"trial":2,"RT":487,"MT":281,"sideResp":2,"stimulus":[],"xmouse":[767,767,767,767,767,767,767,767,767,767,767,767,767,768,768,768,770,771,772,775,777,781,788,813,821,827,840,891,937,993,1039,1077,1098,1114,1114,1115,1116,1118,1124],"ymouse":[556,556,556,556,556,556,556,556,556,556,556,556,556,556,556,556,556,556,554,553,550,547,537,502,490,480,463,394,338,278,220,169,141,116,115,113,110,106,93],"timestamp_mouse":[7,27,48,67,87,109,129,147,169,189,207,229,249,268,288,307,328,347,368,388,408,427,448,469,487,508,528,548,568,589,609,628,647,668,688,709,728,747,767],"xSR":741.5,"ySR":501.8,"xT1":424.9,"yT1":0,"xT2":1058.1,"yT2":0,"toosoon":0,"cond_shown":"Incongruent","ratio_trial":100,"L_num":10,"L_den":25,"R_num":9,"R_den":18,"correct_side":2,"subjID":"Juanita Alvarado Castro23","gender":"1","school":"4","age":"9"},{"start_time":1552073562019,"click_time":1552073562859,"finger_time":1552073562377,"fix_duration":861.893277263713,"trial":3,"RT":358,"MT":482,"sideResp":1,"stimulus":[],"xmouse":[763,763,763,763,763,763,763,763,763,764,764,764,764,765,768,771,778,781,795,795,795,778,734,699,699,699,699,699,699,699,699,699,699,699,699,699,699,699,699,699,699,501],"ymouse":[571,571,571,571,571,571,570,570,569,568,568,567,566,565,557,540,515,484,377,309,236,166,62,13,13,13,13,13,13,13,13,13,13,13,13,13,13,13,13,13,13,7],"timestamp_mouse":[19,39,60,80,99,120,139,160,179,198,220,239,259,279,299,320,340,358,379,399,419,440,459,479,499,519,540,558,579,598,619,639,659,679,699,719,738,758,778,800,820,840],"xSR":741.5,"ySR":501.8,"xT1":424.9,"yT1":0,"xT2":1058.1,"yT2":0,"toosoon":0,"cond_shown":"Incongruent","ratio_trial":300,"L_num":8,"L_den":10,"R_num":14,"R_den":28,"correct_side":1,"subjID":"Juanita Alvarado Castro23","gender":"1","school":"4","age":"9"},{"start_time":1552073564657,"click_time":1552073565398,"finger_time":1552073564997,"fix_duration":479.81533394465015,"trial":4,"RT":340,"MT":401,"sideResp":2,"stimulus":[],"xmouse":[792,792,792,792,792,792,792,792,792,792,792,792,792,792,792,792,797,819,842,891,922,951,993,1007,1019,1030,1039,1050,1054,1058,1059,1060,1064,1066,1068,1070,1070,1070],"ymouse":[516,516,516,516,516,516,516,516,516,516,516,516,516,516,516,516,508,474,443,383,352,328,295,282,267,254,241,220,211,201,197,191,165,150,136,120,108,91],"timestamp_mouse":[4,21,41,60,81,101,121,141,160,182,201,222,242,261,282,301,321,340,360,380,400,421,441,461,480,500,522,541,560,580,601,621,640,661,681,700,722,741],"xSR":741.5,"ySR":501.8,"xT1":424.9,"yT1":0,"xT2":1058.1,"yT2":0,"toosoon":0,"cond_shown":"Congruent","ratio_trial":200,"L_num":11,"L_den":22,"R_num":3,"R_den":10,"correct_side":1,"subjID":"Juanita Alvarado Castro23","gender":"1","school":"4","age":"9"},{"start_time":1552073567801,"click_time":1552073568798,"finger_time":1552073568198,"fix_duration":1301.8632732552703,"trial":5,"RT":397,"MT":600,"sideResp":1,"stimulus":[],"xmouse":[770,770,770,770,770,770,770,770,770,770,770,770,770,770,770,770,770,770,766,706,613,557,514,500,496,496,496,496,496,496,496,496,496,496,496,496,496,496,496,496,496,496,496,496,496,496,496,497,500,499],"ymouse":[526,526,526,526,526,526,526,526,526,526,526,526,526,526,526,526,526,521,513,414,298,238,188,164,154,154,154,154,154,154,154,154,154,154,154,154,154,154,154,154,154,154,154,154,154,154,154,147,133,76],"timestamp_mouse":[18,37,58,77,97,117,138,158,178,196,216,238,257,277,296,318,338,356,377,397,416,436,457,477,498,517,536,557,576,598,618,638,656,677,697,718,738,757,778,798,818,837,857,877,898,916,936,957,978,997],"xSR":741.5,"ySR":501.8,"xT1":424.9,"yT1":0,"xT2":1058.1,"yT2":0,"toosoon":0,"cond_shown":"Incongruent","ratio_trial":100,"L_num":3,"L_den":9,"R_num":7,"R_den":30,"correct_side":1,"subjID":"Juanita Alvarado Castro23","gender":"1","school":"4","age":"9"},{"start_time":1552073573235,"click_time":1552073574398,"finger_time":1552073573957,"fix_duration":696.1452575980425,"trial":6,"RT":722,"MT":441,"sideResp":2,"stimulus":[],"xmouse":[804,804,804,804,804,804,804,804,804,804,804,804,804,804,804,804,804,804,804,804,804,804,804,804,804,804,804,804,804,804,804,804,804,805,813,823,860,892,929,987,1012,1027,1037,1039,1041,1043,1048,1055,1062,1074,1077,1079,1079,1079,1083,1087,1093,1100,1108],"ymouse":[569,569,569,569,569,569,569,569,569,569,569,569,569,569,569,569,569,569,569,569,569,569,569,569,569,569,569,569,569,569,569,567,565,565,552,540,507,479,440,379,349,325,311,304,301,299,285,271,253,222,212,207,205,202,187,168,147,123,98],"timestamp_mouse":[5,24,43,64,84,103,122,143,163,182,202,224,242,262,284,304,323,343,362,383,403,423,444,462,483,504,523,542,563,584,603,624,642,664,682,703,722,743,763,783,803,822,842,863,883,903,922,943,963,982,1003,1024,1043,1063,1083,1103,1122,1144,1163],"xSR":741.5,"ySR":501.8,"xT1":424.9,"yT1":0,"xT2":1058.1,"yT2":0,"toosoon":0,"cond_shown":"Congruent","ratio_trial":300,"L_num":2,"L_den":20,"R_num":10,"R_den":25,"correct_side":2,"subjID":"Juanita Alvarado Castro23","gender":"1","school":"4","age":"9"},{"start_time":1552073578177,"click_time":1552073578837,"finger_time":1552073578598,"fix_duration":1237.6545256060535,"trial":7,"RT":421,"MT":239,"sideResp":1,"stimulus":[],"xmouse":[787,787,787,787,787,787,787,787,787,787,787,787,787,787,787,787,787,787,787,787,789,789,776,705,663,628,600,588,576,574,569,560,551,524],"ymouse":[555,555,555,555,555,555,555,555,555,555,555,555,555,555,555,555,555,555,549,537,522,498,454,317,247,186,125,99,74,69,65,61,55,46],"timestamp_mouse":[4,21,41,61,80,101,120,140,160,180,201,222,241,262,281,302,322,341,362,380,401,421,440,460,482,501,521,540,561,580,601,622,641,660],"xSR":741.5,"ySR":501.8,"xT1":424.9,"yT1":0,"xT2":1058.1,"yT2":0,"toosoon":0,"cond_shown":"Congruent","ratio_trial":100,"L_num":11,"L_den":22,"R_num":6,"R_den":15,"correct_side":1,"subjID":"Juanita Alvarado Castro23","gender":"1","school":"4","age":"9"},{"start_time":1552073581153,"click_time":1552073581818,"finger_time":1552073581297,"fix_duration":494.38278156841164,"trial":8,"RT":144,"MT":521,"sideResp":1,"stimulus":[],"xmouse":[770,770,770,768,758,750,743,725,710,664,646,630,615,602,579,571,555,545,534,522,521,521,521,521,521,520,518,514,511,510,509,508,505,502],"ymouse":[576,576,575,573,560,551,539,513,493,438,416,396,377,360,324,305,269,242,218,189,185,185,185,185,175,159,152,135,126,118,115,109,102,92],"timestamp_mouse":[7,25,44,64,84,106,124,144,164,185,204,225,245,265,284,304,324,345,366,384,404,424,445,465,484,505,524,544,564,584,605,626,645,665],"xSR":741.5,"ySR":501.8,"xT1":424.9,"yT1":0,"xT2":1058.1,"yT2":0,"toosoon":0,"cond_shown":"Congruent","ratio_trial":200,"L_num":20,"L_den":25,"R_num":9,"R_den":15,"correct_side":1,"subjID":"Juanita Alvarado Castro23","gender":"1","school":"4","age":"9"},{"start_time":1552073585094,"click_time":1552073585958,"finger_time":1552073585398,"fix_duration":594.0149331349411,"trial":9,"RT":304,"MT":560,"sideResp":1,"stimulus":[],"xmouse":[765,765,765,765,765,765,765,765,765,765,765,765,765,760,742,702,641,516,447,392,367,358,350,349,349,349,349,349,349,349,350,363,402,419,429,437,439,440,440,442,445,452,459,472],"ymouse":[583,583,583,583,583,583,583,583,583,583,583,583,583,579,561,527,451,325,269,229,207,195,180,178,178,178,178,178,178,178,177,175,162,157,152,149,148,147,147,147,143,136,124,96],"timestamp_mouse":[4,23,44,65,85,104,123,144,164,185,205,224,244,263,284,304,325,345,364,383,404,424,445,464,484,504,524,544,564,583,604,623,645,664,684,704,725,745,764,783,805,824,844,863],"xSR":741.5,"ySR":501.8,"xT1":424.9,"yT1":0,"xT2":1058.1,"yT2":0,"toosoon":0,"cond_shown":"Congruent","ratio_trial":200,"L_num":8,"L_den":15,"R_num":7,"R_den":21,"correct_side":1,"subjID":"Juanita Alvarado Castro23","gender":"1","school":"4","age":"9"},{"start_time":1552073588869,"click_time":1552073589838,"finger_time":1552073588883,"fix_duration":250,"trial":10,"RT":14,"MT":955,"sideResp":2,"stimulus":[],"xmouse":[802,805,805,785,776,778,791,794,796,802,803,803,803,803,803,805,809,817,830,864,888,928,969,1004,1056,1083,1107,1118,1122,1125,1128,1131,1137,1145,1183,1206,1212,1212,1212,1212,1212,1212,1212,1212,1212,1212,1212,1212,1152],"ymouse":[485,437,385,317,213,181,157,154,152,147,145,144,144,144,144,144,144,144,144,147,152,164,177,188,198,201,204,204,204,204,203,201,194,179,88,29,10,10,10,10,10,10,10,10,10,10,10,10,3],"timestamp_mouse":[14,29,50,69,90,109,128,149,169,189,209,229,249,268,289,309,328,349,369,389,408,428,448,469,488,509,528,548,570,589,608,630,649,669,688,708,730,750,768,789,809,829,849,869,890,909,929,950,969],"xSR":741.5,"ySR":501.8,"xT1":424.9,"yT1":0,"xT2":1058.1,"yT2":0,"toosoon":0,"cond_shown":"Incongruent","ratio_trial":300,"L_num":13,"L_den":26,"R_num":12,"R_den":15,"correct_side":2,"subjID":"Juanita Alvarado Castro23","gender":"1","school":"4","age":"9"},{"start_time":1552073595796,"click_time":1552073596997,"finger_time":1552073596638,"fix_duration":557.5464923527555,"trial":11,"RT":842,"MT":359,"sideResp":1,"stimulus":[],"xmouse":[791,791,791,791,791,791,791,791,791,791,791,791,791,791,791,791,791,791,791,791,791,791,791,791,791,791,791,791,791,791,791,791,791,791,791,793,794,796,796,796,796,793,783,768,690,643,612,596,591,589,586,585,583,583,577,577,577,577,575,546,508],"ymouse":[563,563,563,563,563,563,563,563,563,563,563,563,563,563,563,563,563,563,563,563,563,563,563,563,563,563,563,563,563,563,563,563,563,563,563,561,561,558,554,539,525,509,486,463,389,357,334,312,301,288,278,270,263,255,241,240,240,240,233,164,80],"timestamp_mouse":[5,23,42,61,81,102,123,142,161,183,203,221,242,263,281,301,323,342,361,381,402,422,441,463,482,502,522,541,561,583,603,622,641,661,681,702,722,743,762,782,801,822,842,862,881,901,921,942,962,982,1002,1022,1043,1063,1081,1101,1122,1143,1162,1181,1201],"xSR":741.5,"ySR":501.8,"xT1":424.9,"yT1":0,"xT2":1058.1,"yT2":0,"toosoon":0,"cond_shown":"Incongruent","ratio_trial":300,"L_num":2,"L_den":4,"R_num":6,"R_den":30,"correct_side":1,"subjID":"Juanita Alvarado Castro23","gender":"1","school":"4","age":"9"},{"start_time":1552073599772,"click_time":1552073601078,"finger_time":1552073600377,"fix_duration":692.6179031804392,"trial":12,"RT":605,"MT":701,"sideResp":2,"stimulus":[],"xmouse":[815,815,815,815,815,815,815,815,815,815,815,815,815,815,814,812,812,812,812,812,812,812,812,817,821,834,837,837,839,839,842,843,847,851,857,862,882,897,908,914,928,943,954,958,961,975,989,995,1004,1013,1026,1036,1051,1076,1093,1107,1108,1108,1108,1108,1108,1108,1110,1115,1115,1115],"ymouse":[552,550,548,547,546,546,546,546,546,546,545,545,545,545,545,545,545,545,545,545,545,545,545,541,539,533,530,527,522,520,513,509,504,496,485,474,426,419,416,414,411,411,411,411,410,410,409,408,404,401,387,363,330,286,248,210,201,197,197,196,191,183,164,137,107,82],"timestamp_mouse":[13,26,47,66,86,105,126,147,167,185,206,225,247,265,287,306,326,347,367,386,407,427,447,465,487,505,525,545,566,586,605,626,646,666,685,706,726,745,767,786,806,826,845,865,886,906,925,945,967,987,1006,1026,1047,1065,1086,1106,1126,1146,1166,1185,1206,1226,1246,1266,1287,1306],"xSR":741.5,"ySR":501.8,"xT1":424.9,"yT1":0,"xT2":1058.1,"yT2":0,"toosoon":0,"cond_shown":"Incongruent","ratio_trial":300,"L_num":13,"L_den":26,"R_num":12,"R_den":15,"correct_side":2,"subjID":"Juanita Alvarado Castro23","gender":"1","school":"4","age":"9"},{"start_time":1552073611349,"click_time":1552073612738,"finger_time":1552073611819,"fix_duration":250,"trial":13,"RT":470,"MT":919,"sideResp":2,"stimulus":[],"xmouse":[801,801,803,803,803,803,803,803,803,803,803,803,803,803,803,803,803,803,803,804,805,813,818,868,910,974,1047,1047,1047,1047,1047,1047,1047,1292,1286,1286,1286,1286,1286,1286,1286,1286,1286,1276,1266,1251,1232,1203,1191,1183,1173,1172,1172,1172,1172,1172,1172,1172,1172,1172,1172,1172,1172,1172,1172,1172,1172,1172,1168,1142],"ymouse":[537,536,528,524,523,523,523,523,523,523,523,523,523,523,523,523,523,523,523,521,520,512,507,440,373,246,84,84,84,84,84,84,84,7,19,20,20,20,20,20,20,20,20,21,26,32,40,55,63,70,75,77,77,77,77,77,77,77,77,77,77,77,77,77,77,77,77,77,77,63],"timestamp_mouse":[11,30,48,68,88,109,130,149,168,189,209,228,248,268,290,309,330,349,369,388,409,430,449,470,488,509,529,548,569,588,609,630,649,669,689,709,729,748,768,788,809,829,848,870,888,910,928,949,968,988,1008,1029,1050,1069,1088,1110,1129,1148,1169,1190,1209,1229,1248,1269,1288,1309,1329,1349,1368,1389],"xSR":741.5,"ySR":501.8,"xT1":424.9,"yT1":0,"xT2":1058.1,"yT2":0,"toosoon":0,"cond_shown":"Congruent","ratio_trial":200,"L_num":6,"L_den":20,"R_num":11,"R_den":22,"correct_side":2,"subjID":"Juanita Alvarado Castro23","gender":"1","school":"4","age":"9"},{"start_time":1552073617431,"click_time":1552073618898,"finger_time":1552073618017,"fix_duration":250,"trial":14,"RT":586,"MT":881,"sideResp":1,"stimulus":[],"xmouse":[755,755,755,755,755,755,755,755,755,755,755,755,755,755,755,755,755,755,755,755,755,755,755,755,755,755,755,756,757,744,712,678,646,632,626,626,626,626,626,626,626,626,624,623,599,560,544,533,527,525,523,521,519,514,505,501,501,501,501,501,501,501,501,501,501,501,501,501,501,501,501,501,504,508],"ymouse":[545,545,545,545,545,545,545,545,545,545,545,545,545,545,545,545,545,545,545,545,545,545,545,545,545,545,545,538,530,450,387,328,275,249,240,240,240,240,240,240,240,240,239,236,219,196,185,177,171,168,167,165,165,162,153,150,150,150,150,150,149,149,149,149,149,149,149,149,149,149,143,124,100,65],"timestamp_mouse":[6,27,48,67,88,107,127,147,167,188,207,227,248,268,287,307,326,348,368,387,408,428,448,466,487,507,526,547,567,586,606,626,646,666,687,707,727,747,768,788,807,827,846,867,887,907,926,947,967,987,1007,1026,1047,1067,1087,1107,1127,1147,1168,1188,1207,1227,1247,1268,1287,1307,1328,1347,1367,1387,1407,1428,1447,1467],"xSR":741.5,"ySR":501.8,"xT1":424.9,"yT1":0,"xT2":1058.1,"yT2":0,"toosoon":0,"cond_shown":"Congruent","ratio_trial":200,"L_num":3,"L_den":12,"R_num":9,"R_den":20,"correct_side":2,"subjID":"Juanita Alvarado Castro23","gender":"1","school":"4","age":"9"},{"start_time":1552073624059,"click_time":1552073624537,"finger_time":1552073624398,"fix_duration":1438.3010516146421,"trial":15,"RT":339,"MT":139,"sideResp":2,"stimulus":[],"xmouse":[793,793,794,794,794,794,794,794,794,794,794,794,794,794,794,797,802,811,818,843,864,919,965,1014,1084],"ymouse":[505,505,505,505,505,505,505,505,505,505,505,505,505,505,505,505,502,493,486,464,439,352,272,182,60],"timestamp_mouse":[0,19,38,60,79,98,119,140,158,178,198,219,238,258,279,298,319,339,360,378,398,418,439,459,478],"xSR":741.5,"ySR":501.8,"xT1":424.9,"yT1":0,"xT2":1058.1,"yT2":0,"toosoon":0,"cond_shown":"Congruent","ratio_trial":200,"L_num":9,"L_den":30,"R_num":13,"R_den":26,"correct_side":2,"subjID":"Juanita Alvarado Castro23","gender":"1","school":"4","age":"9"},{"start_time":1552073630035,"click_time":1552073631458,"finger_time":1552073630718,"fix_duration":1336.274332181536,"trial":16,"RT":683,"MT":740,"sideResp":1,"stimulus":[],"xmouse":[769,769,769,769,769,769,769,769,769,769,769,769,769,768,768,766,766,766,766,766,766,766,766,766,766,766,766,766,770,777,784,792,796,801,808,823,823,823,811,794,772,747,735,726,722,708,705,694,679,650,632,611,605,600,596,585,584,584,583,579,579,579,579,579,579,579,579,579,579,579,509,507],"ymouse":[544,543,543,542,541,541,541,541,541,541,541,541,539,537,536,534,534,534,534,534,534,534,534,534,534,534,534,532,531,529,524,518,515,507,492,416,351,291,212,140,75,43,39,39,38,36,35,26,18,8,5,2,2,2,2,0,0,0,0,0,0,0,0,0,0,0,0,0,0,0,0,4],"timestamp_mouse":[3,26,42,64,83,103,122,142,164,183,202,223,242,264,282,303,323,342,364,384,402,423,444,463,482,504,523,544,563,583,603,623,642,663,683,703,722,742,763,783,803,822,842,863,884,903,923,943,963,983,1003,1024,1042,1063,1083,1104,1122,1142,1163,1184,1203,1223,1243,1264,1282,1303,1323,1343,1363,1383,1404,1423],"xSR":741.5,"ySR":501.8,"xT1":424.9,"yT1":0,"xT2":1058.1,"yT2":0,"toosoon":0,"cond_shown":"Incongruent","ratio_trial":300,"L_num":4,"L_den":5,"R_num":6,"R_den":12,"correct_side":1,"subjID":"Juanita Alvarado Castro23","gender":"1","school":"4","age":"9"},{"start_time":1552073639269,"click_time":1552073640698,"finger_time":1552073639997,"fix_duration":250,"trial":17,"RT":728,"MT":701,"sideResp":1,"stimulus":[],"xmouse":[766,766,766,766,766,766,766,766,766,766,769,772,776,777,777,777,777,777,777,777,777,779,779,779,781,781,781,782,782,782,782,782,782,783,788,818,848,878,907,921,932,934,935,936,938,940,940,926,901,867,764,707,648,605,594,594,594,594,594,594,594,594,594,594,594,594,594,594,594,594,494,462],"ymouse":[566,566,566,566,566,566,566,566,566,566,566,566,564,564,564,564,564,564,564,564,564,564,564,564,564,564,564,564,564,564,564,564,564,564,561,542,529,517,504,495,485,482,481,478,474,461,446,421,387,340,210,145,73,27,6,6,6,6,6,6,6,6,6,6,6,6,6,6,6,6,0,31],"timestamp_mouse":[14,28,48,68,89,110,128,149,170,189,208,229,249,269,288,309,330,350,368,389,408,428,450,470,489,509,530,548,570,590,608,628,649,669,689,709,728,749,769,788,808,829,849,869,889,908,928,950,969,990,1008,1029,1049,1070,1089,1109,1129,1150,1169,1190,1208,1228,1250,1270,1289,1310,1329,1349,1370,1390,1409,1429],"xSR":741.5,"ySR":501.8,"xT1":424.9,"yT1":0,"xT2":1058.1,"yT2":0,"toosoon":0,"cond_shown":"Incongruent","ratio_trial":200,"L_num":4,"L_den":30,"R_num":1,"R_den":3,"correct_side":2,"subjID":"Juanita Alvarado Castro23","gender":"1","school":"4","age":"9"},{"start_time":1552073643771,"click_time":1552073645378,"finger_time":1552073644777,"fix_duration":1173.1920904066658,"trial":18,"RT":1006,"MT":601,"sideResp":2,"stimulus":[],"xmouse":[810,810,810,810,810,810,810,810,810,810,810,810,810,810,810,810,810,810,810,810,810,810,810,810,810,810,810,810,810,810,810,810,810,810,810,810,810,810,810,810,810,810,810,810,810,810,812,812,815,817,836,851,874,902,935,973,1105,1160,1195,1225,1261,1269,1275,1278,1281,1284,1287,1287,1284,1284,1284,1284,1284,1284,1284,1284,1284,1284,1169,1166,1156],"ymouse":[543,543,543,543,543,543,543,543,543,543,543,543,543,543,543,543,543,543,543,543,543,543,543,543,543,543,543,543,543,543,543,543,543,543,541,540,537,537,536,536,536,536,536,533,532,524,519,516,511,507,485,471,448,428,404,381,308,280,256,230,195,180,167,155,142,127,62,29,6,6,6,6,6,6,6,6,6,6,8,13,26],"timestamp_mouse":[12,26,47,67,88,107,126,147,166,188,206,226,247,268,287,308,326,346,367,388,406,427,448,467,488,506,527,548,567,586,607,627,648,666,687,706,728,748,768,787,807,826,848,866,887,906,926,946,967,987,1006,1027,1047,1067,1086,1107,1127,1146,1167,1187,1207,1227,1247,1267,1287,1307,1327,1346,1368,1388,1407,1427,1446,1466,1486,1507,1527,1547,1568,1587,1607],"xSR":741.5,"ySR":501.8,"xT1":424.9,"yT1":0,"xT2":1058.1,"yT2":0,"toosoon":0,"cond_shown":"Incongruent","ratio_trial":200,"L_num":7,"L_den":15,"R_num":6,"R_den":9,"correct_side":2,"subjID":"Juanita Alvarado Castro23","gender":"1","school":"4","age":"9"},{"start_time":1552073647099,"click_time":1552073648699,"finger_time":1552073647597,"fix_duration":540.247425136538,"trial":19,"RT":498,"MT":1102,"sideResp":2,"stimulus":[],"xmouse":[785,785,785,785,785,785,785,785,785,785,785,785,785,785,785,785,785,785,785,790,795,801,808,816,829,834,840,848,861,886,901,925,950,1027,1074,1115,1165,1232,1275,1335,1359,1376,1376,1376,1376,1376,1376,1376,1376,1376,1376,1376,1273,1241,1225,1209,1206,1195,1189,1180,1174,1170,1168,1167,1167,1167,1167,1167,1167,1167,1167,1167,1167,1167,1167,1167,1167,1167,1167,1133],"ymouse":[557,557,557,557,557,557,557,557,557,557,557,557,557,557,557,557,557,557,557,546,537,529,519,510,495,491,486,479,466,440,423,401,380,318,282,251,212,161,123,57,28,5,5,5,5,5,5,5,5,5,5,5,0,18,29,40,43,50,53,57,59,60,61,61,61,61,61,61,61,61,61,61,62,62,62,62,62,62,63,61],"timestamp_mouse":[19,38,59,79,98,119,140,159,178,199,220,240,258,279,298,319,338,358,378,400,418,439,459,480,498,519,539,559,579,599,618,639,659,680,699,718,739,759,779,799,818,839,859,878,898,918,939,959,980,999,1018,1038,1059,1079,1098,1120,1139,1160,1179,1200,1219,1240,1260,1280,1299,1319,1338,1359,1378,1399,1419,1439,1459,1478,1499,1518,1540,1559,1579,1600],"xSR":741.5,"ySR":501.8,"xT1":424.9,"yT1":0,"xT2":1058.1,"yT2":0,"toosoon":0,"cond_shown":"Congruent","ratio_trial":100,"L_num":8,"L_den":16,"R_num":2,"R_den":5,"correct_side":1,"subjID":"Juanita Alvarado Castro23","gender":"1","school":"4","age":"9"},{"start_time":1552073651366,"click_time":1552073654378,"finger_time":1552073653138,"fix_duration":1068.7276365481189,"trial":20,"RT":1772,"MT":1240,"sideResp":1,"stimulus":[],"xmouse":[780,780,780,780,780,780,780,780,780,780,780,780,780,780,780,780,780,780,780,780,780,780,780,780,780,780,780,780,780,780,780,780,780,780,780,780,780,780,780,780,780,780,780,780,780,780,780,780,780,780,780,780,780,780,780,780,780,780,780,780,780,780,780,780,780,780,780,780,780,781,781,781,781,781,781,781,781,781,781,781,780,779,776,776,776,775,762,745,722,697,669,641,633,625,613,600,597,597,597,597,596,602,607,607,600,563,563,563,563,563,563,563,563,563,563,563,563,563,563,563,563,383,403,415,420,420,420,420,420,420,420,420,420,420,420,420,420,420,420,420,420,420,420,421,421,421,421,421,421,423,425],"ymouse":[562,562,562,562,562,562,562,562,562,562,562,562,562,562,562,562,562,561,561,560,559,558,557,557,557,557,557,557,557,557,557,557,557,557,557,557,557,557,557,557,557,557,557,557,557,557,557,557,557,557,557,557,557,557,557,557,557,557,557,556,555,546,540,536,536,535,533,532,532,530,530,530,530,530,530,530,530,530,530,530,530,530,530,530,530,530,530,521,505,484,458,425,419,417,417,414,414,414,414,414,412,397,351,283,178,54,54,54,54,54,54,54,54,54,54,54,54,54,54,54,54,14,68,87,96,96,96,96,96,96,96,96,96,96,96,96,96,96,96,96,96,96,96,97,97,97,97,97,97,97,97],"timestamp_mouse":[12,31,52,73,92,112,132,151,172,192,211,232,253,272,291,311,331,352,372,392,412,432,452,472,492,513,531,553,571,591,612,632,652,673,693,711,731,751,771,793,812,833,851,872,891,913,932,953,972,991,1012,1031,1052,1073,1092,1113,1133,1152,1172,1191,1212,1231,1252,1272,1291,1312,1331,1353,1373,1392,1411,1431,1452,1473,1492,1512,1531,1552,1572,1591,1612,1632,1652,1671,1692,1711,1732,1751,1772,1791,1811,1832,1852,1871,1893,1912,1933,1952,1972,1991,2011,2031,2052,2071,2092,2113,2132,2152,2172,2192,2213,2233,2253,2272,2291,2313,2332,2352,2373,2392,2412,2432,2452,2471,2491,2511,2531,2552,2573,2592,2612,2632,2652,2672,2692,2712,2732,2752,2773,2791,2811,2832,2852,2872,2891,2911,2932,2951,2972,2991,3012],"xSR":741.5,"ySR":501.8,"xT1":424.9,"yT1":0,"xT2":1058.1,"yT2":0,"toosoon":0,"cond_shown":"Incongruent","ratio_trial":100,"L_num":13,"L_den":26,"R_num":12,"R_den":20,"correct_side":2,"subjID":"Juanita Alvarado Castro23","gender":"1","school":"4","age":"9"},{"start_time":1552073655950,"click_time":1552073657918,"finger_time":1552073657419,"fix_duration":250,"trial":21,"RT":1469,"MT":499,"sideResp":1,"stimulus":[],"xmouse":[782,782,782,782,782,782,782,782,782,782,782,782,782,782,782,782,782,782,782,782,782,782,783,785,787,790,793,796,801,801,801,801,801,801,802,805,807,807,811,812,812,812,812,812,812,812,812,812,812,812,812,812,812,812,812,812,812,812,812,812,812,812,812,812,812,812,812,812,812,812,812,812,812,812,812,814,816,818,820,820,820,815,802,771,749,725,699,675,642,631,619,602,546,520,509,503,500,499,497],"ymouse":[552,552,552,552,552,552,552,552,552,552,552,552,552,552,552,552,551,551,551,551,551,551,550,545,541,536,530,525,518,518,516,516,516,516,515,513,511,510,506,505,505,505,505,505,505,505,505,505,505,505,505,505,505,505,505,505,505,505,505,505,505,505,505,505,505,505,505,505,505,505,505,505,504,490,481,471,465,458,447,444,436,425,393,340,309,286,263,248,230,225,220,212,177,156,144,131,122,114,95],"timestamp_mouse":[7,27,48,69,88,108,128,149,168,187,208,227,247,267,288,309,328,348,367,388,407,427,448,469,487,509,528,549,567,587,608,629,649,669,687,708,728,749,768,788,808,827,848,868,889,909,928,948,968,988,1007,1029,1049,1067,1087,1108,1129,1149,1167,1188,1208,1228,1249,1267,1289,1308,1327,1348,1368,1388,1407,1429,1448,1469,1487,1509,1528,1548,1568,1587,1607,1628,1648,1669,1687,1708,1728,1747,1767,1788,1808,1828,1848,1867,1887,1908,1928,1949,1968],"xSR":741.5,"ySR":501.8,"xT1":424.9,"yT1":0,"xT2":1058.1,"yT2":0,"toosoon":0,"cond_shown":"Incongruent","ratio_trial":200,"L_num":4,"L_den":30,"R_num":1,"R_den":3,"correct_side":2,"subjID":"Juanita Alvarado Castro23","gender":"1","school":"4","age":"9"},{"start_time":1552073659823,"click_time":1552073661198,"finger_time":1552073660678,"fix_duration":304.6845653198544,"trial":22,"RT":855,"MT":520,"sideResp":2,"stimulus":[],"xmouse":[833,833,833,833,833,833,833,833,833,833,833,833,833,833,833,833,833,833,833,833,833,834,834,834,834,834,834,834,834,835,836,836,837,837,838,838,838,838,838,838,839,840,842,844,854,864,873,881,893,903,915,919,920,922,922,926,931,937,944,963,971,983,991,1000,1010,1014,1023,1039,1067],"ymouse":[544,544,544,544,544,544,544,544,544,544,544,544,544,544,544,544,544,544,544,544,544,541,540,540,540,540,540,540,540,536,535,534,532,530,528,526,526,526,526,526,525,522,519,514,498,475,456,437,414,393,364,351,347,344,340,332,319,303,284,240,217,191,172,154,134,130,122,112,98],"timestamp_mouse":[15,35,55,76,96,114,136,156,176,194,215,235,255,275,296,314,335,354,375,396,414,435,455,476,494,515,535,554,574,596,614,635,654,676,694,715,736,754,775,795,814,835,855,874,895,915,934,955,975,995,1015,1035,1055,1074,1095,1114,1134,1155,1175,1194,1214,1235,1254,1274,1295,1315,1334,1355,1375],"xSR":741.5,"ySR":501.8,"xT1":424.9,"yT1":0,"xT2":1058.1,"yT2":0,"toosoon":0,"cond_shown":"Congruent","ratio_trial":100,"L_num":9,"L_den":15,"R_num":8,"R_den":16,"correct_side":1,"subjID":"Juanita Alvarado Castro23","gender":"1","school":"4","age":"9"},{"start_time":1552073663431,"click_time":1552073664478,"finger_time":1552073663938,"fix_duration":972.6243352704919,"trial":23,"RT":507,"MT":540,"sideResp":1,"stimulus":[],"xmouse":[789,789,789,789,789,789,789,789,789,789,789,789,789,789,789,789,789,789,789,789,789,789,789,788,776,740,712,688,669,638,623,607,594,581,567,553,548,545,542,535,530,524,517,508,497,482,482,482,482,482,482,482,482],"ymouse":[534,534,534,534,534,534,534,534,534,534,534,534,534,534,534,534,534,534,534,534,534,534,534,535,526,492,471,447,426,394,380,368,359,352,344,336,331,328,324,310,299,287,270,252,223,179,162,144,132,111,105,100,96],"timestamp_mouse":[6,27,47,66,86,108,127,147,167,188,207,228,246,267,287,306,327,347,366,387,407,427,448,468,486,507,527,547,567,588,607,627,647,667,687,707,726,748,767,788,806,828,847,866,886,907,926,947,967,988,1007,1028,1047],"xSR":741.5,"ySR":501.8,"xT1":424.9,"yT1":0,"xT2":1058.1,"yT2":0,"toosoon":0,"cond_shown":"Incongruent","ratio_trial":300,"L_num":4,"L_den":20,"R_num":2,"R_den":4,"correct_side":2,"subjID":"Juanita Alvarado Castro23","gender":"1","school":"4","age":"9"},{"start_time":1552073667411,"click_time":1552073670178,"finger_time":1552073667737,"fix_duration":1113.027543733267,"trial":24,"RT":326,"MT":2441,"sideResp":2,"stimulus":[],"xmouse":[757,757,757,757,757,757,757,757,757,757,757,757,755,751,748,747,742,741,738,733,725,711,709,708,705,705,699,695,693,689,682,656,646,638,635,634,633,633,633,633,631,627,618,599,594,594,604,609,610,610,611,625,635,648,655,660,663,666,673,678,687,699,702,704,704,705,706,709,716,719,720,724,724,724,725,729,733,733,733,733,741,750,760,761,761,761,761,767,778,791,807,835,836,836,836,836,836,836,836,836,836,836,836,836,836,836,836,836,836,836,836,836,836,836,842,847,912,946,967,976,979,981,982,982,982,982,982,982,987,989,991,992,998,1007,1014,1021,1043,1054,1065],"ymouse":[563,563,563,563,563,563,563,563,563,563,563,563,560,551,539,526,488,469,455,442,432,418,415,415,414,414,412,412,412,412,412,412,412,412,412,412,413,413,413,413,414,426,445,502,561,613,660,671,672,672,672,672,672,672,672,672,671,669,667,662,654,642,638,635,634,633,631,629,625,623,622,620,620,620,620,618,616,616,616,616,616,614,610,610,610,610,609,606,602,597,590,575,575,575,575,575,575,575,575,575,575,575,575,575,575,575,575,575,575,575,575,575,575,575,570,565,529,512,499,488,479,462,453,448,438,428,399,381,356,333,306,258,224,206,183,162,111,87,57],"timestamp_mouse":[8,27,47,67,86,106,126,148,167,186,206,226,247,266,288,307,326,347,367,387,407,426,447,467,487,507,527,546,568,587,606,626,647,667,687,706,726,747,768,786,807,826,847,866,888,907,926,946,968,986,1008,1026,1047,1066,1087,1106,1127,1146,1167,1187,1207,1226,1247,1267,1287,1306,1326,1346,1368,1388,1406,1426,1446,1467,1487,1507,1526,1546,1567,1587,1608,1626,1647,1667,1687,1708,1727,1747,1768,1787,1808,1826,1848,1867,1888,1908,1927,1948,1967,1987,2007,2027,2047,2067,2087,2108,2127,2147,2168,2187,2208,2227,2248,2267,2288,2307,2327,2347,2367,2387,2407,2427,2447,2467,2487,2507,2527,2547,2568,2588,2608,2627,2647,2667,2688,2707,2727,2747,2767],"xSR":741.5,"ySR":501.8,"xT1":424.9,"yT1":0,"xT2":1058.1,"yT2":0,"toosoon":0,"cond_shown":"Congruent","ratio_trial":300,"L_num":2,"L_den":10,"R_num":12,"R_den":24,"correct_side":2,"subjID":"Juanita Alvarado Castro23","gender":"1","school":"4","age":"9"},{"start_time":1552073672880,"click_time":1552073674039,"finger_time":1552073673738,"fix_duration":821.3874540357403,"trial":25,"RT":858,"MT":301,"sideResp":2,"stimulus":[],"xmouse":[795,799,799,799,799,799,799,799,799,799,799,799,799,799,799,799,799,799,799,799,799,799,799,799,799,799,799,799,799,799,799,799,800,801,801,801,801,804,808,816,825,834,847,870,884,903,944,977,986,988,989,989,993,1008,1019,1029,1048,1069],"ymouse":[563,563,563,563,563,563,563,563,563,563,563,563,563,563,563,563,563,563,563,563,563,563,563,563,563,563,563,563,563,563,563,563,563,562,562,560,559,556,553,547,541,532,518,475,441,388,282,194,177,173,172,172,172,161,146,127,84,49],"timestamp_mouse":[18,38,58,79,98,119,138,159,178,199,218,238,258,279,298,318,339,358,379,398,418,439,459,479,499,518,539,559,579,598,618,638,659,678,698,718,740,758,778,799,819,838,858,878,899,918,938,958,978,998,1018,1039,1059,1079,1098,1118,1139,1159],"xSR":741.5,"ySR":501.8,"xT1":424.9,"yT1":0,"xT2":1058.1,"yT2":0,"toosoon":0,"cond_shown":"Congruent","ratio_trial":200,"L_num":5,"L_den":10,"R_num":14,"R_den":20,"correct_side":2,"subjID":"Juanita Alvarado Castro23","gender":"1","school":"4","age":"9"},{"start_time":1552073739465,"click_time":1552073740398,"finger_time":1552073740018,"fix_duration":266.80972170410865,"trial":26,"RT":553,"MT":380,"sideResp":1,"stimulus":[],"xmouse":[798,798,798,798,798,798,798,798,798,798,798,798,798,798,798,798,798,798,798,798,798,798,798,798,798,793,753,652,598,565,548,527,518,513,508,499,478,444,417,408,408,408,408,422,441,452,476],"ymouse":[564,564,564,564,564,564,564,564,564,564,564,564,564,564,564,564,564,564,564,564,564,564,564,564,564,564,549,506,482,458,438,391,369,354,337,308,278,249,233,226,226,226,226,218,206,189,94],"timestamp_mouse":[13,33,54,72,94,113,134,154,174,193,214,234,253,274,293,313,334,353,374,394,414,434,452,473,492,513,533,553,573,593,613,632,653,674,693,713,733,753,773,793,813,834,853,873,893,913,933],"xSR":741.5,"ySR":501.8,"xT1":424.9,"yT1":0,"xT2":1058.1,"yT2":0,"toosoon":0,"cond_shown":"Congruent","ratio_trial":200,"L_num":12,"L_den":15,"R_num":6,"R_den":10,"correct_side":1,"subjID":"Juanita Alvarado Castro23","gender":"1","school":"4","age":"9"},{"start_time":1552073746075,"click_time":1552073748478,"finger_time":1552073747758,"fix_duration":556.5019242467256,"trial":27,"RT":1683,"MT":720,"sideResp":2,"stimulus":[],"xmouse":[772,772,772,772,772,772,772,772,772,772,772,772,772,772,772,772,772,772,772,772,772,772,772,772,772,772,772,772,772,772,772,772,772,772,772,772,772,772,772,772,772,772,772,772,772,772,772,772,772,772,772,772,772,772,772,772,772,772,772,772,772,772,772,772,772,772,772,772,772,772,772,772,772,772,772,772,772,772,772,772,772,772,773,777,792,803,819,855,866,879,889,897,909,916,919,924,926,931,933,935,938,948,962,998,1006,1012,1016,1026,1031,1035,1038,1039,1039,1039,1039,1039,1039,1039,1043,1048,1060],"ymouse":[543,543,543,543,543,543,543,543,543,543,543,543,543,543,543,543,543,543,543,543,543,543,543,543,543,543,543,543,543,543,543,543,543,543,543,543,543,543,543,543,543,543,543,543,543,543,543,543,543,543,543,543,543,543,543,543,543,543,543,543,543,543,543,543,543,543,543,543,543,543,543,543,543,543,543,543,543,543,543,543,543,543,535,526,492,451,399,294,258,231,207,190,163,150,143,136,132,125,123,121,119,115,108,86,75,63,51,29,24,18,14,13,12,12,12,12,12,12,12,12,15],"timestamp_mouse":[6,23,43,63,83,103,124,143,163,183,203,222,244,263,283,302,322,344,363,383,403,422,443,463,484,503,522,543,563,583,603,623,643,663,682,703,723,743,763,784,802,822,844,863,883,902,923,943,963,983,1003,1023,1042,1063,1083,1102,1123,1143,1163,1184,1203,1222,1244,1263,1283,1303,1323,1343,1363,1383,1404,1423,1442,1463,1484,1503,1522,1543,1563,1583,1603,1622,1643,1663,1683,1703,1723,1743,1763,1783,1803,1823,1843,1863,1883,1903,1922,1943,1963,1983,2003,2023,2043,2063,2083,2103,2122,2143,2163,2183,2203,2223,2243,2263,2284,2303,2324,2343,2363,2382,2403],"xSR":741.5,"ySR":501.8,"xT1":424.9,"yT1":0,"xT2":1058.1,"yT2":0,"toosoon":0,"cond_shown":"Incongruent","ratio_trial":100,"L_num":6,"L_den":10,"R_num":7,"R_den":14,"correct_side":1,"subjID":"Juanita Alvarado Castro23","gender":"1","school":"4","age":"9"},{"start_time":1552073750342,"click_time":1552073752198,"finger_time":1552073751899,"fix_duration":444.92450878116887,"trial":28,"RT":1557,"MT":299,"sideResp":1,"stimulus":[],"xmouse":[816,816,816,816,816,816,816,816,816,816,816,816,816,816,816,816,816,816,816,816,816,816,816,816,816,816,816,816,816,816,816,816,816,816,816,816,816,816,816,816,816,816,816,816,816,816,816,816,816,816,816,816,816,816,816,816,816,816,816,816,816,816,816,816,816,816,816,816,816,816,816,816,816,807,789,762,742,721,712,702,693,679,659,626,609,597,587,575,560,552,543,531,519],"ymouse":[537,537,537,537,537,537,537,537,537,537,537,537,537,537,537,537,537,537,537,537,537,537,537,537,537,537,537,537,537,537,537,537,537,537,537,537,537,537,537,537,537,537,537,537,537,537,537,537,537,537,537,537,537,537,537,537,537,537,537,537,537,537,537,537,537,537,537,537,537,537,537,537,537,537,537,532,526,516,508,485,465,441,404,340,302,266,235,190,141,115,94,74,53],"timestamp_mouse":[17,36,55,77,96,116,135,156,176,195,216,236,257,276,296,315,337,357,375,396,417,437,457,475,497,516,535,557,577,596,616,637,657,677,697,717,737,756,776,797,817,837,857,876,897,917,936,957,975,996,1016,1036,1056,1077,1096,1115,1135,1156,1177,1195,1216,1237,1256,1276,1296,1316,1336,1356,1376,1396,1417,1436,1457,1477,1496,1516,1536,1557,1576,1597,1616,1637,1656,1676,1696,1716,1736,1756,1777,1795,1815,1836,1856],"xSR":741.5,"ySR":501.8,"xT1":424.9,"yT1":0,"xT2":1058.1,"yT2":0,"toosoon":0,"cond_shown":"Incongruent","ratio_trial":100,"L_num":8,"L_den":16,"R_num":6,"R_den":10,"correct_side":2,"subjID":"Juanita Alvarado Castro23","gender":"1","school":"4","age":"9"},{"start_time":1552073754674,"click_time":1552073756738,"finger_time":1552073756179,"fix_duration":1014.3627617749593,"trial":29,"RT":1505,"MT":559,"sideResp":1,"stimulus":[],"xmouse":[779,779,779,779,779,779,779,779,779,779,779,779,779,779,779,779,779,779,779,779,779,779,779,779,779,779,779,779,779,779,779,779,779,779,779,779,779,779,779,779,779,779,779,779,779,779,779,779,779,779,779,779,779,779,779,779,779,779,779,779,779,779,779,779,779,779,779,779,779,779,779,779,779,755,744,741,739,739,739,739,738,735,728,693,658,627,601,586,576,575,572,569,566,546,539,537,537,537,537,533,527,517,507,490],"ymouse":[570,570,570,570,570,570,570,570,570,570,570,570,570,570,570,570,570,570,570,570,570,570,570,570,570,570,570,570,570,570,570,570,570,570,570,570,570,570,570,570,570,570,570,570,570,570,570,570,570,570,570,570,570,570,570,570,570,570,570,570,570,570,570,570,570,570,570,570,570,570,570,570,569,555,549,544,539,538,535,532,529,520,504,447,405,361,320,290,252,237,231,228,225,214,209,207,207,207,207,197,188,167,143,90],"timestamp_mouse":[5,24,45,65,83,104,125,144,164,184,204,223,245,264,284,304,323,344,364,384,403,423,444,464,485,505,523,544,564,584,604,624,645,665,684,704,724,744,764,784,804,824,843,865,884,904,925,944,964,983,1004,1024,1045,1065,1084,1104,1124,1143,1164,1184,1204,1225,1243,1265,1283,1305,1324,1344,1364,1384,1404,1424,1444,1464,1483,1505,1525,1544,1564,1584,1604,1623,1644,1664,1684,1704,1724,1743,1764,1784,1804,1824,1844,1864,1884,1904,1925,1944,1964,1983,2004,2024,2043,2064],"xSR":741.5,"ySR":501.8,"xT1":424.9,"yT1":0,"xT2":1058.1,"yT2":0,"toosoon":0,"cond_shown":"Incongruent","ratio_trial":100,"L_num":3,"L_den":9,"R_num":7,"R_den":30,"correct_side":1,"subjID":"Juanita Alvarado Castro23","gender":"1","school":"4","age":"9"},{"start_time":1552073759596,"click_time":1552073761739,"finger_time":1552073761057,"fix_duration":1216.7791416960517,"trial":30,"RT":1461,"MT":682,"sideResp":1,"stimulus":[],"xmouse":[797,796,791,791,791,791,791,791,791,791,791,791,791,791,791,791,791,791,791,791,791,791,791,791,791,791,791,791,791,791,791,791,791,791,790,789,789,789,789,789,789,789,789,789,789,789,789,789,789,789,789,789,789,789,789,789,789,789,789,789,789,789,789,789,789,789,789,789,785,784,780,775,771,746,728,712,694,660,635,609,579,540,500,481,464,448,436,416,406,399,397,397,396,396,396,396,396,396,396,396,398,399,406,416,420,423,424,425],"ymouse":[567,567,567,567,567,567,567,567,567,567,567,567,567,567,567,567,567,567,567,567,567,567,567,567,567,567,567,567,567,567,567,567,567,567,567,567,567,567,567,567,567,567,567,567,567,567,567,567,567,567,567,567,567,567,567,567,567,567,567,567,567,567,567,567,567,567,567,567,561,556,550,537,530,496,475,454,428,370,336,306,277,238,197,175,155,132,107,61,39,22,11,10,9,9,9,9,9,9,9,9,9,9,12,19,21,24,25,28],"timestamp_mouse":[2,22,42,62,81,103,122,142,162,183,201,222,242,262,283,303,323,343,362,381,403,422,442,463,482,502,523,542,562,581,603,623,642,662,681,702,723,742,762,781,803,823,841,862,882,903,922,941,963,982,1002,1022,1041,1062,1083,1102,1122,1142,1162,1182,1203,1221,1242,1263,1283,1303,1323,1341,1362,1383,1402,1421,1441,1461,1481,1502,1522,1543,1563,1582,1602,1622,1643,1661,1682,1702,1722,1743,1762,1782,1801,1822,1843,1862,1882,1902,1921,1943,1963,1982,2002,2023,2042,2062,2082,2103,2122,2143],"xSR":741.5,"ySR":501.8,"xT1":424.9,"yT1":0,"xT2":1058.1,"yT2":0,"toosoon":0,"cond_shown":"Congruent","ratio_trial":200,"L_num":4,"L_den":10,"R_num":3,"R_den":15,"correct_side":1,"subjID":"Juanita Alvarado Castro23","gender":"1","school":"4","age":"9"},{"start_time":1552073764255,"click_time":1552073766099,"finger_time":1552073765598,"fix_duration":1195.9699420274646,"trial":31,"RT":1343,"MT":501,"sideResp":2,"stimulus":[],"xmouse":[745,745,745,745,745,745,745,745,745,745,745,745,745,745,745,745,745,745,745,745,745,745,745,745,745,745,745,745,745,745,745,745,745,745,745,745,745,745,745,745,745,745,745,745,745,745,745,745,745,745,749,753,755,760,760,762,762,762,762,762,762,762,762,762,762,762,765,770,777,787,817,830,838,852,860,868,880,884,886,889,895,898,901,906,913,949,966,979,994,1006,1033,1043,1060],"ymouse":[563,563,562,559,558,557,557,557,557,557,557,557,556,556,556,556,556,556,556,556,556,556,556,556,556,556,556,556,556,556,556,556,556,556,556,556,556,556,556,556,556,556,556,556,556,556,556,556,556,552,542,533,527,520,517,516,516,516,516,516,516,515,515,515,515,515,509,499,482,458,393,350,322,291,268,251,218,209,200,193,183,178,175,170,164,145,138,126,117,104,71,50,22],"timestamp_mouse":[5,22,42,63,84,104,123,143,163,182,203,223,243,264,283,303,323,342,362,384,404,423,444,463,482,503,523,544,564,584,604,622,643,664,683,704,723,744,762,784,804,824,844,864,883,903,924,944,963,983,1002,1023,1044,1063,1083,1102,1123,1144,1164,1182,1204,1223,1243,1262,1284,1304,1324,1343,1362,1383,1403,1422,1444,1463,1483,1503,1524,1543,1564,1583,1603,1622,1642,1663,1683,1703,1722,1742,1764,1783,1802,1823,1844],"xSR":741.5,"ySR":501.8,"xT1":424.9,"yT1":0,"xT2":1058.1,"yT2":0,"toosoon":0,"cond_shown":"Congruent","ratio_trial":100,"L_num":7,"L_den":14,"R_num":15,"R_den":25,"correct_side":2,"subjID":"Juanita Alvarado Castro23","gender":"1","school":"4","age":"9"},{"start_time":1552073770845,"click_time":1552073772498,"finger_time":1552073772178,"fix_duration":367.3384095956762,"trial":32,"RT":1333,"MT":320,"sideResp":2,"stimulus":[],"xmouse":[777,777,777,777,777,777,777,777,777,777,777,777,777,777,777,777,777,777,777,777,777,777,777,777,777,777,777,777,777,777,777,777,777,777,777,777,777,777,777,777,777,777,777,777,777,777,777,777,777,777,777,777,777,777,777,777,777,777,777,777,777,777,777,783,799,813,844,860,876,889,905,928,940,958,971,981,997,1004,1012,1021,1030,1052,1069],"ymouse":[559,559,559,559,559,559,559,559,559,559,559,559,559,559,559,559,559,559,559,559,559,559,559,559,559,559,559,559,559,559,559,559,559,559,559,559,559,559,559,559,559,559,559,559,559,559,559,559,559,559,559,559,559,559,559,559,559,559,559,559,559,559,559,552,538,524,482,460,440,420,399,364,344,316,295,278,244,227,210,192,170,128,95],"timestamp_mouse":[13,34,52,74,94,114,134,154,173,192,213,234,254,273,293,314,333,352,374,394,414,434,453,473,492,513,534,553,574,593,614,633,652,674,693,714,734,752,772,792,814,834,854,874,894,913,933,953,974,994,1012,1033,1054,1073,1093,1114,1132,1152,1173,1193,1213,1234,1253,1273,1293,1312,1333,1352,1374,1393,1413,1432,1454,1473,1493,1513,1533,1552,1573,1594,1613,1632,1653],"xSR":741.5,"ySR":501.8,"xT1":424.9,"yT1":0,"xT2":1058.1,"yT2":0,"toosoon":0,"cond_shown":"Incongruent","ratio_trial":100,"L_num":2,"L_den":4,"R_num":8,"R_den":20,"correct_side":1,"subjID":"Juanita Alvarado Castro23","gender":"1","school":"4","age":"9"},{"start_time":1552073774883,"click_time":1552073777118,"finger_time":1552073776798,"fix_duration":1064.832038964983,"trial":33,"RT":1915,"MT":320,"sideResp":2,"stimulus":[],"xmouse":[787,787,787,789,789,789,789,789,789,789,789,789,789,789,789,789,789,789,789,789,789,789,789,789,789,789,789,789,789,789,789,789,789,789,789,789,789,789,789,789,789,789,789,789,789,789,789,789,789,789,789,789,789,789,789,789,789,789,789,789,789,789,789,789,789,789,789,789,789,789,789,789,789,789,789,789,789,789,789,789,789,789,789,789,789,789,789,789,789,789,790,796,805,814,827,850,861,872,881,899,904,912,922,935,956,970,983,999,1010,1029,1055,1070],"ymouse":[562,562,562,562,562,562,562,562,562,562,562,562,562,562,562,562,562,562,562,562,562,562,562,562,562,562,562,562,562,562,562,562,562,562,562,562,562,562,562,562,562,562,562,562,562,562,562,562,562,562,562,562,562,562,562,562,562,562,562,562,562,562,562,562,562,562,562,562,562,562,562,562,562,562,562,562,562,562,562,562,562,562,562,562,562,562,562,562,562,562,562,564,564,562,550,514,493,476,460,436,432,422,408,388,341,312,285,254,228,183,120,87],"timestamp_mouse":[15,36,54,75,94,116,136,156,176,195,216,236,255,274,294,315,335,355,375,395,415,435,456,475,494,515,536,556,575,594,616,635,656,676,695,715,734,756,776,796,815,835,855,874,896,916,934,956,975,996,1016,1035,1056,1075,1095,1116,1135,1155,1174,1195,1215,1236,1255,1275,1296,1314,1336,1356,1376,1396,1414,1436,1456,1476,1496,1515,1536,1556,1574,1595,1616,1635,1654,1676,1695,1716,1735,1755,1776,1794,1815,1835,1856,1875,1894,1915,1934,1954,1975,1996,2014,2035,2055,2075,2095,2116,2134,2155,2176,2195,2215,2235],"xSR":741.5,"ySR":501.8,"xT1":424.9,"yT1":0,"xT2":1058.1,"yT2":0,"toosoon":0,"cond_shown":"Congruent","ratio_trial":200,"L_num":6,"L_den":12,"R_num":7,"R_den":10,"correct_side":2,"subjID":"Juanita Alvarado Castro23","gender":"1","school":"4","age":"9"},{"start_time":1552073780884,"click_time":1552073795498,"finger_time":1552073794619,"fix_duration":1066.7921187180664,"trial":34,"RT":13735,"MT":879,"sideResp":2,"stimulus":[],"xmouse":[771,771,771,771,771,771,771,771,771,771,771,771,771,771,771,771,771,771,771,771,771,771,771,771,771,771,771,771,771,771,771,771,771,771,771,771,771,771,771,771,771,771,771,771,771,771,771,771,771,771,771,771,771,771,771,771,771,771,771,771,771,771,771,771,771,771,771,771,771,771,771,771,771,771,771,771,771,771,771,771,771,771,771,771,771,771,771,771,771,771,771,771,771,771,771,771,771,771,771,771,771,771,771,771,771,771,771,771,771,771,771,771,771,771,771,771,771,771,771,771,771,771,771,771,771,771,771,771,771,771,771,771,771,771,771,771,771,771,771,771,771,771,771,771,771,771,771,771,771,771,771,771,771,771,771,771,771,771,771,771,771,771,771,771,771,771,771,771,771,771,771,771,771,771,771,771,771,771,771,771,771,771,771,771,771,771,771,771,771,771,771,771,771,771,771,771,771,771,771,771,771,771,771,771,771,771,771,771,771,771,771,771,771,771,771,771,771,771,771,771,771,771,771,771,771,771,771,771,771,771,771,771,771,771,771,771,771,771,771,771,771,771,771,771,771,771,771,771,771,771,771,771,771,771,771,771,771,771,771,771,771,771,771,771,771,771,771,771,771,771,771,771,771,771,771,771,771,771,771,771,771,771,771,771,771,771,771,771,771,771,771,771,771,771,771,771,771,771,771,771,771,771,771,771,771,771,771,771,771,771,771,771,771,771,771,771,771,771,771,771,771,771,771,771,771,771,771,771,771,771,771,771,771,771,771,771,771,771,771,771,771,771,771,771,771,771,771,771,771,771,771,771,771,771,771,771,771,771,771,771,771,771,771,771,771,771,771,771,771,771,771,771,771,771,771,771,771,771,771,771,771,771,771,771,771,771,771,771,771,771,771,771,771,771,771,771,771,771,771,771,771,771,771,771,771,771,771,771,771,771,771,771,771,771,771,771,771,771,771,771,771,771,771,771,771,771,771,771,771,771,771,771,771,771,771,771,771,771,771,771,771,771,771,771,771,771,771,771,771,771,771,771,771,771,771,771,771,771,771,771,771,771,771,771,771,771,771,771,771,771,771,771,771,771,771,771,771,771,771,771,771,771,771,771,771,771,771,771,771,771,771,771,771,771,771,771,771,771,771,771,771,771,771,771,771,771,771,771,771,771,771,771,771,771,771,771,771,771,771,771,771,771,771,771,771,771,771,771,771,771,771,771,771,771,771,771,771,771,771,771,771,771,771,771,771,771,771,771,771,771,771,771,771,771,771,771,771,771,771,771,771,771,771,771,771,771,771,771,771,771,771,771,771,771,771,771,771,771,771,771,771,771,771,771,771,771,771,771,771,771,771,771,771,771,771,771,771,771,771,771,771,771,771,771,771,771,771,771,771,771,771,771,771,771,771,771,771,771,771,771,771,771,771,771,771,771,771,771,771,771,771,771,771,771,771,771,771,771,771,771,771,771,771,771,771,771,771,771,771,771,771,771,771,771,771,771,771,771,771,771,771,771,771,771,771,771,771,771,771,771,771,771,771,771,771,771,771,771,771,771,771,771,771,771,763,755,729,722,720,719,719,744,756,763,765,765,765,765,765,766,768,768,768,768,768,768,771,774,778,780,780,780,780,779,779,779,783,804,815,830,847,885,944,961,979,992,1006,1045,1074,1095,1120],"ymouse":[543,543,543,543,543,543,543,543,543,543,543,543,543,543,543,543,543,543,543,543,543,543,543,543,543,543,543,543,543,543,543,543,543,543,543,543,543,543,543,543,543,543,543,543,543,543,543,543,543,543,543,543,543,543,543,543,543,543,543,543,543,543,543,543,543,543,543,543,543,543,543,543,543,543,543,543,543,543,543,543,543,543,543,543,543,543,543,543,543,543,543,543,543,543,543,543,543,543,543,543,543,543,543,543,543,543,543,543,543,543,543,543,543,543,543,543,543,543,543,543,543,543,543,543,543,543,543,543,543,543,543,543,543,543,543,543,543,543,543,543,543,543,543,543,543,543,543,543,543,543,543,543,543,543,543,543,543,543,543,543,543,543,543,543,543,543,543,543,543,543,543,543,543,543,543,543,543,543,543,543,543,543,543,543,543,543,543,543,543,543,543,543,543,543,543,543,543,543,543,543,543,543,543,543,543,543,543,543,543,543,543,543,543,543,543,543,543,543,543,543,543,543,543,543,543,543,543,543,543,543,543,543,543,543,543,543,543,543,543,543,543,543,543,543,543,543,543,543,543,543,543,543,543,543,543,543,543,543,543,543,543,543,543,543,543,543,543,543,543,543,543,543,543,543,543,543,543,543,543,543,543,543,543,543,543,543,543,543,543,543,543,543,543,543,543,543,543,543,543,543,543,543,543,543,543,543,543,543,543,543,543,543,543,543,543,543,543,543,543,543,543,543,543,543,543,543,543,543,543,543,543,543,543,543,543,543,543,543,543,543,543,543,543,543,543,543,543,543,543,543,543,543,543,543,543,543,543,543,543,543,543,543,543,543,543,543,543,543,543,543,543,543,543,543,543,543,543,543,543,543,543,543,543,543,543,543,543,543,543,543,543,543,543,543,543,543,543,543,543,543,543,543,543,543,543,543,543,543,543,543,543,543,543,543,543,543,543,543,543,543,543,543,543,543,543,543,543,543,543,543,543,543,543,543,543,543,543,543,543,543,543,543,543,543,543,543,543,543,543,543,543,543,543,543,543,543,543,543,543,543,543,543,543,543,543,543,543,543,543,543,543,543,543,543,543,543,543,543,543,543,543,543,543,543,543,543,543,543,543,543,543,543,543,543,543,543,543,543,543,543,543,543,543,543,543,543,543,543,543,543,543,543,543,543,543,543,543,543,543,543,543,543,543,543,543,543,543,543,543,543,543,543,543,543,543,543,543,543,543,543,543,543,543,543,543,543,543,543,543,543,543,543,543,543,543,543,543,543,543,543,543,543,543,543,543,543,543,543,543,543,543,543,543,543,543,543,543,543,543,543,543,543,543,543,543,543,543,543,543,543,543,543,543,543,543,543,543,543,543,543,543,543,543,543,543,543,543,543,543,543,543,543,543,543,543,543,543,543,543,543,543,543,543,543,543,543,543,543,543,543,543,543,543,543,543,543,543,543,543,543,543,543,543,543,543,543,543,543,543,543,543,543,543,543,543,543,543,543,543,543,543,543,543,543,543,543,543,543,543,543,543,543,543,543,543,543,543,543,543,543,543,543,543,543,549,568,649,666,669,672,673,704,719,724,725,725,725,725,725,725,722,715,712,708,703,701,686,676,659,644,616,599,576,569,565,563,554,516,490,459,430,376,320,297,272,255,234,185,148,124,90],"timestamp_mouse":[18,35,53,74,94,115,135,154,175,194,214,235,254,273,295,315,334,355,375,394,415,435,455,474,494,514,535,554,574,595,615,634,655,673,695,714,734,754,775,793,815,834,854,875,895,914,933,954,975,994,1014,1035,1054,1074,1093,1115,1134,1155,1175,1194,1215,1235,1254,1275,1293,1314,1335,1354,1375,1393,1413,1435,1455,1474,1494,1513,1535,1553,1573,1595,1615,1635,1654,1675,1694,1715,1735,1754,1775,1793,1814,1834,1855,1874,1894,1914,1935,1954,1974,1993,2014,2034,2054,2075,2093,2115,2135,2154,2173,2194,2213,2235,2254,2274,2295,2313,2335,2355,2374,2395,2414,2434,2453,2474,2494,2514,2534,2554,2574,2594,2614,2635,2654,2674,2695,2715,2735,2755,2775,2793,2813,2835,2854,2874,2895,2914,2934,2955,2975,2994,3014,3034,3053,3075,3094,3115,3135,3153,3175,3194,3215,3235,3254,3275,3293,3315,3334,3354,3375,3394,3413,3434,3454,3474,3494,3514,3535,3554,3575,3595,3614,3633,3654,3675,3695,3715,3734,3754,3774,3794,3815,3835,3855,3874,3894,3913,3934,3955,3974,3994,4015,4035,4054,4075,4095,4113,4135,4155,4175,4194,4213,4235,4254,4275,4293,4314,4335,4354,4374,4395,4415,4435,4454,4475,4495,4514,4535,4555,4575,4594,4614,4634,4654,4675,4695,4715,4734,4753,4774,4794,4814,4835,4854,4874,4893,4913,4935,4954,4975,4995,5014,5035,5054,5073,5095,5115,5134,5155,5175,5193,5214,5235,5254,5274,5293,5313,5335,5353,5374,5394,5415,5434,5453,5475,5494,5515,5535,5555,5575,5593,5615,5635,5655,5675,5694,5713,5734,5755,5774,5795,5815,5833,5855,5875,5895,5915,5933,5955,5974,5995,6014,6033,6055,6075,6094,6115,6133,6155,6174,6194,6214,6234,6253,6275,6295,6314,6333,6355,6374,6394,6414,6433,6454,6474,6495,6515,6534,6554,6574,6595,6615,6634,6654,6673,6694,6715,6734,6754,6773,6794,6814,6835,6853,6874,6895,6914,6935,6955,6974,6993,7013,7035,7055,7074,7094,7115,7134,7154,7174,7194,7214,7233,7254,7275,7293,7314,7335,7354,7373,7394,7414,7434,7454,7474,7494,7515,7533,7555,7574,7594,7613,7634,7655,7674,7694,7715,7735,7754,7775,7794,7813,7835,7853,7874,7894,7914,7934,7955,7974,7994,8014,8035,8054,8074,8094,8114,8134,8154,8175,8194,8213,8233,8254,8274,8294,8313,8333,8354,8374,8395,8413,8435,8454,8474,8493,8514,8535,8555,8573,8594,8614,8633,8653,8674,8694,8714,8735,8753,8774,8794,8814,8835,8854,8874,8893,8914,8935,8954,8975,8995,9014,9035,9053,9074,9095,9115,9134,9154,9175,9194,9214,9233,9254,9275,9293,9313,9334,9354,9374,9394,9414,9433,9455,9475,9494,9515,9534,9555,9573,9594,9615,9634,9654,9673,9694,9715,9735,9754,9775,9794,9814,9835,9853,9874,9894,9914,9933,9954,9973,9995,10013,10034,10055,10074,10094,10115,10134,10153,10173,10194,10215,10235,10254,10273,10295,10314,10335,10355,10374,10395,10414,10434,10455,10475,10495,10513,10535,10555,10574,10594,10615,10633,10654,10675,10694,10714,10734,10754,10773,10795,10815,10835,10855,10875,10893,10913,10935,10955,10975,10993,11014,11035,11055,11074,11094,11115,11134,11155,11175,11194,11215,11235,11253,11274,11295,11314,11335,11353,11373,11394,11414,11434,11454,11475,11494,11514,11535,11555,11574,11593,11615,11634,11654,11673,11694,11714,11735,11754,11774,11794,11813,11833,11854,11874,11895,11915,11934,11955,11975,11994,12015,12034,12055,12075,12093,12115,12135,12155,12173,12194,12215,12235,12254,12275,12294,12314,12334,12355,12374,12395,12414,12435,12454,12474,12494,12515,12535,12555,12575,12593,12614,12635,12655,12675,12694,12715,12735,12754,12775,12794,12813,12835,12854,12874,12895,12913,12934,12955,12974,12994,13015,13034,13054,13074,13094,13115,13134,13154,13175,13194,13215,13234,13254,13274,13294,13314,13333,13354,13374,13394,13414,13433,13455,13475,13495,13515,13534,13555,13574,13594,13613,13634,13655,13673,13694,13713,13735,13753,13774,13794,13814,13834,13854,13873,13895,13914,13935,13955,13975,13995,14015,14034,14053,14074,14094,14114,14135,14153,14174,14194,14214,14234,14254,14273,14293,14314,14333,14354,14374,14393,14414,14433,14454,14474,14493,14513,14533,14553,14575,14594,14614],"xSR":741.5,"ySR":501.8,"xT1":424.9,"yT1":0,"xT2":1058.1,"yT2":0,"toosoon":0,"cond_shown":"Congruent","ratio_trial":300,"L_num":20,"L_den":25,"R_num":13,"R_den":26,"correct_side":1,"subjID":"Juanita Alvarado Castro23","gender":"1","school":"4","age":"9"},{"start_time":1552073797169,"click_time":1552073799077,"finger_time":1552073798619,"fix_duration":250,"trial":35,"RT":1450,"MT":458,"sideResp":2,"stimulus":[],"xmouse":[758,758,758,758,758,758,758,758,758,758,758,758,758,758,758,758,758,758,758,758,758,758,758,758,758,758,758,758,758,758,758,758,758,758,758,758,758,758,758,758,758,758,758,758,758,758,758,758,758,758,758,758,758,758,758,758,758,758,758,758,758,758,758,758,758,758,758,758,758,765,770,785,806,857,882,906,919,935,946,966,973,980,983,988,989,989,989,989,989,989,989,1010,1010,1027,1057,1071],"ymouse":[542,542,542,542,542,542,542,542,542,542,542,542,542,542,542,542,542,542,542,542,542,542,542,542,542,542,542,542,542,542,542,542,542,542,542,542,542,542,542,542,542,542,542,542,542,542,542,542,542,542,542,542,542,542,542,542,542,542,542,542,542,542,542,542,542,542,542,542,542,537,527,506,468,369,322,266,232,192,160,86,58,35,17,2,0,0,0,0,0,0,0,1,1,8,24,33],"timestamp_mouse":[9,29,50,70,89,108,130,149,169,189,209,230,249,268,289,310,329,349,370,390,410,428,450,469,490,510,528,549,570,590,609,629,650,669,689,708,730,749,770,790,810,829,849,870,889,908,928,949,969,990,1009,1029,1049,1069,1090,1109,1129,1150,1169,1190,1209,1230,1249,1268,1290,1309,1329,1350,1369,1389,1410,1429,1450,1468,1488,1509,1530,1551,1568,1589,1609,1628,1649,1668,1689,1709,1729,1750,1769,1790,1810,1828,1848,1868,1888,1908],"xSR":741.5,"ySR":501.8,"xT1":424.9,"yT1":0,"xT2":1058.1,"yT2":0,"toosoon":0,"cond_shown":"Congruent","ratio_trial":300,"L_num":1,"L_den":5,"R_num":3,"R_den":6,"correct_side":2,"subjID":"Juanita Alvarado Castro23","gender":"1","school":"4","age":"9"},{"start_time":1552073801462,"click_time":1552073803539,"finger_time":1552073802857,"fix_duration":1164.698731215946,"trial":36,"RT":1395,"MT":682,"sideResp":1,"stimulus":[],"xmouse":[785,785,785,785,785,785,785,785,785,785,785,785,785,785,785,785,785,785,785,785,785,785,785,785,785,785,785,785,785,785,785,785,785,785,785,785,785,785,785,785,785,785,785,785,785,785,785,785,785,785,785,785,785,785,785,785,785,785,785,785,785,785,785,785,785,785,785,784,779,692,626,546,466,393,383,377,372,368,366,365,365,365,365,365,364,364,364,366,367,367,369,372,373,378,381,386,389,394,399,399,399,399,407,431],"ymouse":[555,555,555,555,555,555,555,555,555,555,555,555,555,555,555,555,555,555,555,555,555,555,555,555,555,555,555,555,555,555,555,555,555,555,555,555,555,555,555,555,555,555,555,555,555,555,555,555,555,555,555,555,555,555,555,555,555,555,555,555,555,555,555,555,555,555,555,555,555,527,487,442,396,312,274,251,234,221,219,217,217,217,217,217,214,207,199,188,154,142,130,119,111,93,82,66,51,37,25,25,25,25,23,16],"timestamp_mouse":[17,37,56,75,96,116,135,155,175,195,215,235,256,276,295,316,336,355,375,395,416,436,457,475,495,515,537,555,576,596,616,637,656,675,696,717,736,755,776,795,817,836,855,876,895,917,936,956,977,996,1015,1035,1056,1076,1096,1116,1135,1156,1177,1197,1216,1235,1256,1276,1297,1317,1335,1356,1375,1395,1416,1436,1456,1476,1495,1517,1536,1556,1575,1596,1617,1636,1657,1677,1695,1715,1736,1757,1776,1795,1815,1836,1855,1877,1895,1916,1936,1956,1976,1996,2015,2035,2055,2077],"xSR":741.5,"ySR":501.8,"xT1":424.9,"yT1":0,"xT2":1058.1,"yT2":0,"toosoon":0,"cond_shown":"Incongruent","ratio_trial":100,"L_num":12,"L_den":24,"R_num":9,"R_den":15,"correct_side":2,"subjID":"Juanita Alvarado Castro23","gender":"1","school":"4","age":"9"},{"start_time":1552073805289,"click_time":1552073807258,"finger_time":1552073806977,"fix_duration":250,"trial":37,"RT":1688,"MT":281,"sideResp":2,"stimulus":[],"xmouse":[778,778,778,780,782,784,784,786,786,786,787,787,787,787,787,787,787,787,787,787,787,787,787,787,787,787,787,787,787,787,787,787,787,787,787,787,787,787,787,787,787,787,787,787,787,787,787,787,787,787,787,787,787,787,787,787,787,787,787,787,787,787,787,787,787,787,787,787,787,787,787,787,787,787,787,787,787,787,787,787,787,787,787,793,805,837,862,887,917,932,949,962,984,1027,1047,1077,1095,1108,1127],"ymouse":[513,513,513,513,515,515,515,516,516,516,516,516,516,516,516,516,516,516,516,516,516,516,516,516,516,516,516,516,516,516,516,516,516,516,516,516,516,516,516,516,516,516,516,516,516,516,516,516,516,516,516,516,516,516,516,516,516,516,516,516,516,516,516,516,516,516,516,516,516,516,516,516,516,516,516,516,516,516,516,516,516,516,516,511,490,443,411,378,337,315,296,282,261,221,197,155,131,111,82],"timestamp_mouse":[8,28,48,69,90,109,128,149,170,189,208,228,250,269,289,308,328,348,369,390,408,428,449,470,489,509,529,548,569,588,610,629,649,668,688,708,730,749,769,788,808,829,850,869,888,910,929,948,969,989,1009,1029,1049,1069,1088,1110,1129,1149,1169,1189,1208,1228,1250,1270,1289,1308,1329,1350,1370,1390,1408,1430,1450,1470,1488,1508,1529,1549,1569,1588,1608,1630,1650,1668,1688,1708,1728,1748,1768,1788,1809,1828,1849,1868,1890,1908,1928,1948,1969],"xSR":741.5,"ySR":501.8,"xT1":424.9,"yT1":0,"xT2":1058.1,"yT2":0,"toosoon":0,"cond_shown":"Incongruent","ratio_trial":300,"L_num":1,"L_den":2,"R_num":3,"R_den":15,"correct_side":1,"subjID":"Juanita Alvarado Castro23","gender":"1","school":"4","age":"9"},{"start_time":1552073809785,"click_time":1552073811538,"finger_time":1552073811017,"fix_duration":926.1922122657634,"trial":38,"RT":1232,"MT":521,"sideResp":2,"stimulus":[],"xmouse":[808,808,808,808,808,808,808,808,808,808,808,808,808,808,808,808,808,808,808,808,808,808,808,808,808,808,808,808,808,808,808,808,808,808,808,808,808,808,808,808,808,808,808,808,808,808,808,808,808,808,808,808,808,808,808,808,808,807,809,816,822,831,836,847,853,858,864,871,876,896,906,916,923,935,938,941,944,948,964,973,983,993,1001,1017,1029,1041,1054,1065],"ymouse":[559,559,559,559,559,559,559,559,559,559,559,559,559,559,559,559,559,559,559,559,559,559,559,559,559,559,559,559,559,559,559,559,559,559,559,559,559,559,559,559,559,559,559,559,559,559,559,559,559,559,559,559,559,559,559,559,559,559,551,530,514,497,485,455,443,432,421,402,394,345,328,308,289,259,250,237,226,213,177,161,145,131,121,99,86,77,67,60],"timestamp_mouse":[12,32,53,73,94,113,132,154,173,193,212,232,252,273,293,314,333,352,372,392,413,432,452,472,492,513,534,552,572,594,614,634,654,673,692,713,732,752,773,792,814,834,853,873,893,913,933,952,973,994,1014,1032,1053,1073,1093,1113,1134,1152,1172,1192,1214,1232,1252,1273,1293,1314,1332,1352,1372,1392,1413,1433,1453,1472,1492,1513,1532,1553,1572,1592,1612,1633,1652,1673,1693,1713,1733,1753],"xSR":741.5,"ySR":501.8,"xT1":424.9,"yT1":0,"xT2":1058.1,"yT2":0,"toosoon":0,"cond_shown":"Incongruent","ratio_trial":300,"L_num":4,"L_den":20,"R_num":2,"R_den":4,"correct_side":2,"subjID":"Juanita Alvarado Castro23","gender":"1","school":"4","age":"9"},{"start_time":1552073812808,"click_time":1552073814618,"finger_time":1552073813918,"fix_duration":250,"trial":39,"RT":1110,"MT":700,"sideResp":1,"stimulus":[],"xmouse":[821,821,821,821,821,821,821,821,821,821,821,821,821,821,821,821,821,821,821,821,821,821,821,821,821,821,821,821,821,821,821,821,821,821,821,821,821,821,821,821,821,821,821,821,821,821,821,821,821,821,821,821,821,785,749,700,638,623,605,595,588,579,549,516,480,425,397,375,349,339,332,326,316,313,313,311,311,311,311,311,311,311,319,349,362,377,392,404,412,419,426],"ymouse":[594,594,594,594,594,594,594,594,594,594,594,594,594,594,594,594,594,594,594,594,594,594,594,594,594,594,594,594,594,594,594,594,594,594,594,594,594,594,594,594,594,594,594,594,594,594,594,594,594,594,594,594,594,581,562,531,490,476,455,448,442,433,409,383,357,313,291,270,231,214,199,183,164,159,156,153,150,145,137,134,132,130,125,115,112,106,98,95,94,91,89],"timestamp_mouse":[10,30,50,70,90,111,131,150,171,189,209,229,250,271,291,310,329,350,370,391,410,429,449,469,490,511,529,549,569,590,609,629,650,669,690,709,730,749,770,791,809,829,850,871,891,910,929,950,970,990,1011,1029,1049,1070,1091,1110,1130,1149,1171,1190,1210,1230,1251,1269,1289,1309,1330,1350,1371,1390,1410,1430,1450,1469,1489,1509,1530,1550,1570,1591,1611,1630,1650,1670,1689,1709,1730,1750,1769,1789,1809],"xSR":741.5,"ySR":501.8,"xT1":424.9,"yT1":0,"xT2":1058.1,"yT2":0,"toosoon":0,"cond_shown":"Congruent","ratio_trial":100,"L_num":1,"L_den":2,"R_num":3,"R_den":5,"correct_side":2,"subjID":"Juanita Alvarado Castro23","gender":"1","school":"4","age":"9"},{"start_time":1552073902566,"click_time":1552073904557,"finger_time":1552073904117,"fix_duration":807.1115184771884,"trial":40,"RT":1551,"MT":440,"sideResp":1,"stimulus":[],"xmouse":[818,818,818,818,818,818,818,818,818,818,818,818,818,818,818,818,818,812,807,804,802,802,802,802,802,802,802,802,802,802,802,802,802,802,802,802,802,802,802,802,802,802,802,802,802,802,802,802,802,802,802,802,802,802,802,802,802,802,802,802,802,802,802,802,802,802,802,801,801,801,800,797,792,785,778,763,751,739,724,711,675,655,640,625,611,590,587,583,580,577,573,573,573,574,574,569,566,555,539,523],"ymouse":[549,549,549,550,551,551,551,551,551,551,551,551,551,551,551,551,551,553,556,557,559,559,559,559,559,559,559,559,559,559,559,559,559,559,559,559,559,559,559,559,559,559,559,559,559,559,559,559,559,559,559,559,559,559,559,559,559,559,559,559,559,559,559,559,559,559,559,557,555,550,547,547,546,544,543,541,539,535,526,512,476,454,434,413,392,366,364,359,353,340,292,265,236,214,187,147,135,115,98,81],"timestamp_mouse":[15,31,51,72,91,111,132,152,171,192,211,232,252,272,292,310,332,351,372,392,412,430,451,472,492,510,532,551,571,591,611,632,651,672,691,711,732,751,772,791,812,831,852,871,891,910,932,951,971,991,1012,1030,1051,1072,1091,1112,1132,1152,1172,1192,1212,1231,1250,1272,1292,1312,1332,1351,1372,1391,1411,1431,1451,1472,1491,1512,1531,1551,1571,1590,1611,1631,1651,1672,1691,1711,1731,1751,1772,1792,1811,1831,1851,1870,1891,1911,1931,1952,1972,1991],"xSR":741.5,"ySR":501.8,"xT1":424.9,"yT1":0,"xT2":1058.1,"yT2":0,"toosoon":0,"cond_shown":"Congruent","ratio_trial":200,"L_num":6,"L_den":15,"R_num":3,"R_den":15,"correct_side":1,"subjID":"Juanita Alvarado Castro23","gender":"1","school":"4","age":"9"},{"start_time":1552073910091,"click_time":1552073911697,"finger_time":1552073911396,"fix_duration":771.9376717184813,"trial":41,"RT":1305,"MT":301,"sideResp":2,"stimulus":[],"xmouse":[800,800,800,800,800,800,800,800,800,800,800,800,800,800,800,800,800,800,800,800,800,800,800,800,800,800,800,800,800,800,800,800,800,800,800,800,800,800,800,800,800,800,800,800,800,800,800,800,800,800,800,800,800,800,800,800,800,800,800,800,800,800,803,811,828,876,941,972,994,1004,1011,1012,1012,1012,1015,1027,1046,1059,1068,1073,1076],"ymouse":[551,551,551,551,551,551,551,551,551,551,551,551,551,551,551,551,551,551,551,551,551,551,551,551,551,551,551,551,551,551,551,551,551,551,551,551,551,551,551,551,551,551,551,551,551,551,551,551,551,551,551,551,551,551,551,551,551,551,551,551,551,551,550,542,522,441,353,318,292,280,272,271,271,271,265,238,203,179,151,120,55],"timestamp_mouse":[10,26,46,67,85,106,126,146,166,186,206,226,246,266,286,306,326,345,366,386,406,426,446,466,487,506,526,546,566,587,606,626,647,666,687,705,726,746,767,786,806,826,845,865,887,906,926,946,966,987,1006,1026,1046,1066,1086,1106,1126,1146,1167,1187,1205,1226,1247,1267,1286,1305,1327,1346,1367,1386,1406,1426,1447,1465,1486,1506,1525,1547,1567,1586,1606],"xSR":741.5,"ySR":501.8,"xT1":424.9,"yT1":0,"xT2":1058.1,"yT2":0,"toosoon":0,"cond_shown":"Congruent","ratio_trial":200,"L_num":16,"L_den":20,"R_num":12,"R_den":20,"correct_side":1,"subjID":"Juanita Alvarado Castro23","gender":"1","school":"4","age":"9"},{"start_time":1552073915748,"click_time":1552073917877,"finger_time":1552073917397,"fix_duration":1011.4945020917768,"trial":42,"RT":1649,"MT":480,"sideResp":2,"stimulus":[],"xmouse":[817,817,817,817,817,817,817,817,817,817,817,817,817,817,817,817,817,817,817,817,817,817,815,812,811,810,810,810,809,809,809,809,809,809,809,809,809,809,809,809,809,809,809,809,809,809,809,809,809,809,809,807,807,807,806,806,804,802,801,801,801,801,801,801,801,801,801,801,801,801,801,801,801,797,794,786,777,762,759,756,754,750,728,714,711,710,709,709,709,709,709,709,709,709,709,709,709,710,719,724,735,760,777,817,891,993,1118],"ymouse":[560,560,560,560,560,560,560,560,560,560,560,560,560,560,560,560,560,560,560,560,560,560,560,560,560,560,560,560,560,560,560,560,560,560,560,560,560,560,560,560,560,560,560,560,560,560,560,560,560,560,560,560,560,560,559,559,559,557,556,556,556,556,556,556,556,556,556,556,556,556,556,556,556,552,551,547,544,540,539,539,538,537,528,518,513,512,511,511,511,511,511,511,511,511,511,507,499,489,467,458,448,429,414,369,288,196,40],"timestamp_mouse":[10,29,49,68,90,110,130,149,168,190,210,230,250,268,289,310,329,350,370,389,409,429,449,470,490,510,530,549,569,589,609,629,649,670,689,709,730,750,770,790,809,830,849,870,889,909,929,949,969,989,1009,1030,1049,1069,1089,1110,1128,1148,1168,1189,1209,1229,1250,1268,1289,1309,1329,1349,1369,1389,1410,1429,1450,1470,1490,1509,1529,1549,1569,1589,1609,1630,1649,1668,1689,1710,1730,1750,1769,1790,1808,1830,1850,1870,1889,1909,1930,1949,1968,1989,2009,2029,2050,2070,2089,2110,2129],"xSR":741.5,"ySR":501.8,"xT1":424.9,"yT1":0,"xT2":1058.1,"yT2":0,"toosoon":0,"cond_shown":"Congruent","ratio_trial":200,"L_num":3,"L_den":10,"R_num":7,"R_den":14,"correct_side":2,"subjID":"Juanita Alvarado Castro23","gender":"1","school":"4","age":"9"},{"start_time":1552073924158,"click_time":1552073925937,"finger_time":1552073925278,"fix_duration":840.2713438190499,"trial":43,"RT":1120,"MT":659,"sideResp":1,"stimulus":[],"xmouse":[779,779,779,779,779,779,779,779,779,779,779,779,779,779,779,779,779,779,779,777,777,777,777,777,777,777,777,777,777,777,777,777,777,777,777,777,777,777,777,777,777,777,777,777,777,777,777,777,777,777,777,777,774,765,759,753,741,633,595,569,549,528,504,499,494,492,486,470,460,452,443,441,441,445,448,449,449,449,449,449,449,449,449,449,449,449,449,448,440],"ymouse":[531,531,531,531,531,531,531,531,531,531,531,531,531,531,531,531,531,531,531,531,531,531,531,531,531,531,531,531,531,531,531,531,531,531,531,531,531,531,531,531,531,531,531,531,531,531,531,531,531,531,531,531,528,517,508,497,485,441,424,407,392,381,369,367,364,364,360,344,331,312,288,265,234,181,160,149,140,139,135,131,127,124,121,119,119,118,115,109,83],"timestamp_mouse":[19,39,58,79,99,120,139,159,179,200,218,240,259,279,300,320,339,359,380,399,419,439,459,479,499,519,540,559,579,600,619,639,659,679,700,719,739,759,779,799,819,840,860,880,899,919,939,958,980,999,1020,1039,1059,1080,1100,1120,1139,1160,1179,1200,1219,1240,1260,1279,1299,1320,1339,1359,1379,1400,1420,1439,1459,1480,1499,1520,1539,1560,1579,1599,1620,1640,1659,1678,1699,1719,1740,1760,1779],"xSR":741.5,"ySR":501.8,"xT1":424.9,"yT1":0,"xT2":1058.1,"yT2":0,"toosoon":0,"cond_shown":"Incongruent","ratio_trial":200,"L_num":14,"L_den":30,"R_num":12,"R_den":18,"correct_side":2,"subjID":"Juanita Alvarado Castro23","gender":"1","school":"4","age":"9"},{"start_time":1552073989192,"click_time":1552073991117,"finger_time":1552073990636,"fix_duration":933.6293088578627,"trial":44,"RT":1444,"MT":481,"sideResp":1,"stimulus":[],"xmouse":[776,776,775,773,773,773,773,773,773,773,773,773,773,773,773,773,773,773,773,773,773,775,777,779,780,780,780,780,780,780,780,780,780,780,780,780,780,780,780,780,780,780,780,780,780,778,775,770,766,763,763,761,761,761,761,761,761,761,761,761,760,760,759,757,756,756,754,752,751,751,746,742,724,692,600,556,534,534,534,534,534,534,534,534,534,534,534,534,534,534,534,534,534,534,534,534,438],"ymouse":[565,565,564,560,557,557,557,557,557,556,552,551,550,550,550,550,550,550,550,550,549,545,539,534,533,533,533,533,533,533,533,533,533,533,533,533,533,533,533,533,533,533,533,533,533,532,535,542,549,561,564,565,565,565,566,566,566,566,566,566,565,564,563,563,563,563,561,560,559,559,558,555,532,474,256,94,13,13,13,13,13,13,13,13,13,13,13,13,13,13,13,13,13,13,13,13,3],"timestamp_mouse":[4,24,45,64,85,104,123,144,164,185,204,224,245,264,284,304,324,344,364,385,404,424,444,465,485,503,524,544,564,585,604,623,643,664,683,704,725,743,763,784,804,825,843,864,885,904,925,944,963,984,1004,1023,1045,1064,1084,1104,1125,1144,1163,1184,1204,1224,1245,1264,1285,1304,1325,1345,1364,1384,1404,1425,1444,1464,1484,1505,1523,1543,1565,1584,1604,1624,1644,1665,1685,1704,1724,1744,1764,1784,1805,1824,1845,1865,1884,1904,1925],"xSR":741.5,"ySR":501.8,"xT1":424.9,"yT1":0,"xT2":1058.1,"yT2":0,"toosoon":0,"cond_shown":"Congruent","ratio_trial":100,"L_num":11,"L_den":22,"R_num":6,"R_den":15,"correct_side":1,"subjID":"Juanita Alvarado Castro23","gender":"1","school":"4","age":"9"},{"start_time":1552073994236,"click_time":1552073995895,"finger_time":1552073994417,"fix_duration":760.9419053503352,"trial":45,"RT":181,"MT":1478,"sideResp":1,"stimulus":[],"xmouse":[763,768,775,778,782,786,802,816,860,884,989,1039,1051,1051,1049,1040,997,974,955,935,930,930,930,930,930,930,932,933,933,933,933,933,933,931,927,915,884,870,862,859,859,859,859,858,851,844,839,832,829,828,826,824,824,824,824,824,822,812,792,785,777,777,777,772,769,764,747,735,720,699,638,606,554,535,516,499,479,473,466,457,448,442,436],"ymouse":[566,562,553,551,548,546,541,533,518,514,498,489,488,488,491,500,540,557,569,581,585,585,585,585,584,579,571,569,567,566,563,563,563,563,563,563,563,566,569,570,570,570,570,570,570,570,570,570,570,570,570,570,570,570,570,570,570,571,572,574,574,574,574,573,568,558,531,515,497,480,440,418,370,347,322,300,264,244,221,182,153,126,94],"timestamp_mouse":[20,41,61,81,100,121,140,161,181,201,221,241,260,280,301,321,341,360,380,400,419,441,461,479,501,521,541,560,581,601,620,641,661,680,699,720,740,760,780,801,820,841,861,879,900,921,940,961,981,1001,1021,1040,1059,1081,1101,1120,1140,1160,1181,1200,1221,1240,1260,1280,1301,1321,1340,1360,1381,1401,1420,1439,1460,1480,1500,1520,1541,1560,1580,1601,1621,1639,1659],"xSR":741.5,"ySR":501.8,"xT1":424.9,"yT1":0,"xT2":1058.1,"yT2":0,"toosoon":0,"cond_shown":"Congruent","ratio_trial":300,"L_num":24,"L_den":30,"R_num":2,"R_den":4,"correct_side":1,"subjID":"Juanita Alvarado Castro23","gender":"1","school":"4","age":"9"},{"start_time":1552073997629,"click_time":1552074003817,"finger_time":1552074001257,"fix_duration":251.23093212614612,"trial":46,"RT":3628,"MT":2560,"sideResp":2,"stimulus":[],"xmouse":[793,793,793,793,793,793,793,793,793,793,793,793,793,793,793,793,793,793,793,793,793,793,793,793,793,793,793,793,793,793,793,793,793,793,793,793,793,793,793,793,793,793,793,793,793,793,793,793,793,793,793,793,793,793,793,793,793,793,793,793,793,793,793,793,793,793,793,793,793,793,793,793,793,793,793,793,793,793,793,793,793,793,793,793,793,793,793,793,793,793,793,793,793,793,793,793,793,793,793,793,793,793,793,793,793,793,793,793,793,793,793,793,793,793,793,793,793,793,793,793,793,793,793,793,793,793,793,793,793,793,793,793,793,793,793,793,793,793,793,793,793,793,793,793,793,793,793,793,793,793,793,793,793,793,793,793,793,793,793,793,793,793,793,793,793,793,793,793,793,793,793,793,793,793,793,793,793,793,793,791,791,793,795,795,795,795,795,795,795,795,795,795,795,795,795,795,795,795,795,795,795,795,795,795,795,795,795,795,795,795,795,795,795,795,795,795,795,795,795,795,795,795,795,795,795,795,795,795,795,795,795,795,795,795,795,795,795,795,795,795,795,795,795,795,795,795,795,795,795,795,796,796,796,788,785,779,775,771,765,765,765,765,765,765,765,765,764,764,764,763,768,770,770,770,771,771,773,778,797,820,828,833,836,840,849,865,872,902,927,965,980,987,992,992,989,989,989,989,989,989,989,989,989,989,989,989,989,1050,1054,1062],"ymouse":[553,553,553,553,553,553,553,553,553,553,553,553,553,553,553,553,553,553,553,553,553,553,553,553,553,553,553,553,553,553,553,553,553,553,553,553,553,553,553,553,553,553,553,553,553,553,553,553,553,553,553,553,553,553,553,553,553,553,553,553,553,553,553,553,553,553,553,553,553,553,553,553,553,553,553,553,553,553,553,553,553,553,553,553,553,553,553,553,553,553,553,553,553,553,553,553,553,553,553,553,553,553,553,553,553,553,553,553,553,553,553,553,553,553,553,553,553,553,553,553,553,553,553,553,553,553,553,553,553,553,553,553,553,553,553,553,553,553,553,553,553,553,553,553,553,553,553,553,553,553,553,555,557,562,563,563,563,563,563,563,563,563,563,563,563,563,563,563,563,563,563,563,563,563,563,563,563,565,575,586,594,603,603,603,603,603,603,603,603,603,603,603,603,603,603,603,603,603,603,603,603,603,603,603,603,603,603,603,603,603,603,603,603,603,603,603,603,603,603,603,603,603,603,603,603,603,603,603,603,603,603,603,603,603,603,603,603,603,603,603,603,603,603,603,603,603,603,603,610,612,613,613,613,593,584,577,572,569,568,568,568,568,568,568,568,568,568,568,568,565,560,558,558,558,557,557,557,555,550,540,537,535,534,532,529,521,515,486,452,358,297,227,152,100,32,13,2,2,2,2,2,2,2,2,2,2,2,0,4,8],"timestamp_mouse":[10,27,48,68,87,108,126,146,168,188,207,227,247,266,288,307,327,348,366,388,408,427,448,468,488,508,527,546,566,587,608,628,647,668,687,706,727,748,767,788,808,828,846,868,888,908,928,948,967,986,1007,1027,1048,1068,1088,1106,1128,1148,1168,1188,1207,1226,1247,1268,1288,1308,1327,1347,1366,1388,1406,1428,1447,1468,1487,1508,1528,1547,1567,1588,1608,1627,1647,1667,1688,1708,1728,1748,1766,1787,1808,1826,1848,1867,1887,1907,1927,1946,1967,1988,2008,2027,2047,2066,2088,2107,2127,2148,2167,2187,2207,2227,2247,2268,2288,2307,2328,2348,2367,2387,2407,2428,2447,2467,2488,2508,2527,2548,2566,2588,2607,2628,2646,2666,2688,2707,2728,2747,2768,2787,2806,2828,2848,2867,2888,2907,2926,2948,2967,2986,3007,3027,3047,3067,3088,3107,3127,3147,3167,3187,3208,3227,3246,3268,3287,3307,3327,3347,3368,3388,3407,3428,3448,3467,3488,3507,3527,3548,3567,3586,3608,3628,3648,3667,3688,3706,3728,3748,3767,3787,3807,3827,3847,3867,3886,3908,3927,3947,3967,3987,4008,4027,4047,4068,4088,4108,4127,4147,4168,4187,4206,4227,4248,4267,4287,4307,4326,4347,4367,4387,4407,4427,4448,4467,4487,4507,4528,4547,4567,4587,4607,4626,4648,4667,4687,4707,4727,4748,4767,4787,4807,4827,4847,4867,4887,4907,4927,4947,4967,4987,5008,5028,5047,5067,5088,5107,5126,5148,5167,5187,5207,5227,5248,5268,5286,5307,5328,5347,5367,5387,5408,5427,5448,5467,5487,5507,5527,5547,5568,5587,5608,5627,5647,5668,5688,5707,5728,5748,5767,5787,5808,5827,5848,5867,5887,5908,5927,5947,5968,5987,6006,6026,6048,6067,6088,6107,6126,6148,6167,6188],"xSR":741.5,"ySR":501.8,"xT1":424.9,"yT1":0,"xT2":1058.1,"yT2":0,"toosoon":0,"cond_shown":"Congruent","ratio_trial":300,"L_num":11,"L_den":22,"R_num":2,"R_den":10,"correct_side":1,"subjID":"Juanita Alvarado Castro23","gender":"1","school":"4","age":"9"},{"start_time":1552074005910,"click_time":1552074007736,"finger_time":1552074006937,"fix_duration":554.2466568257878,"trial":47,"RT":1027,"MT":799,"sideResp":1,"stimulus":[],"xmouse":[787,787,787,787,787,787,787,787,787,787,787,787,787,787,787,787,787,787,787,787,782,770,758,755,753,752,751,750,750,750,750,750,750,750,749,749,749,749,749,749,748,747,747,747,746,746,746,746,746,746,743,736,728,720,709,688,683,679,677,675,673,671,668,665,665,660,657,651,641,634,616,607,597,591,583,576,573,571,568,567,561,547,537,530,526,514,507,502,495,488,479,474],"ymouse":[598,598,598,598,598,598,598,598,598,598,598,598,598,598,598,598,598,598,598,598,597,594,591,590,589,587,585,584,582,581,578,577,577,577,576,576,575,573,572,571,565,561,560,560,559,559,559,559,557,554,551,543,534,526,511,478,462,450,443,437,431,429,426,425,423,411,398,384,367,351,314,291,264,244,224,203,195,190,187,187,180,175,172,170,169,165,163,160,155,146,122,98],"timestamp_mouse":[6,27,47,66,86,106,126,146,166,186,205,226,246,266,286,305,326,347,366,385,406,426,447,466,486,506,527,546,567,587,606,627,647,666,685,706,725,746,767,786,806,826,846,866,886,906,926,947,967,985,1006,1027,1046,1066,1085,1106,1126,1146,1166,1185,1206,1226,1247,1266,1287,1305,1326,1346,1366,1387,1406,1426,1445,1466,1485,1505,1526,1545,1566,1587,1606,1626,1645,1667,1685,1706,1727,1747,1765,1786,1806,1826],"xSR":741.5,"ySR":501.8,"xT1":424.9,"yT1":0,"xT2":1058.1,"yT2":0,"toosoon":0,"cond_shown":"Congruent","ratio_trial":200,"L_num":8,"L_den":15,"R_num":7,"R_den":21,"correct_side":1,"subjID":"Juanita Alvarado Castro23","gender":"1","school":"4","age":"9"},{"start_time":1552074009307,"click_time":1552074011557,"finger_time":1552074010776,"fix_duration":250,"trial":48,"RT":1469,"MT":781,"sideResp":2,"stimulus":[],"xmouse":[775,775,775,775,775,775,775,775,775,775,775,775,775,775,775,775,775,775,775,775,775,775,775,775,775,775,775,775,775,775,775,775,775,775,775,775,775,775,775,775,775,775,775,775,775,775,775,775,775,775,775,775,775,775,775,775,775,775,775,775,775,775,775,775,775,775,775,775,777,781,783,789,790,793,796,