[{"start_time":1552074864664,"click_time":1552074865912,"finger_time":1552074865412,"fix_duration":250,"trial":0,"RT":748,"MT":500,"sideResp":2,"stimulus":"img/500/equaldotsize/R/3_Ratio_500_L_10_R_20.png","xmouse":[776,776,776,776,776,776,776,776,776,776,776,776,776,776,776,776,776,776,776,776,776,776,776,776,776,776,776,776,776,776,776,776,779,784,791,806,826,868,888,908,922,934,956,962,966,971,975,986,996,1005,1014,1022,1032,1034,1038,1043,1056,1076,1085,1094,1099,1105,1114],"ymouse":[563,563,563,563,563,563,563,563,563,563,563,563,563,563,563,563,563,563,563,563,563,563,563,563,563,563,563,563,563,563,563,563,560,552,544,521,506,473,456,439,426,411,390,382,377,367,362,344,332,320,307,296,280,276,272,263,239,193,170,149,131,115,97],"timestamp_mouse":[8,28,49,68,89,108,128,148,169,188,208,227,248,269,289,308,327,348,368,388,409,428,448,469,487,508,528,548,569,589,609,628,648,669,688,708,728,748,768,789,808,829,848,868,888,909,928,948,968,988,1008,1027,1048,1069,1088,1108,1129,1149,1168,1189,1208,1228,1248],"xSR":741.5,"ySR":469.95,"xT1":424.9,"yT1":0,"xT2":1058.1,"yT2":0,"toosoon":0,"cond_shown":"equaldotsize","ratio_trial":500,"smaller_num":"10","larger_num":"20","correct_side":2,"subjID":"Juanita Alvarado 23","gender":"1","age":"9","school":"4","test":{"fix_dur":[250,1500],"timestim":300,"targets_dim":[100,100],"targets_relative_coord":[0.3,0.7],"size_stim":[880,420],"start_dim":[100,100],"size_start":[300,300],"size_fix":60,"samplingrate":20,"img_types":["equaldotsize","equaldotanddens","randomdotsizeEA"],"ratios":[250,500,750,900],"rep_conds":9,"nTrials":120,"trials_to_rest":500,"Trials_order":[51,19,71,62,95,118,70,34,103,83,12,93,5,41,69,32,82,67,66,117,39,100,75,38,97,57,11,24,68,114,2,89,90,92,31,1,84,15,107,25,16,46,79,113,37,91,85,40,18,33,4,99,63,86,26,20,87,80,101,49,6,42,23,47,21,22,29,81,109,56,96,73,115,50,3,35,64,48,65,45,14,77,112,58,111,94,8,59,53,116,36,98,13,108,0,9,110,119,55,74,105,60,78,72,54,104,44,17,61,27,7,10,102,30,106,28,52,76,88,43],"cond_shown":["equaldotsize","equaldotanddens","randomdotsizeEA","randomdotsizeEA","randomdotsizeEA","equaldotanddens","equaldotanddens","equaldotanddens","equaldotanddens","randomdotsizeEA","equaldotsize","equaldotsize","randomdotsizeEA","randomdotsizeEA","equaldotsize","randomdotsizeEA","equaldotanddens","equaldotanddens","equaldotsize","equaldotsize","equaldotsize","equaldotanddens","equaldotsize","randomdotsizeEA","equaldotanddens","equaldotsize","randomdotsizeEA","equaldotsize","randomdotsizeEA","equaldotsize","randomdotsizeEA","randomdotsizeEA","equaldotsize","randomdotsizeEA","equaldotanddens","equaldotanddens","equaldotsize","equaldotsize","randomdotsizeEA","equaldotanddens","equaldotanddens","equaldotanddens","equaldotanddens","randomdotsizeEA","equaldotanddens","equaldotanddens","equaldotanddens","equaldotanddens","equaldotsize","equaldotsize","equaldotanddens","equaldotsize","equaldotsize","randomdotsizeEA","randomdotsizeEA","randomdotsizeEA","equaldotsize","randomdotsizeEA","randomdotsizeEA","equaldotanddens","equaldotsize","equaldotsize","randomdotsizeEA","randomdotsizeEA","equaldotsize","equaldotanddens","randomdotsizeEA","equaldotsize","equaldotanddens","randomdotsizeEA","equaldotsize","equaldotanddens","equaldotanddens","randomdotsizeEA","equaldotsize","randomdotsizeEA","equaldotanddens","equaldotsize","randomdotsizeEA","equaldotsize","randomdotsizeEA","randomdotsizeEA","equaldotanddens","equaldotanddens","equaldotsize","equaldotanddens","randomdotsizeEA","randomdotsizeEA","randomdotsizeEA","randomdotsizeEA","equaldotsize","randomdotsizeEA","equaldotanddens","equaldotsize","equaldotsize","equaldotsize","randomdotsizeEA","randomdotsizeEA","equaldotanddens","randomdotsizeEA","equaldotsize","equaldotsize","equaldotsize","equaldotsize","equaldotsize","randomdotsizeEA","randomdotsizeEA","randomdotsizeEA","equaldotanddens","equaldotsize","equaldotanddens","equaldotanddens","equaldotsize","equaldotsize","equaldotanddens","equaldotanddens","equaldotanddens","equaldotanddens","equaldotanddens","equaldotanddens"],"ratio_trial":[500,750,900,250,900,900,900,900,750,900,250,900,500,500,900,750,900,750,750,900,500,500,500,250,250,900,900,250,750,750,250,500,750,750,750,250,250,500,900,250,500,900,750,500,250,750,250,500,750,900,500,500,500,250,250,750,500,750,500,250,750,750,900,900,900,900,500,900,250,750,250,250,750,250,500,900,500,250,500,900,250,500,500,900,500,900,750,900,500,750,250,250,250,250,250,900,250,900,750,250,900,250,750,250,750,750,750,500,250,500,750,900,750,750,900,500,500,500,500,750],"smaller_num":["10","6","9","4","18","9","18","18","3","18","4","9","2","2","18","12","18","3","15","18","2","5","6","3","3","9","18","5","12","12","2","3","3","6","3","6","3","5","18","3","5","9","9","5","3","9","2","5","6","18","1","9","1","4","2","18","9","3","5","2","6","15","18","18","18","18","5","9","4","6","3","3","15","3","2","18","1","2","5","18","6","10","1","9","2","18","3","18","1","6","6","3","4","2","2","18","4","18","6","4","18","2","15","2","3","3","15","9","4","2","15","9","6","12","9","2","9","2","9","15"],"larger_num":["20","8","10","16","20","10","20","20","4","20","16","10","4","4","20","16","20","4","20","20","4","10","12","12","12","10","20","20","16","16","8","6","4","8","4","24","12","10","20","12","10","10","12","10","12","12","8","10","8","20","2","18","2","16","8","24","18","4","10","8","8","20","20","20","20","20","10","10","16","8","12","12","20","12","4","20","2","8","10","20","24","20","2","10","4","20","4","20","2","8","24","12","16","8","8","20","16","20","8","16","20","8","20","8","4","4","20","18","16","4","20","10","8","16","10","4","18","4","18","20"],"correct_side":[2,1,2,1,2,2,1,1,2,1,2,1,1,1,2,2,1,2,1,1,1,1,1,2,1,2,2,2,2,2,1,2,1,1,1,1,2,2,1,2,2,2,2,2,1,2,1,2,2,2,2,2,2,1,1,1,2,1,1,1,1,1,1,1,1,1,1,2,1,1,1,1,2,2,1,1,2,1,2,1,1,2,2,2,1,1,1,2,2,1,1,1,2,1,1,1,2,2,1,1,1,1,2,1,1,1,2,2,1,1,2,1,1,2,2,1,1,1,2,1],"img_shown":["img/500/equaldotsize/R/3_Ratio_500_L_10_R_20.png","img/750/equaldotanddens/L/14_Ratio_750_L_8_R_6.png","img/900/randomdotsizeEA/R/3_Ratio_900_L_9_R_10.png","img/250/randomdotsizeEA/L/2_Ratio_250_L_16_R_4.png","img/900/randomdotsizeEA/R/13_Ratio_900_L_18_R_20.png","img/900/equaldotanddens/R/6_Ratio_900_L_9_R_10.png","img/900/equaldotanddens/L/4_Ratio_900_L_20_R_18.png","img/900/equaldotanddens/L/10_Ratio_900_L_20_R_18.png","img/750/equaldotanddens/R/12_Ratio_750_L_3_R_4.png","img/900/randomdotsizeEA/L/8_Ratio_900_L_20_R_18.png","img/250/equaldotsize/R/10_Ratio_250_L_4_R_16.png","img/900/equaldotsize/L/1_Ratio_900_L_10_R_9.png","img/500/randomdotsizeEA/L/10_Ratio_500_L_4_R_2.png","img/500/randomdotsizeEA/L/10_Ratio_500_L_4_R_2.png","img/900/equaldotsize/R/11_Ratio_900_L_18_R_20.png","img/750/randomdotsizeEA/R/11_Ratio_750_L_12_R_16.png","img/900/equaldotanddens/L/4_Ratio_900_L_20_R_18.png","img/750/equaldotanddens/R/7_Ratio_750_L_3_R_4.png","img/750/equaldotsize/L/1_Ratio_750_L_20_R_15.png","img/900/equaldotsize/L/8_Ratio_900_L_20_R_18.png","img/500/equaldotsize/L/10_Ratio_500_L_4_R_2.png","img/500/equaldotanddens/L/7_Ratio_500_L_10_R_5.png","img/500/equaldotsize/L/13_Ratio_500_L_12_R_6.png","img/250/randomdotsizeEA/R/11_Ratio_250_L_3_R_12.png","img/250/equaldotanddens/L/14_Ratio_250_L_12_R_3.png","img/900/equaldotsize/R/7_Ratio_900_L_9_R_10.png","img/900/randomdotsizeEA/R/14_Ratio_900_L_18_R_20.png","img/250/equaldotsize/R/12_Ratio_250_L_5_R_20.png","img/750/randomdotsizeEA/R/11_Ratio_750_L_12_R_16.png","img/750/equaldotsize/R/11_Ratio_750_L_12_R_16.png","img/250/randomdotsizeEA/L/7_Ratio_250_L_8_R_2.png","img/500/randomdotsizeEA/R/2_Ratio_500_L_3_R_6.png","img/750/equaldotsize/L/9_Ratio_750_L_4_R_3.png","img/750/randomdotsizeEA/L/13_Ratio_750_L_8_R_6.png","img/750/equaldotanddens/L/9_Ratio_750_L_4_R_3.png","img/250/equaldotanddens/L/5_Ratio_250_L_24_R_6.png","img/250/equaldotsize/R/11_Ratio_250_L_3_R_12.png","img/500/equaldotsize/R/14_Ratio_500_L_5_R_10.png","img/900/randomdotsizeEA/L/2_Ratio_900_L_20_R_18.png","img/250/equaldotanddens/R/4_Ratio_250_L_3_R_12.png","img/500/equaldotanddens/R/14_Ratio_500_L_5_R_10.png","img/900/equaldotanddens/R/6_Ratio_900_L_9_R_10.png","img/750/equaldotanddens/R/15_Ratio_750_L_9_R_12.png","img/500/randomdotsizeEA/R/14_Ratio_500_L_5_R_10.png","img/250/equaldotanddens/L/14_Ratio_250_L_12_R_3.png","img/750/equaldotanddens/R/15_Ratio_750_L_9_R_12.png","img/250/equaldotanddens/L/1_Ratio_250_L_8_R_2.png","img/500/equaldotanddens/R/14_Ratio_500_L_5_R_10.png","img/750/equaldotsize/R/2_Ratio_750_L_6_R_8.png","img/900/equaldotsize/R/13_Ratio_900_L_18_R_20.png","img/500/equaldotanddens/R/15_Ratio_500_L_1_R_2.png","img/500/equaldotsize/R/1_Ratio_500_L_9_R_18.png","img/500/equaldotsize/R/12_Ratio_500_L_1_R_2.png","img/250/randomdotsizeEA/L/2_Ratio_250_L_16_R_4.png","img/250/randomdotsizeEA/L/7_Ratio_250_L_8_R_2.png","img/750/randomdotsizeEA/L/6_Ratio_750_L_24_R_18.png","img/500/equaldotsize/R/1_Ratio_500_L_9_R_18.png","img/750/randomdotsizeEA/L/8_Ratio_750_L_4_R_3.png","img/500/randomdotsizeEA/L/7_Ratio_500_L_10_R_5.png","img/250/equaldotanddens/L/7_Ratio_250_L_8_R_2.png","img/750/equaldotsize/L/13_Ratio_750_L_8_R_6.png","img/750/equaldotsize/L/1_Ratio_750_L_20_R_15.png","img/900/randomdotsizeEA/L/8_Ratio_900_L_20_R_18.png","img/900/randomdotsizeEA/L/2_Ratio_900_L_20_R_18.png","img/900/equaldotsize/L/4_Ratio_900_L_20_R_18.png","img/900/equaldotanddens/L/10_Ratio_900_L_20_R_18.png","img/500/randomdotsizeEA/L/7_Ratio_500_L_10_R_5.png","img/900/equaldotsize/R/5_Ratio_900_L_9_R_10.png","img/250/equaldotanddens/L/2_Ratio_250_L_16_R_4.png","img/750/randomdotsizeEA/L/14_Ratio_750_L_8_R_6.png","img/250/equaldotsize/L/14_Ratio_250_L_12_R_3.png","img/250/equaldotanddens/L/15_Ratio_250_L_12_R_3.png","img/750/equaldotanddens/R/5_Ratio_750_L_15_R_20.png","img/250/randomdotsizeEA/R/11_Ratio_250_L_3_R_12.png","img/500/equaldotsize/L/5_Ratio_500_L_4_R_2.png","img/900/randomdotsizeEA/L/8_Ratio_900_L_20_R_18.png","img/500/equaldotanddens/R/12_Ratio_500_L_1_R_2.png","img/250/equaldotsize/L/7_Ratio_250_L_8_R_2.png","img/500/randomdotsizeEA/R/14_Ratio_500_L_5_R_10.png","img/900/equaldotsize/L/8_Ratio_900_L_20_R_18.png","img/250/randomdotsizeEA/L/5_Ratio_250_L_24_R_6.png","img/500/randomdotsizeEA/R/3_Ratio_500_L_10_R_20.png","img/500/equaldotanddens/R/12_Ratio_500_L_1_R_2.png","img/900/equaldotanddens/R/5_Ratio_900_L_9_R_10.png","img/500/equaldotsize/L/5_Ratio_500_L_4_R_2.png","img/900/equaldotanddens/L/8_Ratio_900_L_20_R_18.png","img/750/randomdotsizeEA/L/8_Ratio_750_L_4_R_3.png","img/900/randomdotsizeEA/R/9_Ratio_900_L_18_R_20.png","img/500/randomdotsizeEA/R/15_Ratio_500_L_1_R_2.png","img/750/randomdotsizeEA/L/13_Ratio_750_L_8_R_6.png","img/250/equaldotsize/L/5_Ratio_250_L_24_R_6.png","img/250/randomdotsizeEA/L/15_Ratio_250_L_12_R_3.png","img/250/equaldotanddens/R/10_Ratio_250_L_4_R_16.png","img/250/equaldotsize/L/1_Ratio_250_L_8_R_2.png","img/250/equaldotsize/L/7_Ratio_250_L_8_R_2.png","img/900/equaldotsize/L/4_Ratio_900_L_20_R_18.png","img/250/randomdotsizeEA/R/10_Ratio_250_L_4_R_16.png","img/900/randomdotsizeEA/R/12_Ratio_900_L_18_R_20.png","img/750/equaldotanddens/L/14_Ratio_750_L_8_R_6.png","img/250/randomdotsizeEA/L/2_Ratio_250_L_16_R_4.png","img/900/equaldotsize/L/10_Ratio_900_L_20_R_18.png","img/250/equaldotsize/L/1_Ratio_250_L_8_R_2.png","img/750/equaldotsize/R/5_Ratio_750_L_15_R_20.png","img/250/equaldotsize/L/7_Ratio_250_L_8_R_2.png","img/750/equaldotsize/L/10_Ratio_750_L_4_R_3.png","img/750/randomdotsizeEA/L/9_Ratio_750_L_4_R_3.png","img/750/randomdotsizeEA/R/4_Ratio_750_L_15_R_20.png","img/500/randomdotsizeEA/R/1_Ratio_500_L_9_R_18.png","img/250/equaldotanddens/L/2_Ratio_250_L_16_R_4.png","img/500/equaldotsize/L/5_Ratio_500_L_4_R_2.png","img/750/equaldotanddens/R/3_Ratio_750_L_15_R_20.png","img/900/equaldotanddens/L/1_Ratio_900_L_10_R_9.png","img/750/equaldotsize/L/13_Ratio_750_L_8_R_6.png","img/750/equaldotsize/R/11_Ratio_750_L_12_R_16.png","img/900/equaldotanddens/R/7_Ratio_900_L_9_R_10.png","img/500/equaldotanddens/L/5_Ratio_500_L_4_R_2.png","img/500/equaldotanddens/L/4_Ratio_500_L_18_R_9.png","img/500/equaldotanddens/L/10_Ratio_500_L_4_R_2.png","img/500/equaldotanddens/R/6_Ratio_500_L_9_R_18.png","img/750/equaldotanddens/L/1_Ratio_750_L_20_R_15.png"],"Rat0":[["12_Ratio_0_L_9_R_0.png","13_Ratio_0_L_6_R_0.png","5_Ratio_0_L_2_R_0.png","6_Ratio_0_L_4_R_0.png","8_Ratio_0_L_6_R_0.png"],["1_Ratio_0_L_0_R_17.png","10_Ratio_0_L_0_R_22.png","11_Ratio_0_L_0_R_1.png","14_Ratio_0_L_0_R_24.png","15_Ratio_0_L_0_R_4.png","2_Ratio_0_L_0_R_5.png","3_Ratio_0_L_0_R_17.png","4_Ratio_0_L_0_R_7.png","7_Ratio_0_L_0_R_19.png","9_Ratio_0_L_0_R_15.png"]],"Rat250":[["1_Ratio_250_L_8_R_2.png","14_Ratio_250_L_12_R_3.png","15_Ratio_250_L_12_R_3.png","2_Ratio_250_L_16_R_4.png","3_Ratio_250_L_8_R_2.png","5_Ratio_250_L_24_R_6.png","7_Ratio_250_L_8_R_2.png"],["10_Ratio_250_L_4_R_16.png","11_Ratio_250_L_3_R_12.png","12_Ratio_250_L_5_R_20.png","13_Ratio_250_L_2_R_8.png","4_Ratio_250_L_3_R_12.png","6_Ratio_250_L_6_R_24.png","8_Ratio_250_L_1_R_4.png","9_Ratio_250_L_3_R_12.png"]],"Rat500":[["10_Ratio_500_L_4_R_2.png","11_Ratio_500_L_12_R_6.png","13_Ratio_500_L_12_R_6.png","4_Ratio_500_L_18_R_9.png","5_Ratio_500_L_4_R_2.png","7_Ratio_500_L_10_R_5.png","8_Ratio_500_L_8_R_4.png"],["1_Ratio_500_L_9_R_18.png","12_Ratio_500_L_1_R_2.png","14_Ratio_500_L_5_R_10.png","15_Ratio_500_L_1_R_2.png","2_Ratio_500_L_3_R_6.png","3_Ratio_500_L_10_R_20.png","6_Ratio_500_L_9_R_18.png","9_Ratio_500_L_2_R_4.png"]],"Rat750":[["1_Ratio_750_L_20_R_15.png","10_Ratio_750_L_4_R_3.png","13_Ratio_750_L_8_R_6.png","14_Ratio_750_L_8_R_6.png","6_Ratio_750_L_24_R_18.png","8_Ratio_750_L_4_R_3.png","9_Ratio_750_L_4_R_3.png"],["11_Ratio_750_L_12_R_16.png","12_Ratio_750_L_3_R_4.png","15_Ratio_750_L_9_R_12.png","2_Ratio_750_L_6_R_8.png","3_Ratio_750_L_15_R_20.png","4_Ratio_750_L_15_R_20.png","5_Ratio_750_L_15_R_20.png","7_Ratio_750_L_3_R_4.png"]],"Rat900":[["1_Ratio_900_L_10_R_9.png","10_Ratio_900_L_20_R_18.png","2_Ratio_900_L_20_R_18.png","4_Ratio_900_L_20_R_18.png","8_Ratio_900_L_20_R_18.png"],["11_Ratio_900_L_18_R_20.png","12_Ratio_900_L_18_R_20.png","13_Ratio_900_L_18_R_20.png","14_Ratio_900_L_18_R_20.png","15_Ratio_900_L_9_R_10.png","3_Ratio_900_L_9_R_10.png","5_Ratio_900_L_9_R_10.png","6_Ratio_900_L_9_R_10.png","7_Ratio_900_L_9_R_10.png","9_Ratio_900_L_18_R_20.png"]],"Rat1000":[["10_Ratio_1000_L_16_R_16.png","11_Ratio_1000_L_6_R_6.png","12_Ratio_1000_L_14_R_14.png","13_Ratio_1000_L_20_R_20.png","15_Ratio_1000_L_15_R_15.png","2_Ratio_1000_L_17_R_17.png","4_Ratio_1000_L_9_R_9.png","5_Ratio_1000_L_6_R_6.png","6_Ratio_1000_L_19_R_19.png","8_Ratio_1000_L_14_R_14.png","9_Ratio_1000_L_25_R_25.png"],["1_Ratio_1000_L_1_R_1.png","14_Ratio_1000_L_17_R_17.png","3_Ratio_1000_L_17_R_17.png","7_Ratio_1000_L_6_R_6.png"]]}},{"start_time":1552074868436,"click_time":1552074869952,"finger_time":1552074869071,"fix_duration":1204.910678431007,"trial":1,"RT":635,"MT":881,"sideResp":1,"stimulus":"img/750/equaldotanddens/L/14_Ratio_750_L_8_R_6.png","xmouse":[778,778,778,778,778,778,778,778,778,778,778,778,778,778,778,778,778,778,778,778,778,778,778,778,778,778,778,778,778,778,774,766,759,750,736,730,724,718,699,683,659,626,586,452,427,371,350,338,320,320,320,320,320,320,320,321,323,331,347,355,366,373,380,388,391,393,394,395,399,402,406,413,417,419,422,427],"ymouse":[513,513,513,513,513,513,513,513,513,513,513,513,513,513,513,513,513,513,513,513,513,513,513,513,513,513,513,513,513,499,480,463,448,432,409,398,390,378,349,328,300,268,236,139,120,81,63,51,37,36,36,36,36,36,34,32,31,28,28,28,28,28,29,31,31,31,31,31,30,30,30,30,30,30,30,30],"timestamp_mouse":[16,36,57,77,96,116,136,157,177,195,217,236,256,275,297,316,336,356,377,397,417,436,456,477,497,515,537,557,577,596,616,635,657,676,697,716,736,756,776,796,817,836,857,876,896,916,937,956,976,997,1017,1036,1057,1076,1097,1116,1136,1156,1176,1196,1216,1236,1256,1276,1296,1317,1337,1356,1376,1396,1416,1436,1456,1476,1496,1516],"xSR":741.5,"ySR":469.95,"xT1":424.9,"yT1":0,"xT2":1058.1,"yT2":0,"toosoon":0,"cond_shown":"equaldotanddens","ratio_trial":750,"smaller_num":"6","larger_num":"8","correct_side":1,"subjID":"Juanita Alvarado 23","gender":"1","age":"9","school":"4"},{"start_time":1552074873683,"click_time":1552074876232,"finger_time":1552074874712,"fix_duration":990.2351826201091,"trial":2,"RT":1029,"MT":1520,"sideResp":2,"stimulus":"img/900/randomdotsizeEA/R/3_Ratio_900_L_9_R_10.png","xmouse":[784,784,784,784,784,784,784,784,784,784,784,784,784,784,784,784,784,784,784,784,784,784,784,784,784,784,784,784,784,784,784,784,784,784,784,784,784,784,784,784,784,784,784,784,784,784,784,784,788,792,825,871,960,983,993,998,998,998,998,998,998,998,1005,1010,1012,1014,1014,1017,1021,1027,1036,1045,1066,1071,1076,1078,1080,1082,1082,1082,1082,1082,1082,1082,1082,1082,1080,1078,1077,1075,1075,1071,1071,1071,1071,1070,1070,1070,1069,1069,1069,1069,1069,1069,1069,1069,1069,1069,1069,1069,1069,1069,1069,1069,1069,1069,1069,1069,1069,1070,1073,1076,1080,1080,1080,1081,1082,1099],"ymouse":[537,537,537,537,537,537,537,537,537,537,537,537,537,537,537,537,537,537,537,537,537,537,537,537,537,537,537,537,537,537,537,537,537,537,537,537,537,537,537,537,537,537,537,537,537,537,537,537,532,526,493,450,348,317,296,284,283,283,283,283,283,282,274,268,266,265,265,261,255,249,240,231,209,200,192,189,186,180,179,178,178,177,169,165,163,160,159,153,152,149,147,142,142,142,142,139,136,132,128,125,122,120,118,118,118,118,118,118,118,118,118,118,118,118,118,118,118,116,116,116,114,112,110,110,109,108,106,92],"timestamp_mouse":[9,30,50,69,90,108,130,150,170,190,209,230,249,270,290,310,330,350,370,389,410,430,450,469,489,509,529,550,569,589,608,629,650,670,690,709,729,749,769,789,810,829,849,870,890,910,930,950,970,989,1010,1029,1049,1069,1089,1110,1129,1149,1169,1189,1210,1229,1250,1270,1290,1310,1329,1349,1369,1389,1409,1429,1449,1469,1490,1509,1530,1549,1569,1590,1609,1629,1649,1668,1688,1709,1729,1749,1770,1789,1809,1830,1849,1869,1889,1909,1929,1949,1970,1989,2009,2028,2049,2069,2089,2110,2129,2149,2169,2189,2210,2229,2249,2270,2289,2310,2328,2348,2369,2389,2410,2429,2448,2469,2489,2508,2530,2549],"xSR":741.5,"ySR":469.95,"xT1":424.9,"yT1":0,"xT2":1058.1,"yT2":0,"toosoon":0,"cond_shown":"randomdotsizeEA","ratio_trial":900,"smaller_num":"9","larger_num":"10","correct_side":2,"subjID":"Juanita Alvarado 23","gender":"1","age":"9","school":"4"},{"start_time":1552074877638,"click_time":1552074880172,"finger_time":1552074878893,"fix_duration":305.0924224332586,"trial":3,"RT":1255,"MT":1279,"sideResp":1,"stimulus":"img/250/randomdotsizeEA/L/2_Ratio_250_L_16_R_4.png","xmouse":[824,824,826,827,828,829,830,830,830,830,830,830,830,830,830,830,830,830,830,830,830,830,830,830,830,830,830,830,830,830,830,830,830,830,830,830,830,830,830,830,830,830,830,831,831,831,831,831,831,831,831,831,831,831,831,833,833,833,833,833,835,835,835,835,835,834,831,829,824,818,807,802,795,789,771,759,751,739,724,698,678,669,660,652,635,625,619,610,604,587,572,563,551,538,516,505,493,480,471,454,446,438,427,419,394,383,376,375,375,375,375,375,375,375,376,379,382,384,388,400,405,409,411,413,416,421,425],"ymouse":[500,500,497,496,494,494,493,493,493,493,493,493,493,493,493,493,493,493,493,493,493,493,493,493,493,493,493,493,493,493,493,493,493,493,493,493,493,493,493,493,493,493,492,491,491,491,491,491,491,491,491,491,491,491,491,490,490,489,487,484,479,473,466,462,458,458,458,458,458,458,453,449,441,435,415,397,384,367,352,326,309,302,294,285,269,263,258,254,251,245,239,235,231,223,211,205,200,194,190,182,178,175,170,167,149,141,136,134,134,133,132,128,125,123,122,120,119,119,117,110,107,105,103,101,99,96,95],"timestamp_mouse":[14,33,55,74,95,114,134,155,174,195,215,235,253,273,295,315,334,355,375,394,414,434,453,474,495,515,535,555,575,594,615,634,655,675,695,715,735,754,775,794,815,835,854,875,894,915,935,954,974,995,1014,1035,1055,1074,1093,1114,1135,1154,1174,1195,1213,1233,1255,1274,1294,1313,1334,1354,1374,1394,1414,1434,1455,1475,1494,1514,1534,1554,1575,1594,1615,1634,1655,1674,1694,1714,1734,1755,1774,1794,1815,1834,1854,1874,1894,1914,1934,1954,1974,1994,2014,2034,2054,2074,2094,2114,2135,2155,2174,2195,2215,2234,2255,2274,2294,2314,2334,2354,2375,2394,2415,2434,2454,2475,2494,2514,2534],"xSR":741.5,"ySR":469.95,"xT1":424.9,"yT1":0,"xT2":1058.1,"yT2":0,"toosoon":0,"cond_shown":"randomdotsizeEA","ratio_trial":250,"smaller_num":"4","larger_num":"16","correct_side":1,"subjID":"Juanita Alvarado 23","gender":"1","age":"9","school":"4"},{"start_time":1552074882439,"click_time":1552074884813,"finger_time":1552074883532,"fix_duration":385.24315274418916,"trial":4,"RT":1093,"MT":1281,"sideResp":2,"stimulus":"img/900/randomdotsizeEA/R/13_Ratio_900_L_18_R_20.png","xmouse":[768,768,768,768,768,768,768,768,768,768,768,768,768,768,768,768,768,768,768,768,768,768,768,768,768,768,768,768,768,768,768,768,768,768,768,768,768,770,770,771,772,773,775,778,780,788,791,794,796,801,809,816,823,836,846,871,884,899,934,963,1025,1045,1058,1066,1076,1092,1101,1110,1115,1117,1117,1117,1114,1110,1106,1100,1098,1095,1093,1093,1093,1093,1093,1093,1093,1093,1093,1093,1093,1093,1093,1093,1093,1093,1093,1093,1093,1093,1093,1093,1093,1093,1093,1093,1093,1091,1091,1091,1090,1090,1090,1090,1090,1090,1090,1090,1090,1090,1090],"ymouse":[530,530,530,530,530,530,530,530,530,530,530,530,530,530,530,530,530,530,530,530,530,530,530,530,530,530,530,530,530,530,530,530,530,530,530,530,530,530,530,528,526,523,521,517,514,506,502,497,495,492,486,481,477,472,467,456,450,443,425,409,373,361,350,344,334,312,300,278,264,247,221,206,190,177,164,141,134,124,121,120,120,120,120,120,120,120,120,120,120,120,120,120,120,120,120,120,120,120,120,120,120,120,120,120,117,108,103,102,101,100,100,100,100,100,100,100,100,100,98],"timestamp_mouse":[16,33,54,74,94,113,134,153,174,194,214,233,254,273,294,314,333,354,373,393,413,434,454,473,493,514,534,554,573,594,614,633,654,673,694,713,732,753,773,793,813,834,854,873,893,913,934,953,973,993,1013,1033,1053,1074,1093,1113,1133,1153,1173,1193,1214,1233,1253,1272,1293,1313,1333,1353,1373,1393,1413,1433,1453,1473,1492,1513,1533,1553,1573,1594,1613,1634,1653,1674,1692,1712,1734,1753,1773,1794,1813,1833,1853,1874,1893,1913,1933,1954,1973,1994,2013,2033,2053,2073,2093,2113,2133,2153,2174,2194,2213,2233,2253,2274,2293,2313,2334,2353,2374],"xSR":741.5,"ySR":469.95,"xT1":424.9,"yT1":0,"xT2":1058.1,"yT2":0,"toosoon":0,"cond_shown":"randomdotsizeEA","ratio_trial":900,"smaller_num":"18","larger_num":"20","correct_side":2,"subjID":"Juanita Alvarado 23","gender":"1","age":"9","school":"4"},{"start_time":1552074886692,"click_time":1552074888313,"finger_time":1552074887632,"fix_duration":818.7920437729496,"trial":5,"RT":940,"MT":681,"sideResp":2,"stimulus":"img/900/equaldotanddens/R/6_Ratio_900_L_9_R_10.png","xmouse":[765,765,765,765,765,765,765,765,765,765,765,765,764,762,762,762,762,762,762,762,762,762,762,762,762,762,762,762,762,762,762,762,762,762,762,762,762,762,762,762,762,762,762,764,775,792,813,842,893,904,916,923,926,938,945,959,975,993,1027,1037,1046,1050,1053,1053,1053,1053,1053,1053,1053,1053,1053,1053,1053,1053,1053,1053,1053,1053,1065,1085,1102,1108],"ymouse":[545,545,545,545,545,545,545,545,545,545,545,545,545,546,546,546,546,546,546,546,546,546,546,546,546,546,546,546,546,546,546,546,546,546,546,546,546,546,546,546,546,546,546,545,535,523,513,498,470,461,453,449,446,433,426,414,401,383,335,316,298,280,259,210,174,158,147,144,142,142,142,141,140,137,136,136,135,134,121,108,101,99],"timestamp_mouse":[0,21,41,61,80,100,119,141,160,180,199,220,241,260,280,299,321,341,361,379,400,420,441,461,479,501,521,541,560,580,601,621,640,660,680,700,721,741,760,779,801,821,840,859,880,900,920,940,960,980,1000,1020,1040,1060,1080,1099,1120,1140,1159,1180,1200,1220,1240,1260,1280,1300,1321,1341,1359,1381,1400,1420,1441,1460,1481,1500,1520,1540,1560,1580,1601,1621],"xSR":741.5,"ySR":469.95,"xT1":424.9,"yT1":0,"xT2":1058.1,"yT2":0,"toosoon":0,"cond_shown":"equaldotanddens","ratio_trial":900,"smaller_num":"9","larger_num":"10","correct_side":2,"subjID":"Juanita Alvarado 23","gender":"1","age":"9","school":"4"},{"start_time":1552074890754,"click_time":1552074892072,"finger_time":1552074891333,"fix_duration":1361.3080026135171,"trial":6,"RT":579,"MT":739,"sideResp":1,"stimulus":"img/900/equaldotanddens/L/4_Ratio_900_L_20_R_18.png","xmouse":[826,826,826,826,826,826,826,826,826,826,826,826,826,826,826,826,826,826,826,826,826,826,826,826,826,826,827,830,834,835,836,836,836,833,822,814,802,790,772,758,722,702,683,666,657,638,629,623,617,616,612,606,594,579,561,542,537,532,521,515,512,512,512,509,509,501],"ymouse":[485,485,485,485,485,485,485,485,485,485,485,485,485,485,485,485,485,485,485,485,485,485,485,485,485,485,482,478,466,460,436,427,418,398,343,309,273,241,206,190,162,150,139,132,128,126,125,125,123,123,122,122,121,118,115,111,109,108,106,105,104,104,104,103,103,97],"timestamp_mouse":[20,38,58,79,99,117,137,159,179,198,218,238,258,278,299,319,339,358,379,398,419,439,459,479,499,519,538,557,579,598,618,638,658,678,699,717,738,758,778,798,819,838,859,878,899,918,938,958,977,999,1019,1038,1058,1078,1097,1118,1138,1158,1179,1198,1218,1237,1259,1278,1299,1318],"xSR":741.5,"ySR":469.95,"xT1":424.9,"yT1":0,"xT2":1058.1,"yT2":0,"toosoon":0,"cond_shown":"equaldotanddens","ratio_trial":900,"smaller_num":"18","larger_num":"20","correct_side":1,"subjID":"Juanita Alvarado 23","gender":"1","age":"9","school":"4"},{"start_time":1552074895861,"click_time":1552074896992,"finger_time":1552074896512,"fix_duration":1006.4383568571952,"trial":7,"RT":651,"MT":480,"sideResp":1,"stimulus":"img/900/equaldotanddens/L/10_Ratio_900_L_20_R_18.png","xmouse":[774,774,774,774,774,774,774,774,774,774,774,774,774,774,774,774,774,774,774,774,774,774,774,774,774,774,774,774,774,772,759,752,739,722,704,676,669,660,648,625,610,601,598,597,597,594,591,585,577,570,565,557,551,547,542,529,518],"ymouse":[539,539,539,539,539,539,539,539,539,539,539,539,539,539,539,539,539,539,539,539,539,539,539,539,539,539,539,539,531,527,500,491,479,464,443,398,369,319,263,187,141,122,117,115,115,102,92,81,71,66,65,65,64,62,62,62,62],"timestamp_mouse":[14,31,52,72,90,112,132,152,172,190,212,232,251,272,292,311,332,351,372,391,412,432,450,472,492,511,531,551,571,591,610,631,651,671,692,711,731,752,772,791,811,832,851,872,891,911,930,951,971,992,1011,1031,1051,1072,1092,1111,1131],"xSR":741.5,"ySR":469.95,"xT1":424.9,"yT1":0,"xT2":1058.1,"yT2":0,"toosoon":0,"cond_shown":"equaldotanddens","ratio_trial":900,"smaller_num":"18","larger_num":"20","correct_side":1,"subjID":"Juanita Alvarado 23","gender":"1","age":"9","school":"4"},{"start_time":1552074899556,"click_time":1552074901392,"finger_time":1552074900792,"fix_duration":821.6102144532186,"trial":8,"RT":1236,"MT":600,"sideResp":2,"stimulus":"img/750/equaldotanddens/R/12_Ratio_750_L_3_R_4.png","xmouse":[782,782,782,782,782,782,782,782,782,782,782,782,782,782,782,782,781,781,781,780,779,779,779,779,779,779,779,777,776,776,776,776,776,776,776,776,776,776,776,776,776,776,776,776,776,776,776,776,776,776,776,776,776,775,774,773,772,772,772,772,772,779,792,804,830,854,898,915,928,939,950,971,982,996,1013,1023,1034,1041,1045,1050,1063,1067,1072,1073,1078,1079,1082,1084,1085,1087,1088,1091],"ymouse":[517,517,517,517,517,517,517,517,517,517,517,517,517,517,517,517,516,516,516,515,515,514,514,514,514,514,514,514,513,513,513,513,513,513,513,513,513,513,513,513,513,513,513,513,513,513,513,513,513,513,513,513,513,511,509,506,499,494,488,481,474,447,414,399,357,323,266,245,228,217,207,190,181,170,156,150,142,138,135,133,125,123,121,119,117,116,112,110,107,105,101,93],"timestamp_mouse":[22,36,57,77,96,116,135,156,177,196,216,237,256,276,296,316,335,356,377,397,416,436,455,476,495,517,536,556,576,596,617,637,657,676,696,716,737,756,777,796,816,837,856,876,897,916,937,956,977,997,1015,1036,1056,1076,1097,1116,1137,1156,1176,1196,1215,1236,1256,1276,1296,1315,1336,1356,1375,1395,1417,1436,1457,1476,1496,1516,1536,1556,1575,1597,1617,1637,1657,1676,1696,1716,1737,1756,1777,1795,1817,1835],"xSR":741.5,"ySR":469.95,"xT1":424.9,"yT1":0,"xT2":1058.1,"yT2":0,"toosoon":0,"cond_shown":"equaldotanddens","ratio_trial":750,"smaller_num":"3","larger_num":"4","correct_side":2,"subjID":"Juanita Alvarado 23","gender":"1","age":"9","school":"4"},{"start_time":1552074903933,"click_time":1552074906333,"finger_time":1552074904691,"fix_duration":1201.5699000900152,"trial":9,"RT":758,"MT":1642,"sideResp":2,"stimulus":"img/900/randomdotsizeEA/L/8_Ratio_900_L_20_R_18.png","xmouse":[807,807,807,807,807,807,807,807,807,807,807,807,807,807,807,807,807,807,807,807,807,807,807,807,807,807,807,807,807,809,809,809,809,809,809,804,793,773,769,765,761,754,725,692,668,638,610,586,547,534,527,518,514,511,510,510,509,509,509,509,509,509,509,509,509,509,509,509,509,509,509,509,509,509,509,517,538,602,623,637,647,654,680,717,758,801,825,860,876,892,911,925,951,968,981,992,999,1012,1015,1015,1015,1015,1015,1015,1015,1015,1015,1015,1015,1015,1015,1015,1021,1023,1024,1029,1033,1045,1050,1060],"ymouse":[526,526,525,525,525,525,525,525,525,525,525,525,525,525,525,525,525,525,525,525,525,525,525,525,525,525,525,525,524,521,520,516,508,502,495,484,476,467,464,461,458,453,434,409,388,363,336,309,256,229,208,192,180,156,149,146,144,143,143,142,140,138,132,129,127,126,125,125,125,125,125,125,125,125,125,124,127,145,152,154,155,157,157,145,124,108,102,89,85,80,73,70,66,61,60,59,59,59,59,59,59,59,59,59,59,59,59,59,59,59,59,59,59,59,59,59,59,60,61,63],"timestamp_mouse":[19,39,60,79,99,119,139,159,180,200,219,239,259,280,300,320,339,359,379,400,420,439,459,479,500,520,540,559,578,598,619,640,659,680,699,719,739,758,778,799,819,840,858,879,899,918,938,959,979,999,1019,1039,1059,1079,1099,1119,1139,1160,1180,1200,1219,1239,1259,1280,1299,1320,1339,1359,1379,1400,1419,1439,1459,1479,1498,1518,1539,1559,1579,1600,1619,1639,1659,1680,1699,1719,1738,1759,1779,1800,1819,1839,1859,1880,1899,1920,1939,1960,1980,1999,2020,2039,2059,2080,2099,2119,2139,2159,2180,2200,2219,2238,2259,2279,2299,2319,2339,2359,2378,2400],"xSR":741.5,"ySR":469.95,"xT1":424.9,"yT1":0,"xT2":1058.1,"yT2":0,"toosoon":0,"cond_shown":"randomdotsizeEA","ratio_trial":900,"smaller_num":"18","larger_num":"20","correct_side":1,"subjID":"Juanita Alvarado 23","gender":"1","age":"9","school":"4"},{"start_time":1552074910028,"click_time":1552074911512,"finger_time":1552074910752,"fix_duration":1234.2262702673588,"trial":10,"RT":724,"MT":760,"sideResp":2,"stimulus":"img/250/equaldotsize/R/10_Ratio_250_L_4_R_16.png","xmouse":[763,763,763,763,763,763,763,763,763,763,763,763,763,763,763,763,763,763,763,763,763,763,763,763,763,763,763,763,763,763,764,764,766,777,799,815,833,872,893,924,933,937,942,950,970,985,1009,1030,1056,1149,1176,1195,1201,1206,1211,1213,1216,1218,1218,1219,1217,1213,1211,1208,1203,1200,1192,1188,1177,1151,1136,1124,1117,1112,1104],"ymouse":[529,529,529,529,529,529,529,529,529,529,529,529,529,529,529,529,529,529,529,529,529,529,529,529,529,529,529,529,529,529,529,528,528,521,502,486,464,426,411,394,388,386,382,377,361,349,332,320,305,260,244,228,221,213,204,191,170,158,148,130,124,117,115,114,113,112,111,111,108,105,104,101,100,100,97],"timestamp_mouse":[7,24,45,65,84,104,125,144,164,184,204,224,244,264,284,305,325,345,365,383,405,425,445,465,484,504,525,545,564,584,604,625,643,663,683,705,724,744,764,784,804,824,843,865,884,904,924,944,964,984,1005,1024,1044,1064,1084,1105,1124,1144,1164,1185,1203,1224,1244,1264,1284,1304,1324,1344,1364,1385,1404,1424,1445,1465,1484],"xSR":741.5,"ySR":469.95,"xT1":424.9,"yT1":0,"xT2":1058.1,"yT2":0,"toosoon":0,"cond_shown":"equaldotsize","ratio_trial":250,"smaller_num":"4","larger_num":"16","correct_side":2,"subjID":"Juanita Alvarado 23","gender":"1","age":"9","school":"4"},{"start_time":1552074913557,"click_time":1552074914492,"finger_time":1552074914111,"fix_duration":984.3788834116556,"trial":11,"RT":554,"MT":381,"sideResp":1,"stimulus":"img/900/equaldotsize/L/1_Ratio_900_L_10_R_9.png","xmouse":[785,785,785,785,785,785,785,785,785,785,785,787,787,789,790,790,790,792,794,797,797,798,799,799,799,801,804,806,806,806,803,799,772,751,734,708,699,644,622,596,571,544,510,494,478,462,438],"ymouse":[502,502,502,502,502,502,502,502,502,502,502,502,502,502,502,502,502,502,501,499,498,498,496,495,493,491,482,461,449,434,420,404,371,356,341,307,297,222,202,186,172,157,135,124,112,101,88],"timestamp_mouse":[16,34,54,75,95,114,136,156,176,196,216,234,256,275,295,315,335,356,376,396,415,435,455,475,495,515,536,554,575,596,616,636,655,675,696,715,736,755,775,796,815,835,855,875,895,914,935],"xSR":741.5,"ySR":469.95,"xT1":424.9,"yT1":0,"xT2":1058.1,"yT2":0,"toosoon":0,"cond_shown":"equaldotsize","ratio_trial":900,"smaller_num":"9","larger_num":"10","correct_side":1,"subjID":"Juanita Alvarado 23","gender":"1","age":"9","school":"4"},{"start_time":1552074916543,"click_time":1552074918013,"finger_time":1552074917213,"fix_duration":250,"trial":12,"RT":670,"MT":800,"sideResp":1,"stimulus":"img/500/randomdotsizeEA/L/10_Ratio_500_L_4_R_2.png","xmouse":[796,796,796,796,796,796,796,796,796,796,796,796,796,796,794,794,793,793,793,793,793,793,793,793,793,793,793,793,794,799,806,818,830,853,865,875,889,911,934,1003,1065,1114,1147,1163,1178,1181,1181,1181,1179,1165,1155,1137,1112,1034,993,939,886,774,699,605,582,568,560,556,553,553,551,551,543,540,536,533,531,523],"ymouse":[528,528,528,528,528,528,528,528,528,528,528,528,528,528,531,533,534,534,534,534,534,534,534,534,534,534,534,534,534,534,530,517,503,476,466,453,440,422,408,362,325,299,279,268,249,241,235,225,220,207,203,200,197,180,169,155,134,102,82,59,52,49,47,47,46,46,46,46,44,44,44,42,42,42],"timestamp_mouse":[10,30,49,69,89,110,130,149,169,190,209,228,250,269,289,310,329,349,369,388,409,429,448,468,488,508,528,548,569,589,609,630,650,670,690,709,730,750,770,790,809,830,850,869,890,909,929,950,969,990,1010,1029,1050,1070,1090,1109,1130,1149,1168,1188,1210,1229,1248,1270,1290,1310,1328,1350,1370,1389,1408,1428,1448,1470],"xSR":741.5,"ySR":469.95,"xT1":424.9,"yT1":0,"xT2":1058.1,"yT2":0,"toosoon":0,"cond_shown":"randomdotsizeEA","ratio_trial":500,"smaller_num":"2","larger_num":"4","correct_side":1,"subjID":"Juanita Alvarado 23","gender":"1","age":"9","school":"4"},{"start_time":1552074919323,"click_time":1552074920513,"finger_time":1552074919493,"fix_duration":250,"trial":13,"RT":170,"MT":1020,"sideResp":1,"stimulus":"img/500/randomdotsizeEA/L/10_Ratio_500_L_4_R_2.png","xmouse":[839,839,839,839,839,839,839,841,842,842,842,842,844,844,844,844,844,845,845,845,845,844,844,844,844,844,844,843,843,843,843,843,843,843,845,848,848,822,796,775,719,689,672,659,646,614,604,604,604,604,604,604,604,604,604,604,604,604,604,504],"ymouse":[539,539,539,539,539,539,539,539,539,539,539,539,539,539,539,539,539,539,539,538,537,534,534,534,534,534,534,533,533,531,530,530,528,524,518,473,414,304,239,195,115,83,65,50,39,9,3,3,3,3,3,3,3,3,3,3,3,3,3,1],"timestamp_mouse":[9,29,49,69,90,109,129,149,170,190,210,229,250,269,290,310,330,349,369,389,409,430,449,468,488,509,528,548,569,588,609,628,649,670,689,708,729,750,770,791,810,828,849,869,891,909,930,950,970,990,1009,1029,1050,1070,1089,1109,1130,1150,1169,1190],"xSR":741.5,"ySR":469.95,"xT1":424.9,"yT1":0,"xT2":1058.1,"yT2":0,"toosoon":0,"cond_shown":"randomdotsizeEA","ratio_trial":500,"smaller_num":"2","larger_num":"4","correct_side":1,"subjID":"Juanita Alvarado 23","gender":"1","age":"9","school":"4"},{"start_time":1552074922835,"click_time":1552074924591,"finger_time":1552074923453,"fix_duration":803.7664104767019,"trial":14,"RT":618,"MT":1138,"sideResp":2,"stimulus":"img/900/equaldotsize/R/11_Ratio_900_L_18_R_20.png","xmouse":[786,786,786,786,786,786,786,786,786,786,786,786,786,786,786,786,786,786,786,787,789,790,791,792,793,795,795,797,803,810,898,936,954,964,967,967,967,966,963,959,959,959,958,958,958,958,957,957,964,973,1008,1018,1025,1032,1039,1042,1042,1044,1044,1044,1044,1044,1044,1044,1044,1044,1044,1044,1044,1044,1044,1044,1044,1044,1044,1044,1044,1044,1044,1044,1044,1044,1045,1045,1046,1049,1057,1070],"ymouse":[514,514,514,514,514,514,514,514,514,514,514,514,514,515,515,515,515,515,514,514,511,509,507,506,505,502,501,499,491,483,405,372,353,333,307,297,289,282,274,269,269,267,267,267,267,267,265,260,251,239,197,182,168,152,132,123,112,101,86,59,55,53,53,53,53,53,53,53,53,53,53,53,53,53,53,53,53,53,53,53,53,53,53,53,53,54,57,62],"timestamp_mouse":[16,38,56,76,96,116,136,157,177,196,217,238,257,276,296,317,336,357,377,396,416,436,457,476,497,517,536,556,577,596,618,636,656,676,696,716,737,756,776,797,816,836,856,876,896,916,937,958,976,996,1017,1036,1056,1076,1097,1116,1137,1156,1176,1196,1216,1237,1257,1278,1296,1316,1336,1357,1377,1397,1418,1436,1457,1477,1497,1517,1536,1556,1576,1596,1616,1636,1656,1676,1697,1717,1737,1756],"xSR":741.5,"ySR":469.95,"xT1":424.9,"yT1":0,"xT2":1058.1,"yT2":0,"toosoon":0,"cond_shown":"equaldotsize","ratio_trial":900,"smaller_num":"18","larger_num":"20","correct_side":2,"subjID":"Juanita Alvarado 23","gender":"1","age":"9","school":"4"},{"start_time":1552074926185,"click_time":1552074927452,"finger_time":1552074926751,"fix_duration":453.2255197038418,"trial":15,"RT":566,"MT":701,"sideResp":2,"stimulus":"img/750/randomdotsizeEA/R/11_Ratio_750_L_12_R_16.png","xmouse":[816,816,816,816,816,816,816,816,816,816,816,816,816,816,816,816,816,816,816,817,817,818,819,820,821,822,822,823,828,836,839,842,842,842,840,840,840,840,843,849,861,872,888,917,929,949,968,988,1015,1023,1028,1035,1040,1054,1062,1068,1075,1079,1087,1093,1099,1104,1106,1111],"ymouse":[513,513,513,513,513,513,513,513,513,513,513,513,513,513,513,513,512,511,509,508,507,506,502,499,496,491,486,480,461,432,421,392,379,362,358,355,351,342,335,326,313,303,293,276,269,261,253,245,233,229,224,220,215,201,190,179,171,164,148,138,123,116,109,92],"timestamp_mouse":[6,27,47,68,86,106,127,147,166,187,207,228,247,266,287,307,327,346,367,386,406,427,447,468,486,507,526,546,566,586,606,627,646,666,686,706,727,748,766,786,806,827,846,867,886,906,926,947,966,988,1006,1026,1046,1066,1086,1106,1127,1146,1168,1186,1206,1226,1246,1267],"xSR":741.5,"ySR":469.95,"xT1":424.9,"yT1":0,"xT2":1058.1,"yT2":0,"toosoon":0,"cond_shown":"randomdotsizeEA","ratio_trial":750,"smaller_num":"12","larger_num":"16","correct_side":2,"subjID":"Juanita Alvarado 23","gender":"1","age":"9","school":"4"},{"start_time":1552074929357,"click_time":1552074930691,"finger_time":1552074929951,"fix_duration":784.1184597811413,"trial":16,"RT":594,"MT":740,"sideResp":1,"stimulus":"img/900/equaldotanddens/L/4_Ratio_900_L_20_R_18.png","xmouse":[832,832,832,832,832,832,832,831,831,830,829,828,828,828,822,818,811,804,799,795,791,789,789,789,788,787,786,784,781,764,731,679,602,524,416,396,386,381,378,374,373,370,368,367,365,365,365,365,365,365,369,372,376,383,396,396,396,396,399,404,408,409,410,412,420,424,427],"ymouse":[496,496,496,496,496,496,496,496,496,496,496,495,495,495,494,492,491,489,486,485,484,484,484,483,482,482,481,477,472,450,423,388,345,293,215,192,176,164,153,139,128,121,113,107,97,97,96,96,94,93,91,91,91,91,91,91,91,91,89,88,87,87,87,85,81,80,80],"timestamp_mouse":[14,35,56,74,95,115,135,154,174,195,214,234,254,274,295,314,334,354,375,394,414,435,455,475,495,514,535,554,574,594,615,634,654,674,694,714,734,754,774,794,814,834,854,874,894,915,934,954,975,994,1014,1034,1054,1074,1094,1114,1135,1154,1174,1194,1215,1236,1255,1274,1294,1315,1334],"xSR":741.5,"ySR":469.95,"xT1":424.9,"yT1":0,"xT2":1058.1,"yT2":0,"toosoon":0,"cond_shown":"equaldotanddens","ratio_trial":900,"smaller_num":"18","larger_num":"20","correct_side":1,"subjID":"Juanita Alvarado 23","gender":"1","age":"9","school":"4"},{"start_time":1552074935090,"click_time":1552074936572,"finger_time":1552074935951,"fix_duration":637.985636372859,"trial":17,"RT":861,"MT":621,"sideResp":2,"stimulus":"img/750/equaldotanddens/R/7_Ratio_750_L_3_R_4.png","xmouse":[797,797,797,797,797,797,797,797,797,797,797,797,797,797,797,797,797,797,797,797,797,797,797,797,797,797,797,797,797,797,797,797,797,797,797,797,797,797,797,799,802,807,826,843,868,880,892,902,918,960,966,982,988,994,1011,1023,1031,1037,1040,1047,1047,1047,1051,1053,1059,1062,1063,1065,1066,1069,1073,1076,1078,1079,1081],"ymouse":[530,530,530,530,530,530,530,530,530,530,530,530,530,529,527,527,526,525,524,522,522,522,522,522,522,522,522,522,522,522,522,522,522,522,522,522,522,522,522,518,515,506,480,465,446,432,419,406,383,331,324,307,300,295,272,256,241,227,218,205,203,199,193,189,174,165,159,153,150,139,129,120,111,105,95],"timestamp_mouse":[6,21,41,62,82,101,122,142,162,182,202,222,242,261,282,301,321,342,362,381,402,421,441,461,481,502,522,542,561,581,601,621,642,663,681,703,722,741,762,781,801,821,842,861,883,902,921,941,961,981,1001,1021,1042,1061,1081,1103,1122,1141,1161,1181,1201,1221,1242,1262,1282,1301,1322,1341,1362,1381,1401,1422,1442,1462,1482],"xSR":741.5,"ySR":469.95,"xT1":424.9,"yT1":0,"xT2":1058.1,"yT2":0,"toosoon":0,"cond_shown":"equaldotanddens","ratio_trial":750,"smaller_num":"3","larger_num":"4","correct_side":2,"subjID":"Juanita Alvarado 23","gender":"1","age":"9","school":"4"},{"start_time":1552074940711,"click_time":1552074942692,"finger_time":1552074941591,"fix_duration":576.2093550358647,"trial":18,"RT":880,"MT":1101,"sideResp":1,"stimulus":"img/750/equaldotsize/L/1_Ratio_750_L_20_R_15.png","xmouse":[756,756,756,756,756,756,756,756,756,756,756,756,756,756,755,755,755,755,755,755,755,755,755,755,755,755,755,755,755,755,755,755,755,755,755,755,755,755,755,755,755,755,755,752,749,743,733,718,695,660,648,642,639,637,630,625,617,609,600,583,575,571,569,561,558,556,553,551,547,544,541,537,533,522,519,513,505,492,464,412,390,378,376,376,376,376,378,379,380,382,386,391,398,411,415,418,420,422,424,426],"ymouse":[526,526,526,526,526,526,526,526,526,526,526,526,526,526,526,526,526,526,526,526,526,526,526,526,526,526,526,526,526,526,526,526,526,526,526,526,526,526,526,526,520,517,508,483,467,451,434,417,392,358,344,334,332,330,327,326,323,318,312,295,285,268,244,185,159,144,136,132,129,129,127,126,126,125,124,122,122,119,107,85,75,67,66,65,65,63,61,61,59,58,57,55,52,48,47,45,45,43,43,43],"timestamp_mouse":[2,20,40,61,80,102,121,141,161,180,201,220,241,261,280,301,321,341,360,380,401,420,441,460,481,502,521,540,560,581,601,621,640,660,681,701,720,742,760,780,800,821,840,860,880,900,920,940,960,981,1002,1021,1040,1061,1082,1100,1120,1141,1160,1181,1201,1221,1240,1261,1280,1301,1321,1340,1361,1381,1400,1420,1440,1460,1481,1501,1520,1541,1560,1580,1602,1620,1642,1660,1681,1701,1720,1741,1761,1780,1800,1820,1840,1860,1881,1901,1920,1941,1961,1981],"xSR":741.5,"ySR":469.95,"xT1":424.9,"yT1":0,"xT2":1058.1,"yT2":0,"toosoon":0,"cond_shown":"equaldotsize","ratio_trial":750,"smaller_num":"15","larger_num":"20","correct_side":1,"subjID":"Juanita Alvarado 23","gender":"1","age":"9","school":"4"},{"start_time":1552074947205,"click_time":1552074948631,"finger_time":1552074948091,"fix_duration":413.0965478986171,"trial":19,"RT":886,"MT":540,"sideResp":2,"stimulus":"img/900/equaldotsize/L/8_Ratio_900_L_20_R_18.png","xmouse":[784,784,784,784,784,784,784,784,784,784,784,784,784,784,784,784,784,784,784,784,784,784,784,784,784,784,784,784,784,784,784,784,784,784,784,784,784,784,784,786,787,791,803,835,930,947,954,957,960,966,968,971,974,985,1032,1052,1064,1073,1076,1079,1083,1085,1086,1087,1091,1092,1094,1096,1099,1103,1107,1113],"ymouse":[534,534,534,534,534,534,534,534,537,539,539,539,539,539,539,539,539,539,539,539,539,539,539,539,539,539,539,539,539,539,539,539,539,539,539,539,539,539,539,537,534,530,518,483,407,389,370,354,339,319,306,293,284,267,226,209,202,195,193,191,187,184,182,181,175,171,165,159,152,131,103,76],"timestamp_mouse":[7,26,46,66,86,106,126,146,167,186,206,226,247,267,286,307,326,347,368,386,407,426,446,467,488,506,527,546,566,587,606,627,646,666,686,706,726,746,766,787,806,826,846,866,886,906,926,946,967,986,1007,1026,1046,1067,1086,1106,1126,1146,1167,1186,1207,1227,1247,1266,1286,1307,1327,1346,1366,1386,1407,1426],"xSR":741.5,"ySR":469.95,"xT1":424.9,"yT1":0,"xT2":1058.1,"yT2":0,"toosoon":0,"cond_shown":"equaldotsize","ratio_trial":900,"smaller_num":"18","larger_num":"20","correct_side":1,"subjID":"Juanita Alvarado 23","gender":"1","age":"9","school":"4"},{"start_time":1552074950443,"click_time":1552074951412,"finger_time":1552074950951,"fix_duration":250,"trial":20,"RT":508,"MT":461,"sideResp":1,"stimulus":"img/500/equaldotsize/L/10_Ratio_500_L_4_R_2.png","xmouse":[816,816,816,816,816,816,816,816,816,819,821,824,826,826,826,826,828,829,831,832,834,837,838,840,841,842,842,842,842,842,842,842,842,842,842,842,842,838,833,828,823,809,790,741,698,662,620,530,495],"ymouse":[500,500,500,500,500,500,500,500,500,499,498,496,494,494,494,494,493,493,492,492,490,488,487,485,483,482,482,482,482,482,482,482,479,475,469,461,452,415,397,372,338,294,253,189,148,117,86,34,19],"timestamp_mouse":[8,29,49,68,88,109,130,149,169,188,209,229,250,268,289,309,329,348,369,389,409,429,448,469,488,508,528,549,568,589,608,628,648,669,689,708,729,748,768,788,809,829,849,870,888,910,929,948,969],"xSR":741.5,"ySR":469.95,"xT1":424.9,"yT1":0,"xT2":1058.1,"yT2":0,"toosoon":0,"cond_shown":"equaldotsize","ratio_trial":500,"smaller_num":"2","larger_num":"4","correct_side":1,"subjID":"Juanita Alvarado 23","gender":"1","age":"9","school":"4"},{"start_time":1552074953452,"click_time":1552074954752,"finger_time":1552074954332,"fix_duration":479.4736690829011,"trial":21,"RT":880,"MT":420,"sideResp":1,"stimulus":"img/500/equaldotanddens/L/7_Ratio_500_L_10_R_5.png","xmouse":[792,792,793,793,793,793,793,793,793,793,793,793,793,793,793,793,793,793,793,793,793,793,793,793,793,793,793,793,793,793,793,793,794,797,797,798,798,798,799,799,799,799,799,794,779,745,731,718,706,704,703,702,697,681,669,649,636,623,594,575,554,535,515,485,476,466],"ymouse":[524,524,524,524,524,524,524,524,524,524,524,524,524,524,524,524,524,524,524,524,524,524,524,524,524,524,524,524,524,524,524,524,523,523,522,522,522,522,519,518,515,510,503,478,460,428,413,399,385,383,382,380,375,352,338,310,292,276,241,222,202,179,155,121,108,94],"timestamp_mouse":[1,20,40,60,79,100,120,141,159,180,200,220,239,259,279,300,319,341,359,380,400,420,441,460,479,500,520,540,560,581,600,620,639,659,680,699,721,739,759,779,800,821,840,861,880,900,920,939,960,979,999,1019,1040,1059,1080,1099,1119,1139,1160,1181,1200,1219,1240,1259,1280,1300],"xSR":741.5,"ySR":469.95,"xT1":424.9,"yT1":0,"xT2":1058.1,"yT2":0,"toosoon":0,"cond_shown":"equaldotanddens","ratio_trial":500,"smaller_num":"5","larger_num":"10","correct_side":1,"subjID":"Juanita Alvarado 23","gender":"1","age":"9","school":"4"},{"start_time":1552074962142,"click_time":1552074964531,"finger_time":1552074963892,"fix_duration":1110.257877400282,"trial":22,"RT":1750,"MT":639,"sideResp":2,"stimulus":"img/500/equaldotsize/L/13_Ratio_500_L_12_R_6.png","xmouse":[790,790,790,790,790,790,790,790,790,790,790,790,790,790,790,790,790,790,790,790,790,790,790,790,790,790,790,790,790,790,790,790,790,790,790,790,790,790,790,790,790,790,790,790,790,790,790,790,790,790,790,790,790,790,790,790,790,790,790,790,790,790,790,791,791,791,791,791,792,792,792,792,792,792,792,792,792,792,792,792,792,792,792,792,794,794,803,809,829,870,878,883,889,896,909,914,918,921,925,935,940,947,952,955,965,973,983,986,991,999,1004,1010,1015,1021,1032,1040,1044,1050,1055,1064],"ymouse":[544,544,544,544,544,544,544,544,544,544,544,544,544,544,544,544,544,544,544,544,543,542,539,536,530,529,529,529,529,529,527,526,522,520,520,520,519,518,518,518,518,518,518,518,518,518,518,518,518,518,518,518,518,518,518,518,518,518,518,518,518,518,518,516,516,516,516,515,514,511,510,509,509,509,508,508,508,508,508,508,508,508,508,508,506,503,479,457,409,301,261,231,206,185,153,138,120,109,100,91,88,86,83,82,78,74,72,72,70,70,70,70,70,70,70,70,70,70,70,70],"timestamp_mouse":[9,30,50,71,89,110,129,149,171,190,209,229,251,269,290,310,330,349,369,390,409,429,449,470,490,511,530,550,569,590,609,630,651,670,690,710,730,749,769,789,810,830,850,870,890,910,930,950,970,989,1009,1030,1050,1069,1090,1110,1129,1150,1170,1189,1209,1229,1250,1269,1290,1310,1329,1350,1369,1389,1409,1430,1449,1470,1489,1509,1529,1550,1569,1591,1610,1630,1650,1670,1689,1709,1731,1750,1770,1789,1810,1829,1849,1870,1889,1910,1930,1950,1971,1990,2009,2029,2049,2070,2089,2109,2131,2149,2169,2190,2210,2229,2249,2271,2289,2309,2329,2350,2371,2389],"xSR":741.5,"ySR":469.95,"xT1":424.9,"yT1":0,"xT2":1058.1,"yT2":0,"toosoon":0,"cond_shown":"equaldotsize","ratio_trial":500,"smaller_num":"6","larger_num":"12","correct_side":1,"subjID":"Juanita Alvarado 23","gender":"1","age":"9","school":"4"},{"start_time":1552074966675,"click_time":1552074968951,"finger_time":1552074966851,"fix_duration":1101.0323118497186,"trial":23,"RT":176,"MT":2100,"sideResp":2,"stimulus":"img/250/randomdotsizeEA/R/11_Ratio_250_L_3_R_12.png","xmouse":[790,790,790,790,790,790,790,793,806,809,814,822,828,828,828,828,828,828,828,828,828,828,828,828,828,828,828,828,829,820,809,792,770,762,747,728,708,675,667,661,652,647,641,639,638,633,628,626,620,619,619,617,617,617,617,617,617,617,617,617,617,617,617,617,617,617,617,617,617,617,617,619,619,621,626,634,651,771,855,958,1061,1134,1186,1232,1238,1245,1253,1259,1265,1266,1268,1268,1268,1262,1253,1242,1229,1179,1161,1145,1137,1134,1134,1134,1133,1133,1133,1133,1134,1134,1134,1134,1134,1130],"ymouse":[510,510,510,510,510,509,504,489,468,467,465,461,458,458,458,458,458,458,458,458,458,458,458,458,458,458,458,458,437,415,394,367,309,279,253,226,204,173,167,162,158,158,154,154,154,154,153,152,152,152,152,152,152,152,152,152,152,152,152,152,152,152,152,152,152,152,152,152,152,152,152,154,163,171,179,186,193,209,211,211,211,211,211,211,211,209,206,204,202,201,199,198,197,191,185,178,168,143,135,127,125,123,122,120,118,114,113,110,110,109,109,107,103,95],"timestamp_mouse":[16,38,57,76,97,116,137,156,176,196,217,237,257,276,298,318,336,356,376,396,417,436,456,476,497,516,536,556,576,596,617,636,657,676,696,717,736,757,776,796,817,836,857,877,896,917,936,956,977,996,1017,1037,1057,1077,1097,1117,1138,1157,1177,1196,1217,1237,1257,1277,1296,1316,1336,1356,1376,1396,1417,1436,1456,1476,1496,1517,1536,1556,1577,1596,1617,1637,1657,1676,1697,1717,1736,1756,1776,1796,1816,1837,1856,1876,1896,1916,1937,1956,1976,1996,2016,2038,2056,2076,2097,2116,2136,2156,2176,2196,2216,2237,2257,2276],"xSR":741.5,"ySR":469.95,"xT1":424.9,"yT1":0,"xT2":1058.1,"yT2":0,"toosoon":0,"cond_shown":"randomdotsizeEA","ratio_trial":250,"smaller_num":"3","larger_num":"12","correct_side":2,"subjID":"Juanita Alvarado 23","gender":"1","age":"9","school":"4"},{"start_time":1552074971012,"click_time":1552074972251,"finger_time":1552074971751,"fix_duration":959.3508205114031,"trial":24,"RT":739,"MT":500,"sideResp":1,"stimulus":"img/250/equaldotanddens/L/14_Ratio_250_L_12_R_3.png","xmouse":[805,805,805,805,805,805,805,805,805,805,805,805,805,805,805,805,805,805,805,805,805,805,805,805,805,805,805,805,805,805,805,807,807,807,807,803,775,764,718,691,670,652,649,648,647,647,643,641,633,628,621,606,596,582,573,559,542,533,528,526,525,523],"ymouse":[544,544,544,544,544,544,544,544,544,544,544,543,543,543,543,543,543,543,543,543,543,543,543,543,543,543,543,542,541,538,535,528,521,511,498,476,375,352,286,256,238,223,220,220,218,218,217,213,201,192,180,154,139,125,116,104,87,80,79,78,78,78],"timestamp_mouse":[20,40,59,79,99,120,140,159,179,200,220,239,260,279,300,319,340,360,380,400,419,439,460,479,501,519,539,559,579,599,620,640,660,680,699,720,739,760,780,800,819,839,859,879,900,919,939,960,980,1000,1021,1040,1059,1080,1099,1119,1139,1159,1180,1199,1220,1239],"xSR":741.5,"ySR":469.95,"xT1":424.9,"yT1":0,"xT2":1058.1,"yT2":0,"toosoon":0,"cond_shown":"equaldotanddens","ratio_trial":250,"smaller_num":"3","larger_num":"12","correct_side":1,"subjID":"Juanita Alvarado 23","gender":"1","age":"9","school":"4"},{"start_time":1552074975582,"click_time":1552074976852,"finger_time":1552074976571,"fix_duration":530.5261471829103,"trial":25,"RT":989,"MT":281,"sideResp":2,"stimulus":"img/900/equaldotsize/R/7_Ratio_900_L_9_R_10.png","xmouse":[804,804,804,804,804,804,804,803,801,801,801,801,801,801,801,801,801,801,801,801,801,801,801,801,801,801,801,801,801,801,801,801,801,801,801,801,801,801,801,801,801,801,802,802,804,807,812,824,841,955,1019,1056,1070,1080,1080,1080,1080,1083,1093,1098,1100,1103,1103,1100],"ymouse":[497,497,497,497,497,499,499,500,504,505,505,505,505,505,505,505,505,505,505,505,505,505,505,505,505,505,505,505,505,505,505,505,505,505,505,505,505,505,505,505,505,505,505,504,502,499,495,487,476,407,370,347,332,310,301,289,272,255,199,176,154,130,111,82],"timestamp_mouse":[9,29,50,70,90,110,129,150,169,189,210,230,250,270,289,310,330,349,371,390,410,429,450,471,489,510,530,549,570,589,610,630,650,669,690,709,730,750,769,791,809,829,849,869,890,909,930,950,969,989,1009,1030,1050,1070,1089,1110,1130,1149,1170,1191,1209,1229,1250,1270],"xSR":741.5,"ySR":469.95,"xT1":424.9,"yT1":0,"xT2":1058.1,"yT2":0,"toosoon":0,"cond_shown":"equaldotsize","ratio_trial":900,"smaller_num":"9","larger_num":"10","correct_side":2,"subjID":"Juanita Alvarado 23","gender":"1","age":"9","school":"4"},{"start_time":1552074978863,"click_time":1552074980411,"finger_time":1552074979571,"fix_duration":250,"trial":26,"RT":708,"MT":840,"sideResp":1,"stimulus":"img/900/randomdotsizeEA/R/14_Ratio_900_L_18_R_20.png","xmouse":[797,797,797,797,797,799,801,802,802,803,804,805,805,806,807,808,808,809,809,810,810,811,811,811,811,811,812,812,812,813,814,815,815,815,815,815,815,812,803,789,755,740,728,716,704,697,691,686,681,675,673,672,664,658,649,624,613,600,585,568,545,541,541,540,539,536,536,536,536,536,534,534,532,532,532,530,525,516],"ymouse":[502,502,502,502,502,502,501,501,500,498,497,497,496,495,495,495,494,494,493,492,491,491,491,490,490,490,490,490,489,488,487,486,484,483,480,469,462,451,435,418,381,370,359,344,324,314,305,293,278,258,201,182,166,160,156,141,130,119,110,102,92,92,92,91,91,91,91,91,91,91,90,90,90,90,90,89,87,86],"timestamp_mouse":[13,29,49,68,88,108,130,149,169,188,208,228,248,268,288,308,328,348,369,389,409,428,448,469,488,509,529,548,570,589,608,629,649,669,688,708,728,748,768,788,810,829,848,868,889,908,928,948,971,990,1008,1029,1049,1068,1088,1108,1128,1148,1169,1189,1208,1229,1249,1269,1288,1308,1328,1348,1369,1390,1409,1428,1448,1468,1488,1509,1530,1548],"xSR":741.5,"ySR":469.95,"xT1":424.9,"yT1":0,"xT2":1058.1,"yT2":0,"toosoon":0,"cond_shown":"randomdotsizeEA","ratio_trial":900,"smaller_num":"18","larger_num":"20","correct_side":2,"subjID":"Juanita Alvarado 23","gender":"1","age":"9","school":"4"},{"start_time":1552074982797,"click_time":1552074983831,"finger_time":1552074983472,"fix_duration":705.3199662346166,"trial":27,"RT":675,"MT":359,"sideResp":2,"stimulus":"img/250/equaldotsize/R/12_Ratio_250_L_5_R_20.png","xmouse":[800,800,800,800,800,800,800,800,800,800,800,800,800,800,800,800,800,800,800,800,800,800,800,802,802,802,802,802,802,802,803,803,805,814,825,853,904,959,1025,1038,1049,1056,1060,1072,1077,1079,1084,1092,1104,1113,1124,1136],"ymouse":[483,483,483,483,483,483,483,483,483,483,483,483,483,483,483,483,483,483,483,483,483,483,483,483,482,482,482,482,482,482,482,481,480,468,454,429,385,334,257,238,226,217,212,196,190,187,180,172,150,132,113,89],"timestamp_mouse":[15,35,55,74,94,115,135,155,175,194,215,236,254,274,295,315,335,355,374,395,415,434,454,475,494,514,535,554,575,595,615,635,655,675,694,715,734,755,775,794,815,834,854,874,894,914,934,955,974,994,1014,1034],"xSR":741.5,"ySR":469.95,"xT1":424.9,"yT1":0,"xT2":1058.1,"yT2":0,"toosoon":0,"cond_shown":"equaldotsize","ratio_trial":250,"smaller_num":"5","larger_num":"20","correct_side":2,"subjID":"Juanita Alvarado 23","gender":"1","age":"9","school":"4"},{"start_time":1552074987804,"click_time":1552074988851,"finger_time":1552074988591,"fix_duration":250,"trial":28,"RT":787,"MT":260,"sideResp":1,"stimulus":"img/750/randomdotsizeEA/R/11_Ratio_750_L_12_R_16.png","xmouse":[801,801,801,801,801,801,801,801,801,801,801,801,801,801,801,801,801,801,801,801,801,801,801,801,801,801,801,800,800,800,800,800,800,800,800,800,799,797,797,791,787,785,781,777,764,757,742,713,672,603,571,547,522],"ymouse":[509,509,509,509,509,509,509,509,509,509,509,507,505,505,505,505,505,505,505,505,505,505,505,505,505,505,505,504,504,504,504,504,504,504,503,500,496,487,476,448,432,413,383,356,305,280,251,216,185,147,128,115,96],"timestamp_mouse":[7,27,48,68,87,108,128,148,167,188,208,227,247,268,288,308,327,348,368,388,408,428,448,467,489,508,528,548,568,587,607,629,649,667,688,707,728,747,768,787,808,827,847,868,887,907,927,947,968,987,1007,1028,1047],"xSR":741.5,"ySR":469.95,"xT1":424.9,"yT1":0,"xT2":1058.1,"yT2":0,"toosoon":0,"cond_shown":"randomdotsizeEA","ratio_trial":750,"smaller_num":"12","larger_num":"16","correct_side":2,"subjID":"Juanita Alvarado 23","gender":"1","age":"9","school":"4"},{"start_time":1552074991368,"click_time":1552074992832,"finger_time":1552074992132,"fix_duration":494.6417956048695,"trial":29,"RT":764,"MT":700,"sideResp":2,"stimulus":"img/750/equaldotsize/R/11_Ratio_750_L_12_R_16.png","xmouse":[746,746,746,746,746,746,746,748,748,748,748,748,749,749,749,749,749,751,752,754,757,759,769,771,772,773,775,775,775,775,775,775,776,779,788,797,818,830,844,863,881,901,945,959,973,988,1013,1014,1016,1016,1016,1017,1017,1017,1017,1017,1017,1018,1018,1018,1019,1025,1026,1029,1033,1034,1038,1041,1045,1051,1063,1090,1117,1126],"ymouse":[528,528,528,528,528,528,528,529,529,529,529,529,530,530,530,530,530,530,530,530,530,530,526,525,525,524,524,524,524,524,524,524,524,521,517,513,505,499,491,480,467,452,416,402,387,369,324,300,277,257,245,228,226,224,222,220,217,215,214,212,209,200,198,196,195,194,193,191,185,168,153,134,110,98],"timestamp_mouse":[3,23,44,63,84,103,124,144,164,184,204,223,243,263,283,303,324,344,363,384,403,423,444,464,484,503,524,544,564,584,603,624,644,663,684,704,723,743,764,783,803,823,843,863,884,904,923,943,964,983,1003,1023,1044,1064,1084,1104,1123,1143,1164,1183,1203,1223,1244,1264,1283,1303,1323,1343,1363,1384,1403,1423,1443,1464],"xSR":741.5,"ySR":469.95,"xT1":424.9,"yT1":0,"xT2":1058.1,"yT2":0,"toosoon":0,"cond_shown":"equaldotsize","ratio_trial":750,"smaller_num":"12","larger_num":"16","correct_side":2,"subjID":"Juanita Alvarado 23","gender":"1","age":"9","school":"4"},{"start_time":1552074997821,"click_time":1552074999091,"finger_time":1552074998511,"fix_duration":1147.6314426711813,"trial":30,"RT":690,"MT":580,"sideResp":1,"stimulus":"img/250/randomdotsizeEA/L/7_Ratio_250_L_8_R_2.png","xmouse":[776,776,776,776,776,776,776,776,776,776,776,776,776,776,776,776,777,777,777,777,777,777,777,777,777,777,777,777,777,777,777,780,780,782,787,787,787,787,787,785,781,776,769,757,732,716,709,700,694,673,655,634,613,597,578,573,573,571,569,560,550,540,526,515],"ymouse":[486,486,486,486,486,486,486,486,486,486,486,486,486,486,486,486,486,486,486,486,486,486,486,486,486,486,486,486,486,486,486,484,483,478,459,452,444,437,427,409,396,385,369,354,323,301,288,271,255,216,183,149,118,101,79,76,76,76,76,75,74,74,74,74],"timestamp_mouse":[11,31,51,70,90,111,131,151,171,191,211,231,251,271,290,312,331,351,370,391,410,430,451,470,491,511,530,552,571,591,610,630,651,670,690,710,730,750,771,790,810,830,851,872,891,910,930,950,972,990,1011,1031,1051,1070,1091,1110,1130,1151,1171,1190,1210,1230,1251,1270],"xSR":741.5,"ySR":469.95,"xT1":424.9,"yT1":0,"xT2":1058.1,"yT2":0,"toosoon":0,"cond_shown":"randomdotsizeEA","ratio_trial":250,"smaller_num":"2","larger_num":"8","correct_side":1,"subjID":"Juanita Alvarado 23","gender":"1","age":"9","school":"4"},{"start_time":1552075003901,"click_time":1552075005831,"finger_time":1552075004611,"fix_duration":688.0839520907264,"trial":31,"RT":710,"MT":1220,"sideResp":2,"stimulus":"img/500/randomdotsizeEA/R/2_Ratio_500_L_3_R_6.png","xmouse":[763,763,763,763,763,763,763,763,763,763,763,763,763,763,763,763,763,763,763,763,763,763,763,763,763,763,763,763,763,763,766,772,776,781,784,790,792,795,797,797,797,798,798,799,800,801,805,806,806,805,799,785,779,775,769,768,763,760,758,756,756,756,756,756,756,756,758,758,767,775,805,823,844,863,883,901,952,995,1033,1072,1080,1081,1084,1088,1092,1099,1101,1102,1103,1105,1105,1105,1105,1105,1105,1102,1098],"ymouse":[493,493,493,493,493,493,493,493,493,493,493,493,493,493,493,493,493,493,493,493,493,493,493,493,493,493,493,493,493,493,493,489,485,480,475,462,456,450,447,445,445,444,442,441,439,435,418,406,390,363,346,322,316,310,306,303,300,299,298,297,297,297,297,297,297,297,297,297,295,293,281,274,265,259,251,244,224,208,189,172,169,168,167,162,158,154,151,149,148,145,141,141,139,134,128,117,93],"timestamp_mouse":[10,30,50,70,91,111,131,151,172,190,211,231,250,270,291,311,331,350,371,391,411,431,450,470,491,510,530,551,571,591,610,630,650,670,690,710,730,751,770,790,811,831,851,870,891,911,931,951,970,990,1010,1030,1051,1070,1091,1110,1131,1150,1171,1190,1211,1231,1250,1271,1290,1310,1330,1351,1370,1390,1411,1431,1450,1470,1490,1510,1530,1550,1570,1590,1612,1631,1650,1670,1690,1712,1730,1750,1770,1791,1811,1830,1851,1872,1890,1911,1930],"xSR":741.5,"ySR":469.95,"xT1":424.9,"yT1":0,"xT2":1058.1,"yT2":0,"toosoon":0,"cond_shown":"randomdotsizeEA","ratio_trial":500,"smaller_num":"3","larger_num":"6","correct_side":2,"subjID":"Juanita Alvarado 23","gender":"1","age":"9","school":"4"},{"start_time":1552075008255,"click_time":1552075009912,"finger_time":1552075008952,"fix_duration":1003.1154532183427,"trial":32,"RT":697,"MT":960,"sideResp":1,"stimulus":"img/750/equaldotsize/L/9_Ratio_750_L_4_R_3.png","xmouse":[794,794,794,794,794,794,794,794,794,794,794,794,794,794,794,794,794,794,794,794,794,794,794,794,794,794,794,794,794,794,794,797,797,799,799,799,799,799,799,799,799,798,795,791,788,782,775,766,743,717,699,674,651,618,609,608,606,605,600,599,597,592,586,570,559,547,535,528,528,528,528,528,528,528,528,528,528,528,528,520,507,496,486],"ymouse":[492,492,492,492,492,492,492,492,492,492,492,492,492,492,492,492,492,492,492,492,492,492,492,492,492,492,492,492,492,492,492,489,486,473,465,458,451,445,437,433,430,422,412,389,373,355,336,316,274,238,215,191,174,155,150,150,150,149,148,148,148,147,147,143,137,133,129,126,126,126,126,126,126,126,126,126,126,126,126,121,112,100,88],"timestamp_mouse":[16,38,57,77,96,117,137,156,178,197,216,237,257,277,297,316,338,357,377,397,417,437,457,476,497,516,537,557,578,597,616,636,656,676,697,717,736,756,776,796,817,836,858,876,896,916,937,956,976,997,1017,1037,1057,1076,1096,1116,1137,1156,1176,1196,1216,1237,1256,1276,1297,1316,1336,1357,1376,1396,1417,1437,1456,1476,1496,1516,1536,1556,1576,1597,1616,1637,1656],"xSR":741.5,"ySR":469.95,"xT1":424.9,"yT1":0,"xT2":1058.1,"yT2":0,"toosoon":0,"cond_shown":"equaldotsize","ratio_trial":750,"smaller_num":"3","larger_num":"4","correct_side":1,"subjID":"Juanita Alvarado 23","gender":"1","age":"9","school":"4"},{"start_time":1552075012155,"click_time":1552075013933,"finger_time":1552075012711,"fix_duration":1021.1571045969292,"trial":33,"RT":556,"MT":1222,"sideResp":1,"stimulus":"img/750/randomdotsizeEA/L/13_Ratio_750_L_8_R_6.png","xmouse":[787,787,787,787,787,787,787,787,787,787,787,787,787,787,787,787,787,787,787,787,787,787,787,790,792,795,799,802,808,810,811,811,803,663,531,387,387,387,387,387,387,387,387,387,387,387,387,387,387,387,387,387,387,387,387,387,387,387,253,278,285,290,300,331,352,371,385,388,390,391,391,391,391,391,395,398,400,402,404,407,409,409,411,412,413,413,414,414,425],"ymouse":[488,488,488,488,488,488,488,488,488,488,488,488,488,488,488,488,488,488,488,488,488,488,488,488,485,482,475,467,442,424,401,379,334,206,119,36,36,36,36,36,36,36,36,36,36,36,36,36,36,36,36,36,36,36,36,36,36,36,0,14,16,18,21,37,49,60,66,67,68,68,68,68,68,68,68,69,69,70,70,70,71,71,71,71,71,71,71,71,71],"timestamp_mouse":[16,36,57,76,97,117,137,157,176,197,216,237,257,277,297,316,336,357,377,397,417,436,457,477,496,517,536,556,577,597,617,637,656,677,696,716,737,756,777,796,816,836,856,877,897,916,936,956,977,996,1016,1036,1057,1077,1096,1116,1136,1157,1176,1196,1217,1237,1256,1278,1296,1317,1336,1356,1376,1396,1417,1436,1457,1477,1496,1516,1537,1557,1576,1597,1617,1636,1656,1676,1697,1717,1737,1756,1778],"xSR":741.5,"ySR":469.95,"xT1":424.9,"yT1":0,"xT2":1058.1,"yT2":0,"toosoon":0,"cond_shown":"randomdotsizeEA","ratio_trial":750,"smaller_num":"6","larger_num":"8","correct_side":1,"subjID":"Juanita Alvarado 23","gender":"1","age":"9","school":"4"},{"start_time":1552075016002,"click_time":1552075017711,"finger_time":1552075016611,"fix_duration":250,"trial":34,"RT":609,"MT":1100,"sideResp":2,"stimulus":"img/750/equaldotanddens/L/9_Ratio_750_L_4_R_3.png","xmouse":[783,783,783,783,783,783,783,783,783,783,783,783,783,783,783,783,783,783,783,783,783,783,783,783,783,783,784,789,794,794,798,801,806,809,816,821,821,821,800,774,725,680,630,624,622,622,622,618,618,617,617,617,617,617,617,617,617,626,643,668,691,715,747,761,775,785,797,825,835,847,856,867,890,896,904,911,921,938,953,962,970,981,1015,1033,1053,1070],"ymouse":[504,504,504,504,504,504,504,504,504,504,504,504,504,504,504,504,504,504,504,504,504,504,504,504,504,504,504,489,476,470,462,456,439,431,417,399,383,344,306,279,244,220,189,183,182,182,181,175,173,171,168,168,168,168,168,167,166,161,157,149,141,135,123,119,115,111,109,101,97,94,91,89,82,80,78,75,73,72,69,67,67,67,74,80,89,96],"timestamp_mouse":[10,29,51,69,90,110,130,149,170,190,210,230,249,270,290,310,329,349,369,389,409,429,449,469,489,510,530,549,569,590,609,630,649,670,690,709,729,749,769,790,809,829,849,869,889,909,929,949,969,990,1009,1030,1049,1069,1089,1109,1130,1149,1169,1189,1210,1229,1249,1269,1290,1310,1330,1349,1369,1389,1409,1429,1449,1469,1489,1510,1529,1549,1570,1589,1609,1630,1649,1670,1689,1709],"xSR":741.5,"ySR":469.95,"xT1":424.9,"yT1":0,"xT2":1058.1,"yT2":0,"toosoon":0,"cond_shown":"equaldotanddens","ratio_trial":750,"smaller_num":"3","larger_num":"4","correct_side":1,"subjID":"Juanita Alvarado 23","gender":"1","age":"9","school":"4"},{"start_time":1552075019562,"click_time":1552075020252,"finger_time":1552075020071,"fix_duration":250,"trial":35,"RT":509,"MT":181,"sideResp":1,"stimulus":"img/250/equaldotanddens/L/5_Ratio_250_L_24_R_6.png","xmouse":[793,793,793,793,793,793,793,793,793,793,793,793,793,793,793,793,793,793,793,793,793,793,793,790,788,781,773,769,763,741,729,701,665,623,519],"ymouse":[497,497,497,497,497,497,497,497,497,497,497,497,497,497,497,497,497,497,497,497,497,496,494,486,479,454,441,427,417,369,337,293,239,186,74],"timestamp_mouse":[12,30,50,71,90,109,130,149,170,190,209,229,249,269,290,310,330,350,371,390,410,429,450,470,489,509,529,550,570,592,610,629,649,670,689],"xSR":741.5,"ySR":469.95,"xT1":424.9,"yT1":0,"xT2":1058.1,"yT2":0,"toosoon":0,"cond_shown":"equaldotanddens","ratio_trial":250,"smaller_num":"6","larger_num":"24","correct_side":1,"subjID":"Juanita Alvarado 23","gender":"1","age":"9","school":"4"},{"start_time":1552075022222,"click_time":1552075024051,"finger_time":1552075022912,"fix_duration":250,"trial":36,"RT":690,"MT":1139,"sideResp":2,"stimulus":"img/250/equaldotsize/R/11_Ratio_250_L_3_R_12.png","xmouse":[790,790,790,790,790,790,790,790,790,790,790,790,790,790,790,790,790,790,790,790,790,790,790,790,790,790,790,790,790,790,790,790,790,792,826,879,969,1009,1033,1046,1054,1058,1068,1071,1079,1085,1089,1089,1089,1089,1087,1085,1084,1084,1084,1084,1083,1081,1081,1081,1081,1081,1081,1081,1081,1081,1081,1081,1081,1081,1081,1081,1081,1081,1081,1081,1081,1081,1081,1081,1080,1080,1080,1080,1080,1080,1080,1080,1080,1080,1080,1080],"ymouse":[482,482,482,482,482,482,482,482,482,482,482,482,482,482,482,482,482,482,482,482,482,482,481,479,479,479,479,479,479,479,479,479,477,474,449,415,355,330,316,306,300,297,285,278,261,237,209,146,131,123,119,113,112,112,112,112,108,102,100,100,100,100,100,100,100,100,100,100,100,100,100,100,100,100,100,100,100,100,100,100,100,100,100,100,100,100,100,100,100,100,100,98],"timestamp_mouse":[10,29,50,70,90,110,129,150,170,190,210,229,250,269,290,309,329,350,370,390,410,430,450,470,490,509,530,549,569,590,610,629,649,670,690,710,730,750,770,789,809,830,849,871,891,909,929,949,969,989,1009,1030,1050,1069,1089,1109,1130,1149,1169,1189,1210,1231,1249,1270,1290,1309,1330,1350,1369,1389,1409,1429,1450,1469,1489,1509,1530,1550,1569,1589,1609,1629,1650,1669,1690,1709,1729,1750,1769,1789,1809,1829],"xSR":741.5,"ySR":469.95,"xT1":424.9,"yT1":0,"xT2":1058.1,"yT2":0,"toosoon":0,"cond_shown":"equaldotsize","ratio_trial":250,"smaller_num":"3","larger_num":"12","correct_side":2,"subjID":"Juanita Alvarado 23","gender":"1","age":"9","school":"4"},{"start_time":1552075025523,"click_time":1552075026571,"finger_time":1552075026011,"fix_duration":250,"trial":37,"RT":488,"MT":560,"sideResp":2,"stimulus":"img/500/equaldotsize/R/14_Ratio_500_L_5_R_10.png","xmouse":[803,803,803,803,803,803,803,803,803,803,803,803,803,803,803,803,803,803,801,797,796,796,796,796,796,796,796,802,805,809,818,827,857,882,915,947,975,1022,1033,1036,1040,1041,1044,1047,1049,1051,1053,1056,1058,1061,1063,1068,1073],"ymouse":[490,490,490,490,490,490,490,490,490,490,490,490,490,490,490,490,490,490,487,482,480,476,472,470,467,461,458,444,438,433,422,411,386,365,335,307,277,210,187,182,177,172,169,165,158,153,149,137,128,119,112,104,92],"timestamp_mouse":[10,29,48,69,89,108,129,149,169,189,209,229,248,269,288,308,329,348,368,388,408,429,450,470,488,509,528,548,568,588,608,628,648,669,689,708,729,748,768,788,808,829,848,868,888,909,928,948,968,989,1008,1028,1048],"xSR":741.5,"ySR":469.95,"xT1":424.9,"yT1":0,"xT2":1058.1,"yT2":0,"toosoon":0,"cond_shown":"equaldotsize","ratio_trial":500,"smaller_num":"5","larger_num":"10","correct_side":2,"subjID":"Juanita Alvarado 23","gender":"1","age":"9","school":"4"},{"start_time":1552075029250,"click_time":1552075030411,"finger_time":1552075029872,"fix_duration":1436.112454655588,"trial":38,"RT":622,"MT":539,"sideResp":1,"stimulus":"img/900/randomdotsizeEA/L/2_Ratio_900_L_20_R_18.png","xmouse":[775,775,775,775,775,775,775,775,775,775,775,775,775,775,775,775,775,775,775,775,777,779,779,781,781,782,783,783,784,784,786,786,788,788,788,788,769,748,724,702,681,668,663,657,651,640,640,640,640,640,640,640,640,640,640,640,640,640,511],"ymouse":[509,509,509,509,509,509,509,509,509,509,509,509,509,509,509,509,509,509,508,507,503,498,498,494,494,490,489,486,484,482,473,463,426,403,372,329,211,160,120,85,57,40,33,26,16,1,1,1,1,1,1,1,1,1,1,1,1,1,3],"timestamp_mouse":[3,22,41,61,81,102,122,142,163,182,202,222,242,262,282,301,322,342,361,382,401,421,442,461,482,501,521,542,562,581,601,622,642,661,681,702,722,741,762,781,801,822,842,861,882,903,922,941,961,981,1002,1022,1042,1062,1082,1102,1122,1141,1161],"xSR":741.5,"ySR":469.95,"xT1":424.9,"yT1":0,"xT2":1058.1,"yT2":0,"toosoon":0,"cond_shown":"randomdotsizeEA","ratio_trial":900,"smaller_num":"18","larger_num":"20","correct_side":1,"subjID":"Juanita Alvarado 23","gender":"1","age":"9","school":"4"},{"start_time":1552075032123,"click_time":1552075033311,"finger_time":1552075032852,"fix_duration":250,"trial":39,"RT":729,"MT":459,"sideResp":2,"stimulus":"img/250/equaldotanddens/R/4_Ratio_250_L_3_R_12.png","xmouse":[775,775,775,775,775,775,775,775,775,775,775,775,777,777,778,778,778,780,780,782,783,783,784,784,784,784,785,785,788,789,791,792,795,802,811,841,863,883,926,949,977,1014,1046,1080,1085,1088,1090,1093,1099,1101,1102,1102,1102,1104,1106,1107,1109,1109,1112,1113],"ymouse":[517,517,517,517,517,517,517,517,517,517,517,517,517,517,517,517,517,514,514,512,510,509,508,508,508,508,507,507,504,502,500,498,497,493,486,473,463,455,434,416,394,365,331,282,269,257,251,241,215,198,184,174,163,148,135,127,117,112,101,98],"timestamp_mouse":[9,29,48,68,88,109,129,149,169,189,209,228,248,268,289,309,328,348,370,388,408,429,449,469,488,508,529,549,568,590,608,628,648,669,688,710,729,748,768,789,809,829,850,868,888,909,928,948,968,989,1009,1029,1049,1068,1088,1109,1128,1148,1168,1188],"xSR":741.5,"ySR":469.95,"xT1":424.9,"yT1":0,"xT2":1058.1,"yT2":0,"toosoon":0,"cond_shown":"equaldotanddens","ratio_trial":250,"smaller_num":"3","larger_num":"12","correct_side":2,"subjID":"Juanita Alvarado 23","gender":"1","age":"9","school":"4"},{"start_time":1552075037784,"click_time":1552075039031,"finger_time":1552075038492,"fix_duration":1471.9592699424725,"trial":40,"RT":708,"MT":539,"sideResp":2,"stimulus":"img/500/equaldotanddens/R/14_Ratio_500_L_5_R_10.png","xmouse":[790,790,790,790,790,790,790,790,790,790,790,790,790,790,790,790,790,790,790,790,790,790,790,790,790,790,790,790,790,790,790,790,790,791,796,830,940,968,984,999,1012,1020,1024,1027,1030,1035,1051,1060,1063,1065,1065,1066,1068,1071,1073,1076,1078,1082,1085,1096,1103,1117,1123],"ymouse":[488,488,488,488,488,488,488,488,488,488,488,488,488,488,488,488,488,488,488,488,488,488,488,488,488,488,488,488,488,488,488,488,488,488,484,459,395,380,369,357,348,341,337,331,326,314,277,246,223,207,205,199,192,185,176,166,162,156,148,134,125,105,93],"timestamp_mouse":[11,27,47,68,87,108,128,148,167,188,208,227,247,268,287,308,328,348,368,388,407,427,448,468,487,508,528,548,567,588,607,627,648,668,687,708,728,748,768,788,807,827,847,868,887,907,928,947,969,988,1007,1027,1048,1067,1087,1107,1127,1148,1167,1188,1207,1228,1247],"xSR":741.5,"ySR":469.95,"xT1":424.9,"yT1":0,"xT2":1058.1,"yT2":0,"toosoon":0,"cond_shown":"equaldotanddens","ratio_trial":500,"smaller_num":"5","larger_num":"10","correct_side":2,"subjID":"Juanita Alvarado 23","gender":"1","age":"9","school":"4"},{"start_time":1552075041984,"click_time":1552075043471,"finger_time":1552075042710,"fix_duration":1471.5276675089947,"trial":41,"RT":726,"MT":761,"sideResp":2,"stimulus":"img/900/equaldotanddens/R/6_Ratio_900_L_9_R_10.png","xmouse":[822,822,822,822,822,822,822,822,822,822,822,822,822,822,822,822,822,822,822,822,822,822,822,822,822,822,822,822,822,822,822,822,822,817,813,806,797,794,791,788,784,777,772,770,768,764,748,739,734,733,733,733,733,739,759,791,834,852,873,901,934,983,1002,1022,1040,1061,1104,1127,1138,1145,1148,1153,1153,1153,1153],"ymouse":[504,504,504,504,504,504,504,504,504,504,504,504,504,504,504,504,504,504,504,504,504,504,504,504,504,504,504,504,504,504,504,504,504,504,501,492,457,445,435,429,421,411,407,405,403,401,398,397,396,396,396,396,395,392,385,374,359,349,342,332,328,318,311,303,293,279,238,203,185,172,164,135,116,100,84],"timestamp_mouse":[6,26,48,66,87,106,128,147,167,187,207,228,247,267,286,306,327,348,367,387,407,427,446,466,487,506,527,547,566,586,608,628,647,666,687,707,726,746,766,786,806,826,846,866,886,906,926,947,967,986,1006,1026,1046,1067,1088,1108,1126,1146,1166,1186,1207,1226,1246,1267,1287,1307,1326,1346,1368,1387,1406,1426,1446,1466,1486],"xSR":741.5,"ySR":469.95,"xT1":424.9,"yT1":0,"xT2":1058.1,"yT2":0,"toosoon":0,"cond_shown":"equaldotanddens","ratio_trial":900,"smaller_num":"9","larger_num":"10","correct_side":2,"subjID":"Juanita Alvarado 23","gender":"1","age":"9","school":"4"},{"start_time":1552075046371,"click_time":1552075047890,"finger_time":1552075047130,"fix_duration":1060.3660416681896,"trial":42,"RT":759,"MT":760,"sideResp":1,"stimulus":"img/750/equaldotanddens/R/15_Ratio_750_L_9_R_12.png","xmouse":[773,773,773,773,772,770,768,766,766,766,765,765,765,765,765,765,765,765,765,765,765,765,765,765,765,763,761,760,760,760,759,759,759,759,759,759,759,759,759,759,759,759,732,716,706,694,673,666,661,657,647,639,615,606,599,587,576,573,570,569,568,564,562,560,559,558,557,551,551,550,550,547,538,534,527,520],"ymouse":[506,506,506,506,507,507,508,509,509,509,509,509,509,509,509,509,509,509,509,509,509,509,509,509,509,509,509,509,509,508,507,505,498,492,487,480,470,466,461,451,428,376,214,162,137,119,93,89,87,85,83,82,78,77,75,75,75,75,75,75,75,75,74,74,74,74,73,73,73,73,73,73,71,70,69,68],"timestamp_mouse":[19,39,59,80,100,120,139,160,179,199,220,240,260,280,301,319,340,359,380,401,420,440,460,480,499,520,540,560,580,599,620,639,661,679,701,721,740,759,780,800,819,840,860,879,899,920,940,959,980,999,1020,1040,1060,1079,1100,1119,1140,1159,1179,1199,1220,1240,1260,1279,1299,1319,1339,1360,1380,1399,1419,1440,1460,1480,1499,1519],"xSR":741.5,"ySR":469.95,"xT1":424.9,"yT1":0,"xT2":1058.1,"yT2":0,"toosoon":0,"cond_shown":"equaldotanddens","ratio_trial":750,"smaller_num":"9","larger_num":"12","correct_side":2,"subjID":"Juanita Alvarado 23","gender":"1","age":"9","school":"4"},{"start_time":1552075051483,"click_time":1552075053251,"finger_time":1552075052991,"fix_duration":250,"trial":43,"RT":1508,"MT":260,"sideResp":2,"stimulus":"img/500/randomdotsizeEA/R/14_Ratio_500_L_5_R_10.png","xmouse":[806,806,806,806,806,806,806,806,806,806,806,806,806,806,806,806,806,806,806,806,806,806,806,806,806,806,806,806,806,806,806,806,806,806,806,806,806,806,806,806,806,806,807,807,807,807,807,807,807,807,807,807,807,807,807,807,807,807,807,807,807,807,807,807,807,807,807,807,807,809,810,812,818,821,833,853,898,1053,1081,1091,1094,1094,1095,1095,1095,1095,1095,1085,1085],"ymouse":[508,508,508,508,508,508,508,508,508,508,508,508,508,508,508,508,508,508,508,508,508,508,508,508,508,508,508,508,508,508,508,508,508,508,508,508,508,508,508,508,508,508,508,508,508,508,508,508,508,508,508,508,508,508,508,508,508,508,508,508,508,508,508,508,508,508,508,508,508,507,507,504,494,490,478,464,430,335,314,307,305,304,296,288,273,255,221,102,70],"timestamp_mouse":[9,28,47,68,88,108,128,148,168,187,208,228,247,268,288,307,327,347,367,388,407,428,447,467,487,507,528,548,567,588,608,628,648,668,688,708,729,747,769,787,807,828,847,869,888,907,927,947,967,987,1008,1028,1047,1068,1088,1107,1128,1147,1168,1188,1208,1227,1248,1267,1289,1307,1327,1348,1369,1387,1408,1428,1448,1467,1489,1508,1527,1547,1567,1587,1609,1628,1647,1667,1689,1707,1728,1747,1767],"xSR":741.5,"ySR":469.95,"xT1":424.9,"yT1":0,"xT2":1058.1,"yT2":0,"toosoon":0,"cond_shown":"randomdotsizeEA","ratio_trial":500,"smaller_num":"5","larger_num":"10","correct_side":2,"subjID":"Juanita Alvarado 23","gender":"1","age":"9","school":"4"},{"start_time":1552075054820,"click_time":1552075056170,"finger_time":1552075055411,"fix_duration":250,"trial":44,"RT":591,"MT":759,"sideResp":1,"stimulus":"img/250/equaldotanddens/L/14_Ratio_250_L_12_R_3.png","xmouse":[812,811,811,811,811,811,811,811,811,811,811,811,811,811,811,811,811,811,811,811,811,811,811,811,811,811,811,811,808,808,806,806,806,806,803,795,758,740,729,718,699,695,693,689,686,676,668,657,645,634,632,628,622,619,613,607,605,604,603,592,578,571,564,557,551,535,529,523],"ymouse":[509,509,509,509,509,509,509,509,509,509,509,509,509,509,509,509,509,509,509,509,509,509,509,509,509,505,497,489,479,465,435,381,357,339,329,315,287,270,263,253,239,236,235,233,231,225,220,211,202,178,156,115,92,74,57,41,40,39,39,37,35,34,34,33,33,31,31,29],"timestamp_mouse":[10,30,51,70,91,111,131,151,171,190,211,231,250,270,291,311,332,350,370,391,410,430,450,472,492,510,530,551,571,591,610,631,650,671,690,710,731,751,770,790,810,830,850,870,891,910,931,950,970,990,1010,1031,1050,1070,1090,1111,1131,1151,1171,1191,1211,1230,1251,1270,1290,1311,1330,1350],"xSR":741.5,"ySR":469.95,"xT1":424.9,"yT1":0,"xT2":1058.1,"yT2":0,"toosoon":0,"cond_shown":"equaldotanddens","ratio_trial":250,"smaller_num":"3","larger_num":"12","correct_side":1,"subjID":"Juanita Alvarado 23","gender":"1","age":"9","school":"4"},{"start_time":1552075058050,"click_time":1552075059390,"finger_time":1552075058611,"fix_duration":438.43700296417575,"trial":45,"RT":561,"MT":779,"sideResp":2,"stimulus":"img/750/equaldotanddens/R/15_Ratio_750_L_9_R_12.png","xmouse":[806,806,806,806,806,806,806,806,806,806,806,806,806,806,806,806,806,806,806,806,806,806,806,806,806,806,805,808,812,818,830,835,840,844,850,862,872,888,900,908,923,930,936,942,948,960,968,974,978,983,994,997,1002,1003,1006,1011,1016,1020,1021,1022,1023,1024,1026,1028,1031,1045,1055,1060],"ymouse":[501,501,501,501,501,501,501,501,501,501,501,501,501,501,501,501,501,501,501,501,501,501,501,501,501,501,497,483,467,446,410,391,374,356,345,317,296,260,227,201,153,134,121,104,92,72,65,61,60,58,55,52,51,50,49,48,46,45,45,45,45,45,45,46,47,53,57,59],"timestamp_mouse":[3,20,41,61,81,101,121,141,162,182,201,220,241,262,282,300,322,341,361,380,401,422,442,460,481,501,521,540,561,580,600,621,642,662,680,700,721,741,760,780,800,821,840,860,880,901,920,940,961,981,1000,1021,1041,1060,1081,1100,1120,1141,1160,1182,1202,1222,1240,1260,1281,1300,1320,1340],"xSR":741.5,"ySR":469.95,"xT1":424.9,"yT1":0,"xT2":1058.1,"yT2":0,"toosoon":0,"cond_shown":"equaldotanddens","ratio_trial":750,"smaller_num":"9","larger_num":"12","correct_side":2,"subjID":"Juanita Alvarado 23","gender":"1","age":"9","school":"4"},{"start_time":1552075061771,"click_time":1552075062950,"finger_time":1552075062351,"fix_duration":1400.3274185431562,"trial":46,"RT":580,"MT":599,"sideResp":1,"stimulus":"img/250/equaldotanddens/L/1_Ratio_250_L_8_R_2.png","xmouse":[826,827,827,827,827,827,827,827,827,827,827,827,827,827,827,827,827,827,827,827,827,827,827,827,827,827,828,830,843,848,857,865,866,860,844,822,814,810,807,804,804,803,803,799,774,751,730,703,685,653,638,615,595,562,554,547,540,530,507],"ymouse":[502,501,500,499,499,499,499,499,499,499,499,499,499,499,499,499,499,499,499,499,499,499,499,499,499,499,497,495,468,446,412,366,314,212,167,130,116,103,83,78,77,76,76,76,78,81,85,86,88,91,92,95,95,95,95,95,95,94,92],"timestamp_mouse":[19,39,59,79,100,119,140,159,179,200,219,240,260,279,299,319,339,359,379,399,420,440,459,480,499,520,539,559,580,599,620,639,659,679,699,721,740,760,779,799,820,839,860,879,900,919,939,959,979,1000,1020,1040,1059,1080,1100,1120,1139,1159,1179],"xSR":741.5,"ySR":469.95,"xT1":424.9,"yT1":0,"xT2":1058.1,"yT2":0,"toosoon":0,"cond_shown":"equaldotanddens","ratio_trial":250,"smaller_num":"2","larger_num":"8","correct_side":1,"subjID":"Juanita Alvarado 23","gender":"1","age":"9","school":"4"},{"start_time":1552075065550,"click_time":1552075066750,"finger_time":1552075065573,"fix_duration":697.6044460613232,"trial":47,"RT":23,"MT":1177,"sideResp":2,"stimulus":"img/500/equaldotanddens/R/14_Ratio_500_L_5_R_10.png","xmouse":[825,829,831,831,831,831,831,831,831,831,831,831,831,831,831,831,831,831,831,831,831,831,831,831,831,831,836,850,869,905,932,979,999,1009,1022,1034,1052,1065,1072,1075,1076,1076,1076,1076,1076,1076,1076,1076,1076,1076,1076,1079,1081,1083,1083,1089,1092,1093,1101,1115,1143],"ymouse":[472,463,460,459,457,457,457,457,457,457,457,457,457,457,457,457,457,457,457,457,457,457,457,457,457,457,456,448,437,411,390,356,339,326,311,296,272,252,243,239,238,238,238,238,238,238,238,238,238,237,236,226,217,213,203,183,170,159,142,126,96],"timestamp_mouse":[0,23,41,61,80,102,120,142,160,180,201,221,240,262,281,301,320,340,360,380,402,420,440,460,481,500,520,540,560,580,600,620,640,662,680,700,720,740,761,781,802,821,840,861,880,900,921,941,960,981,1001,1021,1040,1060,1081,1101,1120,1140,1160,1180,1200],"xSR":741.5,"ySR":469.95,"xT1":424.9,"yT1":0,"xT2":1058.1,"yT2":0,"toosoon":0,"cond_shown":"equaldotanddens","ratio_trial":500,"smaller_num":"5","larger_num":"10","correct_side":2,"subjID":"Juanita Alvarado 23","gender":"1","age":"9","school":"4"},{"start_time":1552075072681,"click_time":1552075074172,"finger_time":1552075073370,"fix_duration":250,"trial":48,"RT":689,"MT":802,"sideResp":2,"stimulus":"img/750/equaldotsize/R/2_Ratio_750_L_6_R_8.png","xmouse":[776,776,776,776,776,776,776,776,776,776,776,776,776,776,776,776,776,776,776,776,776,776,776,776,776,777,781,782,786,789,790,790,792,796,804,806,806,806,806,804,796,790,785,782,779,777,777,777,777,777,777,788,811,835,875,897,932,967,1018,1031,1040,1041,1041,1041,1041,1042,1042,1043,1046,1052,1055,1056,1057,1058,1059],"ymouse":[503,503,503,503,503,503,503,503,503,503,503,503,503,503,503,503,503,503,503,503,503,503,503,503,503,502,499,495,490,484,482,481,477,472,455,444,436,428,418,414,409,406,403,397,394,391,391,391,391,387,384,376,362,348,317,295,243,191,131,114,96,93,92,92,92,92,92,92,90,87,86,86,85,85,84],"timestamp_mouse":[10,29,50,70,91,110,130,150,169,190,210,230,251,269,290,310,330,351,371,389,410,430,451,471,489,510,530,550,570,589,611,630,649,669,689,709,729,749,770,790,810,830,849,870,890,909,930,951,971,989,1009,1029,1050,1069,1090,1109,1130,1149,1169,1190,1209,1230,1249,1270,1290,1309,1330,1350,1369,1390,1409,1429,1450,1469,1490],"xSR":741.5,"ySR":469.95,"xT1":424.9,"yT1":0,"xT2":1058.1,"yT2":0,"toosoon":0,"cond_shown":"equaldotsize","ratio_trial":750,"smaller_num":"6","larger_num":"8","correct_side":2,"subjID":"Juanita Alvarado 23","gender":"1","age":"9","school":"4"},{"start_time":1552075076593,"click_time":1552075078050,"finger_time":1552075077331,"fix_duration":1062.747443817345,"trial":49,"RT":738,"MT":719,"sideResp":2,"stimulus":"img/900/equaldotsize/R/13_Ratio_900_L_18_R_20.png","xmouse":[773,777,779,779,779,779,779,779,779,779,779,779,779,779,779,779,779,779,779,779,779,779,779,779,779,779,779,783,785,789,792,795,801,806,816,823,830,837,843,864,870,883,897,911,931,941,953,963,971,1001,1012,1030,1037,1041,1042,1042,1042,1042,1042,1042,1042,1042,1042,1042,1042,1041,1041,1041,1041,1048,1058,1067,1080],"ymouse":[515,513,511,511,511,511,511,511,511,511,511,511,511,511,511,511,511,511,511,511,511,511,511,511,511,511,511,509,508,504,501,498,493,487,477,472,466,460,456,437,429,417,403,390,363,347,328,309,289,226,193,150,120,106,103,103,103,103,103,103,103,103,104,105,107,108,108,108,108,108,106,102,97],"timestamp_mouse":[19,38,58,78,98,118,138,158,178,198,217,237,258,278,298,318,339,358,378,397,418,439,458,478,497,517,538,557,577,598,618,638,659,677,698,717,738,759,778,798,817,838,857,877,897,917,937,958,977,998,1017,1037,1058,1078,1097,1117,1137,1159,1179,1198,1217,1238,1257,1278,1297,1319,1337,1357,1378,1397,1417,1437,1457],"xSR":741.5,"ySR":469.95,"xT1":424.9,"yT1":0,"xT2":1058.1,"yT2":0,"toosoon":0,"cond_shown":"equaldotsize","ratio_trial":900,"smaller_num":"18","larger_num":"20","correct_side":2,"subjID":"Juanita Alvarado 23","gender":"1","age":"9","school":"4"},{"start_time":1552075080048,"click_time":1552075081651,"finger_time":1552075080830,"fix_duration":675.4415189541733,"trial":50,"RT":782,"MT":821,"sideResp":2,"stimulus":"img/500/equaldotanddens/R/15_Ratio_500_L_1_R_2.png","xmouse":[778,778,778,778,778,778,778,778,778,778,778,778,778,778,778,778,778,778,778,778,778,778,778,778,778,778,778,778,778,778,778,778,778,778,778,780,784,807,822,838,851,862,879,891,906,934,942,1017,1079,1140,1180,1202,1220,1222,1224,1226,1228,1230,1231,1231,1231,1231,1231,1229,1224,1208,1200,1146,1130,1123,1119,1117,1117,1117,1117,1117,1118,1121,1122,1124,1125],"ymouse":[492,492,492,492,492,492,492,492,492,492,492,492,492,492,492,492,492,492,492,492,492,492,492,492,492,492,492,492,492,492,492,492,492,492,492,491,488,476,470,462,456,450,438,430,419,397,390,326,273,229,189,163,130,122,118,118,114,108,107,106,106,106,106,105,106,110,113,133,138,139,139,139,139,138,136,136,131,121,115,109,99],"timestamp_mouse":[3,23,44,62,82,103,123,142,162,183,203,223,242,262,282,302,322,343,362,383,403,424,442,463,482,504,523,543,563,584,602,622,642,662,682,703,722,742,762,782,803,824,842,862,882,902,922,943,964,984,1002,1022,1043,1062,1083,1103,1122,1143,1162,1183,1204,1223,1243,1263,1283,1302,1323,1342,1363,1384,1403,1422,1443,1463,1482,1504,1524,1543,1562,1583,1603],"xSR":741.5,"ySR":469.95,"xT1":424.9,"yT1":0,"xT2":1058.1,"yT2":0,"toosoon":0,"cond_shown":"equaldotanddens","ratio_trial":500,"smaller_num":"1","larger_num":"2","correct_side":2,"subjID":"Juanita Alvarado 23","gender":"1","age":"9","school":"4"},{"start_time":1552075084101,"click_time":1552075085530,"finger_time":1552075084751,"fix_duration":250,"trial":51,"RT":650,"MT":779,"sideResp":2,"stimulus":"img/500/equaldotsize/R/1_Ratio_500_L_9_R_18.png","xmouse":[786,786,786,786,786,786,788,789,789,789,791,792,794,794,794,794,794,794,794,794,794,794,794,794,795,797,800,804,811,817,827,840,848,857,869,891,907,926,947,967,997,1007,1016,1023,1032,1051,1064,1077,1104,1143,1241,1265,1265,1265,1265,1265,1265,1265,1265,1265,1265,1265,1265,1265,1265,1265,1265,1265,1265,1265,1167,1156],"ymouse":[479,479,479,479,479,479,481,482,482,482,485,486,488,488,488,488,488,488,488,488,488,488,488,488,488,488,488,488,488,486,483,478,472,467,461,447,437,422,406,391,363,348,336,326,314,289,270,250,215,170,45,10,10,10,10,10,10,10,10,10,10,10,10,10,10,10,10,10,10,10,13,27],"timestamp_mouse":[14,29,50,69,89,110,130,150,171,189,210,229,250,270,291,310,329,350,369,389,410,429,450,471,489,509,530,550,570,589,609,629,650,669,691,709,729,750,770,791,810,829,849,870,889,909,929,949,970,989,1009,1029,1050,1070,1089,1110,1129,1149,1170,1189,1210,1229,1250,1270,1291,1311,1330,1349,1369,1389,1410,1429],"xSR":741.5,"ySR":469.95,"xT1":424.9,"yT1":0,"xT2":1058.1,"yT2":0,"toosoon":0,"cond_shown":"equaldotsize","ratio_trial":500,"smaller_num":"9","larger_num":"18","correct_side":2,"subjID":"Juanita Alvarado 23","gender":"1","age":"9","school":"4"},{"start_time":1552075088966,"click_time":1552075090092,"finger_time":1552075089630,"fix_duration":414.7101272600009,"trial":52,"RT":664,"MT":462,"sideResp":2,"stimulus":"img/500/equaldotsize/R/12_Ratio_500_L_1_R_2.png","xmouse":[796,796,797,799,799,799,799,799,799,799,799,799,799,799,799,799,799,799,799,799,799,799,799,799,802,803,807,813,818,821,825,830,839,845,850,854,865,893,911,934,967,996,1047,1059,1066,1068,1072,1073,1073,1074,1074,1074,1074,1074,1074,1074,1074],"ymouse":[516,516,516,515,515,515,515,515,515,515,515,515,515,515,515,515,515,515,515,515,515,515,515,515,512,511,509,505,501,498,493,487,477,470,466,462,455,436,426,414,394,379,355,347,343,340,334,325,320,314,308,296,281,240,210,158,38],"timestamp_mouse":[4,25,44,64,85,106,124,144,166,185,204,225,246,264,285,304,324,345,364,385,405,425,444,466,485,504,524,545,565,584,604,625,644,664,685,706,726,744,766,786,805,825,845,864,884,904,925,945,965,984,1004,1024,1045,1064,1085,1106,1126],"xSR":741.5,"ySR":469.95,"xT1":424.9,"yT1":0,"xT2":1058.1,"yT2":0,"toosoon":0,"cond_shown":"equaldotsize","ratio_trial":500,"smaller_num":"1","larger_num":"2","correct_side":2,"subjID":"Juanita Alvarado 23","gender":"1","age":"9","school":"4"},{"start_time":1552075093725,"click_time":1552075094731,"finger_time":1552075094330,"fix_duration":1393.5639994641363,"trial":53,"RT":605,"MT":401,"sideResp":1,"stimulus":"img/250/randomdotsizeEA/L/2_Ratio_250_L_16_R_4.png","xmouse":[756,756,756,756,756,756,756,756,756,756,756,756,756,756,756,756,756,756,756,756,755,755,755,757,757,759,760,761,763,765,765,765,761,758,754,734,725,722,718,716,715,713,710,707,700,680,658,633,600,553,475],"ymouse":[530,530,530,530,530,530,530,530,530,530,530,530,530,530,530,530,530,530,530,530,529,528,525,522,521,517,512,504,491,478,447,434,423,409,394,357,347,341,336,334,329,327,323,319,312,292,270,235,193,148,74],"timestamp_mouse":[6,25,47,65,85,107,127,146,165,185,205,225,245,266,287,306,325,346,365,385,405,427,446,465,485,506,525,546,566,586,605,625,645,665,685,706,727,745,765,785,805,825,845,866,886,905,925,946,965,987,1006],"xSR":741.5,"ySR":469.95,"xT1":424.9,"yT1":0,"xT2":1058.1,"yT2":0,"toosoon":0,"cond_shown":"randomdotsizeEA","ratio_trial":250,"smaller_num":"4","larger_num":"16","correct_side":1,"subjID":"Juanita Alvarado 23","gender":"1","age":"9","school":"4"},{"start_time":1552075097393,"click_time":1552075098830,"finger_time":1552075098231,"fix_duration":1242.9328853274176,"trial":54,"RT":838,"MT":599,"sideResp":1,"stimulus":"img/250/randomdotsizeEA/L/7_Ratio_250_L_8_R_2.png","xmouse":[780,780,780,780,780,780,780,780,780,780,780,780,780,780,780,780,780,780,780,780,780,780,780,781,782,783,783,784,785,786,787,788,789,790,792,793,794,795,795,795,794,768,726,688,650,631,623,623,623,621,620,609,607,607,607,607,607,606,606,605,603,586,581,578,575,571,560,557,553,546,536,524],"ymouse":[505,505,505,505,505,505,505,505,505,505,505,505,505,505,505,505,505,505,505,505,505,505,505,505,505,503,503,503,503,501,501,500,499,498,496,493,491,485,481,478,471,441,406,370,329,282,186,156,138,128,126,124,124,124,124,124,124,123,123,122,120,115,114,114,113,113,112,110,109,106,101,96],"timestamp_mouse":[18,38,57,77,97,117,139,158,177,198,217,238,258,277,299,318,337,357,377,397,419,439,458,477,497,518,538,558,577,598,618,638,659,677,697,718,737,758,779,797,817,838,858,879,897,917,938,958,978,997,1018,1037,1058,1078,1098,1117,1138,1158,1177,1198,1217,1238,1257,1279,1298,1318,1337,1357,1377,1397,1417,1437],"xSR":741.5,"ySR":469.95,"xT1":424.9,"yT1":0,"xT2":1058.1,"yT2":0,"toosoon":0,"cond_shown":"randomdotsizeEA","ratio_trial":250,"smaller_num":"2","larger_num":"8","correct_side":1,"subjID":"Juanita Alvarado 23","gender":"1","age":"9","school":"4"},{"start_time":1552075101489,"click_time":1552075102950,"finger_time":1552075102250,"fix_duration":977.5803604627218,"trial":55,"RT":761,"MT":700,"sideResp":1,"stimulus":"img/750/randomdotsizeEA/L/6_Ratio_750_L_24_R_18.png","xmouse":[799,800,800,800,800,801,802,802,802,802,803,803,803,803,803,803,803,803,803,803,803,803,803,803,803,803,803,803,803,803,807,808,811,815,819,824,828,838,862,869,875,877,877,879,879,879,877,872,855,845,836,827,812,746,701,683,666,653,631,619,609,603,594,589,589,589,589,589,588,586,577,561,543,522],"ymouse":[521,522,522,522,522,522,522,523,523,523,523,523,523,523,523,523,523,523,523,523,523,523,523,523,523,523,523,523,523,523,523,523,523,521,520,517,513,506,485,475,464,455,445,433,426,411,403,392,360,339,319,302,285,239,207,188,172,160,146,140,135,133,127,124,124,124,124,124,123,123,118,111,104,90],"timestamp_mouse":[4,22,43,62,82,101,122,141,162,182,201,222,243,262,281,301,322,341,361,383,403,421,442,461,483,502,522,541,562,582,601,622,642,662,682,702,722,741,761,781,801,822,842,861,882,901,921,942,961,981,1001,1021,1041,1061,1081,1101,1122,1141,1161,1181,1201,1221,1242,1261,1281,1301,1321,1341,1361,1381,1402,1421,1443,1461],"xSR":741.5,"ySR":469.95,"xT1":424.9,"yT1":0,"xT2":1058.1,"yT2":0,"toosoon":0,"cond_shown":"randomdotsizeEA","ratio_trial":750,"smaller_num":"18","larger_num":"24","correct_side":1,"subjID":"Juanita Alvarado 23","gender":"1","age":"9","school":"4"},{"start_time":1552075105067,"click_time":1552075106090,"finger_time":1552075105751,"fix_duration":395.3267086024781,"trial":56,"RT":684,"MT":339,"sideResp":2,"stimulus":"img/500/equaldotsize/R/1_Ratio_500_L_9_R_18.png","xmouse":[799,799,799,799,799,799,799,799,799,799,799,799,801,802,802,802,802,802,802,802,802,802,803,803,804,804,806,806,807,809,812,816,820,828,844,853,864,877,890,903,925,936,943,950,968,978,986,997,1013,1065,1077,1085],"ymouse":[512,512,512,512,512,512,512,512,512,512,512,512,512,512,512,512,512,512,512,512,512,512,512,512,512,512,512,511,510,509,507,504,498,491,479,471,461,451,438,423,392,377,365,349,312,293,271,249,217,138,117,99],"timestamp_mouse":[4,23,44,63,83,103,124,144,163,183,203,224,243,264,283,303,324,344,364,383,404,423,444,464,484,503,523,543,564,584,604,624,643,663,684,703,723,744,763,783,803,823,843,863,883,904,923,944,963,983,1003,1023],"xSR":741.5,"ySR":469.95,"xT1":424.9,"yT1":0,"xT2":1058.1,"yT2":0,"toosoon":0,"cond_shown":"equaldotsize","ratio_trial":500,"smaller_num":"9","larger_num":"18","correct_side":2,"subjID":"Juanita Alvarado 23","gender":"1","age":"9","school":"4"},{"start_time":1552075107653,"click_time":1552075108772,"finger_time":1552075108331,"fix_duration":440.0351075769331,"trial":57,"RT":678,"MT":441,"sideResp":1,"stimulus":"img/750/randomdotsizeEA/L/8_Ratio_750_L_4_R_3.png","xmouse":[779,779,779,779,779,779,779,779,779,779,779,779,779,779,779,779,779,779,779,779,779,779,779,781,781,783,783,783,783,778,767,759,751,734,713,701,686,673,659,647,627,621,612,606,600,586,578,568,558,542,535,533,530,527,525,524],"ymouse":[528,528,528,528,528,528,528,528,528,528,528,528,528,528,528,528,528,528,528,528,528,528,528,528,528,528,527,525,521,514,498,487,474,443,398,371,342,313,291,265,236,219,201,188,174,139,119,101,87,69,65,64,63,62,62,62],"timestamp_mouse":[19,38,57,78,97,118,137,158,177,197,218,238,257,277,298,318,337,358,377,397,417,437,458,478,498,518,538,557,577,597,618,638,658,678,698,718,738,758,777,797,817,838,858,877,898,918,938,958,978,998,1017,1037,1058,1077,1098,1119],"xSR":741.5,"ySR":469.95,"xT1":424.9,"yT1":0,"xT2":1058.1,"yT2":0,"toosoon":0,"cond_shown":"randomdotsizeEA","ratio_trial":750,"smaller_num":"3","larger_num":"4","correct_side":1,"subjID":"Juanita Alvarado 23","gender":"1","age":"9","school":"4"},{"start_time":1552075111634,"click_time":1552075112970,"finger_time":1552075112070,"fix_duration":1183.0189983800983,"trial":58,"RT":436,"MT":900,"sideResp":1,"stimulus":"img/500/randomdotsizeEA/L/7_Ratio_500_L_10_R_5.png","xmouse":[808,808,808,808,808,808,808,808,808,808,808,808,810,812,813,813,814,814,814,814,814,816,816,818,819,820,820,821,822,823,824,824,825,826,826,827,827,827,827,829,829,829,829,827,823,810,777,757,732,710,690,665,660,660,660,660,656,652,646,638,631,606,592,573,552,533,503],"ymouse":[483,483,483,483,483,483,483,483,483,483,483,481,478,475,474,473,472,472,472,472,472,469,468,464,462,461,460,459,457,455,454,451,450,448,447,446,444,442,442,440,439,438,436,434,425,409,360,325,280,231,188,138,129,129,129,129,127,127,125,123,120,104,98,88,79,71,56],"timestamp_mouse":[17,36,57,77,97,116,137,157,176,197,217,236,256,277,297,317,337,356,377,397,416,436,456,476,497,516,536,556,576,597,616,637,656,676,697,716,736,756,777,797,818,836,856,877,897,916,936,956,977,997,1016,1036,1056,1076,1097,1117,1137,1156,1176,1197,1216,1236,1257,1276,1297,1317,1336],"xSR":741.5,"ySR":469.95,"xT1":424.9,"yT1":0,"xT2":1058.1,"yT2":0,"toosoon":0,"cond_shown":"randomdotsizeEA","ratio_trial":500,"smaller_num":"5","larger_num":"10","correct_side":1,"subjID":"Juanita Alvarado 23","gender":"1","age":"9","school":"4"},{"start_time":1552075115023,"click_time":1552075116270,"finger_time":1552075115711,"fix_duration":250,"trial":59,"RT":688,"MT":559,"sideResp":1,"stimulus":"img/250/equaldotanddens/L/7_Ratio_250_L_8_R_2.png","xmouse":[782,782,782,782,782,783,783,783,783,783,783,783,783,783,783,783,783,783,783,783,783,783,783,783,786,786,788,788,790,790,790,790,790,782,772,754,725,670,500,434,401,387,385,385,385,385,385,385,385,385,385,385,385,385,385,385,387,396,402,408,410,416,431],"ymouse":[542,542,542,542,542,542,542,542,542,542,542,542,542,542,542,542,542,542,542,542,542,542,542,541,538,537,535,533,526,521,516,507,502,481,467,443,401,339,189,121,89,62,58,57,57,57,57,55,53,52,52,52,52,52,51,51,51,53,58,62,64,65,66],"timestamp_mouse":[8,27,48,67,88,107,128,148,167,187,207,227,247,267,288,307,328,348,367,387,407,428,447,467,488,507,528,547,567,588,607,628,647,667,688,707,728,747,768,787,808,827,847,868,888,908,927,948,968,988,1007,1027,1047,1068,1087,1107,1128,1147,1167,1187,1207,1227,1246],"xSR":741.5,"ySR":469.95,"xT1":424.9,"yT1":0,"xT2":1058.1,"yT2":0,"toosoon":0,"cond_shown":"equaldotanddens","ratio_trial":250,"smaller_num":"2","larger_num":"8","correct_side":1,"subjID":"Juanita Alvarado 23","gender":"1","age":"9","school":"4"},{"start_time":1552075117838,"click_time":1552075119031,"finger_time":1552075118491,"fix_duration":266.8860141697696,"trial":60,"RT":653,"MT":540,"sideResp":1,"stimulus":"img/750/equaldotsize/L/13_Ratio_750_L_8_R_6.png","xmouse":[813,813,813,813,813,813,813,813,813,813,813,813,813,813,813,813,813,813,813,813,813,813,813,813,813,813,813,814,817,820,823,823,819,811,801,785,770,731,714,691,679,662,653,645,633,624,611,596,585,581,576,571,567,555,545,535,531,528,525,524],"ymouse":[525,525,525,525,525,525,525,525,525,525,525,525,525,525,525,525,525,525,525,525,525,525,525,525,525,525,525,526,524,514,497,479,449,436,425,412,398,369,356,339,327,309,300,291,281,272,262,244,223,210,189,127,89,50,23,11,8,8,8,8],"timestamp_mouse":[13,33,53,73,93,113,132,153,172,192,213,232,252,272,293,313,332,354,373,392,413,433,453,473,492,512,532,552,573,592,613,633,653,673,692,713,732,753,772,793,812,833,852,873,893,913,932,952,972,992,1012,1033,1052,1072,1092,1113,1133,1152,1172,1193],"xSR":741.5,"ySR":469.95,"xT1":424.9,"yT1":0,"xT2":1058.1,"yT2":0,"toosoon":0,"cond_shown":"equaldotsize","ratio_trial":750,"smaller_num":"6","larger_num":"8","correct_side":1,"subjID":"Juanita Alvarado 23","gender":"1","age":"9","school":"4"},{"start_time":1552075121051,"click_time":1552075122690,"finger_time":