[{"start_time":1552055372619,"click_time":1552055375394,"finger_time":1552055372635,"fix_duration":1140.9965427562652,"trial":0,"RT":16,"MT":2759,"sideResp":1,"stimulus":"img/750/randomdotsizeEA/L/10_Ratio_750_L_4_R_3.png","xmouse":[808,808,808,808,808,808,808,808,808,808,808,808,808,808,808,808,808,808,808,808,808,808,808,807,806,804,802,800,799,799,799,799,799,799,799,799,799,799,799,799,799,799,798,798,798,798,798,798,798,798,798,798,798,798,798,798,798,798,798,798,798,798,798,798,798,798,798,798,798,798,798,798,798,798,798,798,798,798,798,798,798,798,798,798,798,797,797,797,796,796,796,796,796,796,796,796,796,796,796,796,796,796,795,791,785,779,770,758,723,705,689,672,642,623,612,602,589,562,549,540,533,530,526,524,522,522,521,520,519,519,519,519,519,514,506,495,481,455,453],"ymouse":[537,537,537,537,537,537,537,537,537,537,537,537,537,537,537,537,537,537,537,537,537,537,537,537,538,541,545,550,559,561,563,563,563,563,563,563,563,563,563,566,567,569,572,575,575,576,578,579,582,584,587,589,591,597,600,603,605,607,608,608,608,608,608,608,608,608,608,608,608,608,608,608,608,608,608,608,608,608,608,608,608,608,608,608,608,610,610,611,613,613,613,613,613,613,613,613,613,613,613,613,613,614,614,607,590,568,542,517,440,413,384,353,304,273,255,242,225,197,187,178,171,165,158,156,154,153,152,151,151,151,151,151,150,147,142,135,125,105,99],"timestamp_mouse":[16,35,56,75,94,114,134,155,175,195,214,236,255,275,294,315,336,355,376,395,416,435,455,475,495,514,535,555,575,595,615,635,654,675,694,715,735,756,775,796,815,836,855,874,895,915,935,955,975,994,1015,1035,1056,1075,1095,1116,1135,1155,1175,1196,1214,1235,1255,1274,1296,1315,1335,1355,1375,1395,1415,1435,1454,1475,1495,1515,1534,1554,1574,1595,1614,1636,1656,1674,1694,1716,1736,1755,1775,1794,1815,1836,1856,1875,1896,1914,1934,1956,1974,1995,2015,2034,2054,2075,2095,2114,2135,2155,2175,2195,2214,2234,2256,2275,2296,2315,2335,2356,2375,2396,2415,2435,2455,2474,2496,2516,2535,2555,2575,2595,2616,2635,2654,2675,2695,2715,2736,2755,2774],"xSR":741.5,"ySR":501.8,"xT1":424.9,"yT1":0,"xT2":1058.1,"yT2":0,"toosoon":0,"cond_shown":"randomdotsizeEA","ratio_trial":750,"smaller_num":"3","larger_num":"4","correct_side":1,"subjID":"alissondayanrubianobeltran","gender":"4","age":"1","school":"9","test":{"fix_dur":[250,1500],"timestim":300,"targets_dim":[100,100],"targets_relative_coord":[0.3,0.7],"size_stim":[880,420],"start_dim":[100,100],"size_start":[300,300],"size_fix":60,"samplingrate":20,"img_types":["equaldotsize","equaldotanddens","randomdotsizeEA"],"ratios":[250,500,750,900],"rep_conds":9,"nTrials":120,"trials_to_rest":500,"Trials_order":[8,82,53,18,68,41,66,10,16,29,118,42,46,75,25,48,80,49,12,94,102,67,92,14,119,11,113,40,111,1,56,70,88,17,7,51,106,81,9,97,76,91,30,99,84,5,117,114,26,105,37,104,50,103,60,73,15,28,39,100,36,44,38,107,6,13,19,78,108,98,109,79,116,96,0,83,74,59,62,85,64,43,2,58,65,90,87,54,4,20,112,31,57,47,22,61,33,52,55,101,32,27,93,72,24,110,34,3,95,23,45,77,71,86,63,21,35,115,89,69],"cond_shown":["randomdotsizeEA","equaldotanddens","randomdotsizeEA","equaldotsize","randomdotsizeEA","randomdotsizeEA","equaldotsize","equaldotanddens","equaldotanddens","randomdotsizeEA","equaldotanddens","equaldotsize","equaldotanddens","equaldotsize","equaldotanddens","equaldotsize","randomdotsizeEA","equaldotanddens","equaldotsize","equaldotanddens","equaldotsize","equaldotanddens","randomdotsizeEA","randomdotsizeEA","randomdotsizeEA","randomdotsizeEA","randomdotsizeEA","equaldotanddens","equaldotsize","equaldotanddens","randomdotsizeEA","equaldotanddens","equaldotanddens","randomdotsizeEA","equaldotanddens","equaldotsize","equaldotanddens","equaldotsize","equaldotsize","equaldotanddens","equaldotanddens","equaldotanddens","equaldotsize","equaldotsize","equaldotsize","randomdotsizeEA","equaldotsize","equaldotsize","randomdotsizeEA","equaldotsize","equaldotanddens","randomdotsizeEA","randomdotsizeEA","equaldotanddens","equaldotsize","equaldotanddens","equaldotsize","equaldotanddens","equaldotsize","equaldotanddens","equaldotsize","randomdotsizeEA","randomdotsizeEA","randomdotsizeEA","equaldotsize","equaldotanddens","equaldotanddens","equaldotsize","equaldotsize","randomdotsizeEA","equaldotanddens","equaldotanddens","randomdotsizeEA","equaldotsize","equaldotsize","randomdotsizeEA","randomdotsizeEA","randomdotsizeEA","randomdotsizeEA","equaldotanddens","equaldotanddens","equaldotanddens","randomdotsizeEA","equaldotanddens","randomdotsizeEA","equaldotsize","equaldotsize","equaldotsize","equaldotanddens","randomdotsizeEA","equaldotanddens","equaldotanddens","equaldotsize","randomdotsizeEA","equaldotanddens","equaldotanddens","equaldotsize","equaldotanddens","equaldotanddens","randomdotsizeEA","randomdotsizeEA","equaldotsize","equaldotsize","equaldotsize","equaldotsize","randomdotsizeEA","equaldotanddens","equaldotsize","randomdotsizeEA","randomdotsizeEA","equaldotsize","randomdotsizeEA","randomdotsizeEA","randomdotsizeEA","equaldotsize","equaldotsize","randomdotsizeEA","equaldotanddens","randomdotsizeEA","equaldotsize"],"ratio_trial":[750,900,500,750,750,500,750,900,500,500,900,750,900,500,250,250,750,250,250,900,750,750,750,250,900,900,500,500,500,250,750,900,500,500,750,500,900,900,900,250,500,750,750,500,250,500,900,750,250,900,250,750,250,750,250,250,500,500,500,500,250,750,250,900,750,250,750,750,250,250,250,750,750,250,250,900,250,900,250,250,500,750,250,900,500,750,500,750,500,750,500,750,900,900,900,250,900,500,750,500,750,500,900,250,250,250,900,500,900,900,900,500,900,250,500,900,900,750,500,900],"smaller_num":["3","18","5","15","18","1","15","18","6","4","18","3","18","9","1","2","3","6","4","9","9","9","6","3","18","18","2","9","1","3","6","18","5","1","6","6","9","9","18","6","5","15","15","9","4","6","9","3","3","9","3","3","3","3","1","4","5","1","3","4","6","6","2","18","3","3","6","15","2","4","2","15","6","2","6","9","6","18","3","4","9","15","4","18","10","12","4","15","9","3","10","15","18","18","18","2","9","3","18","9","3","6","9","2","3","3","9","3","18","18","9","10","18","4","9","9","18","6","4","18"],"larger_num":["4","20","10","20","24","2","20","20","12","8","20","4","20","18","4","8","4","24","16","10","12","12","8","12","20","20","4","18","2","12","8","20","10","2","8","12","10","10","20","24","10","20","20","18","16","12","10","4","12","10","12","4","12","4","4","16","10","2","6","8","24","8","8","20","4","12","8","20","8","16","8","20","8","8","24","10","24","20","12","16","18","20","16","20","20","16","8","20","18","4","20","20","20","20","20","8","10","6","24","18","4","12","10","8","12","12","10","6","20","20","10","20","20","16","18","10","20","8","8","20"],"correct_side":[1,2,1,2,1,2,1,1,1,1,1,2,1,1,2,1,1,1,2,2,2,2,1,1,1,1,1,1,2,1,1,2,2,2,2,1,2,1,1,1,2,2,2,2,2,1,2,2,2,2,1,1,2,2,2,1,2,2,2,1,1,1,1,2,2,1,1,1,1,1,1,2,2,1,1,1,1,1,2,2,2,2,2,1,2,2,1,2,1,2,2,2,2,1,1,1,2,2,1,1,1,1,2,2,1,1,2,2,2,2,1,2,1,1,2,2,1,1,1,1],"img_shown":["img/750/randomdotsizeEA/L/10_Ratio_750_L_4_R_3.png","img/900/equaldotanddens/R/9_Ratio_900_L_18_R_20.png","img/500/randomdotsizeEA/L/7_Ratio_500_L_10_R_5.png","img/750/equaldotsize/R/3_Ratio_750_L_15_R_20.png","img/750/randomdotsizeEA/L/6_Ratio_750_L_24_R_18.png","img/500/randomdotsizeEA/R/15_Ratio_500_L_1_R_2.png","img/750/equaldotsize/L/1_Ratio_750_L_20_R_15.png","img/900/equaldotanddens/L/4_Ratio_900_L_20_R_18.png","img/500/equaldotanddens/L/13_Ratio_500_L_12_R_6.png","img/500/randomdotsizeEA/L/8_Ratio_500_L_8_R_4.png","img/900/equaldotanddens/L/10_Ratio_900_L_20_R_18.png","img/750/equaldotsize/R/7_Ratio_750_L_3_R_4.png","img/900/equaldotanddens/L/2_Ratio_900_L_20_R_18.png","img/500/equaldotsize/L/4_Ratio_500_L_18_R_9.png","img/250/equaldotanddens/R/8_Ratio_250_L_1_R_4.png","img/250/equaldotsize/L/1_Ratio_250_L_8_R_2.png","img/750/randomdotsizeEA/L/8_Ratio_750_L_4_R_3.png","img/250/equaldotanddens/L/5_Ratio_250_L_24_R_6.png","img/250/equaldotsize/R/10_Ratio_250_L_4_R_16.png","img/900/equaldotanddens/R/3_Ratio_900_L_9_R_10.png","img/750/equaldotsize/R/15_Ratio_750_L_9_R_12.png","img/750/equaldotanddens/R/15_Ratio_750_L_9_R_12.png","img/750/randomdotsizeEA/L/14_Ratio_750_L_8_R_6.png","img/250/randomdotsizeEA/L/15_Ratio_250_L_12_R_3.png","img/900/randomdotsizeEA/L/4_Ratio_900_L_20_R_18.png","img/900/randomdotsizeEA/L/2_Ratio_900_L_20_R_18.png","img/500/randomdotsizeEA/L/10_Ratio_500_L_4_R_2.png","img/500/equaldotanddens/L/4_Ratio_500_L_18_R_9.png","img/500/equaldotsize/R/15_Ratio_500_L_1_R_2.png","img/250/equaldotanddens/L/15_Ratio_250_L_12_R_3.png","img/750/randomdotsizeEA/L/13_Ratio_750_L_8_R_6.png","img/900/equaldotanddens/R/11_Ratio_900_L_18_R_20.png","img/500/equaldotanddens/R/14_Ratio_500_L_5_R_10.png","img/500/randomdotsizeEA/R/12_Ratio_500_L_1_R_2.png","img/750/equaldotanddens/R/2_Ratio_750_L_6_R_8.png","img/500/equaldotsize/L/11_Ratio_500_L_12_R_6.png","img/900/equaldotanddens/R/6_Ratio_900_L_9_R_10.png","img/900/equaldotsize/L/1_Ratio_900_L_10_R_9.png","img/900/equaldotsize/L/2_Ratio_900_L_20_R_18.png","img/250/equaldotanddens/L/5_Ratio_250_L_24_R_6.png","img/500/equaldotanddens/R/14_Ratio_500_L_5_R_10.png","img/750/equaldotanddens/R/5_Ratio_750_L_15_R_20.png","img/750/equaldotsize/R/3_Ratio_750_L_15_R_20.png","img/500/equaldotsize/R/1_Ratio_500_L_9_R_18.png","img/250/equaldotsize/R/10_Ratio_250_L_4_R_16.png","img/500/randomdotsizeEA/L/13_Ratio_500_L_12_R_6.png","img/900/equaldotsize/R/6_Ratio_900_L_9_R_10.png","img/750/equaldotsize/R/7_Ratio_750_L_3_R_4.png","img/250/randomdotsizeEA/R/4_Ratio_250_L_3_R_12.png","img/900/equaldotsize/R/6_Ratio_900_L_9_R_10.png","img/250/equaldotanddens/L/14_Ratio_250_L_12_R_3.png","img/750/randomdotsizeEA/L/10_Ratio_750_L_4_R_3.png","img/250/randomdotsizeEA/R/11_Ratio_250_L_3_R_12.png","img/750/equaldotanddens/R/12_Ratio_750_L_3_R_4.png","img/250/equaldotsize/R/8_Ratio_250_L_1_R_4.png","img/250/equaldotanddens/L/2_Ratio_250_L_16_R_4.png","img/500/equaldotsize/R/14_Ratio_500_L_5_R_10.png","img/500/equaldotanddens/R/12_Ratio_500_L_1_R_2.png","img/500/equaldotsize/R/2_Ratio_500_L_3_R_6.png","img/500/equaldotanddens/L/8_Ratio_500_L_8_R_4.png","img/250/equaldotsize/L/5_Ratio_250_L_24_R_6.png","img/750/randomdotsizeEA/L/13_Ratio_750_L_8_R_6.png","img/250/randomdotsizeEA/L/7_Ratio_250_L_8_R_2.png","img/900/randomdotsizeEA/R/12_Ratio_900_L_18_R_20.png","img/750/equaldotsize/R/7_Ratio_750_L_3_R_4.png","img/250/equaldotanddens/L/15_Ratio_250_L_12_R_3.png","img/750/equaldotanddens/L/14_Ratio_750_L_8_R_6.png","img/750/equaldotsize/L/1_Ratio_750_L_20_R_15.png","img/250/equaldotsize/L/7_Ratio_250_L_8_R_2.png","img/250/randomdotsizeEA/L/2_Ratio_250_L_16_R_4.png","img/250/equaldotanddens/L/7_Ratio_250_L_8_R_2.png","img/750/equaldotanddens/R/5_Ratio_750_L_15_R_20.png","img/750/randomdotsizeEA/R/2_Ratio_750_L_6_R_8.png","img/250/equaldotsize/L/3_Ratio_250_L_8_R_2.png","img/250/equaldotsize/L/5_Ratio_250_L_24_R_6.png","img/900/randomdotsizeEA/L/1_Ratio_900_L_10_R_9.png","img/250/randomdotsizeEA/L/5_Ratio_250_L_24_R_6.png","img/900/randomdotsizeEA/L/4_Ratio_900_L_20_R_18.png","img/250/randomdotsizeEA/R/4_Ratio_250_L_3_R_12.png","img/250/equaldotanddens/R/10_Ratio_250_L_4_R_16.png","img/500/equaldotanddens/R/1_Ratio_500_L_9_R_18.png","img/750/equaldotanddens/R/4_Ratio_750_L_15_R_20.png","img/250/randomdotsizeEA/R/10_Ratio_250_L_4_R_16.png","img/900/equaldotanddens/L/8_Ratio_900_L_20_R_18.png","img/500/randomdotsizeEA/R/3_Ratio_500_L_10_R_20.png","img/750/equaldotsize/R/11_Ratio_750_L_12_R_16.png","img/500/equaldotsize/L/8_Ratio_500_L_8_R_4.png","img/750/equaldotsize/R/3_Ratio_750_L_15_R_20.png","img/500/equaldotanddens/L/4_Ratio_500_L_18_R_9.png","img/750/randomdotsizeEA/R/12_Ratio_750_L_3_R_4.png","img/500/equaldotanddens/R/3_Ratio_500_L_10_R_20.png","img/750/equaldotanddens/R/5_Ratio_750_L_15_R_20.png","img/900/equaldotsize/R/14_Ratio_900_L_18_R_20.png","img/900/randomdotsizeEA/L/4_Ratio_900_L_20_R_18.png","img/900/equaldotanddens/L/10_Ratio_900_L_20_R_18.png","img/250/equaldotanddens/L/1_Ratio_250_L_8_R_2.png","img/900/equaldotsize/R/3_Ratio_900_L_9_R_10.png","img/500/equaldotanddens/R/2_Ratio_500_L_3_R_6.png","img/750/equaldotanddens/L/6_Ratio_750_L_24_R_18.png","img/500/randomdotsizeEA/L/4_Ratio_500_L_18_R_9.png","img/750/randomdotsizeEA/L/9_Ratio_750_L_4_R_3.png","img/500/equaldotsize/L/13_Ratio_500_L_12_R_6.png","img/900/equaldotsize/R/3_Ratio_900_L_9_R_10.png","img/250/equaldotsize/R/13_Ratio_250_L_2_R_8.png","img/250/equaldotsize/L/15_Ratio_250_L_12_R_3.png","img/250/randomdotsizeEA/L/14_Ratio_250_L_12_R_3.png","img/900/equaldotanddens/R/7_Ratio_900_L_9_R_10.png","img/500/equaldotsize/R/2_Ratio_500_L_3_R_6.png","img/900/randomdotsizeEA/R/9_Ratio_900_L_18_R_20.png","img/900/randomdotsizeEA/R/13_Ratio_900_L_18_R_20.png","img/900/equaldotsize/L/1_Ratio_900_L_10_R_9.png","img/500/randomdotsizeEA/R/3_Ratio_500_L_10_R_20.png","img/900/randomdotsizeEA/L/8_Ratio_900_L_20_R_18.png","img/250/randomdotsizeEA/L/2_Ratio_250_L_16_R_4.png","img/500/equaldotsize/R/1_Ratio_500_L_9_R_18.png","img/900/equaldotsize/R/6_Ratio_900_L_9_R_10.png","img/900/randomdotsizeEA/L/2_Ratio_900_L_20_R_18.png","img/750/equaldotanddens/L/14_Ratio_750_L_8_R_6.png","img/500/randomdotsizeEA/L/8_Ratio_500_L_8_R_4.png","img/900/equaldotsize/L/8_Ratio_900_L_20_R_18.png"],"Rat0":[["12_Ratio_0_L_9_R_0.png","13_Ratio_0_L_6_R_0.png","5_Ratio_0_L_2_R_0.png","6_Ratio_0_L_4_R_0.png","8_Ratio_0_L_6_R_0.png"],["1_Ratio_0_L_0_R_17.png","10_Ratio_0_L_0_R_22.png","11_Ratio_0_L_0_R_1.png","14_Ratio_0_L_0_R_24.png","15_Ratio_0_L_0_R_4.png","2_Ratio_0_L_0_R_5.png","3_Ratio_0_L_0_R_17.png","4_Ratio_0_L_0_R_7.png","7_Ratio_0_L_0_R_19.png","9_Ratio_0_L_0_R_15.png"]],"Rat250":[["1_Ratio_250_L_8_R_2.png","14_Ratio_250_L_12_R_3.png","15_Ratio_250_L_12_R_3.png","2_Ratio_250_L_16_R_4.png","3_Ratio_250_L_8_R_2.png","5_Ratio_250_L_24_R_6.png","7_Ratio_250_L_8_R_2.png"],["10_Ratio_250_L_4_R_16.png","11_Ratio_250_L_3_R_12.png","12_Ratio_250_L_5_R_20.png","13_Ratio_250_L_2_R_8.png","4_Ratio_250_L_3_R_12.png","6_Ratio_250_L_6_R_24.png","8_Ratio_250_L_1_R_4.png","9_Ratio_250_L_3_R_12.png"]],"Rat500":[["10_Ratio_500_L_4_R_2.png","11_Ratio_500_L_12_R_6.png","13_Ratio_500_L_12_R_6.png","4_Ratio_500_L_18_R_9.png","5_Ratio_500_L_4_R_2.png","7_Ratio_500_L_10_R_5.png","8_Ratio_500_L_8_R_4.png"],["1_Ratio_500_L_9_R_18.png","12_Ratio_500_L_1_R_2.png","14_Ratio_500_L_5_R_10.png","15_Ratio_500_L_1_R_2.png","2_Ratio_500_L_3_R_6.png","3_Ratio_500_L_10_R_20.png","6_Ratio_500_L_9_R_18.png","9_Ratio_500_L_2_R_4.png"]],"Rat750":[["1_Ratio_750_L_20_R_15.png","10_Ratio_750_L_4_R_3.png","13_Ratio_750_L_8_R_6.png","14_Ratio_750_L_8_R_6.png","6_Ratio_750_L_24_R_18.png","8_Ratio_750_L_4_R_3.png","9_Ratio_750_L_4_R_3.png"],["11_Ratio_750_L_12_R_16.png","12_Ratio_750_L_3_R_4.png","15_Ratio_750_L_9_R_12.png","2_Ratio_750_L_6_R_8.png","3_Ratio_750_L_15_R_20.png","4_Ratio_750_L_15_R_20.png","5_Ratio_750_L_15_R_20.png","7_Ratio_750_L_3_R_4.png"]],"Rat900":[["1_Ratio_900_L_10_R_9.png","10_Ratio_900_L_20_R_18.png","2_Ratio_900_L_20_R_18.png","4_Ratio_900_L_20_R_18.png","8_Ratio_900_L_20_R_18.png"],["11_Ratio_900_L_18_R_20.png","12_Ratio_900_L_18_R_20.png","13_Ratio_900_L_18_R_20.png","14_Ratio_900_L_18_R_20.png","15_Ratio_900_L_9_R_10.png","3_Ratio_900_L_9_R_10.png","5_Ratio_900_L_9_R_10.png","6_Ratio_900_L_9_R_10.png","7_Ratio_900_L_9_R_10.png","9_Ratio_900_L_18_R_20.png"]],"Rat1000":[["10_Ratio_1000_L_16_R_16.png","11_Ratio_1000_L_6_R_6.png","12_Ratio_1000_L_14_R_14.png","13_Ratio_1000_L_20_R_20.png","15_Ratio_1000_L_15_R_15.png","2_Ratio_1000_L_17_R_17.png","4_Ratio_1000_L_9_R_9.png","5_Ratio_1000_L_6_R_6.png","6_Ratio_1000_L_19_R_19.png","8_Ratio_1000_L_14_R_14.png","9_Ratio_1000_L_25_R_25.png"],["1_Ratio_1000_L_1_R_1.png","14_Ratio_1000_L_17_R_17.png","3_Ratio_1000_L_17_R_17.png","7_Ratio_1000_L_6_R_6.png"]]}},{"start_time":1552055377906,"click_time":1552055379594,"finger_time":1552055379214,"fix_duration":250,"trial":1,"RT":1308,"MT":380,"sideResp":2,"stimulus":"img/900/equaldotanddens/R/9_Ratio_900_L_18_R_20.png","xmouse":[802,802,802,800,800,800,799,798,797,796,796,796,796,796,796,796,796,796,796,796,796,796,796,796,796,796,796,796,796,796,796,796,796,796,796,796,796,795,796,799,800,800,800,800,800,800,800,800,800,800,800,800,800,800,800,800,800,800,800,800,800,800,800,800,814,865,949,1022,1151,1191,1200,1208,1216,1227,1231,1233,1234,1234,1234,1228,1217,1205,1184,1165,1132],"ymouse":[656,656,656,656,656,656,656,656,656,656,656,656,656,656,656,656,656,656,656,656,656,656,656,656,656,656,656,656,656,656,656,656,656,656,656,656,656,654,652,646,644,644,644,644,644,644,644,644,644,644,644,644,644,644,644,643,643,643,643,647,647,647,647,648,658,659,647,614,501,455,433,412,392,369,357,349,338,326,299,254,226,200,158,105,30],"timestamp_mouse":[27,44,48,67,88,108,128,149,167,188,208,229,248,268,287,308,328,349,367,388,408,427,449,469,488,508,528,547,569,588,607,627,648,667,688,709,728,749,768,788,807,827,847,869,889,907,928,947,969,987,1009,1028,1048,1068,1088,1108,1128,1148,1167,1189,1209,1227,1247,1267,1288,1308,1328,1348,1369,1387,1408,1429,1448,1468,1488,1508,1527,1548,1568,1588,1609,1628,1647,1668,1688],"xSR":741.5,"ySR":573.95,"xT1":424.9,"yT1":0,"xT2":1058.1,"yT2":0,"toosoon":0,"cond_shown":"equaldotanddens","ratio_trial":900,"smaller_num":"18","larger_num":"20","correct_side":2,"subjID":"alissondayanrubianobeltran","gender":"4","age":"1","school":"9"},{"start_time":1552055383622,"click_time":1552055384734,"finger_time":1552055384373,"fix_duration":1266.596579645194,"trial":2,"RT":751,"MT":361,"sideResp":2,"stimulus":"img/500/randomdotsizeEA/L/7_Ratio_500_L_10_R_5.png","xmouse":[801,801,801,801,801,801,801,801,801,801,801,801,801,801,801,801,801,801,801,801,801,801,801,801,801,801,801,801,801,801,801,801,801,805,812,819,828,837,857,865,874,886,914,930,945,963,990,1045,1070,1091,1107,1117,1128,1128,1128,1128],"ymouse":[633,633,633,633,633,633,633,633,633,633,633,633,633,633,633,633,633,633,633,633,633,633,633,633,633,633,633,633,633,633,632,632,631,624,613,598,582,564,532,519,506,490,461,447,433,419,401,355,315,266,239,221,175,138,110,86],"timestamp_mouse":[13,34,52,72,93,112,133,151,172,192,211,233,251,272,292,312,331,351,371,393,413,432,452,471,491,513,531,552,572,592,612,631,652,672,691,712,732,751,772,792,812,831,853,871,893,913,932,953,971,992,1011,1031,1052,1072,1092,1112],"xSR":741.5,"ySR":573.95,"xT1":424.9,"yT1":0,"xT2":1058.1,"yT2":0,"toosoon":0,"cond_shown":"randomdotsizeEA","ratio_trial":500,"smaller_num":"5","larger_num":"10","correct_side":1,"subjID":"alissondayanrubianobeltran","gender":"4","age":"1","school":"9"},{"start_time":1552055386937,"click_time":1552055387814,"finger_time":1552055387394,"fix_duration":1021.7254477378603,"trial":3,"RT":457,"MT":420,"sideResp":1,"stimulus":"img/750/equaldotsize/R/3_Ratio_750_L_15_R_20.png","xmouse":[796,796,796,796,796,796,796,796,796,796,796,796,796,796,796,796,796,796,796,796,793,793,779,763,749,732,668,640,628,617,605,596,586,583,578,574,571,559,555,548,542,530,525,523],"ymouse":[605,605,605,605,605,605,605,605,605,605,605,605,605,605,605,605,605,605,605,605,599,594,550,514,477,436,303,257,237,218,199,188,177,173,168,164,159,142,133,118,104,84,77,75],"timestamp_mouse":[18,36,57,77,97,117,138,157,178,196,216,238,257,277,297,317,336,356,377,398,417,437,457,477,498,516,537,556,577,597,617,637,657,677,697,717,738,757,777,797,817,838,857,877],"xSR":741.5,"ySR":573.95,"xT1":424.9,"yT1":0,"xT2":1058.1,"yT2":0,"toosoon":0,"cond_shown":"equaldotsize","ratio_trial":750,"smaller_num":"15","larger_num":"20","correct_side":2,"subjID":"alissondayanrubianobeltran","gender":"4","age":"1","school":"9"},{"start_time":1552055389286,"click_time":1552055390294,"finger_time":1552055389874,"fix_duration":251.7922571062411,"trial":4,"RT":588,"MT":420,"sideResp":2,"stimulus":"img/750/randomdotsizeEA/L/6_Ratio_750_L_24_R_18.png","xmouse":[804,804,803,803,803,801,800,798,796,791,789,789,789,789,789,789,789,789,789,789,789,789,789,789,789,790,792,796,803,826,853,874,896,915,927,929,929,929,929,930,939,943,950,956,968,979,993,1008,1027,1066,1075],"ymouse":[592,592,593,593,593,595,595,595,595,597,597,597,597,597,597,597,597,597,597,597,597,597,597,597,597,597,595,591,585,564,534,511,482,450,394,321,295,275,259,241,199,185,171,163,149,143,134,127,119,101,94],"timestamp_mouse":[13,37,47,68,88,108,129,149,168,188,208,229,249,268,288,308,328,349,368,389,407,428,449,468,487,508,529,549,568,588,608,628,648,667,688,708,728,747,768,788,808,828,849,868,888,907,928,948,967,989,1007],"xSR":741.5,"ySR":573.95,"xT1":424.9,"yT1":0,"xT2":1058.1,"yT2":0,"toosoon":0,"cond_shown":"randomdotsizeEA","ratio_trial":750,"smaller_num":"18","larger_num":"24","correct_side":1,"subjID":"alissondayanrubianobeltran","gender":"4","age":"1","school":"9"},{"start_time":1552055391713,"click_time":1552055392994,"finger_time":1552055392514,"fix_duration":477.0412150319694,"trial":5,"RT":801,"MT":480,"sideResp":2,"stimulus":"img/500/randomdotsizeEA/R/15_Ratio_500_L_1_R_2.png","xmouse":[792,792,792,792,792,792,792,792,792,792,792,792,792,792,792,792,792,792,792,792,792,792,792,792,792,792,792,792,792,792,792,792,792,792,792,792,792,792,791,789,781,766,749,728,724,723,723,723,727,758,780,805,834,869,939,963,983,1001,1020,1058,1072,1088,1102,1114,1129],"ymouse":[612,612,612,612,612,612,612,612,612,612,612,612,612,612,612,612,612,612,612,612,612,612,612,612,612,612,612,612,612,612,612,612,612,612,612,612,612,612,603,585,558,523,485,448,440,438,438,437,436,422,409,394,377,355,310,297,286,272,253,205,185,162,136,109,62],"timestamp_mouse":[11,22,45,62,82,101,121,141,161,181,200,222,242,262,281,301,321,342,362,381,401,421,440,461,481,501,522,540,561,581,602,622,641,660,681,702,720,741,761,781,801,821,841,861,880,901,921,941,961,981,1002,1020,1040,1061,1081,1101,1122,1142,1160,1181,1201,1221,1240,1260,1281],"xSR":741.5,"ySR":573.95,"xT1":424.9,"yT1":0,"xT2":1058.1,"yT2":0,"toosoon":0,"cond_shown":"randomdotsizeEA","ratio_trial":500,"smaller_num":"1","larger_num":"2","correct_side":2,"subjID":"alissondayanrubianobeltran","gender":"4","age":"1","school":"9"},{"start_time":1552055394105,"click_time":1552055395234,"finger_time":1552055394755,"fix_duration":250,"trial":6,"RT":650,"MT":479,"sideResp":1,"stimulus":"img/750/equaldotsize/L/1_Ratio_750_L_20_R_15.png","xmouse":[807,807,807,807,807,807,807,807,807,807,807,807,807,807,807,807,807,807,807,807,807,807,807,806,806,805,804,803,797,793,788,783,776,764,758,753,747,741,729,712,701,687,675,649,638,622,610,600,575,565,559,554,551,544,539,530,524],"ymouse":[617,617,617,617,617,617,617,617,617,617,617,617,617,617,617,617,617,617,617,617,617,617,617,617,617,617,617,617,613,605,596,583,567,537,521,504,483,463,415,360,331,298,271,224,200,180,162,146,116,103,97,94,91,89,88,86,84],"timestamp_mouse":[13,35,48,69,89,108,129,149,169,189,210,230,248,268,290,309,328,349,368,389,408,429,449,469,488,508,529,549,570,589,609,629,650,670,689,708,729,749,769,788,810,829,848,870,888,909,928,950,969,988,1010,1030,1050,1069,1089,1110,1129],"xSR":741.5,"ySR":573.95,"xT1":424.9,"yT1":0,"xT2":1058.1,"yT2":0,"toosoon":0,"cond_shown":"equaldotsize","ratio_trial":750,"smaller_num":"15","larger_num":"20","correct_side":1,"subjID":"alissondayanrubianobeltran","gender":"4","age":"1","school":"9"},{"start_time":1552055397228,"click_time":1552055397994,"finger_time":1552055397794,"fix_duration":953.998071938232,"trial":7,"RT":566,"MT":200,"sideResp":2,"stimulus":"img/900/equaldotanddens/L/4_Ratio_900_L_20_R_18.png","xmouse":[791,791,791,791,791,791,791,791,791,791,791,791,791,791,791,791,791,791,791,791,791,791,791,791,793,794,798,801,829,871,928,991,1076,1094,1095,1096,1097,1097,1097],"ymouse":[626,626,626,626,626,626,626,626,626,626,626,626,626,626,626,626,626,626,626,626,626,626,626,626,626,626,621,612,573,531,469,375,242,203,184,157,127,104,51],"timestamp_mouse":[13,26,47,65,86,107,126,145,166,187,206,226,245,265,287,307,326,346,365,385,406,426,446,465,486,506,526,547,566,586,607,627,646,665,686,707,726,746,765],"xSR":741.5,"ySR":573.95,"xT1":424.9,"yT1":0,"xT2":1058.1,"yT2":0,"toosoon":0,"cond_shown":"equaldotanddens","ratio_trial":900,"smaller_num":"18","larger_num":"20","correct_side":1,"subjID":"alissondayanrubianobeltran","gender":"4","age":"1","school":"9"},{"start_time":1552055399337,"click_time":1552055400034,"finger_time":1552055399653,"fix_duration":361.6566437647265,"trial":8,"RT":316,"MT":381,"sideResp":1,"stimulus":"img/500/equaldotanddens/L/13_Ratio_500_L_12_R_6.png","xmouse":[791,791,791,791,791,791,792,792,792,792,792,792,792,792,792,791,764,733,703,663,628,606,577,565,559,557,557,557,557,556,553,539,533,527,518],"ymouse":[608,608,608,608,607,606,605,605,605,605,604,603,598,590,574,551,467,395,330,261,212,170,115,99,92,90,90,90,90,89,86,74,69,64,58],"timestamp_mouse":[17,36,57,76,96,117,137,157,177,197,217,237,257,277,297,316,338,356,377,398,417,437,457,477,498,516,538,556,577,598,617,637,657,678,697],"xSR":741.5,"ySR":573.95,"xT1":424.9,"yT1":0,"xT2":1058.1,"yT2":0,"toosoon":0,"cond_shown":"equaldotanddens","ratio_trial":500,"smaller_num":"6","larger_num":"12","correct_side":1,"subjID":"alissondayanrubianobeltran","gender":"4","age":"1","school":"9"},{"start_time":1552055401750,"click_time":1552055402715,"finger_time":1552055402454,"fix_duration":895.9291630114386,"trial":9,"RT":704,"MT":261,"sideResp":1,"stimulus":"img/500/randomdotsizeEA/L/8_Ratio_500_L_8_R_4.png","xmouse":[781,781,781,781,781,781,781,781,781,781,781,781,781,781,781,781,781,781,781,781,781,781,781,781,781,781,781,781,781,781,781,781,782,781,775,768,743,712,687,657,617,574,530,524,524,522,521,521,520],"ymouse":[604,604,604,604,604,604,604,604,604,604,604,604,604,604,604,604,604,604,604,604,604,604,604,604,604,604,604,604,604,604,604,604,602,596,582,566,521,467,419,361,292,220,144,130,124,119,111,105,99],"timestamp_mouse":[12,40,45,63,85,105,125,144,163,185,203,223,244,264,284,304,324,345,365,384,403,423,444,465,484,505,523,544,564,583,604,624,644,664,684,704,724,743,764,785,804,825,844,863,884,904,925,943,965],"xSR":741.5,"ySR":573.95,"xT1":424.9,"yT1":0,"xT2":1058.1,"yT2":0,"toosoon":0,"cond_shown":"randomdotsizeEA","ratio_trial":500,"smaller_num":"4","larger_num":"8","correct_side":1,"subjID":"alissondayanrubianobeltran","gender":"4","age":"1","school":"9"},{"start_time":1552055404554,"click_time":1552055405135,"finger_time":1552055404975,"fix_duration":797.3766047225984,"trial":10,"RT":421,"MT":160,"sideResp":1,"stimulus":"img/900/equaldotanddens/L/10_Ratio_900_L_20_R_18.png","xmouse":[808,808,808,808,808,808,808,808,808,808,808,808,808,808,808,808,805,798,794,790,785,774,769,757,730,695,654,549,511,489],"ymouse":[620,620,620,620,620,620,620,620,620,620,620,620,620,620,620,619,612,599,591,583,576,550,532,502,445,384,321,166,109,77],"timestamp_mouse":[1,19,40,59,79,99,120,139,160,181,200,221,240,261,280,299,320,339,360,381,400,421,439,460,480,500,520,540,561,581],"xSR":741.5,"ySR":573.95,"xT1":424.9,"yT1":0,"xT2":1058.1,"yT2":0,"toosoon":0,"cond_shown":"equaldotanddens","ratio_trial":900,"smaller_num":"18","larger_num":"20","correct_side":1,"subjID":"alissondayanrubianobeltran","gender":"4","age":"1","school":"9"},{"start_time":1552055406411,"click_time":1552055407655,"finger_time":1552055406874,"fix_duration":315.6590125355008,"trial":11,"RT":463,"MT":781,"sideResp":2,"stimulus":"img/750/equaldotsize/R/7_Ratio_750_L_3_R_4.png","xmouse":[783,783,783,783,783,783,783,783,783,783,783,783,783,783,783,783,783,783,783,782,781,780,778,774,768,763,752,730,690,677,670,662,660,659,659,659,661,664,669,701,732,771,812,865,894,910,924,938,957,965,971,979,983,994,999,1004,1007,1014,1023,1038,1045,1051,1061],"ymouse":[604,604,604,604,604,604,604,604,604,604,604,604,604,604,604,604,604,604,603,598,593,587,581,567,555,544,526,495,444,427,413,405,401,401,400,400,400,399,399,399,399,392,387,372,362,355,346,337,312,296,283,263,246,212,192,178,162,149,135,116,110,104,98],"timestamp_mouse":[10,30,43,63,83,103,124,142,163,182,204,223,243,262,283,303,322,343,364,383,403,423,443,463,482,504,523,544,564,583,603,623,642,663,684,703,723,743,764,783,803,823,842,863,883,903,924,943,964,983,1003,1023,1043,1063,1082,1103,1124,1143,1163,1183,1203,1223,1244],"xSR":741.5,"ySR":573.95,"xT1":424.9,"yT1":0,"xT2":1058.1,"yT2":0,"toosoon":0,"cond_shown":"equaldotsize","ratio_trial":750,"smaller_num":"3","larger_num":"4","correct_side":2,"subjID":"alissondayanrubianobeltran","gender":"4","age":"1","school":"9"},{"start_time":1552055409694,"click_time":1552055410794,"finger_time":1552055410494,"fix_duration":1099.3421717977967,"trial":12,"RT":800,"MT":300,"sideResp":2,"stimulus":"img/900/equaldotanddens/L/2_Ratio_900_L_20_R_18.png","xmouse":[811,811,811,811,811,811,811,811,811,811,811,811,811,811,811,811,811,811,811,811,811,811,811,811,811,811,811,811,811,811,811,811,811,811,811,811,811,811,823,831,882,892,904,919,934,980,1000,1011,1021,1038,1051,1060,1073,1089,1104,1123],"ymouse":[613,613,613,613,613,613,613,613,613,613,613,613,613,613,613,613,613,613,613,613,613,613,613,613,613,613,613,613,613,613,613,613,613,613,613,613,613,613,604,594,521,496,468,428,393,302,266,242,218,181,161,147,132,120,111,93],"timestamp_mouse":[1,19,40,60,80,100,119,139,160,179,200,221,240,259,279,301,320,340,360,381,399,421,440,459,481,500,519,540,561,580,600,621,641,659,679,700,721,740,759,780,800,820,839,859,880,900,920,941,960,980,1000,1020,1040,1060,1080,1100],"xSR":741.5,"ySR":573.95,"xT1":424.9,"yT1":0,"xT2":1058.1,"yT2":0,"toosoon":0,"cond_shown":"equaldotanddens","ratio_trial":900,"smaller_num":"18","larger_num":"20","correct_side":1,"subjID":"alissondayanrubianobeltran","gender":"4","age":"1","school":"9"},{"start_time":1552055412868,"click_time":1552055413774,"finger_time":1552055413176,"fix_duration":833.1406119585333,"trial":13,"RT":308,"MT":598,"sideResp":1,"stimulus":"img/500/equaldotsize/L/4_Ratio_500_L_18_R_9.png","xmouse":[788,788,788,788,788,788,788,788,788,788,788,789,795,797,798,798,796,791,785,776,770,765,759,758,757,755,752,747,741,732,704,679,663,649,640,633,624,619,615,609,597,553,540,531,526,524],"ymouse":[649,649,649,649,649,649,649,649,649,649,649,640,621,602,580,510,468,424,378,331,298,261,244,239,235,231,226,222,216,208,186,168,157,147,140,135,129,126,124,122,116,94,88,85,84,83],"timestamp_mouse":[14,40,46,66,85,105,125,147,167,186,206,226,246,267,285,308,325,346,366,387,407,426,446,467,486,506,526,546,566,587,606,626,645,665,685,706,726,746,766,785,806,825,846,866,886,906],"xSR":741.5,"ySR":573.95,"xT1":424.9,"yT1":0,"xT2":1058.1,"yT2":0,"toosoon":0,"cond_shown":"equaldotsize","ratio_trial":500,"smaller_num":"9","larger_num":"18","correct_side":1,"subjID":"alissondayanrubianobeltran","gender":"4","age":"1","school":"9"},{"start_time":1552055415207,"click_time":1552055416175,"finger_time":1552055415854,"fix_duration":250,"trial":14,"RT":647,"MT":321,"sideResp":2,"stimulus":"img/250/equaldotanddens/R/8_Ratio_250_L_1_R_4.png","xmouse":[775,775,775,775,775,775,775,775,775,775,775,775,775,775,775,775,775,775,775,775,775,775,775,775,775,775,775,775,780,792,807,835,864,902,918,925,934,946,984,1002,1019,1033,1045,1071,1085,1093,1099,1105,1115],"ymouse":[654,654,654,654,654,654,654,654,654,654,654,654,654,654,654,654,654,654,654,654,654,654,654,654,654,654,654,654,650,638,622,589,547,490,458,439,416,385,319,293,272,251,230,186,154,136,119,102,64],"timestamp_mouse":[12,34,48,67,87,108,128,148,167,187,208,226,247,268,288,307,327,346,368,387,408,426,446,467,486,508,526,547,567,587,607,627,647,667,686,707,728,747,768,787,807,827,847,867,886,907,928,947,967],"xSR":741.5,"ySR":573.95,"xT1":424.9,"yT1":0,"xT2":1058.1,"yT2":0,"toosoon":0,"cond_shown":"equaldotanddens","ratio_trial":250,"smaller_num":"1","larger_num":"4","correct_side":2,"subjID":"alissondayanrubianobeltran","gender":"4","age":"1","school":"9"},{"start_time":1552055418325,"click_time":1552055420234,"finger_time":1552055418954,"fix_duration":468.7006076889325,"trial":15,"RT":629,"MT":1280,"sideResp":1,"stimulus":"img/250/equaldotsize/L/1_Ratio_250_L_8_R_2.png","xmouse":[782,782,782,782,782,782,782,782,782,782,782,782,782,782,782,782,782,782,782,782,782,782,782,782,782,782,782,782,782,786,792,796,800,795,781,767,758,734,727,719,717,716,706,697,682,667,650,635,617,617,617,617,617,617,617,617,617,617,617,617,617,617,618,630,650,678,708,729,740,740,740,738,720,708,698,676,647,618,559,531,522,518,515,511,504,496,488,485,483,483,483,483,481,480,479,478],"ymouse":[617,617,617,617,617,617,617,617,617,617,617,617,617,617,617,617,617,617,617,617,617,617,617,617,617,617,617,617,617,603,581,549,503,400,361,331,311,281,274,268,267,266,247,230,208,182,159,139,122,122,122,122,122,122,122,122,122,122,122,122,122,122,122,122,122,125,130,136,139,139,139,139,136,132,129,122,114,109,104,104,104,104,105,105,105,105,105,105,105,105,105,105,105,103,102,98],"timestamp_mouse":[13,38,49,68,89,109,130,149,169,189,209,229,249,269,290,309,329,349,369,389,410,429,448,469,490,510,529,549,569,589,610,629,649,669,689,709,728,750,768,789,809,830,849,868,889,910,930,948,969,990,1009,1030,1050,1070,1089,1109,1128,1148,1168,1189,1209,1229,1249,1269,1289,1308,1329,1348,1370,1390,1408,1428,1449,1469,1489,1510,1529,1548,1569,1589,1609,1630,1649,1669,1689,1709,1729,1749,1769,1788,1810,1829,1849,1868,1889,1909],"xSR":741.5,"ySR":573.95,"xT1":424.9,"yT1":0,"xT2":1058.1,"yT2":0,"toosoon":0,"cond_shown":"equaldotsize","ratio_trial":250,"smaller_num":"2","larger_num":"8","correct_side":1,"subjID":"alissondayanrubianobeltran","gender":"4","age":"1","school":"9"},{"start_time":1552055422807,"click_time":1552055423714,"finger_time":1552055423435,"fix_duration":250,"trial":16,"RT":628,"MT":279,"sideResp":2,"stimulus":"img/750/randomdotsizeEA/L/8_Ratio_750_L_4_R_3.png","xmouse":[806,806,806,806,806,806,806,806,806,806,806,806,806,806,806,806,806,806,806,806,806,806,806,806,806,806,806,806,805,805,805,802,802,809,844,884,930,973,1030,1044,1055,1064,1074,1099,1118,1127],"ymouse":[628,628,628,628,628,628,628,628,628,628,628,628,628,628,628,628,628,628,628,628,628,628,628,628,628,628,628,628,621,610,589,564,535,496,429,378,329,288,238,219,200,178,159,128,108,99],"timestamp_mouse":[21,28,47,68,87,107,127,146,168,188,207,228,248,267,287,308,327,346,367,387,408,427,466,466,487,507,528,546,567,587,608,628,648,667,687,707,727,747,767,786,807,828,846,867,886,907],"xSR":741.5,"ySR":573.95,"xT1":424.9,"yT1":0,"xT2":1058.1,"yT2":0,"toosoon":0,"cond_shown":"randomdotsizeEA","ratio_trial":750,"smaller_num":"3","larger_num":"4","correct_side":1,"subjID":"alissondayanrubianobeltran","gender":"4","age":"1","school":"9"},{"start_time":1552055425083,"click_time":1552055426435,"finger_time":1552055425714,"fix_duration":426.4893599189914,"trial":17,"RT":631,"MT":721,"sideResp":1,"stimulus":"img/250/equaldotanddens/L/5_Ratio_250_L_24_R_6.png","xmouse":[784,784,784,784,784,784,784,784,784,784,784,784,784,784,784,784,784,784,784,784,784,784,784,784,784,784,784,784,784,784,775,772,759,749,739,723,715,711,706,699,691,686,678,669,649,637,623,614,603,591,591,591,591,591,590,584,576,567,561,559,559,559,559,559,554,539,525,511],"ymouse":[610,610,610,610,610,610,610,610,610,610,610,610,610,610,610,610,610,610,610,610,610,610,610,610,607,607,607,607,606,604,579,573,544,522,502,460,436,412,388,337,304,285,264,245,207,187,164,150,136,126,125,125,125,125,124,116,104,89,82,79,79,79,79,79,75,71,66,62],"timestamp_mouse":[13,41,50,72,92,110,131,151,170,191,210,231,251,272,291,311,332,351,372,391,411,431,451,471,492,512,530,550,572,591,612,631,651,671,691,711,732,752,772,791,810,831,851,871,891,911,931,951,970,991,1010,1032,1050,1072,1091,1110,1131,1151,1171,1191,1211,1231,1252,1271,1291,1311,1330,1351],"xSR":741.5,"ySR":573.95,"xT1":424.9,"yT1":0,"xT2":1058.1,"yT2":0,"toosoon":0,"cond_shown":"equaldotanddens","ratio_trial":250,"smaller_num":"6","larger_num":"24","correct_side":1,"subjID":"alissondayanrubianobeltran","gender":"4","age":"1","school":"9"},{"start_time":1552055428800,"click_time":1552055429734,"finger_time":1552055429374,"fix_duration":1365.6069766914661,"trial":18,"RT":574,"MT":360,"sideResp":2,"stimulus":"img/250/equaldotsize/R/10_Ratio_250_L_4_R_16.png","xmouse":[790,790,790,790,790,790,790,790,790,785,775,772,772,772,772,772,772,772,772,772,772,772,772,772,771,774,783,798,841,865,896,933,974,1068,1121,1135,1165,1176,1186,1186,1186,1182,1174,1153,1131,1118,1103],"ymouse":[618,618,618,618,618,618,618,618,618,618,618,618,618,618,618,618,618,618,618,618,618,618,618,618,618,614,606,595,567,556,538,516,497,457,434,426,402,385,348,327,302,276,244,180,138,116,92],"timestamp_mouse":[19,43,53,74,93,115,134,155,174,194,214,233,254,275,294,314,334,355,375,393,414,435,455,474,494,514,534,555,574,594,614,635,654,673,693,714,735,754,774,794,815,834,855,874,893,913,934],"xSR":741.5,"ySR":573.95,"xT1":424.9,"yT1":0,"xT2":1058.1,"yT2":0,"toosoon":0,"cond_shown":"equaldotsize","ratio_trial":250,"smaller_num":"4","larger_num":"16","correct_side":2,"subjID":"alissondayanrubianobeltran","gender":"4","age":"1","school":"9"},{"start_time":1552055430887,"click_time":1552055431875,"finger_time":1552055431574,"fix_duration":250,"trial":19,"RT":687,"MT":301,"sideResp":2,"stimulus":"img/900/equaldotanddens/R/3_Ratio_900_L_9_R_10.png","xmouse":[797,797,797,797,797,797,797,797,797,797,797,797,797,797,797,797,797,797,797,797,797,797,797,797,797,797,797,797,797,797,797,797,797,812,843,871,894,912,931,956,1019,1034,1043,1049,1063,1070,1078,1085,1092,1106],"ymouse":[630,630,630,630,630,630,630,630,630,630,630,630,630,630,630,630,630,630,630,630,630,630,630,630,630,630,630,630,630,630,630,630,630,612,584,562,547,534,519,485,390,360,336,312,266,241,211,182,153,93],"timestamp_mouse":[13,37,46,67,87,107,127,147,166,187,207,227,247,267,287,307,328,348,366,388,407,427,448,466,486,506,527,548,566,586,607,627,647,666,687,707,727,747,767,786,807,827,846,866,887,907,927,947,966,988],"xSR":741.5,"ySR":573.95,"xT1":424.9,"yT1":0,"xT2":1058.1,"yT2":0,"toosoon":0,"cond_shown":"equaldotanddens","ratio_trial":900,"smaller_num":"9","larger_num":"10","correct_side":2,"subjID":"alissondayanrubianobeltran","gender":"4","age":"1","school":"9"},{"start_time":1552055433941,"click_time":1552055434594,"finger_time":1552055434374,"fix_duration":1125.1639241884961,"trial":20,"RT":433,"MT":220,"sideResp":2,"stimulus":"img/750/equaldotsize/R/15_Ratio_750_L_9_R_12.png","xmouse":[784,784,784,784,784,784,784,784,784,784,784,784,784,784,784,784,784,784,784,786,796,843,885,920,943,957,989,1019,1037,1050,1061,1078,1086],"ymouse":[622,622,622,622,622,622,622,622,622,622,622,622,622,622,622,622,622,622,622,617,602,538,489,437,391,358,304,244,208,181,155,105,84],"timestamp_mouse":[20,39,52,72,92,114,132,152,174,192,212,233,252,272,292,314,333,353,373,394,414,433,453,473,492,513,533,552,573,592,612,633,653],"xSR":741.5,"ySR":573.95,"xT1":424.9,"yT1":0,"xT2":1058.1,"yT2":0,"toosoon":0,"cond_shown":"equaldotsize","ratio_trial":750,"smaller_num":"9","larger_num":"12","correct_side":2,"subjID":"alissondayanrubianobeltran","gender":"4","age":"1","school":"9"},{"start_time":1552055435832,"click_time":1552055436654,"finger_time":1552055436333,"fix_duration":397.96166803296495,"trial":21,"RT":501,"MT":321,"sideResp":2,"stimulus":"img/750/equaldotanddens/R/15_Ratio_750_L_9_R_12.png","xmouse":[811,811,811,811,811,811,811,811,811,811,811,811,811,811,811,811,811,811,811,811,811,811,811,817,831,848,863,898,908,918,926,932,961,987,1002,1015,1028,1041,1045,1048,1053,1059],"ymouse":[631,631,631,631,631,631,631,631,631,631,631,631,631,631,631,631,631,631,631,631,631,631,631,628,614,595,581,533,510,487,463,434,341,254,207,166,127,78,64,55,46,37],"timestamp_mouse":[7,21,41,62,82,102,121,142,162,183,201,221,242,261,283,301,321,342,362,381,403,422,442,462,482,501,521,542,562,583,603,622,641,661,682,702,723,741,761,781,801,822],"xSR":741.5,"ySR":573.95,"xT1":424.9,"yT1":0,"xT2":1058.1,"yT2":0,"toosoon":0,"cond_shown":"equaldotanddens","ratio_trial":750,"smaller_num":"9","larger_num":"12","correct_side":2,"subjID":"alissondayanrubianobeltran","gender":"4","age":"1","school":"9"},{"start_time":1552055438711,"click_time":1552055440134,"finger_time":1552055439173,"fix_duration":936.2610179091809,"trial":22,"RT":462,"MT":961,"sideResp":1,"stimulus":"img/750/randomdotsizeEA/L/14_Ratio_750_L_8_R_6.png","xmouse":[771,771,771,771,771,771,771,771,771,771,771,771,771,771,771,771,771,771,771,771,776,781,788,798,800,800,799,796,789,778,774,757,743,710,695,682,669,654,642,625,618,613,611,606,604,602,598,592,570,553,542,529,519,513,512,511,509,506,500,500,499,498,497,495,494,493,490,488,483,483,483,483],"ymouse":[599,599,599,599,599,599,599,599,599,599,599,599,599,599,599,599,599,599,599,599,597,591,580,548,535,521,507,497,466,431,418,380,346,288,267,246,227,207,190,162,149,143,140,134,131,131,129,128,122,119,118,117,115,115,115,114,113,113,111,111,110,110,110,109,108,108,108,107,104,103,100,95],"timestamp_mouse":[18,26,43,63,83,102,122,143,163,182,202,222,242,263,283,302,322,342,363,382,403,423,443,462,482,503,522,543,562,582,602,623,642,663,683,703,722,742,763,783,804,823,842,862,883,902,923,944,962,982,1004,1023,1042,1062,1082,1102,1122,1142,1163,1183,1203,1223,1242,1262,1282,1303,1323,1342,1363,1382,1403,1423],"xSR":741.5,"ySR":573.95,"xT1":424.9,"yT1":0,"xT2":1058.1,"yT2":0,"toosoon":0,"cond_shown":"randomdotsizeEA","ratio_trial":750,"smaller_num":"6","larger_num":"8","correct_side":1,"subjID":"alissondayanrubianobeltran","gender":"4","age":"1","school":"9"},{"start_time":1552055442542,"click_time":1552055443553,"finger_time":1552055442934,"fix_duration":1267.0910985103906,"trial":23,"RT":392,"MT":619,"sideResp":1,"stimulus":"img/250/randomdotsizeEA/L/15_Ratio_250_L_12_R_3.png","xmouse":[818,818,818,818,818,818,818,818,818,818,818,818,818,818,818,818,818,820,828,835,843,868,886,909,923,939,980,1008,1021,1032,1041,1054,1054,1054,1054,1054,1045,1039,1006,975,934,833,785,744,705,666,599,574,544,531,521],"ymouse":[618,618,618,618,618,618,618,618,618,618,618,618,618,618,618,615,606,597,579,564,545,487,450,408,359,317,250,211,191,172,155,129,124,121,119,119,116,116,116,116,116,116,111,106,99,94,88,87,86,85,83],"timestamp_mouse":[13,38,53,71,92,111,133,151,171,191,211,233,252,272,292,313,331,351,371,392,411,431,451,472,492,513,531,552,572,591,611,632,652,671,692,711,732,752,771,792,811,832,852,872,892,911,932,951,972,992,1011],"xSR":741.5,"ySR":573.95,"xT1":424.9,"yT1":0,"xT2":1058.1,"yT2":0,"toosoon":0,"cond_shown":"randomdotsizeEA","ratio_trial":250,"smaller_num":"3","larger_num":"12","correct_side":1,"subjID":"alissondayanrubianobeltran","gender":"4","age":"1","school":"9"},{"start_time":1552055444783,"click_time":1552055445653,"finger_time":1552055445293,"fix_duration":548.4590116488371,"trial":24,"RT":510,"MT":360,"sideResp":1,"stimulus":"img/900/randomdotsizeEA/L/4_Ratio_900_L_20_R_18.png","xmouse":[785,785,785,785,785,785,785,785,785,785,785,787,788,788,790,790,790,790,790,791,792,794,797,799,800,792,761,723,673,587,556,514,477,457,443,442,439,439,439,441,444,449,454,460],"ymouse":[661,661,661,661,661,661,661,661,661,661,661,661,661,660,659,659,659,659,659,657,656,650,642,627,587,561,517,476,426,333,296,250,202,171,146,140,134,133,131,123,116,108,101,93],"timestamp_mouse":[23,32,51,70,90,110,130,151,171,191,210,231,250,271,290,310,330,350,370,391,410,432,450,472,490,510,531,552,571,590,610,630,650,670,690,712,731,751,771,790,811,831,850,870],"xSR":741.5,"ySR":573.95,"xT1":424.9,"yT1":0,"xT2":1058.1,"yT2":0,"toosoon":0,"cond_shown":"randomdotsizeEA","ratio_trial":900,"smaller_num":"18","larger_num":"20","correct_side":1,"subjID":"alissondayanrubianobeltran","gender":"4","age":"1","school":"9"},{"start_time":1552055447351,"click_time":1552055447994,"finger_time":1552055447773,"fix_duration":875.8639213387789,"trial":25,"RT":422,"MT":221,"sideResp":2,"stimulus":"img/900/randomdotsizeEA/L/2_Ratio_900_L_20_R_18.png","xmouse":[786,786,786,786,786,786,786,786,786,786,786,786,786,786,786,786,786,787,789,793,800,837,861,899,924,945,996,1012,1036,1051,1063,1086,1095],"ymouse":[603,603,603,603,603,603,603,603,603,603,603,603,603,603,603,603,603,603,603,597,588,564,549,524,500,469,391,353,286,241,193,120,82],"timestamp_mouse":[12,22,43,62,84,103,122,142,163,184,202,223,242,262,283,302,324,342,363,383,402,422,443,463,482,502,522,542,563,582,602,622,642],"xSR":741.5,"ySR":573.95,"xT1":424.9,"yT1":0,"xT2":1058.1,"yT2":0,"toosoon":0,"cond_shown":"randomdotsizeEA","ratio_trial":900,"smaller_num":"18","larger_num":"20","correct_side":1,"subjID":"alissondayanrubianobeltran","gender":"4","age":"1","school":"9"},{"start_time":1552055449158,"click_time":1552055450235,"finger_time":1552055449494,"fix_duration":343.93249987083465,"trial":26,"RT":336,"MT":741,"sideResp":1,"stimulus":"img/500/randomdotsizeEA/L/10_Ratio_500_L_4_R_2.png","xmouse":[765,765,765,765,765,765,766,766,766,766,766,766,766,766,762,756,726,716,706,697,686,662,646,629,611,592,553,544,533,526,517,515,513,511,509,506,505,505,505,505,505,505,505,505,505,505,505,504,502,501,496,489,487,486],"ymouse":[653,653,653,653,653,653,651,651,649,648,647,645,641,633,618,599,525,500,475,451,424,368,339,315,290,267,228,212,199,187,171,167,164,161,158,153,152,152,152,152,152,152,152,152,152,152,152,148,145,136,126,109,105,97],"timestamp_mouse":[16,37,56,76,95,115,136,156,176,195,216,235,256,275,295,316,336,355,375,396,415,436,456,477,496,515,536,556,576,597,616,635,655,675,695,715,736,756,776,795,815,835,855,876,895,916,935,956,975,996,1017,1035,1056,1076],"xSR":741.5,"ySR":573.95,"xT1":424.9,"yT1":0,"xT2":1058.1,"yT2":0,"toosoon":0,"cond_shown":"randomdotsizeEA","ratio_trial":500,"smaller_num":"2","larger_num":"4","correct_side":1,"subjID":"alissondayanrubianobeltran","gender":"4","age":"1","school":"9"},{"start_time":1552055452397,"click_time":1552055453214,"finger_time":1552055452853,"fix_duration":1221.87897510957,"trial":27,"RT":456,"MT":361,"sideResp":1,"stimulus":"img/500/equaldotanddens/L/4_Ratio_500_L_18_R_9.png","xmouse":[808,808,808,808,808,808,808,808,808,808,808,808,808,808,808,808,808,808,808,808,805,800,786,738,714,696,682,670,653,648,644,637,630,610,587,572,559,548,528,519,514],"ymouse":[622,622,622,622,622,622,622,622,622,622,622,622,622,622,622,622,622,622,622,621,604,588,558,463,429,404,384,367,344,336,328,317,305,272,235,206,182,165,127,112,99],"timestamp_mouse":[16,44,57,77,96,117,136,157,177,196,217,236,256,276,296,318,338,357,377,397,417,436,456,478,496,516,536,557,577,596,618,637,658,677,696,717,738,756,777,797,817],"xSR":741.5,"ySR":573.95,"xT1":424.9,"yT1":0,"xT2":1058.1,"yT2":0,"toosoon":0,"cond_shown":"equaldotanddens","ratio_trial":500,"smaller_num":"9","larger_num":"18","correct_side":1,"subjID":"alissondayanrubianobeltran","gender":"4","age":"1","school":"9"},{"start_time":1552055454717,"click_time":1552055455993,"finger_time":1552055455554,"fix_duration":562.539077992843,"trial":28,"RT":837,"MT":439,"sideResp":2,"stimulus":"img/500/equaldotsize/R/15_Ratio_500_L_1_R_2.png","xmouse":[805,805,805,805,805,805,805,805,805,805,805,805,805,805,805,805,805,805,805,805,805,805,805,805,805,805,805,803,803,802,802,802,802,802,802,802,802,802,802,802,807,818,848,867,883,898,912,945,964,991,998,1002,1004,1004,1005,1005,1005,1017,1026,1032,1038,1044,1050,1064],"ymouse":[639,639,639,639,639,639,639,639,639,639,639,639,639,639,639,639,639,639,639,639,639,639,639,639,639,630,626,609,600,594,591,589,587,586,586,586,586,586,586,582,574,557,509,475,440,398,349,239,201,144,114,92,64,60,59,59,59,59,56,55,55,54,54,51],"timestamp_mouse":[21,45,57,76,96,117,136,157,176,196,217,237,257,276,296,316,338,356,376,397,418,437,456,477,498,516,537,557,577,596,616,637,657,677,697,716,738,758,777,797,817,837,857,876,896,917,937,957,976,997,1017,1037,1057,1076,1096,1116,1136,1158,1176,1197,1218,1237,1256,1276],"xSR":741.5,"ySR":573.95,"xT1":424.9,"yT1":0,"xT2":1058.1,"yT2":0,"toosoon":0,"cond_shown":"equaldotsize","ratio_trial":500,"smaller_num":"1","larger_num":"2","correct_side":2,"subjID":"alissondayanrubianobeltran","gender":"4","age":"1","school":"9"},{"start_time":1552055456965,"click_time":1552055457934,"finger_time":1552055457574,"fix_duration":250,"trial":29,"RT":609,"MT":360,"sideResp":1,"stimulus":"img/250/equaldotanddens/L/15_Ratio_250_L_12_R_3.png","xmouse":[763,763,763,763,763,763,763,763,763,763,763,763,763,763,763,763,763,763,763,763,763,763,763,763,763,763,763,763,763,749,699,642,581,524,482,434,412,399,392,387,382,382,382,385,388,401,409,416,426],"ymouse":[641,641,641,641,641,641,641,641,641,641,641,641,641,641,641,641,641,641,641,641,641,641,641,641,641,641,641,641,641,623,563,505,448,399,357,288,240,206,181,161,126,107,90,78,69,54,52,49,43],"timestamp_mouse":[9,42,49,70,88,109,129,150,168,190,209,228,248,269,289,309,330,348,369,388,408,429,450,468,488,509,530,550,569,589,609,628,650,669,690,709,728,749,768,788,809,829,849,869,888,909,929,948,969],"xSR":741.5,"ySR":573.95,"xT1":424.9,"yT1":0,"xT2":1058.1,"yT2":0,"toosoon":0,"cond_shown":"equaldotanddens","ratio_trial":250,"smaller_num":"3","larger_num":"12","correct_side":1,"subjID":"alissondayanrubianobeltran","gender":"4","age":"1","school":"9"},{"start_time":1552055460366,"click_time":1552055461933,"finger_time":1552055461134,"fix_duration":250,"trial":30,"RT":768,"MT":799,"sideResp":1,"stimulus":"img/750/randomdotsizeEA/L/13_Ratio_750_L_8_R_6.png","xmouse":[773,773,773,773,773,773,773,773,773,773,773,773,773,773,773,773,773,773,773,776,780,784,787,788,788,788,788,789,789,790,792,792,792,792,789,786,786,786,783,779,778,775,773,767,755,739,722,707,686,632,588,542,504,474,424,416,410,409,408,408,408,408,408,408,408,408,408,408,408,408,408,408,408,408,408,408,414,431],"ymouse":[639,639,639,639,639,639,639,639,639,639,639,639,639,639,639,639,639,639,639,636,633,630,628,628,628,628,628,627,627,627,625,622,616,609,598,594,582,565,546,500,480,464,446,429,387,351,318,292,265,222,190,158,133,116,80,73,67,66,65,65,65,65,65,65,65,65,65,65,65,65,65,65,65,65,65,65,65,66],"timestamp_mouse":[32,47,67,89,109,127,147,168,189,208,227,248,268,287,307,328,348,367,388,408,427,447,467,489,507,527,548,567,589,607,628,648,668,689,708,728,748,768,787,808,828,848,868,887,909,927,948,967,987,1008,1027,1047,1067,1087,1108,1127,1148,1168,1188,1208,1227,1247,1269,1287,1309,1327,1348,1368,1388,1408,1428,1448,1468,1488,1508,1527,1548,1567],"xSR":741.5,"ySR":573.95,"xT1":424.9,"yT1":0,"xT2":1058.1,"yT2":0,"toosoon":0,"cond_shown":"randomdotsizeEA","ratio_trial":750,"smaller_num":"6","larger_num":"8","correct_side":1,"subjID":"alissondayanrubianobeltran","gender":"4","age":"1","school":"9"},{"start_time":1552055463165,"click_time":1552055464273,"finger_time":1552055463693,"fix_duration":250,"trial":31,"RT":528,"MT":580,"sideResp":2,"stimulus":"img/900/equaldotanddens/R/11_Ratio_900_L_18_R_20.png","xmouse":[784,784,784,784,784,784,785,785,785,785,785,785,785,785,785,785,785,785,785,785,785,785,786,788,796,806,820,837,859,917,946,985,1013,1039,1073,1086,1091,1096,1100,1105,1116,1119,1120,1120,1120,1120,1120,1120,1120,1120,1120,1121,1121,1122,1124],"ymouse":[603,603,603,603,603,603,603,603,603,603,603,603,603,603,603,603,603,603,603,603,603,603,602,600,586,565,541,507,467,385,336,299,269,243,211,196,185,177,168,156,132,122,114,110,110,110,110,110,110,110,110,108,105,100,96],"timestamp_mouse":[34,48,69,88,109,128,148,168,189,208,230,249,268,288,308,329,350,369,388,410,429,449,468,489,509,528,549,568,590,609,628,648,668,688,709,728,750,768,789,808,828,849,869,890,909,929,949,969,989,1008,1029,1048,1068,1090,1108],"xSR":741.5,"ySR":573.95,"xT1":424.9,"yT1":0,"xT2":1058.1,"yT2":0,"toosoon":0,"cond_shown":"equaldotanddens","ratio_trial":900,"smaller_num":"18","larger_num":"20","correct_side":2,"subjID":"alissondayanrubianobeltran","gender":"4","age":"1","school":"9"},{"start_time":1552055465486,"click_time":1552055466593,"finger_time":1552055466153,"fix_duration":250,"trial":32,"RT":667,"MT":440,"sideResp":2,"stimulus":"img/500/equaldotanddens/R/14_Ratio_500_L_5_R_10.png","xmouse":[797,797,797,797,797,797,797,797,797,797,797,797,797,797,797,797,797,797,797,797,797,797,797,797,797,797,797,797,797,797,797,797,820,879,917,1000,1041,1077,1111,1175,1210,1226,1234,1240,1245,1246,1246,1244,1243,1239,1217,1203,1188,1177,1164,1156],"ymouse":[614,614,614,614,614,614,614,614,614,614,614,614,614,614,614,614,614,614,614,614,614,614,614,614,614,614,614,614,614,614,614,614,596,563,537,452,411,378,342,257,173,118,66,12,0,0,0,0,0,1,13,19,25,30,33,37],"timestamp_mouse":[14,36,47,67,88,108,127,149,168,188,207,228,247,269,287,307,327,347,369,387,407,428,449,468,487,508,528,547,569,587,607,628,647,667,687,707,727,748,767,788,807,828,847,868,889,907,928,947,968,988,1007,1027,1048,1067,1089,1107],"xSR":741.5,"ySR":573.95,"xT1":424.9,"yT1":0,"xT2":1058.1,"yT2":0,"toosoon":0,"cond_shown":"equaldotanddens","ratio_trial":500,"smaller_num":"5","larger_num":"10","correct_side":2,"subjID":"alissondayanrubianobeltran","gender":"4","age":"1","school":"9"},{"start_time":1552055468535,"click_time":1552055469214,"finger_time":1552055469094,"fix_duration":1039.7471930409436,"trial":33,"RT":559,"MT":120,"sideResp":2,"stimulus":"img/500/randomdotsizeEA/R/12_Ratio_500_L_1_R_2.png","xmouse":[808,808,808,808,808,808,808,808,808,808,808,808,808,808,808,808,808,808,808,808,808,808,808,808,808,808,811,818,860,894,929,967,1005,1065,1086],"ymouse":[619,619,619,619,619,619,619,619,619,619,619,619,619,619,619,619,619,619,619,619,619,619,619,619,619,619,610,595,496,425,349,280,216,115,73],"timestamp_mouse":[2,19,39,58,79,100,118,138,158,178,199,218,239,258,278,299,318,339,358,378,399,419,439,458,478,499,519,538,559,579,598,619,640,658,679],"xSR":741.5,"ySR":573.95,"xT1":424.9,"yT1":0,"xT2":1058.1,"yT2":0,"toosoon":0,"cond_shown":"randomdotsizeEA","ratio_trial":500,"smaller_num":"1","larger_num":"2","correct_side":2,"subjID":"alissondayanrubianobeltran","gender":"4","age":"1","school":"9"},{"start_time":1552055470792,"click_time":1552055471793,"finger_time":1552055471335,"fix_duration":636.3424262719565,"trial":34,"RT":543,"MT":458,"sideResp":2,"stimulus":"img/750/equaldotanddens/R/2_Ratio_750_L_6_R_8.png","xmouse":[791,791,791,791,791,791,791,791,791,791,791,791,791,791,791,791,791,791,791,791,791,791,791,791,791,794,810,830,849,898,936,994,1048,1092,1123,1178,1194,1202,1209,1213,1219,1220,1220,1220,1216,1205,1202,1195,1183,1165,1119],"ymouse":[597,597,597,597,597,597,597,597,597,597,597,597,597,597,597,597,597,597,597,597,597,597,597,597,597,597,586,573,558,520,487,441,392,351,314,238,211,190,166,140,88,65,46,34,25,17,17,16,16,16,16],"timestamp_mouse":[9,31,41,62,82,101,123,141,162,181,201,222,243,262,282,301,321,342,361,382,401,422,443,463,482,501,522,543,562,582,602,621,641,661,681,702,721,741,761,782,802,821,841,863,881,901,923,943,961,982,1001],"xSR":741.5,"ySR":573.95,"xT1":424.9,"yT1":0,"xT2":1058.1,"yT2":0,"toosoon":0,"cond_shown":"equaldotanddens","ratio_trial":750,"smaller_num":"6","larger_num":"8","correct_side":2,"subjID":"alissondayanrubianobeltran","gender":"4","age":"1","school":"9"},{"start_time":1552055473964,"click_time":1552055474814,"finger_time":1552055474553,"fix_duration":1228.1844106910783,"trial":35,"RT":589,"MT":261,"sideResp":1,"stimulus":"img/500/equaldotsize/L/11_Ratio_500_L_12_R_6.png","xmouse":[805,805,805,805,805,805,805,805,805,805,805,805,805,805,805,805,805,805,805,805,805,805,805,805,803,802,799,796,789,781,767,725,698,668,631,584,489,464,447,439,437,437,437],"ymouse":[630,630,630,630,630,630,630,630,630,630,630,630,630,630,630,630,630,630,630,630,628,618,612,608,604,601,594,588,576,561,541,484,450,409,361,309,198,168,143,127,116,100,93],"timestamp_mouse":[9,34,51,69,89,111,129,149,171,191,211,229,249,271,290,309,329,349,369,391,410,430,450,470,491,510,529,550,570,589,609,630,650,670,690,710,730,751,770,789,809,829,850],"xSR":741.5,"ySR":573.95,"xT1":424.9,"yT1":0,"xT2":1058.1,"yT2":0,"toosoon":0,"cond_shown":"equaldotsize","ratio_trial":500,"smaller_num":"6","larger_num":"12","correct_side":1,"subjID":"alissondayanrubianobeltran","gender":"4","age":"1","school":"9"},{"start_time":1552055476807,"click_time":1552055477454,"finger_time":1552055477153,"fix_duration":971.3378721504326,"trial":36,"RT":346,"MT":301,"sideResp":2,"stimulus":"img/900/equaldotanddens/R/6_Ratio_900_L_9_R_10.png","xmouse":[792,792,792,792,792,792,792,792,792,792,792,792,792,792,792,791,789,785,778,773,774,784,799,843,884,913,937,958,998,1016,1032,1050,1069],"ymouse":[617,617,617,617,617,617,617,617,617,617,617,617,617,617,617,607,589,573,556,534,526,518,505,469,415,367,325,278,205,172,143,111,91],"timestamp_mouse":[12,35,48,66,86,107,128,148,167,186,207,226,246,266,286,307,328,346,366,387,407,428,447,467,487,506,526,547,567,586,607,626,646],"xSR":741.5,"ySR":573.95,"xT1":424.9,"yT1":0,"xT2":1058.1,"yT2":0,"toosoon":0,"cond_shown":"equaldotanddens","ratio_trial":900,"smaller_num":"9","larger_num":"10","correct_side":2,"subjID":"alissondayanrubianobeltran","gender":"4","age":"1","school":"9"},{"start_time":1552055478572,"click_time":1552055479753,"finger_time":1552055479053,"fix_duration":278.85824893910103,"trial":37,"RT":481,"MT":700,"sideResp":1,"stimulus":"img/900/equaldotsize/L/1_Ratio_900_L_10_R_9.png","xmouse":[800,800,800,800,800,800,800,800,800,800,800,800,800,800,800,800,800,800,800,800,800,800,800,800,795,774,742,724,713,703,678,664,650,635,624,607,593,588,584,580,574,573,572,572,572,572,562,559,554,549,547,547,547,547,547,547,546,535,527,520],"ymouse":[622,622,622,622,622,622,622,622,622,622,622,622,622,622,622,622,622,622,622,622,622,622,602,590,564,502,433,396,371,348,286,252,217,182,157,115,92,84,79,74,68,67,66,66,66,66,66,66,66,66,66,66,66,66,66,66,66,67,67,67],"timestamp_mouse":[7,35,42,63,82,101,121,143,161,182,202,221,242,263,282,302,322,342,361,382,403,422,441,462,481,502,521,541,562,582,601,622,642,662,683,702,721,741,761,782,802,822,843,861,882,901,921,942,963,982,1002,1021,1042,1061,1082,1102,1122,1141,1162,1181],"xSR":741.5,"ySR":573.95,"xT1":424.9,"yT1":0,"xT2":1058.1,"yT2":0,"toosoon":0,"cond_shown":"equaldotsize","ratio_trial":900,"smaller_num":"9","larger_num":"10","correct_side":1,"subjID":"alissondayanrubianobeltran","gender":"4","age":"1","school":"9"},{"start_time":1552055481035,"click_time":1552055481674,"finger_time":1552055481474,"fix_duration":300.5425434837947,"trial":38,"RT":439,"MT":200,"sideResp":2,"stimulus":"img/900/equaldotsize/L/2_Ratio_900_L_20_R_18.png","xmouse":[770,770,770,770,770,770,770,770,770,770,770,770,770,770,770,770,770,770,771,772,774,792,822,855,893,931,962,1008,1027,1044,1061,1088],"ymouse":[615,615,615,615,615,615,615,615,615,615,615,615,615,615,615,613,604,600,596,593,588,568,537,502,454,404,360,252,211,161,121,52],"timestamp_mouse":[19,38,58,78,98,120,139,158,179,199,219,238,258,279,298,319,338,359,379,398,419,439,458,478,498,518,538,558,579,599,619,639],"xSR":741.5,"ySR":573.95,"xT1":424.9,"yT1":0,"xT2":1058.1,"yT2":0,"toosoon":0,"cond_shown":"equaldotsize","ratio_trial":900,"smaller_num":"18","larger_num":"20","correct_side":1,"subjID":"alissondayanrubianobeltran","gender":"4","age":"1","school":"9"},{"start_time":1552055483143,"click_time":1552055483893,"finger_time":1552055483414,"fix_duration":607.4344186082426,"trial":39,"RT":271,"MT":479,"sideResp":1,"stimulus":"img/250/equaldotanddens/L/5_Ratio_250_L_24_R_6.png","xmouse":[760,760,760,760,760,760,760,760,760,760,760,760,760,760,759,754,732,696,677,662,651,631,624,619,614,610,605,597,593,589,588,587,587,587,586,579,532,511],"ymouse":[601,601,601,601,601,601,601,601,601,601,601,599,587,571,546,506,441,353,312,268,243,201,184,175,164,157,143,131,124,120,119,118,118,118,117,111,78,66],"timestamp_mouse":[12,37,51,70,91,111,130,150,172,191,211,232,250,271,291,311,330,351,371,391,411,431,450,470,490,512,531,551,571,591,610,631,651,671,690,711,731,750],"xSR":741.5,"ySR":573.95,"xT1":424.9,"yT1":0,"xT2":1058.1,"yT2":0,"toosoon":0,"cond_shown":"equaldotanddens","ratio_trial":250,"smaller_num":"6","larger_num":"24","correct_side":1,"subjID":"alissondayanrubianobeltran","gender":"4","age":"1","school":"9"},{"start_time":1552055485694,"click_time":1552055486275,"finger_time":1552055486113,"fix_duration":1077.197829643021,"trial":40,"RT":419,"MT":162,"sideResp":2,"stimulus":"img/500/equaldotanddens/R/14_Ratio_500_L_5_R_10.png","xmouse":[782,782,782,782,782,782,782,782,782,782,782,782,782,782,782,782,782,782,782,782,788,801,828,874,966,1012,1047,1080,1101,1126],"ymouse":[601,601,601,601,601,601,601,601,601,601,601,601,601,601,601,601,601,601,601,601,590,573,538,479,344,271,210,151,110,51],"timestamp_mouse":[1,19,39,59,80,101,120,141,160,179,199,221,240,259,280,300,321,339,360,379,399,419,440,461,480,499,520,540,559,580],"xSR":741.5,"ySR":573.95,"xT1":424.9,"yT1":0,"xT2":1058.1,"yT2":0,"toosoon":0,"cond_shown":"equaldotanddens","ratio_trial":500,"smaller_num":"5","larger_num":"10","correct_side":2,"subjID":"alissondayanrubianobeltran","gender":"4","age":"1","school":"9"},{"start_time":1552055488916,"click_time":1552055489814,"finger_time":1552055489414,"fix_duration":320.84419759500116,"trial":41,"RT":498,"MT":400,"sideResp":2,"stimulus":"img/750/equaldotanddens/R/5_Ratio_750_L_15_R_20.png","xmouse":[789,789,789,789,789,789,789,789,789,789,789,789,789,789,789,789,789,789,789,789,789,795,813,829,852,876,900,954,994,1022,1041,1058,1070,1091,1096,1099,1100,1100,1100,1100,1100,1100,1100,1100,1100],"ymouse":[624,624,624,624,624,624,624,624,624,624,624,624,624,624,624,624,624,624,624,624,624,618,595,574,541,503,458,372,314,278,250,230,214,181,169,162,157,156,150,148,141,134,114,100,84],"timestamp_mouse":[21,37,58,78,99,117,138,158,178,198,219,238,257,278,297,318,339,358,378,397,418,437,458,478,498,518,537,558,577,597,618,637,658,678,698,718,737,757,777,797,817,838,858,877,898],"xSR":741.5,"ySR":573.95,"xT1":424.9,"yT1":0,"xT2":1058.1,"yT2":0,"toosoon":0,"cond_shown":"equaldotanddens","ratio_trial":750,"smaller_num":"15","larger_num":"20","correct_side":2,"subjID":"alissondayanrubianobeltran","gender":"4","age":"1","school":"9"},{"start_time":1552055490898,"click_time":1552055491853,"finger_time":1552055491433,"fix_duration":302.2504958790162,"trial":42,"RT":535,"MT":420,"sideResp":2,"stimulus":"img/750/equaldotsize/R/3_Ratio_750_L_15_R_20.png","xmouse":[806,806,806,806,806,806,806,806,806,806,806,806,806,806,806,806,806,806,806,806,806,806,806,809,822,838,857,875,902,989,1035,1083,1122,1175,1189,1199,1205,1206,1207,1207,1207,1207,1207,1206,1190,1181,1168,1158],"ymouse":[657,656,652,652,652,652,652,652,652,652,652,652,652,652,652,652,652,652,652,652,652,652,652,644,632,610,585,549,504,352,284,216,161,78,52,32,20,15,14,14,14,14,13,13,20,23,27,31],"timestamp_mouse":[16,35,55,76,95,117,135,155,175,196,217,236,255,276,295,316,335,357,376,396,415,435,455,475,495,515,535,555,575,596,615,635,656,676,695,715,735,756,776,797,815,835,855,876,895,915,936,955],"xSR":741.5,"ySR":573.95,"xT1":424.9,"yT1":0,"xT2":1058.1,"yT2":0,"toosoon":0,"cond_shown":"equaldotsize","ratio_trial":750,"smaller_num":"15","larger_num":"20","correct_side":2,"subjID":"alissondayanrubianobeltran","gender":"4","age":"1","school":"9"},{"start_time":1552055493689,"click_time":1552055494393,"finger_time":1552055494093,"fix_duration":853.0427064462227,"trial":43,"RT":404,"MT":300,"sideResp":2,"stimulus":"img/500/equaldotsize/R/1_Ratio_500_L_9_R_18.png","xmouse":[784,784,784,784,784,784,784,784,784,784,784,784,784,784,784,784,784,784,791,826,864,894,913,948,968,993,1017,1036,1050,1073,1080,1083,1086,1087,1089],"ymouse":[599,599,599,599,599,599,599,599,599,599,599,599,599,599,599,599,599,599,594,572,546,518,491,410,364,307,262,224,193,143,126,116,106,101,90],"timestamp_mouse":[20,45,65,84,104,124,145,164,184,204,225,245,265,284,304,325,344,365,385,404,424,445,465,485,504,524,544,566,584,605,624,645,665,684,704],"xSR":741.5,"ySR":573.95,"xT1":424.9,"yT1":0,"xT2":1058.1,"yT2":0,"toosoon":0,"cond_shown":"equaldotsize","ratio_trial":500,"smaller_num":"9","larger_num":"18","correct_side":2,"subjID":"alissondayanrubianobeltran","gender":"4","age":"1","school":"9"},{"start_time":1552055496301,"click_time":1552055497414,"finger_time":1552055496673,"fix_duration":1165.4222120280797,"trial":44,"RT":372,"MT":741,"sideResp":2,"stimulus":"img/250/equaldotsize/R/10_Ratio_250_L_4_R_16.png","xmouse":[789,789,789,789,789,789,789,789,789,789,789,789,789,789,789,787,784,778,769,769,769,769,769,769,769,769,770,785,832,889,926,976,1038,1156,1203,1239,1264,1279,1289,1289,1289,1289,1289,1289,1262,1239,1220,1204,1199,1198,1198,1198,1198,1181,1165,1149],"ymouse":[609,609,609,609,609,609,609,609,609,609,609,609,609,609,609,601,592,579,559,558,558,558,558,558,558,557,553,543,517,487,459,415,360,246,199,158,124,101,74,68,68,68,68,67,69,71,72,72,72,72,72,72,72,72,72,72],"timestamp_mouse":[15,38,52,72,92,113,132,153,172,192,213,232,253,272,293,313,333,353,372,392,412,433,452,472,493,512,533,553,572,592,613,632,653,673,692,712,732,752,773,792,812,833,852,873,892,912,932,953,973,992,1012,1034,1052,1072,1092,1113],"xSR":741.5,"ySR":573.95,"xT1":424.9,"yT1":0,"xT2":1058.1,"yT2":0,"toosoon":0,"cond_shown":"equaldotsize","ratio_trial":250,"smaller_num":"4","larger_num":"16","correct_side":2,"subjID":"alissondayanrubianobeltran","gender":"4","age":"1","school":"9"},{"start_time":1552055500846,"click_time":1552055502293,"finger_time":1552055501734,"fix_duration":1152.557389893817,"trial":45,"RT":888,"MT":559,"sideResp":1,"stimulus":"img/500/randomdotsizeEA/L/13_Ratio_500_L_12_R_6.png","xmouse":[795,795,795,795,795,795,795,795,795,795,795,795,795,795,795,795,795,795,795,795,795,795,795,795,795,795,795,795,795,795,795,795,795,795,795,795,795,795,795,795,795,795,794,782,762,732,691,643,629,623,618,617,617,615,612,608,599,593,586,577,569,556,549,545,544,543,543,543,541,539,537,527,521],"ymouse":[624,624,624,624,624,624,624,624,624,624,624,624,624,624,624,624,624,624,624,624,624,624,624,624,624,624,624,624,624,624,624,624,624,624,624,624,624,624,624,624,624,624,615,594,565,515,457,384,360,346,334,329,315,303,286,267,238,226,215,202,190,170,156,147,143,139,132,126,120,113,104,87,80],"timestamp_mouse":[13,43,48,68,87,108,128,147,167,188,208,227,247,267,287,307,327,347,367,388,407,427,448,467,488,508,527,547,568,587,608,627,648,667,688,707,727,748,768,787,808,827,847,867,888,907,927,947,967,987,1007,1027,1047,1067,1087,1108,1127,1147,1168,1188,1207,1227,1247,1268,1288,1307,1328,1347,1368,1388,1407,1428,1447],"xSR":741.5,"ySR":573.95,"xT1":424.9,"yT1":0,"xT2":1058.1,"yT2":0,"toosoon":0,"cond_shown":"randomdotsizeEA","ratio_trial":500,"smaller_num":"6","larger_num":"12","correct_side":1,"subjID":"alissondayanrubianobeltran","gender":"4","age":"1","school":"9"},{"start_time":1552055504136,"click_time":1552055504833,"finger_time":1552055504614,"fix_duration":961.019661499418,"trial":46,"RT":478,"MT":219,"sideResp":2,"stimulus":"img/900/equaldotsize/R/6_Ratio_900_L_9_R_10.png","xmouse":[776,776,776,776,776,776,776,776,776,776,776,776,776,776,776,776,776,776,776,779,787,796,816,831,847,867,912,948,972,993,1015,1044,1056,1068,1078],"ymouse":[636,636,636,636,636,636,636,636,636,636,636,636,636,636,636,636,636,636,636,633,624,617,592,571,543,508,396,311,262,227,188,142,126,111,97],"timestamp_mouse":[17,38,58,77,97,118,137,157,178,199,218,238,257,278,299,318,338,357,377,398,417,437,457,478,497,517,537,558,577,598,617,637,657,678,697],"xSR":741.5,"ySR":573.95,"xT1":424.9,"yT1":0,"xT2":1058.1,"yT2":0,"toosoon":0,"cond_shown":"equaldotsize","ratio_trial":900,"smaller_num":"9","larger_num":"10","correct_side":2,"subjID":"alissondayanrubianobeltran","gender":"4","age":"1","school":"9"},{"start_time":1552055505864,"click_time":1552055507034,"finger_time":1552055506293,"fix_duration":250,"trial":47,"RT":429,"MT":741,"sideResp":2,"stimulus":"img/750/equaldotsize/R/7_Ratio_750_L_3_R_4.png","xmouse":[786,786,786,786,786,786,786,786,786,786,786,786,786,786,786,786,786,782,778,773,768,744,734,725,717,697,688,684,679,675,671,671,670,670,670,670,671,672,675,678,705,756,815,872,922,1006,1040,1062,1082,1098,1132,1142,1149,1153,1154,1154,1151,1145,1137],"ymouse":[651,651,651,651,651,651,651,651,651,651,651,651,651,651,651,651,638,623,609,594,580,522,498,477,456,418,400,389,376,363,351,349,347,346,344,342,340,340,340,340,336,328,315,298,281,251,235,220,205,191,159,147,139,131,127,117,109,101,91],"timestamp_mouse":[10,44,49,70,89,110,129,150,171,190,210,229,250,270,291,310,329,349,370,390,409,429,449,470,489,509,529,549,570,589,609,629,651,670,689,709,729,749,769,790,809,829,849,870,889,909,929,950,969,990,1010,1029,1049,1069,1089,1109,1129,1149,1170],"xSR":741.5,"ySR":573.95,"xT1":424.9,"yT1":0,"xT2":1058.1,"yT2":0,"toosoon":0,"cond_shown":"equaldotsize","ratio_trial":750,"smaller_num":"3","larger_num":"4","correct_side":2,"subjID":"alissondayanrubianobeltran","gender":"4","age":"1","school":"9"},{"start_time":1552055508425,"click_time":1552055508974,"finger_time":1552055508713,"fix_duration":250,"trial":48,"RT":288,"MT":261,"sideResp":2,"stimulus":"img/250/randomdotsizeEA/R/4_Ratio_250_L_3_R_12.png","xmouse":[825,825,825,825,825,824,824,824,824,824,824,825,830,837,844,850,856,867,874,884,900,924,982,1031,1061,1092,1113,1148],"ymouse":[657,657,657,657,657,657,656,651,649,647,646,645,634,622,611,603,596,582,573,560,541,510,420,335,275,222,168,87],"timestamp_mouse":[12,34,49,68,89,108,128,148,168,189,209,229,248,268,288,308,329,348,368,388,408,429,448,468,489,508,528,549],"xSR":741.5,"ySR":573.95,"xT1":424.9,"yT1":0,"xT2":1058.1,"yT2":0,"toosoon":0,"cond_shown":"randomdotsizeEA","ratio_trial":250,"smaller_num":"3","larger_num":"12","correct_side":2,"subjID":"alissondayanrubianobeltran","gender":"4","age":"1","school":"9"},{"start_time":1552055510025,"click_time":1552055510894,"finger_time":1552055510434,"fix_duration":250,"trial":49,"RT":409,"MT":460,"sideResp":1,"stimulus":"img/900/equaldotsize/R/6_Ratio_900_L_9_R_10.png","xmouse":[807,807,807,807,807,807,807,807,807,807,807,807,807,807,807,807,807,807,807,802,798,792,771,762,754,748,745,741,735,730,722,715,697,678,662,647,633,615,585,572,557,547,538,520],"ymouse":[597,597,597,597,597,597,597,597,597,597,597,597,597,597,597,597,597,597,597,582,572,554,504,482,463,447,439,428,407,390,372,354,313,276,249,221,195,162,110,90,70,55,44,30],"timestamp_mouse":[10,33,48,68,88,108,128,149,168,189,208,228,249,269,288,308,328,349,369,389,409,429,449,468,489,509,529,548,568,588,608,628,649,668,689,708,728,748,768,789,808,828,849,869],"xSR":741.5,"ySR":573.95,"xT1":424.9,"yT1":0,"xT2":1058.1,"yT2":0,"toosoon":0,"cond_shown":"equaldotsize","ratio_trial":900,"smaller_num":"9","larger_num":"10","correct_side":2,"subjID":"alissondayanrubianobeltran","gender":"4","age":"1","school":"9"},{"start_time":1552055512922,"click_time":1552055514093,"finger_time":1552055513634,"fix_duration":1185.0548090472835,"trial":50,"RT":712,"MT":459,"sideResp":1,"stimulus":"img/250/equaldotanddens/L/14_Ratio_250_L_12_R_3.png","xmouse":[796,796,796,796,796,796,796,796,796,796,796,796,796,796,796,796,796,796,796,796,796,796,796,796,796,796,796,796,796,796,796,796,796,791,784,774,764,751,716,697,677,665,639,623,611,597,586,579,577,573,570,567,561,557,551,546,537,516,488],"ymouse":[611,611,611,611,611,611,611,611,611,611,611,611,611,611,611,611,611,611,611,611,611,611,611,611,611,611,611,611,610,610,609,607,601,592,578,558,540,517,467,439,411,389,348,327,304,280,257,207,178,163,154,147,137,133,128,124,118,106,89],"timestamp_mouse":[13,36,51,72,91,112,132,151,171,192,212,231,251,271,291,312,332,351,371,392,413,432,451,473,491,512,532,551,573,591,612,631,652,671,691,712,732,751,771,791,812,831,852,871,891,911,931,952,971,991,1011,1032,1052,1071,1091,1112,1131,1151,1171],"xSR":741.5,"ySR":573.95,"xT1":424.9,"yT1":0,"xT2":1058.1,"yT2":0,"toosoon":0,"cond_shown":"equaldotanddens","ratio_trial":250,"smaller_num":"3","larger_num":"12","correct_side":1,"subjID":"alissondayanrubianobeltran","gender":"4","age":"1","school":"9"},{"start_time":1552055515990,"click_time":1552055517274,"finger_time":1552055516854,"fix_duration":995.432760500115,"trial":51,"RT":864,"MT":420,"sideResp":2,"stimulus":"img/750/randomdotsizeEA/L/10_Ratio_750_L_4_R_3.png","xmouse":[787,787,787,787,787,787,787,787,787,787,787,787,787,787,787,787,787,787,787,787,787,787,787,787,787,787,787,787,787,787,787,787,787,787,787,787,787,787,787,789,794,799,804,811,832,895,930,972,1021,1055,1097,1103,1104,1105,1105,1106,1107,1108,1110,1110,1110,1110,1110,1110,1109],"ymouse":[611,611,611,611,611,611,611,611,611,611,611,611,611,611,611,611,611,611,611,611,611,611,611,611,611,611,611,611,611,611,611,611,611,611,611,611,611,611,611,612,606,597,585,569,522,403,327,251,175,107,0,0,0,0,0,0,0,0,0,0,0,0,0,0,3],"timestamp_mouse":[12,36,44,64,83,104,124,143,165,184,204,224,244,263,284,303,324,343,364,384,404,425,444,464,484,503,524,543,564,584,604,623,644,663,684,703,723,743,764,784,803,823,843,864,883,903,924,944,963,984,1003,1023,1043,1064,1084,1104,1123,1143,1163,1183,1204,1223,1243,1264,1283],"xSR":741.5,"ySR":573.95,"xT1":424.9,"yT1":0,"xT2":1058.1,"yT2":0,"toosoon":0,"cond_shown":"randomdotsizeEA","ratio_trial":750,"smaller_num":"3","larger_num":"4","correct_side":1,"subjID":"alissondayanrubianobeltran","gender":"4","age":"1","school":"9"},{"start_time":1552055518756,"click_time":1552055519554,"finger_time":1552055519293,"fix_duration":481.314038370552,"trial":52,"RT":537,"MT":261,"sideResp":2,"stimulus":"img/250/randomdotsizeEA/R/11_Ratio_250_L_3_R_12.png","xmouse":[771,771,771,771,771,771,772,774,774,776,776,776,778,780,783,787,791,791,792,794,796,799,799,800,801,802,803,803,803,803,804,821,837,865,901,958,1058,1079,1095,1107],"ymouse":[641,641,641,641,641,641,641,641,641,640,640,640,638,637,634,630,624,623,619,615,612,604,600,595,589,581,551,534,513,494,474,434,412,379,336,280,154,123,106,89],"timestamp_mouse":[17,37,57,78,98,117,137,158,177,197,217,237,257,278,297,317,337,357,379,398,417,437,457,477,498,518,537,557,577,597,617,637,657,678,698,717,738,757,778,798],"xSR":741.5,"ySR":573.95,"xT1":424.9,"yT1":0,"xT2":1058.1,"yT2":0,"toosoon":0,"cond_shown":"randomdotsizeEA","ratio_trial":250,"smaller_num":"3","larger_num":"12","correct_side":2,"subjID":"alissondayanrubianobeltran","gender":"4","age":"1","school":"9"},{"start_time":1552055522086,"click_time":1552055523233,"finger_time":1552055522633,"fix_duration":250,"trial":53,"RT":547,"MT":600,"sideResp":2,"stimulus":"img/750/equaldotanddens/R/12_Ratio_750_L_3_R_4.png","xmouse":[792,792,792,792,792,792,792,792,792,792,792,792,792,792,792,792,792,792,792,792,792,792,792,792,792,794,799,807,817,840,861,875,891,904,917,941,949,958,967,988,995,999,1004,1010,1013,1017,1021,1024,1025,1028,1035,1042,1054,1066,1081,1103,1112,1120],"ymouse":[587,587,587,587,587,587,587,587,587,587,587,587,587,587,587,587,587,587,587,587,587,587,587,587,586,583,577,564,551,522,493,473,453,433,420,393,384,376,369,342,325,308,292,276,259,230,217,201,192,184,176,172,165,153,141,115,101,91],"timestamp_mouse":[12,34,47,67,87,108,128,148,168,187,207,228,249,268,288,307,328,347,367,388,408,427,447,468,488,507,528,547,568,588,607,627,648,667,687,707,727,747,768,788,807,827,848,867,887,908,927,947,967,988,1008,1027,1047,1068,1087,1107,1128,1147],"xSR":741.5,"ySR":573.95,"xT1":424.9,"yT1":0,"xT2":1058.1,"yT2":0,"toosoon":0,"cond_shown":"equaldotanddens","ratio_trial":750,"smaller_num":"3","larger_num":"4","correct_side":2,"subjID":"alissondayanrubianobeltran","gender":"4","age":"1","school":"9"},{"start_time":1552055524674,"click_time":1552055525474,"finger_time":1552055525093,"fix_duration":480.9170174915609,"trial":54,"RT":419,"MT":381,"sideResp":2,"stimulus":"img/250/equaldotsize/R/8_Ratio_250_L_1_R_4.png","xmouse":[788,788,788,788,788,788,788,788,788,788,788,788,788,788,788,788,788,788,788,788,821,839,858,872,888,902,936,980,1023,1078,1091,1100,1103,1103,1103,1103,1103,1104,1107,1109],"ymouse":[607,607,607,607,607,607,607,607,607,607,607,607,607,607,607,607,607,607,607,606,549,506,458,426,388,361,321,282,246,171,150,135,126,122,121,121,120,118,106,94],"timestamp_mouse":[33,39,59,79,100,119,139,160,180,199,219,240,260,280,300,320,340,360,380,399,419,439,459,479,500,519,540,560,579,600,619,639,659,680,699,719,739,760,780,800],"xSR":741.5,"ySR":573.95,"xT1":424.9,"yT1":0,"xT2":1058.1,"yT2":0,"toosoon":0,"cond_shown":"equaldotsize","ratio_trial":250,"smaller_num":"1","larger_num":"4","correct_side":2,"subjID":"alissondayanrubianobeltran","gender":"4","age":"1","school":"9"},{"start_time":1552055526726,"click_time":1552055527454,"finger_time":1552055527093,"fix_duration":250,"trial":55,"RT":367,"MT":361,"sideResp":1,"stimulus":"img/250/equaldotanddens/L/2_Ratio_250_L_16_R_4.png","xmouse":[798,798,798,798,798,799,799,799,799,799,799,799,799,799,799,798,795,776,754,738,722,713,703,685,678,672,665,658,639,631,621,607,593,561,544,529,515],"ymouse":[645,645,645,645,645,645,645,643,641,640,639,639,639,639,635,629,619,582,550,527,504,484,461,412,386,363,336,306,223,194,167,139,115,71,49,32,18],"timestamp_mouse":[12,37,47,67,88,107,128,147,167,187,208,228,247,267,288,307,328,347,367,387,407,428,447,467,488,507,527,548,568,587,609,628,647,667,688,707,728],"xSR":741.5,"ySR":573.95,"xT1":424.9,"yT1":0,"xT2":1058.1,"yT2":0,"toosoon":0,"cond_shown":"equaldotanddens","ratio_trial":250,"smaller_num":"4","larger_num":"16","correct_side":1,"subjID":"alissondayanrubianobeltran","gender":"4","age":"1","school":"9"},{"start_time":1552055529481,"click_time":1552055530293,"finger_time":1552055529893,"fix_duration":904.5896187381575,"trial":56,"RT":412,"MT":400,"sideResp":2,"stimulus":"img/500/equaldotsize/R/14_Ratio_500_L_5_R_10.png","xmouse":[790,790,790,790,790,790,790,790,790,790,790,790,790,790,790,790,791,793,798,803,826,840,864,901,999,1061,1106,1148,1168,1194,1202,1203,1204,1207,1208,1209,1208,1202,1194,1166,1143],"ymouse":[621,621,621,621,621,621,621,621,621,621,621,621,621,621,621,621,622,621,614,601,529,487,437,394,312,275,251,227,211,179,161,154,146,135,124,105,95,85,77,65,57],"timestamp_mouse":[22,43,52,72,92,113,132,153,173,192,212,232,253,273,293,312,332,352,374,392,412,433,453,472,493,512,533,552,573,592,612,633,652,673,692,712,732,752,773,793,812],"xSR":741.5,"ySR":573.95,"xT1":424.9,"yT1":0,"xT2":1058.1,"yT2":0,"toosoon":0,"cond_shown":"equaldotsize","ratio_trial":500,"smaller_num":"5","larger_num":"10","correct_side":2,"subjID":"alissondayanrubianobeltran","gender":"4","age":"1","school":"9"},{"start_time":1552055532697,"click_time":1552055533454,"finger_time":1552055533213,"fix_duration":1422.5520069337604,"trial":57,"RT":516,"MT":241,"sideResp":2,"stimulus":"img/500/equaldotanddens/R/12_Ratio_500_L_1_R_2.png","xmouse":[789,789,789,789,789,789,789,789,789,789,789,789,789,789,789,789,789,789,789,789,789,790,797,821,835,850,871,909,1003,1074,1104,1126,1142,1149,1151,1152,1153,1153],"ymouse":[630,630,630,630,630,630,630,630,630,630,630,630,630,630,627,624,623,622,621,621,618,615,609,590,579,565,543,508,418,331,276,229,194,169,139,126,112,99],"timestamp_mouse":[16,44,57,76,96,116,137,156,176,197,217,236,256,276,296,316,337,357,376,396,416,436,457,477,496,516,536,556,577,596,617,637,656,676,696,716,736,757],"xSR":741.5,"ySR":573.95,"xT1":424.9,"yT1":0,"xT2":1058.1,"yT2":0,"toosoon":0,"cond_shown":"equaldotanddens","ratio_trial":500,"smaller_num":"1","larger_num":"2","correct_side":2,"subjID":"alissondayanrubianobeltran","gender":"4","age":"1","school":"9"},{"start_time":1552055535433,"click_time":1552055536393,"finger_time":1552055535813,"fix_duration":878.2675247439629,"trial":58,"RT":380,"MT":580,"sideResp":2,"stimulus":"img/500/equaldotsize/R/2_Ratio_500_L_3_R_6.png","xmouse":[789,789,793,795,796,797,797,797,797,797,797,797,798,801,803,808,812,817,833,845,858,871,894,935,955,976,994,1038,1063,1086,1107,1123,1157,1167,1171,1172,1172,1172,1172,1172,1172,1172,1172,1172,1171,1168,1164,1160,1158],"ymouse":[623,623,623,623,623,623,623,623,623,623,623,623,623,623,623,622,620,618,613,608,600,593,579,554,538,521,500,437,389,336,280,228,122,95,79,67,59,55,52,52,52,52,52,52,52,53,55,56,56],"timestamp_mouse":[9,21,42,61,80,101,121,141,160,181,200,221,240,261,280,301,320,341,360,380,400,421,440,460,480,500,520,541,560,580,600,621,641,660,680,700,721,740,761,781,800,820,841,860,880,900,921,941,960],"xSR":741.5,"ySR":573.95,"xT1":424.9,"yT1":0,"xT2":1058.1,"yT2":0,"toosoon":0,"cond_shown":"equaldotsize","ratio_trial":500,"smaller_num":"3","larger_num":"6","correct_side":2,"subjID":"alissondayanrubianobeltran","gender":"4","age":"1","school":"9"},{"start_time":1552055537810,"click_time":1552055538933,"finger_time":1552055538054,"fix_duration":495.62451876279147,"trial":59,"RT":244,"MT":879,"sideResp":1,"stimulus":"img/500/equaldotanddens/L/8_Ratio_500_L_8_R_4.png","xmouse":[805,807,807,812,815,817,820,823,830,833,835,837,842,853,864,881,907,943,984,985,985,984,984,983,981,975,964,944,876,834,788,748,716,682,673,662,650,635,605,593,584,576,571,561,559,558,558,557,557,557,557,556,550,544,529,525,523],"ymouse":[605,605,605,603,602,601,599,597,593,592,590,588,581,560,541,516,478,424,354,337,327,322,320,319,316,308,298,284,244,224,204,186,174,161,161,165,168,170,169,161,151,138,124,91,86,84,83,81,81,81,81,80,78,76,72,71,70],"timestamp_mouse":[3,33,43,63,83,103,123,143,163,183,204,224,244,263,283,303,323,343,363,383,404,424,444,464,484,503,524,543,563,583,603,623,643,663,684,703,724,744,762,784,804,823,844,863,884,903,924,944,963,984,1003,1024,1044,1063,1084,1103,1123],"xSR":741.5,"ySR":573.95,"xT1":424.9,"yT1":0,"xT2":1058.1,"yT2":0,"toosoon":0,"cond_shown":"equaldotanddens","ratio_trial":500,"smaller_num":"4","larger_num":"8","correct_side":1,"subjID":"alissondayanrubianobeltran","gender":"4","age":"1","school":"9"},{"start_time":1552055541534,"click_time":1552055542274,"finger_time":1552055541913,"fix_duration":1240.2511370707473,"trial":60,"RT":379,"MT":361,"sideResp":1,"stimulus":"img/250/equaldotsize/L/5_Ratio_250_L_24_R_6.png","xmouse":[797,797,797,797,797,797,797,797,797,797,797,797,797,797,797,797,797,798,796,785,762,696,662,631,615,606,598,596,596,595,595,594,578,565,548,531,504],"ymouse":[586,586,586,586,586,586,586,586,586,586,586,586,586,586,586,586,586,583,555,524,477,361,302,239,199,166,132,127,126,125,125,123,107,97,90,82,70],"timestamp_mouse":[23,40,59,79,100,119,139,159,180,201,219,240,259,280,299,320,339,359,379,400,419,439,459,480,500,519,539,559,579,600,619,639,659,679,699,719,740],"xSR":741.5,"ySR":573.95,"xT1":424.9,"yT1":0,"xT2":1058.1,"yT2":0,"toosoon":0,"cond_shown":"equaldotsize","ratio_trial":250,"smaller_num":"6","larger_num":"24","correct_side":1,"subjID":"alissondayanrubianobeltran","gender":"4","age":"1","school":"9"},{"start_time":1552055544403,"click_time":1552055545215,"finger_time":1552055544754,"fix_duration":1447.376031586455,"trial":61,"RT":351,"MT":461,"sideResp":2,"stimulus":"img/750/randomdotsizeEA/L/13_Ratio_750_L_8_R_6.png","xmouse":[811,811,811,811,811,811,811,811,811,811,811,810,810,810,811,811,811,811,816,831,851,889,927,1008,1042,1058,1068,1077,1087,1093,1095,1097,1100,1101,1101,1102,1102,1102,1102,1104,1107],"ymouse":[636,636,636,636,636,636,636,636,636,636,636,635,633,625,611,598,582,562,508,461,410,365,332,281,256,242,230,214,182,165,147,131,117,105,104,103,103,103,103,102,94],"timestamp_mouse":[13,36,50,70,90,110,130,151,170,190,210,230,250,270,290,311,331,351,370,390,411,430,450,470,490,510,530,550,570,590,611,631,650,670,690,710,730,750,771,790,811],"xSR":741.5,"ySR":573.95,"xT1":424.9,"yT1":0,"xT2":1058.1,"yT2":0,"toosoon":0,"cond_shown":"randomdotsizeEA","ratio_trial":750,"smaller_num":"6","larger_num":"8","correct_side":1,"subjID":"alissondayanrubianobeltran","gender":"4","age":"1","school":"9"},{"start_time":1552055547166,"click_time":1552055548253,"finger_time":1552055547734,"fix_duration":992.8079642409353,"trial":62,"RT":568,"MT":519,"sideResp":1,"stimulus":"img/250/randomdotsizeEA/L/7_Ratio_250_L_8_R_2.png","xmouse":[771,771,771,771,771,771,771,771,771,771,771,771,771,771,771,771,771,771,771,771,771,771,771,773,774,777,779,779,779,779,757,747,739,737,737,737,737,732,718,700,661,646,630,607,578,533,516,511,506,501,491,485,478,472,466],"ymouse":[624,624,624,624,624,624,624,624,624,624,624,624,624,624,624,624,624,624,624,624,624,624,624,624,624,622,618,575,553,529,468,447,432,428,428,428,428,421,406,390,353,335,315,290,267,230,207,193,180,169,150,139,125,110,98],"timestamp_mouse":[20,36,48,68,87,107,128,147,168,188,207,227,247,267,287,307,327,347,367,388,407,427,447,467,487,507,528,547,568,587,607,627,647,668,687,707,727,747,768,787,807,827,848,867,887,907,927,948,967,988,1007,1027,1047,1068,1087],"xSR":741.5,"ySR":573.95,"xT1":424.9,"yT1":0,"xT2":1058.1,"yT2":0,"toosoon":0,"cond_shown":"randomdotsizeEA","ratio_trial":250,"smaller_num":"2","larger_num":"8","correct_side":1,"subjID":"alissondayanrubianobeltran","gender":"4","age":"1","school":"9"},{"start_time":1552055549805,"click_time":1552055551514,"finger_time":1552055550553,"fix_duration":250,"trial":63,"RT":748,"MT":961,"sideResp":2,"stimulus":"img/900/randomdotsizeEA/R/12_Ratio_900_L_18_R_20.png","xmouse":[801,801,801,801,801,801,801,801,801,801,801,801,801,801,801,801,801,801,801,801,801,801,801,801,801,801,801,801,801,801,801,801,801,825,835,837,839,846,866,875,884,894,902,911,925,932,938,945,967,978,987,996,1003,1018,1025,1029,1030,1031,1032,1033,1035,1035,1035,1035,1035,1036,1038,1039,1041,1041,1041,1041,1041,1041,1041,1041,1041,1041,1041,1041,1041,1041,1041,1044,1052,1070],"ymouse":[635,635,635,635,635,635,635,635,635,635,635,635,635,635,635,635,635,635,635,635,635,635,635,635,635,635,635,635,635,635,635,635,635,625,620,617,608,595,563,543,519,500,480,458,424,399,388,373,337,320,304,288,274,251,242,238,236,234,223,212,196,177,157,139,96,85,75,69,65,65,65,65,65,65,65,65,65,65,65,65,65,65,65,64,61,58],"timestamp_mouse":[12,34,49,69,88,109,128,148,168,188,208,228,249,268,289,309,328,348,368,388,408,428,448,468,489,508,530,548,568,588,610,628,648,669,688,708,729,748,768,788,808,828,848,868,889,908,928,948,968,989,1008,1028,1049,1068,1088,1108,1129,1148,1168,1188,1208,1228,1248,1268,1288,1309,1329,1348,1369,1389,1409,1429,1449,1469,1489,1508,1528,1549,1568,1588,1609,1628,1649,1667,1689,1709],"xSR":741.5,"ySR":573.95,"xT1":424.9,"yT1":0,"xT2":1058.1,"yT2":0,"toosoon":0,"cond_shown":"randomdotsizeEA","ratio_trial":900,"smaller_num":"18","larger_num":"20","correct_side":2,"subjID":"alissondayanrubianobeltran","gender":"4","age":"1","school":"9"},{"start_time":1552055555417,"click_time":1552055556073,"finger_time":1552055555934,"fix_duration":1202.0380883326914,"trial":64,"RT":517,"MT":139,"sideResp":2,"stimulus":"img/750/equaldotsize/R/7_Ratio_750_L_3_R_4.png","xmouse":[783,783,783,783,783,783,783,783,783,783,783,783,783,783,783,783,783,783,783,782,784,788,801,821,837,857,875,932,969,1014,1048,1084,1144],"ymouse":[646,646,646,646,646,646,646,646,646,646,646,646,646,646,646,646,646,646,646,644,638,631,620,601,586,564,537,450,398,335,282,222,97],"timestamp_mouse":[16,36,56,77,96,116,136,155,177,197,216,236,256,276,296,316,336,356,377,396,416,437,456,477,496,517,537,557,577,597,616,637,656],"xSR":741.5,"ySR":573.95,"xT1":424.9,"yT1":0,"xT2":1058.1,"yT2":0,"toosoon":0,"cond_shown":"equaldotsize","ratio_trial":750,"smaller_num":"3","larger_num":"4","correct_side":2,"subjID":"alissondayanrubianobeltran","gender":"4","age":"1","school":"9"},{"start_time":1552055558650,"click_time":1552055559294,"finger_time":1552055559093,"fix_duration":1495.9746906630505,"trial":65,"RT":443,"MT":201,"sideResp":1,"stimulus":"img/250/equaldotanddens/L/15_Ratio_250_L_12_R_3.png","xmouse":[801,801,801,801,801,801,801,801,801,801,801,801,801,801,802,806,811,811,813,813,814,814,810,800,787,776,746,718,692,665,628,596,522],"ymouse":[616,616,616,616,616,616,616,616,616,616,616,616,616,616,614,611,606,606,604,602,600,582,559,539,517,497,450,400,354,300,238,168,51],"timestamp_mouse":[12,38,43,63,83,103,123,143,163,184,204,223,243,263,284,303,324,343,363,383,404,424,443,463,484,503,524,543,563,584,603,623,644],"xSR":741.5,"ySR":573.95,"xT1":424.9,"yT1":0,"xT2":1058.1,"yT2":0,"toosoon":0,"cond_shown":"equaldotanddens","ratio_trial":250,"smaller_num":"3","larger_num":"12","correct_side":1,"subjID":"alissondayanrubianobeltran","gender":"4","age":"1","school":"9"},{"start_time":1552055561895,"click_time":1552055563033,"finger_time":1552055562313,"fix_duration":1321.0186644041007,"trial":66,"RT":418,"MT":720,"sideResp":2,"stimulus":"img/750/equaldotanddens/L/14_Ratio_750_L_8_R_6.png","xmouse":[793,793,793,793,793,793,793,793,793,793,793,793,793,793,793,793,793,793,793,806,822,846,874,924,939,951,956,957,964,971,975,980,984,986,993,994,996,996,996,996,996,999,1005,1022,1028,1034,1039,1042,1043,1043,1043,1043,1044,1046,1052,1057,1059],"ymouse":[614,614,614,614,614,614,614,614,614,614,614,614,614,614,614,614,614,614,612,592,572,546,513,400,353,314,284,253,176,131,108,89,74,60,39,35,34,34,34,33,33,33,33,33,33,35,36,37,38,38,38,38,38,39,44,47,48],"timestamp_mouse":[18,42,58,79,97,119,139,157,179,198,217,239,259,278,298,318,339,359,378,398,418,439,458,478,498,518,538,558,578,597,618,639,657,679,697,718,738,758,778,798,818,838,858,878,898,918,937,958,978,999,1018,1038,1058,1078,1098,1118,1138],"xSR":741.5,"ySR":573.95,"xT1":424.9,"yT1":0,"xT2":1058.1,"yT2":0,"toosoon":0,"cond_shown":"equaldotanddens","ratio_trial":750,"smaller_num":"6","larger_num":"8","correct_side":1,"subjID":"alissondayanrubianobeltran","gender":"4","age":"1","school":"9"},{"start_time":1552055564139,"click_time":1552055565114,"finger_time":1552055564534,"fix_duration":282.0044481331024,"trial":67,"RT":395,"MT":580,"sideResp":1,"stimulus":"img/750/equaldotsize/L/1_Ratio_750_L_20_R_15.png","xmouse":[758,758,758,758,758,758,758,758,758,758,758,758,758,758,758,758,757,751,744,737,729,719,716,707,699,688,675,666,658,649,644,634,630,627,626,625,619,612,600,588,577,562,557,551,546,540,536,525,521],"ymouse":[635,635,635,635,635,635,635,635,635,635,635,635,635,635,635,635,627,609,593,577,564,549,541,530,518,504,467,427,372,307,266,217,200,189,185,182,163,151,137,124,116,109,106,105,103,101,100,96,94],"timestamp_mouse":[14,39,54,74,94,114,135,154,174,194,214,234,255,275,294,315,334,354,374,395,415,435,454,474,494,514,534,554,575,594,615,634,654,675,694,715,735,754,774,795,814,834,854,874,894,914,934,955,975],"xSR":741.5,"ySR":573.95,"xT1":424.9,"yT1":0,"xT2":1058.1,"yT2":0,"toosoon":0,"cond_shown":"equaldotsize","ratio_trial":750,"smaller_num":"15","larger_num":"20","correct_side":1,"subjID":"alissondayanrubianobeltran","gender":"4","age":"1","school":"9"},{"start_time":1552055566887,"click_time":1552055567734,"finger_time":1552055567313,"fix_duration":932.0698331169597,"trial":68,"RT":426,"MT":421,"sideResp":1,"stimulus":"img/250/equaldotsize/L/7_Ratio_250_L_8_R_2.png","xmouse":[811,811,811,811,811,811,811,811,811,811,811,811,811,811,811,811,811,811,811,810,805,800,792,787,784,779,774,766,750,735,708,703,695,690,681,671,656,633,614,574,552,537,524],"ymouse":[613,613,613,613,613,613,613,613,613,613,613,613,613,613,613,613,613,613,611,602,585,571,555,546,539,522,502,478,432,397,330,312,298,282,250,228,196,161,139,108,94,87,82],"timestamp_mouse":[12,34,47,66,85,106,126,147,167,186,206,227,246,266,287,306,327,347,367,386,407,426,446,465,486,505,526,546,566,586,606,627,646,667,686,706,726,747,766,787,805,826,847],"xSR":741.5,"ySR":573.95,"xT1":424.9,"yT1":0,"xT2":1058.1,"yT2":0,"toosoon":0,"cond_shown":"equaldotsize","ratio_trial":250,"smaller_num":"2","larger_num":"8","correct_side":1,"subjID":"alissondayanrubianobeltran","gender":"4","age":"1","school":"9"},{"start_time":1552055569519,"click_time":1552055570313,"finger_time":1552055569913,"fix_duration":803.0233650317895,"trial":69,"RT":394,"MT":400,"sideResp":1,"stimulus":"img/250/randomdotsizeEA/L/2_Ratio_250_L_16_R_4.png","xmouse":[757,757,757,757,757,757,757,757,757,757,757,757,757,757,757,757,757,757,757,750,734,718,668,648,631,615,604,592,589,586,583,579,573,558,547,538,529,497,466,452],"ymouse":[588,588,588,588,588,588,588,588,588,588,588,588,588,588,588,588,588,588,584,558,518,480,397,360,333,308,288,260,251,244,235,227,215,191,176,164,156,132,107,95],"timestamp_mouse":[13,38,54,75,95,114,135,154,174,194,214,234,254,274,293,314,335,354,374,394,414,434,454,474,495,514,534,555,573,594,614,634,654,674,694,714,735,754,774,794],"xSR":741.5,"ySR":573.95,"xT1":424.9,"yT1":0,"xT2":1058.1,"yT2":0,"toosoon":0,"cond_shown":"randomdotsizeEA","ratio_trial":250,"smaller_num":"4","larger_num":"16","correct_side":1,"subjID":"alissondayanrubianobeltran","gender":"4","age":"1","school":"9"},{"start_time":1552055573136,"click_time":1552055574074,"finger_time":1552055573593,"fix_duration":520.2823795438882,"trial":70,"RT":457,"MT":481,"sideResp":1,"stimulus":"img/250/equaldotanddens/L/7_Ratio_250_L_8_R_2.png","xmouse":[811,811,811,811,811,811,811,811,811,811,811,811,811,811,811,811,811,811,811,811,811,807,781,739,664,572,416,372,371,377,383,385,385,385,385,385,386,389,392,395,398,402,408,411,415,422,448],"ymouse":[621,621,621,621,621,621,621,621,621,621,621,621,621,621,621,621,621,621,621,621,621,611,553,489,410,328,176,98,78,61,55,53,53,53,53,53,52,52,50,49,48,48,45,44,43,41,33],"timestamp_mouse":[18,37,58,77,98,117,136,157,177,197,218,237,257,278,297,318,338,358,378,397,417,438,457,477,497,518,537,557,577,598,617,638,657,677,696,717,738,758,777,797,817,837,857,878,896,917,938],"xSR":741.5,"ySR":573.95,"xT1":424.9,"yT1":0,"xT2":1058.1,"yT2":0,"toosoon":0,"cond_shown":"equaldotanddens","ratio_trial":250,"smaller_num":"2","larger_num":"8","correct_side":1,"subjID":"alissondayanrubianobeltran","gender":"4","age":"1","school":"9"},{"start_time":1552055576298,"click_time":1552055577193,"finger_time":1552055576773,"fix_duration":1204.5810861989814,"trial":71,"RT":475,"MT":420,"sideResp":2,"stimulus":"img/750/equaldotanddens/R/5_Ratio_750_L_15_R_20.png","xmouse":[792,792,792,792,792,792,792,792,792,792,792,792,792,792,792,792,792,792,792,792,792,793,793,801,824,846,877,911,970,1011,1030,1042,1051,1062,1069,1078,1087,1102,1110,1117,1118,1118,1118,1116,1112],"ymouse":[620,620,620,620,620,620,620,620,620,620,620,620,620,620,620,620,620,620,620,620,620,613,578,544,469,427,386,345,282,243,225,211,200,185,177,167,157,144,134,121,118,116,112,101,90],"timestamp_mouse":[20,37,56,75,95,115,136,155,176,195,215,235,256,275,295,316,335,355,375,395,415,435,455,475,495,515,535,554,575,596,615,636,655,674,695,716,736,756,775,796,816,835,855,875,895],"xSR":741.5,"ySR":573.95,"xT1":424.9,"yT1":0,"xT2":1058.1,"yT2":0,"toosoon":0,"cond_shown":"equaldotanddens","ratio_trial":750,"smaller_num":"15","larger_num":"20","correct_side":2,"subjID":"alissondayanrubianobeltran","gender":"4","age":"1","school":"9"},{"start_time":1552055580225,"click_time":1552055581393,"finger_time":1552055580813,"fix_duration":1451.3657187986923,"trial":72,"RT":588,"MT":580,"sideResp":1,"stimulus":"img/750/randomdotsizeEA/R/2_Ratio_750_L_6_R_8.png","xmouse":[778,778,778,778,778,778,778,778,778,778,778,778,778,778,778,778,778,778,778,778,778,778,778,778,778,777,776,772,768,763,758,753,735,719,707,698,689,671,660,651,641,630,618,586,574,559,543,517,508,502,499,497,496,505,514,517,517,517,517],"ymouse":[636,636,636,636,636,636,636,636,636,636,636,636,636,636,636,636,636,636,636,636,636,636,636,636,636,627,621,596,581,564,546,527,479,447,425,408,395,374,363,353,343,334,323,296,285,273,261,240,229,219,209,201,189,155,139,125,114,102,99],"timestamp_mouse":[13,33,48,68,88,109,128,148,168,188,209,228,249,268,288,308,329,348,367,389,408,428,447,469,488,509,527,549,568,588,607,628,648,667,689,709,728,748,768,788,808,829,848,869,888,908,928,949,968,988,1008,1027,1048,1069,1089,1109,1128,1149,1167],"xSR":741.5,"ySR":573.95,"xT1":424.9,"yT1":0,"xT2":1058.1,"yT2":0,"toosoon":0,"cond_shown":"randomdotsizeEA","ratio_trial":750,"smaller_num":"6","larger_num":"8","correct_side":2,"subjID":"alissondayanrubianobeltran","gender":"4","age":"1","school":"9"},{"start_time":1552055584306,"click_time":1552055585254,"finger_time":1552055584893,"fix_duration":250,"trial":73,"RT":587,"MT":361,"sideResp":1,"stimulus":"img/250/equaldotsize/L/3_Ratio_250_L_8_R_2.png","xmouse":[792,792,792,792,792,792,792,792,792,792,792,792,792,792,792,792,792,792,792,792,792,792,792,792,792,792,792,789,782,707,665,624,589,567,547,543,540,537,531,520,515,509,503,493,491,489,487,486],"ymouse":[616,616,616,616,616,616,616,616,616,616,616,616,616,616,616,616,616,616,616,616,616,616,616,616,616,616,616,613,603,501,441,376,315,271,225,215,209,202,183,158,147,136,127,116,112,108,100,96],"timestamp_mouse":[11,34,48,68,88,106,127,148,168,187,208,227,248,266,287,308,328,347,367,387,407,428,447,467,488,508,527,547,568,587,608,627,648,667,687,707,727,746,766,788,807,828,847,868,887,907,927,948],"xSR":741.5,"ySR":573.95,"xT1":424.9,"yT1":0,"xT2":1058.1,"yT2":0,"toosoon":0,"cond_shown":"equaldotsize","ratio_trial":250,"smaller_num":"2","larger_num":"8","correct_side":1,"subjID":"alissondayanrubianobeltran","gender":"4","age":"1","school":"9"},{"start_time":1552055587801,"click_time":1552055588633,"finger_time":1552055588554,"fix_duration":405.4208364545231,"trial":74,"RT":753,"MT":79,"sideResp":1,"stimulus":"img/250/equaldotsize/L/5_Ratio_250_L_24_R_6.png","xmouse":[754,754,754,754,754,754,754,754,753,756,762,766,768,768,768,768,768,768,768,768,768,768,768,768,768,768,768,768,768,768,768,768,768,768,768,768,766,747,641,574,513,463],"ymouse":[621,621,621,621,621,621,621,621,621,624,625,627,627,627,627,627,627,627,627,627,627,627,627,627,627,627,627,627,627,627,627,627,627,627,627,627,613,543,331,236,149,92],"timestamp_mouse":[25,42,52,73,91,113,133,153,173,192,213,232,252,273,291,312,332,352,373,392,413,432,453,473,493,513,533,552,572,593,611,632,653,673,693,712,732,753,773,792,812,832],"xSR":741.5,"ySR":573.95,"xT1":424.9,"yT1":0,"xT2":1058.1,"yT2":0,"toosoon":0,"cond_shown":"equaldotsize","ratio_trial":250,"smaller_num":"6","larger_num":"24","correct_side":1,"subjID":"alissondayanrubianobeltran","gender":"4","age":"1","school":"9"},{"start_time":1552055591015,"click_time":1552055592033,"finger_time":1552055591533,"fix_duration":1201.3707899907893,"trial":75,"RT":518,"MT":500,"sideResp":1,"stimulus":"img/900/randomdotsizeEA/L/1_Ratio_900_L_10_R_9.png","xmouse":[795,795,795,795,795,795,795,795,795,795,795,795,795,795,795,795,795,795,795,795,795,795,795,782,767,752,736,727,721,719,716,712,695,677,661,648,632,594,575,560,539,519,487,475,472,470,470,470,471,471,472],"ymouse":[630,630,630,630,630,630,630,630,630,630,630,630,630,630,630,630,630,630,630,630,630,630,630,606,584,564,545,533,524,519,512,499,452,417,394,377,359,314,294,273,253,231,189,164,151,139,128,111,106,101,97],"timestamp_mouse":[18,41,59,78,98,119,139,159,178,198,218,238,258,279,299,319,338,358,378,398,419,438,458,478,498,518,537,558,578,598,619,639,658,678,698,718,737,758,777,798,818,838,858,878,899,919,938,959,978,999,1018],"xSR":741.5,"ySR":573.95,"xT1":424.9,"yT1":0,"xT2":1058.1,"yT2":0,"toosoon":0,"cond_shown":"randomdotsizeEA","ratio_trial":900,"smaller_num":"9","larger_num":"10","correct_side":1,"subjID":"alissondayanrubianobeltran","gender":"4","age":"1","school":"9"},{"start_time":1552055594528,"click_time":1552055595393,"finger_time":1552055595113,"fix_duration":1453.6732884941418,"trial":76,"RT":585,"MT":280,"sideResp":1,"stimulus":"img/250/randomdotsizeEA/L/5_Ratio_250_L_24_R_6.png","xmouse":[798,798,798,798,798,798,798,798,798,798,798,798,798,798,798,798,798,798,798,798,798,798,798,798,798,798,798,798,783,755,710,663,595,581,574,571,570,570,565,561,555,547,527,518],"ymouse":[596,596,596,596,596,596,596,596,596,596,596,596,596,596,596,596,596,596,596,596,596,596,596,596,596,596,596,596,586,548,497,443,362,341,324,311,301,271,234,207,176,143,97,85],"timestamp_mouse":[22,41,45,65,86,106,126,145,165,184,206,226,244,265,286,306,325,345,366,386,406,425,445,465,485,506,526,545,565,585,605,626,645,665,686,706,725,745,765,786,805,826,845,865],"xSR":741.5,"ySR":573.95,"xT1":424.9,"yT1":0,"xT2":1058.1,"yT2":0,"toosoon":0,"cond_shown":"randomdotsizeEA","ratio_trial":250,"smaller_num":"6","larger_num":"24","correct_side":1,"subjID":"alissondayanrubianobeltran","gender":"4","age":"1","school":"9"},{"start_time":1552055597443,"click_time":1552055598473,"finger_time":1552055597913,"fix_duration":867.7160347743107,"trial":77,"RT":470,"MT":560,"sideResp