[{"start_time":1552054783357,"click_time":1552054793735,"finger_time":1552054783368,"fix_duration":877.5997926381979,"trial":0,"RT":11,"MT":10367,"sideResp":2,"stimulus":[],"xmouse":[784,784,784,784,784,784,784,784,784,784,784,784,784,784,784,784,784,784,784,784,784,784,784,784,784,784,784,784,784,784,784,784,784,785,785,785,785,784,784,784,783,782,780,778,777,776,774,773,773,773,773,773,773,773,773,773,773,773,773,773,773,773,773,773,773,773,773,773,773,773,773,773,773,773,773,773,773,773,773,773,773,773,773,773,773,773,773,773,773,773,773,773,773,773,773,773,773,773,773,773,773,773,773,773,773,773,773,773,773,773,773,773,773,773,773,773,773,773,773,773,773,773,773,773,773,773,773,773,773,773,773,773,773,773,773,773,773,773,773,773,773,773,773,773,773,773,773,773,773,773,773,773,773,773,773,773,773,773,773,773,773,773,773,773,773,773,773,773,773,773,773,773,773,773,773,773,773,773,773,773,773,773,773,773,773,773,773,773,773,773,773,773,773,773,773,773,773,773,773,773,773,773,773,773,773,773,773,773,773,773,773,773,773,773,773,773,773,773,773,773,773,773,773,773,773,773,773,773,773,773,773,773,773,773,773,773,773,773,773,773,773,773,773,773,773,773,773,773,773,773,773,773,773,773,773,773,773,773,773,773,773,773,773,773,773,773,773,773,773,773,773,773,773,773,773,773,773,773,773,773,773,773,773,773,773,773,773,773,773,773,773,773,773,773,773,773,773,773,773,773,773,773,773,773,773,773,773,773,773,773,773,773,773,773,773,773,773,773,773,773,773,773,773,773,773,773,773,773,773,773,773,773,773,773,773,773,773,773,773,773,773,773,773,773,773,773,773,773,773,773,773,773,773,773,773,773,773,773,773,773,773,773,773,773,773,773,773,773,773,773,773,773,773,773,773,773,773,773,773,773,773,773,773,773,773,773,773,773,773,773,773,773,773,773,773,773,773,773,773,773,773,773,773,773,773,773,773,773,773,773,773,773,773,773,773,773,773,773,773,773,773,773,773,773,773,773,773,773,773,773,773,773,773,773,773,773,773,773,773,773,773,773,773,773,773,773,773,773,773,773,773,773,773,773,773,773,773,773,773,773,773,773,773,773,773,773,773,773,773,773,773,773,773,773,773,773,773,773,773,773,773,783,824,892,905,905,907,914,957,981,984,984,988,993,1010,1029,1046,1049,1050,1041,1033,1026,1025,1025,1030,1041,1045,1051,1065,1070,1070,1071,1071,1071,1071,1071,1071,1071,1071,1071],"ymouse":[541,541,541,541,541,541,541,541,541,541,541,541,541,541,541,541,541,541,541,541,541,541,541,541,541,541,541,541,541,541,541,541,541,541,543,545,551,556,562,566,567,572,578,585,590,594,606,608,608,608,608,608,608,608,608,608,608,608,608,608,608,608,608,608,608,608,608,608,608,608,608,608,608,608,608,608,608,608,608,608,608,608,608,608,608,608,608,608,608,608,608,608,608,608,608,608,608,608,608,608,608,608,608,608,608,608,608,608,608,608,608,608,608,608,608,608,608,608,608,608,608,608,608,608,608,608,608,608,608,608,608,608,608,608,608,608,608,608,608,608,608,608,608,608,608,608,608,608,608,608,608,608,608,608,608,608,608,608,608,608,608,608,608,608,608,608,608,608,608,608,608,608,608,608,608,608,608,608,608,608,608,608,608,608,608,608,608,608,608,608,608,608,608,608,608,608,608,608,608,608,608,608,608,608,608,608,608,608,608,608,608,608,608,608,608,608,608,608,608,608,608,608,608,608,608,608,608,608,608,608,608,608,608,608,608,608,608,608,608,608,608,608,608,608,608,608,608,608,608,608,608,608,608,608,608,608,608,608,608,608,608,608,608,608,608,608,608,608,608,608,608,608,608,608,608,608,608,608,608,608,608,608,608,608,608,608,608,608,608,608,608,608,608,608,608,608,608,608,608,608,608,608,608,608,608,608,608,608,608,608,608,608,608,608,608,608,608,608,608,608,608,608,608,608,608,608,608,608,608,608,608,608,608,608,608,608,608,608,608,608,608,608,608,608,608,608,608,608,608,608,608,608,608,608,608,608,608,608,608,608,608,608,608,608,608,608,608,608,608,608,608,608,608,608,608,608,608,608,608,608,608,608,608,608,608,608,608,608,608,608,608,608,608,608,608,608,608,608,608,608,608,608,608,608,608,608,608,608,608,608,608,608,608,608,608,608,608,608,608,608,608,608,608,608,608,608,608,608,608,608,608,608,608,608,608,608,608,608,608,608,608,608,608,608,608,608,608,608,608,608,608,608,608,608,608,608,608,608,608,608,608,608,608,608,608,608,608,608,608,608,608,608,608,608,608,608,608,608,608,608,608,607,583,551,543,543,541,525,488,478,476,476,475,471,458,440,411,399,379,331,302,276,273,266,246,194,97,32,0,0,0,0,0,0,0,0,0,0,0,2],"timestamp_mouse":[10,23,37,58,78,98,117,138,158,178,198,218,238,258,278,298,317,338,358,378,398,417,438,458,478,499,517,537,558,578,598,619,638,659,679,698,719,737,757,777,797,817,837,857,878,898,918,939,957,977,997,1017,1038,1058,1077,1098,1119,1138,1158,1177,1197,1218,1239,1257,1277,1298,1317,1337,1357,1377,1397,1418,1438,1457,1478,1499,1518,1537,1558,1577,1598,1617,1639,1657,1677,1699,1719,1738,1758,1778,1798,1817,1839,1857,1879,1899,1919,1937,1957,1977,1998,2019,2038,2058,2077,2098,2117,2137,2158,2178,2199,2218,2237,2258,2278,2298,2318,2338,2359,2377,2398,2419,2438,2457,2479,2499,2518,2539,2558,2577,2598,2618,2638,2658,2677,2697,2719,2738,2758,2778,2798,2818,2837,2859,2879,2897,2918,2939,2959,2977,2998,3017,3038,3059,3077,3098,3118,3139,3158,3178,3198,3219,3238,3258,3278,3299,3317,3339,3359,3378,3397,3418,3439,3457,3477,3499,3519,3538,3557,3578,3598,3619,3638,3658,3677,3697,3718,3739,3759,3778,3797,3818,3838,3858,3877,3899,3919,3938,3957,3977,3997,4019,4038,4057,4078,4098,4119,4138,4158,4177,4198,4219,4239,4258,4277,4298,4319,4337,4358,4379,4397,4418,4439,4459,4478,4498,4519,4539,4558,4577,4599,4618,4637,4659,4678,4698,4717,4739,4758,4778,4798,4817,4837,4858,4878,4897,4918,4939,4958,4979,4997,5018,5039,5059,5078,5099,5118,5137,5158,5179,5199,5218,5237,5257,5277,5297,5318,5339,5359,5377,5399,5419,5437,5458,5477,5499,5519,5538,5557,5578,5597,5617,5638,5658,5678,5698,5718,5738,5757,5777,5797,5818,5838,5858,5878,5898,5918,5938,5957,5977,5998,6018,6039,6058,6077,6098,6118,6137,6159,6178,6198,6219,6238,6258,6277,6297,6317,6337,6358,6379,6397,6417,6437,6458,6477,6498,6519,6539,6559,6579,6597,6618,6637,6659,6678,6698,6717,6738,6759,6779,6798,6817,6837,6858,6877,6897,6918,6939,6958,6978,6998,7019,7039,7057,7077,7097,7118,7137,7159,7178,7198,7219,7237,7259,7279,7297,7317,7337,7359,7379,7399,7419,7438,7458,7478,7499,7519,7538,7557,7579,7599,7618,7637,7658,7677,7698,7717,7738,7759,7777,7797,7817,7839,7858,7877,7898,7917,7938,7957,7978,7997,8018,8038,8057,8078,8099,8119,8138,8158,8178,8199,8218,8237,8258,8278,8298,8318,8338,8358,8379,8399,8418,8438,8458,8478,8497,8517,8538,8557,8578,8598,8619,8639,8659,8678,8698,8718,8739,8759,8779,8797,8818,8837,8857,8879,8897,8918,8939,8958,8978,8999,9018,9038,9058,9077,9098,9118,9138,9158,9179,9199,9218,9238,9258,9278,9297,9317,9339,9359,9379,9398,9419,9438,9457,9478,9497,9517,9537,9558,9579,9599,9618,9637,9658,9677,9698,9717,9738,9757,9778,9798,9818,9837,9859,9878,9897,9917,9937,9957,9977,9997,10018,10037,10057,10077,10097,10119,10137,10157,10178,10197,10218,10237,10258,10278,10298,10319,10338,10357,10377],"xSR":741.5,"ySR":501.8,"xT1":424.9,"yT1":0,"xT2":1058.1,"yT2":0,"toosoon":0,"cond_shown":"Congruent","ratio_trial":200,"L_num":15,"L_den":25,"R_num":4,"R_den":10,"correct_side":1,"subjID":"alissondayanarubianobeltran1","gender":"1","age":"9","school":"4","test":{"fix_dur":[250,1500],"timestim":1000,"targets_dim":[100,100],"targets_relative_coord":[0.3,0.7],"size_stim":[880,420],"start_dim":[100,100],"size_start":[300,300],"size_fix":60,"samplingrate":20,"img_types":["Congruent","Incongruent"],"ratios":[100,200,300],"rep_conds":19,"nTrials":120,"trials_to_rest":500,"Trials_order":[104,71,96,0,27,76,112,102,9,38,75,32,4,65,118,62,59,80,82,2,107,117,113,8,50,91,99,85,36,103,24,68,58,78,47,37,77,51,56,93,5,16,19,40,10,79,88,6,22,92,33,12,54,57,100,72,28,111,98,69,20,86,115,14,119,17,67,83,66,25,108,61,89,45,109,97,74,64,55,106,42,35,84,11,23,29,18,41,15,52,3,26,116,46,81,1,49,31,30,63,87,39,70,101,48,34,13,94,7,110,44,73,21,95,43,53,60,90,114,105],"cond_shown":["Congruent","Incongruent","Congruent","Congruent","Incongruent","Congruent","Congruent","Congruent","Incongruent","Congruent","Incongruent","Congruent","Congruent","Incongruent","Congruent","Congruent","Incongruent","Congruent","Congruent","Congruent","Incongruent","Incongruent","Incongruent","Congruent","Congruent","Incongruent","Incongruent","Incongruent","Congruent","Incongruent","Congruent","Congruent","Congruent","Congruent","Incongruent","Incongruent","Incongruent","Incongruent","Congruent","Incongruent","Incongruent","Congruent","Incongruent","Congruent","Congruent","Incongruent","Congruent","Congruent","Congruent","Congruent","Incongruent","Congruent","Congruent","Incongruent","Congruent","Congruent","Congruent","Incongruent","Congruent","Incongruent","Congruent","Congruent","Incongruent","Congruent","Incongruent","Incongruent","Incongruent","Incongruent","Congruent","Incongruent","Congruent","Incongruent","Incongruent","Incongruent","Incongruent","Incongruent","Congruent","Congruent","Incongruent","Congruent","Congruent","Incongruent","Congruent","Incongruent","Incongruent","Incongruent","Congruent","Incongruent","Incongruent","Congruent","Incongruent","Congruent","Congruent","Congruent","Incongruent","Incongruent","Incongruent","Incongruent","Congruent","Incongruent","Incongruent","Incongruent","Congruent","Incongruent","Congruent","Congruent","Incongruent","Congruent","Incongruent","Congruent","Congruent","Incongruent","Incongruent","Incongruent","Incongruent","Incongruent","Congruent","Congruent","Congruent","Incongruent"],"ratio_trial":[200,300,100,100,200,300,300,100,200,200,200,200,300,300,300,200,300,200,300,200,300,200,300,200,200,100,200,100,100,100,100,200,300,100,300,100,300,200,200,200,300,300,100,300,300,100,300,100,300,200,200,100,100,200,300,100,300,200,200,200,200,200,100,200,300,300,100,300,100,100,100,100,300,200,100,100,200,300,100,300,100,300,100,300,300,300,100,300,200,300,200,200,200,300,200,100,100,100,100,200,200,200,300,300,100,300,100,300,100,200,200,100,200,300,100,300,100,100,100,200],"left_num":[15,1,7,3,4,18,1,3,7,11,4,7,20,1,2,1,8,3,9,3,13,9,1,6,12,9,9,3,9,1,3,3,24,1,3,3,13,11,7,7,8,24,12,1,5,9,1,7,20,14,7,9,2,7,20,10,5,14,7,7,6,13,12,3,1,13,6,13,1,9,4,2,4,1,6,6,6,5,8,4,2,13,9,4,2,4,4,1,1,11,1,20,11,1,6,3,4,13,8,1,7,3,1,4,7,1,10,11,6,20,7,3,14,1,12,4,2,9,3,7],"right_num":[4,2,9,2,6,9,7,4,14,3,6,18,13,3,10,21,9,9,3,7,12,8,2,11,6,20,8,7,8,8,4,7,8,3,4,8,12,3,2,6,14,8,2,6,6,20,7,15,13,6,8,8,6,6,8,3,7,12,2,6,11,14,9,9,2,12,11,12,18,6,15,8,6,2,7,7,11,7,6,1,11,12,8,2,6,2,6,3,2,4,2,9,3,7,3,4,8,12,2,2,6,11,8,2,9,7,8,1,7,9,2,4,6,3,9,2,6,8,2,8],"left_den":[25,2,14,6,5,20,20,20,10,22,5,15,25,2,20,2,10,12,10,10,26,15,2,20,15,10,15,9,15,2,20,10,30,2,6,5,26,20,21,15,10,30,30,5,25,10,20,14,25,28,10,15,5,15,25,25,25,30,21,15,20,26,24,12,2,26,10,26,2,18,10,4,5,3,10,10,20,25,16,10,5,26,15,20,4,20,8,2,3,22,3,25,22,20,20,6,8,26,16,3,15,4,30,20,14,20,25,22,10,25,21,6,30,2,24,20,5,15,6,10],"right_den":[10,10,15,5,10,15,20,16,28,10,10,27,26,15,25,30,18,20,5,14,15,10,10,22,10,25,10,30,16,20,16,14,16,5,20,16,15,4,15,9,28,16,4,12,12,25,20,25,26,20,16,16,12,9,16,10,14,18,15,9,22,20,15,20,10,15,22,15,30,10,30,20,12,15,14,14,22,14,10,10,22,15,16,4,30,4,10,15,15,20,15,15,10,20,6,10,20,20,5,15,9,20,24,4,15,20,16,5,14,15,15,10,9,15,15,4,12,16,5,16],"correct_side":[1,1,2,1,1,1,2,2,1,1,1,2,1,1,2,2,1,2,1,2,2,2,1,2,1,1,2,1,1,1,2,2,1,2,1,1,2,2,1,2,1,1,2,2,2,1,2,2,1,1,1,1,2,2,1,1,2,2,1,2,2,2,2,2,1,2,1,2,2,2,2,1,1,1,1,1,2,2,2,1,2,2,1,2,1,2,2,1,1,1,1,1,1,2,2,1,1,2,1,1,2,1,2,2,2,2,2,1,1,1,1,1,2,1,2,2,2,1,1,1],"img_shown":["img2/200/Congruent/L/C_Dist_200_LN_15_LD_25_RN_4_RD_10_0.png","img2/300/Incongruent/L/I_Dist_300_LN_1_LD_2_RN_2_RD_10_0.png","img2/100/Congruent/R/C_Dist_100_LN_7_LD_14_RN_9_RD_15_1.png","img2/100/Congruent/L/C_Dist_100_LN_3_LD_6_RN_2_RD_5_0.png","img2/200/Incongruent/L/I_Dist_200_LN_4_LD_5_RN_6_RD_10_0.png","img2/300/Congruent/L/C_Dist_300_LN_18_LD_20_RN_9_RD_15_0.png","img2/300/Congruent/R/C_Dist_300_LN_1_LD_20_RN_7_RD_20_1.png","img2/100/Congruent/R/C_Dist_100_LN_3_LD_20_RN_4_RD_16_1.png","img2/200/Incongruent/L/I_Dist_200_LN_7_LD_10_RN_14_RD_28_0.png","img2/200/Congruent/L/C_Dist_200_LN_11_LD_22_RN_3_RD_10_0.png","img2/200/Incongruent/L/I_Dist_200_LN_4_LD_5_RN_6_RD_10_0.png","img2/200/Congruent/R/C_Dist_200_LN_7_LD_15_RN_18_RD_27_1.png","img2/300/Congruent/L/C_Dist_300_LN_20_LD_25_RN_13_RD_26_0.png","img2/300/Incongruent/L/I_Dist_300_LN_1_LD_2_RN_3_RD_15_0.png","img2/300/Congruent/R/C_Dist_300_LN_2_LD_20_RN_10_RD_25_1.png","img2/200/Congruent/R/C_Dist_200_LN_1_LD_2_RN_21_RD_30_1.png","img2/300/Incongruent/L/I_Dist_300_LN_8_LD_10_RN_9_RD_18_0.png","img2/200/Congruent/R/C_Dist_200_LN_3_LD_12_RN_9_RD_20_1.png","img2/300/Congruent/L/C_Dist_300_LN_9_LD_10_RN_3_RD_5_0.png","img2/200/Congruent/R/C_Dist_200_LN_3_LD_10_RN_7_RD_14_1.png","img2/300/Incongruent/R/I_Dist_300_LN_13_LD_26_RN_12_RD_15_1.png","img2/200/Incongruent/R/I_Dist_200_LN_9_LD_15_RN_8_RD_10_1.png","img2/300/Incongruent/L/I_Dist_300_LN_1_LD_2_RN_2_RD_10_0.png","img2/200/Congruent/R/C_Dist_200_LN_6_LD_20_RN_11_RD_22_1.png","img2/200/Congruent/L/C_Dist_200_LN_12_LD_15_RN_6_RD_10_0.png","img2/100/Incongruent/L/I_Dist_100_LN_9_LD_10_RN_20_RD_25_0.png","img2/200/Incongruent/R/I_Dist_200_LN_9_LD_15_RN_8_RD_10_1.png","img2/100/Incongruent/L/I_Dist_100_LN_3_LD_9_RN_7_RD_30_0.png","img2/100/Congruent/L/C_Dist_100_LN_9_LD_15_RN_8_RD_16_0.png","img2/100/Incongruent/L/I_Dist_100_LN_1_LD_2_RN_8_RD_20_0.png","img2/100/Congruent/R/C_Dist_100_LN_3_LD_20_RN_4_RD_16_1.png","img2/200/Congruent/R/C_Dist_200_LN_3_LD_10_RN_7_RD_14_1.png","img2/300/Congruent/L/C_Dist_300_LN_24_LD_30_RN_8_RD_16_0.png","img2/100/Congruent/R/C_Dist_100_LN_1_LD_2_RN_3_RD_5_1.png","img2/300/Incongruent/L/I_Dist_300_LN_3_LD_6_RN_4_RD_20_0.png","img2/100/Incongruent/L/I_Dist_100_LN_3_LD_5_RN_8_RD_16_0.png","img2/300/Incongruent/R/I_Dist_300_LN_13_LD_26_RN_12_RD_15_1.png","img2/200/Incongruent/R/I_Dist_200_LN_11_LD_20_RN_3_RD_4_1.png","img2/200/Congruent/L/C_Dist_200_LN_7_LD_21_RN_2_RD_15_0.png","img2/200/Incongruent/R/I_Dist_200_LN_7_LD_15_RN_6_RD_9_1.png","img2/300/Incongruent/L/I_Dist_300_LN_8_LD_10_RN_14_RD_28_0.png","img2/300/Congruent/L/C_Dist_300_LN_24_LD_30_RN_8_RD_16_0.png","img2/100/Incongruent/R/I_Dist_100_LN_12_LD_30_RN_2_RD_4_1.png","img2/300/Congruent/R/C_Dist_300_LN_1_LD_5_RN_6_RD_12_1.png","img2/300/Congruent/R/C_Dist_300_LN_5_LD_25_RN_6_RD_12_1.png","img2/100/Incongruent/L/I_Dist_100_LN_9_LD_10_RN_20_RD_25_0.png","img2/300/Congruent/R/C_Dist_300_LN_1_LD_20_RN_7_RD_20_1.png","img2/100/Congruent/R/C_Dist_100_LN_7_LD_14_RN_15_RD_25_1.png","img2/300/Congruent/L/C_Dist_300_LN_20_LD_25_RN_13_RD_26_0.png","img2/200/Congruent/L/C_Dist_200_LN_14_LD_28_RN_6_RD_20_0.png","img2/200/Incongruent/L/I_Dist_200_LN_7_LD_10_RN_8_RD_16_0.png","img2/100/Congruent/L/C_Dist_100_LN_9_LD_15_RN_8_RD_16_0.png","img2/100/Congruent/R/C_Dist_100_LN_2_LD_5_RN_6_RD_12_1.png","img2/200/Incongruent/R/I_Dist_200_LN_7_LD_15_RN_6_RD_9_1.png","img2/300/Congruent/L/C_Dist_300_LN_20_LD_25_RN_8_RD_16_0.png","img2/100/Congruent/L/C_Dist_100_LN_10_LD_25_RN_3_RD_10_0.png","img2/300/Congruent/R/C_Dist_300_LN_5_LD_25_RN_7_RD_14_1.png","img2/200/Incongruent/R/I_Dist_200_LN_14_LD_30_RN_12_RD_18_1.png","img2/200/Congruent/L/C_Dist_200_LN_7_LD_21_RN_2_RD_15_0.png","img2/200/Incongruent/R/I_Dist_200_LN_7_LD_15_RN_6_RD_9_1.png","img2/200/Congruent/R/C_Dist_200_LN_6_LD_20_RN_11_RD_22_1.png","img2/200/Congruent/R/C_Dist_200_LN_13_LD_26_RN_14_RD_20_1.png","img2/100/Incongruent/R/I_Dist_100_LN_12_LD_24_RN_9_RD_15_1.png","img2/200/Congruent/R/C_Dist_200_LN_3_LD_12_RN_9_RD_20_1.png","img2/300/Incongruent/L/I_Dist_300_LN_1_LD_2_RN_2_RD_10_0.png","img2/300/Incongruent/R/I_Dist_300_LN_13_LD_26_RN_12_RD_15_1.png","img2/100/Incongruent/L/I_Dist_100_LN_6_LD_10_RN_11_RD_22_0.png","img2/300/Incongruent/R/I_Dist_300_LN_13_LD_26_RN_12_RD_15_1.png","img2/100/Congruent/R/C_Dist_100_LN_1_LD_2_RN_18_RD_30_1.png","img2/100/Incongruent/R/I_Dist_100_LN_9_LD_18_RN_6_RD_10_1.png","img2/100/Congruent/R/C_Dist_100_LN_4_LD_10_RN_15_RD_30_1.png","img2/100/Incongruent/L/I_Dist_100_LN_2_LD_4_RN_8_RD_20_0.png","img2/300/Incongruent/L/I_Dist_300_LN_4_LD_5_RN_6_RD_12_0.png","img2/200/Incongruent/L/I_Dist_200_LN_1_LD_3_RN_2_RD_15_0.png","img2/100/Incongruent/L/I_Dist_100_LN_6_LD_10_RN_7_RD_14_0.png","img2/100/Incongruent/L/I_Dist_100_LN_6_LD_10_RN_7_RD_14_0.png","img2/200/Congruent/R/C_Dist_200_LN_6_LD_20_RN_11_RD_22_1.png","img2/300/Congruent/R/C_Dist_300_LN_5_LD_25_RN_7_RD_14_1.png","img2/100/Incongruent/R/I_Dist_100_LN_8_LD_16_RN_6_RD_10_1.png","img2/300/Congruent/L/C_Dist_300_LN_4_LD_10_RN_1_RD_10_0.png","img2/100/Congruent/R/C_Dist_100_LN_2_LD_5_RN_11_RD_22_1.png","img2/300/Incongruent/R/I_Dist_300_LN_13_LD_26_RN_12_RD_15_1.png","img2/100/Congruent/L/C_Dist_100_LN_9_LD_15_RN_8_RD_16_0.png","img2/300/Incongruent/R/I_Dist_300_LN_4_LD_20_RN_2_RD_4_1.png","img2/300/Incongruent/L/I_Dist_300_LN_2_LD_4_RN_6_RD_30_0.png","img2/300/Incongruent/R/I_Dist_300_LN_4_LD_20_RN_2_RD_4_1.png","img2/100/Congruent/R/C_Dist_100_LN_4_LD_8_RN_6_RD_10_1.png","img2/300/Incongruent/L/I_Dist_300_LN_1_LD_2_RN_3_RD_15_0.png","img2/200/Incongruent/L/I_Dist_200_LN_1_LD_3_RN_2_RD_15_0.png","img2/300/Congruent/L/C_Dist_300_LN_11_LD_22_RN_4_RD_20_0.png","img2/200/Incongruent/L/I_Dist_200_LN_1_LD_3_RN_2_RD_15_0.png","img2/200/Congruent/L/C_Dist_200_LN_20_LD_25_RN_9_RD_15_0.png","img2/200/Congruent/L/C_Dist_200_LN_11_LD_22_RN_3_RD_10_0.png","img2/300/Congruent/R/C_Dist_300_LN_1_LD_20_RN_7_RD_20_1.png","img2/200/Incongruent/R/I_Dist_200_LN_6_LD_20_RN_3_RD_6_1.png","img2/100/Incongruent/L/I_Dist_100_LN_3_LD_6_RN_4_RD_10_0.png","img2/100/Incongruent/L/I_Dist_100_LN_4_LD_8_RN_8_RD_20_0.png","img2/100/Incongruent/R/I_Dist_100_LN_13_LD_26_RN_12_RD_20_1.png","img2/100/Congruent/L/C_Dist_100_LN_8_LD_16_RN_2_RD_5_0.png","img2/200/Incongruent/L/I_Dist_200_LN_1_LD_3_RN_2_RD_15_0.png","img2/200/Incongruent/R/I_Dist_200_LN_7_LD_15_RN_6_RD_9_1.png","img2/200/Incongruent/L/I_Dist_200_LN_3_LD_4_RN_11_RD_20_0.png","img2/300/Congruent/R/C_Dist_300_LN_1_LD_30_RN_8_RD_24_1.png","img2/300/Incongruent/R/I_Dist_300_LN_4_LD_20_RN_2_RD_4_1.png","img2/100/Congruent/R/C_Dist_100_LN_7_LD_14_RN_9_RD_15_1.png","img2/300/Congruent/R/C_Dist_300_LN_1_LD_20_RN_7_RD_20_1.png","img2/100/Incongruent/R/I_Dist_100_LN_10_LD_25_RN_8_RD_16_1.png","img2/300/Congruent/L/C_Dist_300_LN_11_LD_22_RN_1_RD_5_0.png","img2/100/Incongruent/L/I_Dist_100_LN_6_LD_10_RN_7_RD_14_0.png","img2/200/Congruent/L/C_Dist_200_LN_20_LD_25_RN_9_RD_15_0.png","img2/200/Congruent/L/C_Dist_200_LN_7_LD_21_RN_2_RD_15_0.png","img2/100/Incongruent/L/I_Dist_100_LN_3_LD_6_RN_4_RD_10_0.png","img2/200/Incongruent/R/I_Dist_200_LN_14_LD_30_RN_6_RD_9_1.png","img2/300/Incongruent/L/I_Dist_300_LN_1_LD_2_RN_3_RD_15_0.png","img2/100/Incongruent/R/I_Dist_100_LN_12_LD_24_RN_9_RD_15_1.png","img2/300/Incongruent/R/I_Dist_300_LN_4_LD_20_RN_2_RD_4_1.png","img2/100/Congruent/R/C_Dist_100_LN_2_LD_5_RN_6_RD_12_1.png","img2/100/Congruent/L/C_Dist_100_LN_9_LD_15_RN_8_RD_16_0.png","img2/100/Congruent/L/C_Dist_100_LN_3_LD_6_RN_2_RD_5_0.png","img2/200/Incongruent/L/I_Dist_200_LN_7_LD_10_RN_8_RD_16_0.png"],"dist100_C":[["C_Dist_100_LN_10_LD_25_RN_3_RD_10_0.png","C_Dist_100_LN_11_LD_22_RN_4_RD_10_0.png","C_Dist_100_LN_11_LD_22_RN_6_RD_15_0.png","C_Dist_100_LN_15_LD_25_RN_13_RD_26_0.png","C_Dist_100_LN_3_LD_6_RN_2_RD_5_0.png","C_Dist_100_LN_6_LD_20_RN_5_RD_25_0.png","C_Dist_100_LN_8_LD_16_RN_2_RD_5_0.png","C_Dist_100_LN_9_LD_15_RN_8_RD_16_0.png"],["C_Dist_100_LN_1_LD_2_RN_18_RD_30_1.png","C_Dist_100_LN_1_LD_2_RN_3_RD_5_1.png","C_Dist_100_LN_12_LD_30_RN_13_RD_26_1.png","C_Dist_100_LN_2_LD_5_RN_11_RD_22_1.png","C_Dist_100_LN_2_LD_5_RN_6_RD_12_1.png","C_Dist_100_LN_3_LD_20_RN_4_RD_16_1.png","C_Dist_100_LN_4_LD_10_RN_15_RD_30_1.png","C_Dist_100_LN_4_LD_8_RN_6_RD_10_1.png","C_Dist_100_LN_6_LD_12_RN_15_RD_25_1.png","C_Dist_100_LN_7_LD_14_RN_15_RD_25_1.png","C_Dist_100_LN_7_LD_14_RN_9_RD_15_1.png"]],"dist100_I":[["I_Dist_100_LN_1_LD_2_RN_8_RD_20_0.png","I_Dist_100_LN_2_LD_4_RN_6_RD_15_0.png","I_Dist_100_LN_2_LD_4_RN_8_RD_20_0.png","I_Dist_100_LN_3_LD_5_RN_11_RD_22_0.png","I_Dist_100_LN_3_LD_5_RN_8_RD_16_0.png","I_Dist_100_LN_3_LD_6_RN_4_RD_10_0.png","I_Dist_100_LN_3_LD_9_RN_7_RD_30_0.png","I_Dist_100_LN_4_LD_8_RN_8_RD_20_0.png","I_Dist_100_LN_6_LD_10_RN_11_RD_22_0.png","I_Dist_100_LN_6_LD_10_RN_13_RD_26_0.png","I_Dist_100_LN_6_LD_10_RN_7_RD_14_0.png","I_Dist_100_LN_9_LD_10_RN_20_RD_25_0.png","I_Dist_100_LN_9_LD_15_RN_13_RD_26_0.png","I_Dist_100_LN_9_LD_15_RN_14_RD_28_0.png"],["I_Dist_100_LN_10_LD_25_RN_8_RD_16_1.png","I_Dist_100_LN_10_LD_25_RN_9_RD_18_1.png","I_Dist_100_LN_11_LD_22_RN_9_RD_15_1.png","I_Dist_100_LN_12_LD_24_RN_9_RD_15_1.png","I_Dist_100_LN_12_LD_30_RN_2_RD_4_1.png","I_Dist_100_LN_13_LD_26_RN_12_RD_20_1.png","I_Dist_100_LN_13_LD_26_RN_6_RD_10_1.png","I_Dist_100_LN_17_LD_30_RN_10_RD_15_1.png","I_Dist_100_LN_6_LD_12_RN_3_RD_5_1.png","I_Dist_100_LN_8_LD_16_RN_6_RD_10_1.png","I_Dist_100_LN_8_LD_20_RN_1_RD_2_1.png","I_Dist_100_LN_9_LD_18_RN_6_RD_10_1.png"]],"dist100_S":[["E_Dist_100_LN_2_LD_12_RN_2_RD_30_0.png","E_Dist_100_LN_6_LD_10_RN_6_RD_12_0.png"],["E_Dist_100_LN_6_LD_12_RN_6_RD_10_1.png"]],"dist200_C":[["C_Dist_200_LN_11_LD_22_RN_3_RD_10_0.png","C_Dist_200_LN_12_LD_15_RN_6_RD_10_0.png","C_Dist_200_LN_12_LD_20_RN_6_RD_15_0.png","C_Dist_200_LN_14_LD_28_RN_6_RD_20_0.png","C_Dist_200_LN_15_LD_25_RN_4_RD_10_0.png","C_Dist_200_LN_16_LD_20_RN_12_RD_20_0.png","C_Dist_200_LN_16_LD_30_RN_9_RD_27_0.png","C_Dist_200_LN_20_LD_25_RN_9_RD_15_0.png","C_Dist_200_LN_21_LD_30_RN_2_RD_4_0.png","C_Dist_200_LN_4_LD_10_RN_3_RD_15_0.png","C_Dist_200_LN_4_LD_8_RN_3_RD_10_0.png","C_Dist_200_LN_6_LD_15_RN_3_RD_15_0.png","C_Dist_200_LN_7_LD_21_RN_2_RD_15_0.png","C_Dist_200_LN_8_LD_15_RN_2_RD_6_0.png","C_Dist_200_LN_8_LD_15_RN_3_RD_9_0.png","C_Dist_200_LN_8_LD_15_RN_7_RD_21_0.png","C_Dist_200_LN_9_LD_20_RN_4_RD_16_0.png"],["C_Dist_200_LN_1_LD_2_RN_21_RD_30_1.png","C_Dist_200_LN_13_LD_26_RN_14_RD_20_1.png","C_Dist_200_LN_3_LD_10_RN_11_RD_22_1.png","C_Dist_200_LN_3_LD_10_RN_14_RD_28_1.png","C_Dist_200_LN_3_LD_10_RN_7_RD_14_1.png","C_Dist_200_LN_3_LD_12_RN_9_RD_20_1.png","C_Dist_200_LN_3_LD_6_RN_14_RD_20_1.png","C_Dist_200_LN_5_LD_10_RN_14_RD_20_1.png","C_Dist_200_LN_6_LD_12_RN_7_RD_10_1.png","C_Dist_200_LN_6_LD_20_RN_11_RD_22_1.png","C_Dist_200_LN_7_LD_15_RN_18_RD_27_1.png","C_Dist_200_LN_9_LD_30_RN_13_RD_26_1.png"]],"dist200_I":[["I_Dist_200_LN_1_LD_2_RN_3_RD_10_0.png","I_Dist_200_LN_1_LD_3_RN_2_RD_15_0.png","I_Dist_200_LN_3_LD_4_RN_11_RD_20_0.png","I_Dist_200_LN_4_LD_5_RN_6_RD_10_0.png","I_Dist_200_LN_4_LD_6_RN_14_RD_30_0.png","I_Dist_200_LN_7_LD_10_RN_12_RD_24_0.png","I_Dist_200_LN_7_LD_10_RN_14_RD_28_0.png","I_Dist_200_LN_7_LD_10_RN_8_RD_16_0.png"],["I_Dist_200_LN_11_LD_20_RN_3_RD_4_1.png","I_Dist_200_LN_14_LD_30_RN_12_RD_18_1.png","I_Dist_200_LN_14_LD_30_RN_6_RD_9_1.png","I_Dist_200_LN_3_LD_10_RN_1_RD_2_1.png","I_Dist_200_LN_4_LD_30_RN_1_RD_3_1.png","I_Dist_200_LN_6_LD_20_RN_3_RD_6_1.png","I_Dist_200_LN_7_LD_15_RN_4_RD_6_1.png","I_Dist_200_LN_7_LD_15_RN_6_RD_9_1.png","I_Dist_200_LN_9_LD_15_RN_8_RD_10_1.png"]],"dist200_S":[["E_Dist_200_LN_3_LD_6_RN_3_RD_10_0.png"],["E_Dist_200_LN_3_LD_10_RN_3_RD_6_1.png"]],"dist300_C":[["C_Dist_300_LN_11_LD_22_RN_1_RD_5_0.png","C_Dist_300_LN_11_LD_22_RN_2_RD_10_0.png","C_Dist_300_LN_11_LD_22_RN_4_RD_20_0.png","C_Dist_300_LN_12_LD_24_RN_2_RD_10_0.png","C_Dist_300_LN_18_LD_20_RN_9_RD_15_0.png","C_Dist_300_LN_20_LD_25_RN_13_RD_26_0.png","C_Dist_300_LN_20_LD_25_RN_14_RD_28_0.png","C_Dist_300_LN_20_LD_25_RN_5_RD_10_0.png","C_Dist_300_LN_20_LD_25_RN_8_RD_16_0.png","C_Dist_300_LN_20_LD_25_RN_9_RD_18_0.png","C_Dist_300_LN_24_LD_30_RN_2_RD_4_0.png","C_Dist_300_LN_24_LD_30_RN_8_RD_16_0.png","C_Dist_300_LN_3_LD_6_RN_2_RD_10_0.png","C_Dist_300_LN_4_LD_10_RN_1_RD_10_0.png","C_Dist_300_LN_4_LD_5_RN_2_RD_4_0.png","C_Dist_300_LN_8_LD_16_RN_1_RD_5_0.png","C_Dist_300_LN_9_LD_10_RN_3_RD_5_0.png"],["C_Dist_300_LN_1_LD_20_RN_7_RD_20_1.png","C_Dist_300_LN_1_LD_3_RN_19_RD_30_1.png","C_Dist_300_LN_1_LD_30_RN_8_RD_24_1.png","C_Dist_300_LN_1_LD_5_RN_11_RD_22_1.png","C_Dist_300_LN_1_LD_5_RN_3_RD_6_1.png","C_Dist_300_LN_1_LD_5_RN_6_RD_12_1.png","C_Dist_300_LN_2_LD_10_RN_12_RD_24_1.png","C_Dist_300_LN_2_LD_20_RN_10_RD_25_1.png","C_Dist_300_LN_3_LD_12_RN_11_RD_20_1.png","C_Dist_300_LN_3_LD_6_RN_4_RD_5_1.png","C_Dist_300_LN_4_LD_20_RN_13_RD_26_1.png","C_Dist_300_LN_5_LD_25_RN_6_RD_12_1.png","C_Dist_300_LN_5_LD_25_RN_7_RD_14_1.png","C_Dist_300_LN_7_LD_14_RN_20_RD_25_1.png","C_Dist_300_LN_8_LD_15_RN_10_RD_12_1.png"]],"dist300_I":[["I_Dist_300_LN_1_LD_2_RN_2_RD_10_0.png","I_Dist_300_LN_1_LD_2_RN_3_RD_15_0.png","I_Dist_300_LN_2_LD_4_RN_6_RD_30_0.png","I_Dist_300_LN_3_LD_6_RN_4_RD_20_0.png","I_Dist_300_LN_4_LD_5_RN_6_RD_12_0.png","I_Dist_300_LN_4_LD_5_RN_8_RD_16_0.png","I_Dist_300_LN_7_LD_10_RN_8_RD_20_0.png","I_Dist_300_LN_8_LD_10_RN_14_RD_28_0.png","I_Dist_300_LN_8_LD_10_RN_9_RD_18_0.png"],["I_Dist_300_LN_13_LD_26_RN_12_RD_15_1.png","I_Dist_300_LN_4_LD_20_RN_2_RD_4_1.png"]],"dist300_S":[["E_Dist_300_LN_9_LD_12_RN_9_RD_20_0.png"],["E_Dist_300_LN_18_LD_30_RN_18_RD_20_1.png","E_Dist_300_LN_3_LD_10_RN_3_RD_5_1.png","E_Dist_300_LN_9_LD_20_RN_9_RD_12_1.png"]],"dist500_C":[["C_Dist_500_LN_10_LD_13_RN_7_RD_26_0.png","C_Dist_500_LN_10_LD_15_RN_4_RD_24_0.png","C_Dist_500_LN_12_LD_16_RN_3_RD_12_0.png","C_Dist_500_LN_12_LD_18_RN_4_RD_24_0.png","C_Dist_500_LN_15_LD_18_RN_5_RD_15_0.png","C_Dist_500_LN_15_LD_20_RN_1_RD_4_0.png","C_Dist_500_LN_18_LD_27_RN_1_RD_6_0.png","C_Dist_500_LN_20_LD_24_RN_1_RD_3_0.png","C_Dist_500_LN_20_LD_24_RN_3_RD_9_0.png","C_Dist_500_LN_20_LD_24_RN_7_RD_21_0.png","C_Dist_500_LN_20_LD_28_RN_3_RD_14_0.png","C_Dist_500_LN_21_LD_28_RN_6_RD_24_0.png","C_Dist_500_LN_22_LD_28_RN_2_RD_7_0.png","C_Dist_500_LN_25_LD_30_RN_9_RD_27_0.png","C_Dist_500_LN_4_LD_6_RN_1_RD_6_0.png","C_Dist_500_LN_5_LD_6_RN_2_RD_6_0.png","C_Dist_500_LN_6_LD_9_RN_1_RD_6_0.png","C_Dist_500_LN_7_LD_10_RN_1_RD_5_0.png","C_Dist_500_LN_8_LD_12_RN_1_RD_6_0.png","C_Dist_500_LN_8_LD_12_RN_4_RD_24_0.png"],["C_Dist_500_LN_1_LD_4_RN_12_RD_16_1.png","C_Dist_500_LN_1_LD_4_RN_9_RD_12_1.png","C_Dist_500_LN_1_LD_9_RN_11_RD_18_1.png","C_Dist_500_LN_10_LD_24_RN_22_RD_24_1.png","C_Dist_500_LN_2_LD_12_RN_10_RD_15_1.png","C_Dist_500_LN_2_LD_12_RN_12_RD_18_1.png","C_Dist_500_LN_2_LD_12_RN_4_RD_6_1.png","C_Dist_500_LN_2_LD_24_RN_7_RD_12_1.png","C_Dist_500_LN_2_LD_5_RN_18_RD_20_1.png","C_Dist_500_LN_2_LD_5_RN_9_RD_10_1.png","C_Dist_500_LN_2_LD_8_RN_12_RD_16_1.png","C_Dist_500_LN_2_LD_8_RN_21_RD_28_1.png","C_Dist_500_LN_3_LD_10_RN_4_RD_5_1.png","C_Dist_500_LN_3_LD_12_RN_15_RD_20_1.png","C_Dist_500_LN_3_LD_30_RN_6_RD_10_1.png","C_Dist_500_LN_3_LD_8_RN_14_RD_16_1.png","C_Dist_500_LN_4_LD_16_RN_15_RD_20_1.png","C_Dist_500_LN_4_LD_24_RN_12_RD_18_1.png","C_Dist_500_LN_5_LD_14_RN_6_RD_7_1.png","C_Dist_500_LN_7_LD_21_RN_20_RD_24_1.png","C_Dist_500_LN_7_LD_28_RN_12_RD_16_1.png","C_Dist_500_LN_7_LD_28_RN_9_RD_12_1.png","C_Dist_500_LN_9_LD_27_RN_20_RD_24_1.png"]],"dist500_I":[["I_Dist_500_LN_2_LD_3_RN_4_RD_24_0.png","I_Dist_500_LN_5_LD_6_RN_6_RD_18_0.png","I_Dist_500_LN_7_LD_8_RN_9_RD_24_0.png"],["I_Dist_500_LN_7_LD_21_RN_5_RD_6_1.png"]],"dist500_S":[["E_Dist_500_LN_6_LD_8_RN_6_RD_24_0.png"],["E_Dist_500_LN_2_LD_12_RN_2_RD_3_1.png","E_Dist_500_LN_6_LD_24_RN_6_RD_8_1.png"]]}},{"start_time":1552054794827,"click_time":1552054797034,"finger_time":1552054796156,"fix_duration":250,"trial":1,"RT":1329,"MT":878,"sideResp":2,"stimulus":[],"xmouse":[786,786,786,786,786,786,786,786,786,786,786,786,786,786,786,786,786,786,786,786,786,786,786,786,786,786,786,786,786,786,786,786,786,786,786,786,786,786,786,786,786,786,786,786,786,786,786,786,786,786,786,786,786,786,786,786,786,786,786,786,786,786,791,803,818,838,892,918,937,950,961,971,979,982,988,992,997,1024,1044,1070,1104,1151,1220,1251,1257,1268,1271,1274,1274,1274,1274,1270,1245,1232,1217,1210,1210,1210,1210,1210,1210,1210,1210,1207,1205,1203,1199,1183,1173,1164,1157],"ymouse":[636,636,636,636,636,636,636,636,636,636,636,636,636,636,636,636,636,636,636,636,636,636,636,636,636,636,636,636,636,636,636,636,636,636,636,636,636,636,636,636,636,636,636,636,636,636,636,636,636,636,636,636,636,636,636,636,636,636,636,636,636,636,633,628,621,611,574,556,543,531,521,509,499,492,482,478,473,443,421,386,332,262,142,61,39,0,0,0,0,0,0,1,16,22,28,31,31,31,31,31,31,31,31,32,33,34,37,44,48,50,52],"timestamp_mouse":[14,28,57,68,88,108,128,147,167,189,208,227,248,269,288,307,327,347,369,388,408,428,449,467,488,508,529,549,568,588,607,628,648,667,687,708,728,748,767,788,807,829,849,867,887,908,927,947,968,988,1007,1028,1048,1069,1089,1108,1128,1149,1167,1188,1208,1229,1247,1268,1287,1308,1329,1347,1367,1387,1408,1427,1447,1469,1487,1508,1527,1547,1567,1587,1607,1629,1648,1669,1688,1708,1729,1748,1768,1787,1808,1827,1848,1867,1887,1908,1929,1948,1968,1989,2009,2029,2047,2067,2087,2109,2127,2147,2167,2187,2207],"xSR":741.5,"ySR":573.95,"xT1":424.9,"yT1":0,"xT2":1058.1,"yT2":0,"toosoon":0,"cond_shown":"Incongruent","ratio_trial":300,"L_num":1,"L_den":2,"R_num":2,"R_den":10,"correct_side":1,"subjID":"alissondayanarubianobeltran1","gender":"1","school":"4","age":"9"},{"start_time":1552054800993,"click_time":1552054803435,"finger_time":1552054803074,"fix_duration":736.7841338280089,"trial":2,"RT":2081,"MT":361,"sideResp":1,"stimulus":[],"xmouse":[790,790,790,790,790,790,790,790,790,790,790,790,790,790,790,790,790,790,790,790,790,790,790,790,790,790,790,790,790,790,790,790,790,790,790,790,790,790,790,790,790,790,790,790,790,790,790,790,790,790,790,790,790,790,790,790,790,790,790,790,790,790,790,790,790,790,790,790,790,790,790,790,790,790,790,790,790,790,790,790,790,790,790,790,790,790,790,790,790,790,790,790,789,789,789,789,787,786,785,780,775,769,761,751,726,712,697,689,680,667,661,657,651,648,642,636,630,613,589,550,534,525,518],"ymouse":[620,620,620,620,620,620,620,620,620,620,620,620,620,620,620,620,620,620,620,620,620,620,620,620,620,620,620,620,620,620,620,620,620,620,620,620,620,620,620,620,620,620,620,620,620,620,620,620,620,620,620,620,620,620,620,620,620,620,620,620,620,620,620,620,620,620,620,620,620,620,620,620,620,620,620,620,620,620,620,620,620,620,620,620,620,620,620,620,620,620,620,620,620,620,620,620,619,619,619,616,612,607,599,584,546,522,489,468,448,416,403,393,382,375,364,351,335,301,252,131,77,41,16],"timestamp_mouse":[11,23,43,63,82,102,123,142,161,181,202,223,241,261,282,303,321,342,362,381,401,423,442,461,482,501,522,543,561,583,601,623,641,661,681,702,721,742,763,783,802,821,842,863,882,902,922,942,963,983,1001,1021,1042,1062,1081,1103,1121,1141,1162,1182,1201,1223,1242,1261,1282,1301,1322,1342,1362,1382,1401,1422,1441,1463,1481,1502,1522,1543,1562,1581,1602,1623,1643,1662,1682,1702,1723,1743,1762,1781,1802,1823,1842,1861,1883,1901,1922,1941,1961,1983,2001,2022,2043,2061,2081,2101,2121,2141,2162,2182,2201,2221,2241,2262,2281,2302,2322,2342,2361,2381,2402,2422,2442],"xSR":741.5,"ySR":573.95,"xT1":424.9,"yT1":0,"xT2":1058.1,"yT2":0,"toosoon":0,"cond_shown":"Congruent","ratio_trial":100,"L_num":7,"L_den":14,"R_num":9,"R_den":15,"correct_side":2,"subjID":"alissondayanarubianobeltran1","gender":"1","school":"4","age":"9"},{"start_time":1552054810827,"click_time":1552054814114,"finger_time":1552054812375,"fix_duration":891.1344851428217,"trial":3,"RT":1548,"MT":1739,"sideResp":2,"stimulus":[],"xmouse":[821,821,821,821,821,821,821,821,821,821,821,821,821,821,821,821,821,821,821,821,821,821,821,821,821,821,821,821,821,821,821,821,821,821,821,821,821,821,821,821,821,821,821,821,821,821,821,821,821,821,821,821,821,821,821,821,821,821,821,821,821,821,821,821,821,821,821,821,821,821,821,821,821,821,821,825,833,878,894,896,898,899,899,899,899,899,899,899,899,899,899,899,899,899,899,899,899,899,899,899,899,899,897,881,854,811,783,783,783,783,783,764,750,741,741,741,741,738,734,726,716,706,694,687,676,667,659,650,647,646,644,643,638,638,638,638,640,680,718,771,833,888,976,1002,1027,1042,1061,1104,1129,1148,1164,1172,1177,1177,1177,1177,1177,1177,1177,1177,1177,1177,1171,1162,1149],"ymouse":[643,643,643,643,643,643,643,643,643,643,643,643,643,643,643,643,643,643,643,643,643,643,643,643,643,643,643,643,643,643,643,643,643,643,643,643,643,643,643,643,643,643,643,643,643,643,643,643,643,643,643,643,643,643,643,643,643,643,643,643,643,643,643,643,643,643,643,643,643,643,643,643,643,643,643,640,632,603,594,593,592,591,591,591,591,591,591,591,591,591,591,591,591,591,591,591,591,591,591,591,591,591,593,609,628,654,669,669,666,666,666,665,663,660,660,660,660,656,647,638,628,619,603,586,555,536,518,487,477,466,457,448,434,433,433,433,431,424,419,412,403,394,376,363,342,327,307,254,216,179,146,123,92,85,84,84,84,84,84,83,83,82,78,76,71],"timestamp_mouse":[14,28,47,68,87,108,128,149,168,187,207,228,249,269,287,308,329,349,369,389,408,428,447,469,487,508,528,548,567,588,609,629,648,667,688,708,727,748,767,789,807,828,847,868,888,909,928,947,968,987,1008,1028,1047,1069,1089,1108,1129,1147,1168,1189,1209,1229,1248,1268,1287,1308,1329,1349,1368,1388,1408,1428,1447,1467,1489,1508,1527,1548,1567,1588,1609,1628,1648,1669,1689,1708,1729,1747,1768,1788,1808,1829,1848,1867,1888,1907,1929,1947,1968,1988,2007,2027,2047,2069,2087,2107,2127,2148,2169,2187,2207,2229,2247,2268,2289,2309,2328,2347,2368,2387,2408,2428,2447,2467,2487,2508,2528,2548,2568,2587,2607,2627,2647,2667,2687,2707,2727,2749,2769,2788,2808,2828,2847,2868,2887,2907,2927,2948,2968,2987,3008,3027,3047,3068,3087,3108,3129,3149,3168,3188,3207,3228,3248,3268,3287],"xSR":741.5,"ySR":573.95,"xT1":424.9,"yT1":0,"xT2":1058.1,"yT2":0,"toosoon":0,"cond_shown":"Congruent","ratio_trial":100,"L_num":3,"L_den":6,"R_num":2,"R_den":5,"correct_side":1,"subjID":"alissondayanarubianobeltran1","gender":"1","school":"4","age":"9"},{"start_time":1552054817769,"click_time":1552054820175,"finger_time":1552054819454,"fix_duration":612.7418399524331,"trial":4,"RT":1685,"MT":721,"sideResp":1,"stimulus":[],"xmouse":[759,759,759,759,759,759,759,759,759,759,759,759,759,759,759,759,759,759,759,759,759,759,759,759,759,759,759,759,759,759,759,759,759,759,759,759,759,759,759,759,759,759,759,759,759,759,759,759,759,759,759,759,759,759,759,759,759,759,759,759,759,759,759,759,759,759,759,759,759,760,769,777,781,784,785,785,785,785,785,785,785,785,785,772,750,704,684,672,669,662,662,662,662,662,662,662,662,662,666,684,649,600,536,457,394,373,373,373,373,373,373,369,368,368,372,377,379,383,390,398,428],"ymouse":[615,615,615,615,615,615,615,615,615,615,615,615,615,615,615,615,615,615,615,615,615,615,615,615,615,615,615,615,615,615,615,615,615,615,615,615,615,615,615,615,615,615,615,615,615,615,615,615,615,615,615,615,615,615,615,615,615,615,615,615,615,615,615,615,615,615,615,615,615,614,605,596,592,590,589,589,589,589,589,589,589,587,584,576,565,536,522,512,508,496,496,496,496,496,496,496,496,490,467,353,49,0,0,0,0,0,0,0,0,0,1,22,44,66,81,87,87,87,86,80,61],"timestamp_mouse":[27,40,47,65,85,106,125,145,166,187,206,225,246,265,286,305,327,346,366,386,407,426,445,467,485,506,525,545,567,586,606,626,646,667,687,707,726,745,766,785,807,827,845,866,887,906,927,946,965,986,1006,1027,1045,1066,1085,1106,1127,1147,1167,1186,1206,1227,1247,1265,1286,1306,1327,1346,1365,1386,1406,1425,1446,1465,1486,1507,1527,1545,1566,1585,1606,1626,1646,1665,1685,1705,1727,1746,1766,1786,1806,1827,1846,1867,1886,1905,1926,1945,1966,1985,2005,2025,2046,2066,2086,2106,2126,2146,2166,2187,2206,2227,2245,2266,2286,2306,2326,2346,2366,2385,2405],"xSR":741.5,"ySR":573.95,"xT1":424.9,"yT1":0,"xT2":1058.1,"yT2":0,"toosoon":0,"cond_shown":"Incongruent","ratio_trial":200,"L_num":4,"L_den":5,"R_num":6,"R_den":10,"correct_side":1,"subjID":"alissondayanarubianobeltran1","gender":"1","school":"4","age":"9"},{"start_time":1552054822670,"click_time":1552054824595,"finger_time":1552054824174,"fix_duration":1394.4017539404529,"trial":5,"RT":1504,"MT":421,"sideResp":1,"stimulus":[],"xmouse":[785,785,785,785,785,785,785,785,785,785,785,785,785,785,785,785,785,785,785,785,785,785,785,785,785,785,785,785,785,785,785,785,785,785,785,785,785,785,785,785,785,785,785,785,785,785,785,785,785,785,785,785,785,785,785,785,785,785,785,785,785,785,785,785,785,785,785,785,785,785,785,785,786,780,759,686,640,596,577,565,559,559,559,559,559,559,559,559,559,561,561,561,561,538,509,455,451],"ymouse":[666,666,666,666,666,666,666,666,666,666,666,666,666,666,666,666,666,666,666,666,666,666,666,666,666,666,666,666,666,666,666,666,666,666,666,666,666,666,666,666,666,666,666,666,666,666,666,666,666,666,666,666,666,666,666,666,666,666,666,666,666,666,666,666,666,666,666,666,666,666,666,666,666,644,593,465,397,330,297,272,247,239,235,224,216,195,187,178,170,158,153,150,149,137,125,100,99],"timestamp_mouse":[14,40,45,66,85,105,126,144,164,184,205,224,244,264,284,304,324,346,364,386,404,424,444,465,484,506,524,544,565,584,604,626,645,665,684,706,725,744,764,786,805,824,844,865,886,905,925,944,965,984,1005,1025,1044,1066,1085,1105,1124,1144,1165,1184,1205,1226,1245,1266,1286,1305,1324,1344,1365,1385,1405,1426,1444,1464,1484,1504,1524,1545,1564,1584,1604,1624,1644,1664,1684,1705,1724,1744,1764,1786,1805,1825,1845,1865,1884,1904,1925],"xSR":741.5,"ySR":573.95,"xT1":424.9,"yT1":0,"xT2":1058.1,"yT2":0,"toosoon":0,"cond_shown":"Congruent","ratio_trial":300,"L_num":18,"L_den":20,"R_num":9,"R_den":15,"correct_side":1,"subjID":"alissondayanarubianobeltran1","gender":"1","school":"4","age":"9"},{"start_time":1552054826607,"click_time":1552054828756,"finger_time":1552054828534,"fix_duration":931.250293411704,"trial":6,"RT":1927,"MT":222,"sideResp":2,"stimulus":[],"xmouse":[769,769,769,769,769,769,769,769,769,769,769,769,769,769,769,769,769,769,769,769,769,769,769,769,769,769,769,769,769,769,769,769,769,769,769,769,769,769,769,769,769,769,769,769,769,769,769,769,769,769,769,769,769,769,769,769,769,769,769,769,769,769,769,769,769,769,769,769,769,769,769,769,769,769,768,768,768,768,768,768,768,768,768,768,768,768,768,768,768,768,768,768,768,768,768,774,818,892,1037,1096,1120,1132,1142,1142,1142,1142,1144,1147],"ymouse":[605,605,605,605,605,605,605,605,605,605,605,605,605,605,605,605,605,605,605,605,605,605,605,605,605,605,605,605,605,605,605,605,605,605,605,605,605,605,605,605,605,605,605,605,605,605,605,605,605,605,605,605,605,605,605,605,605,605,605,605,605,605,605,605,605,605,605,605,605,605,605,605,606,607,608,608,608,608,608,608,608,608,608,608,608,608,608,608,608,608,608,608,608,608,608,606,572,521,430,394,373,351,277,231,189,162,128,95],"timestamp_mouse":[16,39,48,67,88,107,127,149,167,188,208,228,247,268,289,309,327,348,369,388,408,428,448,467,488,509,528,548,568,587,609,629,648,667,688,709,729,749,767,788,808,827,848,868,889,907,928,947,968,989,1008,1027,1049,1067,1088,1108,1129,1148,1168,1188,1207,1229,1247,1268,1289,1308,1327,1348,1369,1388,1407,1428,1448,1468,1488,1507,1527,1547,1569,1589,1609,1627,1649,1667,1688,1707,1727,1747,1768,1788,1808,1827,1847,1867,1889,1907,1927,1948,1968,1988,2007,2027,2049,2067,2088,2108,2128,2149],"xSR":741.5,"ySR":573.95,"xT1":424.9,"yT1":0,"xT2":1058.1,"yT2":0,"toosoon":0,"cond_shown":"Congruent","ratio_trial":300,"L_num":1,"L_den":20,"R_num":7,"R_den":20,"correct_side":2,"subjID":"alissondayanarubianobeltran1","gender":"1","school":"4","age":"9"},{"start_time":1552054830884,"click_time":1552054832815,"finger_time":1552054832354,"fix_duration":828.6666859432185,"trial":7,"RT":1470,"MT":461,"sideResp":2,"stimulus":[],"xmouse":[814,814,814,814,814,814,814,814,814,814,814,814,814,814,814,814,814,814,814,814,814,814,814,814,814,814,814,814,814,814,814,814,814,814,814,814,814,814,814,814,814,814,814,814,814,814,814,814,814,814,814,814,814,814,814,814,814,814,814,814,814,814,814,814,814,814,814,814,814,814,814,813,829,847,900,921,930,936,940,945,951,966,989,1031,1044,1053,1056,1056,1056,1056,1057,1063,1067,1071,1074,1074,1079],"ymouse":[639,639,639,639,639,639,639,639,639,639,639,639,639,639,639,639,639,639,639,639,639,639,639,639,639,639,639,639,639,639,639,639,639,639,639,639,639,639,639,639,639,639,639,639,639,639,639,639,639,639,639,639,639,639,639,639,639,639,639,639,639,639,639,639,639,639,639,639,639,639,639,635,618,591,507,468,442,414,390,347,319,260,191,69,37,18,9,8,8,7,6,0,0,0,0,0,2],"timestamp_mouse":[13,36,51,71,91,110,132,150,170,190,212,231,251,270,291,311,332,350,371,391,410,432,450,470,492,511,532,550,571,591,611,630,651,672,692,711,730,751,770,791,811,831,850,871,891,912,931,950,972,991,1012,1030,1052,1070,1092,1112,1131,1152,1170,1190,1210,1231,1250,1270,1291,1311,1332,1350,1372,1392,1411,1432,1451,1470,1492,1511,1532,1550,1570,1590,1610,1630,1651,1672,1690,1710,1730,1750,1772,1791,1810,1832,1852,1872,1892,1911,1931],"xSR":741.5,"ySR":573.95,"xT1":424.9,"yT1":0,"xT2":1058.1,"yT2":0,"toosoon":0,"cond_shown":"Congruent","ratio_trial":100,"L_num":3,"L_den":20,"R_num":4,"R_den":16,"correct_side":2,"subjID":"alissondayanarubianobeltran1","gender":"1","school":"4","age":"9"},{"start_time":1552054834587,"click_time":1552054837695,"finger_time":1552054836034,"fix_duration":250,"trial":8,"RT":1447,"MT":1661,"sideResp":1,"stimulus":[],"xmouse":[810,810,810,810,810,810,810,810,810,810,810,810,810,810,810,810,810,810,810,810,810,810,810,810,810,810,810,810,810,810,810,810,810,810,810,810,810,810,810,810,810,810,810,810,810,810,810,810,810,810,810,810,810,810,810,810,810,810,810,810,810,810,810,810,810,810,810,810,810,810,812,820,847,893,992,1026,1030,1030,1032,1036,1039,1046,1053,1057,1070,1075,1077,1078,1080,1082,1084,1087,1091,1093,1095,1095,1095,1095,1095,1095,1095,1095,1095,1095,1096,1096,1096,1096,1096,1096,1096,1096,1096,1096,1094,1093,1092,1091,1089,1071,1049,1032,1014,994,928,877,834,795,763,710,697,690,687,673,662,650,638,619,608,586,573,560,548,539,538,538,537,537,537,537,535,533,531,530,527,521],"ymouse":[641,641,641,641,641,641,641,641,641,641,641,641,641,641,641,641,641,641,641,641,641,641,641,641,641,641,641,641,641,641,641,641,641,641,641,641,641,641,641,641,641,641,641,641,641,641,641,641,641,641,641,641,641,641,641,641,641,641,641,641,641,641,641,641,641,641,641,641,641,641,639,634,613,572,449,355,326,306,286,243,225,207,193,180,147,137,129,124,119,114,112,108,104,103,102,102,102,102,102,102,102,102,102,102,101,101,101,101,101,101,101,101,101,102,103,104,105,105,106,113,122,127,136,142,160,167,173,178,182,191,194,194,194,191,188,184,179,170,165,152,147,139,133,128,127,126,123,121,119,112,105,99,91,86,82,82],"timestamp_mouse":[13,36,49,68,88,107,127,148,169,189,209,227,248,267,288,308,328,348,369,388,409,428,447,468,488,509,528,547,567,588,608,628,648,668,689,708,728,747,769,787,807,828,847,868,889,909,928,948,967,988,1008,1028,1048,1068,1087,1108,1127,1147,1167,1189,1207,1228,1248,1267,1288,1308,1327,1348,1369,1389,1407,1428,1447,1467,1487,1508,1527,1547,1567,1588,1608,1629,1648,1667,1687,1708,1728,1748,1767,1787,1808,1827,1847,1868,1888,1908,1927,1948,1969,1988,2008,2029,2049,2067,2087,2108,2129,2148,2168,2188,2207,2228,2248,2268,2287,2307,2328,2347,2367,2387,2409,2428,2447,2468,2487,2508,2527,2547,2568,2589,2608,2628,2647,2668,2687,2708,2728,2747,2767,2788,2808,2828,2847,2869,2887,2908,2927,2947,2967,2988,3008,3028,3047,3067,3088,3108],"xSR":741.5,"ySR":573.95,"xT1":424.9,"yT1":0,"xT2":1058.1,"yT2":0,"toosoon":0,"cond_shown":"Incongruent","ratio_trial":200,"L_num":7,"L_den":10,"R_num":14,"R_den":28,"correct_side":1,"subjID":"alissondayanarubianobeltran1","gender":"1","school":"4","age":"9"},{"start_time":1552054840467,"click_time":1552054843235,"finger_time":1552054841875,"fix_duration":250,"trial":9,"RT":1408,"MT":1360,"sideResp":1,"stimulus":[],"xmouse":[806,806,806,806,806,806,806,806,806,806,806,806,806,806,806,806,806,806,806,806,806,806,806,806,806,806,806,806,806,806,806,806,806,806,806,806,806,806,806,806,806,806,806,806,806,806,806,806,806,806,806,806,806,806,806,806,806,806,806,806,806,807,806,805,800,789,779,767,756,743,717,700,672,650,619,528,478,419,373,331,268,244,238,236,236,239,242,244,244,244,244,245,251,256,263,281,289,293,296,298,301,304,305,308,313,315,317,320,324,327,336,342,352,356,363,364,366,368,368,369,372,374,378,380,385,391,392,395,396,399,404,408,413,415,416,420,422,424,425],"ymouse":[637,637,637,637,637,637,637,637,637,637,637,637,637,637,637,637,637,637,637,637,637,637,637,637,637,637,637,637,637,637,637,637,637,637,637,637,637,637,637,637,637,637,637,637,637,637,637,637,637,637,637,637,637,637,637,637,637,637,637,637,637,637,638,638,638,630,620,608,593,577,539,517,487,467,440,362,315,254,195,138,21,0,0,0,0,0,0,0,0,0,0,0,0,0,0,4,6,7,8,9,11,12,12,14,17,19,21,24,27,30,35,39,43,45,50,51,52,53,53,53,55,55,57,58,59,61,62,63,63,63,63,63,64,64,64,64,64,64,64],"timestamp_mouse":[14,39,48,68,88,109,128,149,169,188,208,228,249,267,288,307,327,349,368,388,409,429,448,468,487,507,527,548,568,589,608,627,649,668,687,708,728,749,768,788,808,829,848,869,888,907,928,949,968,989,1008,1028,1048,1067,1089,1107,1128,1148,1167,1187,1209,1228,1248,1267,1288,1308,1329,1348,1367,1388,1408,1428,1448,1468,1487,1508,1527,1547,1567,1587,1608,1627,1647,1667,1688,1708,1728,1748,1768,1788,1807,1827,1847,1867,1887,1907,1928,1947,1967,1988,2007,2028,2047,2068,2089,2107,2129,2149,2169,2188,2208,2227,2248,2267,2288,2307,2327,2348,2368,2387,2407,2428,2447,2468,2488,2508,2527,2548,2567,2587,2607,2628,2648,2668,2688,2707,2727,2747,2768],"xSR":741.5,"ySR":573.95,"xT1":424.9,"yT1":0,"xT2":1058.1,"yT2":0,"toosoon":0,"cond_shown":"Congruent","ratio_trial":200,"L_num":11,"L_den":22,"R_num":3,"R_den":10,"correct_side":1,"subjID":"alissondayanarubianobeltran1","gender":"1","school":"4","age":"9"},{"start_time":1552054845753,"click_time":1552054847575,"finger_time":1552054847194,"fix_duration":976.0735152932737,"trial":10,"RT":1441,"MT":381,"sideResp":1,"stimulus":[],"xmouse":[791,791,791,791,791,791,791,791,791,791,791,791,791,791,791,791,791,791,791,791,791,791,791,791,791,791,791,791,791,791,791,791,791,791,791,791,791,791,791,791,791,791,791,791,791,791,791,791,791,791,791,791,791,791,791,791,789,785,779,772,766,761,761,761,761,761,761,761,760,759,757,752,746,741,734,728,713,701,696,684,676,664,658,649,641,631,605,589,558,536,520,490],"ymouse":[638,638,638,638,638,638,638,638,638,638,638,638,638,638,638,638,638,638,638,638,638,638,638,638,638,638,638,638,638,638,638,638,638,638,638,638,638,638,638,638,638,638,638,638,638,638,638,638,638,638,638,638,638,638,638,638,637,637,636,635,634,633,633,633,633,633,633,633,631,629,620,591,570,550,527,502,453,420,409,381,363,332,319,302,286,269,232,213,183,161,136,92],"timestamp_mouse":[13,35,43,62,81,101,123,142,161,182,202,221,241,262,282,302,322,341,362,383,401,423,441,462,483,502,521,542,562,582,601,623,641,662,682,702,721,742,763,781,801,821,843,861,882,901,922,942,963,983,1001,1022,1041,1061,1081,1101,1121,1142,1161,1181,1201,1222,1241,1262,1281,1303,1321,1341,1362,1382,1401,1421,1441,1461,1481,1501,1521,1542,1562,1582,1601,1621,1642,1662,1682,1701,1721,1741,1761,1782,1801,1821],"xSR":741.5,"ySR":573.95,"xT1":424.9,"yT1":0,"xT2":1058.1,"yT2":0,"toosoon":0,"cond_shown":"Incongruent","ratio_trial":200,"L_num":4,"L_den":5,"R_num":6,"R_den":10,"correct_side":1,"subjID":"alissondayanarubianobeltran1","gender":"1","school":"4","age":"9"},{"start_time":1552054849615,"click_time":1552054851514,"finger_time":1552054850994,"fix_duration":938.7173675696064,"trial":11,"RT":1379,"MT":520,"sideResp":2,"stimulus":[],"xmouse":[812,812,812,815,816,817,817,817,817,817,817,817,817,817,817,817,817,817,817,817,817,817,817,817,817,817,817,817,817,817,817,817,817,817,817,817,818,818,818,818,818,818,818,818,818,818,818,818,818,818,818,818,818,818,818,818,818,818,818,818,818,818,819,820,824,826,834,841,847,856,863,872,888,899,908,919,925,939,947,954,963,971,983,991,1000,1005,1009,1019,1023,1029,1033,1037,1048,1052,1060],"ymouse":[649,649,649,649,649,649,649,649,649,649,649,649,649,649,649,649,649,649,649,649,649,649,649,649,649,649,649,649,649,649,649,649,649,649,649,649,649,649,649,649,649,649,649,649,649,649,649,649,649,649,649,649,649,649,649,649,649,649,649,649,649,649,649,649,640,631,600,581,565,546,529,508,467,443,418,385,363,317,293,274,253,235,204,191,172,160,152,135,130,120,111,104,88,80,65],"timestamp_mouse":[30,49,59,80,99,120,139,161,180,200,219,239,259,279,301,319,340,360,380,400,420,440,459,479,500,521,539,559,581,601,620,639,659,681,701,720,739,759,780,801,820,841,861,879,900,920,941,960,979,1000,1021,1040,1060,1080,1100,1120,1139,1159,1179,1200,1220,1240,1259,1280,1300,1320,1341,1360,1379,1400,1421,1439,1460,1480,1500,1520,1541,1559,1579,1599,1619,1640,1659,1680,1699,1720,1740,1760,1780,1800,1820,1840,1860,1880,1899],"xSR":741.5,"ySR":573.95,"xT1":424.9,"yT1":0,"xT2":1058.1,"yT2":0,"toosoon":0,"cond_shown":"Congruent","ratio_trial":200,"L_num":7,"L_den":15,"R_num":18,"R_den":27,"correct_side":2,"subjID":"alissondayanarubianobeltran1","gender":"1","school":"4","age":"9"},{"start_time":1552054853686,"click_time":1552054855253,"finger_time":1552054854695,"fix_duration":1031.6728437520273,"trial":12,"RT":1009,"MT":558,"sideResp":1,"stimulus":[],"xmouse":[760,760,760,760,760,760,760,760,760,760,760,760,760,760,760,760,760,760,760,760,760,760,760,760,760,760,760,760,760,760,760,760,760,760,760,760,760,760,760,760,760,760,760,760,760,766,773,775,768,744,728,723,704,677,661,649,631,618,609,593,588,586,584,582,582,581,580,577,572,546,527,504,500,500,500,499,499,498,498],"ymouse":[627,627,627,627,627,627,627,627,627,627,627,627,627,627,627,627,627,627,627,627,627,627,627,627,627,627,627,627,627,627,627,627,627,627,627,627,627,627,627,627,627,627,627,627,627,628,628,626,618,588,549,535,467,357,300,239,182,138,103,49,14,5,0,0,0,0,0,6,20,65,85,100,101,101,101,101,101,100,97],"timestamp_mouse":[14,37,49,68,88,109,128,149,168,188,209,228,250,270,290,310,329,348,368,388,410,429,449,468,489,509,528,549,569,588,608,629,648,668,688,709,730,749,770,790,810,829,849,870,890,908,929,948,969,988,1009,1028,1048,1069,1089,1108,1128,1149,1168,1188,1209,1229,1249,1270,1290,1308,1327,1347,1366,1387,1407,1427,1448,1468,1487,1507,1528,1548,1567],"xSR":741.5,"ySR":573.95,"xT1":424.9,"yT1":0,"xT2":1058.1,"yT2":0,"toosoon":0,"cond_shown":"Congruent","ratio_trial":300,"L_num":20,"L_den":25,"R_num":13,"R_den":26,"correct_side":1,"subjID":"alissondayanarubianobeltran1","gender":"1","school":"4","age":"9"},{"start_time":1552054857746,"click_time":1552054859074,"finger_time":1552054858673,"fix_duration":1450.7835934026325,"trial":13,"RT":927,"MT":401,"sideResp":2,"stimulus":[],"xmouse":[784,784,784,784,784,784,784,784,784,784,784,784,784,784,784,784,784,784,784,784,784,784,784,784,784,784,784,784,784,784,784,784,784,784,784,784,784,784,784,784,784,784,784,786,791,809,824,845,861,873,901,915,927,940,952,971,985,994,1006,1020,1044,1049,1055,1056,1057,1059],"ymouse":[591,591,591,591,591,591,591,591,591,591,591,591,591,591,591,591,591,591,591,591,591,591,591,591,591,591,591,591,591,591,591,591,591,591,591,591,591,591,591,591,591,591,591,587,581,561,544,513,485,464,415,391,369,348,327,289,258,236,219,196,151,134,118,109,104,99],"timestamp_mouse":[27,46,68,88,106,128,148,168,188,207,228,247,267,288,307,328,348,368,387,407,428,447,468,487,508,528,548,567,588,607,627,647,668,688,707,727,747,767,788,808,828,846,868,887,907,927,947,967,986,1006,1027,1047,1068,1087,1108,1128,1147,1167,1186,1208,1228,1247,1268,1288,1307,1328],"xSR":741.5,"ySR":573.95,"xT1":424.9,"yT1":0,"xT2":1058.1,"yT2":0,"toosoon":0,"cond_shown":"Incongruent","ratio_trial":300,"L_num":1,"L_den":2,"R_num":3,"R_den":15,"correct_side":1,"subjID":"alissondayanarubianobeltran1","gender":"1","school":"4","age":"9"},{"start_time":1552054862644,"click_time":1552054864413,"finger_time":1552054864053,"fix_duration":250,"trial":14,"RT":1409,"MT":360,"sideResp":2,"stimulus":[],"xmouse":[772,772,772,772,772,772,776,781,788,793,796,800,800,800,800,800,800,800,800,800,800,800,800,800,800,800,800,800,800,800,800,800,800,800,800,800,800,800,800,800,800,800,800,800,800,800,800,800,800,800,800,800,800,800,800,800,800,800,800,800,800,800,800,800,800,800,800,800,802,812,826,872,921,940,980,1022,1041,1056,1064,1074,1078,1082,1084,1085,1086,1087,1087,1087,1087],"ymouse":[666,666,666,666,666,666,665,657,645,635,622,601,600,599,599,599,599,599,599,599,599,599,599,599,599,599,599,599,599,599,599,599,599,599,599,599,599,599,599,599,599,599,599,599,599,599,599,599,599,599,599,599,599,599,599,599,599,599,599,599,599,599,599,599,599,599,598,598,595,584,567,509,443,418,354,272,238,210,188,167,150,124,118,113,109,105,102,101,99],"timestamp_mouse":[14,41,49,70,90,109,130,150,169,189,209,228,249,269,289,309,330,349,369,390,410,430,450,469,489,509,530,549,569,589,608,628,650,670,689,710,729,750,770,789,809,830,849,870,890,910,928,950,969,989,1010,1028,1050,1070,1089,1110,1130,1149,1170,1190,1209,1230,1250,1270,1290,1309,1329,1349,1370,1389,1409,1429,1450,1469,1489,1511,1530,1549,1569,1589,1610,1629,1649,1669,1689,1711,1728,1749,1769],"xSR":741.5,"ySR":573.95,"xT1":424.9,"yT1":0,"xT2":1058.1,"yT2":0,"toosoon":0,"cond_shown":"Congruent","ratio_trial":300,"L_num":2,"L_den":20,"R_num":10,"R_den":25,"correct_side":2,"subjID":"alissondayanarubianobeltran1","gender":"1","school":"4","age":"9"},{"start_time":1552054866722,"click_time":1552054867753,"finger_time":1552054867214,"fix_duration":906.2592295575694,"trial":15,"RT":492,"MT":539,"sideResp":2,"stimulus":[],"xmouse":[807,807,807,807,807,807,807,807,807,807,807,807,807,807,807,807,807,807,807,807,807,809,818,824,831,839,860,870,882,895,910,917,938,947,956,965,972,985,991,996,998,1000,1000,1000,1002,1006,1013,1027,1036,1045,1053,1061],"ymouse":[660,660,660,660,660,660,660,660,660,660,660,660,660,660,660,660,660,660,660,657,653,645,614,592,567,537,467,432,391,347,288,246,162,136,110,89,75,45,32,18,15,11,11,11,11,11,12,16,20,23,26,29],"timestamp_mouse":[14,39,51,71,91,112,132,151,171,190,212,232,252,271,292,311,331,352,372,392,411,431,451,471,492,511,532,551,571,591,612,631,651,672,691,711,732,751,771,791,811,832,851,871,891,912,931,950,972,991,1012,1031],"xSR":741.5,"ySR":573.95,"xT1":424.9,"yT1":0,"xT2":1058.1,"yT2":0,"toosoon":0,"cond_shown":"Congruent","ratio_trial":200,"L_num":1,"L_den":2,"R_num":21,"R_den":30,"correct_side":2,"subjID":"alissondayanarubianobeltran1","gender":"1","school":"4","age":"9"},{"start_time":1552054869100,"click_time":1552054870113,"finger_time":1552054869873,"fix_duration":446.7420882258926,"trial":16,"RT":773,"MT":240,"sideResp":2,"stimulus":[],"xmouse":[779,779,779,779,779,779,779,779,779,779,779,779,779,779,779,779,779,779,779,779,779,779,779,779,779,779,779,779,779,779,779,779,780,782,782,785,788,799,805,814,825,834,845,868,886,907,933,987,1017,1043,1077],"ymouse":[627,627,627,627,627,627,627,627,627,627,627,627,627,627,627,627,627,627,627,627,627,627,627,625,625,624,624,624,624,623,623,621,619,614,610,605,596,575,559,542,514,494,473,422,388,348,305,212,169,130,83],"timestamp_mouse":[15,35,54,74,94,114,133,154,174,193,214,233,252,273,294,313,333,353,373,393,413,433,453,474,493,513,534,553,574,593,613,633,653,674,694,714,733,754,773,793,813,833,852,874,893,913,933,954,972,993,1013],"xSR":741.5,"ySR":573.95,"xT1":424.9,"yT1":0,"xT2":1058.1,"yT2":0,"toosoon":0,"cond_shown":"Incongruent","ratio_trial":300,"L_num":8,"L_den":10,"R_num":9,"R_den":18,"correct_side":1,"subjID":"alissondayanarubianobeltran1","gender":"1","school":"4","age":"9"},{"start_time":1552054877179,"click_time":1552054878734,"finger_time":1552054878413,"fix_duration":524.2870340530927,"trial":17,"RT":1234,"MT":321,"sideResp":2,"stimulus":[],"xmouse":[785,785,785,785,785,785,785,785,785,785,785,785,785,785,785,785,785,785,785,785,785,785,785,785,785,785,785,785,785,785,785,785,785,785,785,785,785,785,785,785,785,785,785,785,785,785,785,785,785,785,785,785,785,785,785,785,785,785,785,785,801,824,840,845,865,873,880,892,909,962,989,1007,1022,1035,1047,1051,1056,1060],"ymouse":[627,627,627,627,627,627,627,627,627,627,627,627,627,627,627,627,627,627,627,627,627,627,627,627,627,627,627,627,627,627,627,627,627,627,627,627,627,627,627,627,627,627,627,627,627,627,627,627,627,627,627,627,627,627,627,627,627,627,627,627,599,562,529,503,429,375,333,294,256,186,161,142,125,109,87,81,73,68],"timestamp_mouse":[15,36,54,74,94,114,134,154,175,194,214,234,254,274,295,314,334,353,375,394,415,433,455,475,494,514,535,554,575,594,614,635,655,674,695,713,735,755,774,795,815,833,855,874,895,915,934,955,975,995,1014,1035,1056,1075,1095,1114,1135,1155,1174,1195,1214,1234,1254,1274,1294,1314,1334,1355,1375,1394,1415,1435,1454,1475,1494,1514,1534,1555],"xSR":741.5,"ySR":573.95,"xT1":424.9,"yT1":0,"xT2":1058.1,"yT2":0,"toosoon":0,"cond_shown":"Congruent","ratio_trial":200,"L_num":3,"L_den":12,"R_num":9,"R_den":20,"correct_side":2,"subjID":"alissondayanarubianobeltran1","gender":"1","school":"4","age":"9"},{"start_time":1552054883671,"click_time":1552054885353,"finger_time":1552054884472,"fix_duration":1394.3029549064647,"trial":18,"RT":801,"MT":881,"sideResp":2,"stimulus":[],"xmouse":[807,807,807,807,807,807,807,807,807,807,807,807,807,807,807,807,807,807,807,807,807,808,808,808,808,808,808,808,808,808,808,808,808,808,808,808,808,808,808,804,799,793,783,771,767,765,767,775,785,798,816,831,838,857,872,903,916,929,946,972,983,996,1003,1008,1014,1023,1032,1033,1036,1036,1036,1036,1036,1036,1036,1036,1036,1036,1036,1036,1036,1041,1047,1056,1070],"ymouse":[639,639,639,639,639,639,639,639,639,639,639,639,639,639,638,635,632,627,620,614,604,602,602,602,602,602,602,602,602,602,602,602,602,602,602,602,602,602,598,586,570,555,534,503,484,448,427,405,385,363,321,294,287,263,247,212,197,176,153,111,90,63,46,34,22,8,0,0,0,0,0,0,0,0,0,0,0,0,0,0,0,3,8,16,28],"timestamp_mouse":[13,35,43,62,83,103,123,142,162,183,203,223,242,261,282,303,322,342,362,382,402,421,443,463,483,503,523,543,563,583,603,621,643,663,682,703,723,743,762,784,801,822,842,862,882,902,922,943,962,981,1002,1023,1042,1062,1082,1103,1123,1143,1163,1183,1202,1222,1242,1262,1282,1303,1322,1342,1363,1383,1403,1422,1441,1461,1483,1502,1522,1542,1563,1583,1602,1623,1643,1662,1682],"xSR":741.5,"ySR":573.95,"xT1":424.9,"yT1":0,"xT2":1058.1,"yT2":0,"toosoon":0,"cond_shown":"Congruent","ratio_trial":300,"L_num":9,"L_den":10,"R_num":3,"R_den":5,"correct_side":1,"subjID":"alissondayanarubianobeltran1","gender":"1","school":"4","age":"9"},{"start_time":1552054888288,"click_time":1552054890033,"finger_time":1552054889254,"fix_duration":1032.233589323966,"trial":19,"RT":966,"MT":779,"sideResp":2,"stimulus":[],"xmouse":[797,797,797,797,797,797,797,797,797,797,797,797,797,797,797,797,797,797,797,799,798,793,791,790,790,790,790,790,791,798,810,812,813,814,817,818,819,820,820,820,820,820,820,824,824,824,823,822,821,818,815,815,809,802,800,799,798,797,797,799,803,811,821,838,879,920,969,1012,1039,1051,1038,1029,1027,1025,1019,1019,1018,1013,1006,1002,1006,1011,1013,1016,1025,1036,1048,1064],"ymouse":[622,622,622,621,621,621,621,621,621,621,621,621,621,621,621,621,621,621,621,620,620,620,620,620,620,620,620,619,618,614,609,608,608,608,604,601,598,597,596,596,595,594,592,586,585,582,580,577,573,566,561,558,543,523,518,516,514,513,510,480,461,432,410,387,320,255,182,102,8,0,0,0,0,0,0,0,0,11,31,67,80,88,88,88,87,85,83,78],"timestamp_mouse":[17,29,48,65,85,105,126,145,165,185,206,226,245,265,286,306,325,346,366,385,405,426,444,466,486,506,526,545,566,585,605,625,644,665,685,706,726,745,766,785,806,825,845,866,885,905,924,945,966,985,1005,1025,1044,1067,1085,1105,1125,1145,1165,1185,1205,1225,1245,1266,1285,1305,1325,1346,1365,1385,1405,1426,1446,1465,1485,1506,1525,1545,1565,1584,1606,1626,1645,1667,1685,1706,1726,1745],"xSR":741.5,"ySR":573.95,"xT1":424.9,"yT1":0,"xT2":1058.1,"yT2":0,"toosoon":0,"cond_shown":"Congruent","ratio_trial":200,"L_num":3,"L_den":10,"R_num":7,"R_den":14,"correct_side":2,"subjID":"alissondayanarubianobeltran1","gender":"1","school":"4","age":"9"},{"start_time":1552054892610,"click_time":1552054895273,"finger_time":1552054893692,"fix_duration":395.12105940537435,"trial":20,"RT":1082,"MT":1581,"sideResp":2,"stimulus":[],"xmouse":[823,823,823,823,823,823,823,823,823,823,823,823,823,823,823,823,823,823,823,823,823,823,823,823,823,823,823,823,823,823,823,823,823,823,823,823,823,823,823,823,823,823,823,823,823,823,823,823,823,826,828,830,833,838,842,852,860,880,890,898,908,919,931,964,971,991,1002,1028,1040,1052,1061,1073,1088,1094,1099,1106,1113,1120,1121,1123,1124,1124,1125,1125,1125,1125,1125,1125,1125,1125,1125,1125,1125,1125,1125,1125,1125,1125,1125,1125,1125,1125,1125,1125,1125,1125,1125,1125,1125,1125,1125,1125,1125,1125,1125,1125,1125,1125,1125,1125,1125,1125,1125,1125,1125,1125,1125,1125,1125,1125,1125,1125,1125,1125],"ymouse":[661,661,661,661,661,661,661,661,661,661,661,661,661,661,661,661,661,661,661,661,661,661,661,661,661,661,661,661,661,661,661,661,661,661,661,661,661,661,661,661,661,661,661,661,661,661,661,660,653,647,642,637,632,621,613,594,577,533,511,488,461,437,410,348,335,304,285,247,233,215,203,186,166,155,147,136,129,118,116,111,109,109,107,107,107,107,107,107,107,107,106,106,105,105,105,105,105,105,105,105,105,105,105,105,105,105,104,103,103,103,103,103,103,103,103,103,103,103,103,103,103,103,103,103,103,103,103,103,103,103,103,103,102,98],"timestamp_mouse":[14,23,43,64,83,104,122,143,163,184,204,222,244,262,283,304,323,343,362,383,403,423,444,464,483,504,524,544,563,584,604,624,643,662,683,703,723,743,763,783,803,823,843,863,883,904,923,943,963,984,1003,1024,1043,1063,1082,1103,1123,1144,1162,1183,1204,1224,1243,1263,1283,1303,1323,1344,1363,1384,1403,1423,1445,1463,1483,1503,1524,1544,1563,1583,1604,1623,1644,1664,1683,1703,1724,1744,1764,1784,1803,1823,1844,1864,1884,1903,1923,1944,1962,1983,2003,2024,2043,2063,2083,2103,2124,2144,2163,2184,2203,2224,2244,2263,2283,2303,2323,2344,2363,2383,2404,2423,2443,2463,2483,2503,2523,2542,2564,2584,2604,2624,2643,2663],"xSR":741.5,"ySR":573.95,"xT1":424.9,"yT1":0,"xT2":1058.1,"yT2":0,"toosoon":0,"cond_shown":"Incongruent","ratio_trial":300,"L_num":13,"L_den":26,"R_num":12,"R_den":15,"correct_side":2,"subjID":"alissondayanarubianobeltran1","gender":"1","school":"4","age":"9"},{"start_time":1552054898117,"click_time":1552054899013,"finger_time":1552054898873,"fix_duration":1023.4806001492534,"trial":21,"RT":756,"MT":140,"sideResp":2,"stimulus":[],"xmouse":[763,763,763,763,763,763,763,763,763,763,763,763,763,763,763,763,763,763,763,763,763,763,763,763,763,763,763,763,763,763,763,763,763,763,763,764,777,845,883,939,965,1028,1061,1086,1098],"ymouse":[616,616,616,616,616,616,616,616,616,616,616,616,616,616,616,616,616,616,616,616,616,616,616,616,616,616,616,616,616,616,616,616,616,616,616,602,581,457,393,309,266,177,140,114,95],"timestamp_mouse":[16,39,56,76,97,116,137,157,175,197,216,237,256,277,297,316,336,357,375,396,416,436,457,477,497,516,536,556,575,597,617,636,657,677,696,716,736,756,776,795,817,837,856,875,896],"xSR":741.5,"ySR":573.95,"xT1":424.9,"yT1":0,"xT2":1058.1,"yT2":0,"toosoon":0,"cond_shown":"Incongruent","ratio_trial":200,"L_num":9,"L_den":15,"R_num":8,"R_den":10,"correct_side":2,"subjID":"alissondayanarubianobeltran1","gender":"1","school":"4","age":"9"},{"start_time":1552054900617,"click_time":1552054901893,"finger_time":1552054901672,"fix_duration":281.58185477593565,"trial":22,"RT":1055,"MT":221,"sideResp":2,"stimulus":[],"xmouse":[800,800,800,800,800,800,800,800,800,800,800,800,800,800,800,800,802,804,805,805,805,805,805,805,805,805,805,805,805,805,805,805,806,807,808,808,808,808,809,809,809,809,809,809,809,810,811,814,816,817,817,819,828,839,854,873,920,944,978,1013,1044,1067,1095,1104],"ymouse":[622,622,622,622,622,622,622,622,622,622,622,622,622,622,622,622,620,619,618,618,618,618,618,618,618,618,618,618,618,617,616,615,611,608,606,606,606,606,605,605,605,605,605,605,605,604,602,594,589,587,585,583,568,543,521,496,414,376,331,270,212,175,115,89],"timestamp_mouse":[16,35,56,76,95,116,136,156,176,196,217,236,257,276,297,316,337,355,376,397,416,437,457,477,497,516,537,557,576,597,616,636,656,677,696,717,737,756,777,797,817,838,857,877,897,917,936,956,977,996,1017,1036,1055,1076,1095,1117,1137,1156,1175,1197,1217,1236,1255,1276],"xSR":741.5,"ySR":573.95,"xT1":424.9,"yT1":0,"xT2":1058.1,"yT2":0,"toosoon":0,"cond_shown":"Incongruent","ratio_trial":300,"L_num":1,"L_den":2,"R_num":2,"R_den":10,"correct_side":1,"subjID":"alissondayanarubianobeltran1","gender":"1","school":"4","age":"9"},{"start_time":1552054903707,"click_time":1552054904833,"finger_time":1552054904472,"fix_duration":250,"trial":23,"RT":765,"MT":361,"sideResp":2,"stimulus":[],"xmouse":[809,809,809,809,809,809,809,809,809,809,809,809,809,809,809,809,809,809,809,809,809,809,809,809,809,809,809,809,809,809,809,809,809,809,809,809,809,816,838,871,902,933,991,1021,1042,1062,1074,1086,1093,1096,1096,1097,1098,1098,1098,1098,1099],"ymouse":[627,627,627,627,627,627,627,627,627,627,627,627,626,623,620,618,616,616,616,616,616,616,616,616,616,616,616,616,616,616,616,616,616,616,616,615,612,600,569,529,488,439,349,301,253,216,184,163,140,131,125,121,117,108,106,102,98],"timestamp_mouse":[13,39,46,66,86,107,127,146,167,186,206,227,246,265,286,307,327,346,366,387,407,426,446,466,486,506,525,546,567,586,607,627,646,666,687,707,727,746,765,786,806,827,848,866,886,906,926,946,967,987,1007,1026,1046,1066,1086,1106,1126],"xSR":741.5,"ySR":573.95,"xT1":424.9,"yT1":0,"xT2":1058.1,"yT2":0,"toosoon":0,"cond_shown":"Congruent","ratio_trial":200,"L_num":6,"L_den":20,"R_num":11,"R_den":22,"correct_side":2,"subjID":"alissondayanarubianobeltran1","gender":"1","school":"4","age":"9"},{"start_time":1552054906504,"click_time":1552054907754,"finger_time":1552054907353,"fix_duration":648.9698529106558,"trial":24,"RT":849,"MT":401,"sideResp":1,"stimulus":[],"xmouse":[803,803,803,803,803,803,803,803,803,803,803,803,803,803,803,803,803,803,803,803,803,803,803,803,803,803,803,803,803,803,803,803,803,803,803,803,803,803,803,803,801,797,790,772,760,737,720,706,683,665,648,640,638,638,638,638,638,638,631,612,580,538,515],"ymouse":[601,601,601,601,601,601,601,601,601,601,601,601,601,601,601,601,601,601,601,601,601,601,601,601,601,601,601,601,601,601,601,601,601,601,601,601,601,601,601,601,601,584,558,472,395,309,244,198,143,116,88,77,74,74,74,74,73,73,73,73,72,64,61],"timestamp_mouse":[14,35,49,69,90,109,130,150,169,189,209,230,248,270,290,309,329,350,369,390,410,430,448,470,490,509,530,550,569,590,609,629,650,669,689,710,730,750,770,789,810,829,849,869,889,909,929,949,969,989,1010,1030,1050,1069,1089,1109,1129,1149,1169,1189,1210,1229,1250],"xSR":741.5,"ySR":573.95,"xT1":424.9,"yT1":0,"xT2":1058.1,"yT2":0,"toosoon":0,"cond_shown":"Congruent","ratio_trial":200,"L_num":12,"L_den":15,"R_num":6,"R_den":10,"correct_side":1,"subjID":"alissondayanarubianobeltran1","gender":"1","school":"4","age":"9"},{"start_time":1552054910130,"click_time":1552054910893,"finger_time":1552054910773,"fix_duration":1275.5060113220413,"trial":25,"RT":643,"MT":120,"sideResp":2,"stimulus":[],"xmouse":[782,782,782,782,782,782,782,782,782,782,782,782,782,782,782,782,782,782,782,782,782,782,782,782,782,782,782,782,782,782,786,805,886,942,987,1035,1103,1111,1102],"ymouse":[607,607,607,607,607,607,607,607,607,607,607,607,607,607,607,607,607,607,607,607,607,607,607,607,607,607,607,607,607,607,608,599,561,520,470,405,236,145,77],"timestamp_mouse":[13,23,43,64,83,104,123,142,164,184,203,223,243,264,283,303,323,344,363,384,404,423,444,464,484,503,524,544,564,584,603,623,643,664,684,703,725,743,763],"xSR":741.5,"ySR":573.95,"xT1":424.9,"yT1":0,"xT2":1058.1,"yT2":0,"toosoon":0,"cond_shown":"Incongruent","ratio_trial":100,"L_num":9,"L_den":10,"R_num":20,"R_den":25,"correct_side":1,"subjID":"alissondayanarubianobeltran1","gender":"1","school":"4","age":"9"},{"start_time":1552054912734,"click_time":1552054913773,"finger_time":1552054913393,"fix_duration":659.9011625699785,"trial":26,"RT":659,"MT":380,"sideResp":1,"stimulus":[],"xmouse":[773,773,773,773,773,773,773,773,773,773,773,773,773,773,773,773,773,770,769,769,769,769,769,769,769,769,769,769,769,769,769,768,763,755,743,732,699,683,656,620,601,590,581,577,575,572,571,569,568,568,568,558,465],"ymouse":[598,598,598,598,598,598,598,598,598,598,598,598,598,598,598,595,592,582,579,578,578,578,578,578,578,578,578,578,578,578,578,577,574,566,553,533,459,402,315,183,115,75,33,20,13,7,2,0,0,0,0,0,27],"timestamp_mouse":[1,20,39,58,80,100,119,139,160,180,199,219,239,260,280,299,320,339,359,379,399,420,440,459,480,500,520,539,559,579,600,620,639,659,680,699,720,739,759,778,799,819,840,859,879,899,920,939,959,980,999,1019,1039],"xSR":741.5,"ySR":573.95,"xT1":424.9,"yT1":0,"xT2":1058.1,"yT2":0,"toosoon":0,"cond_shown":"Incongruent","ratio_trial":200,"L_num":9,"L_den":15,"R_num":8,"R_den":10,"correct_side":2,"subjID":"alissondayanarubianobeltran1","gender":"1","school":"4","age":"9"},{"start_time":1552054915444,"click_time":1552054917393,"finger_time":1552054916492,"fix_duration":388.7051796082575,"trial":27,"RT":1048,"MT":901,"sideResp":1,"stimulus":[],"xmouse":[800,800,800,800,800,800,800,800,800,800,800,800,800,800,800,800,800,800,800,800,800,800,800,800,800,800,800,800,800,800,800,800,800,800,800,800,800,800,800,800,800,800,800,800,800,800,800,800,800,800,786,756,705,602,541,514,506,506,506,506,506,507,511,516,522,550,570,587,587,579,558,463,434,411,397,388,387,385,377,370,368,369,370,373,377,381,387,390,393,398,407,410,413,417,418,419,424,427],"ymouse":[621,621,621,621,621,621,621,621,621,621,621,621,621,621,621,621,621,621,621,621,621,621,621,621,621,621,621,621,621,621,621,621,621,621,621,621,621,621,621,621,621,621,621,621,621,621,621,621,621,621,611,587,540,458,421,395,380,380,380,380,377,372,363,354,340,292,243,181,116,38,0,0,0,0,0,0,0,0,9,20,41,51,52,57,60,63,64,64,64,64,64,64,64,64,64,64,65,65],"timestamp_mouse":[13,43,47,69,88,107,127,149,169,189,207,227,249,268,289,308,329,347,369,389,409,428,448,469,488,508,528,547,567,589,609,628,649,669,689,708,729,749,769,788,809,827,848,868,887,908,929,948,967,989,1010,1028,1048,1068,1089,1107,1127,1148,1168,1189,1209,1227,1247,1267,1289,1309,1328,1348,1369,1389,1410,1428,1449,1468,1487,1508,1528,1549,1568,1588,1611,1627,1648,1668,1687,1709,1727,1747,1767,1788,1808,1828,1849,1869,1888,1910,1928,1949],"xSR":741.5,"ySR":573.95,"xT1":424.9,"yT1":0,"xT2":1058.1,"yT2":0,"toosoon":0,"cond_shown":"Incongruent","ratio_trial":100,"L_num":3,"L_den":9,"R_num":7,"R_den":30,"correct_side":1,"subjID":"alissondayanarubianobeltran1","gender":"1","school":"4","age":"9"},{"start_time":1552054919557,"click_time":1552054921932,"finger_time":1552054920653,"fix_duration":783.1518738854894,"trial":28,"RT":1096,"MT":1279,"sideResp":1,"stimulus":[],"xmouse":[821,821,821,821,821,821,821,821,821,821,821,821,821,821,821,821,821,821,821,821,821,821,821,821,821,821,821,821,821,821,821,821,821,821,821,821,821,821,821,821,821,820,820,820,820,820,820,820,820,820,820,820,821,831,846,910,917,926,930,936,939,944,950,955,962,976,985,992,998,1005,1007,1008,1009,1010,1011,1014,1016,1018,1018,1019,1020,1020,1020,1020,1020,1020,1020,1019,1015,984,960,929,898,865,797,775,769,763,762,762,761,761,759,751,724,611,555,547,530,522,521,517,516,514,514,518,519,521,522],"ymouse":[630,630,630,630,630,630,630,630,630,630,630,630,630,630,630,630,630,630,630,630,630,630,630,630,630,630,630,630,630,630,630,630,630,630,630,630,630,629,628,624,623,621,621,621,621,621,621,620,619,611,607,603,594,579,562,511,505,496,489,476,469,459,449,440,428,399,375,358,348,335,332,329,326,323,319,311,304,300,297,295,293,293,293,293,292,292,290,289,288,284,284,284,288,306,339,350,355,366,374,377,378,378,378,373,353,285,235,228,200,174,169,160,152,144,126,115,114,104,96],"timestamp_mouse":[16,44,55,76,95,116,136,156,175,195,215,236,256,276,295,316,336,356,376,396,416,434,455,474,496,514,536,555,575,596,616,635,656,674,696,715,736,755,776,796,816,835,856,876,896,916,935,955,976,996,1014,1035,1055,1076,1096,1115,1134,1155,1175,1196,1215,1235,1255,1274,1294,1315,1336,1355,1376,1396,1415,1434,1455,1475,1495,1514,1535,1555,1576,1594,1614,1635,1656,1676,1696,1715,1734,1754,1775,1796,1815,1835,1855,1874,1896,1915,1935,1954,1974,1996,2016,2035,2055,2074,2095,2115,2135,2155,2176,2196,2215,2236,2255,2276,2295,2314,2335,2355,2375],"xSR":741.5,"ySR":573.95,"xT1":424.9,"yT1":0,"xT2":1058.1,"yT2":0,"toosoon":0,"cond_shown":"Congruent","ratio_trial":100,"L_num":9,"L_den":15,"R_num":8,"R_den":16,"correct_side":1,"subjID":"alissondayanarubianobeltran1","gender":"1","school":"4","age":"9"},{"start_time":1552054924762,"click_time":1552054925952,"finger_time":1552054925591,"fix_duration":529.6549960036081,"trial":29,"RT":829,"MT":361,"sideResp":2,"stimulus":[],"xmouse":[799,798,798,797,797,797,797,797,797,797,797,797,797,797,797,797,797,797,797,797,797,797,797,797,797,797,797,797,797,797,797,797,797,797,797,797,797,797,797,796,811,827,843,865,891,940,973,1011,1021,1026,1029,1029,1029,1029,1031,1039,1050,1060,1066,1072],"ymouse":[612,612,612,612,612,612,612,612,612,612,612,612,612,612,612,612,612,612,612,612,612,612,612,612,612,612,612,612,612,612,612,612,612,612,612,612,612,612,612,610,587,555,529,489,440,357,321,286,272,261,237,225,214,206,199,181,160,142,117,89],"timestamp_mouse":[18,44,50,69,91,110,130,149,170,191,210,230,251,271,289,311,331,351,371,391,410,431,451,471,491,509,529,550,570,591,610,631,650,671,689,711,731,750,771,790,810,829,851,870,890,910,930,950,969,989,1009,1031,1050,1071,1090,1110,1130,1150,1170,1190],"xSR":741.5,"ySR":573.95,"xT1":424.9,"yT1":0,"xT2":1058.1,"yT2":0,"toosoon":0,"cond_shown":"Incongruent","ratio_trial":100,"L_num":1,"L_den":2,"R_num":8,"R_den":20,"correct_side":1,"subjID":"alissondayanarubianobeltran1","gender":"1","school":"4","age":"9"},{"start_time":1552054927918,"click_time":1552054931333,"finger_time":1552054929471,"fix_duration":265.42188528125433,"trial":30,"RT":1553,"MT":1862,"sideResp":2,"stimulus":[],"xmouse":[800,800,800,800,800,800,800,800,800,800,800,800,800,800,800,800,800,800,800,800,800,800,800,800,797,796,793,792,792,792,792,791,791,791,791,791,791,791,791,791,791,791,791,791,791,791,791,791,791,791,791,791,791,791,791,791,791,791,791,791,791,791,791,789,786,782,782,782,785,790,792,793,795,795,796,796,796,796,796,791,769,739,605,528,453,384,351,342,342,351,366,397,405,411,420,434,454,493,512,540,562,588,655,690,726,764,800,864,883,906,922,939,968,974,977,978,978,981,986,991,994,998,1000,1002,1003,1005,1006,1006,1008,1009,1009,1009,1011,1012,1012,1012,1012,1015,1017,1018,1020,1021,1021,1021,1022,1023,1024,1026,1028,1029,1030,1030,1031,1031,1032,1034,1037,1039,1040,1043,1045,1046,1049,1050,1052,1053,1054,1055,1057,1058,1060],"ymouse":[650,650,650,650,650,650,650,650,650,650,650,650,650,650,650,650,650,650,650,650,650,650,650,650,650,650,650,650,650,650,650,650,650,650,650,650,650,650,650,650,650,650,650,650,650,650,650,650,650,650,650,650,650,650,650,650,650,650,650,650,650,650,650,646,641,635,631,621,609,598,594,590,587,586,584,582,578,571,565,555,527,501,421,374,329,279,249,233,231,225,221,212,210,208,205,201,196,185,180,169,163,152,128,113,97,78,60,23,11,0,0,0,0,0,0,0,0,0,2,3,4,5,5,6,6,6,6,7,8,8,8,8,9,9,9,9,9,11,11,12,12,13,13,13,13,14,14,14,15,16,16,16,16,16,16,17,19,21,22,23,24,25,28,28,29,30,31,32,33,35,38],"timestamp_mouse":[27,44,54,74,94,115,135,154,174,195,215,234,254,273,295,315,335,354,374,395,413,435,454,474,494,513,534,554,573,594,614,634,655,674,694,714,735,754,775,793,814,834,853,874,895,915,934,955,974,994,1015,1035,1054,1073,1094,1114,1133,1153,1175,1195,1215,1233,1255,1274,1294,1314,1334,1353,1374,1395,1414,1435,1454,1475,1494,1515,1534,1553,1575,1594,1614,1633,1653,1674,1694,1715,1735,1753,1775,1793,1813,1835,1854,1874,1895,1914,1935,1954,1974,1994,2015,2034,2054,2073,2094,2115,2134,2155,2174,2194,2215,2234,2254,2274,2293,2314,2334,2354,2375,2394,2414,2437,2455,2473,2495,2514,2534,2554,2574,2593,2613,2634,2654,2675,2694,2714,2733,2753,2773,2794,2814,2835,2853,2875,2893,2913,2934,2954,2974,2994,3013,3034,3055,3074,3094,3115,3134,3154,3174,3193,3215,3234,3253,3274,3295,3314,3334,3353,3374,3394,3415],"xSR":741.5,"ySR":573.95,"xT1":424.9,"yT1":0,"xT2":1058.1,"yT2":0,"toosoon":0,"cond_shown":"Congruent","ratio_trial":100,"L_num":3,"L_den":20,"R_num":4,"R_den":16,"correct_side":2,"subjID":"alissondayanarubianobeltran1","gender":"1","school":"4","age":"9"},{"start_time":1552054932845,"click_time":1552054934472,"finger_time":1552054933873,"fix_duration":250,"trial":31,"RT":1028,"MT":599,"sideResp":2,"stimulus":[],"xmouse":[808,808,808,808,808,808,808,808,808,808,808,808,808,808,808,808,808,808,808,808,808,808,808,808,808,808,808,808,808,808,808,808,808,808,808,808,808,808,808,808,808,808,808,808,808,808,808,808,808,808,807,814,820,831,839,851,857,865,875,886,897,916,929,947,962,979,1003,1010,1015,1018,1021,1023,1025,1030,1038,1061,1077,1091,1103,1106,1102,1093],"ymouse":[599,599,599,599,599,599,599,599,599,599,599,599,599,599,599,599,599,599,599,599,599,599,599,599,599,599,599,599,599,599,599,599,599,599,599,599,599,599,599,599,599,599,599,599,599,599,599,599,599,599,596,548,525,500,476,442,429,415,401,388,378,364,358,348,341,334,322,316,313,309,305,303,301,296,284,253,230,207,182,159,115,95],"timestamp_mouse":[13,39,47,66,88,108,126,148,168,186,208,228,247,268,287,308,327,346,368,388,408,428,448,467,487,507,528,548,567,587,607,627,648,667,686,708,728,747,767,787,808,828,848,868,888,907,927,948,968,987,1007,1028,1047,1067,1086,1108,1126,1148,1167,1188,1206,1227,1248,1267,1287,1307,1328,1347,1368,1386,1408,1427,1447,1467,1487,1508,1527,1547,1567,1588,1608,1627],"xSR":741.5,"ySR":573.95,"xT1":424.9,"yT1":0,"xT2":1058.1,"yT2":0,"toosoon":0,"cond_shown":"Congruent","ratio_trial":200,"L_num":3,"L_den":10,"R_num":7,"R_den":14,"correct_side":2,"subjID":"alissondayanarubianobeltran1","gender":"1","school":"4","age":"9"},{"start_time":1552054938170,"click_time":1552054940371,"finger_time":1552054938232,"fix_duration":1036.871428697668,"trial":32,"RT":62,"MT":2139,"sideResp":1,"stimulus":[],"xmouse":[749,749,746,736,729,720,717,716,716,718,729,733,735,739,748,779,787,792,793,793,793,794,795,795,795,795,795,795,795,795,795,795,795,795,795,795,795,795,795,795,795,795,795,795,795,795,795,795,795,795,795,795,795,795,795,793,787,785,784,784,784,784,784,784,784,784,784,784,784,784,784,784,784,784,784,782,781,776,772,769,766,766,766,766,766,766,766,766,766,766,766,766,766,766,766,766,766,766,766,766,766,762,757,740,719,681,652,621,565,534,493],"ymouse":[594,594,595,604,611,627,647,656,684,703,723,725,725,725,720,700,688,671,661,656,649,644,641,640,640,640,640,640,640,640,640,640,640,640,640,640,640,640,640,640,640,640,640,640,640,640,640,640,640,640,640,640,640,640,638,619,600,597,591,591,591,591,591,591,591,591,591,591,591,591,591,591,591,591,591,590,590,595,599,601,610,614,617,620,623,625,625,625,625,625,625,625,625,625,625,625,625,625,625,625,625,613,602,564,515,397,322,247,149,95,1],"timestamp_mouse":[14,22,42,62,81,101,122,141,162,183,202,222,242,262,281,301,322,342,362,381,403,422,442,462,483,501,522,543,562,582,601,623,643,662,682,701,723,742,762,783,802,823,841,863,883,903,922,942,962,982,1002,1023,1041,1062,1082,1103,1122,1141,1163,1182,1202,1223,1241,1261,1283,1303,1323,1343,1361,1382,1402,1421,1443,1463,1482,1501,1522,1543,1562,1582,1601,1622,1642,1663,1682,1703,1722,1742,1763,1782,1802,1823,1843,1862,1881,1901,1923,1941,1962,1981,2002,2021,2042,2063,2083,2102,2122,2143,2161,2181,2201],"xSR":741.5,"ySR":573.95,"xT1":424.9,"yT1":0,"xT2":1058.1,"yT2":0,"toosoon":0,"cond_shown":"Congruent","ratio_trial":300,"L_num":24,"L_den":30,"R_num":8,"R_den":16,"correct_side":1,"subjID":"alissondayanarubianobeltran1","gender":"1","school":"4","age":"9"},{"start_time":1552054942245,"click_time":1552054943274,"finger_time":1552054943133,"fix_duration":770.3269872338481,"trial":33,"RT":888,"MT":141,"sideResp":1,"stimulus":[],"xmouse":[813,813,813,813,813,813,813,813,813,813,813,813,813,813,813,813,813,813,813,813,813,813,813,813,813,813,813,813,813,813,813,813,813,813,813,813,813,813,813,813,806,800,792,776,765,745,728,704,672,628,570,493],"ymouse":[633,633,633,633,633,633,633,633,633,633,633,633,633,633,633,633,633,633,633,633,633,633,633,633,633,633,633,633,633,633,633,633,633,633,633,633,633,633,633,628,617,609,600,582,570,518,458,379,291,209,120,9],"timestamp_mouse":[13,42,47,67,87,107,127,148,167,188,208,227,248,268,287,308,328,348,367,388,408,427,446,468,487,507,527,547,568,587,607,628,647,668,688,706,728,748,766,788,808,826,847,868,888,908,926,947,968,988,1008,1027],"xSR":741.5,"ySR":573.95,"xT1":424.9,"yT1":0,"xT2":1058.1,"yT2":0,"toosoon":0,"cond_shown":"Congruent","ratio_trial":100,"L_num":1,"L_den":2,"R_num":3,"R_den":5,"correct_side":2,"subjID":"alissondayanarubianobeltran1","gender":"1","school":"4","age":"9"},{"start_time":1552054947509,"click_time":1552054948572,"finger_time":1552054948272,"fix_duration":995.9182324331085,"trial":34,"RT":763,"MT":300,"sideResp":1,"stimulus":[],"xmouse":[787,787,787,787,787,787,787,787,787,787,787,787,787,787,787,787,787,787,787,787,787,787,787,787,787,787,787,787,787,787,787,787,787,787,787,787,786,783,725,704,630,592,567,567,568,571,573,575,578,578,571,561,545,500],"ymouse":[606,606,606,606,606,606,606,606,606,606,606,606,606,606,606,606,606,606,606,606,606,606,605,605,605,605,605,605,605,605,605,605,605,605,605,605,605,603,524,494,393,336,278,267,263,257,251,242,213,196,164,142,118,67],"timestamp_mouse":[14,23,43,63,83,103,124,144,163,184,203,224,243,264,284,304,322,342,363,382,402,424,444,462,483,502,523,542,564,583,604,624,643,664,684,704,724,743,763,784,803,822,844,863,884,904,924,944,964,982,1002,1023,1042,1062],"xSR":741.5,"ySR":573.95,"xT1":424.9,"yT1":0,"xT2":1058.1,"yT2":0,"toosoon":0,"cond_shown":"Incongruent","ratio_trial":300,"L_num":3,"L_den":6,"R_num":4,"R_den":20,"correct_side":1,"subjID":"alissondayanarubianobeltran1","gender":"1","school":"4","age":"9"},{"start_time":1552054950171,"click_time":1552054951454,"finger_time":1552054951072,"fix_duration":636.6350953080548,"trial":35,"RT":901,"MT":382,"sideResp":1,"stimulus":[],"xmouse":[784,784,784,784,784,784,784,784,784,784,784,784,784,784,784,784,784,784,784,784,784,784,784,784,784,784,784,784,784,784,784,784,784,784,784,784,784,784,784,784,784,784,784,781,754,728,666,622,567,481,462,456,456,456,456,456,457,460,463,467,468,468,469,469],"ymouse":[611,611,611,611,611,611,611,611,611,611,611,611,611,611,611,611,611,611,611,611,611,611,611,611,611,611,611,611,611,611,611,611,611,611,611,611,611,611,611,611,611,611,604,595,540,490,383,303,227,127,108,100,100,100,100,100,100,100,100,100,100,100,100,99],"timestamp_mouse":[21,41,61,81,101,120,141,162,181,202,222,240,260,281,301,322,342,360,381,400,422,441,461,482,501,521,540,561,582,601,621,640,660,680,702,722,742,761,782,800,822,842,862,881,901,921,941,961,981,1000,1020,1041,1061,1081,1101,1120,1140,1160,1180,1201,1221,1241,1261,1282],"xSR":741.5,"ySR":573.95,"xT1":424.9,"yT1":0,"xT2":1058.1,"yT2":0,"toosoon":0,"cond_shown":"Incongruent","ratio_trial":100,"L_num":3,"L_den":5,"R_num":8,"R_den":16,"correct_side":1,"subjID":"alissondayanarubianobeltran1","gender":"1","school":"4","age":"9"},{"start_time":1552054953823,"click_time":1552054955292,"finger_time":1552054954411,"fix_duration":1289.731997013746,"trial":36,"RT":588,"MT":881,"sideResp":2,"stimulus":[],"xmouse":[769,769,769,769,769,769,769,769,769,769,769,769,769,769,769,769,769,769,769,769,769,769,769,769,769,769,769,770,763,750,740,734,733,733,733,733,733,733,733,733,733,733,733,733,733,733,733,733,739,751,768,793,838,857,867,892,926,942,954,967,976,990,994,997,1002,1008,1014,1026,1032,1038,1043,1047,1057,1065],"ymouse":[595,595,595,595,595,595,595,595,595,595,595,595,595,595,595,595,595,595,595,595,595,595,595,595,595,595,595,596,583,564,552,542,541,541,541,541,541,541,540,540,540,540,540,540,540,540,540,540,539,536,530,520,494,480,469,446,412,396,380,361,346,317,301,287,270,255,237,198,176,158,142,129,109,99],"timestamp_mouse":[14,29,49,70,90,110,130,150,169,190,209,230,249,270,290,308,329,349,368,390,410,429,449,470,489,509,529,549,569,588,608,629,649,670,690,708,728,749,769,789,809,830,849,869,889,908,929,949,968,990,1010,1029,1050,1069,1090,1110,1129,1148,1168,1189,1209,1230,1249,1269,1290,1309,1329,1350,1368,1389,1409,1429,1448,1469],"xSR":741.5,"ySR":573.95,"xT1":424.9,"yT1":0,"xT2":1058.1,"yT2":0,"toosoon":0,"cond_shown":"Incongruent","ratio_trial":300,"L_num":13,"L_den":26,"R_num":12,"R_den":15,"correct_side":2,"subjID":"alissondayanarubianobeltran1","gender":"1","school":"4","age":"9"},{"start_time":1552054956663,"click_time":1552054958333,"finger_time":1552054957091,"fix_duration":250,"trial":37,"RT":428,"MT":1242,"sideResp":2,"stimulus":[],"xmouse":[832,832,832,832,832,832,832,832,832,832,832,832,832,832,832,832,832,832,832,832,840,846,850,857,864,867,868,869,870,873,875,877,879,881,884,889,894,900,908,918,945,968,977,984,989,996,999,1002,1005,1006,1010,1017,1021,1027,1033,1050,1061,1068,1074,1087,1095,1099,1104,1109,1112,1113,1113,1113,1113,1114,1115,1115,1115,1115,1115,1115,1115,1116,1116,1116,1116,1116,1116,1116],"ymouse":[626,626,626,626,626,626,626,626,626,626,626,626,626,626,626,626,626,626,626,625,620,616,613,607,598,596,592,590,588,584,581,577,575,571,568,561,553,545,534,517,468,427,406,386,368,342,329,318,305,294,274,258,249,241,235,224,219,215,211,201,193,188,182,176,171,169,169,169,167,159,156,154,150,149,148,147,146,143,141,130,118,108,101,96],"timestamp_mouse":[22,40,50,70,88,109,128,150,170,189,208,230,250,269,290,309,329,348,369,389,409,428,449,469,490,509,528,550,568,590,609,629,649,669,689,709,729,750,769,789,809,829,849,870,890,909,929,949,970,989,1010,1030,1049,1070,1088,1109,1130,1150,1170,1190,1209,1230,1249,1270,1288,1309,1328,1349,1370,1390,1409,1428,1448,1470,1490,1509,1530,1548,1568,1590,1610,1630,1649,1670],"xSR":741.5,"ySR":573.95,"xT1":424.9,"yT1":0,"xT2":1058.1,"yT2":0,"toosoon":0,"cond_shown":"Incongruent","ratio_trial":200,"L_num":11,"L_den":20,"R_num":3,"R_den":4,"correct_side":2,"subjID":"alissondayanarubianobeltran1","gender":"1","school":"4","age":"9"},{"start_time":1552054960469,"click_time":1552054962292,"finger_time":1552054961913,"fix_duration":1054.7582092087719,"trial":38,"RT":1444,"MT":379,"sideResp":1,"stimulus":[],"xmouse":[803,803,803,803,803,803,803,803,803,803,803,803,803,803,803,803,803,803,803,803,803,803,803,803,803,803,803,803,803,803,803,803,803,803,803,803,803,803,803,803,803,803,803,803,803,803,803,803,803,803,803,803,803,803,803,803,803,803,803,803,803,803,803,803,803,803,803,803,803,803,803,803,786,751,668,631,612,602,599,597,595,591,586,577,573,571,568,564,558,536,524,520],"ymouse":[610,610,610,610,610,610,610,610,610,610,610,610,610,610,610,610,610,610,610,610,610,610,610,610,610,610,610,610,610,610,610,610,610,610,610,610,610,610,610,610,610,610,610,610,610,610,610,610,610,610,610,610,610,610,610,610,610,610,610,610,610,610,610,610,610,610,610,610,610,610,607,596,555,503,390,345,317,300,291,276,264,249,233,209,181,170,160,148,135,111,103,99],"timestamp_mouse":[13,37,42,62,84,104,124,142,162,183,204,224,244,263,284,303,324,343,363,384,403,422,443,463,482,504,523,543,563,583,604,624,642,663,684,703,723,744,764,783,802,823,843,864,884,902,923,944,963,984,1003,1023,1044,1063,1084,1103,1122,1143,1164,1183,1204,1224,1243,1264,1283,1303,1324,1344,1363,1384,1402,1423,1444,1464,1484,1504,1523,1543,1564,1584,1602,1622,1642,1664,1684,1703,1723,1743,1764,1784,1802,1822],"xSR":741.5,"ySR":573.95,"xT1":424.9,"yT1":0,"xT2":1058.1,"yT2":0,"toosoon":0,"cond_shown":"Congruent","ratio_trial":200,"L_num":7,"L_den":21,"R_num":2,"R_den":15,"correct_side":1,"subjID":"alissondayanarubianobeltran1","gender":"1","school":"4","age":"9"},{"start_time":1552054964010,"click_time":1552054965172,"finger_time":1552054964591,"fix_duration":575.2059489275501,"trial":39,"RT":581,"MT":581,"sideResp":2,"stimulus":[],"xmouse":[782,782,782,782,782,782,782,782,782,782,782,782,782,782,782,782,782,782,782,782,782,782,782,782,786,792,801,820,831,839,849,862,876,880,891,898,906,919,925,932,940,948,964,972,975,979,982,986,986,989,993,1009,1018,1033,1037,1049,1055,1066],"ymouse":[600,600,600,600,600,600,600,600,600,600,600,600,600,600,600,600,600,600,600,600,600,600,600,600,600,599,593,579,568,556,540,510,476,465,431,405,380,338,322,307,290,274,246,233,228,220,216,212,211,208,203,184,168,145,136,112,99,73],"timestamp_mouse":[20,44,63,81,101,122,142,163,183,203,222,242,261,282,302,322,342,362,382,402,423,441,461,483,503,523,543,562,581,602,621,643,662,682,702,722,743,761,782,802,822,842,861,883,902,923,943,963,982,1002,1022,1043,1062,1081,1102,1122,1143,1162],"xSR":741.5,"ySR":573.95,"xT1":424.9,"yT1":0,"xT2":1058.1,"yT2":0,"toosoon":0,"cond_shown":"Incongruent","ratio_trial":200,"L_num":7,"L_den":15,"R_num":6,"R_den":9,"correct_side":2,"subjID":"alissondayanarubianobeltran1","gender":"1","school":"4","age":"9"},{"start_time":1552054966544,"click_time":1552054968173,"finger_time":1552054967272,"fix_duration":309.492746583633,"trial":40,"RT":728,"MT":901,"sideResp":1,"stimulus":[],"xmouse":[788,788,788,788,788,788,788,788,788,788,788,788,788,788,788,788,788,788,788,788,788,788,788,788,788,788,789,790,794,796,798,799,801,803,806,811,811,813,817,821,830,836,838,838,838,838,837,837,835,824,813,769,730,683,650,628,628,627,626,618,592,584,579,579,579,579,578,577,566,557,551,547,547,547,547,543,536,535,532,528,526,519],"ymouse":[637,637,637,637,637,637,637,637,637,637,637,637,637,637,637,637,637,637,637,637,637,637,637,637,637,637,633,630,622,620,618,615,610,604,594,576,569,560,546,536,505,481,460,448,442,437,436,435,432,417,403,346,303,254,226,204,203,202,199,183,151,139,133,133,133,133,132,127,109,97,90,88,88,88,88,88,86,86,85,84,83,81],"timestamp_mouse":[15,34,48,68,89,108,127,149,168,188,208,229,247,267,288,309,328,348,369,388,409,427,447,469,489,508,527,549,569,588,608,628,648,669,689,709,728,748,767,788,809,828,848,867,887,909,928,948,967,989,1009,1028,1048,1068,1089,1109,1127,1149,1168,1188,1208,1228,1248,1269,1288,1309,1328,1348,1368,1388,1408,1427,1448,1469,1489,1508,1529,1548,1568,1588,1609,1629],"xSR":741.5,"ySR":573.95,"xT1":424.9,"yT1":0,"xT2":1058.1,"yT2":0,"toosoon":0,"cond_shown":"Incongruent","ratio_trial":300,"L_num":8,"L_den":10,"R_num":14,"R_den":28,"correct_side":1,"subjID":"alissondayanarubianobeltran1","gender":"1","school":"4","age":"9"},{"start_time":1552054969931,"click_time":1552054971192,"finger_time":1552054970633,"fix_duration":336.10554387544533,"trial":41,"RT":702,"MT":559,"sideResp":1,"stimulus":[],"xmouse":[783,783,783,783,783,783,783,783,783,783,783,783,783,783,783,783,783,783,783,783,783,783,783,783,783,783,783,783,783,783,783,783,783,783,781,768,701,649,592,531,520,517,518,519,521,524,532,535,540,541,543,544,544,541,541,541,541,541,541,541,541,538,531,520],"ymouse":[603,603,603,603,603,603,603,603,603,603,603,603,603,603,603,603,603,603,603,603,603,603,603,603,603,603,603,603,603,603,603,603,603,596,582,542,413,337,270,204,183,164,160,154,148,135,108,100,86,79,69,54,49,45,45,45,45,45,45,45,45,44,44,44],"timestamp_mouse":[15,24,41,61,82,100,122,142,161,181,201,221,241,262,281,300,322,341,362,380,402,420,441,461,480,501,521,541,562,581,602,622,641,660,681,702,722,741,761,780,801,821,841,861,880,900,922,941,961,981,1002,1021,1040,1061,1081,1101,1121,1141,1160,1182,1202,1222,1241,1261],"xSR":741.5,"ySR":573.95,"xT1":424.9,"yT1":0,"xT2":1058.1,"yT2":0,"toosoon":0,"cond_shown":"Congruent","ratio_trial":300,"L_num":24,"L_den":30,"R_num":8,"R_den":16,"correct_side":1,"subjID":"alissondayanarubianobeltran1","gender":"1","school":"4","age":"9"},{"start_time":1552054972913,"click_time":1552054973772,"finger_time":1552054973472,"fix_duration":557.0526700158293,"trial":42,"RT":559,"MT":300,"sideResp":1,"stimulus":[],"xmouse":[793,793,793,793,793,793,793,793,793,793,793,793,793,793,793,793,793,793,793,793,793,793,793,793,793,793,792,774,756,730,676,642,611,582,576,575,575,575,575,571,568,555,533,522],"ymouse":[606,606,606,606,606,606,606,606,606,606,606,606,606,606,606,606,606,606,606,606,606,606,606,606,606,607,607,575,546,491,393,334,286,236,224,219,213,196,181,156,147,111,71,53],"timestamp_mouse":[1,21,39,59,78,100,119,140,160,179,199,219,238,260,280,298,319,340,359,379,400,420,439,460,478,500,520,539,559,578,599,620,639,658,679,699,720,741,759,779,799,819,840,858],"xSR":741.5,"ySR":573.95,"xT1":424.9,"yT1":0,"xT2":1058.1,"yT2":0,"toosoon":0,"cond_shown":"Incongruent","ratio_trial":100,"L_num":12,"L_den":30,"R_num":2,"R_den":4,"correct_side":2,"subjID":"alissondayanarubianobeltran1","gender":"1","school":"4","age":"9"},{"start_time":1552054976213,"click_time":1552054977972,"finger_time":1552054976871,"fix_duration":1180.8873450700978,"trial":43,"RT":658,"MT":1101,"sideResp":2,"stimulus":[],"xmouse":[796,796,796,796,796,796,796,796,796,796,796,796,796,796,796,797,797,798,798,798,798,798,798,798,798,798,798,798,799,800,805,811,825,831,838,843,853,858,862,867,874,884,908,927,935,954,977,986,995,1000,1002,1003,1003,1003,1003,1000,940,891,854,835,830,829,829,829,829,829,829,829,838,853,870,903,914,926,937,950,990,1009,1021,1025,1028,1028,1033,1041,1046,1054,1057,1062],"ymouse":[651,651,650,650,650,650,649,647,647,647,647,647,645,644,637,633,630,624,623,623,623,623,623,623,623,623,623,623,622,619,609,595,558,522,500,480,443,425,411,401,394,388,382,380,379,377,365,356,348,342,337,336,336,336,335,334,314,294,271,256,249,246,246,246,246,246,246,242,235,225,211,190,183,174,164,151,117,103,95,91,89,89,87,83,81,78,76,74],"timestamp_mouse":[21,46,59,79,99,118,139,158,179,199,219,239,258,280,298,320,339,358,379,399,419,438,459,478,498,519,538,559,578,599,620,639,658,679,698,718,739,758,779,800,818,839,858,879,898,918,940,958,979,998,1018,1039,1059,1078,1098,1118,1140,1158,1178,1198,1219,1240,1258,1278,1299,1318,1339,1360,1379,1399,1419,1439,1458,1478,1498,1518,1539,1558,1579,1599,1618,1638,1659,1678,1699,1718,1739,1759],"xSR":741.5,"ySR":573.95,"xT1":424.9,"yT1":0,"xT2":1058.1,"yT2":0,"toosoon":0,"cond_shown":"Congruent","ratio_trial":300,"L_num":1,"L_den":5,"R_num":6,"R_den":12,"correct_side":2,"subjID":"alissondayanarubianobeltran1","gender":"1","school":"4","age":"9"},{"start_time":1552054980182,"click_time":1552054981553,"finger_time":1552054980793,"fix_duration":1230.6939246401075,"trial":44,"RT":611,"MT":760,"sideResp":2,"stimulus":[],"xmouse":[788,786,786,786,786,786,786,786,786,786,786,786,786,786,786,786,786,786,786,786,786,786,786,786,786,786,786,786,791,800,812,826,840,859,901,920,938,945,949,956,960,965,969,977,983,988,993,995,995,995,996,998,1000,1003,1008,1013,1016,1019,1022,1027,1029,1030,1030,1032,1032,1036,1039,1050,1102],"ymouse":[640,640,640,640,640,640,640,640,640,640,640,640,640,640,640,640,640,640,640,640,640,640,640,640,640,640,640,640,613,586,542,493,449,410,349,329,309,300,293,282,275,268,264,252,246,236,227,223,218,215,207,197,178,158,122,105,97,92,85,76,74,72,72,70,69,67,66,63,54],"timestamp_mouse":[16,40,50,71,90,111,129,149,170,190,209,229,250,270,290,310,330,350,371,389,410,431,451,470,490,509,531,550,570,590,611,630,651,671,689,709,729,750,769,789,809,829,850,871,889,909,929,950,970,989,1010,1030,1049,1069,1089,1111,1130,1150,1169,1190,1210,1229,1249,1271,1290,1309,1330,1349,1370],"xSR":741.5,"ySR":573.95,"xT1":424.9,"yT1":0,"xT2":1058.1,"yT2":0,"toosoon":0,"cond_shown":"Congruent","ratio_trial":300,"L_num":5,"L_den":25,"R_num":6,"R_den":12,"correct_side":2,"subjID":"alissondayanarubianobeltran1","gender":"1","school":"4","age":"9"},{"start_time":1552054982804,"click_time":1552054984332,"finger_time":1552054983892,"fix_duration":250,"trial":45,"RT":1088,"MT":440,"sideResp":1,"stimulus":[],"xmouse":[755,755,755,755,755,755,755,755,755,755,755,755,755,755,755,755,755,755,755,755,755,755,755,755,755,755,755,755,755,755,755,755,755,755,755,755,755,755,755,755,755,755,755,755,755,755,755,755,755,755,755,755,755,743,733,705,666,636,633,633,633,633,635,635,627,604,589,579,579,579,579,579,577,563,539,532,511],"ymouse":[642,642,642,642,642,642,642,642,642,642,642,642,642,642,642,642,642,642,642,642,642,642,642,642,642,642,642,642,642,642,642,642,642,642,642,642,642,642,642,642,642,642,642,642,642,642,642,642,642,642,642,642,640,587,556,492,401,332,318,312,308,302,288,238,201,133,101,76,75,75,75,75,73,59,41,37,27],"timestamp_mouse":[20,40,47,67,88,108,127,147,168,187,207,228,249,268,288,307,328,348,367,387,408,428,447,468,489,509,528,547,569,588,608,629,648,668,688,707,727,748,768,788,809,827,848,869,887,908,928,948,969,989,1009,1028,1048,1068,1088,1107,1128,1148,1168,1187,1209,1229,1247,1267,1288,1308,1328,1349,1368,1387,1408,1428,1448,1469,1487,1507,1527],"xSR":741.5,"ySR":573.95,"xT1":424.9,"yT1":0,"xT2":1058.1,"yT2":0,"toosoon":0,"cond_shown":"Incongruent","ratio_trial":100,"L_num":9,"L_den":10,"R_num":20,"R_den":25,"correct_side":1,"subjID":"alissondayanarubianobeltran1","gender":"1","school":"4","age":"9"},{"start_time":1552054986236,"click_time":1552054988552,"finger_time":1552054987671,"fix_duration":623.566491356418,"trial":46,"RT":1435,"MT":881,"sideResp":1,"stimulus":[],"xmouse":[768,768,768,768,768,768,768,768,768,768,768,768,768,768,768,768,768,768,768,768,768,768,768,768,768,768,768,768,768,768,768,768,768,768,768,768,768,768,768,768,768,768,768,768,768,768,768,768,768,768,768,768,768,768,768,768,768,768,768,768,768,768,768,771,777,784,796,803,811,821,837,877,897,921,935,949,1001,1041,1078,1098,1106,1113,1115,1118,1120,1123,1123,1123,1123,1123,1123,1123,1123,1123,1123,1122,1095,1077,1053,1022,947,894,877,834,806,780,671,611,551,497,446,440,440,439,436,426],"ymouse":[629,629,629,629,629,629,629,629,629,629,629,629,629,629,629,629,629,629,629,629,629,629,629,629,629,629,629,629,629,629,629,629,629,629,629,629,629,629,629,629,629,629,629,629,629,629,629,629,629,629,629,629,629,629,629,629,629,629,629,629,629,629,629,628,623,619,610,605,600,593,583,552,533,505,490,474,423,389,362,341,332,309,297,276,259,202,174,150,134,128,125,125,125,125,125,126,144,155,166,184,214,225,226,220,204,178,47,0,0,0,0,0,0,0,0,10],"timestamp_mouse":[15,35,57,75,95,115,137,155,176,197,215,236,257,277,295,315,335,355,376,395,417,435,456,475,495,515,536,556,576,597,617,635,656,676,697,715,736,756,776,795,817,836,856,876,897,916,935,955,975,996,1015,1035,1057,1077,1095,1116,1137,1157,1176,1196,1217,1237,1255,1276,1295,1315,1336,1355,1375,1396,1415,1435,1456,1477,1496,1516,1536,1556,1575,1596,1616,1636,1656,1676,1695,1716,1735,1756,1777,1796,1816,1836,1855,1875,1895,1915,1936,1955,1975,1995,2016,2035,2055,2075,2096,2115,2136,2155,2175,2196,2216,2235,2256,2275,2295,2316],"xSR":741.5,"ySR":573.95,"xT1":424.9,"yT1":0,"xT2":1058.1,"yT2":0,"toosoon":0,"cond_shown":"Congruent","ratio_trial":300,"L_num":1,"L_den":20,"R_num":7,"R_den":20,"correct_side":2,"subjID":"alissondayanarubianobeltran1","gender":"1","school":"4","age":"9"},{"start_time":1552054995590,"click_time":1552054996892,"finger_time":1552054996191,"fix_duration":516.1375616819229,"trial":47,"RT":601,"MT":701,"sideResp":2,"stimulus":[],"xmouse":[800,799,799,799,799,799,799,799,799,799,799,799,799,799,799,799,799,799,801,805,807,810,813,814,815,815,816,818,822,828,829,832,833,835,837,838,838,840,841,844,846,849,852,859,882,894,907,915,920,933,939,948,952,961,966,969,973,977,988,994,1001,1008,1015,1033,1045,1065],"ymouse":[618,618,618,618,618,618,618,618,618,618,618,618,618,618,618,618,618,617,614,610,606,602,598,595,594,594,592,589,585,574,571,567,564,562,552,547,540,530,520,502,494,485,474,458,410,381,334,303,276,228,205,182,162,130,121,115,110,107,100,96,92,88,86,83,80,74],"timestamp_mouse":[1,39,41,62,81,103,123,142,162,181,203,221,241,261,282,301,322,343,361,382,402,423,442,462,482,503,523,542,562,582,601,622,641,661,681,702,721,742,761,781,802,822,841,862,883,903,921,942,962,982,1002,1022,1041,1062,1081,1102,1122,1143,1163,1181,1202,1222,1242,1262,1282,1301],"xSR":741.5,"ySR":573.95,"xT1":424.9,"yT1":0,"xT2":1058.1,"yT2":0,"toosoon":0,"cond_shown":"Congruent","ratio_trial":100,"L_num":7,"L_den":14,"R_num":15,"R_den":25,"correct_side":2,"subjID":"alissondayanarubianobeltran1","gender":"1","school":"4","age":"9"},{"start_time":1552055001428,"click_time":1552055003152,"finger_time":1552055002173,"fix_duration":1173.9728432543104,"trial":48,"RT":745,"MT":979,"sideResp":1,"stimulus":[],"xmouse":[788,788,788,788,788,788,788,788,788,788,788,788,788,788,788,788,788,788,788,788,788,788,788,788,788,788,788,788,788,788,788,788,788,788,788,785,769,756,744,732,723,717,710,70