[{"start_time":1552327469139,"click_time":1552327471551,"finger_time":1552327470952,"fix_duration":721.9987973140073,"trial":0,"RT":1813,"MT":599,"sideResp":2,"stimulus":[],"xmouse":[822,822,823,823,823,823,823,824,824,824,824,824,824,824,822,820,818,813,810,809,807,806,805,805,805,805,807,811,811,811,811,810,810,810,810,810,810,810,810,810,808,806,801,799,799,799,799,799,799,799,799,799,799,799,799,799,799,799,799,799,799,799,799,799,799,799,799,799,799,799,799,799,799,799,799,799,799,799,799,799,799,799,799,799,799,799,799,799,802,809,844,875,943,988,1021,1048,1068,1084,1089,1094,1100,1105,1113,1115,1116,1116,1116,1115,1115,1122,1127,1131,1137,1139,1140,1141,1141,1141,1141,1141,1136],"ymouse":[562,562,526,510,497,485,477,472,472,472,472,472,472,471,471,472,474,481,484,487,491,492,495,495,495,496,501,507,508,510,511,512,513,513,513,513,513,513,513,513,515,517,521,522,522,522,522,522,522,522,522,522,522,522,522,522,522,522,522,522,522,522,522,522,522,522,522,522,522,522,522,522,522,522,522,522,522,522,522,522,522,522,522,522,522,522,522,522,520,515,490,466,415,387,366,348,335,326,324,320,316,312,299,293,286,278,267,236,217,186,168,154,138,133,132,132,130,127,114,107,93],"timestamp_mouse":[31,31,52,72,93,112,133,152,173,193,212,232,252,272,293,312,333,352,372,393,412,433,452,472,492,512,532,552,572,592,612,632,652,672,693,713,732,752,772,793,812,832,852,873,892,913,933,952,972,993,1011,1033,1052,1073,1093,1113,1133,1152,1172,1191,1213,1232,1252,1273,1293,1313,1333,1352,1373,1393,1413,1432,1452,1472,1493,1513,1532,1551,1573,1593,1612,1632,1653,1673,1692,1712,1732,1752,1773,1792,1813,1833,1852,1872,1892,1913,1933,1953,1971,1992,2013,2033,2052,2072,2092,2113,2133,2152,2173,2192,2212,2232,2252,2273,2293,2312,2333,2351,2371,2392,2412],"xSR":741.5,"ySR":469.95,"xT1":424.9,"yT1":0,"xT2":1058.1,"yT2":0,"toosoon":0,"cond_shown":"Incongruent","ratio_trial":200,"L_num":7,"L_den":15,"R_num":6,"R_den":9,"correct_side":2,"subjID":"juanjosemoreno6","gender":"0","age":"9","school":"4","test":{"fix_dur":[250,1500],"timestim":1000,"targets_dim":[100,100],"targets_relative_coord":[0.3,0.7],"size_stim":[880,420],"start_dim":[100,100],"size_start":[300,300],"size_fix":60,"samplingrate":20,"img_types":["Congruent","Incongruent"],"ratios":[100,200,300],"rep_conds":19,"nTrials":120,"trials_to_rest":500,"Trials_order":[57,105,28,111,17,77,38,22,110,76,26,93,12,53,66,80,96,2,52,36,23,10,72,35,113,46,99,21,4,8,81,118,95,100,9,30,18,82,5,119,56,3,45,24,88,61,59,62,50,55,32,112,33,63,13,85,116,75,115,51,6,48,94,98,91,69,27,71,109,86,67,11,106,64,103,54,70,29,87,42,15,89,92,39,31,7,68,20,84,114,107,65,79,47,83,40,97,37,16,49,101,41,78,34,73,0,117,58,14,44,60,102,74,1,104,108,43,19,90,25],"cond_shown":["Incongruent","Incongruent","Congruent","Incongruent","Incongruent","Incongruent","Congruent","Congruent","Congruent","Congruent","Congruent","Incongruent","Congruent","Incongruent","Congruent","Congruent","Congruent","Congruent","Congruent","Congruent","Incongruent","Congruent","Congruent","Incongruent","Incongruent","Congruent","Incongruent","Incongruent","Congruent","Congruent","Incongruent","Congruent","Incongruent","Congruent","Incongruent","Congruent","Congruent","Congruent","Incongruent","Incongruent","Congruent","Incongruent","Incongruent","Congruent","Congruent","Incongruent","Incongruent","Congruent","Congruent","Incongruent","Congruent","Congruent","Incongruent","Incongruent","Incongruent","Incongruent","Congruent","Incongruent","Incongruent","Incongruent","Congruent","Congruent","Congruent","Congruent","Incongruent","Incongruent","Incongruent","Incongruent","Incongruent","Congruent","Incongruent","Incongruent","Congruent","Congruent","Incongruent","Congruent","Congruent","Incongruent","Incongruent","Congruent","Incongruent","Incongruent","Congruent","Incongruent","Incongruent","Incongruent","Congruent","Congruent","Congruent","Congruent","Incongruent","Incongruent","Incongruent","Incongruent","Incongruent","Congruent","Incongruent","Incongruent","Congruent","Incongruent","Incongruent","Incongruent","Congruent","Congruent","Incongruent","Congruent","Incongruent","Congruent","Congruent","Congruent","Congruent","Congruent","Congruent","Incongruent","Congruent","Congruent","Incongruent","Incongruent","Congruent","Incongruent"],"ratio_trial":[200,200,300,200,300,300,200,300,200,300,200,200,100,300,100,200,100,200,300,100,300,300,100,300,300,300,200,200,300,200,200,300,300,300,200,100,100,300,300,300,200,200,200,100,300,100,300,200,200,100,200,300,200,200,100,100,200,200,100,200,100,100,300,200,100,200,200,300,100,200,100,300,300,300,100,100,300,300,200,100,200,300,200,200,100,100,200,200,100,100,300,300,100,300,300,300,100,100,300,100,300,300,100,300,100,100,200,300,200,200,100,100,200,100,200,100,100,100,100,100],"left_num":[7,9,2,7,2,4,1,3,3,20,4,7,11,13,4,6,2,3,9,10,13,9,1,4,1,11,1,4,9,11,6,24,4,20,3,7,6,4,4,4,3,7,4,8,2,12,13,3,11,8,3,9,9,4,9,9,12,4,6,7,9,12,5,8,3,4,14,4,8,3,8,1,1,8,2,2,5,4,7,7,4,4,16,7,12,8,14,1,6,3,4,3,6,4,3,3,6,2,20,2,4,13,4,20,3,11,3,7,6,8,6,6,4,6,7,3,13,9,3,12],"right_num":[6,8,10,8,6,2,21,4,9,9,3,12,4,12,15,11,11,14,3,3,12,3,18,2,2,4,3,14,3,3,3,2,2,9,1,9,15,2,8,2,7,6,14,2,12,9,12,14,3,6,11,3,8,1,14,13,6,6,3,8,8,13,7,7,4,14,6,2,6,9,6,3,19,1,6,11,7,2,12,15,14,8,12,6,2,6,6,21,5,4,2,4,13,2,4,11,11,8,8,6,2,12,6,5,11,4,1,20,7,3,15,5,3,13,18,2,12,20,2,9],"left_den":[15,15,20,10,4,20,2,6,12,25,8,10,22,26,10,20,5,10,10,25,26,10,2,20,2,22,2,6,10,22,20,30,20,25,10,14,12,5,5,20,10,15,6,16,10,24,26,10,22,16,10,10,15,30,15,15,20,5,12,10,15,30,25,15,6,6,30,20,16,12,16,2,3,16,4,5,25,20,10,14,6,5,20,15,30,16,28,2,20,20,20,6,10,20,6,12,10,4,25,4,20,26,8,25,5,22,10,14,12,15,12,20,8,10,15,6,26,10,6,24],"right_den":[9,10,25,16,30,4,30,5,20,18,10,24,10,15,30,22,22,28,5,10,15,5,30,4,10,20,10,30,5,10,6,4,4,18,2,15,25,4,16,4,14,9,30,5,24,15,15,28,10,10,22,5,10,3,28,26,15,10,5,16,16,26,14,21,10,30,9,4,10,20,10,15,30,5,15,22,14,4,24,25,30,16,20,9,4,10,20,30,25,16,4,20,26,4,20,20,22,20,16,15,4,15,10,10,22,10,2,25,10,9,25,25,10,26,27,5,20,25,5,15],"correct_side":[2,2,2,1,1,2,2,2,2,1,1,1,1,2,2,2,2,2,1,1,2,1,2,2,1,1,1,1,1,1,2,1,2,1,2,2,2,1,1,2,2,2,1,1,2,2,2,2,1,2,2,1,2,2,1,1,1,1,2,1,1,2,2,1,1,1,2,2,2,2,2,1,2,1,1,2,2,2,1,2,1,1,1,2,2,2,1,2,1,2,2,1,1,2,1,2,1,1,1,1,2,2,2,1,1,1,2,2,2,1,2,1,1,1,2,1,2,1,1,2],"img_shown":["img2/200/Incongruent/R/I_Dist_200_LN_7_LD_15_RN_6_RD_9_1.png","img2/200/Incongruent/R/I_Dist_200_LN_9_LD_15_RN_8_RD_10_1.png","img2/300/Congruent/R/C_Dist_300_LN_2_LD_20_RN_10_RD_25_1.png","img2/200/Incongruent/L/I_Dist_200_LN_7_LD_10_RN_8_RD_16_0.png","img2/300/Incongruent/L/I_Dist_300_LN_2_LD_4_RN_6_RD_30_0.png","img2/300/Incongruent/R/I_Dist_300_LN_4_LD_20_RN_2_RD_4_1.png","img2/200/Congruent/R/C_Dist_200_LN_1_LD_2_RN_21_RD_30_1.png","img2/300/Congruent/R/C_Dist_300_LN_3_LD_6_RN_4_RD_5_1.png","img2/200/Congruent/R/C_Dist_200_LN_3_LD_12_RN_9_RD_20_1.png","img2/300/Congruent/L/C_Dist_300_LN_20_LD_25_RN_9_RD_18_0.png","img2/200/Congruent/L/C_Dist_200_LN_4_LD_8_RN_3_RD_10_0.png","img2/200/Incongruent/L/I_Dist_200_LN_7_LD_10_RN_12_RD_24_0.png","img2/100/Congruent/L/C_Dist_100_LN_11_LD_22_RN_4_RD_10_0.png","img2/300/Incongruent/R/I_Dist_300_LN_13_LD_26_RN_12_RD_15_1.png","img2/100/Congruent/R/C_Dist_100_LN_4_LD_10_RN_15_RD_30_1.png","img2/200/Congruent/R/C_Dist_200_LN_6_LD_20_RN_11_RD_22_1.png","img2/100/Congruent/R/C_Dist_100_LN_2_LD_5_RN_11_RD_22_1.png","img2/200/Congruent/R/C_Dist_200_LN_3_LD_10_RN_14_RD_28_1.png","img2/300/Congruent/L/C_Dist_300_LN_9_LD_10_RN_3_RD_5_0.png","img2/100/Congruent/L/C_Dist_100_LN_10_LD_25_RN_3_RD_10_0.png","img2/300/Incongruent/R/I_Dist_300_LN_13_LD_26_RN_12_RD_15_1.png","img2/300/Congruent/L/C_Dist_300_LN_9_LD_10_RN_3_RD_5_0.png","img2/100/Congruent/R/C_Dist_100_LN_1_LD_2_RN_18_RD_30_1.png","img2/300/Incongruent/R/I_Dist_300_LN_4_LD_20_RN_2_RD_4_1.png","img2/300/Incongruent/L/I_Dist_300_LN_1_LD_2_RN_2_RD_10_0.png","img2/300/Congruent/L/C_Dist_300_LN_11_LD_22_RN_4_RD_20_0.png","img2/200/Incongruent/L/I_Dist_200_LN_1_LD_2_RN_3_RD_10_0.png","img2/200/Incongruent/L/I_Dist_200_LN_4_LD_6_RN_14_RD_30_0.png","img2/300/Congruent/L/C_Dist_300_LN_9_LD_10_RN_3_RD_5_0.png","img2/200/Congruent/L/C_Dist_200_LN_11_LD_22_RN_3_RD_10_0.png","img2/200/Incongruent/R/I_Dist_200_LN_6_LD_20_RN_3_RD_6_1.png","img2/300/Congruent/L/C_Dist_300_LN_24_LD_30_RN_2_RD_4_0.png","img2/300/Incongruent/R/I_Dist_300_LN_4_LD_20_RN_2_RD_4_1.png","img2/300/Congruent/L/C_Dist_300_LN_20_LD_25_RN_9_RD_18_0.png","img2/200/Incongruent/R/I_Dist_200_LN_3_LD_10_RN_1_RD_2_1.png","img2/100/Congruent/R/C_Dist_100_LN_7_LD_14_RN_9_RD_15_1.png","img2/100/Congruent/R/C_Dist_100_LN_6_LD_12_RN_15_RD_25_1.png","img2/300/Congruent/L/C_Dist_300_LN_4_LD_5_RN_2_RD_4_0.png","img2/300/Incongruent/L/I_Dist_300_LN_4_LD_5_RN_8_RD_16_0.png","img2/300/Incongruent/R/I_Dist_300_LN_4_LD_20_RN_2_RD_4_1.png","img2/200/Congruent/R/C_Dist_200_LN_3_LD_10_RN_7_RD_14_1.png","img2/200/Incongruent/R/I_Dist_200_LN_7_LD_15_RN_6_RD_9_1.png","img2/200/Incongruent/L/I_Dist_200_LN_4_LD_6_RN_14_RD_30_0.png","img2/100/Congruent/L/C_Dist_100_LN_8_LD_16_RN_2_RD_5_0.png","img2/300/Congruent/R/C_Dist_300_LN_2_LD_10_RN_12_RD_24_1.png","img2/100/Incongruent/R/I_Dist_100_LN_12_LD_24_RN_9_RD_15_1.png","img2/300/Incongruent/R/I_Dist_300_LN_13_LD_26_RN_12_RD_15_1.png","img2/200/Congruent/R/C_Dist_200_LN_3_LD_10_RN_14_RD_28_1.png","img2/200/Congruent/L/C_Dist_200_LN_11_LD_22_RN_3_RD_10_0.png","img2/100/Incongruent/R/I_Dist_100_LN_8_LD_16_RN_6_RD_10_1.png","img2/200/Congruent/R/C_Dist_200_LN_3_LD_10_RN_11_RD_22_1.png","img2/300/Congruent/L/C_Dist_300_LN_9_LD_10_RN_3_RD_5_0.png","img2/200/Incongruent/R/I_Dist_200_LN_9_LD_15_RN_8_RD_10_1.png","img2/200/Incongruent/R/I_Dist_200_LN_4_LD_30_RN_1_RD_3_1.png","img2/100/Incongruent/L/I_Dist_100_LN_9_LD_15_RN_14_RD_28_0.png","img2/100/Incongruent/L/I_Dist_100_LN_9_LD_15_RN_13_RD_26_0.png","img2/200/Congruent/L/C_Dist_200_LN_12_LD_20_RN_6_RD_15_0.png","img2/200/Incongruent/L/I_Dist_200_LN_4_LD_5_RN_6_RD_10_0.png","img2/100/Incongruent/R/I_Dist_100_LN_6_LD_12_RN_3_RD_5_1.png","img2/200/Incongruent/L/I_Dist_200_LN_7_LD_10_RN_8_RD_16_0.png","img2/100/Congruent/L/C_Dist_100_LN_9_LD_15_RN_8_RD_16_0.png","img2/100/Congruent/R/C_Dist_100_LN_12_LD_30_RN_13_RD_26_1.png","img2/300/Congruent/R/C_Dist_300_LN_5_LD_25_RN_7_RD_14_1.png","img2/200/Congruent/L/C_Dist_200_LN_8_LD_15_RN_7_RD_21_0.png","img2/100/Incongruent/L/I_Dist_100_LN_3_LD_6_RN_4_RD_10_0.png","img2/200/Incongruent/L/I_Dist_200_LN_4_LD_6_RN_14_RD_30_0.png","img2/200/Incongruent/R/I_Dist_200_LN_14_LD_30_RN_6_RD_9_1.png","img2/300/Incongruent/R/I_Dist_300_LN_4_LD_20_RN_2_RD_4_1.png","img2/100/Incongruent/R/I_Dist_100_LN_8_LD_16_RN_6_RD_10_1.png","img2/200/Congruent/R/C_Dist_200_LN_3_LD_12_RN_9_RD_20_1.png","img2/100/Incongruent/R/I_Dist_100_LN_8_LD_16_RN_6_RD_10_1.png","img2/300/Incongruent/L/I_Dist_300_LN_1_LD_2_RN_3_RD_15_0.png","img2/300/Congruent/R/C_Dist_300_LN_1_LD_3_RN_19_RD_30_1.png","img2/300/Congruent/L/C_Dist_300_LN_8_LD_16_RN_1_RD_5_0.png","img2/100/Incongruent/L/I_Dist_100_LN_2_LD_4_RN_6_RD_15_0.png","img2/100/Congruent/R/C_Dist_100_LN_2_LD_5_RN_11_RD_22_1.png","img2/300/Congruent/R/C_Dist_300_LN_5_LD_25_RN_7_RD_14_1.png","img2/300/Incongruent/R/I_Dist_300_LN_4_LD_20_RN_2_RD_4_1.png","img2/200/Incongruent/L/I_Dist_200_LN_7_LD_10_RN_12_RD_24_0.png","img2/100/Congruent/R/C_Dist_100_LN_7_LD_14_RN_15_RD_25_1.png","img2/200/Incongruent/L/I_Dist_200_LN_4_LD_6_RN_14_RD_30_0.png","img2/300/Incongruent/L/I_Dist_300_LN_4_LD_5_RN_8_RD_16_0.png","img2/200/Congruent/L/C_Dist_200_LN_16_LD_20_RN_12_RD_20_0.png","img2/200/Incongruent/R/I_Dist_200_LN_7_LD_15_RN_6_RD_9_1.png","img2/100/Incongruent/R/I_Dist_100_LN_12_LD_30_RN_2_RD_4_1.png","img2/100/Incongruent/R/I_Dist_100_LN_8_LD_16_RN_6_RD_10_1.png","img2/200/Congruent/L/C_Dist_200_LN_14_LD_28_RN_6_RD_20_0.png","img2/200/Congruent/R/C_Dist_200_LN_1_LD_2_RN_21_RD_30_1.png","img2/100/Congruent/L/C_Dist_100_LN_6_LD_20_RN_5_RD_25_0.png","img2/100/Congruent/R/C_Dist_100_LN_3_LD_20_RN_4_RD_16_1.png","img2/300/Incongruent/R/I_Dist_300_LN_4_LD_20_RN_2_RD_4_1.png","img2/300/Incongruent/L/I_Dist_300_LN_3_LD_6_RN_4_RD_20_0.png","img2/100/Incongruent/L/I_Dist_100_LN_6_LD_10_RN_13_RD_26_0.png","img2/300/Incongruent/R/I_Dist_300_LN_4_LD_20_RN_2_RD_4_1.png","img2/300/Incongruent/L/I_Dist_300_LN_3_LD_6_RN_4_RD_20_0.png","img2/300/Congruent/R/C_Dist_300_LN_3_LD_12_RN_11_RD_20_1.png","img2/100/Incongruent/L/I_Dist_100_LN_6_LD_10_RN_11_RD_22_0.png","img2/100/Incongruent/L/I_Dist_100_LN_2_LD_4_RN_8_RD_20_0.png","img2/300/Congruent/L/C_Dist_300_LN_20_LD_25_RN_8_RD_16_0.png","img2/100/Incongruent/L/I_Dist_100_LN_2_LD_4_RN_6_RD_15_0.png","img2/300/Incongruent/R/I_Dist_300_LN_4_LD_20_RN_2_RD_4_1.png","img2/300/Incongruent/R/I_Dist_300_LN_13_LD_26_RN_12_RD_15_1.png","img2/100/Congruent/R/C_Dist_100_LN_4_LD_8_RN_6_RD_10_1.png","img2/300/Congruent/L/C_Dist_300_LN_20_LD_25_RN_5_RD_10_0.png","img2/100/Incongruent/L/I_Dist_100_LN_3_LD_5_RN_11_RD_22_0.png","img2/100/Congruent/L/C_Dist_100_LN_11_LD_22_RN_4_RD_10_0.png","img2/200/Incongruent/R/I_Dist_200_LN_3_LD_10_RN_1_RD_2_1.png","img2/300/Congruent/R/C_Dist_300_LN_7_LD_14_RN_20_RD_25_1.png","img2/200/Congruent/R/C_Dist_200_LN_6_LD_12_RN_7_RD_10_1.png","img2/200/Congruent/L/C_Dist_200_LN_8_LD_15_RN_3_RD_9_0.png","img2/100/Congruent/R/C_Dist_100_LN_6_LD_12_RN_15_RD_25_1.png","img2/100/Congruent/L/C_Dist_100_LN_6_LD_20_RN_5_RD_25_0.png","img2/200/Congruent/L/C_Dist_200_LN_4_LD_8_RN_3_RD_10_0.png","img2/100/Incongruent/L/I_Dist_100_LN_6_LD_10_RN_13_RD_26_0.png","img2/200/Congruent/R/C_Dist_200_LN_7_LD_15_RN_18_RD_27_1.png","img2/100/Congruent/L/C_Dist_100_LN_3_LD_6_RN_2_RD_5_0.png","img2/100/Incongruent/R/I_Dist_100_LN_13_LD_26_RN_12_RD_20_1.png","img2/100/Incongruent/L/I_Dist_100_LN_9_LD_10_RN_20_RD_25_0.png","img2/100/Congruent/L/C_Dist_100_LN_3_LD_6_RN_2_RD_5_0.png","img2/100/Incongruent/R/I_Dist_100_LN_12_LD_24_RN_9_RD_15_1.png"],"dist100_C":[["C_Dist_100_LN_10_LD_25_RN_3_RD_10_0.png","C_Dist_100_LN_11_LD_22_RN_4_RD_10_0.png","C_Dist_100_LN_11_LD_22_RN_6_RD_15_0.png","C_Dist_100_LN_15_LD_25_RN_13_RD_26_0.png","C_Dist_100_LN_3_LD_6_RN_2_RD_5_0.png","C_Dist_100_LN_6_LD_20_RN_5_RD_25_0.png","C_Dist_100_LN_8_LD_16_RN_2_RD_5_0.png","C_Dist_100_LN_9_LD_15_RN_8_RD_16_0.png"],["C_Dist_100_LN_1_LD_2_RN_18_RD_30_1.png","C_Dist_100_LN_1_LD_2_RN_3_RD_5_1.png","C_Dist_100_LN_12_LD_30_RN_13_RD_26_1.png","C_Dist_100_LN_2_LD_5_RN_11_RD_22_1.png","C_Dist_100_LN_2_LD_5_RN_6_RD_12_1.png","C_Dist_100_LN_3_LD_20_RN_4_RD_16_1.png","C_Dist_100_LN_4_LD_10_RN_15_RD_30_1.png","C_Dist_100_LN_4_LD_8_RN_6_RD_10_1.png","C_Dist_100_LN_6_LD_12_RN_15_RD_25_1.png","C_Dist_100_LN_7_LD_14_RN_15_RD_25_1.png","C_Dist_100_LN_7_LD_14_RN_9_RD_15_1.png"]],"dist100_I":[["I_Dist_100_LN_1_LD_2_RN_8_RD_20_0.png","I_Dist_100_LN_2_LD_4_RN_6_RD_15_0.png","I_Dist_100_LN_2_LD_4_RN_8_RD_20_0.png","I_Dist_100_LN_3_LD_5_RN_11_RD_22_0.png","I_Dist_100_LN_3_LD_5_RN_8_RD_16_0.png","I_Dist_100_LN_3_LD_6_RN_4_RD_10_0.png","I_Dist_100_LN_3_LD_9_RN_7_RD_30_0.png","I_Dist_100_LN_4_LD_8_RN_8_RD_20_0.png","I_Dist_100_LN_6_LD_10_RN_11_RD_22_0.png","I_Dist_100_LN_6_LD_10_RN_13_RD_26_0.png","I_Dist_100_LN_6_LD_10_RN_7_RD_14_0.png","I_Dist_100_LN_9_LD_10_RN_20_RD_25_0.png","I_Dist_100_LN_9_LD_15_RN_13_RD_26_0.png","I_Dist_100_LN_9_LD_15_RN_14_RD_28_0.png"],["I_Dist_100_LN_10_LD_25_RN_8_RD_16_1.png","I_Dist_100_LN_10_LD_25_RN_9_RD_18_1.png","I_Dist_100_LN_11_LD_22_RN_9_RD_15_1.png","I_Dist_100_LN_12_LD_24_RN_9_RD_15_1.png","I_Dist_100_LN_12_LD_30_RN_2_RD_4_1.png","I_Dist_100_LN_13_LD_26_RN_12_RD_20_1.png","I_Dist_100_LN_13_LD_26_RN_6_RD_10_1.png","I_Dist_100_LN_17_LD_30_RN_10_RD_15_1.png","I_Dist_100_LN_6_LD_12_RN_3_RD_5_1.png","I_Dist_100_LN_8_LD_16_RN_6_RD_10_1.png","I_Dist_100_LN_8_LD_20_RN_1_RD_2_1.png","I_Dist_100_LN_9_LD_18_RN_6_RD_10_1.png"]],"dist100_S":[["E_Dist_100_LN_2_LD_12_RN_2_RD_30_0.png","E_Dist_100_LN_6_LD_10_RN_6_RD_12_0.png"],["E_Dist_100_LN_6_LD_12_RN_6_RD_10_1.png"]],"dist200_C":[["C_Dist_200_LN_11_LD_22_RN_3_RD_10_0.png","C_Dist_200_LN_12_LD_15_RN_6_RD_10_0.png","C_Dist_200_LN_12_LD_20_RN_6_RD_15_0.png","C_Dist_200_LN_14_LD_28_RN_6_RD_20_0.png","C_Dist_200_LN_15_LD_25_RN_4_RD_10_0.png","C_Dist_200_LN_16_LD_20_RN_12_RD_20_0.png","C_Dist_200_LN_16_LD_30_RN_9_RD_27_0.png","C_Dist_200_LN_20_LD_25_RN_9_RD_15_0.png","C_Dist_200_LN_21_LD_30_RN_2_RD_4_0.png","C_Dist_200_LN_4_LD_10_RN_3_RD_15_0.png","C_Dist_200_LN_4_LD_8_RN_3_RD_10_0.png","C_Dist_200_LN_6_LD_15_RN_3_RD_15_0.png","C_Dist_200_LN_7_LD_21_RN_2_RD_15_0.png","C_Dist_200_LN_8_LD_15_RN_2_RD_6_0.png","C_Dist_200_LN_8_LD_15_RN_3_RD_9_0.png","C_Dist_200_LN_8_LD_15_RN_7_RD_21_0.png","C_Dist_200_LN_9_LD_20_RN_4_RD_16_0.png"],["C_Dist_200_LN_1_LD_2_RN_21_RD_30_1.png","C_Dist_200_LN_13_LD_26_RN_14_RD_20_1.png","C_Dist_200_LN_3_LD_10_RN_11_RD_22_1.png","C_Dist_200_LN_3_LD_10_RN_14_RD_28_1.png","C_Dist_200_LN_3_LD_10_RN_7_RD_14_1.png","C_Dist_200_LN_3_LD_12_RN_9_RD_20_1.png","C_Dist_200_LN_3_LD_6_RN_14_RD_20_1.png","C_Dist_200_LN_5_LD_10_RN_14_RD_20_1.png","C_Dist_200_LN_6_LD_12_RN_7_RD_10_1.png","C_Dist_200_LN_6_LD_20_RN_11_RD_22_1.png","C_Dist_200_LN_7_LD_15_RN_18_RD_27_1.png","C_Dist_200_LN_9_LD_30_RN_13_RD_26_1.png"]],"dist200_I":[["I_Dist_200_LN_1_LD_2_RN_3_RD_10_0.png","I_Dist_200_LN_1_LD_3_RN_2_RD_15_0.png","I_Dist_200_LN_3_LD_4_RN_11_RD_20_0.png","I_Dist_200_LN_4_LD_5_RN_6_RD_10_0.png","I_Dist_200_LN_4_LD_6_RN_14_RD_30_0.png","I_Dist_200_LN_7_LD_10_RN_12_RD_24_0.png","I_Dist_200_LN_7_LD_10_RN_14_RD_28_0.png","I_Dist_200_LN_7_LD_10_RN_8_RD_16_0.png"],["I_Dist_200_LN_11_LD_20_RN_3_RD_4_1.png","I_Dist_200_LN_14_LD_30_RN_12_RD_18_1.png","I_Dist_200_LN_14_LD_30_RN_6_RD_9_1.png","I_Dist_200_LN_3_LD_10_RN_1_RD_2_1.png","I_Dist_200_LN_4_LD_30_RN_1_RD_3_1.png","I_Dist_200_LN_6_LD_20_RN_3_RD_6_1.png","I_Dist_200_LN_7_LD_15_RN_4_RD_6_1.png","I_Dist_200_LN_7_LD_15_RN_6_RD_9_1.png","I_Dist_200_LN_9_LD_15_RN_8_RD_10_1.png"]],"dist200_S":[["E_Dist_200_LN_3_LD_6_RN_3_RD_10_0.png"],["E_Dist_200_LN_3_LD_10_RN_3_RD_6_1.png"]],"dist300_C":[["C_Dist_300_LN_11_LD_22_RN_1_RD_5_0.png","C_Dist_300_LN_11_LD_22_RN_2_RD_10_0.png","C_Dist_300_LN_11_LD_22_RN_4_RD_20_0.png","C_Dist_300_LN_12_LD_24_RN_2_RD_10_0.png","C_Dist_300_LN_18_LD_20_RN_9_RD_15_0.png","C_Dist_300_LN_20_LD_25_RN_13_RD_26_0.png","C_Dist_300_LN_20_LD_25_RN_14_RD_28_0.png","C_Dist_300_LN_20_LD_25_RN_5_RD_10_0.png","C_Dist_300_LN_20_LD_25_RN_8_RD_16_0.png","C_Dist_300_LN_20_LD_25_RN_9_RD_18_0.png","C_Dist_300_LN_24_LD_30_RN_2_RD_4_0.png","C_Dist_300_LN_24_LD_30_RN_8_RD_16_0.png","C_Dist_300_LN_3_LD_6_RN_2_RD_10_0.png","C_Dist_300_LN_4_LD_10_RN_1_RD_10_0.png","C_Dist_300_LN_4_LD_5_RN_2_RD_4_0.png","C_Dist_300_LN_8_LD_16_RN_1_RD_5_0.png","C_Dist_300_LN_9_LD_10_RN_3_RD_5_0.png"],["C_Dist_300_LN_1_LD_20_RN_7_RD_20_1.png","C_Dist_300_LN_1_LD_3_RN_19_RD_30_1.png","C_Dist_300_LN_1_LD_30_RN_8_RD_24_1.png","C_Dist_300_LN_1_LD_5_RN_11_RD_22_1.png","C_Dist_300_LN_1_LD_5_RN_3_RD_6_1.png","C_Dist_300_LN_1_LD_5_RN_6_RD_12_1.png","C_Dist_300_LN_2_LD_10_RN_12_RD_24_1.png","C_Dist_300_LN_2_LD_20_RN_10_RD_25_1.png","C_Dist_300_LN_3_LD_12_RN_11_RD_20_1.png","C_Dist_300_LN_3_LD_6_RN_4_RD_5_1.png","C_Dist_300_LN_4_LD_20_RN_13_RD_26_1.png","C_Dist_300_LN_5_LD_25_RN_6_RD_12_1.png","C_Dist_300_LN_5_LD_25_RN_7_RD_14_1.png","C_Dist_300_LN_7_LD_14_RN_20_RD_25_1.png","C_Dist_300_LN_8_LD_15_RN_10_RD_12_1.png"]],"dist300_I":[["I_Dist_300_LN_1_LD_2_RN_2_RD_10_0.png","I_Dist_300_LN_1_LD_2_RN_3_RD_15_0.png","I_Dist_300_LN_2_LD_4_RN_6_RD_30_0.png","I_Dist_300_LN_3_LD_6_RN_4_RD_20_0.png","I_Dist_300_LN_4_LD_5_RN_6_RD_12_0.png","I_Dist_300_LN_4_LD_5_RN_8_RD_16_0.png","I_Dist_300_LN_7_LD_10_RN_8_RD_20_0.png","I_Dist_300_LN_8_LD_10_RN_14_RD_28_0.png","I_Dist_300_LN_8_LD_10_RN_9_RD_18_0.png"],["I_Dist_300_LN_13_LD_26_RN_12_RD_15_1.png","I_Dist_300_LN_4_LD_20_RN_2_RD_4_1.png"]],"dist300_S":[["E_Dist_300_LN_9_LD_12_RN_9_RD_20_0.png"],["E_Dist_300_LN_18_LD_30_RN_18_RD_20_1.png","E_Dist_300_LN_3_LD_10_RN_3_RD_5_1.png","E_Dist_300_LN_9_LD_20_RN_9_RD_12_1.png"]],"dist500_C":[["C_Dist_500_LN_10_LD_13_RN_7_RD_26_0.png","C_Dist_500_LN_10_LD_15_RN_4_RD_24_0.png","C_Dist_500_LN_12_LD_16_RN_3_RD_12_0.png","C_Dist_500_LN_12_LD_18_RN_4_RD_24_0.png","C_Dist_500_LN_15_LD_18_RN_5_RD_15_0.png","C_Dist_500_LN_15_LD_20_RN_1_RD_4_0.png","C_Dist_500_LN_18_LD_27_RN_1_RD_6_0.png","C_Dist_500_LN_20_LD_24_RN_1_RD_3_0.png","C_Dist_500_LN_20_LD_24_RN_3_RD_9_0.png","C_Dist_500_LN_20_LD_24_RN_7_RD_21_0.png","C_Dist_500_LN_20_LD_28_RN_3_RD_14_0.png","C_Dist_500_LN_21_LD_28_RN_6_RD_24_0.png","C_Dist_500_LN_22_LD_28_RN_2_RD_7_0.png","C_Dist_500_LN_25_LD_30_RN_9_RD_27_0.png","C_Dist_500_LN_4_LD_6_RN_1_RD_6_0.png","C_Dist_500_LN_5_LD_6_RN_2_RD_6_0.png","C_Dist_500_LN_6_LD_9_RN_1_RD_6_0.png","C_Dist_500_LN_7_LD_10_RN_1_RD_5_0.png","C_Dist_500_LN_8_LD_12_RN_1_RD_6_0.png","C_Dist_500_LN_8_LD_12_RN_4_RD_24_0.png"],["C_Dist_500_LN_1_LD_4_RN_12_RD_16_1.png","C_Dist_500_LN_1_LD_4_RN_9_RD_12_1.png","C_Dist_500_LN_1_LD_9_RN_11_RD_18_1.png","C_Dist_500_LN_10_LD_24_RN_22_RD_24_1.png","C_Dist_500_LN_2_LD_12_RN_10_RD_15_1.png","C_Dist_500_LN_2_LD_12_RN_12_RD_18_1.png","C_Dist_500_LN_2_LD_12_RN_4_RD_6_1.png","C_Dist_500_LN_2_LD_24_RN_7_RD_12_1.png","C_Dist_500_LN_2_LD_5_RN_18_RD_20_1.png","C_Dist_500_LN_2_LD_5_RN_9_RD_10_1.png","C_Dist_500_LN_2_LD_8_RN_12_RD_16_1.png","C_Dist_500_LN_2_LD_8_RN_21_RD_28_1.png","C_Dist_500_LN_3_LD_10_RN_4_RD_5_1.png","C_Dist_500_LN_3_LD_12_RN_15_RD_20_1.png","C_Dist_500_LN_3_LD_30_RN_6_RD_10_1.png","C_Dist_500_LN_3_LD_8_RN_14_RD_16_1.png","C_Dist_500_LN_4_LD_16_RN_15_RD_20_1.png","C_Dist_500_LN_4_LD_24_RN_12_RD_18_1.png","C_Dist_500_LN_5_LD_14_RN_6_RD_7_1.png","C_Dist_500_LN_7_LD_21_RN_20_RD_24_1.png","C_Dist_500_LN_7_LD_28_RN_12_RD_16_1.png","C_Dist_500_LN_7_LD_28_RN_9_RD_12_1.png","C_Dist_500_LN_9_LD_27_RN_20_RD_24_1.png"]],"dist500_I":[["I_Dist_500_LN_2_LD_3_RN_4_RD_24_0.png","I_Dist_500_LN_5_LD_6_RN_6_RD_18_0.png","I_Dist_500_LN_7_LD_8_RN_9_RD_24_0.png"],["I_Dist_500_LN_7_LD_21_RN_5_RD_6_1.png"]],"dist500_S":[["E_Dist_500_LN_6_LD_8_RN_6_RD_24_0.png"],["E_Dist_500_LN_2_LD_12_RN_2_RD_3_1.png","E_Dist_500_LN_6_LD_24_RN_6_RD_8_1.png"]]}},{"start_time":1552327473265,"click_time":1552327475192,"finger_time":1552327474752,"fix_duration":250,"trial":1,"RT":1487,"MT":440,"sideResp":2,"stimulus":[],"xmouse":[771,771,771,771,771,771,771,771,771,771,771,771,771,771,771,771,771,771,771,771,771,771,771,771,771,771,771,771,771,771,771,771,771,771,771,771,771,771,771,771,771,771,771,771,771,771,772,773,774,777,779,785,788,789,792,794,794,795,795,795,795,795,795,795,795,795,795,795,795,795,795,798,807,824,852,915,1010,1053,1088,1113,1132,1157,1164,1167,1169,1169,1171,1171,1171,1171,1170,1162,1159,1156,1151,1149,1144],"ymouse":[550,550,550,550,550,550,550,550,550,549,548,548,548,548,548,548,548,548,548,548,548,548,548,548,548,548,548,548,548,548,548,548,548,548,548,548,548,548,548,548,548,548,548,548,548,548,547,547,546,545,543,539,537,536,534,533,532,532,532,532,532,532,532,532,532,532,532,531,531,531,530,528,521,509,489,444,372,334,297,268,244,208,196,186,177,174,165,160,156,152,149,141,138,133,122,114,98],"timestamp_mouse":[10,27,46,67,87,107,126,146,166,186,207,226,246,266,287,305,327,347,366,386,407,427,447,466,487,507,527,546,567,586,605,627,647,666,687,707,726,746,766,787,806,827,847,866,887,906,927,947,965,987,1005,1027,1046,1067,1087,1106,1127,1146,1166,1187,1206,1227,1247,1265,1286,1306,1327,1346,1366,1387,1406,1427,1445,1465,1487,1507,1526,1546,1566,1586,1605,1626,1647,1667,1686,1706,1726,1746,1767,1786,1806,1826,1846,1866,1886,1907,1926],"xSR":741.5,"ySR":469.95,"xT1":424.9,"yT1":0,"xT2":1058.1,"yT2":0,"toosoon":0,"cond_shown":"Incongruent","ratio_trial":200,"L_num":9,"L_den":15,"R_num":8,"R_den":10,"correct_side":2,"subjID":"juanjosemoreno6","gender":"0","school":"4","age":"9"},{"start_time":1552327478783,"click_time":1552327480432,"finger_time":1552327479791,"fix_duration":250,"trial":2,"RT":1008,"MT":641,"sideResp":2,"stimulus":[],"xmouse":[786,786,786,786,786,786,786,786,786,786,786,786,786,785,785,785,784,784,784,784,784,784,784,784,784,784,784,784,784,784,784,784,784,784,784,784,784,784,784,784,784,784,784,784,784,784,791,806,814,827,853,871,891,912,939,972,983,994,999,1008,1022,1027,1031,1037,1041,1054,1059,1063,1070,1072,1073,1074,1075,1077,1080,1086,1087,1089,1094,1098,1104,1107,1111],"ymouse":[521,521,521,521,521,521,521,521,521,521,522,522,522,522,522,522,522,522,522,522,522,522,522,522,522,522,522,522,522,522,522,522,522,522,522,522,522,522,522,522,522,522,522,522,522,522,517,505,498,486,462,445,427,409,387,358,347,332,318,299,276,266,258,249,241,219,209,196,180,172,162,158,153,147,141,132,130,127,120,117,109,105,99],"timestamp_mouse":[13,42,48,69,89,109,128,149,168,189,207,229,248,268,288,309,328,348,369,388,409,428,448,469,488,508,528,548,568,589,607,629,649,669,688,708,729,749,768,788,809,828,849,869,889,908,929,949,968,989,1008,1028,1048,1068,1089,1108,1128,1149,1168,1188,1208,1229,1248,1268,1289,1308,1329,1348,1368,1389,1408,1428,1448,1468,1489,1508,1527,1549,1569,1589,1608,1628,1649],"xSR":741.5,"ySR":469.95,"xT1":424.9,"yT1":0,"xT2":1058.1,"yT2":0,"toosoon":0,"cond_shown":"Congruent","ratio_trial":300,"L_num":2,"L_den":20,"R_num":10,"R_den":25,"correct_side":2,"subjID":"juanjosemoreno6","gender":"0","school":"4","age":"9"},{"start_time":1552327482569,"click_time":1552327484752,"finger_time":1552327483991,"fix_duration":1296.0553504701202,"trial":3,"RT":1422,"MT":761,"sideResp":1,"stimulus":[],"xmouse":[798,798,798,798,798,798,798,798,798,798,798,798,798,798,798,798,798,798,798,798,798,798,798,798,798,798,798,798,798,798,798,798,798,798,798,798,798,798,798,798,798,798,798,798,798,803,805,807,807,807,807,807,807,807,807,807,807,807,807,807,807,807,807,807,807,807,807,808,808,808,803,796,788,780,772,767,755,749,740,734,729,716,699,674,646,625,610,601,596,587,564,555,555,555,555,554,551,551,551,550,548,548,547,545,545,542,534,529,526,524],"ymouse":[529,529,529,529,529,529,529,529,529,529,529,529,529,529,529,529,529,529,529,529,529,529,529,529,529,529,529,529,529,529,529,529,529,529,529,529,529,529,529,529,529,529,529,529,529,528,526,524,524,524,524,524,524,524,524,524,524,524,524,524,524,524,524,524,524,524,524,523,520,509,484,434,396,362,327,299,266,258,253,252,250,248,243,235,227,215,207,200,198,195,184,180,180,180,180,180,179,179,177,170,156,145,141,138,138,133,120,107,96,85],"timestamp_mouse":[12,35,42,62,83,102,122,143,163,184,203,222,243,262,283,302,323,343,362,381,403,422,443,462,483,502,522,543,561,583,602,622,643,663,683,702,722,742,763,783,803,822,843,863,882,904,922,943,962,983,1002,1023,1042,1063,1082,1103,1122,1142,1162,1183,1202,1223,1242,1263,1283,1303,1322,1341,1363,1383,1402,1422,1442,1463,1483,1503,1522,1542,1562,1582,1603,1622,1642,1662,1682,1702,1722,1743,1762,1782,1803,1822,1842,1862,1883,1903,1923,1943,1961,1981,2003,2023,2042,2063,2082,2102,2123,2143,2163,2183],"xSR":741.5,"ySR":469.95,"xT1":424.9,"yT1":0,"xT2":1058.1,"yT2":0,"toosoon":0,"cond_shown":"Incongruent","ratio_trial":200,"L_num":7,"L_den":10,"R_num":8,"R_den":16,"correct_side":1,"subjID":"juanjosemoreno6","gender":"0","school":"4","age":"9"},{"start_time":1552327487392,"click_time":1552327489691,"finger_time":1552327488711,"fix_duration":1460.4267295401103,"trial":4,"RT":1319,"MT":980,"sideResp":2,"stimulus":[],"xmouse":[785,785,785,785,785,785,785,785,785,785,785,785,785,785,785,785,785,785,785,785,785,785,785,785,785,785,785,785,785,785,785,785,785,785,785,785,785,785,785,785,785,785,785,785,785,785,785,785,785,785,785,785,785,785,785,785,785,785,785,785,785,785,785,785,758,738,712,683,671,654,648,644,640,638,632,627,621,613,599,582,575,569,565,562,561,561,561,562,565,570,576,587,607,631,684,715,759,783,807,863,888,909,928,942,966,979,995,1019,1035,1051,1056,1066,1076,1089,1110],"ymouse":[512,512,512,512,512,512,512,512,512,512,512,512,512,512,512,512,512,512,512,512,512,512,512,512,512,512,512,512,512,512,512,512,512,512,512,512,512,512,512,512,512,512,512,512,512,512,512,512,512,512,512,512,512,512,512,512,512,512,512,512,512,511,510,505,473,450,420,378,354,318,306,298,291,286,274,265,257,247,233,214,207,202,198,195,194,194,194,194,194,197,204,216,229,243,270,280,284,284,282,261,251,238,225,214,194,185,178,164,157,146,142,136,127,117,98],"timestamp_mouse":[38,39,60,80,100,119,140,159,179,199,220,239,260,279,299,320,339,360,380,399,420,440,460,480,499,520,540,560,580,600,619,640,660,679,699,719,740,759,779,799,820,839,860,879,899,920,940,960,979,1000,1020,1040,1060,1079,1100,1119,1140,1160,1179,1199,1220,1239,1259,1279,1299,1319,1340,1359,1380,1398,1419,1439,1459,1479,1499,1519,1539,1559,1580,1599,1620,1640,1660,1680,1699,1719,1739,1759,1779,1799,1819,1839,1859,1879,1899,1920,1940,1960,1979,1999,2018,2040,2059,2079,2099,2119,2140,2160,2180,2199,2219,2239,2259,2280,2299],"xSR":741.5,"ySR":469.95,"xT1":424.9,"yT1":0,"xT2":1058.1,"yT2":0,"toosoon":0,"cond_shown":"Incongruent","ratio_trial":300,"L_num":2,"L_den":4,"R_num":6,"R_den":30,"correct_side":1,"subjID":"juanjosemoreno6","gender":"0","school":"4","age":"9"},{"start_time":1552327492522,"click_time":1552327494691,"finger_time":1552327494252,"fix_duration":1270.6823922846481,"trial":5,"RT":1730,"MT":439,"sideResp":2,"stimulus":[],"xmouse":[799,799,799,799,799,799,799,799,799,799,799,799,799,799,799,799,799,799,799,799,799,799,799,799,799,799,799,799,799,799,799,799,799,799,799,799,799,799,799,799,799,799,799,799,799,799,799,799,800,800,800,800,800,800,800,800,800,800,800,800,800,800,800,800,800,800,800,800,800,800,800,800,800,800,800,800,800,800,800,800,800,802,810,819,823,828,837,847,877,896,912,932,946,971,985,996,1007,1019,1042,1054,1065,1068,1075,1085,1090,1097,1101,1105,1106],"ymouse":[502,502,502,502,502,502,502,502,502,502,502,502,502,502,502,502,502,502,502,502,502,502,502,502,502,502,502,502,502,502,502,502,502,502,502,502,502,502,502,502,502,502,502,502,502,502,502,502,501,501,501,501,501,501,501,501,501,501,501,501,501,501,501,501,501,501,501,501,501,501,501,501,501,501,501,501,501,501,501,501,501,498,491,482,478,473,467,460,436,420,403,380,365,342,327,317,305,292,265,249,227,219,195,164,149,134,119,108,96],"timestamp_mouse":[12,42,49,70,90,110,130,149,169,189,210,230,250,270,289,310,329,349,370,389,410,429,449,469,490,510,529,550,569,590,609,629,649,669,690,709,730,749,769,789,810,829,849,869,889,909,930,950,970,989,1009,1030,1049,1069,1090,1110,1130,1149,1169,1190,1210,1230,1249,1269,1289,1310,1329,1349,1369,1389,1409,1429,1450,1469,1490,1510,1530,1550,1570,1590,1609,1629,1649,1669,1689,1709,1730,1749,1770,1789,1810,1829,1849,1869,1889,1909,1930,1949,1969,1990,2009,2031,2049,2069,2089,2109,2130,2149,2169],"xSR":741.5,"ySR":469.95,"xT1":424.9,"yT1":0,"xT2":1058.1,"yT2":0,"toosoon":0,"cond_shown":"Incongruent","ratio_trial":300,"L_num":4,"L_den":20,"R_num":2,"R_den":4,"correct_side":2,"subjID":"juanjosemoreno6","gender":"0","school":"4","age":"9"},{"start_time":1552327498722,"click_time":1552327505771,"finger_time":1552327505291,"fix_duration":1087.1472147957786,"trial":6,"RT":6569,"MT":480,"sideResp":2,"stimulus":[],"xmouse":[797,797,797,797,797,797,797,797,797,797,797,797,797,797,797,797,797,797,797,797,797,797,797,797,797,797,797,797,797,797,797,797,797,797,797,797,797,797,797,797,797,797,797,797,797,797,797,797,797,797,797,797,797,797,797,797,797,797,797,797,797,797,797,797,797,797,797,797,797,797,797,797,797,797,797,797,797,797,797,797,797,797,797,797,797,797,797,797,797,797,797,797,797,797,797,797,797,797,797,797,797,797,797,797,797,797,797,797,797,797,797,797,797,797,797,797,797,797,797,797,797,797,797,797,797,797,797,797,797,797,797,797,797,797,797,797,797,797,797,797,797,797,797,797,797,797,797,797,797,797,797,797,797,797,797,797,797,797,797,797,797,797,797,797,797,797,797,797,797,797,797,797,797,797,797,797,797,797,797,797,797,797,797,797,797,797,797,797,797,797,797,797,797,797,797,797,797,797,797,797,797,797,797,797,797,797,797,797,797,797,797,797,797,797,797,797,797,797,797,797,797,797,797,797,797,797,797,797,797,797,797,797,797,797,797,797,797,797,797,797,797,797,797,797,797,797,797,797,797,797,797,797,797,797,797,797,797,797,797,797,797,797,797,797,797,797,797,797,797,797,797,797,797,797,797,797,797,797,797,797,797,797,797,797,797,797,797,797,797,797,797,797,797,797,797,797,797,797,797,797,797,797,797,797,797,797,797,797,797,797,797,797,797,797,797,797,798,798,798,799,799,799,799,801,810,820,824,826,836,842,849,853,853,823,806,794,788,789,833,864,893,925,937,954,961,966,972,977,997,1010,1026,1051,1068],"ymouse":[517,517,517,517,517,517,517,517,517,517,517,517,517,517,517,517,517,517,517,517,517,517,517,517,517,517,517,517,517,517,517,517,517,517,517,517,517,517,517,517,517,517,517,517,517,517,517,517,517,517,517,517,517,517,517,517,517,517,517,517,517,517,517,517,517,517,517,517,517,517,517,517,517,517,517,517,517,517,517,517,517,517,517,517,517,517,517,517,517,517,517,517,517,517,517,517,517,517,517,517,517,517,517,517,517,517,517,517,517,517,517,517,517,517,517,517,517,517,517,517,517,517,517,517,517,517,517,517,517,517,517,517,517,517,517,517,517,517,517,517,517,517,517,517,517,517,517,517,517,517,517,517,517,517,517,517,517,517,517,517,517,517,517,517,517,517,517,517,517,517,517,517,517,517,517,517,517,517,517,517,517,517,517,517,517,517,517,517,517,517,517,517,517,517,517,517,517,517,517,517,517,517,517,517,517,517,517,517,517,517,517,517,517,517,517,517,517,517,517,517,517,517,517,517,517,517,517,517,517,517,517,517,517,517,517,517,517,517,517,517,517,517,517,517,517,517,517,517,517,517,517,517,517,517,517,517,517,517,517,517,517,517,517,517,517,517,517,517,517,517,517,517,517,517,517,517,517,517,517,517,517,517,517,517,517,517,517,517,517,517,517,517,517,517,517,517,517,517,517,517,517,517,517,517,517,517,517,517,517,517,517,517,517,517,517,515,514,514,514,514,514,514,514,514,507,499,494,487,467,458,449,438,422,380,357,337,316,301,270,253,241,221,210,194,185,179,171,166,148,135,114,85,70],"timestamp_mouse":[9,41,49,69,89,110,129,150,170,189,210,229,250,269,290,310,330,349,370,390,409,429,450,470,490,510,530,549,570,589,610,630,651,669,690,709,729,749,769,790,809,829,849,869,889,909,930,949,970,990,1009,1029,1050,1069,1090,1109,1129,1149,1170,1189,1209,1230,1249,1269,1290,1310,1330,1349,1370,1390,1410,1429,1449,1470,1489,1509,1530,1550,1570,1589,1610,1629,1649,1670,1689,1710,1729,1750,1770,1790,1809,1829,1849,1869,1890,1910,1929,1950,1969,1990,2010,2029,2051,2069,2090,2110,2129,2150,2169,2189,2210,2230,2249,2269,2290,2309,2329,2349,2369,2390,2409,2429,2449,2469,2490,2509,2529,2549,2570,2590,2609,2630,2649,2669,2690,2710,2729,2749,2770,2790,2809,2831,2849,2869,2890,2910,2929,2949,2970,2990,3009,3029,3050,3069,3089,3110,3130,3150,3170,3190,3210,3229,3249,3269,3289,3310,3330,3349,3369,3389,3410,3429,3449,3470,3489,3510,3529,3551,3570,3590,3610,3630,3650,3670,3689,3710,3729,3750,3770,3790,3810,3829,3850,3870,3890,3910,3929,3950,3969,3990,4009,4029,4050,4070,4090,4110,4130,4149,4169,4189,4209,4229,4249,4269,4289,4309,4329,4349,4369,4390,4409,4429,4449,4469,4489,4509,4529,4549,4569,4590,4610,4629,4649,4669,4689,4709,4729,4750,4769,4789,4810,4830,4849,4869,4890,4909,4929,4949,4969,4990,5010,5029,5050,5069,5090,5110,5129,5149,5169,5189,5210,5230,5250,5270,5290,5311,5329,5350,5370,5389,5409,5429,5450,5469,5489,5509,5529,5550,5569,5590,5609,5629,5649,5670,5690,5709,5729,5750,5770,5789,5809,5830,5850,5869,5889,5909,5929,5949,5969,5989,6010,6029,6049,6069,6091,6110,6130,6149,6169,6189,6209,6229,6249,6269,6290,6309,6329,6350,6370,6390,6410,6429,6450,6469,6489,6510,6529,6550,6569,6590,6609,6629,6650,6669,6690,6709,6729,6749,6769,6789,6809,6829,6849,6869,6889,6909,6930,6950,6969,6990,7010,7029,7049],"xSR":741.5,"ySR":469.95,"xT1":424.9,"yT1":0,"xT2":1058.1,"yT2":0,"toosoon":0,"cond_shown":"Congruent","ratio_trial":200,"L_num":1,"L_den":2,"R_num":21,"R_den":30,"correct_side":2,"subjID":"juanjosemoreno6","gender":"0","school":"4","age":"9"},{"start_time":1552327507204,"click_time":1552327509432,"finger_time":1552327508932,"fix_duration":250,"trial":7,"RT":1728,"MT":500,"sideResp":2,"stimulus":[],"xmouse":[785,783,783,783,783,783,783,783,783,783,783,783,783,783,783,783,783,783,783,783,783,783,783,783,783,783,783,783,783,783,783,783,783,783,783,783,783,783,783,783,783,783,783,783,783,783,783,783,783,783,783,783,783,783,783,783,783,783,783,783,783,783,783,783,783,783,783,783,783,783,783,783,783,783,783,783,783,783,783,788,794,801,805,811,825,831,838,843,848,854,857,863,871,877,897,906,913,916,927,944,952,960,970,978,991,997,1005,1016,1026,1047,1057,1068],"ymouse":[525,526,526,526,526,526,526,526,526,526,526,526,526,526,526,526,526,526,526,526,526,526,526,526,526,526,526,526,526,526,526,526,526,526,526,526,526,526,526,526,526,526,526,526,526,526,526,526,526,526,526,526,526,526,526,526,526,526,526,526,526,526,526,526,526,526,526,526,526,526,526,526,526,526,526,526,526,526,526,523,521,517,512,506,483,472,460,449,437,425,416,407,391,374,336,318,302,295,274,253,241,226,213,198,176,168,157,139,123,89,69,51],"timestamp_mouse":[13,36,46,68,87,107,128,147,167,188,208,228,248,267,287,308,328,348,367,387,407,428,447,467,487,508,527,547,567,587,608,628,648,667,687,708,727,748,768,787,808,828,848,867,887,908,927,947,967,987,1007,1028,1048,1068,1087,1108,1128,1147,1168,1188,1208,1228,1248,1268,1287,1308,1328,1347,1368,1388,1408,1427,1448,1468,1487,1507,1527,1548,1567,1587,1606,1628,1647,1667,1687,1707,1728,1747,1768,1787,1808,1828,1847,1867,1887,1907,1927,1948,1967,1987,2008,2027,2047,2068,2088,2109,2128,2147,2167,2187,2208,2227],"xSR":741.5,"ySR":469.95,"xT1":424.9,"yT1":0,"xT2":1058.1,"yT2":0,"toosoon":0,"cond_shown":"Congruent","ratio_trial":300,"L_num":3,"L_den":6,"R_num":4,"R_den":5,"correct_side":2,"subjID":"juanjosemoreno6","gender":"0","school":"4","age":"9"},{"start_time":1552327511112,"click_time":1552327512713,"finger_time":1552327512291,"fix_duration":499.9269127113627,"trial":8,"RT":1179,"MT":422,"sideResp":2,"stimulus":[],"xmouse":[820,820,820,820,820,820,820,820,820,820,820,820,820,820,820,820,820,820,820,820,820,820,820,820,820,820,820,820,820,820,820,820,820,820,820,820,820,820,822,824,824,824,824,824,824,824,824,824,824,824,824,824,824,824,824,826,829,838,859,867,877,879,887,902,910,919,927,935,950,959,968,983,994,1011,1019,1026,1033,1039,1046,1064],"ymouse":[520,520,520,520,520,520,520,520,520,520,520,520,520,520,520,520,520,520,520,520,520,520,520,520,520,520,520,520,520,520,520,520,520,520,520,520,520,520,518,516,516,516,516,516,516,516,516,516,516,516,516,516,516,516,516,513,509,501,475,463,445,439,417,380,362,340,319,296,247,224,202,170,153,122,110,101,92,85,75,73],"timestamp_mouse":[20,46,59,80,100,120,139,160,180,200,220,240,259,280,299,320,340,360,380,400,419,440,460,479,500,519,540,559,579,600,620,639,660,679,699,721,739,759,779,800,820,839,859,879,900,919,940,960,980,1000,1020,1039,1059,1079,1099,1119,1140,1159,1179,1200,1219,1240,1259,1279,1300,1320,1339,1359,1379,1399,1419,1439,1459,1479,1500,1519,1539,1559,1579,1600],"xSR":741.5,"ySR":469.95,"xT1":424.9,"yT1":0,"xT2":1058.1,"yT2":0,"toosoon":0,"cond_shown":"Congruent","ratio_trial":200,"L_num":3,"L_den":12,"R_num":9,"R_den":20,"correct_side":2,"subjID":"juanjosemoreno6","gender":"0","school":"4","age":"9"},{"start_time":1552327515472,"click_time":1552327518891,"finger_time":1552327516891,"fix_duration":958.7632936870915,"trial":9,"RT":1419,"MT":2000,"sideResp":1,"stimulus":[],"xmouse":[793,793,793,793,793,793,793,793,793,793,793,793,793,793,793,793,793,793,793,793,793,793,793,793,793,793,793,793,793,793,793,793,793,793,793,793,793,793,793,793,793,793,793,793,793,793,793,793,793,793,793,793,793,793,793,793,793,793,793,793,793,793,793,793,793,793,793,793,792,791,788,723,650,561,484,404,342,318,300,289,282,271,271,271,271,271,271,271,271,271,271,271,271,271,271,271,271,271,271,271,271,271,271,271,271,271,271,271,271,271,271,271,271,271,271,271,271,271,271,271,271,271,271,271,271,271,271,271,271,271,271,271,271,271,271,271,271,271,271,271,271,271,271,271,271,271,271,271,271,271,271,271,271,271,271,271,1274,1050,910,887,893,978,993,994,991,976,894,820,750,668,596,480],"ymouse":[521,521,521,521,521,521,521,521,521,521,521,521,521,521,521,521,521,521,521,521,521,521,521,521,521,521,521,521,521,521,521,521,521,521,521,521,521,521,521,521,521,521,521,521,521,521,521,521,521,521,521,521,521,521,521,521,521,521,521,521,521,521,521,521,521,521,521,521,521,521,519,483,452,412,370,311,211,160,117,76,44,4,4,4,4,4,4,4,4,4,4,4,4,4,4,4,4,4,4,4,4,4,4,4,4,4,4,4,4,4,4,4,4,4,4,4,4,4,4,4,4,4,4,4,4,4,4,4,4,4,4,4,4,4,4,4,4,4,4,4,4,4,4,4,4,4,4,4,4,4,4,4,4,4,4,4,48,94,123,132,132,110,101,100,100,101,112,113,113,113,107,88],"timestamp_mouse":[1,34,39,59,79,100,119,139,160,179,199,219,239,259,279,299,319,340,360,379,400,420,439,460,480,499,519,540,560,579,599,620,639,659,680,699,719,740,760,779,801,819,840,860,879,900,920,939,959,979,1000,1019,1039,1060,1079,1099,1120,1139,1160,1179,1200,1219,1239,1260,1281,1299,1319,1340,1360,1379,1400,1419,1440,1460,1479,1500,1519,1539,1560,1579,1599,1620,1639,1659,1679,1699,1720,1740,1760,1779,1800,1820,1840,1858,1879,1899,1920,1939,1960,1979,2000,2019,2040,2059,2079,2100,2120,2140,2160,2180,2200,2219,2239,2260,2279,2300,2319,2340,2360,2380,2400,2419,2440,2459,2480,2500,2519,2540,2559,2580,2600,2618,2640,2659,2679,2699,2719,2740,2759,2780,2800,2819,2839,2859,2879,2900,2919,2939,2960,2979,3000,3020,3039,3060,3079,3099,3119,3139,3159,3179,3200,3219,3239,3259,3280,3299,3319,3339,3359,3379,3399,3419],"xSR":741.5,"ySR":469.95,"xT1":424.9,"yT1":0,"xT2":1058.1,"yT2":0,"toosoon":0,"cond_shown":"Congruent","ratio_trial":300,"L_num":20,"L_den":25,"R_num":9,"R_den":18,"correct_side":1,"subjID":"juanjosemoreno6","gender":"0","school":"4","age":"9"},{"start_time":1552327525099,"click_time":1552327527131,"finger_time":1552327526651,"fix_duration":906.53531094871,"trial":10,"RT":1552,"MT":480,"sideResp":1,"stimulus":[],"xmouse":[772,772,772,772,772,772,772,772,772,772,772,772,772,772,772,772,772,772,772,772,772,772,772,772,772,772,772,772,772,772,772,772,772,772,772,772,772,772,772,772,772,772,772,772,772,772,772,772,772,772,772,772,772,772,772,772,772,772,772,772,772,772,772,772,772,772,772,772,772,772,774,776,777,778,778,775,769,761,752,721,699,674,643,630,613,611,611,611,611,611,611,611,610,608,594,581,566,546,526,497,489,486],"ymouse":[506,506,506,506,506,506,506,506,506,506,506,506,506,506,506,506,506,506,506,506,506,506,506,506,506,506,506,506,506,506,506,506,506,506,506,506,506,506,506,506,506,506,506,506,506,506,506,506,506,506,506,506,506,506,506,506,506,506,506,506,506,506,506,506,506,506,506,506,506,506,502,499,495,488,481,477,470,461,450,419,401,377,341,321,294,288,286,286,286,286,286,286,284,279,258,240,218,190,165,118,100,86],"timestamp_mouse":[13,41,52,73,93,112,132,153,172,193,213,233,253,272,292,312,332,352,372,392,412,433,452,473,493,512,533,553,573,593,613,633,653,672,692,712,732,753,773,792,813,833,852,873,892,912,933,953,972,993,1012,1033,1052,1072,1093,1113,1132,1153,1173,1192,1213,1232,1252,1272,1293,1314,1332,1353,1372,1393,1412,1432,1453,1472,1492,1512,1532,1552,1573,1592,1613,1633,1652,1672,1692,1712,1732,1752,1773,1793,1812,1832,1852,1873,1892,1912,1932,1953,1972,1993,2013,2032],"xSR":741.5,"ySR":469.95,"xT1":424.9,"yT1":0,"xT2":1058.1,"yT2":0,"toosoon":0,"cond_shown":"Congruent","ratio_trial":200,"L_num":4,"L_den":8,"R_num":3,"R_den":10,"correct_side":1,"subjID":"juanjosemoreno6","gender":"0","school":"4","age":"9"},{"start_time":1552327528784,"click_time":1552327530492,"finger_time":1552327529771,"fix_duration":250,"trial":11,"RT":987,"MT":721,"sideResp":1,"stimulus":[],"xmouse":[806,806,806,806,806,806,806,806,806,806,806,806,806,806,806,806,806,806,806,806,806,806,806,806,806,806,806,806,806,806,806,806,806,806,806,806,806,806,806,806,806,806,806,806,806,812,819,834,839,851,865,869,871,871,871,871,871,871,871,871,871,871,871,871,871,871,871,871,871,871,863,849,822,779,713,579,519,474,431,420,410,409,409,410,416,441],"ymouse":[525,525,524,524,524,524,524,524,524,524,524,524,524,524,524,524,524,524,524,524,524,524,524,524,524,524,524,524,524,524,524,524,524,524,524,524,524,524,524,524,524,524,524,524,523,516,509,492,484,466,447,441,439,439,439,439,439,439,439,439,439,439,439,439,439,439,439,439,439,438,426,417,405,389,369,312,272,234,185,158,120,108,101,95,91,87],"timestamp_mouse":[12,38,47,67,88,107,128,147,167,187,208,228,248,268,288,308,328,348,367,388,408,428,448,468,487,508,528,548,567,588,607,628,648,668,687,708,728,748,767,788,807,828,848,867,887,907,928,947,967,987,1008,1027,1047,1068,1087,1107,1127,1147,1168,1187,1207,1227,1248,1267,1287,1307,1327,1347,1367,1387,1407,1427,1447,1467,1488,1507,1528,1547,1568,1587,1607,1628,1648,1667,1688,1707],"xSR":741.5,"ySR":469.95,"xT1":424.9,"yT1":0,"xT2":1058.1,"yT2":0,"toosoon":0,"cond_shown":"Incongruent","ratio_trial":200,"L_num":7,"L_den":10,"R_num":12,"R_den":24,"correct_side":1,"subjID":"juanjosemoreno6","gender":"0","school":"4","age":"9"},{"start_time":1552327532579,"click_time":1552327534491,"finger_time":1552327533991,"fix_duration":885.1742296916332,"trial":12,"RT":1412,"MT":500,"sideResp":1,"stimulus":[],"xmouse":[779,779,779,779,779,779,779,779,779,779,779,779,779,779,779,779,779,779,779,779,779,779,779,779,779,779,779,779,779,779,779,779,779,779,779,779,779,779,779,779,779,779,779,779,779,779,779,779,779,779,779,779,779,779,779,779,779,779,779,779,779,779,779,779,779,779,779,779,778,769,726,689,657,630,606,565,553,541,535,526,524,524,524,524,524,524,524,524,524,520,513,509,507,504,503,499],"ymouse":[522,522,522,522,522,522,522,522,522,522,522,522,522,522,522,522,522,522,522,522,522,522,522,522,522,522,522,522,522,522,522,522,522,522,522,522,522,522,522,522,522,522,522,522,522,522,522,522,522,522,522,522,522,522,522,522,522,522,522,522,522,522,522,522,522,522,522,522,520,511,481,453,427,392,359,290,263,237,217,189,157,143,133,123,117,110,109,109,109,109,107,107,106,104,103,99],"timestamp_mouse":[13,40,52,72,92,112,132,152,173,192,212,232,252,272,293,313,332,352,373,392,412,433,452,473,493,512,532,553,572,592,612,633,653,673,691,713,733,753,772,792,812,833,852,873,892,912,933,952,972,992,1012,1033,1053,1072,1092,1112,1133,1152,1173,1192,1212,1233,1252,1273,1292,1312,1333,1353,1372,1393,1412,1432,1452,1472,1493,1512,1532,1553,1572,1593,1612,1633,1652,1672,1692,1712,1733,1753,1772,1792,1812,1833,1852,1872,1892,1912],"xSR":741.5,"ySR":469.95,"xT1":424.9,"yT1":0,"xT2":1058.1,"yT2":0,"toosoon":0,"cond_shown":"Congruent","ratio_trial":100,"L_num":11,"L_den":22,"R_num":4,"R_den":10,"correct_side":1,"subjID":"juanjosemoreno6","gender":"0","school":"4","age":"9"},{"start_time":1552327536469,"click_time":1552327538273,"finger_time":1552327537551,"fix_duration":955.077620022831,"trial":13,"RT":1082,"MT":722,"sideResp":1,"stimulus":[],"xmouse":[810,810,810,810,809,809,809,808,808,808,808,808,808,808,807,807,806,806,806,806,806,806,806,806,806,806,806,806,806,806,806,806,806,806,806,806,806,806,806,806,806,804,803,802,802,802,798,794,790,784,778,770,768,766,764,764,763,763,763,763,763,763,763,763,763,763,763,763,761,753,737,698,677,663,648,637,614,607,593,581,572,558,552,544,533,530,528,527,527,525,524],"ymouse":[506,506,506,506,506,506,506,506,506,506,506,506,506,506,507,507,508,508,508,508,508,508,508,508,508,508,508,508,508,508,508,508,508,508,508,508,508,508,508,508,508,509,510,511,511,511,510,506,501,494,487,478,474,472,469,468,466,466,466,466,466,466,466,466,466,466,466,466,463,451,429,356,308,259,187,146,88,76,61,49,42,35,34,32,31,31,31,31,31,31,32],"timestamp_mouse":[12,36,42,63,82,102,122,142,163,183,202,222,243,262,282,303,322,342,363,382,402,422,443,463,482,503,523,543,563,583,602,622,643,663,683,703,723,742,762,783,802,822,843,863,883,902,922,942,963,983,1002,1023,1042,1062,1082,1102,1122,1142,1162,1182,1202,1222,1242,1262,1282,1301,1322,1342,1362,1382,1403,1422,1442,1462,1482,1503,1522,1543,1562,1583,1602,1622,1642,1662,1683,1703,1722,1743,1762,1782,1803],"xSR":741.5,"ySR":469.95,"xT1":424.9,"yT1":0,"xT2":1058.1,"yT2":0,"toosoon":0,"cond_shown":"Incongruent","ratio_trial":300,"L_num":13,"L_den":26,"R_num":12,"R_den":15,"correct_side":2,"subjID":"juanjosemoreno6","gender":"0","school":"4","age":"9"},{"start_time":1552327541211,"click_time":1552327542511,"finger_time":1552327542191,"fix_duration":917.6204792164452,"trial":14,"RT":980,"MT":320,"sideResp":2,"stimulus":[],"xmouse":[790,790,790,790,790,790,790,790,790,790,790,790,790,790,790,790,790,790,790,790,790,790,790,790,790,790,790,790,790,790,790,790,790,790,790,790,790,790,790,790,790,790,790,790,792,793,796,798,810,838,858,875,893,908,942,956,971,992,1006,1030,1038,1048,1058,1067,1085,1091],"ymouse":[516,516,516,516,516,516,516,516,516,516,516,516,516,516,516,516,516,516,516,516,516,516,516,516,516,516,516,516,516,516,516,516,516,516,516,516,516,516,516,516,516,516,516,516,516,516,514,511,494,455,432,407,383,358,309,287,266,234,215,181,168,154,141,129,104,94],"timestamp_mouse":[10,38,41,60,81,101,120,141,160,180,201,221,241,260,280,301,321,340,360,380,401,420,440,460,481,501,521,540,561,581,601,621,640,660,681,701,721,740,761,780,801,820,840,860,881,900,921,941,961,980,1000,1021,1040,1059,1080,1100,1120,1141,1160,1180,1200,1221,1240,1260,1280,1300],"xSR":741.5,"ySR":469.95,"xT1":424.9,"yT1":0,"xT2":1058.1,"yT2":0,"toosoon":0,"cond_shown":"Congruent","ratio_trial":100,"L_num":4,"L_den":10,"R_num":15,"R_den":30,"correct_side":2,"subjID":"juanjosemoreno6","gender":"0","school":"4","age":"9"},{"start_time":1552327544961,"click_time":1552327546812,"finger_time":1552327546331,"fix_duration":1206.7480000597395,"trial":15,"RT":1370,"MT":481,"sideResp":2,"stimulus":[],"xmouse":[785,785,785,785,785,785,785,785,785,785,785,785,785,785,785,785,785,785,785,785,785,785,785,785,785,785,785,785,785,785,785,785,785,785,785,785,785,785,785,785,785,785,785,785,785,785,785,785,785,785,785,785,785,785,785,785,785,785,785,785,785,785,785,785,789,792,822,837,854,881,900,939,962,980,1004,1028,1060,1067,1075,1082,1085,1087,1087,1087,1086,1084,1081,1080,1080,1080,1081,1084,1087],"ymouse":[544,544,544,544,544,544,544,544,544,544,544,544,544,544,544,544,544,544,544,544,544,544,544,544,544,544,544,544,544,544,544,544,544,544,544,544,544,544,544,544,544,544,544,544,544,544,544,544,544,544,544,544,544,544,544,544,544,544,544,544,544,544,544,544,543,540,516,498,477,437,409,347,318,291,261,241,206,191,172,162,153,146,144,141,138,134,125,122,119,116,113,104,99],"timestamp_mouse":[10,39,51,70,91,111,130,151,170,190,210,230,250,270,291,310,330,351,370,391,410,431,450,471,490,511,530,551,570,590,611,630,651,670,690,711,730,750,771,791,810,830,851,871,890,910,930,950,970,991,1010,1030,1050,1071,1090,1110,1131,1151,1171,1191,1210,1230,1251,1271,1291,1310,1330,1351,1370,1390,1410,1431,1450,1470,1491,1510,1531,1551,1571,1590,1610,1630,1651,1670,1691,1710,1731,1750,1771,1791,1811,1831,1850],"xSR":741.5,"ySR":469.95,"xT1":424.9,"yT1":0,"xT2":1058.1,"yT2":0,"toosoon":0,"cond_shown":"Congruent","ratio_trial":200,"L_num":6,"L_den":20,"R_num":11,"R_den":22,"correct_side":2,"subjID":"juanjosemoreno6","gender":"0","school":"4","age":"9"},{"start_time":1552327549309,"click_time":1552327550792,"finger_time":1552327550692,"fix_duration":1397.7237492028885,"trial":16,"RT":1383,"MT":100,"sideResp":2,"stimulus":[],"xmouse":[793,793,793,793,793,793,793,793,793,793,793,793,793,793,793,793,793,793,793,793,793,793,793,793,793,793,793,793,793,793,793,793,793,793,793,793,793,793,793,793,793,793,793,793,793,793,793,793,793,793,793,793,793,793,793,793,793,793,793,793,793,793,795,797,800,806,813,821,832,870,906,953,1024,1069,1142],"ymouse":[516,516,516,516,516,516,516,516,516,516,516,516,516,516,516,516,516,516,516,516,516,516,516,516,516,516,516,516,516,516,516,516,516,516,516,516,516,516,516,516,516,516,516,516,516,516,516,516,516,516,516,516,516,516,516,516,516,516,516,516,516,516,516,515,513,509,503,494,484,441,400,349,257,194,69],"timestamp_mouse":[21,21,48,62,83,101,122,143,163,181,202,221,242,262,282,302,322,343,361,382,403,422,442,463,481,503,523,543,562,582,603,622,643,662,683,703,723,742,762,782,802,822,842,862,882,902,922,942,962,983,1002,1023,1043,1063,1082,1103,1123,1143,1162,1181,1203,1222,1243,1262,1281,1302,1323,1342,1363,1382,1402,1423,1443,1462,1482],"xSR":741.5,"ySR":469.95,"xT1":424.9,"yT1":0,"xT2":1058.1,"yT2":0,"toosoon":0,"cond_shown":"Congruent","ratio_trial":100,"L_num":2,"L_den":5,"R_num":11,"R_den":22,"correct_side":2,"subjID":"juanjosemoreno6","gender":"0","school":"4","age":"9"},{"start_time":1552327553751,"click_time":1552327555591,"finger_time":1552327555110,"fix_duration":978.0216553989269,"trial":17,"RT":1359,"MT":481,"sideResp":2,"stimulus":[],"xmouse":[803,803,803,803,803,803,803,803,803,803,803,803,803,803,803,803,802,802,802,802,802,802,802,802,802,802,802,802,802,802,802,802,802,802,802,802,802,802,802,802,802,802,802,802,802,802,802,802,802,802,802,802,803,804,804,805,805,806,806,806,806,808,810,811,812,814,816,829,843,859,882,933,1027,1071,1110,1142,1162,1186,1193,1197,1197,1197,1197,1197,1197,1197,1197,1197,1197,1197,1197,1197,1157],"ymouse":[496,496,496,496,496,496,496,496,496,496,496,496,496,496,496,497,498,498,498,498,498,498,498,498,498,498,498,498,498,498,498,498,498,498,498,498,498,498,498,498,498,498,498,498,497,497,496,496,496,496,496,496,496,495,494,494,493,493,493,493,492,491,490,489,488,487,484,473,462,447,424,364,254,205,155,108,74,25,8,1,1,1,1,1,1,1,1,1,1,1,1,1,3],"timestamp_mouse":[10,21,40,60,81,100,120,141,160,181,201,220,240,260,281,300,321,340,360,380,401,421,440,460,481,500,520,541,560,580,601,620,641,660,680,700,720,740,760,781,800,820,840,859,881,900,920,939,961,981,1000,1020,1041,1061,1080,1100,1120,1140,1161,1181,1200,1220,1240,1260,1281,1300,1320,1341,1359,1380,1401,1420,1440,1460,1480,1501,1521,1540,1560,1581,1600,1620,1641,1660,1681,1700,1721,1741,1761,1780,1800,1820,1839],"xSR":741.5,"ySR":469.95,"xT1":424.9,"yT1":0,"xT2":1058.1,"yT2":0,"toosoon":0,"cond_shown":"Congruent","ratio_trial":200,"L_num":3,"L_den":10,"R_num":14,"R_den":28,"correct_side":2,"subjID":"juanjosemoreno6","gender":"0","school":"4","age":"9"},{"start_time":1552327558033,"click_time":1552327559132,"finger_time":1552327558791,"fix_duration":1040.484339423562,"trial":18,"RT":758,"MT":341,"sideResp":1,"stimulus":[],"xmouse":[776,777,777,777,777,777,777,777,777,777,777,777,777,777,777,778,778,779,779,779,779,779,779,779,779,779,779,780,780,781,781,781,781,781,781,781,772,757,746,736,725,716,698,690,683,675,655,622,606,589,574,561,538,526,520],"ymouse":[509,509,509,509,509,509,509,509,509,509,509,509,509,509,509,509,509,508,508,508,508,508,508,508,508,508,508,507,507,506,505,504,502,498,497,492,478,455,441,427,412,395,356,333,307,279,223,150,121,96,75,56,23,8,1],"timestamp_mouse":[18,43,59,78,99,118,139,159,178,199,217,239,259,279,297,318,339,359,379,399,418,439,459,478,498,517,538,558,578,599,619,638,658,678,697,718,739,758,778,797,818,839,858,878,898,919,938,958,978,998,1018,1038,1058,1078,1098],"xSR":741.5,"ySR":469.95,"xT1":424.9,"yT1":0,"xT2":1058.1,"yT2":0,"toosoon":0,"cond_shown":"Congruent","ratio_trial":300,"L_num":9,"L_den":10,"R_num":3,"R_den":5,"correct_side":1,"subjID":"juanjosemoreno6","gender":"0","school":"4","age":"9"},{"start_time":1552327562264,"click_time":1552327563571,"finger_time":1552327563111,"fix_duration":250,"trial":19,"RT":847,"MT":460,"sideResp":1,"stimulus":[],"xmouse":[801,801,801,801,801,801,801,801,801,801,801,801,801,801,801,801,801,801,801,801,801,801,801,801,801,801,801,801,801,801,801,801,801,801,801,801,801,801,801,801,798,783,772,759,736,719,687,673,658,644,632,611,601,593,583,581,577,575,569,563,556,544,540,536,525,517],"ymouse":[519,519,519,519,519,519,518,518,518,518,518,518,518,518,518,518,518,518,518,518,518,518,518,518,518,518,518,518,518,518,518,518,518,518,518,518,518,518,513,510,501,475,458,438,407,382,338,317,296,275,254,212,190,168,139,122,98,85,73,64,55,45,44,43,43,43],"timestamp_mouse":[12,44,48,68,86,107,128,146,167,187,208,228,248,267,287,308,328,348,368,387,408,427,447,468,488,508,527,547,568,588,607,627,648,667,688,707,727,747,768,788,807,826,847,867,887,907,927,947,967,987,1006,1028,1046,1067,1087,1108,1127,1147,1168,1187,1207,1227,1248,1268,1288,1307],"xSR":741.5,"ySR":469.95,"xT1":424.9,"yT1":0,"xT2":1058.1,"yT2":0,"toosoon":0,"cond_shown":"Congruent","ratio_trial":100,"L_num":10,"L_den":25,"R_num":3,"R_den":10,"correct_side":1,"subjID":"juanjosemoreno6","gender":"0","school":"4","age":"9"},{"start_time":1552327565840,"click_time":1552327567611,"finger_time":1552327567331,"fix_duration":967.1844026190423,"trial":20,"RT":1491,"MT":280,"sideResp":2,"stimulus":[],"xmouse":[772,772,772,772,772,772,772,772,772,772,772,772,772,772,772,772,772,772,772,772,772,772,772,772,772,772,772,772,772,772,772,772,772,772,772,772,772,772,772,772,772,772,772,772,772,772,772,772,772,772,772,772,772,772,772,772,772,772,772,772,772,772,772,772,772,772,772,772,772,772,772,773,779,788,803,824,868,920,943,965,983,1004,1028,1037,1047,1060,1069,1088,1094],"ymouse":[486,486,486,486,486,486,486,486,486,486,486,486,486,486,486,486,486,486,486,486,486,486,486,486,486,486,486,486,486,486,486,486,486,486,486,486,486,486,486,486,486,486,486,486,486,486,486,486,486,486,486,486,486,486,486,486,486,486,486,486,486,486,486,486,486,486,486,486,486,487,487,487,484,476,462,443,410,348,317,284,257,229,189,174,162,146,135,107,93],"timestamp_mouse":[19,46,51,71,91,111,131,151,170,191,211,232,252,272,291,312,332,352,370,391,411,431,451,471,492,512,532,551,571,591,611,632,651,672,692,711,732,751,771,790,811,831,851,871,892,911,931,950,971,991,1012,1031,1052,1071,1092,1112,1130,1152,1172,1192,1212,1231,1251,1272,1291,1312,1330,1351,1370,1392,1411,1431,1450,1472,1491,1511,1532,1551,1571,1590,1611,1630,1651,1671,1691,1712,1732,1751,1770],"xSR":741.5,"ySR":469.95,"xT1":424.9,"yT1":0,"xT2":1058.1,"yT2":0,"toosoon":0,"cond_shown":"Incongruent","ratio_trial":300,"L_num":13,"L_den":26,"R_num":12,"R_den":15,"correct_side":2,"subjID":"juanjosemoreno6","gender":"0","school":"4","age":"9"},{"start_time":1552327569170,"click_time":1552327571051,"finger_time":1552327570691,"fix_duration":676.3738576393303,"trial":21,"RT":1521,"MT":360,"sideResp":1,"stimulus":[],"xmouse":[770,770,770,770,770,770,770,770,770,770,770,770,770,770,770,770,770,770,770,770,770,770,770,770,770,770,770,770,770,770,770,770,770,770,770,770,770,770,770,770,770,770,770,770,770,770,770,770,770,770,770,770,770,770,770,770,770,770,770,770,770,770,770,770,770,770,770,770,769,769,769,769,769,767,765,759,733,711,687,641,612,556,537,523,511,505,492,485,481,473,472,478,480,481,481],"ymouse":[508,508,508,508,508,508,508,508,508,508,508,508,508,508,508,508,508,508,508,508,508,508,508,508,508,508,508,508,508,508,508,508,508,508,508,508,508,508,508,508,508,508,508,508,508,508,508,508,508,508,508,508,508,508,508,508,508,508,508,508,508,508,508,508,508,508,508,508,508,508,508,508,508,505,502,490,456,432,409,372,348,309,295,282,269,254,214,186,177,152,136,114,108,103,99],"timestamp_mouse":[11,34,41,61,81,101,122,141,162,182,201,221,241,261,281,302,322,342,362,380,402,421,441,462,482,501,521,541,562,582,601,621,640,662,681,701,721,741,762,780,801,821,842,862,882,901,921,942,962,981,1001,1022,1042,1060,1081,1101,1121,1142,1161,1182,1201,1221,1241,1260,1282,1301,1321,1342,1361,1381,1401,1421,1441,1461,1482,1501,1521,1542,1562,1581,1602,1621,1641,1661,1680,1701,1722,1741,1762,1781,1801,1821,1841,1861,1881],"xSR":741.5,"ySR":469.95,"xT1":424.9,"yT1":0,"xT2":1058.1,"yT2":0,"toosoon":0,"cond_shown":"Congruent","ratio_trial":300,"L_num":9,"L_den":10,"R_num":3,"R_den":5,"correct_side":1,"subjID":"juanjosemoreno6","gender":"0","school":"4","age":"9"},{"start_time":1552327573228,"click_time":1552327575012,"finger_time":1552327574593,"fix_duration":1155.896200259202,"trial":22,"RT":1365,"MT":419,"sideResp":2,"stimulus":[],"xmouse":[799,799,799,799,799,799,799,799,798,798,797,797,797,797,797,797,797,796,796,796,796,796,795,795,795,795,795,795,795,795,795,795,795,793,793,793,793,793,793,793,793,793,793,793,793,793,793,793,793,793,793,793,793,793,793,793,793,793,793,793,793,793,793,796,802,812,820,835,865,884,907,929,954,995,1009,1024,1025,1029,1030,1030,1031,1032,1033,1043,1048,1052,1053,1057,1068,1074],"ymouse":[539,539,539,539,539,539,539,539,540,540,540,541,541,541,541,541,542,542,542,542,543,543,544,544,544,544,544,544,544,544,544,545,545,546,546,546,546,546,546,546,546,546,546,546,546,546,546,546,546,546,546,546,546,546,546,546,546,546,546,546,546,546,546,544,539,532,523,504,462,436,408,375,341,274,250,224,220,212,211,211,208,206,200,180,166,152,139,125,106,97],"timestamp_mouse":[10,24,43,63,84,102,124,143,164,183,203,223,244,264,284,304,324,344,364,383,403,423,443,462,484,504,524,543,562,584,604,623,643,663,683,704,723,742,764,783,804,824,844,863,884,904,923,944,963,984,1002,1023,1043,1062,1083,1104,1123,1144,1163,1184,1203,1224,1242,1263,1284,1303,1323,1343,1365,1383,1403,1424,1444,1463,1483,1503,1522,1544,1563,1583,1603,1624,1644,1663,1683,1703,1722,1743,1762,1784],"xSR":741.5,"ySR":469.95,"xT1":424.9,"yT1":0,"xT2":1058.1,"yT2":0,"toosoon":0,"cond_shown":"Congruent","ratio_trial":100,"L_num":1,"L_den":2,"R_num":18,"R_den":30,"correct_side":2,"subjID":"juanjosemoreno6","gender":"0","school":"4","age":"9"},{"start_time":1552327584030,"click_time":1552327585932,"finger_time":1552327585451,"fix_duration":577.0263541481935,"trial":23,"RT":1421,"MT":481,"sideResp":1,"stimulus":[],"xmouse":[794,794,794,794,794,794,794,794,794,794,794,794,794,794,794,794,794,794,794,794,794,794,794,794,794,794,794,794,794,794,794,794,794,794,794,794,794,794,794,794,794,794,794,794,794,794,794,794,794,794,794,794,794,794,794,794,794,794,794,794,794,794,794,794,794,794,794,793,784,770,751,729,708,671,657,641,612,590,548,526,507,489,479,475,475,476,477,477,477,477,477,477,477,477,477,477],"ymouse":[506,506,506,506,506,506,506,506,506,506,506,506,506,506,506,506,506,506,506,506,506,506,506,506,506,506,506,506,506,506,506,506,506,506,506,506,506,506,506,506,506,506,506,506,506,506,506,506,506,506,506,506,506,506,506,506,506,506,506,506,506,506,506,506,506,506,506,506,501,492,479,462,438,363,324,289,238,210,174,163,152,144,140,136,136,135,132,130,126,125,123,121,117,108,103,96],"timestamp_mouse":[13,28,41,61,81,102,121,140,161,182,201,221,242,261,281,302,321,342,361,382,402,422,441,461,481,502,520,541,561,582,601,622,641,661,681,701,722,740,761,782,801,821,841,861,882,901,921,941,961,982,1001,1020,1040,1061,1081,1100,1121,1141,1161,1182,1201,1222,1241,1261,1282,1301,1321,1341,1361,1381,1402,1421,1442,1462,1481,1501,1521,1541,1561,1582,1601,1621,1640,1660,1681,1702,1722,1741,1761,1782,1802,1821,1841,1861,1880,1901],"xSR":741.5,"ySR":469.95,"xT1":424.9,"yT1":0,"xT2":1058.1,"yT2":0,"toosoon":0,"cond_shown":"Incongruent","ratio_trial":300,"L_num":4,"L_den":20,"R_num":2,"R_den":4,"correct_side":2,"subjID":"juanjosemoreno6","gender":"0","school":"4","age":"9"},{"start_time":1552327588007,"click_time":1552327589791,"finger_time":1552327589391,"fix_duration":613.0537209879908,"trial":24,"RT":1384,"MT":400,"sideResp":2,"stimulus":[],"xmouse":[769,764,764,752,746,745,744,744,744,744,744,744,744,744,744,744,744,744,745,746,746,746,746,747,747,748,748,749,751,754,755,756,756,757,757,759,762,763,766,768,768,768,768,768,768,768,768,768,769,770,770,770,770,770,770,771,771,771,771,771,771,771,771,771,771,771,771,776,785,816,834,853,870,889,920,933,944,960,972,991,1001,1010,1019,1030,1043,1051,1059,1067,1082,1100],"ymouse":[519,520,520,524,526,526,526,526,526,526,526,526,526,526,526,526,526,526,525,525,525,524,524,523,523,522,522,521,519,516,514,514,513,513,512,510,508,506,503,499,499,499,499,499,499,499,499,499,498,497,497,497,497,497,497,497,497,497,497,497,497,497,497,497,497,497,498,496,489,464,443,420,397,373,335,316,301,281,267,239,227,213,200,185,159,146,134,123,102,78],"timestamp_mouse":[4,43,44,64,84,104,124,144,164,184,205,224,244,264,284,304,324,344,364,385,403,424,444,465,483,505,524,544,564,584,605,625,644,664,684,705,724,744,765,784,805,824,845,865,885,905,925,944,965,984,1005,1025,1044,1065,1084,1104,1123,1145,1164,1184,1203,1223,1245,1264,1284,1305,1324,1343,1364,1384,1405,1424,1444,1464,1485,1504,1524,1545,1564,1584,1604,1625,1645,1665,1684,1705,1725,1744,1764,1783],"xSR":741.5,"ySR":469.95,"xT1":424.9,"yT1":0,"xT2":1058.1,"yT2":0,"toosoon":0,"cond_shown":"Incongruent","ratio_trial":300,"L_num":1,"L_den":2,"R_num":2,"R_den":10,"correct_side":1,"subjID":"juanjosemoreno6","gender":"0","school":"4","age":"9"},{"start_time":1552327592702,"click_time":1552327594131,"finger_time":1552327593912,"fix_duration":1447.7668389298346,"trial":25,"RT":1210,"MT":219,"sideResp":1,"stimulus":[],"xmouse":[770,770,771,771,771,771,772,772,772,772,772,772,772,772,772,772,772,772,772,772,772,772,772,772,772,772,772,772,772,772,772,772,772,772,772,772,772,772,772,772,772,772,772,772,772,772,772,772,772,772,772,772,772,772,772,772,772,772,772,761,748,743,722,706,662,643,623,606,590,552,533,517],"ymouse":[517,517,515,514,514,514,514,514,514,514,514,514,514,514,514,514,514,514,514,514,514,514,514,514,514,514,514,514,514,514,514,514,514,514,514,514,514,514,514,514,514,514,514,514,514,514,514,514,514,514,514,514,514,514,514,514,512,509,505,489,468,458,422,393,309,268,223,182,147,80,57,42],"timestamp_mouse":[13,36,49,70,90,109,128,150,169,189,209,229,250,270,288,310,329,349,369,389,408,430,450,470,488,510,529,550,570,588,610,630,649,669,689,710,729,749,770,789,810,828,849,869,890,910,930,948,970,990,1010,1029,1048,1070,1089,1109,1128,1149,1168,1188,1210,1230,1249,1270,1289,1310,1330,1349,1369,1389,1408,1429],"xSR":741.5,"ySR":469.95,"xT1":424.9,"yT1":0,"xT2":1058.1,"yT2":0,"toosoon":0,"cond_shown":"Congruent","ratio_trial":300,"L_num":11,"L_den":22,"R_num":4,"R_den":20,"correct_side":1,"subjID":"juanjosemoreno6","gender":"0","school":"4","age":"9"},{"start_time":1552327596763,"click_time":1552327598772,"finger_time":1552327598112,"fix_duration":250,"trial":26,"RT":1349,"MT":660,"sideResp":2,"stimulus":[],"xmouse":[804,804,804,804,804,804,804,804,804,804,804,804,804,804,804,804,804,804,804,804,804,804,804,804,804,804,804,804,804,804,804,804,804,804,804,804,804,804,804,804,804,804,804,806,806,806,806,806,806,806,806,807,807,808,808,810,811,812,813,813,813,814,817,818,822,827,839,847,860,887,911,947,967,983,996,1006,1022,1025,1032,1038,1045,1057,1065,1073,1079,1082,1088,1091,1094,1099,1103,1108,1111,1114,1117,1118,1119,1119,1120,1122,1126],"ymouse":[539,538,537,537,537,537,537,537,537,537,537,537,537,537,537,537,537,537,537,537,537,537,537,537,537,537,537,537,537,537,537,537,537,537,537,537,537,537,537,537,537,537,537,536,535,534,534,534,534,534,534,534,533,533,532,531,529,527,527,526,526,523,521,519,515,509,492,480,465,434,406,358,332,309,291,276,253,248,241,231,222,202,189,177,165,160,149,144,138,131,126,119,116,112,107,105,104,104,103,100,95],"timestamp_mouse":[9,30,48,68,88,109,129,147,169,188,209,228,248,269,287,308,328,349,369,388,408,428,449,468,488,508,528,549,569,589,608,628,649,668,689,708,729,748,769,788,809,828,848,869,888,909,928,949,969,989,1009,1029,1049,1068,1088,1108,1128,1147,1169,1188,1208,1228,1248,1268,1289,1308,1327,1349,1368,1388,1408,1428,1448,1468,1489,1508,1527,1547,1568,1588,1607,1628,1648,1669,1688,1709,1728,1748,1768,1788,1809,1828,1848,1869,1888,1909,1928,1949,1968,1989,2009],"xSR":741.5,"ySR":469.95,"xT1":424.9,"yT1":0,"xT2":1058.1,"yT2":0,"toosoon":0,"cond_shown":"Incongruent","ratio_trial":200,"L_num":1,"L_den":2,"R_num":3,"R_den":10,"correct_side":1,"subjID":"juanjosemoreno6","gender":"0","school":"4","age":"9"},{"start_time":1552327600835,"click_time":1552327602491,"finger_time":1552327601651,"fix_duration":921.6455134793771,"trial":27,"RT":816,"MT":840,"sideResp":2,"stimulus":[],"xmouse":[781,781,781,781,781,781,781,781,781,781,781,781,790,797,805,810,812,812,812,812,812,812,809,807,806,802,797,796,796,796,796,796,796,796,796,797,801,806,809,813,818,822,823,823,823,824,824,828,832,835,838,841,841,841,841,841,841,841,841,841,841,841,841,841,843,845,850,870,887,903,918,928,945,953,962,977,988,1016,1028,1038,1046,1053,1061],"ymouse":[554,554,554,554,554,554,554,554,554,554,554,552,538,527,518,513,509,509,509,509,509,508,509,509,509,506,502,499,496,496,496,496,496,496,496,495,492,485,480,472,463,451,429,423,418,417,416,409,402,397,391,388,386,386,386,386,386,386,386,386,386,386,386,386,386,385,383,373,364,352,340,328,300,283,263,229,206,156,135,115,101,90,76],"timestamp_mouse":[16,42,56,77,96,117,137,156,176,197,216,236,255,277,296,317,336,356,377,396,417,436,456,475,496,517,537,556,576,596,615,637,655,676,696,716,736,756,776,797,816,836,856,877,897,915,936,957,976,996,1016,1035,1055,1076,1097,1116,1137,1156,1176,1195,1217,1236,1256,1277,1296,1316,1337,1356,1377,1395,1416,1436,1456,1477,1497,1516,1536,1556,1576,1597,1616,1637,1656],"xSR":741.5,"ySR":469.95,"xT1":424.9,"yT1":0,"xT2":1058.1,"yT2":0,"toosoon":0,"cond_shown":"Incongruent","ratio_trial":200,"L_num":4,"L_den":6,"R_num":14,"R_den":30,"correct_side":1,"subjID":"juanjosemoreno6","gender":"0","school":"4","age":"9"},{"start_time":1552327605551,"click_time":1552327607074,"finger_time":1552327606891,"fix_duration":1157.5190088000168,"trial":28,"RT":1340,"MT":183,"sideResp":1,"stimulus":[],"xmouse":[784,784,784,784,784,784,784,784,784,784,784,784,784,784,784,784,784,784,784,784,784,784,784,784,784,784,784,784,784,784,784,784,784,784,784,784,784,784,784,784,784,784,784,784,784,784,784,784,784,784,784,784,784,784,784,784,784,784,784,784,783,779,770,764,759,752,747,734,727,718,702,693,655,630,600,558,516],"ymouse":[558,558,558,558,558,558,558,558,558,558,558,558,558,558,558,558,558,558,558,558,558,558,558,558,558,558,558,558,558,558,558,558,558,558,558,558,558,558,558,558,558,558,558,558,558,558,558,558,558,558,558,558,558,558,558,558,558,558,558,558,557,550,525,511,501,489,481,469,462,454,433,414,333,277,204,122,40],"timestamp_mouse":[9,21,40,60,80,100,120,139,161,181,201,220,240,260,281,299,320,340,361,381,401,420,440,461,481,499,520,540,561,581,601,620,639,660,681,701,720,740,761,781,801,820,840,861,881,899,920,940,959,981,999,1020,1041,1060,1080,1099,1120,1140,1160,1179,1201,1220,1240,1259,1280,1301,1320,1340,1360,1380,1399,1420,1440,1461,1480,1500,1521],"xSR":741.5,"ySR":469.95,"xT1":424.9,"yT1":0,"xT2":1058.1,"yT2":0,"toosoon":0,"cond_shown":"Congruent","ratio_trial":300,"L_num":9,"L_den":10,"R_num":3,"R_den":5,"correct_side":1,"subjID":"juanjosemoreno6","gender":"0","school":"4","age":"9"},{"start_time":1552327610783,"click_time":1552327612571,"finger_time":1552327611890,"fix_duration":1109.0940780103615,"trial":29,"RT":1107,"MT":681,"sideResp":1,"stimulus":[],"xmouse":[787,787,787,787,787,787,787,787,787,787,787,787,787,787,787,787,787,787,787,787,787,787,787,787,787,787,787,787,787,787,787,787,787,787,787,787,787,787,787,787,787,787,787,787,787,787,787,787,787,787,786,781,772,762,752,724,709,691,661,634,569,530,488,443,402,343,328,328,328,328,328,328,328,328,328,328,328,328,328,328,328,328,328,328,328,328,397,401,415,428],"ymouse":[531,531,531,531,531,531,531,531,531,531,531,531,531,531,531,531,531,531,531,531,531,531,531,531,531,531,531,531,531,531,531,531,531,531,531,531,531,531,531,531,531,531,531,531,531,531,531,531,530,529,522,514,503,491,478,452,439,424,400,382,335,303,264,210,155,42,0,0,0,0,0,0,0,0,0,0,0,0,0,0,0,0,0,0,0,0,0,11,33,49],"timestamp_mouse":[12,38,48,69,89,108,129,148,169,189,209,227,248,269,288,308,329,347,369,388,409,428,449,469,489,508,527,547,569,589,607,627,648,669,688,707,728,749,768,788,808,828,849,869,889,909,928,948,968,987,1008,1028,1048,1068,1089,1107,1128,1148,1168,1187,1207,1228,1249,1268,1289,1308,1327,1348,1368,1388,1409,1428,1448,1468,1487,1509,1529,1548,1568,1587,1609,1628,1648,1668,1687,1708,1728,1748,1768,1788],"xSR":741.5,"ySR":469.95,"xT1":424.9,"yT1":0,"xT2":1058.1,"yT2":0,"toosoon":0,"cond_shown":"Congruent","ratio_trial":200,"L_num":11,"L_den":22,"R_num":3,"R_den":10,"correct_side":1,"subjID":"juanjosemoreno6","gender":"0","school":"4","age":"9"},{"start_time":1552327613842,"click_time":1552327615871,"finger_time":1552327615191,"fix_duration":250,"trial":30,"RT":1349,"MT":680,"sideResp":1,"stimulus":[],"xmouse":[759,759,758,758,757,757,756,756,755,755,755,755,755,755,755,755,755,755,755,755,755,755,755,755,755,755,755,755,755,755,755,755,755,755,755,755,755,755,755,755,755,755,755,755,755,755,755,755,755,755,755,755,755,755,755,755,755,755,755,755,755,755,755,755,754,752,750,730,712,681,634,581,495,476,467,462,460,460,460,460,460,460,464,467,472,473,476,475,471,468,465,465,464,464,464,464,464,464,464,464,464,464],"ymouse":[477,478,480,482,484,485,487,489,489,489,489,489,489,489,489,489,489,489,489,489,489,489,489,489,489,489,489,489,489,489,489,489,489,489,489,489,489,489,489,489,489,489,489,489,489,489,489,489,489,489,489,489,489,489,489,489,489,489,489,489,489,489,489,490,490,489,488,474,461,439,403,362,275,239,214,191,183,181,181,180,180,179,171,165,153,150,140,131,125,122,119,116,113,111,110,108,107,104,103,102,100,99],"timestamp_mouse":[13,40,49,69,88,109,130,149,169,189,208,229,250,268,290,309,330,349,370,389,408,428,449,469,490,508,529,549,570,588,609,630,648,668,689,710,729,748,769,789,808,829,849,868,890,910,929,949,970,990,1009,1030,1050,1070,1089,1108,1129,1149,1168,1189,1210,1228,1249,1270,1289,1310,1329,1349,1369,1388,1410,1430,1449,1470,1490,1510,1530,1549,1569,1589,1608,1630,1649,1670,1689,1709,1729,1748,1769,1790,1809,1830,1848,1869,1890,1910,1930,1949,1968,1990,2010,2029],"xSR":741.5,"ySR":469.95,"xT1":424.9,"yT1":0,"xT2":1058.1,"yT2":0,"toosoon":0,"cond_shown":"Incongruent","ratio_trial":200,"L_num":6,"L_den":20,"R_num":3,"R_den":6,"correct_side":2,"subjID":"juanjosemoreno6","gender":"0","school":"4","age":"9"},{"start_time":1552327617917,"click_time":1552327621391,"finger_time":1552327618990,"fix_duration":303.7685165667071,"trial":31,"RT":1073,"MT":2401,"sideResp":1,"stimulus":[],"xmouse":[770,770,770,771,771,771,771,771,771,771,772,772,774,778,780,781,783,785,787,787,787,787,788,790,792,795,796,797,798,798,798,798,798,798,798,798,798,798,798,798,798,798,798,798,798,798,798,797,796,791,784,774,767,751,741,726,716,703,685,679,670,663,655,635,623,610,592,570,539,539,539,539,539,539,539,539,539,539,539,539,539,539,539,539,539,539,539,539,539,538,530,529,526,526,526,526,526,526,526,526,526,526,526,526,526,526,526,526,526,526,526,526,526,526,526,526,526,526,526,526,526,526,526,526,526,526,526,526,526,526,526,526,526,526,526,526,526,526,526,526,526,526,526,526,526,528,531,554,627,672,712,735,735,712,664,582,480,374,268,264,271,299,311,314,314,314,318,325,350,364,385,392,418,456],"ymouse":[524,524,524,524,524,524,524,524,524,524,524,524,523,521,519,518,517,516,516,516,516,515,515,510,506,503,501,499,499,499,499,499,499,499,499,499,499,499,499,499,499,499,499,499,499,499,499,499,498,497,492,486,479,465,456,446,439,430,414,408,398,388,376,341,317,285,253,216,174,174,174,174,174,174,174,174,174,174,174,174,174,174,174,174,174,174,174,174,174,173,167,163,157,157,157,157,157,157,157,157,157,157,157,157,157,157,157,157,157,157,157,157,157,157,157,157,157,157,157,157,157,157,157,157,157,157,157,157,157,157,157,157,157,157,157,157,157,157,157,157,157,157,157,157,157,156,153,149,127,115,109,105,105,105,107,109,100,84,48,42,38,28,26,25,25,25,25,27,35,39,45,45,49,55],"timestamp_mouse":[13,40,55,74,94,113,134,153,175,193,214,235,254,274,294,314,334,355,375,394,415,435,454,474,494,513,535,554,574,594,614,634,653,674,695,715,734,753,773,794,815,833,854,874,894,913,933,954,974,993,1013,1034,1055,1073,1094,1114,1134,1155,1174,1195,1214,1233,1254,1274,1294,1314,1334,1354,1373,1394,1415,1434,1455,1475,1493,1513,1534,1553,1574,1594,1614,1635,1655,1675,1695,1715,1735,1755,1773,1794,1813,1834,1854,1873,1894,1915,1934,1955,1975,1995,2014,2034,2054,2075,2094,2115,2134,2155,2173,2194,2215,2234,2254,2275,2294,2314,2333,2355,2374,2394,2414,2434,2454,2473,2494,2514,2534,2555,2573,2593,2614,2634,2654,2675,2694,2715,2734,2753,2773,2794,2814,2834,2854,2875,2894,2914,2935,2954,2974,2995,3015,3035,3054,3074,3094,3114,3134,3154,3174,3195,3215,3235,3255,3274,3294,3315,3334,3354,3374,3394,3414,3434,3453,3474],"xSR":741.5,"ySR":469.95,"xT1":424.9,"yT1":0,"xT2":1058.1,"yT2":0,"toosoon":0,"cond_shown":"Congruent","ratio_trial":300,"L_num":24,"L_den":30,"R_num":2,"R_den":4,"correct_side":1,"subjID":"juanjosemoreno6","gender":"0","school":"4","age":"9"},{"start_time":1552327625288,"click_time":1552327627212,"finger_time":1552327626711,"fix_duration":656.1786733918309,"trial":32,"RT":1423,"MT":501,"sideResp":1,"stimulus":[],"xmouse":[772,772,772,772,772,772,772,772,772,772,772,772,772,772,772,772,772,772,772,772,772,772,772,772,772,772,772,772,772,772,772,772,772,772,772,772,772,772,772,772,772,772,772,772,772,772,772,772,772,772,772,772,772,772,772,772,772,772,772,772,772,772,772,772,772,772,772,772,772,769,764,758,744,739,709,657,629,604,585,570,544,534,521,516,514,514,514,514,515,515,516,516,516,512,504,496,494],"ymouse":[494,494,494,494,494,494,494,494,494,494,494,494,494,494,494,494,494,494,495,495,495,495,495,495,495,495,495,495,495,495,495,495,495,495,495,495,495,495,495,495,495,495,495,495,495,495,495,495,495,495,495,495,495,495,495,495,495,495,495,495,495,495,495,495,495,495,495,495,495,492,483,467,434,423,372,306,278,254,238,227,204,195,182,173,168,164,163,163,162,161,157,152,146,138,122,102,97],"timestamp_mouse":[13,33,43,63,84,103,122,143,163,183,203,222,243,263,283,304,324,343,363,382,403,423,443,464,483,503,524,542,564,583,602,622,644,664,683,702,724,743,763,783,802,824,844,863,884,904,924,944,963,984,1003,1023,1044,1064,1082,1103,1124,1142,1164,1183,1202,1222,1243,1264,1283,1303,1322,1344,1363,1383,1402,1423,1443,1464,1484,1502,1523,1543,1564,1584,1602,1622,1643,1662,1684,1703,1724,1743,1764,1783,1803,1823,1843,1862,1883,1903,1923],"xSR":741.5,"ySR":469.95,"xT1":424.9,"yT1":0,"xT2":1058.1,"yT2":0,"toosoon":0,"cond_shown":"Incongruent","ratio_trial":300,"L_num":4,"L_den":20,"R_num":2,"R_den":4,"correct_side":2,"subjID":"juanjosemoreno6","gender":"0","school":"4","age":"9"},{"start_time":1552327649847,"click_time":1552327651831,"finger_time":1552327651191,"fix_duration":1374.5541532162117,"trial":33,"RT":1344,"MT":640,"sideResp":2,"stimulus":[],"xmouse":[788,788,788,788,788,788,788,788,788,788,788,788,788,788,788,788,788,788,788,788,788,788,788,788,788,788,788,788,788,788,788,788,788,788,788,788,788,788,788,788,788,788,788,788,788,788,788,788,788,788,788,788,788,788,788,788,788,788,788,788,788,788,790,793,798,806,819,844,866,899,948,1005,1122,1172,1172,1172,1172,1172,1172,1172,1172,1172,1172,1172,1172,1172,1172,1172,1406,1393,1380,1361,1329,1318,1312,1304,1294,1242,1186,1109],"ymouse":[502,502,502,502,502,502,502,502,502,502,502,502,502,502,502,502,502,502,502,502,502,502,502,502,502,502,502,502,502,502,502,502,502,502,502,502,502,502,502,502,502,502,502,502,502,502,502,502,502,502,502,502,502,502,502,502,502,502,502,502,502,502,502,501,501,495,482,447,419,381,329,265,108,28,28,28,28,28,28,28,28,28,28,28,28,28,28,28,32,52,72,91,120,127,128,128,125,98,66,23],"timestamp_mouse":[13,24,44,63,83,105,124,144,164,185,204,224,244,263,285,305,323,345,365,384,404,424,444,464,485,505,524,544,564,584,605,624,643,665,685,704,724,745,765,784,805,825,844,865,884,904,925,944,965,985,1004,1024,1045,1065,1084,1103,1125,1144,1164,1183,1205,1224,1244,1264,1283,1305,1325,1344,1363,1383,1404,1425,1444,1465,1484,1504,1524,1545,1564,1585,1604,1624,1644,1664,1685,1703,1723,1745,1764,1784,1804,1825,1843,1863,1885,1904,1925,1943,1964,1984],"xSR":741.5,"ySR":469.95,"xT1":424.9,"yT1":0,"xT2":1058.1,"yT2":0,"toosoon":0,"cond_shown":"Congruent","ratio_trial":300,"L_num":20,"L_den":25,"R_num":9,"R_den":18,"correct_side":1,"subjID":"juanjosemoreno6","gender":"0","school":"4","age":"9"},{"start_time":1552327655628,"click_time":1552327657031,"finger_time":1552327656690,"fix_duration":1215.8776637132812,"trial":34,"RT":1062,"MT":341,"sideResp":1,"stimulus":[],"xmouse":[800,800,800,800,800,800,800,800,800,800,800,800,800,800,800,800,800,800,800,800,800,800,800,800,800,800,800,800,800,800,800,800,800,800,800,800,800,800,800,800,800,800,800,800,800,800,800,800,800,800,800,799,797,778,765,744,734,723,705,697,690,685,681,666,655,638,622,588,543,525,512],"ymouse":[497,497,497,497,497,497,497,497,497,497,497,497,497,497,497,497,497,497,497,497,497,497,497,497,497,497,497,497,497,497,497,497,497,497,497,497,497,497,497,497,497,497,497,497,497,497,497,497,497,497,497,497,494,467,447,413,396,375,344,330,317,307,298,268,249,226,204,159,101,81,65],"timestamp_mouse":[9,23,42,63,82,103,122,142,162,182,204,223,244,264,282,302,323,344,363,383,404,424,443,463,484,503,523,543,563,583,602,623,643,664,684,703,723,744,762,782,804,824,843,863,883,902,922,943,963,984,1003,1024,1043,1062,1083,1103,1124,1144,1162,1183,1203,1223,1243,1262,1282,1303,1322,1344,1364,1383,1403],"xSR":741.5,"ySR":469.95,"xT1":424.9,"yT1":0,"xT2":1058.1,"yT2":0,"toosoon":0,"cond_shown":"Incongruent","ratio_trial":200,"L_num":3,"L_den":10,"R_num":1,"R_den":2,"correct_side":2,"subjID":"juanjosemoreno6","gender":"0","school":"4","age":"9"},{"start_time":1552327662917,"click_time":1552327664791,"finger_time":1552327664271,"fix_duration":625.63159527422,"trial":35,"RT":1354,"MT":520,"sideResp":2,"stimulus":[],"xmouse":[817,817,817,817,817,817,817,817,817,817,817,817,818,818,818,818,818,818,818,818,818,818,818,818,818,818,818,818,818,818,818,818,818,818,818,818,818,818,818,818,818,818,818,818,818,818,818,818,818,818,818,818,818,818,818,817,817,817,817,817,817,817,817,817,818,823,832,847,869,878,883,886,888,890,892,896,901,910,934,947,958,978,994,1029,1045,1060,1067,1072,1078,1080,1081,1082,1084,1086],"ymouse":[537,537,537,537,537,537,537,537,537,539,539,539,539,539,539,539,539,539,539,539,539,539,539,539,539,539,539,539,539,539,539,539,539,539,539,539,539,539,539,539,539,539,539,539,539,539,539,539,539,539,539,539,539,539,539,540,540,540,540,540,540,540,540,540,539,534,523,505,472,459,448,444,440,437,434,429,422,409,376,356,336,303,281,228,199,171,149,131,112,108,107,106,102,98],"timestamp_mouse":[15,37,53,74,95,115,135,153,175,195,213,234,254,273,294,313,335,354,375,393,414,433,453,475,494,515,535,555,575,595,615,634,654,674,694,713,733,754,774,794,815,834,854,873,893,913,935,954,973,995,1013,1035,1054,1074,1093,1115,1135,1154,1175,1194,1215,1235,1253,1274,1294,1315,1334,1354,1374,1394,1414,1434,1454,1473,1494,1514,1534,1553,1575,1593,1614,1635,1654,1673,1694,1714,1733,1753,1774,1794,1814,1835,1854,1874],"xSR":741.5,"ySR":469.95,"xT1":424.9,"yT1":0,"xT2":1058.1,"yT2":0,"toosoon":0,"cond_shown":"Congruent","ratio_trial":100,"L_num":7,"L_den":14,"R_num":9,"R_den":15,"correct_side":2,"subjID":"juanjosemoreno6","gender":"0","school":"4","age":"9"},{"start_time":1552327668983,"click_time":1552327670771,"finger_time":1552327670291,"fix_duration":250,"trial":36,"RT":1308,"MT":480,"sideResp":2,"stimulus":[],"xmouse":[775,775,775,775,775,776,776,776,776,776,776,776,776,776,776,776,776,776,776,776,776,776,776,776,776,776,776,776,776,776,776,776,776,776,776,776,776,776,776,776,776,776,776,776,776,781,784,789,790,794,798,799,800,801,801,801,801,801,801,801,801,801,801,805,807,830,847,877,884,911,936,944,953,962,969,983,990,1000,1004,1013,1021,1022,1023,1024,1026,1033,1038,1048,1052,1061],"ymouse":[536,536,536,535,533,533,533,533,533,533,533,533,533,533,533,533,533,533,533,533,533,533,533,533,533,533,533,533,533,533,533,533,533,533,533,533,533,533,533,533,533,533,533,532,531,526,522,515,513,508,502,499,499,497,497,497,497,497,497,497,497,497,497,494,491,465,440,396,383,340,300,284,269,253,242,216,205,187,179,165,152,149,148,146,143,135,128,114,108,90],"timestamp_mouse":[12,41,49,67,89,108,128,147,168,188,208,228,249,269,287,307,329,348,369,388,409,427,447,468,488,507,527,549,569,588,609,629,649,669,688,708,728,748,768,789,808,829,848,868,887,908,929,948,968,989,1008,1028,1048,1068,1088,1108,1129,1148,1169,1188,1208,1229,1249,1268,1287,1308,1328,1347,1367,1389,1408,1428,1449,1468,1489,1508,1528,1548,1567,1588,1607,1628,1649,1669,1688,1708,1728,1748,1769,1788],"xSR":741.5,"ySR":469.95,"xT1":424.9,"yT1":0,"xT2":1058.1,"yT2":0,"toosoon":0,"cond_shown":"Congruent","ratio_trial":100,"L_num":6,"L_den":12,"R_num":15,"R_den":25,"correct_side":2,"subjID":"juanjosemoreno6","gender":"0","school":"4","age":"9"},{"start_time":1552327672605,"click_time":1552327674371,"finger_time":1552327674031,"fix_duration":312.72067825522964,"trial":37,"RT":1426,"MT":340,"sideResp":1,"stimulus":[],"xmouse":[794,794,794,794,794,794,794,794,794,794,794,794,794,794,794,794,794,794,794,794,794,794,794,794,794,794,794,794,794,794,794,794,794,794,794,794,794,794,794,794,794,794,794,794,794,794,794,794,794,794,794,794,794,794,794,794,794,794,794,794,794,794,794,794,794,793,793,792,792,784,776,765,753,741,714,698,676,670,653,631,617,598,576,547,510,497,475,461,454],"ymouse":[545,545,545,545,545,545,545,545,545,545,545,545,545,545,545,545,545,545,545,545,545,545,545,545,545,545,545,545,545,545,545,545,545,545,545,545,545,545,545,545,545,545,545,545,545,545,545,545,545,545,545,545,545,545,545,545,545,545,545,545,545,545,545,545,545,545,545,543,540,514,492,465,440,415,370,352,327,321,304,281,269,252,233,211,170,148,118,103,93],"timestamp_mouse":[12,33,46,67,86,105,127,146,166,187,206,225,245,265,286,306,325,346,365,386,406,427,446,465,486,507,527,546,566,585,607,627,646,667,686,706,725,745,767,786,806,825,846,867,886,907,926,946,966,985,1007,1027,1046,1066,1085,1105,1127,1146,1167,1185,1207,1227,1247,1265,1285,1307,1326,1346,1366,1385,1406,1426,1445,1466,1486,1507,1525,1546,1567,1586,1606,1627,1647,1666,1686,1706,1726,1746,1766],"xSR":741.5,"ySR":469.95,"xT1":424.9,"yT1":0,"xT2":1058.1,"yT2":0,"toosoon":0,"cond_shown":"Congruent","ratio_trial":300,"L_num":4,"L_den":5,"R_num":2,"R_den":4,"correct_side":1,"subjID":"juanjosemoreno6","gender":"0","school":"4","age":"9"},{"start_time":1552327676203,"click_time":1552327677511,"finger_time":1552327676971,"fix_duration":250,"trial":38,"RT":768,"MT":540,"sideResp":2,"stimulus":[],"xmouse":[822,822,822,821,821,821,821,821,821,821,821,821,821,821,821,821,821,821,821,821,821,821,821,821,821,821,821,821,821,821,821,821,823,824,827,829,831,832,836,843,848,853,861,869,890,904,909,922,930,945,953,962,969,977,998,1006,1017,1023,1028,1035,1040,1045,1049,1052,1060,1064],"ymouse":[493,493,493,494,494,494,494,494,494,494,494,494,494,494,494,494,494,494,494,494,494,494,494,494,494,494,494,494,494,494,492,491,488,485,480,477,473,472,466,456,449,441,432,421,393,371,365,344,330,301,287,272,258,244,211,196,176,164,154,140,134,127,121,116,104,98],"timestamp_mouse":[10,42,49,68,87,109,128,148,169,188,208,229,248,268,288,308,329,349,369,388,407,427,448,469,489,507,527,548,569,587,608,629,648,667,687,708,727,747,768,787,808,828,848,869,887,907,929,949,968,988,1008,1028,1048,1068,1087,1107,1127,1147,1168,1188,1207,1227,1248,1269,1288,1308],"xSR":741.5,"ySR":469.95,"xT1":424.9,"yT1":0,"xT2":1058.1,"yT2":0,"toosoon":0,"cond_shown":"Incongruent","ratio_trial":300,"L_num":4,"L_den":5,"R_num":8,"R_den":16,"correct_side":1,"subjID":"juanjosemoreno6","gender":"0","school":"4","age":"9"},{"start_time":1552327680802,"click_time":1552327683011,"finger_time":1552327682172,"fix_duration":1330.4180174299095,"trial":39,"RT":1370,"MT":839,"sideResp":1,"stimulus":[],"xmouse":[784,784,783,782,780,779,778,777,776,772,770,768,767,766,765,765,765,765,765,765,766,767,768,769,771,772,775,776,780,786,787,790,791,792,792,792,792,792,792,792,792,792,792,792,792,792,792,792,792,792,792,792,792,792,792,792,792,792,792,792,791,791,791,791,791,791,797,808,900,1078,1148,1191,1201,1201,1201,1201,1201,1201,1201,1201,1201,981,1560,1560,1550,1418,1151,1081,1078,1215,1303,1336,1338,1323,1210,1087,966,847,844,874,894,899,899,873,544,285,64,0,17,301,483],"ymouse":[535,535,535,535,536,538,539,541,542,545,547,549,551,553,555,555,555,555,555,555,554,553,552,550,547,546,542,541,534,524,519,516,513,512,512,512,512,512,512,512,512,512,512,512,512,512,512,512,512,512,512,513,513,513,513,513,513,513,513,513,513,513,513,513,513,513,509,504,465,350,262,152,26,26,26,26,26,26,26,26,26,31,146,146,316,372,449,477,480,467,432,401,379,361,330,322,322,326,327,321,311,306,304,298,282,247,208,173,157,103,92],"timestamp_mouse":[12,35,48,69,88,108,129,149,168,188,209,229,249,270,289,309,328,350,369,390,409,430,449,470,489,510,528,549,569,588,609,629,649,669,690,708,729,750,769,788,809,830,850,868,888,909,930,948,969,990,1009,1028,1050,1069,1090,1109,1130,1149,1168,1190,1208,1230,1250,1268,1288,1309,1329,1350,1370,1389,1409,1429,1449,1469,1489,1509,1529,1549,1569,1588,1609,1629,1649,1670,1690,1708,1728,1749,1769,1790,1808,1830,1849,1870,1889,1909,1929,1949,1968,1990,2009,2030,2049,2069,2089,2109,2130,2149,2169,2188,2209],"xSR":741.5,"ySR":469.95,"xT1":424.9,"yT1":0,"xT2":1058.1,"yT2":0,"toosoon":0,"cond_shown":"Incongruent","ratio_trial":300,"L_num":4,"L_den":20,"R_num":2,"R_den":4,"correct_side":2,"subjID":"juanjosemoreno6","gender":"0","school":"4","age":"9"},{"start_time":1552327687316,"click_time":1552327688891,"finger_time":1552327688571,"fix_duration":724.9123366423202,"trial":40,"RT":1255,"MT":320,"sideResp":2,"stimulus":[],"xmouse":[768,769,769,770,770,771,771,771,771,772,773,773,773,773,773,773,773,773,773,773,773,773,773,773,773,773,773,773,773,773,773,773,773,773,773,773,773,773,773,773,773,773,773,774,774,774,774,774,774,774,774,774,774,774,777,782,787,791,796,797,799,805,814,839,857,879,906,932,974,988,997,1008,1024,1041,1046,1051,1056,1058,1059],"ymouse":[544,540,540,528,524,522,521,521,520,520,520,520,520,520,520,520,520,520,520,520,520,520,520,520,520,520,520,520,520,520,520,520,520,520,520,520,520,520,520,520,520,520,520,520,520,520,520,520,520,520,520,520,520,520,516,508,500,494,484,482,479,471,460,423,396,357,309,264,194,168,148,129,106,82,72,64,59,55,53],"timestamp_mouse":[15,43,55,75,94,115,135,155,175,196,215,234,255,275,296,314,334,356,374,396,416,434,455,475,494,514,535,556,574,594,616,634,654,675,696,716,735,754,775,796,814,834,855,875,895,914,935,954,975,995,1016,1036,1054,1075,1095,1116,1135,1154,1175,1195,1215,1236,1255,1274,1296,1315,1334,1354,1375,1396,1415,1434,1455,1474,1495,1514,1535,1556,1575],"xSR":741.5,"ySR":469.95,"xT1":424.9,"yT1":0,"xT2":1058.1,"yT2":0,"toosoon":0,"cond_shown":"Congruent","ratio_trial":200,"L_num":3,"L_den":10,"R_num":7,"R_den":14,"correct_side":2,"subjID":"juanjosemoreno6","gender":"0","school":"4","age":"9"},{"start_time":1552327692558,"click_time":1552327694111,"finger_time":1552327693952,"fix_duration":1003.2989146522914,"trial":41,"RT":1394,"MT":159,"sideResp":2,"stimulus":[],"xmouse":[777,777,777,777,777,777,777,777,777,777,777,777,777,777,777,777,777,777,777,777,777,777,777,777,777,777,777,777,777,777,777,777,777,777,777,777,777,777,777,777,777,777,777,777,777,777,777,777,777,777,777,777,777,777,777,777,777,777,777,777,777,777,777,777,777,777,781,788,799,819,845,926,963,998,1022,1041,1058,1062],"ymouse":[506,506,506,506,506,506,506,506,506,506,506,506,506,506,506,506,506,506,506,506,506,506,506,506,506,506,506,506,506,506,506,506,506,506,506,506,506,506,506,506,506,506,506,506,506,506,506,506,506,506,506,506,506,506,506,506,506,506,506,506,506,506,506,506,506,506,503,495,482,450,410,288,224,165,123,91,53,43],"timestamp_mouse":[23,33,52,72,93,113,132,153,174,192,213,233,254,272,294,312,333,353,374,393,413,432,453,473,492,513,532,552,573,594,612,633,654,672,693,712,733,753,773,792,813,833,852,874,892,912,933,953,974,992,1013,1034,1053,1073,1092,1113,1132,1153,1172,1192,1213,1233,1252,1274,1294,1313,1333,1353,1373,1394,1414,1433,1453,1473,1493,1514,1533,1553],"xSR":741.5,"ySR":469.95,"xT1":424.9,"yT1":0,"xT2":1058.1,"yT2":0,"toosoon":0,"cond_shown":"Incongruent","ratio_trial":200,"L_num":7,"L_den":15,"R_num":6,"R_den":9,"correct_side":2,"subjID":"juanjosemoreno6","gender":"0","school":"4","age":"9"},{"start_time":1552327695502,"click_time":1552327696491,"finger_time":1552327696091,"fix_duration":310.64216434265614,"trial":42,"RT":589,"MT":400,"sideResp":2,"stimulus":[],"xmouse":[829,829,829,829,829,829,829,829,829,829,829,829,829,829,829,829,829,829,829,829,829,829,829,829,829,829,829,829,834,844,853,865,873,882,906,921,935,947,955,972,981,989,997,1007,1022,1030,1037,1046,1053,1060],"ymouse":[499,499,499,499,499,499,499,499,499,499,499,499,499,499,499,499,499,499,499,499,499,499,499,499,499,499,499,499,494,480,464,435,415,393,343,313,283,256,233,188,168,149,130,105,76,61,49,37,27,15],"timestamp_mouse":[13,39,48,69,88,108,130,150,170,188,209,229,249,269,289,310,329,350,369,390,409,428,449,469,488,508,529,549,569,589,608,628,648,669,689,709,729,749,768,789,809,829,850,868,888,909,929,949,968,989],"xSR":741.5,"ySR":469.95,"xT1":424.9,"yT1":0,"xT2":1058.1,"yT2":0,"toosoon":0,"cond_shown":"Incongruent","ratio_trial":200,"L_num":4,"L_den":6,"R_num":14,"R_den":30,"correct_side":1,"subjID":"juanjosemoreno6","gender":"0","school":"4","age":"9"},{"start_time":1552327698616,"click_time":1552327699691,"finger_time":1552327699191,"fix_duration":1123.9146231189243,"trial":43,"RT":575,"MT":500,"sideResp":1,"stimulus":[],"xmouse":[801,801,801,801,801,801,801,801,801,801,801,801,801,801,801,801,801,801,801,801,801,801,801,801,800,799,798,795,779,767,757,745,734,719,709,689,681,657,632,620,608,599,592,579,573,568,561,557,553,548,542,535,527,512],"ymouse":[511,511,511,511,511,511,511,511,511,511,511,511,511,511,511,511,511,511,511,511,511,511,511,511,508,501,495,488,463,449,434,415,396,353,331,295,282,248,212,196,181,169,156,133,122,112,102,97,95,95,95,95,95,95],"timestamp_mouse":[16,44,55,74,96,116,136,155,174,195,215,235,255,275,295,314,334,355,375,395,414,436,455,475,495,515,535,554,575,595,615,635,656,675,696,715,734,755,775,795,816,835,856,874,894,914,934,955,974,995,1015,1035,1055,1075],"xSR":741.5,"ySR":469.95,"xT1":424.9,"yT1":0,"xT2":1058.1,"yT2":0,"toosoon":0,"cond_shown":"Congruent","ratio_trial":100,"L_num":8,"L_den":16,"R_num":2,"R_den":5,"correct_side":1,"subjID":"juanjosemoreno6","gender":"0","school":"4","age":"9"},{"start_time":1552327701362,"click_time":1552327702711,"finger_time":1552327701991,"fix_duration":250,"trial":44,"RT":629,"MT":720,"sideResp":2,"stimulus":[],"xmouse":[806,806,806,806,806,806,806,806,806,806,806,806,806,806,806,806,806,806,806,806,806,806,806,806,806,806,806,806,806,808,810,822,831,842,852,865,885,895,907,929,941,969,981,993,1004,1012,1028,1036,1042,1049,1056,1058,1058,1058,1058,1058,1058,1058,1058,1058,1058,1058,1058,1058,1058,1058,1058,1059],"ymouse":[493,493,493,493,493,493,493,493,493,493,493,493,493,493,493,493,493,493,493,493,493,493,493,493,493,493,493,493,493,491,486,468,456,437,419,397,352,328,303,262,237,189,168,150,131,115,84,70,59,48,38,33,33,33,33,33,33,33,33,33,33,33,33,33,33,33,33,33],"timestamp_mouse":[9,41,49,68,88,110,129,149,169,190,210,229,250,270,290,309,330,349,368,390,410,429,450,470,488,508,529,550,569,590,608,629,649,669,689,710,729,749,770,789,810,829,849,869,889,909,928,950,968,988,1009,1029,1049,1068,1088,1108,1129,1148,1168,1188,1210,1229,1249,1270,1289,1309,1328,1348],"xSR":741.5,"ySR":469.95,"xT1":424.9,"yT1":0,"xT2":1058.1,"yT2":0,"toosoon":0,"cond_shown":"Congruent","ratio_trial":300,"L_num":2,"L_den":10,"R_num":12,"R_den":24,"correct_side":2,"subjID":"juanjosemoreno6","gender":"0","school":"4","age":"9"},{"start_time":1552327705380,"click_time":1552327706970,"finger_time":1552327706690,"fix_duration":1425.7228911311945,"trial":45,"RT":1310,"MT":280,"sideResp":2,"stimulus":[],"xmouse":[784,784,784,784,784,784,784,784,784,784,784,784,784,784,784,784,784,784,784,784,784,784,784,784,784,784,784,784,784,784,784,784,784,784,784,784,784,784,784,784,784,784,784,784,784,784,784,784,784,784,784,784,784,784,784,784,784,784,784,784,789,792,796,804,816,848,861,874,901,922,959,978,994,1011,1026,1057,1069,1078,1089,1103],"ymouse":[506,506,506,506,506,506,506,506,506,506,506,506,506,506,506,506,506,506,506,506,506,506,506,506,506,506,506,506,506,506,506,506,506,506,506,506,506,506,506,506,506,506,506,506,506,506,506,506,506,506,506,506,506,506,506,506,506,506,506,505,504,502,500,496,489,466,453,437,405,381,331,301,274,246,224,181,162,144,125,98],"timestamp_mouse":[13,41,51,71,91,111,132,152,171,191,211,232,252,272,290,310,331,352,371,391,412,431,451,470,491,511,531,550,571,590,610,631,652,672,690,710,730,752,771,791,812,832,851,872,892,912,931,951,971,992,1011,1030,1051,1072,1090,1110,1132,1151,1171,1191,1211,1231,1252,1271,1292,1310,1331,1350,1370,1391,1410,1431,1452,1471,1491,1511,1532,1551,1570,1590],"xSR":741.5,"ySR":469.95,"xT1":424.9,"yT1":0,"xT2":1058.1,"yT2":0,"toosoon":0,"cond_shown":"Incongruent","ratio_trial":100,"L_num":12,"L_den":24,"R_num":9,"R_den":15,"correct_side":2,"subjID":"juanjosemoreno6","gender":"0","school":"4","age":"9"},{"start_time":1552327708631,"click_time":1552327710171,"finger_time":1552327709791,"fix_duration":358.9857469631247,"trial":46,"RT":1160,"MT":380,"sideResp":1,"stimulus":[],"xmouse":[804,804,804,804,804,804,804,804,803,803,803,803,803,803,803,803,802,802,802,802,802,802,801,801,801,800,800,800,800,800,800,800,800,800,800,800,800,800,800,800,800,800,800,800,800,800,800,800,800,800,800,800,800,799,799,799,795,773,703,667,649,640,640,640,640,640,640,640,632,625,621,616,612,598,577,559,538,519],"ymouse":[500,500,500,500,500,500,500,500,502,504,507,510,514,521,523,526,526,528,528,528,528,528,528,528,528,528,528,528,528,528,528,528,528,528,528,528,528,528,528,528,528,528,528,528,528,528,528,528,528,528,528,528,528,528,523,520,510,486,435,401,365,329,300,247,211,201,172,157,131,122,117,113,112,110,107,104,98,93],"timestamp_mouse":[10,21,42,60,81,99,120,140,160,180,200,221,239,260,280,300,320,341,359,381,401,420,441,460,481,500,520,540,560,581,600,621,641,659,680,700,721,739,759,780,799,821,840,860,881,900,920,939,959,980,1000,1021,1041,1059,1079,1101,1119,1139,1160,1180,1200,1220,1241,1260,1279,1301,1321,1340,1359,1380,1400,1420,1441,1460,1479,1500,1520,1539],"xSR":741.5,"ySR":469.95,"xT1":424.9,"yT1":0,"xT2":1058.1,"yT2":0,"toosoon":0,"cond_shown":"Incongruent","ratio_trial":300,"L_num":13,"L_den":26,"R_num":12,"R_den":15,"correct_side":2,"subjID":"juanjosemoreno6","gender":"0","school":"4","age":"9"},{"start_time":1552327712505,"click_time":1552327713611,"finger_time":1552327713032,"fix_duration":250,"trial":47,"RT":527,"MT":579,"sideResp":2,"stimulus":[],"xmouse":[813,813,813,813,812,812,812,812,812,812,811,811,811,811,811,811,811,811,811,811,813,814,818,821,831,838,845,854,864,897,914,931,956,972,1007,1028,1045,1058,1068,1081,1086,1086,1087,1087,1087,1087,1088,1088,1089,1089,1089,1089,1089,1091,1094,1096],"ymouse":[533,533,533,533,533,533,533,533,533,533,533,533,532,532,532,532,532,532,532,532,530,529,526,523,514,505,497,487,475,441,422,399,366,343,294,261,230,206,183,147,132,130,126,126,125,123,119,117,114,113,113,113,113,111,104,99],"timestamp_mouse":[12,31,45,65,86,106,126,146,165,186,206,227,246,267,287,306,325,347,366,386,405,426,446,467,487,506,527,546,567,586,606,625,645,666,686,706,726,746,765,786,805,827,846,867,886,906,926,945,966,985,1006,1026,1045,1066,1085,1106],"xSR":741.5,"ySR":469.95,"xT1":424.9,"yT1":0,"xT2":1058.1,"yT2":0,"toosoon":0,"cond_shown":"Congruent","ratio_trial":200,"L_num":3,"L_den":10,"R_num":14,"R_den":28,"correct_side":2,"subjID":"juanjosemoreno6","gender":"0","school":"4","age":"9"},{"start_time":1552327716108,"click_time":1552327717790,"finger_time":1552327717450,"fix_duration":1335.9660876100868,"trial":48,"RT":1342,"MT":340,"sideResp":1,"stimulus":[],"xmouse":[781,781,781,781,781,781,781,781,781,781,781,781,781,781,781,781,781,781,781,780,780,780,780,780,780,780,780,780,780,780,780,780,780,780,780,780,780,780,780,780,780,780,781,782,783,784,785,785,786,787,789,790,791,791,792,792,792,792,792,792,792,792,792,792,790,786,778,764,745,695,672,654,636,632,622,617,612,607,601,589,579,567,546,532,508],"ymouse":[510,510,510,510,510,510,510,510,510,510,510,510,510,510,510,510,510,511,511,512,512,513,513,513,513,513,513,513,513,513,513,513,513,513,513,513,513,513,513,513,513,513,512,511,510,510,509,508,507,506,505,503,503,502,501,501,501,501,501,501,500,500,499,497,493,488,476,463,443,399,372,347,314,297,263,245,227,210,190,151,133,118,103,97,93],"timestamp_mouse":[20,28,49,63,83,103,122,144,164,182,204,224,242,262,283,302,322,344,364,382,404,424,444,463,483,504,523,542,563,5