[{"start_time":1552328074121,"click_time":1552328076566,"finger_time":1552328075683,"fix_duration":550.9267431843157,"trial":0,"RT":1562,"MT":883,"sideResp":2,"stimulus":"img/500/randomdotsizeEA/R/1_Ratio_500_L_9_R_18.png","xmouse":[820,820,820,820,820,820,820,820,820,820,820,820,820,820,820,820,820,820,820,820,820,820,820,820,820,820,820,820,820,820,820,820,820,820,820,820,820,820,820,820,820,820,820,820,820,820,820,820,820,820,820,820,820,820,820,820,820,820,820,820,820,820,820,820,820,820,820,820,820,820,820,820,820,820,820,820,822,828,867,885,895,897,897,900,924,1004,1146,1554,1554,1554,1554,1554,1554,1554,1554,1554,1554,1554,1554,1554,1554,1341,1281,1206,1187,1179,1175,1175,1173,1170,1168,1168,1168,1168,1170,1170,1171,1171,1171,1171,1170,1163,1158],"ymouse":[495,495,495,495,495,495,495,495,495,495,495,495,495,495,495,495,495,495,495,495,495,495,495,495,495,495,495,495,495,495,495,495,495,495,495,495,495,495,495,495,495,495,495,495,495,495,495,495,495,495,495,495,495,495,495,495,495,495,495,495,495,495,495,495,495,495,495,495,495,495,495,495,495,495,495,495,495,492,466,454,448,448,448,444,423,376,322,220,220,220,220,220,220,220,220,220,220,220,220,220,220,0,27,47,47,45,45,45,50,57,66,67,67,67,66,64,63,63,63,62,62,64,65],"timestamp_mouse":[10,23,46,62,84,102,124,142,163,183,203,224,242,263,284,303,322,342,362,384,403,423,443,464,482,502,523,543,564,583,603,623,644,664,683,703,724,742,764,784,803,823,843,863,884,904,923,942,963,983,1004,1023,1043,1062,1083,1103,1123,1143,1162,1183,1204,1224,1244,1263,1282,1303,1322,1343,1363,1382,1403,1422,1442,1463,1484,1502,1522,1542,1562,1582,1602,1622,1642,1662,1683,1703,1723,1745,1763,1784,1803,1822,1843,1863,1882,1902,1922,1942,1962,1982,2003,2023,2042,2062,2083,2103,2122,2143,2162,2182,2203,2224,2243,2263,2283,2303,2322,2342,2362,2382,2402,2422,2444],"xSR":741.5,"ySR":469.95,"xT1":424.9,"yT1":0,"xT2":1058.1,"yT2":0,"toosoon":0,"cond_shown":"randomdotsizeEA","ratio_trial":500,"smaller_num":"9","larger_num":"18","correct_side":2,"subjID":"Juanjosemoreno6","gender":"0","age":"9","school":"4","test":{"fix_dur":[250,1500],"timestim":300,"targets_dim":[100,100],"targets_relative_coord":[0.3,0.7],"size_stim":[880,420],"start_dim":[100,100],"size_start":[300,300],"size_fix":60,"samplingrate":20,"img_types":["equaldotsize","equaldotanddens","randomdotsizeEA"],"ratios":[250,500,750,900],"rep_conds":9,"nTrials":120,"trials_to_rest":500,"Trials_order":[89,26,68,25,95,3,46,58,23,84,71,24,114,12,82,72,4,41,118,66,119,69,22,57,96,103,94,35,101,55,48,0,93,73,106,2,27,83,78,43,52,99,33,9,81,30,8,40,38,107,7,53,59,45,21,70,51,32,80,90,19,113,5,74,36,10,112,104,111,76,105,97,117,92,18,63,6,79,100,49,85,109,108,75,47,98,15,115,44,77,65,61,102,116,110,64,37,62,87,60,50,28,34,88,42,11,31,1,16,13,39,14,91,54,67,56,86,17,20,29],"cond_shown":["randomdotsizeEA","randomdotsizeEA","randomdotsizeEA","equaldotanddens","randomdotsizeEA","equaldotsize","equaldotanddens","equaldotanddens","randomdotsizeEA","equaldotsize","randomdotsizeEA","equaldotsize","equaldotsize","equaldotsize","equaldotanddens","equaldotsize","equaldotanddens","randomdotsizeEA","equaldotanddens","equaldotsize","randomdotsizeEA","equaldotsize","equaldotanddens","equaldotsize","equaldotsize","equaldotanddens","equaldotanddens","randomdotsizeEA","randomdotsizeEA","equaldotanddens","equaldotsize","equaldotsize","equaldotsize","equaldotanddens","equaldotanddens","randomdotsizeEA","equaldotsize","randomdotsizeEA","equaldotsize","equaldotanddens","equaldotanddens","equaldotsize","equaldotsize","equaldotsize","equaldotsize","equaldotsize","randomdotsizeEA","equaldotanddens","randomdotsizeEA","randomdotsizeEA","equaldotanddens","randomdotsizeEA","randomdotsizeEA","equaldotsize","equaldotsize","equaldotanddens","equaldotsize","randomdotsizeEA","randomdotsizeEA","equaldotsize","equaldotanddens","randomdotsizeEA","randomdotsizeEA","randomdotsizeEA","equaldotsize","equaldotanddens","equaldotanddens","randomdotsizeEA","equaldotsize","equaldotanddens","equaldotsize","equaldotanddens","equaldotsize","randomdotsizeEA","equaldotsize","equaldotsize","equaldotsize","equaldotanddens","equaldotanddens","equaldotanddens","equaldotanddens","equaldotanddens","equaldotsize","equaldotsize","randomdotsizeEA","randomdotsizeEA","equaldotsize","equaldotanddens","randomdotsizeEA","randomdotsizeEA","randomdotsizeEA","equaldotanddens","equaldotsize","randomdotsizeEA","randomdotsizeEA","equaldotanddens","equaldotanddens","randomdotsizeEA","equaldotsize","equaldotsize","randomdotsizeEA","equaldotanddens","equaldotanddens","equaldotanddens","equaldotsize","randomdotsizeEA","equaldotanddens","equaldotanddens","equaldotanddens","equaldotanddens","equaldotsize","randomdotsizeEA","equaldotanddens","equaldotsize","equaldotanddens","randomdotsizeEA","randomdotsizeEA","randomdotsizeEA","randomdotsizeEA","randomdotsizeEA"],"ratio_trial":[500,250,750,250,900,500,900,900,900,250,900,250,750,250,900,250,500,500,900,750,900,900,900,900,250,750,900,900,500,750,250,250,900,250,900,250,500,900,750,750,500,500,900,900,900,750,750,500,250,900,750,500,900,900,900,900,500,750,750,750,750,500,500,250,250,900,500,750,500,500,900,250,900,750,750,500,750,750,500,250,250,250,250,500,900,250,500,750,750,500,500,250,750,750,250,500,250,250,500,250,250,500,900,500,750,900,750,250,500,250,500,250,750,750,750,750,250,500,750,500],"smaller_num":["9","3","15","4","9","10","9","9","18","3","18","2","18","6","9","4","9","2","18","3","18","18","9","18","2","12","18","18","5","18","6","3","18","2","18","3","9","18","15","18","2","6","9","9","9","6","15","9","6","9","15","9","18","9","9","18","2","15","18","3","6","5","9","3","3","18","9","6","2","9","18","3","18","3","3","3","3","15","9","5","3","4","3","1","18","2","4","15","3","2","6","3","3","6","2","9","4","6","2","2","2","5","9","6","15","9","6","2","2","6","2","3","3","15","6","3","3","5","12","9"],"larger_num":["18","12","20","16","10","20","10","10","20","12","20","8","24","24","10","16","18","4","20","4","20","20","10","20","8","16","20","20","10","24","24","12","20","8","20","12","18","20","20","24","4","12","10","10","10","8","20","18","24","10","20","18","20","10","10","20","4","20","24","4","8","10","18","12","12","20","18","8","4","18","20","12","20","4","4","6","4","20","18","20","12","16","12","2","20","8","8","20","4","4","12","12","4","8","8","18","16","24","4","8","8","10","10","12","20","10","8","8","4","24","4","12","4","20","8","4","12","10","16","18"],"correct_side":[2,2,2,1,2,2,2,1,1,2,2,1,1,1,2,1,2,2,1,2,2,2,2,1,1,2,1,1,1,1,1,2,1,1,1,2,2,1,2,1,2,1,2,2,2,2,2,2,2,1,2,2,1,1,2,1,1,2,1,1,1,1,1,2,2,1,1,1,1,2,1,2,2,1,2,2,1,2,2,2,1,2,2,2,1,2,1,2,2,2,1,1,1,1,2,1,1,2,1,1,1,1,1,1,2,2,1,2,2,1,2,1,1,1,2,1,1,2,2,1],"img_shown":["img/500/randomdotsizeEA/R/1_Ratio_500_L_9_R_18.png","img/250/randomdotsizeEA/R/11_Ratio_250_L_3_R_12.png","img/750/randomdotsizeEA/R/4_Ratio_750_L_15_R_20.png","img/250/equaldotanddens/L/2_Ratio_250_L_16_R_4.png","img/900/randomdotsizeEA/R/6_Ratio_900_L_9_R_10.png","img/500/equaldotsize/R/3_Ratio_500_L_10_R_20.png","img/900/equaldotanddens/R/6_Ratio_900_L_9_R_10.png","img/900/equaldotanddens/L/1_Ratio_900_L_10_R_9.png","img/900/randomdotsizeEA/L/4_Ratio_900_L_20_R_18.png","img/250/equaldotsize/R/4_Ratio_250_L_3_R_12.png","img/900/randomdotsizeEA/R/14_Ratio_900_L_18_R_20.png","img/250/equaldotsize/L/7_Ratio_250_L_8_R_2.png","img/750/equaldotsize/L/6_Ratio_750_L_24_R_18.png","img/250/equaldotsize/L/5_Ratio_250_L_24_R_6.png","img/900/equaldotanddens/R/5_Ratio_900_L_9_R_10.png","img/250/equaldotsize/L/2_Ratio_250_L_16_R_4.png","img/500/equaldotanddens/R/6_Ratio_500_L_9_R_18.png","img/500/randomdotsizeEA/R/9_Ratio_500_L_2_R_4.png","img/900/equaldotanddens/L/10_Ratio_900_L_20_R_18.png","img/750/equaldotsize/R/12_Ratio_750_L_3_R_4.png","img/900/randomdotsizeEA/R/11_Ratio_900_L_18_R_20.png","img/900/equaldotsize/R/12_Ratio_900_L_18_R_20.png","img/900/equaldotanddens/R/7_Ratio_900_L_9_R_10.png","img/900/equaldotsize/L/10_Ratio_900_L_20_R_18.png","img/250/equaldotsize/L/3_Ratio_250_L_8_R_2.png","img/750/equaldotanddens/R/11_Ratio_750_L_12_R_16.png","img/900/equaldotanddens/L/8_Ratio_900_L_20_R_18.png","img/900/randomdotsizeEA/L/4_Ratio_900_L_20_R_18.png","img/500/randomdotsizeEA/L/7_Ratio_500_L_10_R_5.png","img/750/equaldotanddens/L/6_Ratio_750_L_24_R_18.png","img/250/equaldotsize/L/5_Ratio_250_L_24_R_6.png","img/250/equaldotsize/R/9_Ratio_250_L_3_R_12.png","img/900/equaldotsize/L/2_Ratio_900_L_20_R_18.png","img/250/equaldotanddens/L/1_Ratio_250_L_8_R_2.png","img/900/equaldotanddens/L/10_Ratio_900_L_20_R_18.png","img/250/randomdotsizeEA/R/4_Ratio_250_L_3_R_12.png","img/500/equaldotsize/R/1_Ratio_500_L_9_R_18.png","img/900/randomdotsizeEA/L/4_Ratio_900_L_20_R_18.png","img/750/equaldotsize/R/4_Ratio_750_L_15_R_20.png","img/750/equaldotanddens/L/6_Ratio_750_L_24_R_18.png","img/500/equaldotanddens/R/9_Ratio_500_L_2_R_4.png","img/500/equaldotsize/L/13_Ratio_500_L_12_R_6.png","img/900/equaldotsize/R/7_Ratio_900_L_9_R_10.png","img/900/equaldotsize/R/3_Ratio_900_L_9_R_10.png","img/900/equaldotsize/R/6_Ratio_900_L_9_R_10.png","img/750/equaldotsize/R/2_Ratio_750_L_6_R_8.png","img/750/randomdotsizeEA/R/3_Ratio_750_L_15_R_20.png","img/500/equaldotanddens/R/6_Ratio_500_L_9_R_18.png","img/250/randomdotsizeEA/R/6_Ratio_250_L_6_R_24.png","img/900/randomdotsizeEA/L/1_Ratio_900_L_10_R_9.png","img/750/equaldotanddens/R/3_Ratio_750_L_15_R_20.png","img/500/randomdotsizeEA/R/1_Ratio_500_L_9_R_18.png","img/900/randomdotsizeEA/L/2_Ratio_900_L_20_R_18.png","img/900/equaldotsize/L/1_Ratio_900_L_10_R_9.png","img/900/equaldotsize/R/6_Ratio_900_L_9_R_10.png","img/900/equaldotanddens/L/2_Ratio_900_L_20_R_18.png","img/500/equaldotsize/L/10_Ratio_500_L_4_R_2.png","img/750/randomdotsizeEA/R/5_Ratio_750_L_15_R_20.png","img/750/randomdotsizeEA/L/6_Ratio_750_L_24_R_18.png","img/750/equaldotsize/L/8_Ratio_750_L_4_R_3.png","img/750/equaldotanddens/L/14_Ratio_750_L_8_R_6.png","img/500/randomdotsizeEA/L/7_Ratio_500_L_10_R_5.png","img/500/randomdotsizeEA/L/4_Ratio_500_L_18_R_9.png","img/250/randomdotsizeEA/R/11_Ratio_250_L_3_R_12.png","img/250/equaldotsize/R/11_Ratio_250_L_3_R_12.png","img/900/equaldotanddens/L/4_Ratio_900_L_20_R_18.png","img/500/equaldotanddens/L/4_Ratio_500_L_18_R_9.png","img/750/randomdotsizeEA/L/14_Ratio_750_L_8_R_6.png","img/500/equaldotsize/L/5_Ratio_500_L_4_R_2.png","img/500/equaldotanddens/R/6_Ratio_500_L_9_R_18.png","img/900/equaldotsize/L/2_Ratio_900_L_20_R_18.png","img/250/equaldotanddens/R/4_Ratio_250_L_3_R_12.png","img/900/equaldotsize/R/13_Ratio_900_L_18_R_20.png","img/750/randomdotsizeEA/L/9_Ratio_750_L_4_R_3.png","img/750/equaldotsize/R/12_Ratio_750_L_3_R_4.png","img/500/equaldotsize/R/2_Ratio_500_L_3_R_6.png","img/750/equaldotsize/L/9_Ratio_750_L_4_R_3.png","img/750/equaldotanddens/R/3_Ratio_750_L_15_R_20.png","img/500/equaldotanddens/R/6_Ratio_500_L_9_R_18.png","img/250/equaldotanddens/R/12_Ratio_250_L_5_R_20.png","img/250/equaldotanddens/L/15_Ratio_250_L_12_R_3.png","img/250/equaldotanddens/R/10_Ratio_250_L_4_R_16.png","img/250/equaldotsize/R/4_Ratio_250_L_3_R_12.png","img/500/equaldotsize/R/12_Ratio_500_L_1_R_2.png","img/900/randomdotsizeEA/L/4_Ratio_900_L_20_R_18.png","img/250/randomdotsizeEA/R/13_Ratio_250_L_2_R_8.png","img/500/equaldotsize/L/8_Ratio_500_L_8_R_4.png","img/750/equaldotanddens/R/4_Ratio_750_L_15_R_20.png","img/750/randomdotsizeEA/R/7_Ratio_750_L_3_R_4.png","img/500/randomdotsizeEA/R/9_Ratio_500_L_2_R_4.png","img/500/randomdotsizeEA/L/13_Ratio_500_L_12_R_6.png","img/250/equaldotanddens/L/15_Ratio_250_L_12_R_3.png","img/750/equaldotsize/L/8_Ratio_750_L_4_R_3.png","img/750/randomdotsizeEA/L/13_Ratio_750_L_8_R_6.png","img/250/randomdotsizeEA/R/13_Ratio_250_L_2_R_8.png","img/500/equaldotanddens/L/4_Ratio_500_L_18_R_9.png","img/250/equaldotanddens/L/2_Ratio_250_L_16_R_4.png","img/250/randomdotsizeEA/R/6_Ratio_250_L_6_R_24.png","img/500/equaldotsize/L/10_Ratio_500_L_4_R_2.png","img/250/equaldotsize/L/3_Ratio_250_L_8_R_2.png","img/250/randomdotsizeEA/L/7_Ratio_250_L_8_R_2.png","img/500/equaldotanddens/L/7_Ratio_500_L_10_R_5.png","img/900/equaldotanddens/L/1_Ratio_900_L_10_R_9.png","img/500/equaldotanddens/L/11_Ratio_500_L_12_R_6.png","img/750/equaldotsize/R/3_Ratio_750_L_15_R_20.png","img/900/randomdotsizeEA/R/15_Ratio_900_L_9_R_10.png","img/750/equaldotanddens/L/14_Ratio_750_L_8_R_6.png","img/250/equaldotanddens/R/13_Ratio_250_L_2_R_8.png","img/500/equaldotanddens/R/9_Ratio_500_L_2_R_4.png","img/250/equaldotanddens/L/5_Ratio_250_L_24_R_6.png","img/500/equaldotsize/R/9_Ratio_500_L_2_R_4.png","img/250/randomdotsizeEA/L/14_Ratio_250_L_12_R_3.png","img/750/equaldotanddens/L/10_Ratio_750_L_4_R_3.png","img/750/equaldotsize/L/1_Ratio_750_L_20_R_15.png","img/750/equaldotanddens/R/2_Ratio_750_L_6_R_8.png","img/750/randomdotsizeEA/L/9_Ratio_750_L_4_R_3.png","img/250/randomdotsizeEA/L/15_Ratio_250_L_12_R_3.png","img/500/randomdotsizeEA/R/14_Ratio_500_L_5_R_10.png","img/750/randomdotsizeEA/R/11_Ratio_750_L_12_R_16.png","img/500/randomdotsizeEA/L/4_Ratio_500_L_18_R_9.png"],"Rat0":[["12_Ratio_0_L_9_R_0.png","13_Ratio_0_L_6_R_0.png","5_Ratio_0_L_2_R_0.png","6_Ratio_0_L_4_R_0.png","8_Ratio_0_L_6_R_0.png"],["1_Ratio_0_L_0_R_17.png","10_Ratio_0_L_0_R_22.png","11_Ratio_0_L_0_R_1.png","14_Ratio_0_L_0_R_24.png","15_Ratio_0_L_0_R_4.png","2_Ratio_0_L_0_R_5.png","3_Ratio_0_L_0_R_17.png","4_Ratio_0_L_0_R_7.png","7_Ratio_0_L_0_R_19.png","9_Ratio_0_L_0_R_15.png"]],"Rat250":[["1_Ratio_250_L_8_R_2.png","14_Ratio_250_L_12_R_3.png","15_Ratio_250_L_12_R_3.png","2_Ratio_250_L_16_R_4.png","3_Ratio_250_L_8_R_2.png","5_Ratio_250_L_24_R_6.png","7_Ratio_250_L_8_R_2.png"],["10_Ratio_250_L_4_R_16.png","11_Ratio_250_L_3_R_12.png","12_Ratio_250_L_5_R_20.png","13_Ratio_250_L_2_R_8.png","4_Ratio_250_L_3_R_12.png","6_Ratio_250_L_6_R_24.png","8_Ratio_250_L_1_R_4.png","9_Ratio_250_L_3_R_12.png"]],"Rat500":[["10_Ratio_500_L_4_R_2.png","11_Ratio_500_L_12_R_6.png","13_Ratio_500_L_12_R_6.png","4_Ratio_500_L_18_R_9.png","5_Ratio_500_L_4_R_2.png","7_Ratio_500_L_10_R_5.png","8_Ratio_500_L_8_R_4.png"],["1_Ratio_500_L_9_R_18.png","12_Ratio_500_L_1_R_2.png","14_Ratio_500_L_5_R_10.png","15_Ratio_500_L_1_R_2.png","2_Ratio_500_L_3_R_6.png","3_Ratio_500_L_10_R_20.png","6_Ratio_500_L_9_R_18.png","9_Ratio_500_L_2_R_4.png"]],"Rat750":[["1_Ratio_750_L_20_R_15.png","10_Ratio_750_L_4_R_3.png","13_Ratio_750_L_8_R_6.png","14_Ratio_750_L_8_R_6.png","6_Ratio_750_L_24_R_18.png","8_Ratio_750_L_4_R_3.png","9_Ratio_750_L_4_R_3.png"],["11_Ratio_750_L_12_R_16.png","12_Ratio_750_L_3_R_4.png","15_Ratio_750_L_9_R_12.png","2_Ratio_750_L_6_R_8.png","3_Ratio_750_L_15_R_20.png","4_Ratio_750_L_15_R_20.png","5_Ratio_750_L_15_R_20.png","7_Ratio_750_L_3_R_4.png"]],"Rat900":[["1_Ratio_900_L_10_R_9.png","10_Ratio_900_L_20_R_18.png","2_Ratio_900_L_20_R_18.png","4_Ratio_900_L_20_R_18.png","8_Ratio_900_L_20_R_18.png"],["11_Ratio_900_L_18_R_20.png","12_Ratio_900_L_18_R_20.png","13_Ratio_900_L_18_R_20.png","14_Ratio_900_L_18_R_20.png","15_Ratio_900_L_9_R_10.png","3_Ratio_900_L_9_R_10.png","5_Ratio_900_L_9_R_10.png","6_Ratio_900_L_9_R_10.png","7_Ratio_900_L_9_R_10.png","9_Ratio_900_L_18_R_20.png"]],"Rat1000":[["10_Ratio_1000_L_16_R_16.png","11_Ratio_1000_L_6_R_6.png","12_Ratio_1000_L_14_R_14.png","13_Ratio_1000_L_20_R_20.png","15_Ratio_1000_L_15_R_15.png","2_Ratio_1000_L_17_R_17.png","4_Ratio_1000_L_9_R_9.png","5_Ratio_1000_L_6_R_6.png","6_Ratio_1000_L_19_R_19.png","8_Ratio_1000_L_14_R_14.png","9_Ratio_1000_L_25_R_25.png"],["1_Ratio_1000_L_1_R_1.png","14_Ratio_1000_L_17_R_17.png","3_Ratio_1000_L_17_R_17.png","7_Ratio_1000_L_6_R_6.png"]]}},{"start_time":1552328079617,"click_time":1552328081065,"finger_time":1552328080665,"fix_duration":250,"trial":1,"RT":1048,"MT":400,"sideResp":2,"stimulus":"img/250/randomdotsizeEA/R/11_Ratio_250_L_3_R_12.png","xmouse":[768,767,767,767,767,767,767,767,768,770,771,773,778,782,785,787,788,789,790,792,793,796,800,803,803,804,804,804,804,804,804,804,804,804,804,804,804,804,804,804,804,804,804,804,804,804,804,804,804,804,808,812,845,871,888,921,956,1002,1056,1078,1102,1116,1132,1153,1157,1160,1162,1162,1162,1161,1161,1159,1140],"ymouse":[539,539,539,539,539,539,539,539,539,539,539,539,538,537,536,535,535,535,534,533,532,530,527,526,525,525,524,524,524,524,524,524,524,524,524,524,524,524,524,524,524,524,524,524,524,524,524,524,524,524,520,517,493,479,465,432,399,360,300,267,234,210,183,138,120,101,77,64,48,45,45,45,54],"timestamp_mouse":[7,27,46,68,86,107,126,147,167,187,206,226,248,266,286,307,327,346,366,387,406,426,448,467,487,506,527,547,567,587,607,626,647,666,688,708,727,748,768,787,807,827,847,867,887,907,927,948,966,987,1007,1026,1048,1066,1086,1107,1127,1147,1166,1187,1206,1226,1247,1266,1286,1307,1326,1348,1367,1387,1406,1426,1448],"xSR":741.5,"ySR":469.95,"xT1":424.9,"yT1":0,"xT2":1058.1,"yT2":0,"toosoon":0,"cond_shown":"randomdotsizeEA","ratio_trial":250,"smaller_num":"3","larger_num":"12","correct_side":2,"subjID":"Juanjosemoreno6","gender":"0","age":"9","school":"4"},{"start_time":1552328083135,"click_time":1552328084925,"finger_time":1552328084385,"fix_duration":1030.989754217796,"trial":2,"RT":1250,"MT":540,"sideResp":1,"stimulus":"img/750/randomdotsizeEA/R/4_Ratio_750_L_15_R_20.png","xmouse":[798,798,798,798,798,798,798,798,798,798,798,798,798,798,798,798,798,798,798,798,798,799,800,800,800,800,800,800,800,800,800,800,800,800,800,800,800,800,800,800,800,800,800,800,800,800,800,800,800,800,800,800,800,800,799,797,794,794,794,790,784,778,760,749,739,730,718,715,711,705,701,697,691,688,679,666,638,628,618,603,581,555,546,538,535,533,531,528,526,523],"ymouse":[520,520,520,520,520,520,520,520,520,520,520,520,520,520,520,520,520,520,520,520,519,519,517,517,517,517,517,517,517,517,517,517,517,517,517,517,517,517,517,517,517,517,517,517,517,517,517,518,518,518,518,518,518,519,519,520,521,521,521,512,493,470,415,391,368,349,313,296,281,260,248,240,235,234,232,227,207,194,179,163,137,114,108,102,100,99,97,96,96,96],"timestamp_mouse":[13,28,49,69,88,109,130,149,168,190,210,229,249,270,289,309,330,349,368,389,409,429,449,469,488,509,530,550,569,590,608,629,648,669,689,709,729,748,769,790,810,829,850,868,889,910,928,950,969,988,1009,1028,1050,1069,1089,1109,1129,1149,1169,1190,1209,1228,1250,1268,1288,1308,1330,1348,1370,1389,1410,1428,1448,1468,1488,1508,1530,1549,1569,1589,1609,1630,1648,1668,1689,1708,1728,1748,1768,1789],"xSR":741.5,"ySR":469.95,"xT1":424.9,"yT1":0,"xT2":1058.1,"yT2":0,"toosoon":0,"cond_shown":"randomdotsizeEA","ratio_trial":750,"smaller_num":"15","larger_num":"20","correct_side":2,"subjID":"Juanjosemoreno6","gender":"0","age":"9","school":"4"},{"start_time":1552328090865,"click_time":1552328092183,"finger_time":1552328091744,"fix_duration":718.2582123397893,"trial":3,"RT":879,"MT":439,"sideResp":1,"stimulus":"img/250/equaldotanddens/L/2_Ratio_250_L_16_R_4.png","xmouse":[801,801,801,799,798,797,797,796,795,794,792,791,791,791,791,791,791,791,791,791,791,791,791,791,791,791,791,791,791,791,791,791,791,791,791,791,791,791,791,791,791,790,783,768,700,636,553,519,488,468,451,427,419,417,413,413,418,426,434,437,439,446,451,457,464,464,468],"ymouse":[555,555,555,555,555,555,555,555,555,554,541,536,532,530,529,529,529,529,529,529,529,529,529,529,529,529,529,529,529,529,529,529,529,529,529,529,529,529,529,529,528,522,509,490,449,412,343,307,276,253,233,205,195,189,175,164,157,150,145,143,141,139,136,131,123,117,97],"timestamp_mouse":[1,34,38,59,79,99,120,139,160,178,199,218,239,258,279,299,318,339,360,380,399,419,440,459,479,498,518,538,558,579,599,619,640,658,678,699,720,738,758,779,799,819,839,858,879,899,920,939,960,980,998,1018,1039,1058,1078,1100,1119,1138,1159,1178,1200,1218,1238,1259,1278,1299,1318],"xSR":741.5,"ySR":469.95,"xT1":424.9,"yT1":0,"xT2":1058.1,"yT2":0,"toosoon":0,"cond_shown":"equaldotanddens","ratio_trial":250,"smaller_num":"4","larger_num":"16","correct_side":1,"subjID":"Juanjosemoreno6","gender":"0","age":"9","school":"4"},{"start_time":1552328094817,"click_time":1552328096204,"finger_time":1552328095724,"fix_duration":1311.1003329022212,"trial":4,"RT":907,"MT":480,"sideResp":2,"stimulus":"img/900/randomdotsizeEA/R/6_Ratio_900_L_9_R_10.png","xmouse":[817,816,816,812,807,799,793,790,787,786,786,786,786,786,786,786,786,786,786,786,786,786,786,786,786,786,786,786,786,786,786,786,786,786,786,786,786,786,786,786,786,786,786,777,767,753,736,734,748,772,815,870,965,1009,1043,1065,1087,1096,1111,1120,1130,1140,1161,1164,1165,1165,1163,1156,1119,1091],"ymouse":[477,478,479,483,486,492,497,499,503,503,503,503,503,504,504,504,504,504,504,504,504,504,504,504,504,504,504,504,504,504,504,504,504,504,504,504,504,504,504,504,504,504,503,491,481,468,446,432,404,389,373,353,311,290,271,255,232,220,198,186,172,158,128,117,106,104,103,103,103,98],"timestamp_mouse":[10,28,48,67,87,106,128,147,167,186,207,227,246,268,287,308,326,347,366,388,407,427,446,468,488,508,527,548,566,587,607,627,647,668,686,708,726,747,767,788,807,828,847,866,886,907,926,946,966,987,1006,1026,1049,1066,1087,1106,1126,1146,1166,1186,1206,1226,1247,1266,1287,1307,1327,1348,1368,1387],"xSR":741.5,"ySR":469.95,"xT1":424.9,"yT1":0,"xT2":1058.1,"yT2":0,"toosoon":0,"cond_shown":"randomdotsizeEA","ratio_trial":900,"smaller_num":"9","larger_num":"10","correct_side":2,"subjID":"Juanjosemoreno6","gender":"0","age":"9","school":"4"},{"start_time":1552328097441,"click_time":1552328098565,"finger_time":1552328098384,"fix_duration":316.4909318986916,"trial":5,"RT":943,"MT":181,"sideResp":2,"stimulus":"img/500/equaldotsize/R/3_Ratio_500_L_10_R_20.png","xmouse":[806,806,806,805,804,800,797,793,792,792,792,792,792,792,792,792,792,792,792,792,792,792,792,792,792,792,792,792,791,791,791,791,789,787,786,783,781,778,778,777,777,777,777,778,784,802,821,861,888,914,938,959,1005,1023,1036,1051,1066],"ymouse":[515,515,517,518,519,522,525,528,530,530,530,530,530,530,530,530,530,530,530,530,530,530,530,530,530,530,530,530,530,530,530,530,531,533,533,535,536,538,539,539,539,539,538,536,532,517,502,453,412,376,338,301,210,170,138,103,68],"timestamp_mouse":[14,23,49,62,83,102,123,143,163,184,204,222,243,262,282,302,323,343,362,382,404,422,442,463,483,504,523,543,563,584,603,623,642,662,682,703,722,744,763,783,803,823,842,863,882,903,922,943,962,983,1002,1022,1042,1062,1083,1104,1124],"xSR":741.5,"ySR":469.95,"xT1":424.9,"yT1":0,"xT2":1058.1,"yT2":0,"toosoon":0,"cond_shown":"equaldotsize","ratio_trial":500,"smaller_num":"10","larger_num":"20","correct_side":2,"subjID":"Juanjosemoreno6","gender":"0","age":"9","school":"4"},{"start_time":1552328100111,"click_time":1552328101743,"finger_time":1552328100963,"fix_duration":585.0644480181458,"trial":6,"RT":852,"MT":780,"sideResp":2,"stimulus":"img/900/equaldotanddens/R/6_Ratio_900_L_9_R_10.png","xmouse":[811,811,811,809,809,809,809,809,809,809,809,809,809,809,809,809,809,809,809,809,809,809,809,809,808,808,808,808,808,808,807,806,806,805,804,804,804,804,804,800,794,769,734,657,621,593,574,564,559,567,570,580,586,594,610,651,705,767,920,999,1114,1175,1235,1248,1258,1266,1273,1277,1284,1284,1283,1268,1243,1228,1215,1205,1194,1185,1168,1160,1158,1153],"ymouse":[543,543,543,543,543,543,543,543,543,543,543,543,543,543,543,543,543,543,543,543,543,543,543,543,543,543,543,543,543,543,543,544,545,545,546,546,546,546,546,544,540,523,496,416,368,323,284,248,196,165,157,131,121,117,126,160,211,268,379,418,455,458,431,410,390,370,354,338,303,272,264,239,224,220,217,212,202,187,138,109,100,89],"timestamp_mouse":[13,40,52,72,92,113,133,152,172,193,213,234,253,273,294,313,332,353,374,394,414,433,453,473,492,513,533,553,573,593,612,632,654,674,692,713,732,753,773,793,812,834,852,872,892,913,932,952,972,992,1013,1032,1053,1073,1093,1112,1132,1152,1174,1192,1212,1233,1254,1272,1294,1313,1332,1352,1372,1393,1413,1432,1454,1472,1493,1513,1532,1552,1572,1592,1612,1632],"xSR":741.5,"ySR":469.95,"xT1":424.9,"yT1":0,"xT2":1058.1,"yT2":0,"toosoon":0,"cond_shown":"equaldotanddens","ratio_trial":900,"smaller_num":"9","larger_num":"10","correct_side":2,"subjID":"Juanjosemoreno6","gender":"0","age":"9","school":"4"},{"start_time":1552328103922,"click_time":1552328105083,"finger_time":1552328104743,"fix_duration":1235.4092945250177,"trial":7,"RT":821,"MT":340,"sideResp":1,"stimulus":"img/900/equaldotanddens/L/1_Ratio_900_L_10_R_9.png","xmouse":[788,788,788,786,786,786,786,786,786,786,786,786,786,786,786,786,785,785,785,785,785,784,784,784,783,783,783,783,782,781,780,780,780,780,780,780,780,781,787,787,784,765,745,697,672,647,624,604,575,567,560,556,556,556,556,556,543,539,516],"ymouse":[522,522,525,532,533,533,533,533,533,533,533,533,533,533,533,533,534,534,534,534,534,535,535,535,536,536,536,536,537,538,539,539,539,539,539,539,539,538,518,504,485,449,413,309,252,196,144,98,36,20,8,0,0,0,0,0,2,5,19],"timestamp_mouse":[12,22,41,62,82,102,121,142,161,181,203,222,243,262,282,301,322,343,362,382,402,422,443,462,483,502,523,543,562,582,602,623,642,663,681,701,722,742,761,782,801,821,841,862,881,901,921,941,961,981,1002,1022,1041,1063,1082,1101,1123,1142,1161],"xSR":741.5,"ySR":469.95,"xT1":424.9,"yT1":0,"xT2":1058.1,"yT2":0,"toosoon":0,"cond_shown":"equaldotanddens","ratio_trial":900,"smaller_num":"9","larger_num":"10","correct_side":1,"subjID":"Juanjosemoreno6","gender":"0","age":"9","school":"4"},{"start_time":1552328107269,"click_time":1552328108584,"finger_time":1552328108243,"fix_duration":883.010772805529,"trial":8,"RT":974,"MT":341,"sideResp":2,"stimulus":"img/900/randomdotsizeEA/L/4_Ratio_900_L_20_R_18.png","xmouse":[806,806,806,806,807,808,809,810,811,813,813,813,813,813,813,813,813,813,813,813,813,813,813,813,813,813,813,813,813,813,813,813,813,813,813,813,813,813,813,813,813,813,813,813,813,817,825,836,850,866,893,910,925,952,965,995,1012,1024,1037,1045,1050,1051,1053,1055,1057,1063],"ymouse":[534,534,534,534,534,533,532,531,530,530,529,529,529,529,529,529,529,529,529,529,529,529,529,529,529,529,529,529,529,529,529,529,529,529,529,529,529,529,529,529,529,529,529,529,529,527,522,514,502,486,446,422,394,347,317,254,227,205,182,162,132,121,112,103,99,91],"timestamp_mouse":[32,35,55,75,95,115,134,154,175,196,214,235,256,275,296,315,335,354,375,395,415,435,454,475,496,514,535,556,574,595,616,635,654,676,695,715,736,754,775,796,816,835,854,874,895,915,934,955,974,996,1014,1034,1054,1074,1095,1114,1134,1154,1174,1194,1214,1234,1255,1275,1295,1315],"xSR":741.5,"ySR":469.95,"xT1":424.9,"yT1":0,"xT2":1058.1,"yT2":0,"toosoon":0,"cond_shown":"randomdotsizeEA","ratio_trial":900,"smaller_num":"18","larger_num":"20","correct_side":1,"subjID":"Juanjosemoreno6","gender":"0","age":"9","school":"4"},{"start_time":1552328120728,"click_time":1552328121663,"finger_time":1552328121523,"fix_duration":1403.1893614126077,"trial":9,"RT":795,"MT":140,"sideResp":2,"stimulus":"img/250/equaldotsize/R/4_Ratio_250_L_3_R_12.png","xmouse":[791,791,791,791,791,791,791,791,791,791,791,791,791,791,791,791,791,791,791,791,791,791,791,791,791,791,791,791,791,791,791,791,791,791,791,791,791,804,837,857,906,940,995,1020,1041,1059,1075],"ymouse":[537,537,537,537,537,537,537,537,537,537,537,537,537,537,537,537,537,537,537,537,537,537,537,537,537,537,537,537,537,537,537,537,537,537,537,537,537,520,482,459,393,346,255,208,161,116,78],"timestamp_mouse":[15,35,55,75,95,115,137,156,176,195,216,236,256,276,297,316,335,356,375,396,415,436,456,476,496,516,535,557,575,596,615,635,655,675,695,716,736,755,776,795,816,835,855,877,895,915,935],"xSR":741.5,"ySR":469.95,"xT1":424.9,"yT1":0,"xT2":1058.1,"yT2":0,"toosoon":0,"cond_shown":"equaldotsize","ratio_trial":250,"smaller_num":"3","larger_num":"12","correct_side":2,"subjID":"Juanjosemoreno6","gender":"0","age":"9","school":"4"},{"start_time":1552328124411,"click_time":1552328125424,"finger_time":1552328125203,"fix_duration":546.7000262705092,"trial":10,"RT":792,"MT":221,"sideResp":2,"stimulus":"img/900/randomdotsizeEA/R/14_Ratio_900_L_18_R_20.png","xmouse":[787,787,787,787,787,787,787,787,787,787,787,787,787,787,787,787,787,788,788,788,789,789,789,789,789,789,789,789,789,789,789,790,791,792,793,794,800,807,831,848,868,890,944,971,990,1007,1027,1036,1051,1057,1064],"ymouse":[549,548,548,548,548,548,548,548,548,548,548,548,548,548,548,548,548,547,547,545,545,545,545,545,545,545,545,545,545,544,544,542,540,538,537,534,525,514,477,454,420,387,306,258,220,186,138,115,74,56,40],"timestamp_mouse":[12,32,53,72,93,112,132,152,173,194,212,233,253,272,292,312,332,353,373,392,412,432,453,474,493,513,532,553,572,592,613,633,653,672,692,712,732,752,773,792,813,832,853,872,893,912,932,952,972,993,1013],"xSR":741.5,"ySR":469.95,"xT1":424.9,"yT1":0,"xT2":1058.1,"yT2":0,"toosoon":0,"cond_shown":"randomdotsizeEA","ratio_trial":900,"smaller_num":"18","larger_num":"20","correct_side":2,"subjID":"Juanjosemoreno6","gender":"0","age":"9","school":"4"},{"start_time":1552328127036,"click_time":1552328128183,"finger_time":1552328127643,"fix_duration":250,"trial":11,"RT":607,"MT":540,"sideResp":1,"stimulus":"img/250/equaldotsize/L/7_Ratio_250_L_8_R_2.png","xmouse":[829,829,829,829,829,829,829,829,829,829,829,829,829,829,829,829,829,829,829,829,829,829,829,829,829,829,828,817,806,792,773,758,734,726,716,702,696,690,687,685,682,678,671,655,647,621,605,577,562,549,539,525,522,520,519,519,518,514],"ymouse":[528,530,530,530,530,530,530,530,530,530,530,530,530,530,530,530,530,530,530,530,530,530,530,530,530,530,530,512,496,478,456,435,387,357,327,285,261,221,206,193,184,179,175,174,174,172,170,159,153,146,139,131,129,125,120,114,109,99],"timestamp_mouse":[21,37,47,68,87,107,127,147,169,188,208,227,247,267,289,308,328,348,367,387,408,427,448,467,487,507,527,548,567,587,607,628,647,667,687,708,727,747,767,787,807,827,846,868,888,907,928,949,967,987,1008,1028,1047,1067,1088,1107,1128,1147],"xSR":741.5,"ySR":469.95,"xT1":424.9,"yT1":0,"xT2":1058.1,"yT2":0,"toosoon":0,"cond_shown":"equaldotsize","ratio_trial":250,"smaller_num":"2","larger_num":"8","correct_side":1,"subjID":"Juanjosemoreno6","gender":"0","age":"9","school":"4"},{"start_time":1552328129833,"click_time":1552328131083,"finger_time":1552328130585,"fix_duration":927.1916992534484,"trial":12,"RT":752,"MT":498,"sideResp":2,"stimulus":"img/750/equaldotsize/L/6_Ratio_750_L_24_R_18.png","xmouse":[790,790,789,789,789,788,787,787,787,787,787,787,787,787,787,787,787,787,787,787,787,787,787,787,787,787,787,787,787,787,787,787,787,786,782,777,759,746,735,728,727,728,761,793,838,917,966,1062,1101,1125,1147,1182,1196,1207,1213,1216,1216,1216,1213,1203,1188,1170,1133],"ymouse":[525,525,526,526,526,527,527,527,527,527,527,527,527,527,527,527,527,527,527,527,527,527,527,527,527,527,527,527,527,527,527,527,527,527,522,511,483,468,455,442,432,420,390,369,337,283,249,180,152,131,114,75,55,39,23,9,4,3,3,3,9,18,34],"timestamp_mouse":[11,31,50,71,91,111,130,152,171,190,210,230,251,271,290,310,331,351,370,390,410,431,450,471,491,511,531,550,570,591,611,631,652,671,690,711,731,752,772,790,810,830,850,870,891,910,931,950,970,990,1011,1032,1050,1070,1090,1110,1132,1150,1170,1191,1211,1230,1250],"xSR":741.5,"ySR":469.95,"xT1":424.9,"yT1":0,"xT2":1058.1,"yT2":0,"toosoon":0,"cond_shown":"equaldotsize","ratio_trial":750,"smaller_num":"18","larger_num":"24","correct_side":1,"subjID":"Juanjosemoreno6","gender":"0","age":"9","school":"4"},{"start_time":1552328133056,"click_time":1552328134165,"finger_time":1552328133763,"fix_duration":990.2805491637451,"trial":13,"RT":707,"MT":402,"sideResp":1,"stimulus":"img/250/equaldotsize/L/5_Ratio_250_L_24_R_6.png","xmouse":[762,762,760,758,757,756,756,758,766,773,779,785,789,794,799,803,806,806,806,806,806,806,806,806,806,806,806,806,806,806,806,809,811,815,818,818,814,802,791,779,758,748,732,714,680,655,611,594,584,576,555,544,534,520,504,493],"ymouse":[511,511,515,518,520,520,521,522,523,524,524,525,525,525,525,525,525,525,525,525,525,525,525,525,525,525,525,525,525,525,525,521,516,500,470,450,420,393,375,360,336,326,317,309,297,285,261,247,232,215,180,161,143,124,102,87],"timestamp_mouse":[8,27,47,68,87,107,128,147,168,187,207,228,247,267,288,307,328,347,367,387,407,427,447,468,487,509,528,547,567,588,608,627,647,667,688,707,727,747,767,787,809,827,848,868,887,907,927,948,969,987,1008,1027,1047,1067,1087,1108],"xSR":741.5,"ySR":469.95,"xT1":424.9,"yT1":0,"xT2":1058.1,"yT2":0,"toosoon":0,"cond_shown":"equaldotsize","ratio_trial":250,"smaller_num":"6","larger_num":"24","correct_side":1,"subjID":"Juanjosemoreno6","gender":"0","age":"9","school":"4"},{"start_time":1552328136617,"click_time":1552328137744,"finger_time":1552328137303,"fix_duration":250,"trial":14,"RT":686,"MT":441,"sideResp":2,"stimulus":"img/900/equaldotanddens/R/5_Ratio_900_L_9_R_10.png","xmouse":[809,809,809,809,809,809,809,809,809,809,809,809,809,809,809,809,809,809,809,809,809,809,809,809,809,809,809,809,809,809,809,810,827,841,857,873,892,905,925,935,944,953,959,971,978,980,990,996,1011,1018,1021,1024,1026,1034,1045,1049,1063],"ymouse":[545,545,545,545,545,545,545,545,545,545,545,545,545,545,545,545,545,545,545,545,545,545,545,545,545,545,545,545,545,545,545,543,527,511,491,469,436,412,361,334,311,285,266,225,200,191,170,156,132,122,117,114,112,110,107,105,99],"timestamp_mouse":[12,38,46,66,86,106,127,147,167,186,207,226,247,267,287,306,326,346,367,387,408,427,446,468,486,507,526,546,567,587,606,626,647,666,686,706,726,746,766,786,807,826,846,866,886,906,926,946,966,986,1007,1026,1046,1066,1086,1106,1126],"xSR":741.5,"ySR":469.95,"xT1":424.9,"yT1":0,"xT2":1058.1,"yT2":0,"toosoon":0,"cond_shown":"equaldotanddens","ratio_trial":900,"smaller_num":"9","larger_num":"10","correct_side":2,"subjID":"Juanjosemoreno6","gender":"0","age":"9","school":"4"},{"start_time":1552328142101,"click_time":1552328143025,"finger_time":1552328142764,"fix_duration":1296.8004906697788,"trial":15,"RT":663,"MT":261,"sideResp":1,"stimulus":"img/250/equaldotsize/L/2_Ratio_250_L_16_R_4.png","xmouse":[764,765,767,768,769,770,770,770,771,771,771,771,771,771,771,771,772,772,773,774,774,774,774,774,774,774,774,774,775,775,776,776,773,730,689,650,619,598,584,580,576,569,556,548,533,527,522],"ymouse":[555,553,552,549,549,548,548,548,547,546,546,546,546,546,546,546,546,545,545,544,544,542,542,542,542,542,542,542,542,538,531,520,489,407,354,301,253,216,163,140,121,106,90,83,77,76,76],"timestamp_mouse":[3,23,49,62,83,102,123,142,162,183,202,223,242,262,282,303,322,343,363,382,402,423,442,462,483,503,524,542,563,583,602,622,642,663,682,702,722,743,763,782,802,822,842,863,883,903,924],"xSR":741.5,"ySR":469.95,"xT1":424.9,"yT1":0,"xT2":1058.1,"yT2":0,"toosoon":0,"cond_shown":"equaldotsize","ratio_trial":250,"smaller_num":"4","larger_num":"16","correct_side":1,"subjID":"Juanjosemoreno6","gender":"0","age":"9","school":"4"},{"start_time":1552328146032,"click_time":1552328147444,"finger_time":1552328146763,"fix_duration":727.6040712119018,"trial":16,"RT":731,"MT":681,"sideResp":2,"stimulus":"img/500/equaldotanddens/R/6_Ratio_500_L_9_R_18.png","xmouse":[810,810,810,810,810,810,810,810,810,810,808,805,804,804,804,804,804,804,804,804,804,804,802,801,800,800,800,800,800,800,800,800,800,800,800,824,860,937,961,979,993,1017,1024,1027,1029,1032,1033,1033,1033,1033,1033,1043,1054,1063,1071,1082,1091,1102,1105,1107,1109,1110,1111,1111,1111,1111,1111,1111,1111,1111,1111],"ymouse":[543,543,543,543,543,543,543,543,543,543,543,544,544,544,544,544,544,544,544,544,544,544,544,544,544,544,544,544,544,544,544,544,544,544,537,509,472,394,359,329,307,270,254,243,233,217,208,193,189,186,182,171,163,157,151,143,137,129,126,124,120,114,111,109,107,107,105,104,103,102,99],"timestamp_mouse":[14,55,56,72,91,112,131,152,171,191,212,232,252,271,292,312,332,352,372,391,412,432,451,471,491,512,531,551,571,591,611,632,652,671,692,712,731,751,771,791,811,833,851,871,892,911,931,952,972,992,1011,1032,1051,1071,1092,1111,1131,1152,1171,1192,1212,1233,1251,1271,1291,1312,1332,1351,1371,1392,1412],"xSR":741.5,"ySR":469.95,"xT1":424.9,"yT1":0,"xT2":1058.1,"yT2":0,"toosoon":0,"cond_shown":"equaldotanddens","ratio_trial":500,"smaller_num":"9","larger_num":"18","correct_side":2,"subjID":"Juanjosemoreno6","gender":"0","age":"9","school":"4"},{"start_time":1552328149607,"click_time":1552328150665,"finger_time":1552328150343,"fix_duration":1102.8557731905187,"trial":17,"RT":736,"MT":322,"sideResp":2,"stimulus":"img/500/randomdotsizeEA/R/9_Ratio_500_L_2_R_4.png","xmouse":[802,802,802,802,802,802,802,802,802,802,802,802,802,802,802,802,802,802,802,802,802,802,802,802,802,802,802,802,802,803,803,803,803,815,830,836,853,885,908,951,992,1021,1060,1070,1081,1083,1086,1087,1087,1088,1090,1093,1097],"ymouse":[505,505,505,505,505,505,505,505,505,505,505,505,505,505,505,505,505,505,505,505,505,505,505,505,505,505,505,505,505,505,505,505,503,494,481,477,463,436,416,378,340,307,245,226,199,193,174,152,142,132,124,115,95],"timestamp_mouse":[28,44,56,77,96,116,137,156,176,196,217,236,256,277,298,316,337,357,377,397,417,436,457,477,497,517,537,557,576,596,617,637,656,676,697,716,736,758,776,797,816,836,858,876,897,916,937,958,976,997,1017,1038,1057],"xSR":741.5,"ySR":469.95,"xT1":424.9,"yT1":0,"xT2":1058.1,"yT2":0,"toosoon":0,"cond_shown":"randomdotsizeEA","ratio_trial":500,"smaller_num":"2","larger_num":"4","correct_side":2,"subjID":"Juanjosemoreno6","gender":"0","age":"9","school":"4"},{"start_time":1552328153470,"click_time":1552328154605,"finger_time":1552328154163,"fix_duration":504.8816435029023,"trial":18,"RT":693,"MT":442,"sideResp":2,"stimulus":"img/900/equaldotanddens/L/10_Ratio_900_L_20_R_18.png","xmouse":[806,806,806,806,806,806,806,806,806,806,806,806,806,806,806,806,806,806,806,806,806,806,806,806,806,806,806,806,806,806,806,815,824,835,848,873,885,899,911,930,936,941,945,946,946,948,952,957,964,984,994,1003,1013,1015,1026,1046,1060],"ymouse":[527,527,527,527,527,527,527,527,527,527,527,527,527,527,527,527,527,527,527,527,527,527,527,527,527,527,527,527,527,527,525,510,494,476,455,410,385,364,341,296,277,259,236,222,213,189,178,162,147,115,103,93,85,84,79,67,62],"timestamp_mouse":[13,43,54,73,94,114,133,154,174,194,213,233,254,274,293,313,334,354,374,393,413,434,453,473,494,514,534,554,574,593,615,635,654,674,693,713,733,753,774,794,813,833,853,874,893,913,934,955,973,995,1014,1033,1054,1073,1093,1113,1134],"xSR":741.5,"ySR":469.95,"xT1":424.9,"yT1":0,"xT2":1058.1,"yT2":0,"toosoon":0,"cond_shown":"equaldotanddens","ratio_trial":900,"smaller_num":"18","larger_num":"20","correct_side":1,"subjID":"Juanjosemoreno6","gender":"0","age":"9","school":"4"},{"start_time":1552328156011,"click_time":1552328156985,"finger_time":1552328156603,"fix_duration":426.4776346760818,"trial":19,"RT":592,"MT":382,"sideResp":2,"stimulus":"img/750/equaldotsize/R/12_Ratio_750_L_3_R_4.png","xmouse":[771,771,771,771,771,771,771,771,771,771,771,771,771,771,771,771,771,771,771,772,772,772,773,775,777,779,782,785,796,803,815,830,863,882,904,924,957,996,1012,1026,1036,1041,1047,1049,1049,1051,1052,1054,1060],"ymouse":[505,505,505,505,505,505,505,505,505,505,505,505,505,505,505,505,505,505,505,505,505,505,503,498,497,494,489,485,470,459,443,423,364,330,293,261,216,165,143,123,108,98,86,83,82,79,78,76,70],"timestamp_mouse":[12,36,52,72,94,114,132,152,173,192,212,232,253,272,293,312,332,352,373,392,412,433,452,472,492,512,532,552,573,592,613,633,653,672,693,712,732,754,772,793,814,832,853,872,892,912,932,952,974],"xSR":741.5,"ySR":469.95,"xT1":424.9,"yT1":0,"xT2":1058.1,"yT2":0,"toosoon":0,"cond_shown":"equaldotsize","ratio_trial":750,"smaller_num":"3","larger_num":"4","correct_side":2,"subjID":"Juanjosemoreno6","gender":"0","age":"9","school":"4"},{"start_time":1552328159191,"click_time":1552328160065,"finger_time":1552328159404,"fix_duration":1206.5021081672794,"trial":20,"RT":213,"MT":661,"sideResp":1,"stimulus":"img/900/randomdotsizeEA/R/11_Ratio_900_L_18_R_20.png","xmouse":[803,803,803,803,804,805,806,807,808,808,808,806,802,790,784,771,766,749,731,727,727,727,727,727,726,724,722,710,679,662,643,626,613,606,601,598,594,585,569,558,545,529,516,490],"ymouse":[518,518,518,519,519,517,512,505,495,473,461,449,433,400,381,347,336,306,281,277,275,275,275,275,275,273,271,263,241,228,215,203,191,182,169,165,161,156,146,138,129,118,108,89],"timestamp_mouse":[12,48,52,73,92,113,132,153,172,193,213,232,252,273,292,312,332,353,373,392,413,432,452,472,492,513,532,552,573,592,613,633,653,672,692,712,733,753,773,792,812,833,852,874],"xSR":741.5,"ySR":469.95,"xT1":424.9,"yT1":0,"xT2":1058.1,"yT2":0,"toosoon":0,"cond_shown":"randomdotsizeEA","ratio_trial":900,"smaller_num":"18","larger_num":"20","correct_side":2,"subjID":"Juanjosemoreno6","gender":"0","age":"9","school":"4"},{"start_time":1552328161284,"click_time":1552328162183,"finger_time":1552328161843,"fix_duration":479.9233373167822,"trial":21,"RT":559,"MT":340,"sideResp":2,"stimulus":"img/900/equaldotsize/R/12_Ratio_900_L_18_R_20.png","xmouse":[778,778,778,778,778,778,778,778,778,778,778,778,778,778,778,778,778,778,779,779,781,785,793,797,808,813,821,839,870,939,978,1019,1065,1129,1171,1179,1181,1182,1183,1183,1183,1183,1183,1178,1162,1147],"ymouse":[550,550,550,550,550,550,550,550,550,550,550,550,550,550,550,550,550,550,550,550,550,547,540,535,524,517,509,495,472,414,375,329,278,197,125,104,91,81,74,64,61,58,57,56,55,54],"timestamp_mouse":[1,19,39,60,79,99,119,139,160,179,200,219,239,260,279,300,320,339,359,380,400,419,440,459,480,499,519,539,559,581,599,619,639,659,681,699,719,741,760,781,799,820,839,859,880,899],"xSR":741.5,"ySR":469.95,"xT1":424.9,"yT1":0,"xT2":1058.1,"yT2":0,"toosoon":0,"cond_shown":"equaldotsize","ratio_trial":900,"smaller_num":"18","larger_num":"20","correct_side":2,"subjID":"Juanjosemoreno6","gender":"0","age":"9","school":"4"},{"start_time":1552328165352,"click_time":1552328166423,"finger_time":1552328166083,"fix_duration":826.6812260497231,"trial":22,"RT":731,"MT":340,"sideResp":2,"stimulus":"img/900/equaldotanddens/R/7_Ratio_900_L_9_R_10.png","xmouse":[811,813,813,813,813,813,813,813,813,813,813,813,813,813,813,813,813,813,813,813,813,813,813,814,815,815,815,815,815,815,815,816,817,820,823,835,845,854,867,890,913,959,977,995,1008,1026,1035,1038,1042,1051,1065,1074,1083,1090],"ymouse":[537,535,535,534,534,534,534,534,534,534,534,534,534,534,534,534,534,534,534,534,533,532,530,528,527,526,525,525,525,525,525,524,522,518,513,491,474,457,436,398,367,305,278,251,230,196,180,170,158,142,124,113,103,92],"timestamp_mouse":[20,48,52,71,92,112,132,152,172,192,211,232,251,271,291,312,331,351,371,391,411,431,452,471,491,512,532,552,571,592,612,632,653,671,691,712,731,751,771,791,813,833,852,871,891,913,931,951,971,991,1012,1031,1051,1071],"xSR":741.5,"ySR":469.95,"xT1":424.9,"yT1":0,"xT2":1058.1,"yT2":0,"toosoon":0,"cond_shown":"equaldotanddens","ratio_trial":900,"smaller_num":"9","larger_num":"10","correct_side":2,"subjID":"Juanjosemoreno6","gender":"0","age":"9","school":"4"},{"start_time":1552328169651,"click_time":1552328170764,"finger_time":1552328170464,"fix_duration":1406.7488675656277,"trial":23,"RT":813,"MT":300,"sideResp":1,"stimulus":"img/900/equaldotsize/L/10_Ratio_900_L_20_R_18.png","xmouse":[769,769,769,769,769,769,769,769,769,769,769,769,769,769,769,769,769,769,769,769,769,769,769,769,769,769,769,769,769,769,769,769,769,769,770,770,772,773,773,773,765,754,723,707,666,626,611,601,593,587,577,568,553,547,532,523],"ymouse":[536,536,536,536,536,536,536,536,536,536,536,536,536,536,536,536,536,536,536,536,536,536,536,536,536,536,536,536,536,536,536,536,534,534,534,532,526,516,504,488,446,417,360,340,282,224,200,179,159,141,113,101,84,79,67,61],"timestamp_mouse":[12,40,53,73,92,113,134,152,173,193,212,233,252,272,293,313,332,352,373,392,412,433,453,473,493,512,532,553,573,592,612,633,660,672,692,712,732,752,773,794,813,832,853,872,893,913,932,952,972,993,1013,1032,1052,1072,1093,1113],"xSR":741.5,"ySR":469.95,"xT1":424.9,"yT1":0,"xT2":1058.1,"yT2":0,"toosoon":0,"cond_shown":"equaldotsize","ratio_trial":900,"smaller_num":"18","larger_num":"20","correct_side":1,"subjID":"Juanjosemoreno6","gender":"0","age":"9","school":"4"},{"start_time":1552328173329,"click_time":1552328174244,"finger_time":1552328174004,"fix_duration":1203.5977880576418,"trial":24,"RT":675,"MT":240,"sideResp":1,"stimulus":"img/250/equaldotsize/L/3_Ratio_250_L_8_R_2.png","xmouse":[787,787,787,787,787,787,787,788,788,788,788,788,788,788,788,788,788,788,788,788,788,788,789,790,790,790,790,790,790,790,790,788,766,746,717,693,667,610,585,566,541,517,506,499,494,491],"ymouse":[508,508,508,508,508,508,508,508,508,508,508,508,508,508,508,508,508,508,508,508,508,508,508,507,506,505,505,505,505,504,503,498,477,463,441,417,387,313,273,239,194,150,133,117,102,88],"timestamp_mouse":[14,37,55,74,94,115,134,155,174,195,214,234,255,274,294,314,334,355,375,394,414,435,454,474,494,514,536,555,575,594,614,634,654,675,694,714,734,754,775,794,814,835,854,874,895,915],"xSR":741.5,"ySR":469.95,"xT1":424.9,"yT1":0,"xT2":1058.1,"yT2":0,"toosoon":0,"cond_shown":"equaldotsize","ratio_trial":250,"smaller_num":"2","larger_num":"8","correct_side":1,"subjID":"Juanjosemoreno6","gender":"0","age":"9","school":"4"},{"start_time":1552328176211,"click_time":1552328177365,"finger_time":1552328176883,"fix_duration":1064.6305443758938,"trial":25,"RT":672,"MT":482,"sideResp":2,"stimulus":"img/750/equaldotanddens/R/11_Ratio_750_L_12_R_16.png","xmouse":[777,783,786,793,795,799,800,801,801,801,801,801,801,801,801,801,801,801,801,801,801,801,801,801,801,801,801,801,801,801,803,805,835,860,888,918,945,996,1012,1024,1034,1038,1039,1039,1039,1039,1039,1039,1039,1039,1039,1039,1039,1040,1042,1047,1051,1066],"ymouse":[521,523,525,529,530,532,533,533,533,533,533,533,533,533,533,533,533,533,533,533,533,533,533,533,533,533,533,533,533,533,532,530,492,456,415,369,312,192,150,109,73,49,20,18,18,18,18,18,18,18,18,18,21,27,30,36,38,39],"timestamp_mouse":[13,33,52,72,92,112,132,153,173,192,213,232,253,272,292,313,332,352,372,392,412,432,453,472,492,513,533,553,573,593,613,632,653,672,692,712,734,753,772,792,812,834,854,872,892,912,933,952,973,993,1012,1032,1054,1072,1092,1113,1132,1153],"xSR":741.5,"ySR":469.95,"xT1":424.9,"yT1":0,"xT2":1058.1,"yT2":0,"toosoon":0,"cond_shown":"equaldotanddens","ratio_trial":750,"smaller_num":"12","larger_num":"16","correct_side":2,"subjID":"Juanjosemoreno6","gender":"0","age":"9","school":"4"},{"start_time":1552328178735,"click_time":1552328179424,"finger_time":1552328179304,"fix_duration":250,"trial":26,"RT":569,"MT":120,"sideResp":2,"stimulus":"img/900/equaldotanddens/L/8_Ratio_900_L_20_R_18.png","xmouse":[793,793,793,793,793,793,793,793,793,793,793,793,793,793,793,793,793,793,793,793,793,793,793,793,795,797,802,827,852,903,938,1012,1041,1058,1063],"ymouse":[530,530,530,530,530,530,530,530,530,530,530,530,530,530,530,530,530,530,530,530,530,530,530,530,529,527,519,489,460,400,348,210,140,78,29],"timestamp_mouse":[15,30,48,68,89,109,129,148,168,189,208,229,248,269,289,308,328,349,369,389,408,428,449,468,488,510,529,548,569,589,608,629,648,668,689],"xSR":741.5,"ySR":469.95,"xT1":424.9,"yT1":0,"xT2":1058.1,"yT2":0,"toosoon":0,"cond_shown":"equaldotanddens","ratio_trial":900,"smaller_num":"18","larger_num":"20","correct_side":1,"subjID":"Juanjosemoreno6","gender":"0","age":"9","school":"4"},{"start_time":1552328181974,"click_time":1552328182983,"finger_time":1552328182763,"fix_duration":1409.7261917523465,"trial":27,"RT":789,"MT":220,"sideResp":2,"stimulus":"img/900/randomdotsizeEA/L/4_Ratio_900_L_20_R_18.png","xmouse":[783,783,783,783,783,783,783,783,783,783,782,782,782,782,782,782,782,782,782,782,782,782,782,782,782,782,782,782,782,782,782,782,782,785,790,802,807,818,828,840,875,898,917,937,972,985,998,1007,1025,1055,1068],"ymouse":[508,508,508,508,508,508,508,508,508,509,509,509,509,509,509,509,509,509,509,509,509,509,509,509,509,509,509,509,509,509,509,509,509,509,507,501,496,487,476,461,421,394,371,338,273,243,214,190,155,112,89],"timestamp_mouse":[12,37,50,70,89,109,129,150,168,188,209,229,250,270,289,310,328,348,370,388,409,430,449,469,488,509,529,549,569,589,610,628,648,668,688,708,728,748,768,789,809,829,849,868,890,908,929,948,969,991,1009],"xSR":741.5,"ySR":469.95,"xT1":424.9,"yT1":0,"xT2":1058.1,"yT2":0,"toosoon":0,"cond_shown":"randomdotsizeEA","ratio_trial":900,"smaller_num":"18","larger_num":"20","correct_side":1,"subjID":"Juanjosemoreno6","gender":"0","age":"9","school":"4"},{"start_time":1552328185308,"click_time":1552328186383,"finger_time":1552328186183,"fix_duration":1423.8544129344573,"trial":28,"RT":875,"MT":200,"sideResp":1,"stimulus":"img/500/randomdotsizeEA/L/7_Ratio_500_L_10_R_5.png","xmouse":[791,791,791,791,791,791,790,789,789,789,789,789,789,789,789,789,789,789,789,789,789,789,789,789,789,789,789,789,789,789,789,789,789,789,789,789,789,789,791,791,793,793,791,770,754,739,723,691,676,659,620,605,559,501],"ymouse":[526,526,526,526,526,526,527,528,528,528,528,528,528,528,528,528,528,528,528,528,528,528,528,528,528,528,528,528,528,528,528,528,528,528,528,528,528,528,525,524,514,501,486,448,428,409,387,330,292,254,188,168,123,80],"timestamp_mouse":[14,38,56,75,95,115,135,155,174,195,215,235,254,276,295,315,334,354,376,395,415,436,455,476,494,516,534,554,576,594,616,635,654,675,695,716,734,755,774,796,815,835,854,875,894,914,934,956,975,994,1016,1035,1054,1075],"xSR":741.5,"ySR":469.95,"xT1":424.9,"yT1":0,"xT2":1058.1,"yT2":0,"toosoon":0,"cond_shown":"randomdotsizeEA","ratio_trial":500,"smaller_num":"5","larger_num":"10","correct_side":1,"subjID":"Juanjosemoreno6","gender":"0","age":"9","school":"4"},{"start_time":1552328189130,"click_time":1552328190924,"finger_time":1552328189823,"fix_duration":363.54761001533876,"trial":29,"RT":693,"MT":1101,"sideResp":1,"stimulus":"img/750/equaldotanddens/L/6_Ratio_750_L_24_R_18.png","xmouse":[793,793,793,793,793,793,794,794,794,794,795,795,795,795,795,796,796,796,796,796,796,796,796,796,796,796,796,796,796,796,796,796,789,775,755,724,652,624,600,584,565,547,542,539,537,534,533,532,532,534,536,536,536,536,535,534,533,533,533,533,533,533,533,533,533,533,533,533,533,533,532,531,531,530,529,527,525,523,523,523,523,523,523,523,523,523,523,523,523,523],"ymouse":[559,559,559,559,557,556,548,546,543,540,537,535,533,532,531,530,530,530,530,530,530,530,530,530,530,530,530,530,530,530,529,524,504,485,465,441,385,356,327,304,275,242,226,212,199,185,174,153,145,137,130,126,120,117,114,111,106,104,104,102,102,102,102,102,102,102,102,102,102,102,102,102,102,101,101,100,100,100,100,100,100,100,100,100,100,100,100,100,100,99],"timestamp_mouse":[12,42,53,73,94,114,133,152,172,194,214,232,253,273,293,313,333,354,374,393,412,433,454,474,493,513,532,552,572,592,612,632,652,674,693,714,735,752,773,792,813,834,853,873,893,912,933,952,972,993,1013,1034,1054,1072,1093,1112,1135,1152,1172,1194,1214,1233,1252,1272,1293,1312,1334,1353,1373,1393,1414,1432,1453,1473,1494,1514,1533,1554,1574,1593,1613,1633,1653,1673,1692,1713,1734,1753,1773,1794],"xSR":741.5,"ySR":469.95,"xT1":424.9,"yT1":0,"xT2":1058.1,"yT2":0,"toosoon":0,"cond_shown":"equaldotanddens","ratio_trial":750,"smaller_num":"18","larger_num":"24","correct_side":1,"subjID":"Juanjosemoreno6","gender":"0","age":"9","school":"4"},{"start_time":1552328192076,"click_time":1552328192943,"finger_time":1552328192683,"fix_duration":250,"trial":30,"RT":607,"MT":260,"sideResp":1,"stimulus":"img/250/equaldotsize/L/5_Ratio_250_L_24_R_6.png","xmouse":[792,792,792,792,792,792,792,792,792,792,792,792,792,792,792,792,792,792,792,792,792,792,792,792,792,792,792,792,791,790,781,766,746,704,651,628,607,586,569,551,520,508,502,497],"ymouse":[502,502,502,502,502,502,502,502,502,502,502,502,502,502,502,502,502,502,502,502,502,502,502,502,502,502,502,502,500,493,465,435,396,329,248,210,182,157,138,123,107,103,100,99],"timestamp_mouse":[13,40,48,67,88,107,126,147,166,187,206,228,247,266,288,307,328,347,368,388,406,427,448,467,487,507,528,548,566,586,607,626,646,667,688,707,727,747,767,787,806,826,847,867],"xSR":741.5,"ySR":469.95,"xT1":424.9,"yT1":0,"xT2":1058.1,"yT2":0,"toosoon":0,"cond_shown":"equaldotsize","ratio_trial":250,"smaller_num":"6","larger_num":"24","correct_side":1,"subjID":"Juanjosemoreno6","gender":"0","age":"9","school":"4"},{"start_time":1552328194278,"click_time":1552328195324,"finger_time":1552328194982,"fix_duration":494.85888412146494,"trial":31,"RT":704,"MT":342,"sideResp":2,"stimulus":"img/250/equaldotsize/R/9_Ratio_250_L_3_R_12.png","xmouse":[795,796,796,796,796,797,797,797,798,799,799,799,799,799,799,800,801,801,802,802,802,802,802,802,802,802,802,802,802,802,802,802,807,816,832,882,911,944,978,1030,1047,1063,1071,1079,1086,1088,1091,1092,1095,1100,1102,1105,1108],"ymouse":[542,541,541,541,541,540,540,539,539,538,538,538,538,538,538,536,535,535,534,534,534,534,534,534,534,534,534,534,534,534,534,534,530,523,509,464,433,398,357,289,261,224,204,185,156,145,135,130,124,115,110,105,97],"timestamp_mouse":[10,24,49,65,86,104,125,144,164,185,205,225,245,265,284,305,325,344,365,386,405,425,445,466,484,505,525,545,565,585,605,625,646,665,684,704,724,746,764,786,805,824,844,864,886,904,925,946,964,985,1004,1025,1046],"xSR":741.5,"ySR":469.95,"xT1":424.9,"yT1":0,"xT2":1058.1,"yT2":0,"toosoon":0,"cond_shown":"equaldotsize","ratio_trial":250,"smaller_num":"3","larger_num":"12","correct_side":2,"subjID":"Juanjosemoreno6","gender":"0","age":"9","school":"4"},{"start_time":1552328197558,"click_time":1552328198783,"finger_time":1552328198263,"fix_duration":1092.9180888689182,"trial":32,"RT":705,"MT":520,"sideResp":2,"stimulus":"img/900/equaldotsize/L/2_Ratio_900_L_20_R_18.png","xmouse":[802,802,802,802,802,802,802,802,802,802,802,802,802,802,802,802,802,802,802,802,802,802,802,802,802,802,802,802,802,802,802,803,805,810,819,841,853,865,875,883,884,880,877,875,875,875,875,877,882,900,944,972,1005,1035,1060,1080,1107,1115,1122,1127,1130,1132],"ymouse":[503,503,503,503,503,503,503,503,503,503,503,503,503,503,503,503,503,503,503,503,503,503,503,503,503,503,503,503,503,503,503,502,500,494,483,450,428,402,374,336,295,282,273,269,264,261,253,249,246,238,228,222,211,197,185,170,150,140,130,116,103,99],"timestamp_mouse":[9,24,45,66,85,105,125,144,165,186,206,224,245,266,285,305,324,345,366,386,405,425,445,465,486,505,525,545,564,586,604,626,644,665,685,705,724,745,764,785,806,825,844,866,886,905,926,944,964,985,1006,1025,1044,1065,1086,1104,1124,1144,1164,1184,1206,1224],"xSR":741.5,"ySR":469.95,"xT1":424.9,"yT1":0,"xT2":1058.1,"yT2":0,"toosoon":0,"cond_shown":"equaldotsize","ratio_trial":900,"smaller_num":"18","larger_num":"20","correct_side":1,"subjID":"Juanjosemoreno6","gender":"0","age":"9","school":"4"},{"start_time":1552328201065,"click_time":1552328201723,"finger_time":1552328201604,"fix_duration":1420.7276901273044,"trial":33,"RT":539,"MT":119,"sideResp":1,"stimulus":"img/250/equaldotanddens/L/1_Ratio_250_L_8_R_2.png","xmouse":[786,786,786,786,786,786,786,786,786,786,786,786,786,786,786,786,786,786,786,786,786,786,786,785,784,772,760,739,709,637,605,555,523],"ymouse":[523,523,523,523,523,523,523,523,523,523,523,523,523,523,523,523,523,523,523,523,523,523,523,522,518,491,464,429,379,266,212,131,85],"timestamp_mouse":[24,41,57,78,98,117,137,158,178,197,217,237,258,278,297,318,337,357,378,397,418,437,457,478,497,518,539,559,579,600,619,639,658],"xSR":741.5,"ySR":469.95,"xT1":424.9,"yT1":0,"xT2":1058.1,"yT2":0,"toosoon":0,"cond_shown":"equaldotanddens","ratio_trial":250,"smaller_num":"2","larger_num":"8","correct_side":1,"subjID":"Juanjosemoreno6","gender":"0","age":"9","school":"4"},{"start_time":1552328203136,"click_time":1552328203903,"finger_time":1552328203783,"fix_duration":250,"trial":34,"RT":647,"MT":120,"sideResp":2,"stimulus":"img/900/equaldotanddens/L/10_Ratio_900_L_20_R_18.png","xmouse":[803,803,803,803,803,803,803,803,803,803,803,803,803,803,803,803,803,803,803,803,803,803,803,803,804,804,805,805,808,808,814,822,855,886,915,953,1029,1056,1074],"ymouse":[537,537,537,537,537,537,537,537,537,537,537,537,537,537,537,537,537,537,537,537,537,537,537,537,537,535,534,534,531,530,519,506,454,408,357,298,177,127,86],"timestamp_mouse":[12,43,47,67,88,107,127,147,167,187,206,227,247,267,286,306,328,347,366,387,407,426,448,467,487,507,527,547,567,586,606,626,647,667,686,706,728,747,767],"xSR":741.5,"ySR":469.95,"xT1":424.9,"yT1":0,"xT2":1058.1,"yT2":0,"toosoon":0,"cond_shown":"equaldotanddens","ratio_trial":900,"smaller_num":"18","larger_num":"20","correct_side":1,"subjID":"Juanjosemoreno6","gender":"0","age":"9","school":"4"},{"start_time":1552328204996,"click_time":1552328206123,"finger_time":1552328205983,"fix_duration":250,"trial":35,"RT":987,"MT":140,"sideResp":2,"stimulus":"img/250/randomdotsizeEA/R/4_Ratio_250_L_3_R_12.png","xmouse":[745,745,745,745,745,745,745,745,745,745,745,745,745,745,745,745,745,745,745,747,747,747,748,748,748,748,748,748,748,748,748,748,748,748,748,748,749,750,751,754,754,754,754,754,754,754,756,761,776,831,866,901,932,998,1026,1046,1060],"ymouse":[509,509,509,509,509,509,509,509,509,509,509,509,509,509,509,509,509,509,509,509,509,509,509,509,509,509,509,509,509,509,509,509,509,509,509,509,509,508,507,502,499,498,498,498,498,497,494,490,480,442,412,381,342,227,162,102,46],"timestamp_mouse":[6,41,47,67,88,108,128,147,167,186,207,226,247,266,288,308,328,347,367,388,408,427,447,467,488,507,527,547,568,587,606,626,647,667,687,708,727,747,767,787,807,827,847,866,887,907,928,947,966,987,1007,1027,1047,1068,1086,1107,1127],"xSR":741.5,"ySR":469.95,"xT1":424.9,"yT1":0,"xT2":1058.1,"yT2":0,"toosoon":0,"cond_shown":"randomdotsizeEA","ratio_trial":250,"smaller_num":"3","larger_num":"12","correct_side":2,"subjID":"Juanjosemoreno6","gender":"0","age":"9","school":"4"},{"start_time":1552328207757,"click_time":1552328208664,"finger_time":1552328208403,"fix_duration":832.4371036505486,"trial":36,"RT":646,"MT":261,"sideResp":2,"stimulus":"img/500/equaldotsize/R/1_Ratio_500_L_9_R_18.png","xmouse":[786,786,786,786,786,786,786,786,786,786,786,786,786,786,786,786,786,786,786,786,786,786,785,785,786,787,787,788,790,797,806,835,852,871,893,917,971,1002,1012,1033,1045,1069,1080,1090,1100,1118],"ymouse":[527,527,527,527,527,527,527,527,527,527,527,527,527,527,527,527,527,527,527,527,527,527,527,527,527,526,526,526,525,520,512,488,470,447,414,383,310,267,253,221,201,167,150,134,117,86],"timestamp_mouse":[12,36,46,65,85,106,125,145,165,185,205,226,246,265,286,305,325,346,365,386,406,426,447,465,485,505,525,546,567,586,606,627,646,666,686,707,726,746,767,785,805,827,846,865,886,906],"xSR":741.5,"ySR":469.95,"xT1":424.9,"yT1":0,"xT2":1058.1,"yT2":0,"toosoon":0,"cond_shown":"equaldotsize","ratio_trial":500,"smaller_num":"9","larger_num":"18","correct_side":2,"subjID":"Juanjosemoreno6","gender":"0","age":"9","school":"4"},{"start_time":1552328211191,"click_time":1552328212102,"finger_time":1552328211963,"fix_duration":1366.508293936446,"trial":37,"RT":772,"MT":139,"sideResp":2,"stimulus":"img/900/randomdotsizeEA/L/4_Ratio_900_L_20_R_18.png","xmouse":[793,793,793,793,793,793,793,793,793,793,793,793,793,793,793,793,793,793,793,793,793,793,793,793,793,793,794,795,795,795,796,796,796,797,800,807,810,827,850,938,975,1005,1031,1047,1076,1090],"ymouse":[526,526,526,526,526,526,526,526,526,526,526,526,526,526,526,526,526,526,526,526,526,526,526,526,526,526,525,524,524,524,523,523,522,521,518,514,511,493,462,334,272,222,177,148,107,91],"timestamp_mouse":[13,36,51,71,92,113,133,152,173,193,211,232,252,272,293,312,332,351,371,392,413,433,451,471,491,512,532,551,572,593,613,631,652,672,691,712,731,752,772,791,811,832,852,871,893,911],"xSR":741.5,"ySR":469.95,"xT1":424.9,"yT1":0,"xT2":1058.1,"yT2":0,"toosoon":0,"cond_shown":"randomdotsizeEA","ratio_trial":900,"smaller_num":"18","larger_num":"20","correct_side":1,"subjID":"Juanjosemoreno6","gender":"0","age":"9","school":"4"},{"start_time":1552328213436,"click_time":1552328214703,"finger_time":1552328214144,"fix_duration":250,"trial":38,"RT":708,"MT":559,"sideResp":2,"stimulus":"img/750/equaldotsize/R/4_Ratio_750_L_15_R_20.png","xmouse":[786,786,786,786,786,786,786,786,786,786,786,786,786,786,786,786,786,786,786,786,786,786,786,786,786,786,786,786,786,786,786,786,783,774,770,752,735,730,727,726,726,730,742,766,817,903,1031,1098,1165,1231,1287,1329,1329,1329,1329,1329,1329,1329,1329,1329,1329,1329,1162,1151],"ymouse":[503,503,503,503,503,503,503,503,503,503,504,504,504,504,504,504,504,504,504,504,504,504,504,504,504,504,504,504,504,504,504,504,499,486,480,453,419,408,399,395,394,393,391,389,389,383,347,303,245,170,91,21,21,21,21,21,21,21,21,21,21,21,8,16],"timestamp_mouse":[19,27,46,66,87,107,127,147,166,187,206,227,247,268,287,306,327,348,366,387,408,428,446,467,487,506,528,548,567,587,608,626,646,666,686,708,727,747,766,788,807,828,846,866,886,907,928,946,967,987,1006,1027,1047,1066,1086,1107,1127,1147,1167,1187,1207,1228,1246,1267],"xSR":741.5,"ySR":469.95,"xT1":424.9,"yT1":0,"xT2":1058.1,"yT2":0,"toosoon":0,"cond_shown":"equaldotsize","ratio_trial":750,"smaller_num":"15","larger_num":"20","correct_side":2,"subjID":"Juanjosemoreno6","gender":"0","age":"9","school":"4"},{"start_time":1552328216410,"click_time":1552328217523,"finger_time":1552328217142,"fix_duration":406.0243099964491,"trial":39,"RT":732,"MT":381,"sideResp":1,"stimulus":"img/750/equaldotanddens/L/6_Ratio_750_L_24_R_18.png","xmouse":[798,798,798,798,798,798,798,798,798,798,798,798,798,798,798,798,798,798,798,798,798,798,798,798,798,798,798,798,798,798,798,798,798,798,796,790,780,765,734,717,702,682,665,634,621,607,599,576,563,550,543,534,527,512,508,505],"ymouse":[482,482,482,482,482,482,482,482,482,482,482,482,482,482,482,482,482,482,483,483,483,483,483,483,483,483,483,483,483,483,483,483,483,483,482,474,462,447,396,362,334,304,281,247,237,223,215,196,185,175,167,156,147,122,111,99],"timestamp_mouse":[13,34,52,73,92,114,134,153,173,193,213,233,253,273,292,312,334,353,374,393,413,433,453,474,492,513,534,554,573,594,613,634,653,673,693,712,732,754,774,793,812,832,853,873,892,912,932,954,972,993,1013,1034,1053,1072,1092,1113],"xSR":741.5,"ySR":469.95,"xT1":424.9,"yT1":0,"xT2":1058.1,"yT2":0,"toosoon":0,"cond_shown":"equaldotanddens","ratio_trial":750,"smaller_num":"18","larger_num":"24","correct_side":1,"subjID":"Juanjosemoreno6","gender":"0","age":"9","school":"4"},{"start_time":1552328218557,"click_time":1552328219382,"finger_time":1552328219222,"fix_duration":250,"trial":40,"RT":665,"MT":160,"sideResp":2,"stimulus":"img/500/equaldotanddens/R/9_Ratio_500_L_2_R_4.png","xmouse":[752,752,752,752,752,753,757,760,762,764,767,767,767,767,767,767,767,767,767,767,767,767,767,767,767,767,769,770,771,773,776,792,808,826,850,906,947,988,1023,1080,1129,1140],"ymouse":[478,478,478,478,478,480,485,487,489,492,492,492,492,492,492,492,492,492,492,492,492,492,492,492,492,492,492,492,492,491,490,483,474,463,449,402,366,328,283,199,110,81],"timestamp_mouse":[12,39,46,67,87,106,125,145,166,187,206,226,246,265,286,307,326,346,367,387,406,425,445,466,487,507,526,546,567,585,606,627,645,665,686,708,725,745,765,787,807,825],"xSR":741.5,"ySR":469.95,"xT1":424.9,"yT1":0,"xT2":1058.1,"yT2":0,"toosoon":0,"cond_shown":"equaldotanddens","ratio_trial":500,"smaller_num":"2","larger_num":"4","correct_side":2,"subjID":"Juanjosemoreno6","gender":"0","age":"9","school":"4"},{"start_time":1552328220801,"click_time":1552328221643,"finger_time":1552328221442,"fix_duration":716.7606603675414,"trial":41,"RT":641,"MT":201,"sideResp":1,"stimulus":"img/500/equaldotsize/L/13_Ratio_500_L_12_R_6.png","xmouse":[751,751,751,751,751,751,751,751,751,751,751,751,751,751,751,751,751,751,751,751,751,751,751,751,751,751,751,751,752,753,753,750,742,724,669,637,610,581,561,550,540,532,524],"ymouse":[516,516,516,516,516,516,516,516,516,516,516,516,516,516,516,516,516,516,516,516,516,516,516,516,516,516,516,516,516,512,503,484,458,422,338,294,251,194,142,123,109,98,90],"timestamp_mouse":[9,35,43,61,81,103,123,142,162,181,203,221,242,261,281,301,322,342,361,383,401,422,443,461,481,501,523,542,562,582,601,622,641,663,682,701,722,742,763,781,801,821,841],"xSR":741.5,"ySR":469.95,"xT1":424.9,"yT1":0,"xT2":1058.1,"yT2":0,"toosoon":0,"cond_shown":"equaldotsize","ratio_trial":500,"smaller_num":"6","larger_num":"12","correct_side":1,"subjID":"Juanjosemoreno6","gender":"0","age":"9","school":"4"},{"start_time":1552328223209,"click_time":1552328224364,"finger_time":1552328223923,"fix_duration":403.27980535076034,"trial":42,"RT":714,"MT":441,"sideResp":2,"stimulus":"img/900/equaldotsize/R/7_Ratio_900_L_9_R_10.png","xmouse":[766,768,768,768,768,768,768,768,768,768,768,768,768,768,768,768,768,768,768,768,768,768,768,768,768,768,768,768,768,768,769,775,781,817,834,860,874,900,913,927,937,949,970,980,992,998,1009,1015,1029,1033,1038,1042,1047,1058,1062,1073,1079,1087],"ymouse":[513,513,513,513,513,513,513,513,513,513,513,513,513,513,513,513,513,513,513,513,513,513,513,513,513,513,513,513,513,513,513,513,510,488,472,437,414,368,347,323,303,285,249,233,215,208,189,178,154,146,139,134,129,120,116,107,102,93],"timestamp_mouse":[13,37,54,73,93,114,134,155,174,193,214,234,254,275,295,314,335,354,375,394,414,434,453,474,494,513,534,555,575,594,614,633,654,674,694,714,733,755,774,795,814,834,854,873,894,913,933,955,975,994,1013,1035,1054,1074,1095,1114,1134,1154],"xSR":741.5,"ySR":469.95,"xT1":424.9,"yT1":0,"xT2":1058.1,"yT2":0,"toosoon":0,"cond_shown":"equaldotsize","ratio_trial":900,"smaller_num":"9","larger_num":"10","correct_side":2,"subjID":"Juanjosemoreno6","gender":"0","age":"9","school":"4"},{"start_time":1552328226382,"click_time":1552328227524,"finger_time":1552328227083,"fix_duration":1098.1778245813452,"trial":43,"RT":701,"MT":441,"sideResp":2,"stimulus":"img/900/equaldotsize/R/3_Ratio_900_L_9_R_10.png","xmouse":[771,771,771,771,771,771,771,771,771,771,771,771,771,771,771,771,772,772,772,772,772,772,772,772,772,772,772,772,773,774,776,777,780,786,794,820,838,865,923,1015,1057,1095,1127,1155,1189,1199,1206,1212,1218,1222,1227,1227,1227,1227,1215,1197,1176,1152],"ymouse":[515,515,515,515,515,515,515,515,515,515,515,515,515,515,515,515,515,515,515,515,515,515,515,515,515,515,515,515,515,515,511,508,501,489,476,439,416,393,351,291,260,228,200,174,125,103,84,64,41,27,7,3,2,1,1,5,14,23],"timestamp_mouse":[16,29,42,61,81,101,121,140,161,181,201,221,241,262,281,301,321,340,360,380,400,421,441,460,480,500,521,542,560,580,601,622,641,660,681,701,721,740,761,782,801,821,840,861,881,900,921,940,961,982,1001,1022,1042,1060,1083,1100,1121,1142],"xSR":741.5,"ySR":469.95,"xT1":424.9,"yT1":0,"xT2":1058.1,"yT2":0,"toosoon":0,"cond_shown":"equaldotsize","ratio_trial":900,"smaller_num":"9","larger_num":"10","correct_side":2,"subjID":"Juanjosemoreno6","gender":"0","age":"9","school":"4"},{"start_time":1552328229115,"click_time":1552328230042,"finger_time":1552328229764,"fix_duration":610.6849179090073,"trial":44,"RT":649,"MT":278,"sideResp":1,"stimulus":"img/900/equaldotsize/R/6_Ratio_900_L_9_R_10.png","xmouse":[767,767,767,767,767,767,767,767,767,767,767,767,767,767,767,767,767,767,767,767,767,767,767,767,767,767,769,771,774,775,775,773,753,740,723,708,691,664,648,625,613,577,547,536,529,522,512],"ymouse":[522,522,522,522,522,522,522,522,522,522,522,522,522,522,522,522,522,522,522,522,522,522,522,522,522,522,520,518,512,500,495,477,443,424,405,385,367,328,302,266,249,202,156,136,119,106,94],"timestamp_mouse":[12,37,47,67,88,108,127,148,169,188,209,227,249,268,288,307,327,347,369,387,407,428,448,469,488,508,528,548,569,588,607,629,649,667,687,708,729,750,767,789,807,827,850,868,887,907,927],"xSR":741.5,"ySR":469.95,"xT1":424.9,"yT1":0,"xT2":1058.1,"yT2":0,"toosoon":0,"cond_shown":"equaldotsize","ratio_trial":900,"smaller_num":"9","larger_num":"10","correct_side":2,"subjID":"Juanjosemoreno6","gender":"0","age":"9","school":"4"},{"start_time":1552328233314,"click_time":1552328234063,"finger_time":1552328233922,"fix_duration":829.5339610482342,"trial":45,"RT":608,"MT":141,"sideResp":2,"stimulus":"img/750/equaldotsize/R/2_Ratio_750_L_6_R_8.png","xmouse":[806,807,807,807,807,807,807,807,807,807,806,806,805,804,804,803,802,802,802,802,802,802,802,802,802,802,802,802,803,807,816,851,891,978,1018,1049,1074,1095],"ymouse":[501,490,481,480,480,480,480,480,480,480,480,480,481,482,482,483,484,484,484,484,484,484,484,484,484,484,484,484,483,479,467,429,387,281,223,175,130,93],"timestamp_mouse":[8,29,56,68,89,108,129,148,168,189,208,228,250,270,288,308,329,350,369,389,410,429,448,470,488,508,529,549,568,589,608,630,650,669,689,710,729,749],"xSR":741.5,"ySR":469.95,"xT1":424.9,"yT1":0,"xT2":1058.1,"yT2":0,"toosoon":0,"cond_shown":"equaldotsize","ratio_trial":750,"smaller_num":"6","larger_num":"8","correct_side":2,"subjID":"Juanjosemoreno6","gender":"0","age":"9","school":"4"},{"start_time":1552328236057,"click_time":1552328237143,"finger_time":1552328236702,"fix_duration":930.8770582216514,"trial":46,"RT":645,"MT":441,"sideResp":2,"stimulus":"img/750/randomdotsizeEA/R/3_Ratio_750_L_15_R_20.png","xmouse":[789,789,789,789,789,789,789,789,789,789,789,789,789,789,789,789,789,789,789,789,789,789,789,789,789,789,789,789,789,789,792,797,816,830,914,1079,1143,1188,1217,1224,1224,1224,1224,1224,1224,1224,1224,1224,1224,1224,1224,1224,1224,1224,1094],"ymouse":[526,526,526,526,526,526,526,526,526,526,526,526,526,526,526,526,526,526,526,526,526,526,526,526,526,526,526,526,526,526,519,505,466,445,354,205,134,71,23,6,6,6,6,6,6,6,6,6,6,6,6,6,6,6,30],"timestamp_mouse":[9,26,45,65,85,106,127,145,165,186,206,227,245,266,285,306,326,346,366,385,407,427,446,466,485,505,527,546,567,586,606,626,645,665,686,707,725,746,767,787,807,826,847,866,886,905,925,946,965,986,1006,1027,1046,1066,1086],"xSR":741.5,"ySR":469.95,"xT1":424.9,"yT1":0,"xT2":1058.1,"yT2":0,"toosoon":0,"cond_shown":"randomdotsizeEA","ratio_trial":750,"smaller_num":"15","larger_num":"20","correct_side":2,"subjID":"Juanjosemoreno6","gender":"0","age":"9","school":"4"},{"start_time":1552328239332,"click_time":1552328240002,"finger_time":1552328239923,"fix_duration":1048.9407109216113,"trial":47,"RT":591,"MT":79,"sideResp":2,"stimulus":"img/500/equaldotanddens/R/6_Ratio_500_L_9_R_18.png","xmouse":[760,760,760,760,760,760,760,760,760,760,760,760,760,760,760,760,760,760,760,760,760,760,760,760,760,760,760,768,784,797,847,894,1019,1088],"ymouse":[530,530,530,530,530,530,530,530,530,530,530,530,530,530,530,530,530,530,530,530,530,530,530,530,530,530,528,506,470,449,362,293,134,53],"timestamp_mouse":[13,35,50,71,90,111,132,150,171,190,212,232,251,271,290,310,331,352,371,390,412,430,452,470,492,510,531,552,571,591,612,632,652,670],"xSR":741.5,"ySR":469.95,"xT1":424.9,"yT1":0,"xT2":1058.1,"yT2":0,"toosoon":0,"cond_shown":"equaldotanddens","ratio_trial":500,"smaller_num":"9","larger_num":"18","correct_side":2,"subjID":"Juanjosemoreno6","gender":"0","age":"9","school":"4"},{"start_time":1552328241742,"click_time":1552328242743,"finger_time":1552328242342,"fix_duration":656.3382208228667,"trial":48,"RT":600,"MT":401,"sideResp":2,"stimulus":"img/250/randomdotsizeEA/R/6_Ratio_250_L_6_R_24.png","xmouse":[787,787,787,787,787,787,787,787,787,787,787,787,787,787,787,787,787,787,787,787,787,787,787,787,787,787,787,792,796,816,837,885,909,942,979,1047,1047,1047,1047,1047,1047,1047,1047,1047,1047,1047,1047,1047,1047,1175,1144],"ymouse":[517,517,517,517,517,517,517,517,517,517,517,517,517,517,517,517,517,517,517,517,517,517,517,517,517,517,517,511,506,479,448,357,295,225,146,29,29,29,29,29,29,29,29,29,29,29,29,29,29,26,68],"timestamp_mouse":[9,21,40,62,81,100,121,141,160,181,201,220,241,260,280,300,321,341,361,380,400,420,441,461,481,501,521,540,561,580,600,621,640,661,681,700,721,740,760,780,801,820,841,861,881,900,920,941,960,981,1001],"xSR":741.5,"ySR":469.95,"xT1":424.9,"yT1":0,"xT2":1058.1,"yT2":0,"toosoon":0,"cond_shown":"randomdotsizeEA","ratio_trial":250,"smaller_num":"6","larger_num":"24","correct_side":2,"subjID":"Juanjosemoreno6","gender":"0","age":"9","school":"4"},{"start_time":1552328243854,"click_time":1552328244502,"finger_time":1552328244383,"fix_duration":250,"trial":49,"RT":529,"MT":119,"sideResp":2,"stimulus":"img/900/randomdotsizeEA/L/1_Ratio_900_L_10_R_9.png","xmouse":[788,788,787,785,785,785,785,785,785,785,785,785,785,785,785,785,785,785,785,785,785,785,785,785,787,807,825,853,885,926,1020,1065,1111],"ymouse":[515,515,515,515,515,515,515,515,515,515,515,515,515,515,515,515,515,515,515,515,515,515,515,515,514,488,468,435,398,345,209,132,49],"timestamp_mouse":[8,40,49,68,89,108,129,149,168,188,209,228,248,269,288,309,329,349,368,388,409,429,449,468,488,508,529,548,568,588,609,628,648],"xSR":741.5,"ySR":469.95,"xT1":424.9,"yT1":0,"xT2":1058.1,"yT2":0,"toosoon":0,"cond_shown":"randomdotsizeEA","ratio_trial":900,"smaller_num":"9","larger_num":"10","correct_side":1,"subjID":"Juanjosemoreno6","gender":"0","age":"9","school":"4"},{"start_time":1552328246180,"click_time":1552328247463,"finger_time":1552328246922,"fix_duration":576.8980993184216,"trial":50,"RT":742,"MT":541,"sideResp":2,"stimulus":"img/750/equaldotanddens/R/3_Ratio_750_L_15_R_20.png","xmouse":[778,778,778,778,778,778,778,778,778,778,778,778,778,778,778,778,778,778,778,778,778,778,778,778,778,778,778,778,778,778,778,778,778,780,785,793,813,835,860,909,933,958,967,967,967,967,967,967,967,967,967,967,967,967,967,967,967,967,967,967,967,967,967,1095],"ymouse":[527,527,527,527,527,527,527,527,527,527,527,527,527,527,527,527,527,527,527,527,527,527,527,527,527,527,527,527,527,527,527,527,524,514,496,477,428,372,310,160,84,29,7,7,7,7,7,7,7,7,7,7,7,7,7,7,7,7,7,7,7,7,7,4],"timestamp_mouse":[13,42,63,83,103,122,143,163,182,202,222,242,263,283,302,323,343,362,383,402,422,442,463,483,502,523,543,562,583,602,623,643,662,683,702,722,742,763,783,802,823,842,863,884,902,922,943,963,982,1002,1022,1042,1063,1083,1102,1122,1143,1162,1183,1202,1222,1243,1263,1282],"xSR":741.5,"ySR":469.95,"xT1":424.9,"yT1":0,"xT2":1058.1,"yT2":0,"toosoon":0,"cond_shown":"equaldotanddens","ratio_trial":750,"smaller_num":"15","larger_num":"20","correct_side":2,"subjID":"Juanjosemoreno6","gender":"0","age":"9","school":"4"},{"start_time":1552328248815,"click_time":1552328250442,"finger_time":1552328249463,"fix_duration":452.1074719735394,"trial":51,"RT":648,"MT":979,"sideResp":2,"stimulus":"img/500/randomdotsizeEA/R/1_Ratio_500_L_9_R_18.png","xmouse":[790,790,790,790,790,788,788,788,787,787,787,787,787,786,786,786,785,785,785,785,785,785,785,784,784,784,784,784,783,783,783,783,783,787,793,818,852,997,1082,1161,1243,1243,1243,1243,1243,1243,1243,1243,1243,1243,1243,1243,1243,1301,1273,1238,1195,1152,1086,1064,1052,1048,1046,1045,1040,1038,1037,1036,1040,1052,1074,1108,1164,1184,1184,1184,1184,1184,1184,1184,1184,1135],"ymouse":[496,496,496,496,496,496,496,496,496,496,496,496,496,496,496,496,496,496,496,496,496,496,496,496,495,494,493,491,491,491,489,485,466,448,425,381,341,232,166,96,14,14,14,14,14,14,14,14,14,14,14,14,14,13,36,64,103,138,191,208,219,222,223,223,224,224,224,224,216,196,164,117,41,9,9,9,9,9,9,9,9,1],"timestamp_mouse":[12,35,47,67,87,107,127,147,167,188,208,228,247,268,288,307,328,348,368,387,408,428,447,468,487,508,528,548,567,587,607,627,648,667,687,707,727,749,767,787,807,828,847,868,887,907,927,947,968,987,1008,1028,1047,1067,1087,1108,1127,1147,1168,1187,1208,1227,1248,1267,1287,1308,1327,1348,1368,1387,1407,1428,1448,1467,1487,1507,1528,1547,1568,1588,1607,1627],"xSR":741.5,"ySR":469.95,"xT1":424.9,"yT1":0,"xT2":1058.1,"yT2":0,"toosoon":0,"cond_shown":"randomdotsizeEA","ratio_trial":500,"smaller_num":"9","larger_num":"18","correct_side":2,"subjID":"Juanjosemoreno6","gender":"0","age":"9","school":"4"},{"start_time":1552328252635,"click_time":1552328253402,"finger_time":1552328253222,"fix_duration":1150.565549967134,"trial":52,"RT":587,"MT":180,"sideResp":1,"stimulus":"img/900/randomdotsizeEA/L/2_Ratio_900_L_20_R_18.png","xmouse":[803,803,803,803,803,801,801,801,800,800,800,800,800,800,800,800,800,800,800,800,800,800,800,800,800,799,794,785,773,756,742,711,698,682,647,619,557,535,517],"ymouse":[508,508,508,508,508,509,509,509,510,510,510,510,510,510,510,510,510,510,510,510,510,510,510,510,510,510,498,487,473,457,437,368,322,275,188,142,59,30,8],"timestamp_mouse":[13,44,47,68,87,107,128,148,167,188,208,228,248,268,288,307,327,348,368,387,407,427,449,468,488,508,528,547,567,587,608,629,647,667,687,708,729,747,767],"xSR":741.5,"ySR":469.95,"xT1":424.9,"yT1":0,"xT2":1058.1,"yT2":0,"toosoon":0,"cond_shown":"randomdotsizeEA","ratio_trial":900,"smaller_num":"18","larger_num":"20","correct_side":1,"subjID":"Juanjosemoreno6","gender":"0","age":"9","school":"4"},{"start_time":1552328256198,"click_time":1552328256864,"finger_time":1552328256642,"fix_duration":314.3837665735506,"trial":53,"RT":444,"MT":222,"sideResp":2,"stimulus":"img/900/equaldotsize/L/1_Ratio_900_L_10_R_9.png","xmouse":[804,804,804,804,804,804,804,804,804,804,804,804,804,804,804,804,804,805,809,810,812,814,816,818,820,822,836,856,944,986,1020,1053,1076,1108],"ymouse":[532,532,532,532,532,532,532,532,532,532,532,532,532,532,532,531,530,528,515,504,490,477,467,455,450,447,430,413,339,291,237,174,120,40],"timestamp_mouse":[12,34,44,64,84,104,125,144,164,184,204,224,244,265,285,304,325,344,365,385,404,425,444,466,484,505,526,544,565,584,605,624,644,666],"xSR":741.5,"ySR":469.95,"xT1":424.9,"yT1":0,"xT2":1058.1,"yT2":0,"toosoon":0,"cond_shown":"equaldotsize","ratio_trial":900,"smaller_num":"9","larger_num":"10","correct_side":1,"subjID":"Juanjosemoreno6","gender":"0","age":"9","school":"4"},{"start_time":1552328259057,"click_time":1552328259882,"finger_time":1552328259743,"fix_duration":1255.5524794725688,"trial":54,"RT":686,"MT":139,"sideResp":2,"stimulus":"img/900/equaldotsize/R/6_Ratio_900_L_9_R_10.png","xmouse":[787,787,787,787,787,787,787,788,788,788,788,788,788,788,788,788,788,788,788,788,788,788,788,788,788,788,788,788,788,788,788,791,797,809,835,855,915,956,990,1017,1052,1066],"ymouse":[500,500,500,500,500,500,500,500,500,500,500,500,500,500,500,500,500,500,500,500,500,500,500,500,500,500,500,500,500,500,500,498,492,482,460,435,352,292,242,195,121,85],"timestamp_mouse":[5,26,45,65,86,105,125,146,166,185,205,226,245,266,285,306,326,345,365,385,405,425,446,465,486,506,526,545,566,586,605,625,645,665,686,706,725,745,766,785,806,825],"xSR":741.5,"ySR":469.95,"xT1":424.9,"yT1":0,"xT2":1058.1,"yT2":0,"toosoon":0,"cond_shown":"equaldotsize","ratio_trial":900,"smaller_num":"9","larger_num":"10","correct_side":2,"subjID":"Juanjosemoreno6","gender":"0","age":"9","school":"4"},{"start_time":1552328260895,"click_time":1552328261863,"finger_time":1552328261563,"fix_duration":250,"trial":55,"RT":668,"MT":300,"sideResp":1,"stimulus":"img/900/equaldotanddens/L/2_Ratio_900_L_20_R_18.png","xmouse":[790,790,790,790,790,790,790,790,790,790,790,790,790,790,790,790,790,790,790,790,790,790,790,790,790,790,790,790,790,789,789,788,787,783,780,778,774,770,764,745,726,716,683,659,601,577,553,532,513],"ymouse":[487,487,487,487,487,487,487,487,487,487,487,487,487,487,487,487,487,487,487,487,487,487,487,487,487,487,487,487,487,488,488,485,479,467,462,457,451,447,440,417,389,377,330,297,221,185,152,121,96],"timestamp_mouse":[9,29,47,68,87,108,128,147,168,188,207,228,248,267,288,308,328,347,368,387,407,428,447,468,488,507,528,548,567,588,608,627,648,668,687,707,728,748,769,787,808,828,848,867,887,907,927,947,967],"xSR":741.5,"ySR":469.95,"xT1":424.9,"yT1":0,"xT2":1058.1,"yT2":0,"toosoon":0,"cond_shown":"equaldotanddens","ratio_trial":900,"smaller_num":"18","larger_num":"20","correct_side":1,"subjID":"Juanjosemoreno6","gender":"0","age":"9","school":"4"},{"start_time":1552328263076,"click_time":1552328264164,"finger_time":1552328263802,"fix_duration":250,"trial":56,"RT":726,"MT":362,"sideResp":1,"stimulus":"img/500/equaldotsize/L/10_Ratio_500_L_4_R_2.png","xmouse":[793,793,793,793,793,793,793,793,793,793,793,793,793,793,793,793,793,793,793,793,793,793,793,793,793,793,793,793,793,793,793,793,793,793,793,793,786,774,759,737,684,662,638,627,612,605,599,591,582,564,555,537,531,508,482],"ymouse":[516,516,516,516,516,516,516,516,516,516,516,516,516,516,516,516,516,516,516,516,516,516,516,516,516,516,516,516,516,516,516,516,516,514,498,483,464,440,413,385,335,319,299,289,276,269,260,249,236,203,185,154,144,116,87],"timestamp_mouse":[10,37,47,67,87,107,126,147,167,186,207,227,246,267,287,306,326,346,367,386,406,426,446,466,486,506,527,547,567,587,606,627,646,667,687,707,726,747,767,787,806,827,847,866,887,906,927,946,967,987,1006,1026,1047,1066,1088],"xSR":741.5,"ySR":469.95,"xT1":424.9,"yT1":0,"xT2":1058.1,"yT2":0,"toosoon":0,"cond_shown":"equaldotsize","ratio_trial":500,"smaller_num":"2","larger_num":"4","correct_side":1,"subjID":"Juanjosemoreno6","gender":"0","age":"9","school":"4"},{"start_time":1552328266158,"click_time":1552328267083,"finger_time":1552328266783,"fix_duration":993.6643017289502,"trial":57,"RT":625,"MT":300,"sideResp":2,"stimulus":"img/750/randomdotsizeEA/R/5_Ratio_750_L_15_R_20.png","xmouse":[808,808,808,808,808,808,808,808,808,808,808,808,808,808,808,808,808,808,808,808,808,808,808,808,808,808,808,809,815,822,837,845,855,870,888,914,1001,1025,1044,1067,1076,1090,1094,1097,1101,1108,1112],"ymouse":[526,526,526,526,526,526,526,526,526,526,526,526,526,526,526,526,526,526,526,526,526,526,526,526,526,526,526,525,521,515,497,485,469,451,428,401,324,289,255,215,194,161,150,140,129,105,92],"timestamp_mouse":[14,42,45,65,84,104,125,145,164,184,204,224,245,265,284,304,324,345,365,384,404,424,445,465,485,504,525,544,564,585,605,625,644,664,685,705,724,744,764,785,805,824,844,866,884,905,924],"xSR":741.5,"ySR":469.95,"xT1":424.9,"yT1":0,"xT2":1058.1,"yT2":0,"toosoon":0,"cond_shown":"randomdotsizeEA","ratio_trial":750,"smaller_num":"15","larger_num":"20","correct_side":2,"subjID":"Juanjosemoreno6","gender":"0","age":"9","school":"4"},{"start_time":1552328268334,"click_time":1552328269182,"finger_time":1552328268943,"fix_duration":250,"trial":58,"RT":609,"MT":239,"sideResp":2,"stimulus":"img/750/randomdotsizeEA/L/6_Ratio_750_L_24_R_18.png","xmouse":[797,797,797,797,797,797,797,797,797,797,797,797,797,797,797,797,797,797,797,797,797,797,797,797,797,797,796,796,806,819,838,858,895,916,938,960,980,1002,1011,1023,1034,1056,1066],"ymouse":[527,527,527,527,527,527,527,527,527,527,527,527,527,527,527,527,527,527,527,527,527,527,527,527,527,527,526,517,495,472,451,423,359,324,285,243,209,154,134,108,92,66,57],"timestamp_mouse":[10,44,48,68,88,108,129,149,169,189,208,228,249,269,288,309,329,348,369,388,408,429,449,468,488,508,528,548,569,589,609,628,648,668,688,708,728,748,768,788,809,829,848],"xSR":741.5,"ySR":469.95,"xT1":424.9,"yT1":0,"xT2":1058.1,"yT2":0,"toosoon":0,"cond_shown":"randomdotsizeEA","ratio_trial":750,"smaller_num":"18","larger_num":"24","correct_side":1,"subjID":"Juanjosemoreno6","gender":"0","age":"9","school":"4"},{"start_time":1552328272322,"click_time":1552328273482,"finger_time":1552328273042,"fix_duration":838.2491266515964,"trial":59,"RT":720,"MT":440,"sideResp":2,"stimulus":"img/750/equaldotsize/L/8_Ratio_750_L_4_R_3.png","xmouse":[792,792,792,792,792,792,792,792,792,792,792,792,792,792,792,792,792,792,792,792,792,792,792,792,792,792,792,792,792,792,792,792,792,799,807,816,829,840,871,885,901,917,953,966,975,985,993,1004,1024,1032,1037,1044,1049,1054,1055,1056,1056,1060,1064],"ymouse":[530,530,530,530,530,530,530,530,530,530,530,530,530,530,530,530,530,530,530,530,530,530,530,530,530,530,530,530,530,530,530,530,528,514,501,486,469,453,413,394,374,351,296,275,256,240,225,210,176,160,148,131,122,109,106,105,104,101,98],"timestamp_mouse":[19,20,41,60,80,101,120,141,160,181,200,220,240,260,280,300,320,341,360,381,401,420,441,461,481,501,521,540,561,581,600,620,640,661,681,700,720,741,760,780,800,820,841,860,880,900,920,942,960,981,1000,1020,1040,1060,1080,1101,1120,1141,1160],"xSR":741.5,"ySR":469.95,"xT1":424.9,"yT1":0,"xT2":1058.1,"yT2":0,"toosoon":0,"cond_shown":"equaldotsize","ratio_trial":750,"smaller_num":"3","larger_num":"4","correct_side":1,"subjID":"Juanjosemoreno6","gender":"0","age":"9","school":"4"},{"start_time":1552328274514,"click_time":1552328275723,"finger_time":1552328275242,"fix_duration":250,"trial":60,"RT":728,"MT":481,"sideResp":1,"stimulus":"img/750/equaldotanddens/L/14_Ratio_750_L_8_R_6.png","xmouse":[800,800,800,800,800,800,800,800,800,799,799,799,799,799,799,799,799,799,799,799,799,799,799,799,799,799,799,799,799,799,799,797,794,780,771,760,745,697,670,643,620,592,577,556,549,544,536,524,496,482,478,477,476,476,474,473,471,471,470,470,470],"ymouse":[526,526,526,526,526,526,526,526,526,526,526,526,526,526,526,526,526,526,526,526,526,526,526,526,526,526,526,526,526,526,526,526,520,499,488,476,462,417,387,358,327,288,267,230,217,205,193,182,161,149,145,141,133,128,122,118,113,105,103,102,99],"timestamp_mouse":[10,39,48,68,88,109,128,149,169,188,209,228,248,268,288,308,329,348,368,388,409,429,449,469,489,509,529,549,569,589,608,628,648,669,688,709,728,750,768,788,808,829,850,868,888,908,929,948,969,989,1008,1028,1049,1068,1090,1108,1129,1149,1168,1188,1209],"xSR":741.5,"ySR":469.95,"xT1":424.9,"yT1":0,"xT2":1058.1,"yT2":0,"toosoon":0,"cond_shown":"equaldotanddens","ratio_trial":750,"smaller_num":"6","larger_num":"8","correct_side":1,"subjID":"Juanjosemoreno6","gender":"0","age":"9","school":"4"},{"start_time":1552328277247,"click_time":1552328278582,"finger_time":1552328277823,"fix_duration":782.2521377957053,"trial":61,"RT":576,"MT":759,"sideResp":1,"stimulus":"img/500/randomdotsizeEA/L/7_Ratio_500_L_10_R_5.png","xmouse":[818,818,818,818,818,818,818,818,818,818,818,818,818,818,818,818,818,818,818,818,818,818,818,818,818,818,818,819,819,819,810,804,801,791,781,763,692,648,597,543,436,384,321,208,137,78,74,74,74,74,74,74,74,74,74,74,74,74,74,74,74,74,74,74,584,535,496],"ymouse":[537,537,537,537,537,537,537,537,537,537,537,537,537,537,537,537,537,537,537,537,537,536,534,530,525,519,499,484,466,448,418,406,396,379,367,354,308,283,254,229,186,171,153,111,70,15,4,4,4,4,4,4,4,4,4,4,4,4,4,4,4,4,4,4,2,7,8],"timestamp_mouse":[15,35,56,75,96,116,136,156,176,196,215,236,256,276,295,315,335,356,375,396,416,435,455,475,495,515,536,555,576,595,616,635,655,675,695,715,735,755,775,795,816,835,855,875,896,917,935,955,976,996,1016,1035,1056,1075,1096,1116,1135,1156,1176,1195,1215,1236,1255,1276,1295,1316,1335],"xSR":741.5,"ySR":469.95,"xT1":424.9,"yT1":0,"xT2":1058.1,"yT2":0,"toosoon":0,"cond_shown":"randomdotsizeEA","ratio_trial":500,"smaller_num":"5","larger_num":"10","correct_side":1,"subjID":"Juanjosemoreno6","gender":"0","age":"9","school":"4"},{"start_time":1552328282141,"click_time":1552328283082,"finger_time":1552328282783,"fix_duration":977.5213849025081,"trial":62,"RT":642,"MT":299,"sideResp":2,"stimulus":"img/500/randomdotsizeEA/L/4_Ratio_500_L_18_R_9.png","xmouse":[776,776,776,776,776,776,776,776,776,776,776,776,776,776,776,776,776,776,776,776,776,776,776,776,776,776,776,776,776,785,799,818,858,884,915,939,972,985,994,1004,1017,1025,1034,1039,1043,1049,1064,1072],"ymouse":[525,525,525,525,525,525,525,525,525,525,525,525,525,525,525,525,525,525,525,525,525,525,525,525,525,525,525,525,525,521,512,500,461,426,382,342,269,243,216,194,167,152,137,132,128,122,105,96],"timestamp_mouse":[1,21,42,61,82,100,122,142,162,182,202,222,242,261,282,301,321,341,361,381,402,421,441,461,482,502,523,542,562,582,602,622,642,662,681,701,723,741,761,781,801,822,842,861,881,902,923,941],"xSR":741.5,"ySR":469.95,"xT1":424.9,"yT1":0,"xT2":1058.1,"yT2":0,"toosoon":0,"cond_shown":"randomdotsizeEA","ratio_trial":500,"smaller_num":"9","larger_num":"18","correct_side":1,"subjID":"Juanjosemoreno6","gender":"0","age":"9","school":"4"},{"start_time":1552328285162,"click_time":1552328286503,"finger_time":1552328285722,"fix_duration":1158.1277053000558,"trial":63,"RT":560,"MT":781,"sideResp":2,"stimulus":"img/250/randomdotsizeEA/R/11_Ratio_250_L_3_R_12.png","xmouse":[795,795,795,795,795,795,795,795,795,795,795,795,795,795,795,795,795,795,795,795,795,795,795,795,795,795,789,771,757,741,722,688,661,631,602,549,539,533,532,531,558,593,659,732,817,890,1032,1105,1186,1211,1234,1238,1241,1242,1243,1241,1223,1209,1190,1183,1169,1159,1147,1134,1123,1116,1107,1102],"ymouse":[525,525,525,525,525,525,525,525,525,525,525,525,525,525,525,525,525,525,525,525,525,525,525,525,525,524,513,482,457,428,398,350,322,295,269,213,190,160,152,137,132,132,133,143,156,167,187,198,211,212,211,209,207,206,202,194,172,157,137,129,121,119,117,115,113,113,107,99],"timestamp_mouse":[10,30,41,60,81,101,121,140,161,180,200,221,240,261,281,301,320,340,360,381,401,421,440,460,481,501,520,540,560,581,600,620,641,660,680,701,720,741,760,780,801,820,840,861,881,900,920,940,960,980,1002,1020,1040,1060,1081,1101,1121,1140,1160,1181,1201,1220,1240,1261,1280,1300,1320,1341],"xSR":741.5,"ySR":469.95,"xT1":424.9,"yT1":0,"xT2":1058.1,"yT2":0,"toosoon":0,"cond_shown":"randomdotsizeEA","ratio_trial":250,"smaller_num":"3","larger_num":"12","correct_side":2,"subjID":"Juanjosemoreno6","gender":"0","age":"9","school":"4"},{"start_time":1552328287988,"click_time":1552328288824,"finger_time":1552328288563,"fix_duration":522.9113509205249,"trial":64,"RT":575,"MT":261,"sideResp":2,"stimulus":"img/250/equaldotsize/R/11_Ratio_250_L_3_R_12.png","xmouse":[794,794,794,794,794,794,793,792,791,791,791,791,791,791,791,791,791,791,791,791,791,791,791,791,791,791,794,798,828,843,860,882,902,920,967,1001,1015,1026,1042,1048,1054,1059],"ymouse":[502,502,502,502,503,504,506,507,509,509,509,509,509,509,509,509,509,509,509,509,509,509,509,509,509,510,506,500,461,440,417,370,333,304,224,176,154,134,105,96,85,78],"timestamp_mouse":[14,42,54,75,94,114,134,154,175,195,214,234,254,275,294,314,335,354,374,394,414,434,455,475,495,515,534,555,575,594,614,634,655,676,694,714,734,754,776,794,814,835],"xSR":741.5,"ySR":469.95,"xT1":424.9,"yT1":0,"xT2":1058.1,"yT2":0,"toosoon":0,"cond_shown":"equaldotsize","ratio_trial":250,"smaller_num":"3","larger_num":"12","correct_side":2,"subjID":"Juanjosemoreno6","gender":"0","age":"9","school":"4"},{"start_time":1552328290604,"click_time":1552328292043,"finger_time":1552328291322,"fix_duration":999.4422574828264,"trial":65,"RT":718,"MT":721,"sideResp":1,"stimulus":"img/900/equaldotanddens/L/4_Ratio_900_L_20_R_18.png","xmouse":[783,783,783,783,783,783,783,783,783,783,783,783,783,783,783,783,783,783,783,783,783,783,783,783,783,783,783,783,783,783,783,784,787,793,816,832,847,872,910,928,944,960,971,984,986,990,991,994,996,996,996,996,996,987,967,945,907,878,803,765,731,701,675,643,631,617,609,587,573,553,544,534,520],"ymouse":[532,532,532,532,532,532,532,532,532,532,532,532,532,532,532,532,532,532,532,532,532,532,532,532,532,532,532,532,532,532,532,532,532,527,501,479,459,420,351,322,293,264,244,218,212,203,202,196,191,191,191,191,191,196,207,215,226,234,240,240,240,236,229,212,203,190,183,164,153,132,120,108,98],"timestamp_mouse":[1,19,44,59,79,98,118,139,158,178,198,220,239,258,278,299,318,339,358,378,398,419,439,458,478,500,519,539,559,578,598,619,639,658,678,698,718,738,760,778,798,818,839,860,878,897,918,938,959,978,998,1018,1038,1058,1078,1098,1118,1138,1159,1178,1199,1219,1238,1259,1278,1298,1319,1339,1359,1378,1398,1419,1439],"xSR":741.5,"ySR":469.95,"xT1":424.9,"yT1":0,"xT2":1058.1,"yT2":0,"toosoon":0,"cond_shown":"equaldotanddens","ratio_trial":900,"smaller_num":"18","larger_num":"20","correct_side":1,"subjID":"Juanjosemoreno6","gender":"0","age":"9","school":"4"},{"start_time":1552328293409,"click_time":1552328294342,"finger_time":1552328294102,"fix_duration":503.1081408559642,"trial":66,"RT":693,"MT":240,"sideResp":1,"stimulus":"img/500/equaldotanddens/L/4_Ratio_500_L_18_R_9.png","xmouse":[797,797,797,797,797,797,797,797,797,797,797,797,797,797,797,797,797,797,797,797,797,797,797,797,797,797,797,797,797,797,795,791,780,750,744,723,707,662,642,623,601,583,563,556,544,539,518],"ymouse":[548,548,548,548,548,548,548,548,548,548,548,548,548,548,548,548,548,548,548,548,548,548,548,548,548,548,548,548,548,548,546,542,530,472,458,410,377,307,272,240,205,176,135,121,103,98,86],"timestamp_mouse":[20,39,53,73,94,113,133,153,174,193,213,234,254,275,293,313,333,353,374,393,413,433,454,474,493,514,533,553,573,594,614,634,653,673,693,714,733,754,773,794,813,834,853,873,893,913,933],"xSR":741.5,"ySR":469.95,"xT1":424.9,"yT1":0,"xT2":1058.1,"yT2":0,"toosoon":0,"cond_shown":"equaldotanddens","ratio_trial":500,"smaller_num":"9","larger_num":"18","correct_side":1,"subjID":"Juanjosemoreno6","gender":"0","age":"9","school":"4"},{"start_time":1552328297011,"click_time":1552328298103,"finger_time":1552328297922,"fix_duration":506.1888290301317,"trial":67,"RT":911,"MT":181,"sideResp":2,"stimulus":"img/750/randomdotsizeEA/L/14_Ratio_750_L_8_R_6.png","xmouse":[795,795,795,795,795,795,795,795,795,795,795,795,795,795,795,795,795,795,795,795,795,795,795,795,795,795,795,795,795,795,795,795,795,795,795,795,795,795,795,797,801,806,814,821,829,854,880,914,980,1008,1031,1054,1103,1124,1144],"ymouse":[543,543,543,543,543,543,543,543,543,543,543,543,543,543,543,543,543,543,543,543,543,543,543,543,543,543,543,543,543,543,543,543,543,543,543,543,543,543,543,543,540,535,521,508,493,458,422,377,297,265,238,211,150,124,98],"timestamp_mouse":[11,45,52,71,91,112,132,152,171,191,211,232,251,272,292,312,331,352,372,393,412,432,451,471,492,511,532,551,571,592,611,631,652,671,692,712,731,751,771,792,812,832,852,871,892,911,931,952,971,991,1011,1031,1053,1071,1092],"xSR":741.5,"ySR":469.95,"xT1":424.9,"yT1":0,"xT2":1058.1,"yT2":0,"toosoon":0,"cond_shown":"randomdotsizeEA","ratio_trial":750,"smaller_num":"6","larger_num":"8","correct_side":1,"subjID":"Juanjosemoreno6","gender":"0","age":"9","school":"4"},{"start_time":1552328299739,"click_time":1552328301222,"finger_time":1552328300682,"fix_duration":775.4734383719301,"trial":68,"RT":943,"MT":540,"sideResp":1,"stimulus":"img/500/equaldotsize/L/5_Ratio_500_L_4_R_2.png","xmouse":[780,780,780,780,780,780,780,780,780,780,780,780,780,780,780,780,780,780,780,780,780,780,780,780,780,780,780,780,780,780,780,780,780,780,780,780,780,780,780,780,780,780,780,780,780,780,781,781,778,769,735,646,605,560,527,527,527,527,527,527,527,527,527,527,527,527,527,527,527,527,527,527,527,527,520],"ymouse":[541,541,541,541,541,541,541,541,541,541,541,541,541,541,541,541,541,541,541,541,541,541,541,541,541,541,541,541,541,541,541,541,541,541,541,541,541,541,541,541,541,541,541,541,537,531,493,469,437,392,303,170,108,55,12,12,12,12,12,12,12,12,12,12,12,12,12,12,12,12,12,12,12,12,47],"timestamp_mouse":[10,26,43,64,83,104,123,144,164,183,203,223,243,264,283,303,323,343,363,383,403,424,443,464,483,504,524,543,564,584,603,624,644,664,683,704,723,744,764,783,804,823,844,863,883,903,924,943,963,984,1004,1024,1043,1064,1083,1104,1124,1144,1163,1183,1204,1224,1244,1263,1283,1304,1324,1343,1364,1383,1403,1423,1443,1463,1483],"xSR":741.5,"ySR":469.95,"xT1":424.9,"yT1":0,"xT2":1058.1,"yT2":0,"toosoon":0,"cond_shown":"equaldotsize","ratio_trial":500,"smaller_num":"2","larger_num":"4","correct_side":1,"subjID":"Juanjosemoreno6","gender":"0","age":"9","school":"4"},{"start_time":1552328303655,"click_time":1552328304922,"finger_time":1552328304263,"fix_duration":1312.2205234492394,"trial":69,"RT":608,"MT":659,"sideResp":2,"stimulus":"img/500/equaldotanddens/R/6_Ratio_500_L_9_R_18.png","xmouse":[794,794,794,794,794,794,794,794,794,794,794,794,794,794,794,794,794,794,794,794,794,794,794,794,794,794,794,797,805,813,838,861,886,916,955,980,981,981,982,982,982,982,982,982,982,983,989,998,1021,1041,1048,1048,1048,1048,1048,1048,1048,1048,1048,1048,1048,1050,1054,1061],"ymouse":[515,515,515,515,515,515,515,515,515,515,515,515,515,515,515,515,515,515,515,515,515,515,515,515,515,515,515,508,496,480,435,379,322,257,169,85,58,41,31,29,29,29,29,29,29,29,29,29,33,35,35,35,35,35,35,35,35,35,35,35,35,35,35,35],"timestamp_mouse":[12,37,47,66,88,108,128,147,168,187,208,227,247,267,288,306,328,347,367,387,407,427,448,467,487,507,527,548,567,586,608,627,647,666,686,708,727,748,767,787,807,827,846,867,886,907,928,947,967,987,1007,1026,1046,1067,1087,1107,1128,1147,1167,1188,1208,1226,1247,1267],"xSR":741.5,"ySR":469.95,"xT1":424.9,"yT1":0,"xT2":1058.1,"yT2":0,"toosoon":0,"cond_shown":"equaldotanddens","ratio_trial":500,"smaller_num":"9","larger_num":"18","correct_side":2,"subjID":"Juanjosemoreno6","gender":"0","age":"9","school":"4"},{"start_time":1552328310033,"click_time":1552328310722,"finger_time":1552328310622,"fix_duration":1342.983061540256,"trial":70,"RT":589,"MT":100,"sideResp":1,"stimulus":"img/900/equaldotsize/L/2_Ratio_900_L_20_R_18.png","xmouse":[813,813,813,813,813,813,813,813,813,813,813,813,813,813,813,813,813,813,813,813,813,813,813,813,813,813,813,813,808,792,759,665,585,558,491],"ymouse":[501,501,501,501,501,501,501,501,501,501,501,501,501,501,501,501,501,501,501,501,501,501,501,501,501,501,501,500,480,444,393,269,176,145,68],"timestamp_mouse":[13,33,48,69,88,110,130,149,170,189,208,228,249,269,290,310,330,348,369,390,410,428,449,470,490,509,530,550,570,589,608,631,649,669,689],"xSR":741.5,"ySR":469.95,"xT1":424.9,"yT1":0,"xT2":1058.1,"yT2":0,"toosoon":0,"cond_shown":"equaldotsize","ratio_trial":900,"smaller_num":"18","larger_num":"20","correct_side":1,"subjID":"Juanjosemoreno6","gender":"0","age":"9","school":"4"},{"start_time":1552328313791,"click_time":1552328314681,"finger_time":1552328314323,"fix_duration":447.8754631595745,"trial":71,"RT":532,"MT":358,"sideResp":2,"stimulus":"img/250/equaldotanddens/R/4_Ratio_250_L_3_R_12.png","xmouse":[775,775,775,775,775,775,775,775,775,775,775,775,775,775,775,775,775,775,775,775,775,775,775,775,786,797,857,905,949,1010,1036,1056,1073,1100,1107,1112,1115,1117,1119,1120,1123,1126,1129,1133,1133],"ymouse":[535,535,535,535,535,535,535,535,535,535,535,535,535,535,535,535,535,535,535,535,535,535,535,535,534,530,495,455,414,333,290,256,227,177,163,153,148,145,141,138,132,123,114,101,99],"timestamp_mouse":[13,35,51,72,90,112,132,150,172,192,211,231,251,270,292,311,331,351,371,390,411,431,451,470,491,511,532,550,572,591,611,632,651,672,691,711,732,750,772,791,811,831,851,872,890],"xSR":741.5,"ySR":469.95,"xT1":424.9,"yT1":0,"xT2":1058.1,"yT2":0,"toosoon":0,"cond_shown":"equaldotanddens","ratio_trial":250,"smaller_num":"3","larger_num":"12","correct_side":2,"subjID":"Juanjosemoreno6","gender":"0","age":"9","school":"4"},{"start_time":1552328317279,"click_time":1552328319022,"finger_time":1552328318423,"fix_duration":396.0956152648687,"trial":72,"RT":1144,"MT":599,"sideResp":1,"stimulus":"img/900/equaldotsize/R/13_Ratio_900_L_18_R_20.png","xmouse":[810,810,810,810,810,810,810,810,810,810,810,810,810,810,810,810,810,810,810,810,810,810,810,810,810,810,810,810,810,810,810,810,810,810,810,810,810,810,810,810,810,810,810,810,810,811,811,811,811,811,811,811,811,811,811,815,831,855,881,925,934,937,937,937,936,929,923,917,909,873,849,827,789,757,665,621,588,571,558,551,543,538,535,532,529,513,498,490],"ymouse":[533,533,533,533,533,533,533,533,533,533,533,533,533,533,533,533,533,533,533,533,533,533,533,533,533,533,533,533,533,533,533,533,533,533,533,533,533,533,533,533,533,533,533,533,533,533,532,532,532,529,528,527,525,523,512,497,478,451,425,364,347,337,335,335,334,336,339,344,348,355,356,356,350,335,275,243,214,192,172,156,137,129,126,123,119,108,100,97],"timestamp_mouse":[9,23,46,64,84,103,123,143,162,183,203,223,243,263,284,303,323,343,363,384,404,424,444,463,483,504,523,543,563,582,604,623,644,663,682,704,722,742,764,784,804,823,844,864,884,903,922,944,964,983,1002,1022,1042,1064,1084,1104,1123,1144,1163,1183,1202,1224,1243,1263,1282,1302,1323,1343,1364,1385,1402,1423,1442,1462,1484,1503,1524,1543,1564,1584,1603,1623,1644,1663,1683,1704,1723,1743],"xSR":741.5,"ySR":469.95,"xT1":424.9,"yT1":0,"xT2":1058.1,"yT2":0,"toosoon":0,"cond_shown":"equaldotsize","ratio_trial":900,"smaller_num":"18","larger_num":"20","correct_side":2,"subjID":"Juanjosemoreno6","gender":"0","age":"9","school":"4"},{"start_time":1552328321492,"click_time":1552328322322,"finger_time":1552328322142,"fix_duration":1467.7560197961814,"trial":73,"RT":650,"MT":180,"sideResp":1,"stimulus":"img/750/randomdotsizeEA/L/9_Ratio_750_L_4_R_3.png","xmouse":[801,801,801,801,801,801,801,801,801,801,801,801,801,801,801,801,801,801,801,801,801,801,801,801,801,801,801,801,801,801,801,802,802,798,775,760,737,715,674,571,525,479],"ymouse":[486,486,486,486,486,486,487,487,487,487,487,487,487,487,487,487,487,487,487,487,487,487,487,487,487,487,487,487,487,483,480,472,457,442,397,372,