[{"start_time":1552308699025,"click_time":1552308701265,"finger_time":1552308700424,"fix_duration":935.9543252973924,"trial":0,"RT":1399,"MT":841,"sideResp":1,"stimulus":[],"xmouse":[791,791,791,791,791,791,791,791,791,791,791,791,791,791,791,791,791,791,791,791,791,791,791,791,791,791,791,791,791,791,791,791,791,791,791,791,791,791,791,791,791,791,791,791,791,791,791,791,791,791,796,817,828,832,832,832,832,832,832,832,832,832,832,832,832,832,832,832,832,835,850,881,933,1020,1033,1037,1057,1093,1141,1145,1145,1145,1145,1144,1120,1098,1071,1037,983,983,983,983,983,983,983,983,983,983,983,983,983,983,983,983,983,983,983,983,983,563,554,540,524],"ymouse":[546,546,546,546,546,546,546,546,546,546,546,546,546,546,546,546,546,546,546,546,546,546,546,546,546,546,546,546,546,546,546,546,546,546,546,546,546,546,546,546,546,546,546,546,546,546,546,546,546,546,537,499,491,490,490,490,490,490,490,490,490,490,490,490,490,490,490,490,490,490,488,482,474,451,439,417,385,352,320,315,315,315,315,306,215,172,124,75,2,2,2,2,2,2,2,2,2,2,2,2,2,2,2,2,2,2,2,2,2,5,9,15,22],"timestamp_mouse":[12,20,48,59,79,99,119,139,160,179,199,220,240,258,279,299,319,340,360,378,399,419,439,460,480,498,520,540,558,580,600,620,639,659,679,700,720,739,759,780,799,819,840,859,880,899,919,940,960,979,998,1019,1039,1060,1079,1098,1120,1140,1160,1180,1199,1219,1240,1259,1278,1298,1319,1340,1359,1379,1399,1419,1439,1459,1479,1499,1519,1539,1559,1579,1599,1618,1639,1658,1679,1699,1718,1739,1759,1778,1800,1818,1838,1858,1879,1899,1919,1940,1959,1980,1999,2019,2040,2060,2079,2099,2120,2138,2159,2180,2200,2220,2240],"xSR":741.5,"ySR":500.5,"xT1":424.9,"yT1":0,"xT2":1058.1,"yT2":0,"toosoon":0,"cond_shown":"Incongruent","ratio_trial":100,"L_num":13,"L_den":26,"R_num":6,"R_den":10,"correct_side":2,"subjID":"juanjosesanchezorozco8","gender":"0","age":"9","school":"4","test":{"fix_dur":[250,1500],"timestim":1000,"targets_dim":[100,100],"targets_relative_coord":[0.3,0.7],"size_stim":[880,420],"start_dim":[100,100],"size_start":[300,300],"size_fix":60,"samplingrate":20,"img_types":["Congruent","Incongruent"],"ratios":[100,200,300],"rep_conds":19,"nTrials":120,"trials_to_rest":500,"Trials_order":[79,53,41,100,76,74,48,10,20,57,119,73,109,37,15,98,90,12,101,78,55,105,62,51,93,0,88,94,91,1,27,14,43,71,11,80,45,52,30,99,38,84,86,26,111,103,117,115,67,4,7,70,68,66,6,116,75,59,81,112,36,108,110,89,44,8,24,35,22,64,82,40,42,97,54,56,118,92,2,63,77,49,47,32,96,50,34,23,25,13,16,106,113,60,19,39,28,31,95,18,83,17,58,5,72,69,104,61,33,114,29,3,87,102,65,107,21,85,46,9],"cond_shown":["Incongruent","Incongruent","Incongruent","Congruent","Congruent","Congruent","Congruent","Congruent","Congruent","Incongruent","Incongruent","Incongruent","Incongruent","Incongruent","Incongruent","Congruent","Congruent","Congruent","Incongruent","Congruent","Incongruent","Incongruent","Congruent","Incongruent","Incongruent","Congruent","Congruent","Congruent","Incongruent","Incongruent","Incongruent","Congruent","Incongruent","Incongruent","Incongruent","Congruent","Incongruent","Congruent","Congruent","Incongruent","Congruent","Congruent","Congruent","Congruent","Incongruent","Incongruent","Incongruent","Incongruent","Incongruent","Congruent","Incongruent","Congruent","Congruent","Congruent","Congruent","Congruent","Incongruent","Incongruent","Incongruent","Congruent","Congruent","Congruent","Congruent","Incongruent","Congruent","Congruent","Congruent","Incongruent","Congruent","Congruent","Congruent","Congruent","Congruent","Incongruent","Congruent","Congruent","Congruent","Congruent","Congruent","Incongruent","Incongruent","Incongruent","Incongruent","Congruent","Congruent","Congruent","Congruent","Incongruent","Incongruent","Incongruent","Congruent","Congruent","Incongruent","Congruent","Incongruent","Incongruent","Congruent","Incongruent","Incongruent","Congruent","Incongruent","Incongruent","Congruent","Incongruent","Congruent","Incongruent","Congruent","Incongruent","Incongruent","Congruent","Incongruent","Incongruent","Incongruent","Congruent","Incongruent","Incongruent","Incongruent","Incongruent","Congruent","Incongruent"],"ratio_trial":[100,300,300,300,300,200,100,300,200,200,300,100,100,100,200,200,100,100,300,100,100,200,200,200,200,100,300,300,100,100,200,200,100,300,300,200,200,300,100,200,200,100,200,200,200,100,200,100,100,300,100,300,200,100,100,200,200,300,200,300,100,100,200,300,200,200,100,300,300,300,300,300,100,100,100,200,300,200,200,200,300,100,300,200,100,200,300,300,100,100,300,300,300,100,100,200,300,100,300,100,300,300,300,300,100,200,200,100,200,100,300,200,200,100,300,300,200,100,300,200],"left_num":[13,13,13,2,24,9,6,20,7,4,13,13,6,12,3,13,9,3,4,8,6,14,9,7,7,2,1,24,12,8,7,15,9,1,13,15,7,24,1,1,4,9,16,1,4,17,1,3,8,11,1,1,9,6,1,3,4,13,4,20,12,4,3,13,15,7,4,4,2,5,11,20,11,3,12,1,20,4,3,1,13,13,1,5,6,8,1,4,8,1,18,11,13,12,3,14,18,9,1,11,3,4,20,7,9,9,21,6,14,15,4,6,3,6,13,3,3,9,5,4],"right_num":[6,12,12,10,8,4,5,5,2,14,12,12,11,9,1,14,8,2,2,2,11,6,4,12,8,11,8,2,2,6,14,4,13,3,12,4,4,8,18,3,3,8,9,21,6,10,3,4,6,1,8,19,13,15,18,7,14,12,6,5,13,15,14,12,4,18,15,2,12,6,2,14,6,7,13,21,8,3,9,3,12,6,2,14,15,2,8,2,6,8,9,2,12,13,7,12,9,13,2,4,4,2,13,8,8,8,2,7,6,13,2,3,11,5,12,4,1,20,7,14],"left_den":[26,26,26,20,30,20,20,25,21,6,26,26,10,24,10,26,15,6,20,16,10,30,20,10,10,5,30,30,30,16,10,25,15,2,26,25,15,30,2,2,8,15,30,2,5,30,2,6,16,22,2,3,30,12,2,10,6,26,5,25,30,10,10,26,25,15,10,20,10,25,22,25,22,9,30,2,25,10,12,2,26,26,2,10,12,15,30,20,16,2,20,22,26,30,9,30,20,15,2,22,6,20,25,10,15,15,30,10,30,25,20,20,4,20,26,6,10,10,25,6],"right_den":[10,15,15,25,16,16,25,10,15,30,15,20,22,15,2,20,16,5,4,5,22,9,16,24,16,22,24,4,4,10,28,10,26,15,15,10,6,16,30,10,10,16,27,30,10,15,10,10,10,5,20,30,26,25,30,14,30,15,10,10,26,30,28,15,10,27,30,4,24,12,10,28,15,30,26,30,16,15,20,10,15,10,10,20,25,6,24,4,10,20,15,10,15,26,30,18,15,26,10,10,20,4,26,20,16,10,4,14,9,26,4,6,20,25,15,20,2,25,14,30],"correct_side":[2,2,2,2,1,1,1,1,1,1,2,2,1,2,2,2,1,1,2,1,1,2,1,1,1,2,2,1,2,2,1,1,1,1,2,1,2,1,2,1,1,1,1,2,1,2,1,1,2,1,1,2,2,2,2,2,1,2,1,1,2,2,2,2,1,2,2,2,2,2,1,1,1,1,2,2,1,1,2,1,2,2,1,2,2,1,2,2,2,1,1,1,2,2,1,2,1,1,1,1,1,2,1,1,1,2,1,1,2,1,2,2,1,1,2,1,2,1,2,1],"img_shown":["img2/100/Incongruent/R/I_Dist_100_LN_13_LD_26_RN_6_RD_10_1.png","img2/300/Incongruent/R/I_Dist_300_LN_13_LD_26_RN_12_RD_15_1.png","img2/300/Incongruent/R/I_Dist_300_LN_13_LD_26_RN_12_RD_15_1.png","img2/300/Congruent/R/C_Dist_300_LN_2_LD_20_RN_10_RD_25_1.png","img2/300/Congruent/L/C_Dist_300_LN_24_LD_30_RN_8_RD_16_0.png","img2/200/Congruent/L/C_Dist_200_LN_9_LD_20_RN_4_RD_16_0.png","img2/100/Congruent/L/C_Dist_100_LN_6_LD_20_RN_5_RD_25_0.png","img2/300/Congruent/L/C_Dist_300_LN_20_LD_25_RN_5_RD_10_0.png","img2/200/Congruent/L/C_Dist_200_LN_7_LD_21_RN_2_RD_15_0.png","img2/200/Incongruent/L/I_Dist_200_LN_4_LD_6_RN_14_RD_30_0.png","img2/300/Incongruent/R/I_Dist_300_LN_13_LD_26_RN_12_RD_15_1.png","img2/100/Incongruent/R/I_Dist_100_LN_13_LD_26_RN_12_RD_20_1.png","img2/100/Incongruent/L/I_Dist_100_LN_6_LD_10_RN_11_RD_22_0.png","img2/100/Incongruent/R/I_Dist_100_LN_12_LD_24_RN_9_RD_15_1.png","img2/200/Incongruent/R/I_Dist_200_LN_3_LD_10_RN_1_RD_2_1.png","img2/200/Congruent/R/C_Dist_200_LN_13_LD_26_RN_14_RD_20_1.png","img2/100/Congruent/L/C_Dist_100_LN_9_LD_15_RN_8_RD_16_0.png","img2/100/Congruent/L/C_Dist_100_LN_3_LD_6_RN_2_RD_5_0.png","img2/300/Incongruent/R/I_Dist_300_LN_4_LD_20_RN_2_RD_4_1.png","img2/100/Congruent/L/C_Dist_100_LN_8_LD_16_RN_2_RD_5_0.png","img2/100/Incongruent/L/I_Dist_100_LN_6_LD_10_RN_11_RD_22_0.png","img2/200/Incongruent/R/I_Dist_200_LN_14_LD_30_RN_6_RD_9_1.png","img2/200/Congruent/L/C_Dist_200_LN_9_LD_20_RN_4_RD_16_0.png","img2/200/Incongruent/L/I_Dist_200_LN_7_LD_10_RN_12_RD_24_0.png","img2/200/Incongruent/L/I_Dist_200_LN_7_LD_10_RN_8_RD_16_0.png","img2/100/Congruent/R/C_Dist_100_LN_2_LD_5_RN_11_RD_22_1.png","img2/300/Congruent/R/C_Dist_300_LN_1_LD_30_RN_8_RD_24_1.png","img2/300/Congruent/L/C_Dist_300_LN_24_LD_30_RN_2_RD_4_0.png","img2/100/Incongruent/R/I_Dist_100_LN_12_LD_30_RN_2_RD_4_1.png","img2/100/Incongruent/R/I_Dist_100_LN_8_LD_16_RN_6_RD_10_1.png","img2/200/Incongruent/L/I_Dist_200_LN_7_LD_10_RN_14_RD_28_0.png","img2/200/Congruent/L/C_Dist_200_LN_15_LD_25_RN_4_RD_10_0.png","img2/100/Incongruent/L/I_Dist_100_LN_9_LD_15_RN_13_RD_26_0.png","img2/300/Incongruent/L/I_Dist_300_LN_1_LD_2_RN_3_RD_15_0.png","img2/300/Incongruent/R/I_Dist_300_LN_13_LD_26_RN_12_RD_15_1.png","img2/200/Congruent/L/C_Dist_200_LN_15_LD_25_RN_4_RD_10_0.png","img2/200/Incongruent/R/I_Dist_200_LN_7_LD_15_RN_4_RD_6_1.png","img2/300/Congruent/L/C_Dist_300_LN_24_LD_30_RN_8_RD_16_0.png","img2/100/Congruent/R/C_Dist_100_LN_1_LD_2_RN_18_RD_30_1.png","img2/200/Incongruent/L/I_Dist_200_LN_1_LD_2_RN_3_RD_10_0.png","img2/200/Congruent/L/C_Dist_200_LN_4_LD_8_RN_3_RD_10_0.png","img2/100/Congruent/L/C_Dist_100_LN_9_LD_15_RN_8_RD_16_0.png","img2/200/Congruent/L/C_Dist_200_LN_16_LD_30_RN_9_RD_27_0.png","img2/200/Congruent/R/C_Dist_200_LN_1_LD_2_RN_21_RD_30_1.png","img2/200/Incongruent/L/I_Dist_200_LN_4_LD_5_RN_6_RD_10_0.png","img2/100/Incongruent/R/I_Dist_100_LN_17_LD_30_RN_10_RD_15_1.png","img2/200/Incongruent/L/I_Dist_200_LN_1_LD_2_RN_3_RD_10_0.png","img2/100/Incongruent/L/I_Dist_100_LN_3_LD_6_RN_4_RD_10_0.png","img2/100/Incongruent/R/I_Dist_100_LN_8_LD_16_RN_6_RD_10_1.png","img2/300/Congruent/L/C_Dist_300_LN_11_LD_22_RN_1_RD_5_0.png","img2/100/Incongruent/L/I_Dist_100_LN_1_LD_2_RN_8_RD_20_0.png","img2/300/Congruent/R/C_Dist_300_LN_1_LD_3_RN_19_RD_30_1.png","img2/200/Congruent/R/C_Dist_200_LN_9_LD_30_RN_13_RD_26_1.png","img2/100/Congruent/R/C_Dist_100_LN_6_LD_12_RN_15_RD_25_1.png","img2/100/Congruent/R/C_Dist_100_LN_1_LD_2_RN_18_RD_30_1.png","img2/200/Congruent/R/C_Dist_200_LN_3_LD_10_RN_7_RD_14_1.png","img2/200/Incongruent/L/I_Dist_200_LN_4_LD_6_RN_14_RD_30_0.png","img2/300/Incongruent/R/I_Dist_300_LN_13_LD_26_RN_12_RD_15_1.png","img2/200/Incongruent/L/I_Dist_200_LN_4_LD_5_RN_6_RD_10_0.png","img2/300/Congruent/L/C_Dist_300_LN_20_LD_25_RN_5_RD_10_0.png","img2/100/Congruent/R/C_Dist_100_LN_12_LD_30_RN_13_RD_26_1.png","img2/100/Congruent/R/C_Dist_100_LN_4_LD_10_RN_15_RD_30_1.png","img2/200/Congruent/R/C_Dist_200_LN_3_LD_10_RN_14_RD_28_1.png","img2/300/Incongruent/R/I_Dist_300_LN_13_LD_26_RN_12_RD_15_1.png","img2/200/Congruent/L/C_Dist_200_LN_15_LD_25_RN_4_RD_10_0.png","img2/200/Congruent/R/C_Dist_200_LN_7_LD_15_RN_18_RD_27_1.png","img2/100/Congruent/R/C_Dist_100_LN_4_LD_10_RN_15_RD_30_1.png","img2/300/Incongruent/R/I_Dist_300_LN_4_LD_20_RN_2_RD_4_1.png","img2/300/Congruent/R/C_Dist_300_LN_2_LD_10_RN_12_RD_24_1.png","img2/300/Congruent/R/C_Dist_300_LN_5_LD_25_RN_6_RD_12_1.png","img2/300/Congruent/L/C_Dist_300_LN_11_LD_22_RN_2_RD_10_0.png","img2/300/Congruent/L/C_Dist_300_LN_20_LD_25_RN_14_RD_28_0.png","img2/100/Congruent/L/C_Dist_100_LN_11_LD_22_RN_6_RD_15_0.png","img2/100/Incongruent/L/I_Dist_100_LN_3_LD_9_RN_7_RD_30_0.png","img2/100/Congruent/R/C_Dist_100_LN_12_LD_30_RN_13_RD_26_1.png","img2/200/Congruent/R/C_Dist_200_LN_1_LD_2_RN_21_RD_30_1.png","img2/300/Congruent/L/C_Dist_300_LN_20_LD_25_RN_8_RD_16_0.png","img2/200/Congruent/L/C_Dist_200_LN_4_LD_10_RN_3_RD_15_0.png","img2/200/Congruent/R/C_Dist_200_LN_3_LD_12_RN_9_RD_20_1.png","img2/200/Incongruent/L/I_Dist_200_LN_1_LD_2_RN_3_RD_10_0.png","img2/300/Incongruent/R/I_Dist_300_LN_13_LD_26_RN_12_RD_15_1.png","img2/100/Incongruent/R/I_Dist_100_LN_13_LD_26_RN_6_RD_10_1.png","img2/300/Incongruent/L/I_Dist_300_LN_1_LD_2_RN_2_RD_10_0.png","img2/200/Congruent/R/C_Dist_200_LN_5_LD_10_RN_14_RD_20_1.png","img2/100/Congruent/R/C_Dist_100_LN_6_LD_12_RN_15_RD_25_1.png","img2/200/Congruent/L/C_Dist_200_LN_8_LD_15_RN_2_RD_6_0.png","img2/300/Congruent/R/C_Dist_300_LN_1_LD_30_RN_8_RD_24_1.png","img2/300/Incongruent/R/I_Dist_300_LN_4_LD_20_RN_2_RD_4_1.png","img2/100/Incongruent/R/I_Dist_100_LN_8_LD_16_RN_6_RD_10_1.png","img2/100/Incongruent/L/I_Dist_100_LN_1_LD_2_RN_8_RD_20_0.png","img2/300/Congruent/L/C_Dist_300_LN_18_LD_20_RN_9_RD_15_0.png","img2/300/Congruent/L/C_Dist_300_LN_11_LD_22_RN_2_RD_10_0.png","img2/300/Incongruent/R/I_Dist_300_LN_13_LD_26_RN_12_RD_15_1.png","img2/100/Congruent/R/C_Dist_100_LN_12_LD_30_RN_13_RD_26_1.png","img2/100/Incongruent/L/I_Dist_100_LN_3_LD_9_RN_7_RD_30_0.png","img2/200/Incongruent/R/I_Dist_200_LN_14_LD_30_RN_12_RD_18_1.png","img2/300/Congruent/L/C_Dist_300_LN_18_LD_20_RN_9_RD_15_0.png","img2/100/Incongruent/L/I_Dist_100_LN_9_LD_15_RN_13_RD_26_0.png","img2/300/Incongruent/L/I_Dist_300_LN_1_LD_2_RN_2_RD_10_0.png","img2/100/Congruent/L/C_Dist_100_LN_11_LD_22_RN_4_RD_10_0.png","img2/300/Incongruent/L/I_Dist_300_LN_3_LD_6_RN_4_RD_20_0.png","img2/300/Incongruent/R/I_Dist_300_LN_4_LD_20_RN_2_RD_4_1.png","img2/300/Congruent/L/C_Dist_300_LN_20_LD_25_RN_13_RD_26_0.png","img2/300/Incongruent/L/I_Dist_300_LN_7_LD_10_RN_8_RD_20_0.png","img2/100/Congruent/L/C_Dist_100_LN_9_LD_15_RN_8_RD_16_0.png","img2/200/Incongruent/R/I_Dist_200_LN_9_LD_15_RN_8_RD_10_1.png","img2/200/Congruent/L/C_Dist_200_LN_21_LD_30_RN_2_RD_4_0.png","img2/100/Incongruent/L/I_Dist_100_LN_6_LD_10_RN_7_RD_14_0.png","img2/200/Incongruent/R/I_Dist_200_LN_14_LD_30_RN_6_RD_9_1.png","img2/100/Congruent/L/C_Dist_100_LN_15_LD_25_RN_13_RD_26_0.png","img2/300/Incongruent/R/I_Dist_300_LN_4_LD_20_RN_2_RD_4_1.png","img2/200/Incongruent/R/I_Dist_200_LN_6_LD_20_RN_3_RD_6_1.png","img2/200/Incongruent/L/I_Dist_200_LN_3_LD_4_RN_11_RD_20_0.png","img2/100/Congruent/L/C_Dist_100_LN_6_LD_20_RN_5_RD_25_0.png","img2/300/Incongruent/R/I_Dist_300_LN_13_LD_26_RN_12_RD_15_1.png","img2/300/Incongruent/L/I_Dist_300_LN_3_LD_6_RN_4_RD_20_0.png","img2/200/Incongruent/R/I_Dist_200_LN_3_LD_10_RN_1_RD_2_1.png","img2/100/Incongruent/L/I_Dist_100_LN_9_LD_10_RN_20_RD_25_0.png","img2/300/Congruent/R/C_Dist_300_LN_5_LD_25_RN_7_RD_14_1.png","img2/200/Incongruent/L/I_Dist_200_LN_4_LD_6_RN_14_RD_30_0.png"],"dist100_C":[["C_Dist_100_LN_10_LD_25_RN_3_RD_10_0.png","C_Dist_100_LN_11_LD_22_RN_4_RD_10_0.png","C_Dist_100_LN_11_LD_22_RN_6_RD_15_0.png","C_Dist_100_LN_15_LD_25_RN_13_RD_26_0.png","C_Dist_100_LN_3_LD_6_RN_2_RD_5_0.png","C_Dist_100_LN_6_LD_20_RN_5_RD_25_0.png","C_Dist_100_LN_8_LD_16_RN_2_RD_5_0.png","C_Dist_100_LN_9_LD_15_RN_8_RD_16_0.png"],["C_Dist_100_LN_1_LD_2_RN_18_RD_30_1.png","C_Dist_100_LN_1_LD_2_RN_3_RD_5_1.png","C_Dist_100_LN_12_LD_30_RN_13_RD_26_1.png","C_Dist_100_LN_2_LD_5_RN_11_RD_22_1.png","C_Dist_100_LN_2_LD_5_RN_6_RD_12_1.png","C_Dist_100_LN_3_LD_20_RN_4_RD_16_1.png","C_Dist_100_LN_4_LD_10_RN_15_RD_30_1.png","C_Dist_100_LN_4_LD_8_RN_6_RD_10_1.png","C_Dist_100_LN_6_LD_12_RN_15_RD_25_1.png","C_Dist_100_LN_7_LD_14_RN_15_RD_25_1.png","C_Dist_100_LN_7_LD_14_RN_9_RD_15_1.png"]],"dist100_I":[["I_Dist_100_LN_1_LD_2_RN_8_RD_20_0.png","I_Dist_100_LN_2_LD_4_RN_6_RD_15_0.png","I_Dist_100_LN_2_LD_4_RN_8_RD_20_0.png","I_Dist_100_LN_3_LD_5_RN_11_RD_22_0.png","I_Dist_100_LN_3_LD_5_RN_8_RD_16_0.png","I_Dist_100_LN_3_LD_6_RN_4_RD_10_0.png","I_Dist_100_LN_3_LD_9_RN_7_RD_30_0.png","I_Dist_100_LN_4_LD_8_RN_8_RD_20_0.png","I_Dist_100_LN_6_LD_10_RN_11_RD_22_0.png","I_Dist_100_LN_6_LD_10_RN_13_RD_26_0.png","I_Dist_100_LN_6_LD_10_RN_7_RD_14_0.png","I_Dist_100_LN_9_LD_10_RN_20_RD_25_0.png","I_Dist_100_LN_9_LD_15_RN_13_RD_26_0.png","I_Dist_100_LN_9_LD_15_RN_14_RD_28_0.png"],["I_Dist_100_LN_10_LD_25_RN_8_RD_16_1.png","I_Dist_100_LN_10_LD_25_RN_9_RD_18_1.png","I_Dist_100_LN_11_LD_22_RN_9_RD_15_1.png","I_Dist_100_LN_12_LD_24_RN_9_RD_15_1.png","I_Dist_100_LN_12_LD_30_RN_2_RD_4_1.png","I_Dist_100_LN_13_LD_26_RN_12_RD_20_1.png","I_Dist_100_LN_13_LD_26_RN_6_RD_10_1.png","I_Dist_100_LN_17_LD_30_RN_10_RD_15_1.png","I_Dist_100_LN_6_LD_12_RN_3_RD_5_1.png","I_Dist_100_LN_8_LD_16_RN_6_RD_10_1.png","I_Dist_100_LN_8_LD_20_RN_1_RD_2_1.png","I_Dist_100_LN_9_LD_18_RN_6_RD_10_1.png"]],"dist100_S":[["E_Dist_100_LN_2_LD_12_RN_2_RD_30_0.png","E_Dist_100_LN_6_LD_10_RN_6_RD_12_0.png"],["E_Dist_100_LN_6_LD_12_RN_6_RD_10_1.png"]],"dist200_C":[["C_Dist_200_LN_11_LD_22_RN_3_RD_10_0.png","C_Dist_200_LN_12_LD_15_RN_6_RD_10_0.png","C_Dist_200_LN_12_LD_20_RN_6_RD_15_0.png","C_Dist_200_LN_14_LD_28_RN_6_RD_20_0.png","C_Dist_200_LN_15_LD_25_RN_4_RD_10_0.png","C_Dist_200_LN_16_LD_20_RN_12_RD_20_0.png","C_Dist_200_LN_16_LD_30_RN_9_RD_27_0.png","C_Dist_200_LN_20_LD_25_RN_9_RD_15_0.png","C_Dist_200_LN_21_LD_30_RN_2_RD_4_0.png","C_Dist_200_LN_4_LD_10_RN_3_RD_15_0.png","C_Dist_200_LN_4_LD_8_RN_3_RD_10_0.png","C_Dist_200_LN_6_LD_15_RN_3_RD_15_0.png","C_Dist_200_LN_7_LD_21_RN_2_RD_15_0.png","C_Dist_200_LN_8_LD_15_RN_2_RD_6_0.png","C_Dist_200_LN_8_LD_15_RN_3_RD_9_0.png","C_Dist_200_LN_8_LD_15_RN_7_RD_21_0.png","C_Dist_200_LN_9_LD_20_RN_4_RD_16_0.png"],["C_Dist_200_LN_1_LD_2_RN_21_RD_30_1.png","C_Dist_200_LN_13_LD_26_RN_14_RD_20_1.png","C_Dist_200_LN_3_LD_10_RN_11_RD_22_1.png","C_Dist_200_LN_3_LD_10_RN_14_RD_28_1.png","C_Dist_200_LN_3_LD_10_RN_7_RD_14_1.png","C_Dist_200_LN_3_LD_12_RN_9_RD_20_1.png","C_Dist_200_LN_3_LD_6_RN_14_RD_20_1.png","C_Dist_200_LN_5_LD_10_RN_14_RD_20_1.png","C_Dist_200_LN_6_LD_12_RN_7_RD_10_1.png","C_Dist_200_LN_6_LD_20_RN_11_RD_22_1.png","C_Dist_200_LN_7_LD_15_RN_18_RD_27_1.png","C_Dist_200_LN_9_LD_30_RN_13_RD_26_1.png"]],"dist200_I":[["I_Dist_200_LN_1_LD_2_RN_3_RD_10_0.png","I_Dist_200_LN_1_LD_3_RN_2_RD_15_0.png","I_Dist_200_LN_3_LD_4_RN_11_RD_20_0.png","I_Dist_200_LN_4_LD_5_RN_6_RD_10_0.png","I_Dist_200_LN_4_LD_6_RN_14_RD_30_0.png","I_Dist_200_LN_7_LD_10_RN_12_RD_24_0.png","I_Dist_200_LN_7_LD_10_RN_14_RD_28_0.png","I_Dist_200_LN_7_LD_10_RN_8_RD_16_0.png"],["I_Dist_200_LN_11_LD_20_RN_3_RD_4_1.png","I_Dist_200_LN_14_LD_30_RN_12_RD_18_1.png","I_Dist_200_LN_14_LD_30_RN_6_RD_9_1.png","I_Dist_200_LN_3_LD_10_RN_1_RD_2_1.png","I_Dist_200_LN_4_LD_30_RN_1_RD_3_1.png","I_Dist_200_LN_6_LD_20_RN_3_RD_6_1.png","I_Dist_200_LN_7_LD_15_RN_4_RD_6_1.png","I_Dist_200_LN_7_LD_15_RN_6_RD_9_1.png","I_Dist_200_LN_9_LD_15_RN_8_RD_10_1.png"]],"dist200_S":[["E_Dist_200_LN_3_LD_6_RN_3_RD_10_0.png"],["E_Dist_200_LN_3_LD_10_RN_3_RD_6_1.png"]],"dist300_C":[["C_Dist_300_LN_11_LD_22_RN_1_RD_5_0.png","C_Dist_300_LN_11_LD_22_RN_2_RD_10_0.png","C_Dist_300_LN_11_LD_22_RN_4_RD_20_0.png","C_Dist_300_LN_12_LD_24_RN_2_RD_10_0.png","C_Dist_300_LN_18_LD_20_RN_9_RD_15_0.png","C_Dist_300_LN_20_LD_25_RN_13_RD_26_0.png","C_Dist_300_LN_20_LD_25_RN_14_RD_28_0.png","C_Dist_300_LN_20_LD_25_RN_5_RD_10_0.png","C_Dist_300_LN_20_LD_25_RN_8_RD_16_0.png","C_Dist_300_LN_20_LD_25_RN_9_RD_18_0.png","C_Dist_300_LN_24_LD_30_RN_2_RD_4_0.png","C_Dist_300_LN_24_LD_30_RN_8_RD_16_0.png","C_Dist_300_LN_3_LD_6_RN_2_RD_10_0.png","C_Dist_300_LN_4_LD_10_RN_1_RD_10_0.png","C_Dist_300_LN_4_LD_5_RN_2_RD_4_0.png","C_Dist_300_LN_8_LD_16_RN_1_RD_5_0.png","C_Dist_300_LN_9_LD_10_RN_3_RD_5_0.png"],["C_Dist_300_LN_1_LD_20_RN_7_RD_20_1.png","C_Dist_300_LN_1_LD_3_RN_19_RD_30_1.png","C_Dist_300_LN_1_LD_30_RN_8_RD_24_1.png","C_Dist_300_LN_1_LD_5_RN_11_RD_22_1.png","C_Dist_300_LN_1_LD_5_RN_3_RD_6_1.png","C_Dist_300_LN_1_LD_5_RN_6_RD_12_1.png","C_Dist_300_LN_2_LD_10_RN_12_RD_24_1.png","C_Dist_300_LN_2_LD_20_RN_10_RD_25_1.png","C_Dist_300_LN_3_LD_12_RN_11_RD_20_1.png","C_Dist_300_LN_3_LD_6_RN_4_RD_5_1.png","C_Dist_300_LN_4_LD_20_RN_13_RD_26_1.png","C_Dist_300_LN_5_LD_25_RN_6_RD_12_1.png","C_Dist_300_LN_5_LD_25_RN_7_RD_14_1.png","C_Dist_300_LN_7_LD_14_RN_20_RD_25_1.png","C_Dist_300_LN_8_LD_15_RN_10_RD_12_1.png"]],"dist300_I":[["I_Dist_300_LN_1_LD_2_RN_2_RD_10_0.png","I_Dist_300_LN_1_LD_2_RN_3_RD_15_0.png","I_Dist_300_LN_2_LD_4_RN_6_RD_30_0.png","I_Dist_300_LN_3_LD_6_RN_4_RD_20_0.png","I_Dist_300_LN_4_LD_5_RN_6_RD_12_0.png","I_Dist_300_LN_4_LD_5_RN_8_RD_16_0.png","I_Dist_300_LN_7_LD_10_RN_8_RD_20_0.png","I_Dist_300_LN_8_LD_10_RN_14_RD_28_0.png","I_Dist_300_LN_8_LD_10_RN_9_RD_18_0.png"],["I_Dist_300_LN_13_LD_26_RN_12_RD_15_1.png","I_Dist_300_LN_4_LD_20_RN_2_RD_4_1.png"]],"dist300_S":[["E_Dist_300_LN_9_LD_12_RN_9_RD_20_0.png"],["E_Dist_300_LN_18_LD_30_RN_18_RD_20_1.png","E_Dist_300_LN_3_LD_10_RN_3_RD_5_1.png","E_Dist_300_LN_9_LD_20_RN_9_RD_12_1.png"]],"dist500_C":[["C_Dist_500_LN_10_LD_13_RN_7_RD_26_0.png","C_Dist_500_LN_10_LD_15_RN_4_RD_24_0.png","C_Dist_500_LN_12_LD_16_RN_3_RD_12_0.png","C_Dist_500_LN_12_LD_18_RN_4_RD_24_0.png","C_Dist_500_LN_15_LD_18_RN_5_RD_15_0.png","C_Dist_500_LN_15_LD_20_RN_1_RD_4_0.png","C_Dist_500_LN_18_LD_27_RN_1_RD_6_0.png","C_Dist_500_LN_20_LD_24_RN_1_RD_3_0.png","C_Dist_500_LN_20_LD_24_RN_3_RD_9_0.png","C_Dist_500_LN_20_LD_24_RN_7_RD_21_0.png","C_Dist_500_LN_20_LD_28_RN_3_RD_14_0.png","C_Dist_500_LN_21_LD_28_RN_6_RD_24_0.png","C_Dist_500_LN_22_LD_28_RN_2_RD_7_0.png","C_Dist_500_LN_25_LD_30_RN_9_RD_27_0.png","C_Dist_500_LN_4_LD_6_RN_1_RD_6_0.png","C_Dist_500_LN_5_LD_6_RN_2_RD_6_0.png","C_Dist_500_LN_6_LD_9_RN_1_RD_6_0.png","C_Dist_500_LN_7_LD_10_RN_1_RD_5_0.png","C_Dist_500_LN_8_LD_12_RN_1_RD_6_0.png","C_Dist_500_LN_8_LD_12_RN_4_RD_24_0.png"],["C_Dist_500_LN_1_LD_4_RN_12_RD_16_1.png","C_Dist_500_LN_1_LD_4_RN_9_RD_12_1.png","C_Dist_500_LN_1_LD_9_RN_11_RD_18_1.png","C_Dist_500_LN_10_LD_24_RN_22_RD_24_1.png","C_Dist_500_LN_2_LD_12_RN_10_RD_15_1.png","C_Dist_500_LN_2_LD_12_RN_12_RD_18_1.png","C_Dist_500_LN_2_LD_12_RN_4_RD_6_1.png","C_Dist_500_LN_2_LD_24_RN_7_RD_12_1.png","C_Dist_500_LN_2_LD_5_RN_18_RD_20_1.png","C_Dist_500_LN_2_LD_5_RN_9_RD_10_1.png","C_Dist_500_LN_2_LD_8_RN_12_RD_16_1.png","C_Dist_500_LN_2_LD_8_RN_21_RD_28_1.png","C_Dist_500_LN_3_LD_10_RN_4_RD_5_1.png","C_Dist_500_LN_3_LD_12_RN_15_RD_20_1.png","C_Dist_500_LN_3_LD_30_RN_6_RD_10_1.png","C_Dist_500_LN_3_LD_8_RN_14_RD_16_1.png","C_Dist_500_LN_4_LD_16_RN_15_RD_20_1.png","C_Dist_500_LN_4_LD_24_RN_12_RD_18_1.png","C_Dist_500_LN_5_LD_14_RN_6_RD_7_1.png","C_Dist_500_LN_7_LD_21_RN_20_RD_24_1.png","C_Dist_500_LN_7_LD_28_RN_12_RD_16_1.png","C_Dist_500_LN_7_LD_28_RN_9_RD_12_1.png","C_Dist_500_LN_9_LD_27_RN_20_RD_24_1.png"]],"dist500_I":[["I_Dist_500_LN_2_LD_3_RN_4_RD_24_0.png","I_Dist_500_LN_5_LD_6_RN_6_RD_18_0.png","I_Dist_500_LN_7_LD_8_RN_9_RD_24_0.png"],["I_Dist_500_LN_7_LD_21_RN_5_RD_6_1.png"]],"dist500_S":[["E_Dist_500_LN_6_LD_8_RN_6_RD_24_0.png"],["E_Dist_500_LN_2_LD_12_RN_2_RD_3_1.png","E_Dist_500_LN_6_LD_24_RN_6_RD_8_1.png"]]}},{"start_time":1552308704381,"click_time":1552308706004,"finger_time":1552308705485,"fix_duration":853.6911094247665,"trial":1,"RT":1104,"MT":519,"sideResp":2,"stimulus":[],"xmouse":[794,794,794,794,794,794,794,794,794,794,794,794,794,794,794,794,794,794,794,794,794,794,794,794,794,794,794,794,794,794,794,794,794,794,794,794,794,794,794,794,794,794,794,794,794,794,794,794,794,794,794,794,794,795,798,813,816,818,818,817,817,838,854,867,876,885,892,900,914,926,937,959,968,978,998,1013,1025,1028,1028,1036,1052,1078],"ymouse":[489,489,489,489,489,489,489,489,489,489,489,489,489,489,489,489,489,489,489,489,489,489,489,489,489,489,489,489,489,489,489,489,489,489,489,489,489,489,489,489,489,489,489,489,489,489,489,489,489,489,489,489,489,485,477,441,422,404,392,376,363,333,317,304,294,277,264,250,229,212,194,169,156,142,119,104,88,85,85,85,83,73],"timestamp_mouse":[10,23,42,64,84,103,124,143,163,182,204,223,243,263,283,303,323,342,362,384,403,424,443,463,483,503,522,543,563,582,604,623,644,663,683,704,723,743,762,782,802,822,842,863,883,902,924,944,964,982,1003,1022,1043,1064,1083,1104,1123,1143,1163,1182,1202,1222,1242,1263,1282,1304,1323,1344,1362,1383,1402,1422,1443,1463,1483,1503,1523,1543,1563,1584,1602,1622],"xSR":741.5,"ySR":469.95,"xT1":424.9,"yT1":0,"xT2":1058.1,"yT2":0,"toosoon":0,"cond_shown":"Incongruent","ratio_trial":300,"L_num":13,"L_den":26,"R_num":12,"R_den":15,"correct_side":2,"subjID":"juanjosesanchezorozco8","gender":"0","school":"4","age":"9"},{"start_time":1552308708905,"click_time":1552308710525,"finger_time":1552308709964,"fix_duration":1259.9596108949106,"trial":2,"RT":1059,"MT":561,"sideResp":2,"stimulus":[],"xmouse":[802,802,802,802,802,802,802,802,800,797,786,784,784,784,784,784,784,784,784,784,784,784,784,784,784,784,784,784,784,784,784,784,784,784,784,784,784,783,783,783,785,785,788,789,791,793,796,796,796,796,796,801,808,817,824,842,847,850,855,863,883,889,892,898,906,921,928,934,939,942,949,954,966,982,993,1017,1031,1041,1046,1048,1051,1081],"ymouse":[500,500,500,500,500,500,500,500,499,499,499,499,499,499,499,499,499,499,499,499,499,499,499,499,499,499,499,499,499,499,499,499,499,499,499,499,499,497,495,493,491,491,491,491,491,492,492,493,493,493,493,483,470,454,436,396,381,369,356,341,317,309,300,289,274,239,223,210,201,196,187,180,164,145,127,89,73,65,63,61,61,52],"timestamp_mouse":[1,24,39,59,78,99,118,138,159,179,199,218,238,260,280,298,319,338,359,380,398,419,440,459,478,498,520,540,559,579,598,620,640,660,679,699,719,740,759,779,799,818,840,860,879,899,918,938,958,980,998,1019,1038,1059,1079,1099,1118,1139,1159,1179,1199,1218,1238,1258,1278,1299,1318,1338,1358,1379,1399,1419,1439,1460,1479,1499,1519,1539,1558,1579,1599,1620],"xSR":741.5,"ySR":469.95,"xT1":424.9,"yT1":0,"xT2":1058.1,"yT2":0,"toosoon":0,"cond_shown":"Incongruent","ratio_trial":300,"L_num":13,"L_den":26,"R_num":12,"R_den":15,"correct_side":2,"subjID":"juanjosesanchezorozco8","gender":"0","school":"4","age":"9"},{"start_time":1552308712689,"click_time":1552308715084,"finger_time":1552308714205,"fix_duration":863.2076088617505,"trial":3,"RT":1516,"MT":879,"sideResp":2,"stimulus":[],"xmouse":[806,806,806,806,806,806,806,806,806,806,806,806,806,806,806,806,806,806,806,806,806,806,806,806,806,806,806,806,806,806,806,806,806,806,806,806,806,806,806,806,806,806,806,806,806,806,806,806,806,806,806,806,806,806,806,806,806,806,806,806,806,806,806,806,806,806,806,806,806,806,806,806,808,812,822,863,884,888,887,886,886,891,896,903,908,917,921,924,926,928,929,929,931,934,941,955,955,955,955,955,955,955,955,955,955,955,955,955,955,955,955,955,955,955,955,955,955,955,955,1136],"ymouse":[512,512,512,512,512,512,512,512,512,512,512,512,512,512,512,512,512,512,512,512,512,512,512,512,512,512,512,512,512,512,512,512,512,512,512,512,512,512,512,512,512,512,512,512,512,512,512,512,512,512,512,512,512,512,512,512,512,512,512,512,512,512,512,512,512,512,512,512,512,512,512,512,507,498,474,360,259,150,94,79,76,67,59,50,42,27,19,13,10,6,6,6,5,4,3,0,0,0,0,0,0,0,0,0,0,0,0,0,0,0,0,0,0,0,0,0,0,0,0,2],"timestamp_mouse":[16,54,54,76,96,115,135,156,175,194,215,235,254,276,294,314,336,356,374,395,414,434,455,476,495,515,534,555,576,595,615,634,656,676,696,714,734,755,776,795,815,835,855,875,894,916,936,955,976,996,1016,1034,1055,1076,1094,1116,1136,1156,1175,1194,1215,1236,1255,1275,1294,1315,1336,1356,1375,1394,1414,1434,1454,1475,1494,1516,1535,1555,1575,1595,1614,1634,1654,1675,1694,1716,1735,1756,1775,1796,1815,1834,1854,1875,1894,1916,1936,1956,1975,1994,2014,2035,2054,2075,2095,2116,2135,2156,2176,2196,2214,2235,2255,2274,2294,2316,2334,2355,2375,2395],"xSR":741.5,"ySR":469.95,"xT1":424.9,"yT1":0,"xT2":1058.1,"yT2":0,"toosoon":0,"cond_shown":"Congruent","ratio_trial":300,"L_num":2,"L_den":20,"R_num":10,"R_den":25,"correct_side":2,"subjID":"juanjosesanchezorozco8","gender":"0","school":"4","age":"9"},{"start_time":1552308717326,"click_time":1552308718863,"finger_time":1552308718424,"fix_duration":880.4583228890019,"trial":4,"RT":1098,"MT":439,"sideResp":1,"stimulus":[],"xmouse":[806,806,806,806,806,806,806,806,806,806,806,806,806,806,806,806,806,806,806,806,806,806,806,806,806,806,806,806,806,806,806,806,806,806,806,806,806,806,806,806,806,806,806,806,806,805,802,801,798,795,794,789,785,782,775,769,764,756,745,713,693,680,668,657,642,637,633,629,624,617,611,605,597,588,553,535,518],"ymouse":[525,525,525,525,525,525,525,525,525,525,525,525,525,525,525,525,525,525,525,525,525,525,525,525,525,525,525,525,525,525,525,525,525,525,525,525,525,525,525,525,525,525,525,525,525,525,525,524,520,512,506,493,481,470,443,424,404,385,365,318,291,269,247,218,185,172,165,158,151,139,131,124,115,105,65,50,34],"timestamp_mouse":[18,37,68,78,97,118,139,158,177,198,219,237,257,278,298,318,338,359,377,398,419,438,459,479,498,517,539,559,578,598,617,639,659,678,699,717,739,758,778,798,818,837,858,878,898,918,937,958,978,998,1017,1038,1059,1079,1098,1117,1137,1158,1177,1198,1219,1238,1258,1277,1298,1317,1337,1357,1377,1398,1419,1438,1458,1478,1498,1517,1537],"xSR":741.5,"ySR":469.95,"xT1":424.9,"yT1":0,"xT2":1058.1,"yT2":0,"toosoon":0,"cond_shown":"Congruent","ratio_trial":300,"L_num":24,"L_den":30,"R_num":8,"R_den":16,"correct_side":1,"subjID":"juanjosesanchezorozco8","gender":"0","school":"4","age":"9"},{"start_time":1552308722123,"click_time":1552308723804,"finger_time":1552308723424,"fix_duration":416.37199575263674,"trial":5,"RT":1301,"MT":380,"sideResp":1,"stimulus":[],"xmouse":[742,742,742,744,748,758,777,780,781,781,781,781,781,781,781,781,781,781,781,781,781,781,781,781,781,781,781,781,781,781,781,781,781,781,781,781,781,781,781,781,781,781,781,781,781,781,781,781,781,781,781,781,777,777,777,764,763,763,763,763,763,763,763,761,756,727,630,582,557,539,539,539,539,539,539,539,539,539,539,539,539,539,539,479,479],"ymouse":[507,507,507,508,510,515,522,523,523,523,523,523,523,523,523,523,523,523,523,523,523,523,523,523,523,523,523,523,523,523,523,523,523,523,523,523,523,523,523,523,523,523,523,523,523,523,523,523,523,523,523,523,521,521,521,520,520,520,520,520,520,520,520,513,501,395,172,89,46,2,2,2,2,2,2,2,2,2,2,2,2,2,2,0,23],"timestamp_mouse":[10,21,44,60,81,101,121,141,160,181,202,222,241,262,281,300,322,341,362,381,400,420,441,461,480,500,520,541,560,581,602,622,640,662,681,702,720,741,760,780,801,821,840,860,881,900,920,941,961,982,1000,1020,1042,1061,1080,1102,1121,1141,1161,1182,1202,1222,1240,1260,1281,1301,1321,1340,1361,1381,1400,1421,1440,1460,1480,1500,1520,1540,1561,1582,1601,1622,1641,1661,1681],"xSR":741.5,"ySR":469.95,"xT1":424.9,"yT1":0,"xT2":1058.1,"yT2":0,"toosoon":0,"cond_shown":"Congruent","ratio_trial":200,"L_num":9,"L_den":20,"R_num":4,"R_den":16,"correct_side":1,"subjID":"juanjosesanchezorozco8","gender":"0","school":"4","age":"9"},{"start_time":1552308725726,"click_time":1552308727144,"finger_time":1552308726303,"fix_duration":681.5069500810582,"trial":6,"RT":577,"MT":841,"sideResp":2,"stimulus":[],"xmouse":[793,793,793,793,792,792,792,792,792,792,792,792,792,792,792,792,792,792,792,792,792,792,794,797,801,806,807,808,808,808,808,808,808,808,808,808,808,808,803,799,791,788,785,782,778,767,758,748,733,718,694,693,695,699,709,747,777,822,869,913,963,969,969,969,969,969,969,969,969,1054,1107],"ymouse":[533,533,533,533,528,525,524,524,524,524,524,524,524,524,524,524,523,521,516,514,512,512,508,503,499,489,483,472,460,449,433,427,425,424,421,419,417,415,413,410,404,402,397,391,386,361,342,316,281,246,187,178,173,168,162,146,132,109,75,44,5,1,1,1,1,1,1,1,1,2,15],"timestamp_mouse":[20,38,59,77,98,118,138,159,178,198,218,237,258,279,297,318,338,358,378,398,417,438,458,477,498,518,537,559,577,597,617,639,658,678,698,717,737,759,778,798,818,838,858,879,899,918,939,959,979,998,1019,1037,1057,1078,1099,1118,1137,1158,1179,1199,1218,1238,1258,1279,1298,1319,1337,1357,1378,1398,1417],"xSR":741.5,"ySR":469.95,"xT1":424.9,"yT1":0,"xT2":1058.1,"yT2":0,"toosoon":0,"cond_shown":"Congruent","ratio_trial":100,"L_num":6,"L_den":20,"R_num":5,"R_den":25,"correct_side":1,"subjID":"juanjosesanchezorozco8","gender":"0","school":"4","age":"9"},{"start_time":1552308731102,"click_time":1552308732524,"finger_time":1552308731925,"fix_duration":694.394291395117,"trial":7,"RT":823,"MT":599,"sideResp":1,"stimulus":[],"xmouse":[799,799,799,799,799,799,799,799,799,799,799,799,799,799,799,799,799,799,799,799,799,799,799,799,799,799,799,799,799,799,799,799,799,799,799,799,799,799,799,799,799,799,799,785,778,775,774,774,772,772,771,768,766,759,753,747,741,725,707,696,677,643,605,586,563,554,554,554,554,554,554,499],"ymouse":[493,493,493,493,493,493,493,493,493,493,493,493,493,493,493,493,493,493,493,493,493,493,493,493,493,493,493,493,493,493,493,493,493,493,493,493,493,493,493,493,484,465,445,407,391,382,379,377,371,369,365,356,350,327,309,291,269,224,180,161,127,76,36,22,7,2,2,2,2,2,2,8],"timestamp_mouse":[9,22,44,62,83,102,122,141,162,182,202,222,242,262,283,302,321,341,362,383,402,421,443,463,483,501,522,542,563,583,601,623,642,663,682,702,723,742,761,781,802,823,841,863,882,902,923,943,962,982,1002,1023,1042,1062,1082,1102,1122,1143,1161,1182,1202,1223,1244,1261,1283,1303,1323,1344,1363,1382,1402,1422],"xSR":741.5,"ySR":469.95,"xT1":424.9,"yT1":0,"xT2":1058.1,"yT2":0,"toosoon":0,"cond_shown":"Congruent","ratio_trial":300,"L_num":20,"L_den":25,"R_num":5,"R_den":10,"correct_side":1,"subjID":"juanjosesanchezorozco8","gender":"0","school":"4","age":"9"},{"start_time":1552308734481,"click_time":1552308736384,"finger_time":1552308735805,"fix_duration":315.588550040557,"trial":8,"RT":1324,"MT":579,"sideResp":1,"stimulus":[],"xmouse":[817,817,817,817,817,817,817,817,817,817,817,817,817,817,817,817,815,814,811,809,809,809,809,809,809,809,809,809,809,809,809,809,809,809,809,809,809,809,809,809,809,809,809,809,809,809,809,809,809,809,809,809,809,809,809,809,809,809,809,809,809,809,809,809,808,804,800,796,793,792,792,792,790,788,781,777,770,764,756,738,734,730,723,715,701,695,690,685,679,651,635,614,591,566,543,519],"ymouse":[497,497,497,497,497,497,497,497,497,497,497,497,497,497,497,497,496,495,494,493,493,493,493,493,493,493,493,493,493,493,493,493,493,493,493,493,493,493,493,493,493,493,493,493,493,493,493,493,493,493,493,493,493,493,493,493,493,493,493,493,493,493,493,493,486,471,456,443,430,416,405,397,390,383,365,348,330,312,290,250,234,220,204,191,177,174,172,170,169,165,160,152,137,119,104,88],"timestamp_mouse":[11,24,43,63,84,104,122,143,163,184,203,224,244,264,283,303,323,343,363,382,404,424,444,464,484,504,523,543,562,583,604,623,643,663,683,704,723,743,763,784,804,822,844,864,883,904,923,942,963,983,1003,1023,1044,1063,1083,1103,1123,1143,1164,1182,1202,1223,1242,1264,1284,1303,1324,1343,1364,1383,1404,1422,1443,1463,1483,1502,1523,1543,1563,1583,1603,1622,1643,1663,1683,1703,1723,1742,1763,1783,1803,1822,1844,1863,1883,1903],"xSR":741.5,"ySR":469.95,"xT1":424.9,"yT1":0,"xT2":1058.1,"yT2":0,"toosoon":0,"cond_shown":"Congruent","ratio_trial":200,"L_num":7,"L_den":21,"R_num":2,"R_den":15,"correct_side":1,"subjID":"juanjosesanchezorozco8","gender":"0","school":"4","age":"9"},{"start_time":1552308737585,"click_time":1552308738884,"finger_time":1552308738344,"fix_duration":278.43071673003516,"trial":9,"RT":759,"MT":540,"sideResp":2,"stimulus":[],"xmouse":[827,827,827,827,827,827,827,827,827,827,827,827,827,827,827,827,827,827,827,827,827,827,827,827,827,827,827,827,827,827,827,827,827,827,827,827,829,833,847,872,879,883,885,887,890,903,909,916,924,943,949,956,959,961,972,979,988,997,1004,1010,1019,1022,1027,1035,1054,1060],"ymouse":[513,513,513,513,513,513,513,513,513,513,513,513,513,513,513,513,513,513,513,513,513,513,513,513,513,513,513,513,513,513,513,513,513,513,513,513,509,498,473,418,392,373,361,348,333,296,282,268,254,228,217,210,207,205,196,190,182,173,162,153,142,138,130,118,87,78],"timestamp_mouse":[1,20,39,60,78,100,120,140,159,179,200,218,240,260,279,299,319,340,359,379,400,420,439,460,479,499,520,540,558,579,600,619,639,659,679,700,718,739,759,780,798,819,838,859,879,899,918,939,959,980,999,1020,1039,1059,1079,1099,1119,1139,1159,1178,1198,1219,1239,1259,1280,1299],"xSR":741.5,"ySR":469.95,"xT1":424.9,"yT1":0,"xT2":1058.1,"yT2":0,"toosoon":0,"cond_shown":"Incongruent","ratio_trial":200,"L_num":4,"L_den":6,"R_num":14,"R_den":30,"correct_side":1,"subjID":"juanjosesanchezorozco8","gender":"0","school":"4","age":"9"},{"start_time":1552308741771,"click_time":1552308743325,"finger_time":1552308742464,"fix_duration":1124.9609554547242,"trial":10,"RT":693,"MT":861,"sideResp":2,"stimulus":[],"xmouse":[795,795,795,795,795,795,795,795,795,795,795,795,795,795,795,795,795,795,795,795,795,795,795,795,795,795,795,795,795,795,795,795,795,795,798,808,810,812,813,814,815,815,816,818,820,832,844,860,874,889,917,928,942,947,952,954,954,954,954,954,957,964,970,977,989,1014,1022,1026,1027,1027,1027,1027,1027,1028,1029,1034,1046,1065],"ymouse":[497,497,497,497,497,497,497,497,497,497,497,497,497,497,497,497,497,497,497,497,497,497,497,497,497,497,497,497,497,497,497,497,494,484,458,415,397,386,377,372,366,365,362,356,347,312,282,242,207,178,133,115,96,87,80,76,76,76,76,76,75,75,75,75,73,67,66,66,66,66,66,66,66,66,66,67,74,81],"timestamp_mouse":[19,44,53,73,93,114,133,153,173,193,213,234,253,274,293,314,333,353,373,394,414,433,454,474,494,514,533,553,573,594,614,632,653,673,693,713,734,753,774,792,813,833,853,873,893,913,933,952,973,993,1014,1033,1053,1073,1093,1112,1133,1153,1173,1194,1213,1234,1254,1273,1293,1312,1332,1354,1373,1393,1414,1432,1453,1473,1493,1513,1533,1553],"xSR":741.5,"ySR":469.95,"xT1":424.9,"yT1":0,"xT2":1058.1,"yT2":0,"toosoon":0,"cond_shown":"Incongruent","ratio_trial":300,"L_num":13,"L_den":26,"R_num":12,"R_den":15,"correct_side":2,"subjID":"juanjosesanchezorozco8","gender":"0","school":"4","age":"9"},{"start_time":1552308746366,"click_time":1552308748245,"finger_time":1552308747744,"fix_duration":520.9368080179721,"trial":11,"RT":1378,"MT":501,"sideResp":2,"stimulus":[],"xmouse":[787,787,787,787,787,787,787,787,787,787,787,787,787,787,787,787,787,787,787,787,787,787,787,787,787,787,787,787,787,787,787,787,787,787,787,787,787,787,787,787,787,787,787,787,787,787,787,787,787,787,787,787,787,787,787,787,787,787,787,787,787,787,787,787,789,795,806,817,831,837,870,881,893,918,947,992,1010,1023,1035,1038,1049,1054,1059,1067,1074,1077,1080,1080,1080,1081,1092,1101,1112,1116],"ymouse":[538,538,538,538,538,538,538,538,538,538,538,538,538,538,538,538,538,538,538,538,538,538,538,538,538,538,538,538,538,538,538,538,538,538,538,538,538,538,538,538,538,538,538,538,538,538,538,538,538,538,538,538,538,538,538,538,538,538,538,538,538,538,538,538,537,526,509,488,452,440,366,345,324,292,255,216,203,193,183,180,167,163,159,151,145,142,139,139,139,137,123,112,100,94],"timestamp_mouse":[18,38,69,78,99,118,139,159,179,198,218,238,258,278,298,319,337,359,379,399,419,438,459,479,499,519,539,558,579,598,617,638,659,679,698,719,739,757,777,799,818,839,858,878,897,918,939,959,979,999,1019,1038,1059,1079,1099,1118,1139,1159,1177,1198,1219,1238,1257,1279,1298,1318,1338,1359,1378,1398,1419,1438,1458,1478,1498,1518,1538,1558,1578,1598,1619,1637,1659,1678,1698,1718,1739,1759,1778,1799,1819,1838,1858,1878],"xSR":741.5,"ySR":469.95,"xT1":424.9,"yT1":0,"xT2":1058.1,"yT2":0,"toosoon":0,"cond_shown":"Incongruent","ratio_trial":100,"L_num":13,"L_den":26,"R_num":12,"R_den":20,"correct_side":2,"subjID":"juanjosesanchezorozco8","gender":"0","school":"4","age":"9"},{"start_time":1552308751207,"click_time":1552308752744,"finger_time":1552308752284,"fix_duration":1221.574583621793,"trial":12,"RT":1077,"MT":460,"sideResp":1,"stimulus":[],"xmouse":[784,784,784,784,784,784,784,784,784,784,784,784,784,784,784,784,784,784,784,784,784,784,784,784,784,784,784,784,784,784,784,784,784,784,784,784,784,784,784,784,784,784,784,784,784,784,783,783,783,785,787,788,788,788,776,762,752,741,733,715,710,704,699,695,686,683,676,670,663,641,629,616,605,591,549,532,515],"ymouse":[507,507,507,507,507,507,507,507,507,507,507,507,507,507,507,507,507,507,507,507,507,507,507,507,507,507,507,507,507,507,507,507,507,507,507,507,507,507,507,507,507,507,507,507,507,507,505,503,500,494,489,483,471,453,410,377,357,339,323,297,288,277,267,257,238,232,220,210,198,170,158,148,139,130,102,91,85],"timestamp_mouse":[17,38,58,77,98,117,136,158,178,198,217,238,256,278,298,317,338,357,376,398,418,437,458,478,497,517,538,558,577,598,618,637,657,678,698,716,738,758,777,798,817,838,858,876,897,917,937,958,978,997,1017,1037,1057,1077,1097,1117,1137,1157,1177,1196,1217,1237,1257,1278,1297,1318,1337,1356,1377,1397,1418,1437,1457,1477,1497,1517,1536],"xSR":741.5,"ySR":469.95,"xT1":424.9,"yT1":0,"xT2":1058.1,"yT2":0,"toosoon":0,"cond_shown":"Incongruent","ratio_trial":100,"L_num":6,"L_den":10,"R_num":11,"R_den":22,"correct_side":1,"subjID":"juanjosesanchezorozco8","gender":"0","school":"4","age":"9"},{"start_time":1552308754297,"click_time":1552308755685,"finger_time":1552308755104,"fix_duration":250,"trial":13,"RT":807,"MT":581,"sideResp":2,"stimulus":[],"xmouse":[825,823,821,821,820,818,817,816,815,815,815,815,815,815,815,815,815,815,815,815,815,815,815,815,815,815,815,815,815,815,815,815,815,815,815,814,813,813,813,813,819,828,839,851,866,891,901,909,913,917,930,939,943,949,957,971,978,984,990,994,1001,1003,1005,1010,1013,1024,1031,1039,1050,1061],"ymouse":[493,494,495,495,496,497,499,499,500,500,500,500,500,500,500,500,500,500,500,500,500,500,500,500,500,500,500,500,500,500,500,500,500,500,500,500,496,494,490,483,454,434,413,388,365,340,331,320,314,306,286,273,264,251,238,212,197,182,169,160,145,140,137,129,123,103,91,78,63,49],"timestamp_mouse":[15,29,51,66,87,107,127,147,167,188,207,228,247,267,287,307,327,348,367,388,407,427,448,467,487,508,527,548,568,588,607,628,647,667,687,707,728,748,767,788,806,827,847,867,887,908,927,946,967,987,1009,1026,1047,1067,1087,1108,1126,1147,1166,1187,1208,1228,1246,1268,1287,1308,1326,1347,1368,1388],"xSR":741.5,"ySR":469.95,"xT1":424.9,"yT1":0,"xT2":1058.1,"yT2":0,"toosoon":0,"cond_shown":"Incongruent","ratio_trial":100,"L_num":12,"L_den":24,"R_num":9,"R_den":15,"correct_side":2,"subjID":"juanjosesanchezorozco8","gender":"0","school":"4","age":"9"},{"start_time":1552308758176,"click_time":1552308759845,"finger_time":1552308759524,"fix_duration":1048.039107333991,"trial":14,"RT":1348,"MT":321,"sideResp":2,"stimulus":[],"xmouse":[804,804,804,804,804,804,804,804,804,804,804,804,804,804,804,804,804,804,804,804,804,804,804,804,804,804,804,804,804,804,804,804,804,804,804,804,804,804,804,804,804,804,804,804,804,804,804,804,804,804,804,804,804,804,804,804,804,804,804,804,804,804,804,804,804,804,804,807,813,816,821,825,832,837,842,857,895,978,1012,1036,1051,1063,1078,1083],"ymouse":[485,485,485,485,485,485,485,485,485,485,485,485,485,485,485,485,485,485,485,485,485,485,485,485,485,485,485,485,485,485,485,485,485,485,485,485,485,485,485,485,485,485,485,485,485,485,485,485,485,485,485,485,485,485,485,485,485,485,485,485,485,485,485,485,485,485,476,455,431,405,386,370,354,345,337,315,268,198,175,161,148,133,103,85],"timestamp_mouse":[13,28,48,69,89,107,128,148,167,189,208,227,248,267,289,308,328,349,368,389,407,428,449,468,487,508,528,548,567,588,608,629,649,669,689,708,727,748,768,788,809,827,849,868,889,909,947,948,968,989,1009,1029,1048,1069,1089,1108,1129,1149,1168,1189,1209,1228,1247,1269,1289,1308,1328,1348,1369,1388,1407,1429,1448,1468,1488,1508,1527,1549,1567,1588,1608,1628,1648,1668],"xSR":741.5,"ySR":469.95,"xT1":424.9,"yT1":0,"xT2":1058.1,"yT2":0,"toosoon":0,"cond_shown":"Incongruent","ratio_trial":200,"L_num":3,"L_den":10,"R_num":1,"R_den":2,"correct_side":2,"subjID":"juanjosesanchezorozco8","gender":"0","school":"4","age":"9"},{"start_time":1552308766988,"click_time":1552308768344,"finger_time":1552308767784,"fix_duration":602.8395626292921,"trial":15,"RT":796,"MT":560,"sideResp":2,"stimulus":[],"xmouse":[769,769,769,769,769,769,769,769,769,769,769,769,769,769,769,769,769,769,769,769,769,769,769,769,769,769,769,769,769,769,769,772,776,780,784,788,804,829,840,861,867,877,901,905,908,911,914,930,944,958,973,985,991,993,996,997,1001,1003,1006,1007,1008,1008,1008,1010,1020,1035,1054,1080],"ymouse":[530,530,530,530,530,530,530,530,530,530,530,530,530,530,530,530,530,530,530,530,530,530,530,530,530,530,530,530,530,530,530,530,529,525,522,517,502,490,485,471,465,447,388,366,348,329,316,273,248,220,187,155,142,133,125,120,109,104,99,97,95,95,95,93,89,87,85,82],"timestamp_mouse":[17,36,64,76,97,117,137,157,176,197,216,236,257,275,297,316,337,356,377,396,417,435,457,476,496,517,536,555,576,597,616,637,656,676,696,716,737,756,776,796,817,836,855,875,895,915,936,955,977,996,1016,1038,1056,1076,1097,1117,1139,1156,1175,1195,1217,1237,1257,1277,1296,1317,1335,1355],"xSR":741.5,"ySR":469.95,"xT1":424.9,"yT1":0,"xT2":1058.1,"yT2":0,"toosoon":0,"cond_shown":"Congruent","ratio_trial":200,"L_num":13,"L_den":26,"R_num":14,"R_den":20,"correct_side":2,"subjID":"juanjosesanchezorozco8","gender":"0","school":"4","age":"9"},{"start_time":1552308770448,"click_time":1552308773264,"finger_time":1552308770944,"fix_duration":842.7752647868667,"trial":16,"RT":496,"MT":2320,"sideResp":1,"stimulus":[],"xmouse":[791,791,791,791,791,791,791,791,791,791,791,791,791,791,791,791,791,791,791,791,791,791,791,791,793,796,798,803,807,833,861,881,901,918,933,941,944,950,958,959,959,959,959,959,959,959,959,959,959,956,948,942,941,941,941,940,925,897,856,769,734,716,706,697,682,673,670,667,667,667,667,667,667,667,676,701,730,769,804,832,837,839,843,846,852,853,854,854,854,854,853,852,851,849,847,846,845,845,845,844,844,844,844,843,842,842,842,841,841,841,835,833,826,817,807,806,806,806,806,806,806,806,806,806,806,806,806,801,796,780,720,684,644,613,591,563,551,533,519,509,500],"ymouse":[480,480,480,480,480,480,480,480,480,480,480,480,480,480,480,480,480,480,480,480,480,480,480,479,467,461,453,446,438,394,355,325,297,277,256,246,241,237,233,232,232,232,232,232,232,232,232,232,232,235,239,242,242,242,242,244,253,273,311,422,476,510,533,553,595,603,606,606,606,606,606,606,606,606,603,594,583,569,552,537,532,529,524,519,507,503,502,500,499,497,496,496,496,496,496,496,496,496,496,496,496,496,496,496,496,496,495,495,495,495,492,490,486,481,475,474,474,474,474,474,474,474,474,474,474,474,474,463,449,405,289,246,214,193,179,147,132,118,110,104,98],"timestamp_mouse":[16,43,56,77,97,117,136,157,177,197,217,236,256,276,297,317,336,357,376,396,415,437,456,476,496,516,535,556,576,596,616,636,655,676,696,715,736,756,777,797,817,837,856,876,896,917,937,956,976,996,1017,1037,1056,1076,1097,1115,1136,1157,1177,1197,1217,1236,1255,1276,1296,1317,1335,1355,1375,1397,1417,1437,1456,1477,1496,1516,1536,1557,1576,1596,1617,1635,1657,1677,1696,1715,1735,1757,1776,1797,1816,1836,1856,1875,1896,1916,1937,1957,1977,1997,2015,2036,2056,2077,2096,2115,2137,2156,2176,2195,2215,2237,2257,2277,2296,2315,2337,2356,2376,2396,2417,2435,2457,2475,2496,2515,2535,2556,2575,2597,2616,2637,2655,2676,2696,2716,2735,2757,2777,2796,2816],"xSR":741.5,"ySR":469.95,"xT1":424.9,"yT1":0,"xT2":1058.1,"yT2":0,"toosoon":0,"cond_shown":"Congruent","ratio_trial":100,"L_num":9,"L_den":15,"R_num":8,"R_den":16,"correct_side":1,"subjID":"juanjosesanchezorozco8","gender":"0","school":"4","age":"9"},{"start_time":1552308778891,"click_time":1552308780684,"finger_time":1552308780284,"fix_duration":364.7728704399017,"trial":17,"RT":1393,"MT":400,"sideResp":2,"stimulus":[],"xmouse":[765,765,765,765,765,765,765,765,765,765,765,765,765,765,765,765,765,765,765,765,765,765,765,765,765,765,765,765,765,765,765,765,765,765,765,765,765,765,765,765,765,765,765,765,765,765,765,765,765,765,765,765,765,765,765,765,765,765,765,765,765,765,765,765,765,765,766,766,776,782,792,801,814,846,861,872,882,890,909,915,923,929,940,974,994,1010,1019,1032,1050,1063],"ymouse":[518,518,518,518,518,518,518,518,518,518,518,518,518,518,518,518,518,518,518,518,518,518,518,518,518,518,518,518,518,518,518,518,518,518,518,518,518,518,518,518,518,518,518,518,518,518,518,518,518,518,518,518,518,518,518,518,518,518,518,518,518,518,518,518,518,518,517,513,475,458,437,412,378,294,265,247,225,203,168,160,151,144,132,105,89,79,71,62,55,53],"timestamp_mouse":[14,33,53,73,94,114,133,154,174,194,213,233,253,274,293,314,334,353,374,394,413,433,454,473,494,514,534,554,572,594,614,634,654,673,694,713,733,753,774,793,814,834,854,872,892,914,934,954,973,992,1014,1032,1053,1073,1093,1114,1133,1154,1173,1192,1213,1234,1253,1273,1292,1314,1332,1353,1373,1393,1414,1433,1454,1473,1493,1513,1533,1553,1574,1593,1613,1633,1652,1673,1692,1714,1733,1753,1774,1793],"xSR":741.5,"ySR":469.95,"xT1":424.9,"yT1":0,"xT2":1058.1,"yT2":0,"toosoon":0,"cond_shown":"Congruent","ratio_trial":100,"L_num":3,"L_den":6,"R_num":2,"R_den":5,"correct_side":1,"subjID":"juanjosesanchezorozco8","gender":"0","school":"4","age":"9"},{"start_time":1552308783669,"click_time":1552308786183,"finger_time":1552308785204,"fix_duration":1204.0806188201016,"trial":18,"RT":1535,"MT":979,"sideResp":1,"stimulus":[],"xmouse":[822,822,822,822,822,822,822,822,822,822,822,822,822,822,822,822,822,822,822,822,822,822,822,822,822,822,822,822,822,822,822,822,822,822,822,822,822,822,822,822,822,822,822,822,822,822,822,822,822,822,822,822,822,822,822,822,822,822,822,822,822,822,822,822,822,822,822,822,822,822,822,822,822,822,822,821,821,822,825,829,831,832,832,832,832,832,831,831,831,831,831,831,829,827,826,825,825,824,816,797,789,779,770,754,735,701,692,688,687,687,686,686,684,682,680,669,667,663,660,659,652,643,625,600,571,520],"ymouse":[474,474,474,474,474,474,474,474,474,474,474,474,474,474,474,474,474,474,474,474,474,474,474,474,474,474,474,474,474,474,474,474,474,474,474,474,474,474,474,474,474,474,474,474,474,474,474,474,474,474,474,474,474,474,474,474,474,474,474,474,474,474,474,474,474,474,474,474,474,474,474,474,474,474,474,470,466,454,445,437,425,418,411,400,388,373,368,366,354,342,313,300,285,271,260,241,237,220,205,181,175,168,159,150,139,116,113,111,111,111,111,111,110,109,109,106,106,105,105,105,104,103,101,98,93,86],"timestamp_mouse":[15,41,58,75,94,115,134,155,175,195,215,235,254,275,294,315,335,355,375,396,415,435,455,475,495,516,536,556,574,595,616,636,656,676,694,715,736,755,776,794,816,834,854,876,894,916,935,956,975,995,1015,1035,1054,1074,1095,1116,1135,1155,1176,1196,1216,1236,1255,1275,1296,1316,1335,1356,1376,1396,1415,1435,1455,1475,1495,1514,1535,1555,1576,1595,1615,1636,1654,1675,1696,1714,1736,1755,1774,1794,1814,1834,1855,1876,1895,1915,1935,1955,1975,1997,2015,2036,2055,2075,2096,2114,2135,2155,2174,2196,2214,2235,2256,2275,2295,2315,2335,2355,2376,2396,2415,2435,2456,2475,2496,2514],"xSR":741.5,"ySR":469.95,"xT1":424.9,"yT1":0,"xT2":1058.1,"yT2":0,"toosoon":0,"cond_shown":"Incongruent","ratio_trial":300,"L_num":4,"L_den":20,"R_num":2,"R_den":4,"correct_side":2,"subjID":"juanjosesanchezorozco8","gender":"0","school":"4","age":"9"},{"start_time":1552308789029,"click_time":1552308791504,"finger_time":1552308790444,"fix_duration":943.352996202518,"trial":19,"RT":1415,"MT":1060,"sideResp":1,"stimulus":[],"xmouse":[813,813,813,813,813,813,813,813,813,813,813,813,813,813,813,813,813,813,813,813,813,813,813,813,813,813,813,813,813,813,813,813,813,813,813,813,813,813,813,813,813,813,813,813,813,813,813,813,813,813,813,813,813,813,813,813,813,813,813,813,813,813,813,813,813,813,813,814,818,822,830,837,852,856,860,864,867,874,875,876,876,876,876,876,876,876,876,876,876,874,867,854,813,790,764,743,724,702,665,654,648,646,643,642,640,640,640,636,630,622,611,604,597,597,597,597,597,594,587,584,577,566,537,522],"ymouse":[486,486,486,486,486,486,486,486,486,486,486,486,486,486,486,486,486,486,486,486,486,486,486,486,486,486,486,486,486,486,486,486,486,486,486,486,486,486,486,486,486,486,486,486,486,486,486,486,486,486,486,486,486,486,486,486,486,486,486,486,486,486,486,486,486,486,486,486,478,471,459,449,431,425,416,409,402,388,385,382,380,380,380,380,380,380,380,380,379,374,367,354,312,282,245,211,190,170,144,136,130,128,123,121,120,120,120,117,114,108,102,96,91,91,91,91,91,91,91,91,91,91,91,91],"timestamp_mouse":[15,39,56,76,96,115,136,156,176,194,216,236,254,274,296,315,336,355,374,394,416,434,455,475,496,515,536,556,575,596,616,635,656,675,694,714,735,756,776,795,815,836,854,876,896,916,936,956,975,996,1015,1034,1054,1076,1095,1116,1135,1155,1175,1196,1215,1235,1255,1275,1296,1316,1335,1355,1376,1395,1415,1435,1456,1475,1495,1515,1535,1556,1575,1595,1615,1635,1656,1675,1696,1715,1735,1756,1776,1795,1816,1836,1855,1875,1895,1916,1936,1956,1975,1996,2016,2036,2056,2075,2095,2115,2136,2156,2175,2196,2215,2236,2256,2275,2295,2316,2335,2356,2376,2395,2415,2436,2456,2474],"xSR":741.5,"ySR":469.95,"xT1":424.9,"yT1":0,"xT2":1058.1,"yT2":0,"toosoon":0,"cond_shown":"Congruent","ratio_trial":100,"L_num":8,"L_den":16,"R_num":2,"R_den":5,"correct_side":1,"subjID":"juanjosesanchezorozco8","gender":"0","school":"4","age":"9"},{"start_time":1552308796056,"click_time":1552308797724,"finger_time":1552308796804,"fix_duration":1190.9216424143647,"trial":20,"RT":748,"MT":920,"sideResp":1,"stimulus":[],"xmouse":[805,805,805,805,805,805,805,805,805,805,805,805,805,805,805,805,805,805,805,805,805,805,805,805,805,805,804,804,804,804,804,804,804,804,805,808,811,812,812,812,812,812,812,812,812,812,812,812,812,812,812,812,812,812,812,812,812,812,812,812,812,812,812,812,797,766,700,585,545,524,510,498,459,455,452,451,449,447,444,443,442,440,440,440],"ymouse":[514,514,514,514,514,514,514,514,514,514,514,514,514,514,514,514,514,514,514,514,514,514,514,514,514,517,525,537,540,540,540,536,519,507,501,491,478,461,461,461,461,461,461,461,461,461,461,461,461,461,461,461,461,461,461,461,461,461,461,461,461,461,461,460,458,450,428,348,316,289,268,243,170,158,153,149,145,138,132,127,122,115,102,96],"timestamp_mouse":[18,28,48,68,88,108,128,150,168,188,208,228,248,268,290,308,329,348,368,389,408,428,448,468,489,508,528,548,568,589,609,628,648,669,689,708,728,748,769,788,808,829,848,869,888,909,928,948,969,989,1008,1029,1048,1069,1089,1108,1128,1149,1168,1189,1208,1228,1249,1269,1288,1309,1328,1348,1367,1388,1408,1428,1448,1469,1489,1509,1528,1549,1569,1589,1608,1629,1648,1667],"xSR":741.5,"ySR":469.95,"xT1":424.9,"yT1":0,"xT2":1058.1,"yT2":0,"toosoon":0,"cond_shown":"Incongruent","ratio_trial":100,"L_num":6,"L_den":10,"R_num":11,"R_den":22,"correct_side":1,"subjID":"juanjosesanchezorozco8","gender":"0","school":"4","age":"9"},{"start_time":1552308801602,"click_time":1552308803244,"finger_time":1552308802945,"fix_duration":696.601894057212,"trial":21,"RT":1343,"MT":299,"sideResp":2,"stimulus":[],"xmouse":[759,767,770,770,771,771,771,771,771,771,771,771,771,771,771,771,771,771,771,771,771,771,771,771,771,771,771,771,771,771,771,771,771,771,771,771,771,771,771,771,771,771,771,771,771,771,771,771,771,771,771,771,771,771,771,771,771,771,771,771,771,771,771,771,771,771,782,822,881,964,1017,1038,1041,1041,1041,1042,1045,1047,1049,1051,1054,1060,1065],"ymouse":[512,513,513,513,513,513,513,513,513,513,513,513,513,513,513,513,513,513,513,513,513,513,513,513,513,513,513,513,513,513,513,513,513,513,513,513,513,513,513,513,513,513,513,513,513,513,513,513,513,513,513,513,513,513,513,513,513,513,513,513,513,513,513,513,513,513,507,450,361,262,197,179,172,161,152,147,138,133,130,126,117,105,96],"timestamp_mouse":[2,22,55,62,83,103,122,142,163,183,202,223,242,262,282,302,323,343,363,382,403,423,442,463,483,503,523,543,563,583,604,623,642,662,683,702,723,742,762,783,803,822,842,863,883,902,922,942,962,982,1002,1022,1042,1062,1082,1103,1123,1142,1163,1183,1203,1222,1243,1263,1283,1303,1322,1343,1362,1382,1402,1422,1442,1462,1483,1502,1522,1543,1562,1583,1603,1622,1642],"xSR":741.5,"ySR":469.95,"xT1":424.9,"yT1":0,"xT2":1058.1,"yT2":0,"toosoon":0,"cond_shown":"Incongruent","ratio_trial":200,"L_num":14,"L_den":30,"R_num":6,"R_den":9,"correct_side":2,"subjID":"juanjosesanchezorozco8","gender":"0","school":"4","age":"9"},{"start_time":1552308805136,"click_time":1552308806864,"finger_time":1552308806724,"fix_duration":269.55641842563625,"trial":22,"RT":1588,"MT":140,"sideResp":1,"stimulus":[],"xmouse":[817,817,817,817,817,817,817,817,817,817,817,817,817,817,817,817,817,817,817,815,813,812,812,812,812,812,812,812,812,812,812,812,812,812,812,812,812,812,812,812,812,812,812,812,812,812,812,812,812,812,812,812,812,812,810,805,800,794,790,784,784,784,784,784,784,784,784,784,783,782,780,778,776,775,775,774,773,771,768,757,752,745,734,720,644,579,488],"ymouse":[497,497,497,497,497,497,497,497,497,497,497,497,497,497,497,497,497,497,497,497,497,497,497,497,497,497,497,497,497,497,497,497,497,497,497,497,497,497,497,497,497,497,497,497,497,497,497,497,497,497,497,497,497,497,498,499,499,500,500,502,502,502,502,502,502,502,502,502,502,502,502,502,501,499,498,497,493,489,478,459,448,433,410,388,285,200,91],"timestamp_mouse":[13,37,48,70,88,108,128,149,168,188,208,228,248,269,289,309,329,348,368,388,408,428,449,468,489,509,529,548,568,589,608,629,649,669,688,709,728,749,769,789,808,829,848,869,888,909,928,949,969,989,1009,1029,1049,1069,1088,1108,1129,1149,1168,1189,1209,1229,1249,1268,1288,1309,1328,1349,1368,1388,1408,1428,1448,1469,1488,1508,1528,1549,1568,1588,1608,1628,1648,1668,1688,1708,1728],"xSR":741.5,"ySR":469.95,"xT1":424.9,"yT1":0,"xT2":1058.1,"yT2":0,"toosoon":0,"cond_shown":"Congruent","ratio_trial":200,"L_num":9,"L_den":20,"R_num":4,"R_den":16,"correct_side":1,"subjID":"juanjosesanchezorozco8","gender":"0","school":"4","age":"9"},{"start_time":1552308809377,"click_time":1552308810964,"finger_time":1552308810165,"fix_duration":250,"trial":23,"RT":788,"MT":799,"sideResp":1,"stimulus":[],"xmouse":[832,832,832,832,832,832,832,832,832,832,832,832,832,832,832,832,832,832,833,835,836,837,837,837,838,838,838,838,838,838,838,838,838,838,838,838,839,841,841,842,842,843,843,843,843,843,843,843,843,843,843,843,843,843,843,843,843,843,843,843,828,792,754,695,684,679,674,667,656,647,642,640,637,634,631,625,618,581,540,492],"ymouse":[525,525,525,525,525,525,525,525,525,525,525,525,525,525,525,525,524,523,520,518,517,517,516,515,514,514,514,514,514,514,514,514,514,514,513,513,513,516,517,518,519,521,521,521,521,521,521,521,521,521,521,521,521,521,521,521,521,521,521,521,481,422,374,317,307,296,278,256,220,206,200,198,196,193,190,185,177,145,120,98],"timestamp_mouse":[9,44,47,67,87,108,128,148,167,188,207,228,248,268,287,307,327,347,368,387,407,427,447,468,488,507,528,547,567,588,608,628,648,668,687,708,727,748,768,788,808,827,847,867,887,907,927,947,968,988,1007,1027,1048,1067,1088,1107,1127,1148,1167,1188,1207,1227,1247,1267,1287,1308,1328,1348,1367,1387,1407,1428,1449,1467,1487,1507,1527,1549,1567,1587],"xSR":741.5,"ySR":469.95,"xT1":424.9,"yT1":0,"xT2":1058.1,"yT2":0,"toosoon":0,"cond_shown":"Incongruent","ratio_trial":200,"L_num":7,"L_den":10,"R_num":12,"R_den":24,"correct_side":1,"subjID":"juanjosesanchezorozco8","gender":"0","school":"4","age":"9"},{"start_time":1552308814311,"click_time":1552308815884,"finger_time":1552308815344,"fix_duration":505.3518400426429,"trial":24,"RT":1033,"MT":540,"sideResp":1,"stimulus":[],"xmouse":[781,781,781,781,781,781,781,781,781,781,781,781,781,781,781,781,781,781,781,781,781,781,781,781,781,781,781,781,781,781,781,781,781,781,781,781,781,781,781,781,781,781,781,781,781,781,781,781,778,776,773,766,757,736,708,685,673,673,673,672,672,668,666,662,657,650,626,607,594,583,575,560,557,553,550,545,536,528,521],"ymouse":[511,511,511,511,511,511,511,511,511,511,511,511,511,511,511,511,511,511,511,511,511,511,511,511,511,508,508,508,508,508,508,508,508,508,508,508,508,508,508,508,508,508,508,508,508,508,508,508,500,494,486,461,437,402,370,353,345,345,345,344,342,315,300,282,261,239,177,142,121,108,97,80,77,75,74,72,67,64,62],"timestamp_mouse":[14,41,53,73,93,114,133,154,174,194,213,234,253,273,294,314,333,354,374,394,414,433,453,473,493,513,534,554,574,593,613,633,653,673,694,714,733,754,774,793,813,833,853,874,893,913,933,953,974,993,1014,1033,1055,1073,1094,1115,1134,1154,1173,1193,1213,1233,1253,1274,1294,1313,1333,1353,1373,1394,1413,1433,1453,1473,1494,1513,1534,1553,1573],"xSR":741.5,"ySR":469.95,"xT1":424.9,"yT1":0,"xT2":1058.1,"yT2":0,"toosoon":0,"cond_shown":"Incongruent","ratio_trial":200,"L_num":7,"L_den":10,"R_num":8,"R_den":16,"correct_side":1,"subjID":"juanjosesanchezorozco8","gender":"0","school":"4","age":"9"},{"start_time":1552308820178,"click_time":1552308821864,"finger_time":1552308821024,"fix_duration":870.1729570217581,"trial":25,"RT":846,"MT":840,"sideResp":2,"stimulus":[],"xmouse":[780,780,780,780,780,780,780,780,780,780,780,780,780,780,780,780,780,780,780,780,780,780,780,780,780,780,780,780,780,780,780,780,780,780,780,780,780,781,781,784,786,787,790,791,793,796,796,796,798,799,799,799,799,799,801,802,803,806,810,823,846,876,917,995,995,995,995,995,995,995,995,995,995,995,995,995,995,995,995,995,995,995,995,995,1113],"ymouse":[500,500,500,500,500,500,500,500,500,500,500,500,500,500,500,500,500,500,500,500,500,500,500,500,500,500,500,500,500,500,500,500,500,500,500,500,500,497,494,486,480,473,469,466,462,458,456,454,452,450,450,448,448,448,445,442,438,431,424,379,288,180,88,8,8,8,8,8,8,8,8,8,8,8,8,8,8,8,8,8,8,8,8,8,10],"timestamp_mouse":[9,29,46,67,86,106,127,146,167,187,206,227,246,267,287,306,327,347,366,387,406,426,446,466,486,506,526,546,568,586,606,626,646,666,686,706,727,746,766,787,806,827,846,866,886,907,926,946,967,986,1006,1027,1047,1067,1086,1106,1126,1147,1165,1186,1207,1226,1246,1267,1286,1307,1326,1347,1366,1386,1406,1427,1447,1466,1486,1506,1526,1546,1567,1586,1606,1626,1647,1666,1686],"xSR":741.5,"ySR":469.95,"xT1":424.9,"yT1":0,"xT2":1058.1,"yT2":0,"toosoon":0,"cond_shown":"Congruent","ratio_trial":100,"L_num":2,"L_den":5,"R_num":11,"R_den":22,"correct_side":2,"subjID":"juanjosesanchezorozco8","gender":"0","school":"4","age":"9"},{"start_time":1552308828492,"click_time":1552308830484,"finger_time":1552308829825,"fix_duration":606.1478181913934,"trial":26,"RT":1333,"MT":659,"sideResp":2,"stimulus":[],"xmouse":[784,784,784,784,784,784,784,784,784,784,784,784,784,784,784,784,784,784,784,784,784,784,784,784,784,784,784,784,784,784,784,784,784,784,784,784,784,784,784,784,784,784,784,784,784,784,784,784,784,784,784,784,784,784,784,784,784,784,784,784,784,784,784,784,784,785,790,795,804,837,846,853,860,864,870,873,877,886,900,934,945,951,953,955,957,957,958,961,963,970,976,984,996,1009,1020,1028,1032,1037,1041,1061],"ymouse":[498,498,498,498,498,498,498,498,498,498,498,498,498,498,498,498,498,498,498,498,498,498,498,498,498,498,498,498,498,498,498,498,498,498,498,498,498,498,498,498,498,498,498,498,498,498,498,498,498,498,498,498,498,498,498,498,498,498,498,498,498,498,498,498,483,471,459,445,427,322,267,239,225,218,211,207,200,188,171,144,135,130,127,125,123,121,117,112,107,101,96,92,85,77,65,53,48,45,44,38],"timestamp_mouse":[12,32,53,73,93,112,132,153,173,192,212,233,253,272,292,313,333,353,372,392,413,432,453,473,493,512,533,553,572,593,612,633,652,672,692,712,732,752,773,792,813,834,853,873,893,912,932,953,972,992,1012,1032,1052,1072,1092,1112,1132,1153,1172,1193,1213,1233,1253,1273,1293,1313,1333,1352,1373,1392,1412,1432,1453,1474,1492,1512,1532,1553,1573,1591,1612,1632,1653,1673,1692,1712,1733,1752,1773,1792,1812,1833,1852,1873,1892,1913,1932,1952,1973,1992],"xSR":741.5,"ySR":469.95,"xT1":424.9,"yT1":0,"xT2":1058.1,"yT2":0,"toosoon":0,"cond_shown":"Congruent","ratio_trial":300,"L_num":1,"L_den":30,"R_num":8,"R_den":24,"correct_side":2,"subjID":"juanjosesanchezorozco8","gender":"0","school":"4","age":"9"},{"start_time":1552308834627,"click_time":1552308836004,"finger_time":1552308835445,"fix_duration":262.73088074212745,"trial":27,"RT":818,"MT":559,"sideResp":1,"stimulus":[],"xmouse":[813,812,811,811,811,811,811,811,811,811,811,811,811,811,811,811,811,811,811,811,811,811,811,811,811,811,811,811,811,811,811,811,811,811,811,810,807,806,799,795,787,772,754,749,737,724,719,719,719,719,719,719,713,706,698,692,687,675,666,657,648,639,621,613,605,588,571,533,511],"ymouse":[501,502,503,503,503,503,503,503,503,503,503,503,503,503,503,503,503,503,503,503,503,503,503,503,503,503,503,503,503,503,503,503,503,503,503,503,503,499,488,480,466,447,407,374,348,331,323,321,321,318,310,299,260,242,221,208,200,179,166,156,148,141,130,124,116,101,87,56,39],"timestamp_mouse":[17,38,58,78,97,118,138,157,177,198,218,237,259,277,298,318,338,357,379,398,418,438,457,478,497,517,538,557,578,598,618,637,657,677,698,717,737,757,777,798,818,837,859,877,897,917,937,958,977,997,1017,1037,1058,1077,1097,1117,1137,1158,1177,1197,1217,1237,1258,1277,1298,1317,1337,1359,1377],"xSR":741.5,"ySR":469.95,"xT1":424.9,"yT1":0,"xT2":1058.1,"yT2":0,"toosoon":0,"cond_shown":"Congruent","ratio_trial":300,"L_num":24,"L_den":30,"R_num":2,"R_den":4,"correct_side":1,"subjID":"juanjosesanchezorozco8","gender":"0","school":"4","age":"9"},{"start_time":1552308839990,"click_time":1552308842105,"finger_time":1552308840964,"fix_duration":784.7359413747596,"trial":28,"RT":974,"MT":1141,"sideResp":2,"stimulus":[],"xmouse":[765,765,765,765,765,765,765,765,765,765,765,765,765,765,765,765,765,765,765,765,765,765,765,765,765,765,765,765,765,765,765,765,765,765,766,767,767,769,770,770,771,771,772,772,772,772,772,772,772,772,772,772,772,772,772,772,772,772,772,772,772,772,772,772,773,777,777,778,778,778,778,778,778,778,778,778,780,781,783,787,799,807,819,835,854,896,908,922,932,944,971,984,992,996,998,1000,1007,1016,1022,1028,1039,1042,1046,1058,1064,1092],"ymouse":[515,515,515,515,515,515,515,515,515,515,515,515,515,515,515,515,515,515,515,515,515,515,515,515,515,515,515,515,515,515,515,515,515,515,515,509,504,500,495,491,485,483,481,480,479,474,472,470,467,462,456,453,451,451,449,447,447,447,447,447,447,445,442,439,435,426,421,419,412,407,403,402,397,395,392,384,379,373,363,351,328,317,303,286,269,232,222,210,202,191,173,165,157,154,152,149,143,138,133,129,119,117,114,108,106,97],"timestamp_mouse":[13,45,55,75,94,114,134,155,175,194,215,235,254,275,295,315,335,354,374,394,414,434,454,475,495,514,535,555,574,594,614,635,655,675,695,714,734,754,775,795,814,834,855,875,894,914,934,955,974,995,1016,1034,1054,1074,1094,1115,1134,1154,1174,1194,1215,1235,1255,1275,1295,1315,1334,1354,1375,1395,1414,1434,1455,1475,1495,1514,1534,1554,1574,1594,1615,1635,1654,1674,1694,1714,1734,1755,1774,1795,1814,1834,1854,1875,1895,1914,1935,1954,1975,1994,2014,2033,2055,2074,2094,2115],"xSR":741.5,"ySR":469.95,"xT1":424.9,"yT1":0,"xT2":1058.1,"yT2":0,"toosoon":0,"cond_shown":"Incongruent","ratio_trial":100,"L_num":12,"L_den":30,"R_num":2,"R_den":4,"correct_side":2,"subjID":"juanjosesanchezorozco8","gender":"0","school":"4","age":"9"},{"start_time":1552308846148,"click_time":1552308847905,"finger_time":1552308847545,"fix_duration":1182.11109227244,"trial":29,"RT":1397,"MT":360,"sideResp":2,"stimulus":[],"xmouse":[783,783,783,783,783,783,783,783,783,783,783,783,783,783,783,783,783,783,783,783,783,783,783,783,783,783,783,783,783,783,783,783,783,783,783,783,783,783,783,783,783,783,783,783,783,783,783,783,783,783,783,783,783,783,783,783,783,783,783,783,783,783,783,783,783,783,785,791,800,806,819,842,871,892,897,905,917,934,963,973,980,991,1002,1019,1033,1047,1054,1059],"ymouse":[505,505,505,505,505,505,505,505,505,505,505,505,505,505,505,505,505,505,505,505,505,505,505,505,505,505,505,505,505,505,505,505,505,505,505,505,505,505,505,505,505,505,505,505,505,505,505,505,505,505,505,505,505,505,505,505,505,505,505,505,505,505,505,505,505,505,501,490,477,461,446,433,424,417,412,404,397,390,375,366,356,338,318,264,187,138,97,53],"timestamp_mouse":[17,37,57,76,97,117,137,156,176,196,216,237,257,276,297,316,337,357,377,397,416,437,457,476,496,516,537,557,578,596,617,636,657,677,696,717,737,757,776,796,817,837,857,877,896,916,937,957,977,996,1016,1036,1056,1077,1096,1117,1136,1156,1177,1196,1216,1237,1257,1276,1297,1317,1336,1357,1376,1397,1417,1436,1456,1476,1496,1516,1536,1556,1576,1596,1617,1637,1657,1676,1696,1717,1737,1757],"xSR":741.5,"ySR":469.95,"xT1":424.9,"yT1":0,"xT2":1058.1,"yT2":0,"toosoon":0,"cond_shown":"Incongruent","ratio_trial":100,"L_num":8,"L_den":16,"R_num":6,"R_den":10,"correct_side":2,"subjID":"juanjosesanchezorozco8","gender":"0","school":"4","age":"9"},{"start_time":1552308854756,"click_time":1552308856885,"finger_time":1552308856145,"fix_duration":989.3485943985557,"trial":30,"RT":1389,"MT":740,"sideResp":1,"stimulus":[],"xmouse":[798,798,798,798,798,798,798,798,798,798,798,798,798,798,798,798,798,798,798,798,798,798,798,798,798,798,798,798,798,798,798,798,798,798,798,798,798,798,798,798,798,798,798,798,798,798,798,798,798,798,798,798,798,798,798,798,798,798,798,798,798,798,798,798,798,797,796,796,796,799,787,748,695,635,566,556,556,556,555,555,553,551,551,551,551,551,551,551,551,551,551,551,551,550,548,546,545,545,545,542,541,539,539,538,533,529,522],"ymouse":[519,519,519,518,516,515,515,515,515,515,515,515,515,515,515,515,515,515,515,515,515,515,515,515,515,515,515,515,515,515,515,515,515,515,515,515,515,515,515,515,515,515,515,515,515,515,515,515,515,515,515,515,515,515,515,515,515,515,515,515,515,515,515,515,515,506,499,485,471,433,359,283,209,155,108,102,101,101,100,86,82,80,80,80,80,80,80,80,80,80,80,80,80,80,80,80,80,80,80,80,80,80,80,80,80,80,80],"timestamp_mouse":[9,40,49,69,88,108,129,149,169,188,208,228,249,269,289,308,329,348,368,388,408,428,448,469,489,508,529,548,568,589,608,629,649,669,689,708,729,749,769,789,808,829,848,868,888,909,928,949,968,989,1008,1028,1049,1068,1089,1109,1129,1148,1169,1189,1209,1229,1249,1269,1289,1308,1329,1348,1368,1389,1408,1428,1448,1469,1488,1508,1529,1548,1568,1588,1608,1628,1648,1668,1688,1708,1728,1748,1769,1788,1809,1828,1848,1869,1888,1909,1928,1949,1969,1988,2008,2029,2048,2069,2088,2108,2129],"xSR":741.5,"ySR":469.95,"xT1":424.9,"yT1":0,"xT2":1058.1,"yT2":0,"toosoon":0,"cond_shown":"Incongruent","ratio_trial":200,"L_num":7,"L_den":10,"R_num":14,"R_den":28,"correct_side":1,"subjID":"juanjosesanchezorozco8","gender":"0","school":"4","age":"9"},{"start_time":1552308864997,"click_time":1552308867145,"finger_time":1552308866105,"fix_duration":250,"trial":31,"RT":1108,"MT":1040,"sideResp":1,"stimulus":[],"xmouse":[799,799,799,799,799,799,799,799,799,799,799,799,799,799,799,799,799,799,799,799,799,799,799,799,799,799,799,799,797,796,796,795,795,795,795,795,795,795,795,795,795,795,795,795,795,795,795,795,795,795,795,795,795,779,770,760,753,751,750,748,745,740,736,730,727,723,717,710,694,675,650,630,624,621,621,621,621,621,613,568,478,397,316,270,262,258,258,258,258,258,258,261,264,274,280,289,301,314,346,366,384,398,406,407,408,413,419,426],"ymouse":[516,516,516,516,516,516,516,516,516,516,516,516,516,516,516,516,516,516,516,516,516,516,516,516,516,516,516,516,516,512,512,511,511,511,511,511,511,511,511,511,511,511,511,511,511,511,511,511,511,511,511,511,511,486,473,455,437,425,394,379,366,354,348,340,338,334,326,312,268,227,187,158,150,146,146,146,146,146,150,179,222,235,228,190,172,158,153,151,151,150,149,147,147,142,140,137,133,128,115,108,102,99,96,96,96,95,93,91],"timestamp_mouse":[9,37,48,68,88,107,128,147,167,187,207,227,248,268,288,308,328,348,368,387,407,427,448,467,487,508,526,548,567,588,607,628,647,668,687,707,728,747,767,788,808,828,847,868,888,908,927,947,967,987,1007,1028,1047,1067,1088,1108,1127,1148,1167,1188,1207,1228,1247,1267,1288,1307,1327,1347,1367,1387,1408,1427,1448,1467,1487,1508,1528,1548,1567,1587,1608,1627,1648,1667,1688,1707,1728,1747,1767,1788,1807,1828,1847,1867,1887,1908,1928,1948,1967,1987,2008,2027,2046,2067,2088,2107,2127,2148],"xSR":741.5,"ySR":469.95,"xT1":424.9,"yT1":0,"xT2":1058.1,"yT2":0,"toosoon":0,"cond_shown":"Congruent","ratio_trial":200,"L_num":15,"L_den":25,"R_num":4,"R_den":10,"correct_side":1,"subjID":"juanjosesanchezorozco8","gender":"0","school":"4","age":"9"},{"start_time":1552308870056,"click_time":1552308871484,"finger_time":1552308870765,"fix_duration":1269.1194503947306,"trial":32,"RT":709,"MT":719,"sideResp":2,"stimulus":[],"xmouse":[790,790,790,790,790,790,790,790,790,790,790,790,790,790,790,790,790,790,790,790,790,790,790,790,790,790,790,790,790,790,790,790,790,790,790,809,836,857,871,877,895,905,916,922,929,936,952,961,963,971,983,993,1002,1011,1016,1020,1022,1022,1022,1023,1034,1045,1052,1055,1055,1055,1056,1059,1061,1062,1064,1068],"ymouse":[496,496,496,496,496,496,496,496,496,496,496,496,496,496,496,496,496,496,496,496,496,496,496,496,496,496,496,496,496,496,496,496,496,496,495,460,426,403,386,377,335,304,271,248,226,208,186,180,179,175,169,164,158,153,147,144,141,141,141,141,134,127,120,118,118,117,115,110,107,104,101,96],"timestamp_mouse":[10,41,48,69,88,108,129,150,169,188,208,228,249,268,288,308,328,348,368,389,409,428,449,468,488,509,528,548,569,589,609,629,649,669,689,709,728,748,768,789,810,828,849,868,889,908,928,950,968,988,1011,1028,1048,1068,1088,1109,1128,1148,1169,1189,1210,1228,1249,1268,1289,1309,1328,1348,1369,1388,1409,1428],"xSR":741.5,"ySR":469.95,"xT1":424.9,"yT1":0,"xT2":1058.1,"yT2":0,"toosoon":0,"cond_shown":"Incongruent","ratio_trial":100,"L_num":9,"L_den":15,"R_num":13,"R_den":26,"correct_side":1,"subjID":"juanjosesanchezorozco8","gender":"0","school":"4","age":"9"},{"start_time":1552308875695,"click_time":1552308877105,"finger_time":1552308876204,"fix_duration":1169.4558355453578,"trial":33,"RT":509,"MT":901,"sideResp":1,"stimulus":[],"xmouse":[762,765,766,767,767,767,767,767,767,767,768,768,768,768,768,768,768,768,768,769,772,772,774,779,783,790,794,797,799,800,801,805,808,811,814,815,816,816,816,812,811,810,809,809,809,809,809,808,805,794,785,775,766,758,721,697,675,654,636,615,611,610,609,608,601,597,592,582,572,538,516],"ymouse":[487,487,487,487,487,487,487,487,487,487,487,487,487,487,487,487,487,487,487,487,484,483,482,479,474,469,465,462,459,457,457,449,441,435,427,421,415,408,399,381,375,372,370,369,369,369,367,358,344,309,288,265,244,226,166,141,125,112,103,94,94,93,93,92,89,87,84,79,75,62,52],"timestamp_mouse":[16,29,50,69,89,110,130,148,170,189,209,229,250,270,290,310,329,350,369,389,409,429,449,469,489,509,529,549,570,590,609,629,649,670,690,710,729,750,770,789,810,829,849,869,889,909,929,950,970,990,1009,1029,1050,1069,1089,1109,1129,1149,1170,1190,1209,1229,1249,1270,1289,1308,1330,1350,1369,1389,1410],"xSR":741.5,"ySR":469.95,"xT1":424.9,"yT1":0,"xT2":1058.1,"yT2":0,"toosoon":0,"cond_shown":"Incongruent","ratio_trial":300,"L_num":1,"L_den":2,"R_num":3,"R_den":15,"correct_side":1,"subjID":"juanjosesanchezorozco8","gender":"0","school":"4","age":"9"},{"start_time":1552308879516,"click_time":1552308880904,"finger_time":1552308880344,"fix_duration":250,"trial":34,"RT":828,"MT":560,"sideResp":2,"stimulus":[],"xmouse":[807,807,807,807,807,807,807,807,807,807,807,807,807,807,807,807,807,807,807,807,807,807,807,807,807,807,807,807,807,807,807,807,807,807,807,807,807,807,807,822,835,850,881,997,1033,1047,1048,1048,1048,1048,1048,1048,1048,1048,1048,1048,1048,1048,1048,1053,1057,1060,1061,1061,1061,1062,1064,1069,1073,1077],"ymouse":[505,505,505,505,505,505,505,505,505,505,505,505,505,505,505,505,505,505,505,505,505,505,505,505,505,505,505,505,505,505,505,505,505,505,505,505,505,505,501,483,471,452,395,209,159,140,138,138,138,138,138,138,134,132,132,131,131,131,131,123,119,115,115,115,115,114,111,108,105,99],"timestamp_mouse":[12,32,48,68,89,108,128,149,168,188,208,228,249,268,289,308,329,348,368,388,408,428,448,468,489,508,529,548,568,589,608,629,648,668,688,708,728,748,768,789,809,828,848,870,888,908,928,948,969,988,1008,1029,1049,1070,1088,1108,1129,1149,1168,1188,1208,1229,1248,1268,1289,1308,1329,1349,1369,1388],"xSR":741.5,"ySR":469.95,"xT1":424.9,"yT1":0,"xT2":1058.1,"yT2":0,"toosoon":0,"cond_shown":"Incongruent","ratio_trial":300,"L_num":13,"L_den":26,"R_num":12,"R_den":15,"correct_side":2,"subjID":"juanjosesanchezorozco8","gender":"0","school":"4","age":"9"},{"start_time":1552308895661,"click_time":1552308897285,"finger_time":1552308896625,"fix_duration":434.17371274720193,"trial":35,"RT":964,"MT":660,"sideResp":1,"stimulus":[],"xmouse":[823,823,823,820,818,817,817,817,817,817,817,817,817,817,817,817,817,817,817,817,817,817,817,817,817,817,817,817,817,817,817,817,817,817,817,817,817,817,817,817,817,817,812,805,792,792,791,787,746,685,613,561,533,519,519,519,521,521,510,506,504,503,502,501,501,501,501,503,506,519,522,523,526,526,527,528,528,528,528,527,525,521],"ymouse":[532,532,532,530,529,528,528,528,528,528,528,528,528,528,528,528,528,528,528,528,528,528,528,528,528,528,528,528,528,528,528,528,528,528,528,528,528,528,528,528,528,528,528,527,525,525,523,519,463,400,346,309,290,272,260,256,235,218,189,180,174,170,164,152,150,147,142,137,131,115,110,107,103,101,97,96,94,93,93,88,86,83],"timestamp_mouse":[13,38,43,64,83,103,124,144,164,184,203,222,243,263,284,304,323,344,364,383,404,423,443,463,483,504,524,545,563,583,604,624,644,663,683,703,723,743,763,783,804,824,844,864,884,904,923,944,964,983,1003,1024,1043,1064,1083,1103,1123,1144,1165,1183,1203,1223,1244,1265,1283,1303,1324,1344,1363,1383,1404,1423,1444,1463,1483,1504,1524,1544,1564,1584,1603,1624],"xSR":741.5,"ySR":469.95,"xT1":424.9,"yT1":0,"xT2":1058.1,"yT2":0,"toosoon":0,"cond_shown":"Congruent","ratio_trial":200,"L_num":15,"L_den":25,"R_num":4,"R_den":10,"correct_side":1,"subjID":"juanjosesanchezorozco8","gender":"0","school":"4","age":"9"},{"start_time":1552308899383,"click_time":1552308900845,"finger_time":1552308900104,"fix_duration":495.4807227792324,"trial":36,"RT":721,"MT":741,"sideResp":2,"stimulus":[],"xmouse":[780,780,780,780,780,780,780,780,780,780,780,780,779,779,779,779,779,779,779,779,779,779,779,779,779,779,779,779,779,779,779,779,779,789,809,836,867,889,911,914,916,921,945,982,984,984,987,990,1004,1011,1017,1022,1028,1047,1055,1068,1080,1095,1123,1129,1132,1132,1132,1132,1132,1131,1131,1130,1129,1128,1127,1126,1124,1122],"ymouse":[522,522,522,522,522,522,522,522,522,522,522,522,523,523,523,523,523,523,523,523,523,523,523,522,521,520,520,519,518,518,517,517,516,515,513,510,502,493,474,469,465,461,461,461,461,461,457,449,415,401,387,372,356,314,293,268,245,222,185,178,173,170,170,170,165,161,157,155,150,143,134,123,112,97],"timestamp_mouse":[9,22,43,61,81,102,122,141,162,182,201,222,242,262,282,301,322,342,361,381,401,422,441,462,482,502,520,541,561,582,601,621,642,661,681,701,721,742,761,783,801,821,842,860,882,901,921,941,961,981,1001,1022,1042,1061,1081,1101,1122,1141,1160,1182,1201,1221,1246,1261,1281,1302,1321,1341,1361,1382,1401,1422,1442,1462],"xSR":741.5,"ySR":469.95,"xT1":424.9,"yT1":0,"xT2":1058.1,"yT2":0,"toosoon":0,"cond_shown":"Incongruent","ratio_trial":200,"L_num":7,"L_den":15,"R_num":4,"R_den":6,"correct_side":2,"subjID":"juanjosesanchezorozco8","gender":"0","school":"4","age":"9"},{"start_time":1552308903513,"click_time":1552308905346,"finger_time":1552308904524,"fix_duration":1047.1636663187044,"trial":37,"RT":1011,"MT":822,"sideResp":1,"stimulus":[],"xmouse":[793,793,793,793,793,793,793,793,793,793,793,793,793,793,793,793,793,793,793,794,795,796,798,798,798,798,798,798,798,798,798,798,798,798,798,798,798,798,798,798,798,799,795,787,781,777,777,777,776,774,728,610,577,558,550,547,533,512,467,445,407,394,393,393,393,393,397,398,399,399,400,400,407,410,419,424,424,424,424,424,424,424,424,424,424,424,424,424,424,424,424,498],"ymouse":[493,493,493,493,493,493,493,493,493,493,493,493,493,493,493,493,493,493,493,493,493,493,493,493,493,493,493,493,493,493,493,493,493,493,493,493,493,493,493,493,493,493,491,487,484,482,482,482,482,482,493,515,515,515,515,514,506,493,462,444,406,381,375,370,363,353,318,299,271,264,240,220,171,136,71,29,29,29,29,29,29,29,29,29,29,29,29,29,29,29,29,15],"timestamp_mouse":[14,35,51,72,92,111,132,152,172,192,211,231,252,271,292,312,331,351,372,391,412,431,452,472,491,512,532,551,572,591,611,631,651,672,691,712,731,751,772,791,811,831,851,871,891,911,931,951,972,992,1011,1031,1052,1071,1091,1111,1133,1151,1171,1192,1211,1232,1251,1272,1291,1312,1332,1351,1371,1391,1412,1432,1452,1471,1491,1511,1532,1552,1571,1592,1611,1632,1651,1671,1692,1712,1731,1751,1771,1792,1812,1832],"xSR":741.5,"ySR":469.95,"xT1":424.9,"yT1":0,"xT2":1058.1,"yT2":0,"toosoon":0,"cond_shown":"Congruent","ratio_trial":300,"L_num":24,"L_den":30,"R_num":8,"R_den":16,"correct_side":1,"subjID":"juanjosesanchezorozco8","gender":"0","school":"4","age":"9"},{"start_time":1552308907558,"click_time":1552308909564,"finger_time":1552308908284,"fix_duration":592.9987749887019,"trial":38,"RT":726,"MT":1280,"sideResp":1,"stimulus":[],"xmouse":[809,809,809,809,809,809,809,809,809,809,809,809,809,809,809,809,809,809,809,809,809,809,809,809,809,809,809,809,809,809,809,809,809,809,807,804,796,784,773,758,757,756,756,756,756,756,756,756,757,759,771,776,785,793,804,827,850,862,870,875,878,879,879,881,887,909,918,926,928,928,928,928,928,928,928,928,928,928,928,928,925,912,892,865,830,751,733,721,708,697,659,637,618,602,591,573,565,555,543,527,492],"ymouse":[497,497,497,497,497,497,497,497,497,497,497,497,497,497,497,497,497,497,497,497,497,497,497,497,497,497,497,497,497,497,497,497,497,497,497,486,453,420,395,358,344,329,319,311,308,305,303,291,278,259,218,202,182,164,145,99,53,33,18,11,5,4,4,3,3,6,8,11,12,12,12,12,12,12,12,12,12,12,12,12,17,23,33,42,51,60,60,60,58,54,44,40,38,37,37,37,37,37,37,37,37],"timestamp_mouse":[10,26,46,66,87,107,126,146,167,187,207,226,246,267,286,306,326,346,367,386,406,427,446,467,487,507,527,546,567,586,606,626,647,667,686,707,726,746,767,789,806,827,845,866,886,906,926,946,966,987,1007,1027,1047,1066,1087,1107,1126,1146,1166,1187,1206,1226,1246,1266,1286,1306,1327,1346,1367,1387,1407,1427,1446,1466,1487,1506,1526,1546,1567,1586,1607,1627,1647,1667,1687,1706,1727,1746,1766,1786,1806,1827,1846,1866,1886,1906,1927,1946,1967,1987,2006],"xSR":741.5,"ySR":469.95,"xT1":424.9,"yT1":0,"xT2":1058.1,"yT2":0,"toosoon":0,"cond_shown":"Congruent","ratio_trial":100,"L_num":1,"L_den":2,"R_num":18,"R_den":30,"correct_side":2,"subjID":"juanjosesanchezorozco8","gender":"0","school":"4","age":"9"},{"start_time":1552308912303,"click_time":1552308915505,"finger_time":1552308914885,"fix_duration":257.2281335465384,"trial":39,"RT":2582,"MT":620,"sideResp":2,"stimulus":[],"xmouse":[800,800,800,800,800,800,800,800,800,800,800,800,800,800,800,800,800,800,800,800,800,800,800,800,800,800,800,800,800,800,800,800,800,800,800,800,800,800,800,800,800,800,800,800,800,800,800,800,800,800,800,800,800,800,800,799,798,798,798,798,798,798,798,798,798,798,798,798,798,798,798,798,798,798,798,798,798,798,798,798,798,798,798,798,798,798,798,798,798,798,798,798,798,798,798,798,798,798,798,798,798,798,798,798,798,798,798,798,798,798,798,798,798,798,798,798,798,798,798,798,798,798,798,798,798,798,798,798,798,806,816,824,829,832,834,834,836,838,848,854,863,875,888,925,956,965,988,999,1006,1012,1016,1020,1025,1030,1033,1035,1036,1038,1042,1050,1061],"ymouse":[493,493,493,493,493,493,493,493,493,493,493,493,493,493,493,493,493,493,493,493,493,493,493,493,493,493,493,493,493,493,493,493,493,493,493,493,493,493,493,493,493,493,493,493,493,493,493,493,493,493,493,493,493,493,493,489,484,483,482,482,482,482,482,482,481,481,481,481,481,481,481,481,481,481,481,481,481,481,481,481,481,481,481,481,481,481,481,481,481,481,481,481,481,481,481,481,481,481,481,481,481,481,481,481,481,481,481,481,481,481,481,481,481,481,481,481,481,481,481,481,481,481,481,481,481,481,481,481,479,442,411,385,368,359,354,353,346,340,318,302,284,263,239,186,144,132,107,96,91,84,81,76,71,67,66,66,66,66,66,67,68],"timestamp_mouse":[10,22,43,61,81,101,122,142,161,181,201,222,242,262,281,301,321,342,362,382,402,421,442,461,482,502,522,542,561,582,602,621,642,661,681,702,721,742,761,781,802,822,841,861,882,902,921,942,962,982,1001,1022,1042,1061,1081,1102,1122,1141,1161,1181,1201,1222,1241,1261,1282,1302,1321,1342,1361,1382,1402,1421,1443,1462,1482,1502,1522,1541,1561,1582,1601,1621,1641,1662,1681,1701,1721,1742,1761,1781,1802,1821,1842,1861,1882,1902,1921,1942,1961,1982,2002,2021,2042,2061,2082,2101,2122,2141,2162,2182,2202,2222,2242,2261,2281,2302,2321,2341,2361,2382,2402,2421,2442,2461,2482,2501,2522,2542,2562,2582,2601,2621,2641,2661,2681,2701,2721,2741,2762,2781,2801,2822,2841,2863,2881,2901,2922,2941,2961,2981,3001,3022,3041,3062,3081,3101,3121,3141,3162,3181,3202],"xSR":741.5,"ySR":469.95,"xT1":424.9,"yT1":0,"xT2":1058.1,"yT2":0,"toosoon":0,"cond_shown":"Incongruent","ratio_trial":200,"L_num":1,"L_den":2,"R_num":3,"R_den":10,"correct_side":1,"subjID":"juanjosesanchezorozco8","gender":"0","school":"4","age":"9"},{"start_time":1552308921473,"click_time":1552308923004,"finger_time":1552308921884,"fix_duration":1148.3419814378951,"trial":40,"RT":411,"MT":1120,"sideResp":1,"stimulus":[],"xmouse":[773,773,773,773,773,773,773,773,773,773,773,773,773,773,773,773,773,774,777,779,786,792,797,801,804,807,807,807,807,807,807,807,807,807,807,807,808,809,809,809,809,809,807,795,791,768,761,755,750,747,739,717,701,685,660,627,616,605,595,586,577,553,542,536,524,513,507,505,502,500,493,491,489,488,487,484,478],"ymouse":[506,506,506,506,506,506,506,506,506,506,506,506,506,506,506,506,499,492,482,472,452,442,435,428,420,414,413,411,411,410,407,406,404,404,404,403,401,395,391,385,367,357,346,323,316,286,276,266,252,241,229,213,209,205,202,198,196,193,190,187,182,170,165,160,152,142,137,135,132,130,123,121,120,119,117,112,99],"timestamp_mouse":[11,43,51,72,92,111,132,151,171,192,211,231,251,271,292,311,332,352,372,392,411,431,451,472,491,512,531,551,570,592,611,631,651,671,692,712,731,751,771,792,812,831,852,871,892,912,931,952,972,992,1011,1031,1052,1072,1091,1112,1131,1151,1171,1192,1212,1231,1251,1272,1291,1312,1331,1351,1372,1392,1413,1431,1451,1471,1491,1512,1531],"xSR":741.5,"ySR":469.95,"xT1":424.9,"yT1":0,"xT2":1058.1,"yT2":0,"toosoon":0,"cond_shown":"Congruent","ratio_trial":200,"L_num":4,"L_den":8,"R_num":3,"R_den":10,"correct_side":1,"subjID":"juanjosesanchezorozco8","gender":"0","school":"4","age":"9"},{"start_time":1552308926888,"click_time":1552308928585,"finger_time":1552308928165,"fix_duration":1361.6419619212807,"trial":41,"RT":1277,"MT":420,"sideResp":1,"stimulus":[],"xmouse":[800,800,799,799,799,797,795,792,791,791,791,791,791,791,791,791,791,791,791,791,791,791,791,791,791,791,791,791,791,791,791,791,791,791,791,791,791,791,791,791,791,791,791,791,791,791,791,791,788,786,781,781,781,781,781,781,781,781,781,781,781,781,781,781,778,771,763,753,744,737,722,718,711,701,688,650,628,608,586,558,538,513,503,493,488],"ymouse":[511,511,511,511,511,512,513,513,513,513,513,513,513,513,513,513,513,513,513,513,513,513,513,513,513,513,513,513,513,513,513,513,513,513,513,513,513,513,513,513,513,513,513,513,513,513,513,513,513,513,513,513,513,513,513,513,513,513,513,513,513,497,470,441,406,359,338,312,291,277,256,251,245,237,229,212,203,194,188,176,167,140,123,108,99],"timestamp_mouse":[19,36,57,76,96,116,136,156,176,196,216,236,257,276,296,318,336,356,376,397,417,436,457,476,496,516,537,556,576,597,617,637,656,677,696,717,736,757,776,797,817,836,857,877,897,916,937,956,977,996,1017,1037,1056,1076,1097,1117,1137,1157,1176,1196,1217,1237,1257,1277,1296,1316,1336,1356,1376,1397,1416,1436,1456,1477,1496,1516,1537,1556,1577,1596,1616,1637,1656,1677,1697],"xSR":741.5,"ySR":469.95,"xT1":424.9,"yT1":0,"xT2":1058.1,"yT2":0,"toosoon":0,"cond_shown":"Congruent","ratio_trial":100,"L_num":9,"L_den":15,"R_num":8,"R_den":16,"correct_side":1,"subjID":"juanjosesanchezorozco8","gender":"0","school":"4","age":"9"},{"start_time":1552308936656,"click_time":1552308949004,"finger_time":1552308944565,"fix_duration":1288.463148539987,"trial":42,"RT":7909,"MT":4439,"sideResp":1,"stimulus":[],"xmouse":[779,779,779,779,779,779,779,779,779,779,779,779,779,779,779,779,779,779,779,779,779,779,779,779,779,779,779,779,779,780,781,781,781,781,780,779,779,779,779,779,779,779,779,779,779,779,779,779,779,779,779,779,779,779,779,779,779,779,779,779,779,779,779,779,779,779,779,779,779,779,779,779,779,779,779,779,779,779,779,779,779,779,779,779,779,779,779,779,779,779,779,779,779,779,779,779,779,779,779,779,779,779,779,779,779,779,779,779,779,779,779,779,779,779,779,779,779,779,779,779,779,779,779,779,779,779,779,779,779,779,779,779,779,779,779,779,779,779,779,779,779,779,779,779,779,779,779,779,779,779,779,779,779,779,779,779,779,779,779,779,779,779,779,779,779,779,779,779,779,779,779,779,779,779,779,779,779,779,779,779,779,779,779,779,779,779,779,779,779,779,779,779,779,779,779,779,779,779,779,779,779,779,779,779,779,779,779,779,779,779,779,779,779,779,779,779,779,779,779,779,779,779,779,779,779,779,779,779,779,779,779,779,779,779,779,779,779,779,779,779,779,779,779,779,779,779,779,779,779,779,779,779,779,779,779,779,779,779,779,779,779,779,779,779,779,779,779,779,779,779,779,779,779,779,779,779,779,779,779,779,779,779,779,777,777,780,802,814,822,822,823,823,823,823,823,823,823,823,823,823,823,823,823,823,823,823,823,823,823,823,823,823,823,823,823,823,823,823,823,823,823,823,823,823,823,823,823,823,823,823,823,823,823,823,823,823,823,823,823,823,823,823,823,823,823,823,823,823,823,823,823,823,823,823,823,823,823,823,823,823,823,823,823,823,823,823,823,823,823,823,823,823,823,823,823,823,823,823,823,823,823,823,823,823,823,823,823,823,823,823,823,823,823,823,824,818,814,812,812,812,812,812,812,812,812,812,812,812,812,812,812,812,812,812,812,812,812,812,812,812,812,812,812,812,812,812,812,812,812,812,812,812,812,812,812,812,812,812,812,812,812,812,812,812,812,812,812,812,812,812,812,812,812,812,812,812,812,812,812,812,812,812,812,812,812,812,812,812,812,812,812,812,812,812,812,812,812,812,812,812,812,812,812,812,812,812,812,812,812,812,812,812,812,812,812,812,812,812,812,812,812,812,812,812,812,812,812,812,812,812,812,812,812,812,812,812,812,812,812,812,812,812,812,812,812,812,812,812,812,812,812,812,812,812,812,812,812,812,812,812,812,812,812,812,812,812,812,812,812,812,812,812,812,812,812,812,812,812,812,812,812,812,812,812,812,812,812,812,812,812,812,812,812,812,812,812,812,802,726,726,726,726,726,726,726,726,726,726,726,726,726,726,726,726,726,726,726,726,726,726,726,726,726,726,726,726,726,726,726,726,726,726,726,726,726,726,726,480],"ymouse":[498,498,498,498,498,498,498,498,498,498,498,498,498,498,498,498,498,498,498,498,498,498,498,498,498,498,498,498,498,498,498,498,498,498,498,498,498,498,498,498,498,498,498,498,498,498,498,498,498,498,498,498,498,498,498,498,498,498,498,498,498,498,498,498,498,498,498,498,498,498,498,498,498,498,498,498,498,498,498,498,498,498,498,498,498,498,498,498,498,498,498,498,498,498,498,498,498,498,498,498,498,498,498,498,498,498,498,498,498,498,498,498,498,498,498,498,498,498,498,498,498,498,498,498,498,498,498,498,498,498,498,498,498,498,498,498,498,498,498,498,498,498,498,498,498,498,498,498,498,498,498,498,498,498,498,498,498,498,498,498,498,498,498,498,498,498,498,498,498,498,498,498,498,498,498,498,498,498,498,498,498,498,498,498,498,498,498,498,498,498,498,498,498,498,498,498,498,498,498,498,498,498,498,498,498,498,498,498,498,498,498,498,498,498,498,498,498,498,498,498,498,498,498,498,498,498,498,498,498,498,498,498,498,498,498,498,498,498,498,498,498,498,498,498,498,498,498,498,498,498,498,498,498,498,498,498,498,498,498,498,498,498,498,498,498,498,498,498,498,498,498,498,498,498,498,498,498,498,498,498,498,498,498,491,477,474,472,474,478,478,478,478,478,478,478,478,478,478,478,478,478,478,478,478,478,478,478,478,478,478,478,478,478,478,478,478,478,478,478,478,478,478,478,478,478,478,478,478,478,478,478,478,478,478,478,478,478,478,478,478,478,478,478,478,478,478,478,478,478,478,478,478,478,478,478,478,478,478,478,478,478,478,478,478,478,478,478,478,478,478,478,478,478,478,478,478,478,478,478,478,478,478,478,478,478,478,478,478,478,478,478,478,478,478,473,435,414,411,411,411,411,411,411,411,411,411,411,411,411,411,411,411,411,411,411,411,411,411,411,411,411,411,411,411,411,411,411,411,411,411,411,411,411,411,411,411,411,411,411,411,411,411,411,411,411,411,411,411,411,411,411,411,411,411,411,411,411,411,411,411,411,411,411,411,411,411,411,411,411,411,411,411,411,411,411,411,411,411,411,411,411,411,411,411,411,411,411,411,411,411,411,411,411,411,411,411,411,411,411,411,411,411,411,411,411,411,411,411,411,411,411,411,411,411,411,411,411,411,411,411,411,411,411,411,411,411,411,411,411,411,411,411,411,411,411,411,411,411,411,411,411,411,411,411,411,411,411,411,411,411,411,411,411,411,411,411,411,411,411,411,411,411,411,411,411,411,411,411,411,411,411,411,411,411,411,411,411,371,93,93,93,93,93,93,93,93,93,93,93,93,93,93,93,93,93,93,93,93,93,93,93,93,93,93,93,93,93,93,93,93,93,93,93,93,93,93,93,14],"timestamp_mouse":[10,28,56,68,89,109,129,149,169,189,209,229,249,269,289,309,328,348,368,389,409,428,449,469,488,509,529,549,569,589,609,629,649,669,688,709,728,749,768,789,809,829,848,868,888,909,928,948,969,988,1008,1029,1048,1067,1089,1109,1128,1148,1168,1188,1209,1229,1248,1268,1288,1309,1329,1348,1368,1388,1408,1428,1448,1468,1488,1509,1529,1548,1568,1589,1608,1629,1648,1669,1688,1709,1728,1749,1768,1789,1808,1829,1849,1867,1889,1909,1927,1949,1968,1988,2009,2029,2049,2068,2089,2109,2129,2149,2168,2188,2208,2228,2249,2268,2288,2309,2329,2349,2368,2389,2409,2428,2448,2468,2488,2509,2529,2549,2568,2589,2608,2628,2649,2668,2689,2708,2729,2749,2768,2788,2808,2829,2848,2868,2889,2909,2928,2948,2969,2988,3009,3029,3049,3068,3088,3108,3129,3148,3169,3188,3209,3228,3249,3268,3289,3309,3329,3349,3369,3389,3408,3429,3448,3468,3490,3508,3529,3549,3568,3589,3608,3629,3649,3669,3689,3709,3729,3748,3768,3789,3808,3829,3849,3868,3889,3909,3929,3949,3968,3988,4008,4029,4049,4068,4089,4108,4129,4148,4168,4189,4208,4228,4249,4268,4289,4309,4329,4348,4368,4388,4409,4428,4449,4468,4488,4508,4529,4550,4569,4589,4609,4629,4649,4669,4690,4708,4728,4748,4769,4788,4809,4829,4848,4869,4889,4908,4929,4949,4968,4989,5009,5029,5049,5069,5089,5108,5129,5149,5168,5188,5208,5228,5249,5268,5289,5308,5329,5349,5369,5388,5409,5429,5449,5469,5489,5508,5529,5548,5569,5588,5609,5629,5648,5669,5688,5708,5729,5749,5768,5788,5809,5828,5849,5869,5889,5909,5929,5949,5969,5988,6009,6028,6049,6068,6089,6109,6129,6149,6168,6188,6209,6228,6248,6268,6288,6308,6329,6350,6368,6388,6409,6428,6449,6468,6487,6508,6529,6548,6568,6588,6608,6629,6649,6668,6689,6708,6728,6749,6768,6788,6808,6828,6849,6869,6888,6908,6928,6948,6968,6988,7008,7028,7049,7069,7088,7109,7128,7149,7168,7188,7209,7228,7248,7268,7288,7309,7329,7348,7368,7389,7408,7428,7449,7467,7488,7509,7528,7549,7568,7588,7609,7628,7649,7668,7688,7708,7729,7748,7768,7789,7808,7829,7848,7868,7888,7909,7929,7949,7969,7989,8009,8028,8048,8068,8088,8109,8129,8149,8167,8188,8208,8228,8248,8268,8288,8308,8329,8349,8368,8389,8409,8429,8449,8469,8489,8507,8528,8549,8570,8588,8609,8628,8649,8667,8689,8709,8728,8748,8769,8788,8808,8829,8849,8869,8888,8908,8929,8948,8968,8988,9008,9027,9048,9068,9088,9109,9129,9149,9169,9188,9208,9229,9249,9267,9288,9309,9328,9349,9369,9388,9409,9429,9449,9467,9489,9509,9529,9549,9569,9589,9609,9629,9649,9668,9689,9708,9728,9749,9769,9788,9808,9828,9849,9868,9889,9909,9928,9947,9968,9988,10008,10029,10049,10068,10088,10108,10127,10149,10169,10188,10208,10229,10248,10268,10288,10308,10329,10349,10368,10388,10409,10429,10448,10469,10488,10509,10529,10549,10569,10588,10608,10629,10649,10668,10689,10708,10728,10748,10769,10788,10809,10828,10849,10868,10889,10909,10929,10948,10969,10988,11008,11029,11049,11069,11088,11109,11129,11148,11168,11188,11208,11229,11249,11268,11289,11310,11328,11348,11369,11389,11409,11429,11449,11468,11489,11509,11528,11548,11568,11589,11608,11629,11648,11669,11688,11708,11728,11748,11768,11788,11809,11829,11849,11868,11888,11909,11929,11948,11968,11989,12009,12029,12048,12068,12089,12110,12129,12149,12168,12188,12208,12228,12248,12267,12289,12309,12328,12348],"xSR":741.5,"ySR":469.95,"xT1":424.9,"yT1":0,"xT2":1058.1,"yT2":0,"toosoon":0,"cond_shown":"Congruent","ratio_trial":200,"L_num":16,"L_den":30,"R_num":9,"R_den":27,"correct_side":1,"subjID":"juanjosesanchezorozco8","gender":"0","school":"4","age":"9"},{"start_time":1552308950857,"click_time":1552308954544,"finger_time":1552308951624,"fix_duration":250,"trial":43,"RT":767,"MT":2920,"sideResp":2,"stimulus":[],"xmouse":[785,785,785,785,785,785,785,785,785,785,785,785,784,783,780,766,764,764,764,763,755,755,755,755,755,755,755,755,756,756,757,757,757,757,757,757,756,749,724,692,679,679,679,679,679,679,679,679,679,679,679,679,679,679,679,679,679,679,679,679,679,679,679,679,679,679,679,679,679,679,679,679,679,679,679,679,679,679,679,679,679,679,679,679,679,679,679,679,679,679,679,679,679,679,679,679,679,679,679,679,679,679,679,679,678,664,643,622,609,599,597,597,597,597,597,597,597,597,597,597,597,597,597,597,597,597,597,597,597,597,597,597,597,597,597,586,576,570,568,568,568,568,572,577,586,587,587,587,587,588,588,588,588,588,588,588,590,603,643,800,800,800,800,800,800,800,800,800,800,800,800,800,800,800,800,800,800,800,800,1243,1207,1197,1190,1175,1153],"ymouse":[498,498,498,498,498,498,498,498,498,498,498,498,498,498,498,520,536,538,538,539,528,524,523,523,523,523,523,523,523,524,524,524,524,525,525,525,526,517,478,431,413,413,413,413,413,413,413,413,413,413,413,413,413,413,413,413,413,413,413,413,413,413,413,413,413,413,413,413,413,413,413,413,413,413,413,413,413,413,413,413,413,413,413,413,413,413,413,413,413,413,413,413,413,413,413,413,413,413,413,413,413,413,413,413,412,356,254,173,135,124,123,123,123,123,123,123,123,123,123,123,123,123,123,123,123,123,123,123,123,123,123,123,123,123,123,121,118,118,117,117,117,117,114,109,102,100,100,100,100,100,100,100,100,100,100,100,100,96,85,24,24,24,24,24,24,24,24,24,24,24,24,24,24,24,24,24,24,24,24,41,58,60,60,60,60],"timestamp_mouse":[9,27,47,72,87,107,127,148,167,188,207,228,247,268,288,307,328,347,367,388,407,428,447,467,487,507,527,547,568,588,607,627,647,667,687,708,728,748,767,787,807,828,847,868,887,907,928,947,968,988,1007,1028,1047,1068,1087,1107,1127,1147,1167,1188,1207,1228,1248,1267,1287,1307,1328,1348,1368,1387,1407,1428,1448,1467,1489,1507,1528,1547,1567,1587,1608,1628,1648,1667,1688,1707,1728,1748,1767,1787,1808,1828,1848,1868,1888,1907,1927,1948,1967,1987,2008,2027,2047,2067,2087,2107,2127,2147,2168,2187,2207,2227,2247,2267,2287,2308,2327,2347,2367,2388,2407,2427,2448,2467,2487,2507,2527,2548,2567,2588,2607,2628,2647,2668,2687,2707,2728,2748,2767,2787,2807,2827,2848,2868,2889,2907,2928,2947,2968,2988,3007,3027,3048,3068,3087,3107,3127,3147,3168,3188,3207,3227,3247,3268,3287,3307,3327,3348,3367,3387,3407,3428,3447,3467,3487,3507,3527,3547,3568,3588,3607,3627,3648,3668,3687],"xSR":741.5,"ySR":469.95,"xT1":424.9,"yT1":0,"xT2":1058.1,"yT2":0,"toosoon":0,"cond_shown":"Congruent","ratio_trial":200,"L_num":1,"L_den":2,"R_num":21,"R_den":30,"correct_side":2,"subjID":"juanjosesanchezorozco8","gender":"0","school":"4","age":"9"},{"start_time":1552308955728,"click_time":1552308956984,"finger_time":1552308956585,"fix_duration":261.4914166646793,"trial":44,"RT":857,"MT":399,"sideResp":1,"stimulus":[],"xmouse":[793,793,793,793,793,794,794,794,794,794,794,794,794,794,794,794,794,795,796,797,797,797,797,797,797,797,797,797,797,797,797,797,797,797,797,797,797,797,797,797,797,797,796,785,780,755,726,717,710,706,703,698,690,687,679,666,662,644,624,606,584,541,522],"ymouse":[526,519,513,511,508,506,506,506,506,506,506,506,506,506,506,506,505,504,502,501,500,500,499,499,499,499,499,499,499,499,499,499,499,499,499,499,499,499,499,499,497,483,462,424,409,344,276,255,238,226,217,202,185,181,168,152,144,127,119,111,101,83,73],"timestamp_mouse":[24,36,56,77,97,116,137,157,176,197,217,236,257,276,296,316,336,357,376,397,417,437,456,476,497,517,536,556,576,597,616,636,657,677,696,716,736,757,777,797,816,837,857,876,896,917,937,956,975,997,1016,1036,1057,1076,1097,1117,1137,1156,1177,1197,1216,1237,1255],"xSR":741.5,"ySR":469.95,"xT1":424.9,"yT1":0,"xT2":1058.1,"yT2":0,"toosoon":0,"cond_shown":"Incongruent","ratio_trial":200,"L_num":4,"L_den":5,"R_num":6,"R_den":10,"correct_side":1,"subjID":"juanjosesanchezorozco8","gender":"0","school":"4","age":"9"},{"start_time":1552308959358,"click_time":1552308960204,"finger_time":1552308959484,"fix_duration":1232.433373066744,"trial":45,"RT":126,"MT":720,"sideResp":2,"stimulus":[],"xmouse":[779,779,779,779,779,780,780,774,766,761,758,757,757,757,757,757,769,777,787,799,815,857,870,881,894,905,970,1027,1074,1122,1146,1157,1157,1157,1160,1161,1162,1162,1162,1162,1161,1160,1158],"ymouse":[496,496,496,496,496,473,455,435,409,388,376,372,372,372,370,361,340,328,313,299,283,253,246,240,235,231,212,196,181,159,148,140,139,134,126,115,99,94,92,90,89,88,86],"timestamp_mouse":[11,27,47,65,86,107,126,146,166,187,207,226,246,266,286,306,327,346,366,386,406,427,447,467,487,507,527,546,567,586,606,627,646,667,686,705,725,746,766,787,807,827,846],"xSR":741.5,"ySR":469.95,"xT1":424.9,"yT1":0,"xT2":1058.1,"yT2":0,"toosoon":0,"cond_shown":"Incongruent","ratio_trial":100,"L_num":17,"L_den":30,"R_num":10,"R_den":15,"correct_side":2,"subjID":"juanjosesanchezorozco8","gender":"0","school":"4","age":"9"},{"start_time":1552308962395,"click_time":1552308963424,"finger_time":1552308962724,"fix_duration":1008.3506090229403,"trial":46,"RT":329,"MT":700,"sideResp":2,"stimulus":[],"xmouse":[800,800,800,800,800,800,800,800,800,800,800,800,800,800,800,801,806,808,796,783,782,782,781,781,781,784,790,800,817,844,861,874,885,89