[{"start_time":1552055074306,"click_time":1552055080533,"finger_time":1552055080053,"fix_duration":468.9893912988827,"trial":0,"RT":5747,"MT":480,"sideResp":1,"stimulus":"img/900/randomdotsizeEA/L/2_Ratio_900_L_20_R_18.png","xmouse":[791,791,791,791,791,791,791,791,791,791,791,791,791,791,791,791,791,791,791,791,791,791,791,791,791,791,791,791,791,791,791,791,791,791,791,791,791,791,791,791,791,791,791,791,791,791,791,791,791,791,791,791,791,791,791,791,791,791,791,791,791,791,791,791,791,791,791,791,791,791,791,791,791,791,791,791,791,791,791,791,791,791,791,791,791,791,791,791,791,791,791,791,791,791,791,791,791,791,791,791,791,791,791,791,791,791,791,791,791,791,791,791,791,791,791,791,791,791,791,791,791,791,791,791,791,791,791,791,791,791,791,791,791,791,791,791,791,791,789,789,789,789,789,789,789,789,789,789,789,789,789,789,789,789,789,789,789,789,789,789,789,789,789,789,789,789,789,789,788,784,782,781,778,778,778,776,775,774,774,773,773,774,777,778,779,779,779,779,779,779,779,779,779,779,779,779,779,779,779,779,779,779,779,779,779,779,779,779,779,779,779,779,779,779,779,779,779,779,779,779,779,784,789,791,792,792,792,792,792,792,792,792,792,792,792,792,792,792,792,792,792,792,792,792,792,792,792,792,792,792,792,792,792,792,792,790,787,783,783,782,782,782,782,782,782,782,782,782,782,782,782,782,782,782,782,782,782,782,782,781,781,781,780,777,774,772,772,787,800,813,815,815,780,780,780,780,780,780,780,780,780,780,780,780,780,780,780,780,780,780,449,444],"ymouse":[545,545,545,545,545,545,545,545,545,545,545,545,545,545,545,545,545,545,545,545,545,545,545,545,545,545,545,545,545,545,545,545,545,545,545,545,545,545,545,545,545,545,545,545,545,545,545,545,545,545,545,545,545,545,545,545,545,545,545,545,545,545,545,545,545,545,545,545,545,545,545,545,545,545,545,545,545,545,545,545,545,545,545,545,545,545,545,545,545,545,545,545,545,545,545,545,545,545,545,545,545,545,545,545,545,545,545,545,545,545,545,545,545,545,545,545,545,545,545,545,545,545,545,545,545,545,545,545,545,545,545,545,545,545,545,545,545,545,545,545,545,545,545,545,545,545,545,545,545,545,545,545,545,545,545,545,545,545,545,545,545,545,545,545,545,545,545,545,545,544,543,542,541,541,541,540,540,539,539,538,534,531,526,524,523,522,521,521,521,521,521,521,521,521,521,521,521,521,521,521,521,521,521,521,521,521,521,521,521,521,521,521,521,521,521,521,521,521,521,521,521,519,516,515,515,515,515,515,515,515,515,515,515,515,515,515,515,515,515,515,515,514,513,513,513,513,513,513,513,513,513,513,513,513,512,512,510,509,509,508,508,508,508,508,508,508,508,508,508,508,508,508,508,508,508,508,508,508,508,508,508,508,508,507,505,497,483,422,376,315,241,165,33,33,33,33,33,33,33,33,33,33,33,33,33,33,33,33,33,33,0,4],"timestamp_mouse":[10,40,46,66,86,106,126,147,167,187,206,226,246,266,286,306,327,346,367,386,406,427,447,466,487,508,526,548,567,586,608,627,646,667,687,706,727,748,766,786,806,826,848,867,887,908,926,947,966,987,1006,1026,1047,1066,1087,1107,1126,1147,1166,1187,1207,1226,1246,1267,1288,1307,1326,1347,1367,1386,1407,1426,1447,1467,1486,1508,1527,1547,1566,1587,1608,1626,1647,1666,1687,1706,1726,1746,1767,1787,1807,1827,1847,1867,1886,1907,1927,1948,1967,1987,2007,2027,2048,2068,2088,2106,2126,2147,2166,2187,2206,2226,2248,2268,2286,2307,2326,2347,2366,2386,2408,2427,2446,2467,2487,2508,2526,2547,2567,2588,2606,2626,2648,2667,2687,2706,2726,2746,2767,2787,2806,2827,2848,2867,2886,2907,2927,2946,2966,2988,3008,3026,3046,3066,3087,3108,3127,3146,3166,3188,3207,3226,3246,3266,3287,3306,3327,3346,3366,3386,3406,3426,3446,3466,3486,3507,3527,3546,3566,3587,3607,3627,3646,3667,3687,3707,3727,3746,3766,3786,3807,3826,3848,3867,3886,3907,3927,3946,3966,3988,4007,4027,4046,4066,4086,4108,4126,4146,4167,4187,4207,4226,4246,4267,4286,4308,4326,4346,4367,4388,4406,4427,4446,4467,4487,4506,4527,4547,4567,4587,4607,4626,4646,4666,4687,4707,4726,4748,4767,4786,4806,4827,4847,4867,4887,4906,4928,4947,4967,4987,5007,5026,5046,5066,5086,5108,5127,5146,5166,5187,5207,5227,5246,5266,5286,5307,5327,5346,5366,5386,5407,5428,5446,5467,5488,5507,5527,5547,5566,5587,5606,5627,5646,5666,5686,5706,5726,5747,5766,5786,5806,5827,5846,5866,5888,5907,5927,5947,5966,5987,6007,6027,6047,6067,6087,6106,6126,6146,6167,6186,6207,6227],"xSR":728,"ySR":493.35,"xT1":416.79999999999995,"yT1":0,"xT2":1039.1999999999998,"yT2":0,"toosoon":0,"cond_shown":"randomdotsizeEA","ratio_trial":900,"smaller_num":"18","larger_num":"20","correct_side":1,"subjID":"JuanMartínBlancoNarvaéz25","gender":"0","age":"9","school":"4","test":{"fix_dur":[250,1500],"timestim":300,"targets_dim":[100,100],"targets_relative_coord":[0.3,0.7],"size_stim":[880,420],"start_dim":[100,100],"size_start":[300,300],"size_fix":60,"samplingrate":20,"img_types":["equaldotsize","equaldotanddens","randomdotsizeEA"],"ratios":[250,500,750,900],"rep_conds":9,"nTrials":120,"trials_to_rest":500,"Trials_order":[47,95,76,50,49,116,34,89,30,67,41,12,115,108,21,114,111,33,44,15,74,109,37,73,11,29,97,45,69,25,43,4,104,31,1,27,110,107,63,79,113,96,87,119,92,59,20,26,86,71,35,105,93,52,56,17,10,13,55,66,18,8,3,46,100,81,98,0,61,85,80,40,53,51,90,118,99,88,75,78,70,6,102,65,57,103,19,14,60,42,23,48,91,94,32,112,5,62,72,2,28,58,22,106,101,68,84,38,54,9,82,83,36,39,77,7,16,117,64,24],"cond_shown":["randomdotsizeEA","randomdotsizeEA","equaldotanddens","randomdotsizeEA","equaldotanddens","randomdotsizeEA","equaldotanddens","randomdotsizeEA","equaldotsize","equaldotanddens","randomdotsizeEA","equaldotsize","equaldotanddens","equaldotsize","equaldotsize","equaldotsize","equaldotsize","equaldotsize","randomdotsizeEA","equaldotsize","randomdotsizeEA","equaldotanddens","equaldotanddens","equaldotanddens","randomdotsizeEA","randomdotsizeEA","equaldotanddens","equaldotsize","equaldotsize","equaldotanddens","equaldotanddens","equaldotanddens","randomdotsizeEA","equaldotanddens","equaldotanddens","equaldotsize","randomdotsizeEA","randomdotsizeEA","equaldotsize","equaldotanddens","randomdotsizeEA","equaldotsize","equaldotsize","randomdotsizeEA","randomdotsizeEA","randomdotsizeEA","randomdotsizeEA","randomdotsizeEA","randomdotsizeEA","randomdotsizeEA","randomdotsizeEA","equaldotsize","equaldotsize","equaldotanddens","randomdotsizeEA","randomdotsizeEA","equaldotanddens","equaldotanddens","equaldotanddens","equaldotsize","equaldotsize","randomdotsizeEA","equaldotsize","equaldotanddens","equaldotanddens","equaldotsize","randomdotsizeEA","equaldotsize","equaldotanddens","equaldotanddens","randomdotsizeEA","equaldotanddens","randomdotsizeEA","equaldotsize","equaldotsize","equaldotanddens","equaldotsize","equaldotanddens","equaldotsize","equaldotsize","equaldotanddens","equaldotsize","equaldotsize","randomdotsizeEA","equaldotsize","equaldotanddens","equaldotanddens","randomdotsizeEA","equaldotsize","equaldotsize","randomdotsizeEA","equaldotsize","equaldotanddens","equaldotanddens","randomdotsizeEA","equaldotanddens","randomdotsizeEA","randomdotsizeEA","equaldotsize","randomdotsizeEA","equaldotanddens","equaldotanddens","equaldotanddens","equaldotanddens","randomdotsizeEA","randomdotsizeEA","equaldotsize","randomdotsizeEA","equaldotsize","equaldotsize","equaldotanddens","randomdotsizeEA","equaldotsize","equaldotsize","randomdotsizeEA","equaldotanddens","equaldotanddens","equaldotsize","equaldotanddens","equaldotsize"],"ratio_trial":[900,900,500,250,250,750,900,500,750,750,500,250,750,250,900,750,500,900,750,500,250,250,250,250,900,500,250,900,900,250,750,500,750,750,250,500,250,900,500,750,500,250,500,900,750,900,750,250,250,900,900,900,900,500,750,500,900,250,750,750,750,750,500,900,500,900,250,250,250,250,750,500,500,500,750,900,500,500,500,750,900,750,750,500,900,750,750,250,250,750,900,250,750,900,750,500,500,250,250,250,500,900,900,900,500,750,250,250,750,900,900,900,250,500,500,750,500,900,500,250],"smaller_num":["18","18","9","4","4","6","18","6","6","12","3","3","3","5","9","18","4","18","18","1","2","4","3","6","9","9","6","18","18","6","6","1","12","6","1","6","4","9","2","15","2","3","6","9","6","18","3","1","4","18","9","9","9","9","12","9","18","3","6","15","3","9","1","18","9","18","6","2","5","3","3","5","5","6","15","18","9","4","6","15","9","6","6","5","18","15","3","3","3","15","18","3","3","9","3","9","4","3","1","5","9","9","18","9","4","3","3","3","6","9","9","18","3","9","10","3","1","18","3","6"],"larger_num":["20","20","18","16","16","8","20","12","8","16","6","12","4","20","10","24","8","20","24","2","8","16","12","24","10","18","24","20","20","24","8","2","16","8","4","12","16","10","4","20","4","12","12","10","8","20","4","4","16","20","10","10","10","18","16","18","20","12","8","20","4","12","2","20","18","20","24","8","20","12","4","10","10","12","20","20","18","8","12","20","10","8","8","10","20","20","4","12","12","20","20","12","4","10","4","18","8","12","4","20","18","10","20","10","8","4","12","12","8","10","10","20","12","18","20","4","2","20","6","24"],"correct_side":[1,1,2,2,2,1,2,1,1,2,2,2,1,2,1,1,1,2,1,2,2,1,1,1,1,2,2,1,2,2,1,2,2,1,2,1,2,2,2,2,1,2,1,1,1,2,2,2,2,2,1,2,2,1,2,2,2,1,1,1,1,2,2,1,2,1,2,1,2,2,1,2,2,1,2,2,2,1,1,2,2,1,1,2,1,2,1,2,2,2,2,1,1,1,2,1,1,2,2,2,1,1,2,2,1,2,1,2,2,1,1,2,2,2,2,1,2,2,2,1],"img_shown":["img/900/randomdotsizeEA/L/2_Ratio_900_L_20_R_18.png","img/900/randomdotsizeEA/L/2_Ratio_900_L_20_R_18.png","img/500/equaldotanddens/R/1_Ratio_500_L_9_R_18.png","img/250/randomdotsizeEA/R/10_Ratio_250_L_4_R_16.png","img/250/equaldotanddens/R/10_Ratio_250_L_4_R_16.png","img/750/randomdotsizeEA/L/14_Ratio_750_L_8_R_6.png","img/900/equaldotanddens/R/13_Ratio_900_L_18_R_20.png","img/500/randomdotsizeEA/L/11_Ratio_500_L_12_R_6.png","img/750/equaldotsize/L/13_Ratio_750_L_8_R_6.png","img/750/equaldotanddens/R/11_Ratio_750_L_12_R_16.png","img/500/randomdotsizeEA/R/2_Ratio_500_L_3_R_6.png","img/250/equaldotsize/R/9_Ratio_250_L_3_R_12.png","img/750/equaldotanddens/L/9_Ratio_750_L_4_R_3.png","img/250/equaldotsize/R/12_Ratio_250_L_5_R_20.png","img/900/equaldotsize/L/1_Ratio_900_L_10_R_9.png","img/750/equaldotsize/L/6_Ratio_750_L_24_R_18.png","img/500/equaldotsize/L/8_Ratio_500_L_8_R_4.png","img/900/equaldotsize/R/13_Ratio_900_L_18_R_20.png","img/750/randomdotsizeEA/L/6_Ratio_750_L_24_R_18.png","img/500/equaldotsize/R/12_Ratio_500_L_1_R_2.png","img/250/randomdotsizeEA/R/13_Ratio_250_L_2_R_8.png","img/250/equaldotanddens/L/2_Ratio_250_L_16_R_4.png","img/250/equaldotanddens/L/14_Ratio_250_L_12_R_3.png","img/250/equaldotanddens/L/5_Ratio_250_L_24_R_6.png","img/900/randomdotsizeEA/L/1_Ratio_900_L_10_R_9.png","img/500/randomdotsizeEA/R/6_Ratio_500_L_9_R_18.png","img/250/equaldotanddens/R/6_Ratio_250_L_6_R_24.png","img/900/equaldotsize/L/10_Ratio_900_L_20_R_18.png","img/900/equaldotsize/R/12_Ratio_900_L_18_R_20.png","img/250/equaldotanddens/R/6_Ratio_250_L_6_R_24.png","img/750/equaldotanddens/L/13_Ratio_750_L_8_R_6.png","img/500/equaldotanddens/R/12_Ratio_500_L_1_R_2.png","img/750/randomdotsizeEA/R/11_Ratio_750_L_12_R_16.png","img/750/equaldotanddens/L/13_Ratio_750_L_8_R_6.png","img/250/equaldotanddens/R/8_Ratio_250_L_1_R_4.png","img/500/equaldotsize/L/13_Ratio_500_L_12_R_6.png","img/250/randomdotsizeEA/R/10_Ratio_250_L_4_R_16.png","img/900/randomdotsizeEA/R/3_Ratio_900_L_9_R_10.png","img/500/equaldotsize/R/9_Ratio_500_L_2_R_4.png","img/750/equaldotanddens/R/4_Ratio_750_L_15_R_20.png","img/500/randomdotsizeEA/L/5_Ratio_500_L_4_R_2.png","img/250/equaldotsize/R/4_Ratio_250_L_3_R_12.png","img/500/equaldotsize/L/13_Ratio_500_L_12_R_6.png","img/900/randomdotsizeEA/L/1_Ratio_900_L_10_R_9.png","img/750/randomdotsizeEA/L/13_Ratio_750_L_8_R_6.png","img/900/randomdotsizeEA/R/9_Ratio_900_L_18_R_20.png","img/750/randomdotsizeEA/R/7_Ratio_750_L_3_R_4.png","img/250/randomdotsizeEA/R/8_Ratio_250_L_1_R_4.png","img/250/randomdotsizeEA/R/10_Ratio_250_L_4_R_16.png","img/900/randomdotsizeEA/R/14_Ratio_900_L_18_R_20.png","img/900/randomdotsizeEA/L/1_Ratio_900_L_10_R_9.png","img/900/equaldotsize/R/15_Ratio_900_L_9_R_10.png","img/900/equaldotsize/R/5_Ratio_900_L_9_R_10.png","img/500/equaldotanddens/L/4_Ratio_500_L_18_R_9.png","img/750/randomdotsizeEA/R/11_Ratio_750_L_12_R_16.png","img/500/randomdotsizeEA/R/6_Ratio_500_L_9_R_18.png","img/900/equaldotanddens/R/14_Ratio_900_L_18_R_20.png","img/250/equaldotanddens/L/15_Ratio_250_L_12_R_3.png","img/750/equaldotanddens/L/13_Ratio_750_L_8_R_6.png","img/750/equaldotsize/L/1_Ratio_750_L_20_R_15.png","img/750/equaldotsize/L/8_Ratio_750_L_4_R_3.png","img/750/randomdotsizeEA/R/15_Ratio_750_L_9_R_12.png","img/500/equaldotsize/R/12_Ratio_500_L_1_R_2.png","img/900/equaldotanddens/L/10_Ratio_900_L_20_R_18.png","img/500/equaldotanddens/R/6_Ratio_500_L_9_R_18.png","img/900/equaldotsize/L/2_Ratio_900_L_20_R_18.png","img/250/randomdotsizeEA/R/6_Ratio_250_L_6_R_24.png","img/250/equaldotsize/L/1_Ratio_250_L_8_R_2.png","img/250/equaldotanddens/R/12_Ratio_250_L_5_R_20.png","img/250/equaldotanddens/R/11_Ratio_250_L_3_R_12.png","img/750/randomdotsizeEA/L/8_Ratio_750_L_4_R_3.png","img/500/equaldotanddens/R/14_Ratio_500_L_5_R_10.png","img/500/randomdotsizeEA/R/14_Ratio_500_L_5_R_10.png","img/500/equaldotsize/L/11_Ratio_500_L_12_R_6.png","img/750/equaldotsize/R/5_Ratio_750_L_15_R_20.png","img/900/equaldotanddens/R/9_Ratio_900_L_18_R_20.png","img/500/equaldotsize/R/1_Ratio_500_L_9_R_18.png","img/500/equaldotanddens/L/8_Ratio_500_L_8_R_4.png","img/500/equaldotsize/L/11_Ratio_500_L_12_R_6.png","img/750/equaldotsize/R/3_Ratio_750_L_15_R_20.png","img/900/equaldotanddens/R/6_Ratio_900_L_9_R_10.png","img/750/equaldotsize/L/14_Ratio_750_L_8_R_6.png","img/750/equaldotsize/L/14_Ratio_750_L_8_R_6.png","img/500/randomdotsizeEA/R/14_Ratio_500_L_5_R_10.png","img/900/equaldotsize/L/8_Ratio_900_L_20_R_18.png","img/750/equaldotanddens/R/5_Ratio_750_L_15_R_20.png","img/750/equaldotanddens/L/8_Ratio_750_L_4_R_3.png","img/250/randomdotsizeEA/R/9_Ratio_250_L_3_R_12.png","img/250/equaldotsize/R/4_Ratio_250_L_3_R_12.png","img/750/equaldotsize/R/4_Ratio_750_L_15_R_20.png","img/900/randomdotsizeEA/R/11_Ratio_900_L_18_R_20.png","img/250/equaldotsize/L/14_Ratio_250_L_12_R_3.png","img/750/equaldotanddens/L/8_Ratio_750_L_4_R_3.png","img/900/equaldotanddens/L/1_Ratio_900_L_10_R_9.png","img/750/randomdotsizeEA/R/12_Ratio_750_L_3_R_4.png","img/500/equaldotanddens/L/4_Ratio_500_L_18_R_9.png","img/500/randomdotsizeEA/L/8_Ratio_500_L_8_R_4.png","img/250/randomdotsizeEA/R/9_Ratio_250_L_3_R_12.png","img/250/equaldotsize/R/8_Ratio_250_L_1_R_4.png","img/250/randomdotsizeEA/R/12_Ratio_250_L_5_R_20.png","img/500/equaldotanddens/L/4_Ratio_500_L_18_R_9.png","img/900/equaldotanddens/L/1_Ratio_900_L_10_R_9.png","img/900/equaldotanddens/R/11_Ratio_900_L_18_R_20.png","img/900/equaldotanddens/R/15_Ratio_900_L_9_R_10.png","img/500/randomdotsizeEA/L/8_Ratio_500_L_8_R_4.png","img/750/randomdotsizeEA/R/7_Ratio_750_L_3_R_4.png","img/250/equaldotsize/L/15_Ratio_250_L_12_R_3.png","img/250/randomdotsizeEA/R/9_Ratio_250_L_3_R_12.png","img/750/equaldotsize/R/2_Ratio_750_L_6_R_8.png","img/900/equaldotsize/L/1_Ratio_900_L_10_R_9.png","img/900/equaldotanddens/L/1_Ratio_900_L_10_R_9.png","img/900/randomdotsizeEA/R/9_Ratio_900_L_18_R_20.png","img/250/equaldotsize/R/11_Ratio_250_L_3_R_12.png","img/500/equaldotsize/R/1_Ratio_500_L_9_R_18.png","img/500/randomdotsizeEA/R/3_Ratio_500_L_10_R_20.png","img/750/equaldotanddens/L/9_Ratio_750_L_4_R_3.png","img/500/equaldotanddens/R/15_Ratio_500_L_1_R_2.png","img/900/equaldotsize/R/9_Ratio_900_L_18_R_20.png","img/500/equaldotanddens/R/2_Ratio_500_L_3_R_6.png","img/250/equaldotsize/L/5_Ratio_250_L_24_R_6.png"],"Rat0":[["12_Ratio_0_L_9_R_0.png","13_Ratio_0_L_6_R_0.png","5_Ratio_0_L_2_R_0.png","6_Ratio_0_L_4_R_0.png","8_Ratio_0_L_6_R_0.png"],["1_Ratio_0_L_0_R_17.png","10_Ratio_0_L_0_R_22.png","11_Ratio_0_L_0_R_1.png","14_Ratio_0_L_0_R_24.png","15_Ratio_0_L_0_R_4.png","2_Ratio_0_L_0_R_5.png","3_Ratio_0_L_0_R_17.png","4_Ratio_0_L_0_R_7.png","7_Ratio_0_L_0_R_19.png","9_Ratio_0_L_0_R_15.png"]],"Rat250":[["1_Ratio_250_L_8_R_2.png","14_Ratio_250_L_12_R_3.png","15_Ratio_250_L_12_R_3.png","2_Ratio_250_L_16_R_4.png","3_Ratio_250_L_8_R_2.png","5_Ratio_250_L_24_R_6.png","7_Ratio_250_L_8_R_2.png"],["10_Ratio_250_L_4_R_16.png","11_Ratio_250_L_3_R_12.png","12_Ratio_250_L_5_R_20.png","13_Ratio_250_L_2_R_8.png","4_Ratio_250_L_3_R_12.png","6_Ratio_250_L_6_R_24.png","8_Ratio_250_L_1_R_4.png","9_Ratio_250_L_3_R_12.png"]],"Rat500":[["10_Ratio_500_L_4_R_2.png","11_Ratio_500_L_12_R_6.png","13_Ratio_500_L_12_R_6.png","4_Ratio_500_L_18_R_9.png","5_Ratio_500_L_4_R_2.png","7_Ratio_500_L_10_R_5.png","8_Ratio_500_L_8_R_4.png"],["1_Ratio_500_L_9_R_18.png","12_Ratio_500_L_1_R_2.png","14_Ratio_500_L_5_R_10.png","15_Ratio_500_L_1_R_2.png","2_Ratio_500_L_3_R_6.png","3_Ratio_500_L_10_R_20.png","6_Ratio_500_L_9_R_18.png","9_Ratio_500_L_2_R_4.png"]],"Rat750":[["1_Ratio_750_L_20_R_15.png","10_Ratio_750_L_4_R_3.png","13_Ratio_750_L_8_R_6.png","14_Ratio_750_L_8_R_6.png","6_Ratio_750_L_24_R_18.png","8_Ratio_750_L_4_R_3.png","9_Ratio_750_L_4_R_3.png"],["11_Ratio_750_L_12_R_16.png","12_Ratio_750_L_3_R_4.png","15_Ratio_750_L_9_R_12.png","2_Ratio_750_L_6_R_8.png","3_Ratio_750_L_15_R_20.png","4_Ratio_750_L_15_R_20.png","5_Ratio_750_L_15_R_20.png","7_Ratio_750_L_3_R_4.png"]],"Rat900":[["1_Ratio_900_L_10_R_9.png","10_Ratio_900_L_20_R_18.png","2_Ratio_900_L_20_R_18.png","4_Ratio_900_L_20_R_18.png","8_Ratio_900_L_20_R_18.png"],["11_Ratio_900_L_18_R_20.png","12_Ratio_900_L_18_R_20.png","13_Ratio_900_L_18_R_20.png","14_Ratio_900_L_18_R_20.png","15_Ratio_900_L_9_R_10.png","3_Ratio_900_L_9_R_10.png","5_Ratio_900_L_9_R_10.png","6_Ratio_900_L_9_R_10.png","7_Ratio_900_L_9_R_10.png","9_Ratio_900_L_18_R_20.png"]],"Rat1000":[["10_Ratio_1000_L_16_R_16.png","11_Ratio_1000_L_6_R_6.png","12_Ratio_1000_L_14_R_14.png","13_Ratio_1000_L_20_R_20.png","15_Ratio_1000_L_15_R_15.png","2_Ratio_1000_L_17_R_17.png","4_Ratio_1000_L_9_R_9.png","5_Ratio_1000_L_6_R_6.png","6_Ratio_1000_L_19_R_19.png","8_Ratio_1000_L_14_R_14.png","9_Ratio_1000_L_25_R_25.png"],["1_Ratio_1000_L_1_R_1.png","14_Ratio_1000_L_17_R_17.png","3_Ratio_1000_L_17_R_17.png","7_Ratio_1000_L_6_R_6.png"]]}},{"start_time":1552055083622,"click_time":1552055085212,"finger_time":1552055084292,"fix_duration":525.4144754326679,"trial":1,"RT":670,"MT":920,"sideResp":1,"stimulus":"img/900/randomdotsizeEA/L/2_Ratio_900_L_20_R_18.png","xmouse":[773,773,773,773,773,773,773,773,773,773,773,773,773,773,773,773,773,773,773,773,773,773,773,773,773,773,773,773,773,773,772,772,782,789,794,798,805,820,831,842,855,864,886,893,900,909,913,920,921,921,922,922,922,922,922,922,921,892,869,843,820,802,771,749,734,722,709,686,676,665,652,634,595,578,561,551,543,531,526,524],"ymouse":[506,506,506,506,506,506,506,506,506,506,506,506,506,506,506,506,506,506,506,506,506,506,506,506,506,506,506,506,506,506,505,502,480,462,453,446,437,419,403,388,371,355,322,310,299,284,278,269,267,266,264,264,264,264,264,264,264,264,261,255,245,236,216,199,187,173,159,137,129,122,116,109,101,99,95,90,87,81,77,75],"timestamp_mouse":[10,32,50,71,91,111,131,152,172,191,211,230,251,271,292,311,330,351,372,392,411,430,452,471,491,510,530,550,570,591,610,631,650,670,690,711,730,751,771,790,810,831,851,870,890,910,930,951,970,990,1011,1031,1050,1071,1091,1111,1131,1150,1170,1191,1211,1230,1250,1271,1290,1311,1331,1350,1370,1390,1410,1431,1450,1471,1490,1511,1531,1551,1571,1590],"xSR":741.5,"ySR":469.95,"xT1":424.9,"yT1":0,"xT2":1058.1,"yT2":0,"toosoon":0,"cond_shown":"randomdotsizeEA","ratio_trial":900,"smaller_num":"18","larger_num":"20","correct_side":1,"subjID":"JuanMartínBlancoNarvaéz25","gender":"0","age":"9","school":"4"},{"start_time":1552055087059,"click_time":1552055088274,"finger_time":1552055087772,"fix_duration":525.0267350793418,"trial":2,"RT":713,"MT":502,"sideResp":2,"stimulus":"img/500/equaldotanddens/R/1_Ratio_500_L_9_R_18.png","xmouse":[787,787,787,787,787,779,759,751,750,750,750,750,750,750,750,750,750,750,750,750,750,750,750,750,750,750,750,750,750,750,750,754,767,782,813,871,1004,1079,1162,1162,1162,1162,1162,1162,1162,1162,1162,1162,1162,1162,1162,1162,1162,1162,1162,1162,1162,1162,1168,1165,1139],"ymouse":[541,541,541,541,541,541,541,541,541,541,541,541,541,541,541,541,541,541,541,541,541,541,541,541,541,541,541,541,541,541,541,534,523,506,473,406,250,156,32,32,32,32,32,32,32,32,32,32,32,32,32,32,32,32,32,32,32,32,0,5,45],"timestamp_mouse":[24,40,53,73,93,113,133,155,175,193,214,234,253,273,293,314,334,353,373,393,413,434,454,474,493,513,533,553,573,594,613,633,653,674,694,713,733,753,774,793,814,834,853,874,894,915,933,953,973,993,1013,1033,1054,1074,1093,1114,1133,1153,1173,1194,1214],"xSR":741.5,"ySR":469.95,"xT1":424.9,"yT1":0,"xT2":1058.1,"yT2":0,"toosoon":0,"cond_shown":"equaldotanddens","ratio_trial":500,"smaller_num":"9","larger_num":"18","correct_side":2,"subjID":"JuanMartínBlancoNarvaéz25","gender":"0","age":"9","school":"4"},{"start_time":1552055090485,"click_time":1552055092054,"finger_time":1552055091552,"fix_duration":250,"trial":3,"RT":1067,"MT":502,"sideResp":2,"stimulus":"img/250/randomdotsizeEA/R/10_Ratio_250_L_4_R_16.png","xmouse":[761,761,761,761,761,761,761,761,761,761,761,761,761,761,761,761,761,761,761,761,761,761,761,761,761,761,761,761,761,761,761,761,761,761,761,761,761,761,761,761,761,761,761,761,761,761,761,761,761,762,770,775,783,790,798,820,834,847,860,877,907,926,944,964,979,1004,1013,1021,1028,1037,1048,1051,1054,1056,1058,1060,1063,1069,1073],"ymouse":[518,518,518,518,518,518,518,518,518,518,518,518,518,518,518,518,518,518,518,518,518,518,518,518,518,518,518,518,518,518,518,518,518,518,518,518,518,518,518,518,518,518,518,518,518,518,518,518,516,513,500,489,481,469,455,426,409,393,377,351,315,293,273,251,232,201,190,179,170,158,144,137,132,129,127,122,114,105,97],"timestamp_mouse":[12,34,48,67,88,109,128,148,169,189,208,228,248,268,289,309,327,348,368,389,409,428,448,467,488,508,528,549,569,589,608,628,647,668,689,708,728,748,767,788,808,828,847,867,889,908,928,947,969,988,1007,1027,1047,1067,1087,1107,1127,1147,1169,1187,1207,1227,1247,1267,1288,1307,1327,1347,1367,1387,1408,1428,1447,1467,1488,1507,1527,1547,1569],"xSR":741.5,"ySR":469.95,"xT1":424.9,"yT1":0,"xT2":1058.1,"yT2":0,"toosoon":0,"cond_shown":"randomdotsizeEA","ratio_trial":250,"smaller_num":"4","larger_num":"16","correct_side":2,"subjID":"JuanMartínBlancoNarvaéz25","gender":"0","age":"9","school":"4"},{"start_time":1552055093839,"click_time":1552055095093,"finger_time":1552055094512,"fix_duration":506.66842224860574,"trial":4,"RT":673,"MT":581,"sideResp":2,"stimulus":"img/250/equaldotanddens/R/10_Ratio_250_L_4_R_16.png","xmouse":[759,759,759,759,759,759,759,759,759,759,759,759,759,759,759,759,759,759,759,759,759,759,759,759,759,759,759,759,759,759,759,759,759,769,784,803,827,897,915,957,979,998,1029,1039,1044,1044,1044,1044,1044,1044,1044,1044,1044,1044,1044,1044,1044,1044,1044,1044,1057,1057,1060],"ymouse":[473,473,473,473,473,473,473,473,473,473,473,473,473,473,473,473,473,473,473,473,473,473,473,473,473,473,473,473,473,473,473,473,470,451,425,384,344,247,224,168,128,97,35,13,3,3,3,3,3,3,3,3,3,3,3,3,3,3,3,3,6,15,34],"timestamp_mouse":[15,33,53,75,94,114,133,155,173,194,213,233,253,273,293,313,335,355,373,394,415,434,453,474,493,514,534,553,574,593,615,635,653,673,693,714,733,754,774,793,813,833,853,873,893,913,933,953,973,993,1014,1034,1054,1075,1094,1113,1134,1154,1173,1193,1214,1234,1253],"xSR":741.5,"ySR":469.95,"xT1":424.9,"yT1":0,"xT2":1058.1,"yT2":0,"toosoon":0,"cond_shown":"equaldotanddens","ratio_trial":250,"smaller_num":"4","larger_num":"16","correct_side":2,"subjID":"JuanMartínBlancoNarvaéz25","gender":"0","age":"9","school":"4"},{"start_time":1552055096344,"click_time":1552055097453,"finger_time":1552055097254,"fix_duration":270.30772185451036,"trial":5,"RT":910,"MT":199,"sideResp":1,"stimulus":"img/750/randomdotsizeEA/L/14_Ratio_750_L_8_R_6.png","xmouse":[782,782,782,782,782,782,782,782,782,782,782,782,782,782,782,782,782,782,782,782,782,782,782,782,782,782,782,782,782,782,782,782,782,782,782,782,782,782,782,782,782,782,782,782,778,771,759,749,724,707,691,669,645,560,527,499],"ymouse":[480,480,480,480,480,480,480,480,480,480,480,480,480,480,480,480,480,480,480,480,480,480,480,480,480,480,480,480,480,480,480,480,480,480,480,480,480,480,480,480,480,480,480,478,473,465,452,437,386,351,315,273,233,124,77,38],"timestamp_mouse":[10,31,49,69,89,109,130,149,169,188,209,229,248,268,289,309,328,348,369,389,409,428,448,470,488,508,530,549,569,589,609,629,649,669,689,710,729,748,769,789,809,829,849,869,888,910,929,949,968,988,1008,1029,1048,1068,1088,1109],"xSR":741.5,"ySR":469.95,"xT1":424.9,"yT1":0,"xT2":1058.1,"yT2":0,"toosoon":0,"cond_shown":"randomdotsizeEA","ratio_trial":750,"smaller_num":"6","larger_num":"8","correct_side":1,"subjID":"JuanMartínBlancoNarvaéz25","gender":"0","age":"9","school":"4"},{"start_time":1552055098947,"click_time":1552055100057,"finger_time":1552055099915,"fix_duration":250,"trial":6,"RT":968,"MT":142,"sideResp":2,"stimulus":"img/900/equaldotanddens/R/13_Ratio_900_L_18_R_20.png","xmouse":[813,813,813,813,813,813,813,813,813,813,813,813,813,813,813,813,813,813,813,813,813,813,813,813,813,813,813,813,813,813,813,813,813,813,813,813,813,813,813,813,813,813,813,813,813,813,817,821,854,878,918,930,987,1068,1095,1112],"ymouse":[525,525,525,525,525,525,525,525,525,525,525,525,525,525,525,525,525,525,525,525,525,525,525,525,525,525,525,525,525,525,525,525,525,525,525,525,525,525,525,525,525,525,525,525,525,525,525,524,499,474,414,400,303,165,105,55],"timestamp_mouse":[11,30,50,69,90,108,129,148,169,189,209,228,250,270,289,308,330,349,368,388,409,429,450,468,489,508,530,549,570,589,609,629,649,669,689,709,729,750,770,789,809,829,850,869,889,910,928,950,968,989,1008,1028,1049,1068,1088,1110],"xSR":741.5,"ySR":469.95,"xT1":424.9,"yT1":0,"xT2":1058.1,"yT2":0,"toosoon":0,"cond_shown":"equaldotanddens","ratio_trial":900,"smaller_num":"18","larger_num":"20","correct_side":2,"subjID":"JuanMartínBlancoNarvaéz25","gender":"0","age":"9","school":"4"},{"start_time":1552055102789,"click_time":1552055104216,"finger_time":1552055103796,"fix_duration":250,"trial":7,"RT":1007,"MT":420,"sideResp":1,"stimulus":"img/500/randomdotsizeEA/L/11_Ratio_500_L_12_R_6.png","xmouse":[781,781,781,781,781,781,781,781,781,781,781,781,781,781,781,781,781,781,781,781,781,781,781,781,781,781,781,781,781,781,781,781,781,781,781,781,781,781,781,781,781,781,781,781,781,781,781,782,782,782,779,754,733,712,689,672,648,640,638,636,633,625,620,612,603,592,569,556,539,531,525,522],"ymouse":[552,552,552,552,552,552,552,552,552,552,552,552,552,552,552,552,552,552,552,552,552,552,552,552,552,552,552,552,552,552,552,552,552,552,552,552,552,552,552,552,552,552,552,552,552,552,552,538,518,487,447,350,308,273,242,220,190,181,178,176,172,157,149,136,120,101,63,46,27,21,18,17],"timestamp_mouse":[11,38,47,67,87,107,127,147,167,187,206,228,247,266,287,306,328,348,367,387,407,428,446,467,488,508,528,546,567,588,607,628,647,667,686,706,728,748,768,787,807,826,846,867,888,908,926,947,966,987,1007,1027,1046,1066,1086,1107,1126,1146,1166,1186,1207,1227,1246,1267,1287,1306,1327,1347,1367,1388,1406,1426],"xSR":741.5,"ySR":469.95,"xT1":424.9,"yT1":0,"xT2":1058.1,"yT2":0,"toosoon":0,"cond_shown":"randomdotsizeEA","ratio_trial":500,"smaller_num":"6","larger_num":"12","correct_side":1,"subjID":"JuanMartínBlancoNarvaéz25","gender":"0","age":"9","school":"4"},{"start_time":1552055105488,"click_time":1552055106917,"finger_time":1552055106537,"fix_duration":250,"trial":8,"RT":1049,"MT":380,"sideResp":1,"stimulus":"img/750/equaldotsize/L/13_Ratio_750_L_8_R_6.png","xmouse":[769,769,769,769,769,769,769,769,769,769,769,769,769,769,769,769,769,769,769,773,775,788,791,791,791,791,791,791,791,791,791,791,791,791,791,791,791,791,791,791,791,792,793,794,797,799,806,810,814,817,819,819,816,810,804,795,785,765,752,739,724,683,669,653,638,623,595,581,568,555,538,465],"ymouse":[507,507,507,507,507,507,507,507,507,507,507,507,507,507,507,507,507,507,507,516,523,555,561,561,561,561,561,561,561,561,561,561,561,561,561,561,561,561,561,561,561,562,558,554,548,541,528,518,509,502,494,487,468,460,448,436,423,388,369,349,328,275,256,235,216,199,165,150,136,124,108,61],"timestamp_mouse":[11,28,47,67,89,108,127,148,168,188,207,228,247,267,287,308,327,347,368,387,407,428,447,467,487,508,528,549,568,589,607,628,649,669,688,708,728,747,768,787,808,827,849,869,888,908,928,947,968,988,1007,1028,1049,1068,1088,1107,1129,1147,1169,1188,1209,1229,1247,1268,1289,1308,1328,1347,1368,1387,1407,1429],"xSR":741.5,"ySR":469.95,"xT1":424.9,"yT1":0,"xT2":1058.1,"yT2":0,"toosoon":0,"cond_shown":"equaldotsize","ratio_trial":750,"smaller_num":"6","larger_num":"8","correct_side":1,"subjID":"JuanMartínBlancoNarvaéz25","gender":"0","age":"9","school":"4"},{"start_time":1552055108557,"click_time":1552055109736,"finger_time":1552055109235,"fix_duration":719.1716492011618,"trial":9,"RT":678,"MT":501,"sideResp":2,"stimulus":"img/750/equaldotanddens/R/11_Ratio_750_L_12_R_16.png","xmouse":[797,797,797,797,797,797,797,797,797,797,797,797,797,797,797,797,797,797,797,797,797,797,797,797,797,797,797,797,797,797,797,800,805,817,842,858,875,902,918,937,942,947,949,951,962,974,986,1003,1009,1012,1013,1014,1015,1017,1027,1031,1039,1043,1049,1059],"ymouse":[502,502,502,502,502,502,502,502,502,502,502,502,502,502,502,502,502,502,502,502,502,502,502,502,502,502,502,502,502,502,502,499,493,478,441,420,396,357,335,297,283,273,271,267,255,247,239,227,219,210,206,202,196,190,163,146,120,101,84,56],"timestamp_mouse":[5,24,39,59,79,98,120,140,159,179,199,218,238,258,279,299,318,340,359,378,398,418,439,458,480,499,519,538,558,578,599,618,638,660,678,698,719,739,758,778,799,820,839,859,879,898,918,938,959,979,999,1019,1039,1059,1079,1099,1118,1140,1158,1179],"xSR":741.5,"ySR":469.95,"xT1":424.9,"yT1":0,"xT2":1058.1,"yT2":0,"toosoon":0,"cond_shown":"equaldotanddens","ratio_trial":750,"smaller_num":"12","larger_num":"16","correct_side":2,"subjID":"JuanMartínBlancoNarvaéz25","gender":"0","age":"9","school":"4"},{"start_time":1552055110668,"click_time":1552055112036,"finger_time":1552055111596,"fix_duration":250,"trial":10,"RT":928,"MT":440,"sideResp":2,"stimulus":"img/500/randomdotsizeEA/R/2_Ratio_500_L_3_R_6.png","xmouse":[779,779,779,779,779,779,779,779,779,779,779,779,779,779,779,779,779,779,779,779,779,779,779,779,779,779,779,779,779,779,779,779,779,779,779,779,779,779,779,779,779,778,778,790,795,803,814,824,849,870,887,903,918,951,967,986,1002,1022,1032,1052,1060,1063,1066,1070,1080,1085,1089,1092,1093],"ymouse":[524,524,524,524,524,524,524,524,524,524,524,524,524,524,524,524,524,524,524,524,524,524,524,524,524,524,524,524,524,524,524,524,524,524,524,524,524,524,524,524,524,524,521,503,492,481,469,454,423,400,387,374,361,334,320,304,288,271,260,230,213,203,191,177,149,133,119,107,91],"timestamp_mouse":[16,30,49,69,88,107,127,148,167,187,209,228,248,267,287,308,329,347,368,389,409,429,447,468,487,509,527,547,569,588,607,628,648,668,688,708,728,747,769,787,808,828,848,867,887,908,928,949,968,987,1007,1029,1048,1068,1087,1108,1128,1147,1167,1187,1207,1228,1248,1267,1288,1307,1327,1348,1367],"xSR":741.5,"ySR":469.95,"xT1":424.9,"yT1":0,"xT2":1058.1,"yT2":0,"toosoon":0,"cond_shown":"randomdotsizeEA","ratio_trial":500,"smaller_num":"3","larger_num":"6","correct_side":2,"subjID":"JuanMartínBlancoNarvaéz25","gender":"0","age":"9","school":"4"},{"start_time":1552055113891,"click_time":1552055114857,"finger_time":1552055114497,"fix_duration":653.2023307032814,"trial":11,"RT":606,"MT":360,"sideResp":2,"stimulus":"img/250/equaldotsize/R/9_Ratio_250_L_3_R_12.png","xmouse":[773,773,773,773,773,773,773,773,773,773,773,773,773,773,773,773,773,773,773,773,773,773,773,773,773,773,773,773,773,776,781,787,798,818,829,840,851,863,900,915,930,946,963,995,1008,1019,1032,1054,1060],"ymouse":[497,497,497,497,497,497,497,497,497,497,497,497,497,497,497,497,497,497,497,497,497,497,497,497,497,497,497,497,493,481,462,443,417,369,344,319,292,263,200,174,150,128,103,67,53,43,35,25,24],"timestamp_mouse":[10,31,45,64,84,105,125,146,165,184,204,225,245,265,286,306,324,344,366,385,405,424,445,466,486,505,526,545,564,584,606,625,645,664,684,705,725,744,764,784,805,824,845,864,885,905,924,946,965],"xSR":741.5,"ySR":469.95,"xT1":424.9,"yT1":0,"xT2":1058.1,"yT2":0,"toosoon":0,"cond_shown":"equaldotsize","ratio_trial":250,"smaller_num":"3","larger_num":"12","correct_side":2,"subjID":"JuanMartínBlancoNarvaéz25","gender":"0","age":"9","school":"4"},{"start_time":1552055117329,"click_time":1552055118755,"finger_time":1552055117795,"fix_duration":792.3795835760902,"trial":12,"RT":466,"MT":960,"sideResp":1,"stimulus":"img/750/equaldotanddens/L/9_Ratio_750_L_4_R_3.png","xmouse":[756,756,756,756,757,757,757,758,759,759,761,761,761,761,761,761,762,763,766,767,769,781,792,813,830,847,883,901,917,929,935,937,937,935,931,915,902,888,870,848,830,784,762,725,702,677,630,605,580,580,580,580,580,580,580,580,580,580,580,580,580,580,580,580,580,580,580,580,580,580,455,455],"ymouse":[499,499,499,499,499,499,499,499,499,499,499,499,499,499,499,499,499,499,499,499,497,488,478,461,449,438,407,389,372,356,341,325,320,317,315,310,306,302,296,284,270,234,216,179,150,121,56,27,4,4,4,4,4,4,4,4,4,4,4,4,4,4,4,4,4,4,4,4,4,4,0,3],"timestamp_mouse":[11,36,48,66,87,108,127,147,166,186,208,228,247,268,288,307,326,346,367,386,407,426,447,466,487,507,526,547,566,586,606,627,647,667,688,708,726,746,768,787,806,826,847,866,888,907,926,946,967,987,1007,1028,1046,1066,1087,1106,1127,1147,1167,1186,1208,1227,1246,1266,1287,1308,1327,1347,1368,1387,1408,1426],"xSR":741.5,"ySR":469.95,"xT1":424.9,"yT1":0,"xT2":1058.1,"yT2":0,"toosoon":0,"cond_shown":"equaldotanddens","ratio_trial":750,"smaller_num":"3","larger_num":"4","correct_side":1,"subjID":"JuanMartínBlancoNarvaéz25","gender":"0","age":"9","school":"4"},{"start_time":1552055123340,"click_time":1552055124496,"finger_time":1552055124075,"fix_duration":1202.7966042727166,"trial":13,"RT":735,"MT":421,"sideResp":2,"stimulus":"img/250/equaldotsize/R/12_Ratio_250_L_5_R_20.png","xmouse":[775,781,782,783,783,783,783,783,783,783,783,783,783,783,783,783,783,783,783,783,783,783,783,783,783,783,783,783,783,783,783,783,783,789,794,837,874,910,950,984,1059,1083,1104,1117,1128,1132,1136,1136,1136,1136,1136,1136,1136,1134,1129,1114,1104,1098],"ymouse":[532,530,530,530,530,530,530,530,530,530,530,530,530,530,530,530,530,530,530,530,530,530,530,530,530,530,530,530,530,530,530,530,530,525,522,488,456,426,390,356,253,220,189,169,153,144,137,137,137,137,137,133,131,126,120,107,102,98],"timestamp_mouse":[16,37,55,75,95,116,136,157,176,196,215,237,256,275,297,317,336,356,375,397,416,435,456,476,496,516,536,556,576,597,616,636,655,676,696,716,735,756,776,796,816,836,855,875,896,916,937,956,975,995,1015,1037,1056,1075,1095,1117,1135,1156],"xSR":741.5,"ySR":469.95,"xT1":424.9,"yT1":0,"xT2":1058.1,"yT2":0,"toosoon":0,"cond_shown":"equaldotsize","ratio_trial":250,"smaller_num":"5","larger_num":"20","correct_side":2,"subjID":"JuanMartínBlancoNarvaéz25","gender":"0","age":"9","school":"4"},{"start_time":1552055126108,"click_time":1552055127516,"finger_time":1552055127075,"fix_duration":750.3974659523246,"trial":14,"RT":967,"MT":441,"sideResp":1,"stimulus":"img/900/equaldotsize/L/1_Ratio_900_L_10_R_9.png","xmouse":[748,748,748,748,748,748,748,748,748,748,748,748,748,748,748,748,748,748,748,748,748,748,748,748,748,748,748,748,748,748,748,748,748,748,748,748,748,748,748,748,750,753,757,761,762,763,765,767,767,767,763,754,734,719,703,690,677,663,644,636,630,623,617,603,595,586,578,570,552,527,516],"ymouse":[493,493,493,493,493,493,493,493,493,493,493,493,493,493,493,493,493,493,493,493,493,493,493,493,493,493,493,493,493,493,493,493,493,493,493,493,493,493,493,493,493,493,493,490,488,485,481,472,467,461,453,436,402,381,359,342,322,302,270,252,237,214,199,175,164,152,144,133,119,105,99],"timestamp_mouse":[11,30,47,68,89,108,129,148,167,187,209,229,248,269,289,307,327,347,367,389,409,429,447,467,487,508,528,548,567,587,607,629,647,667,687,708,729,748,768,788,807,828,847,867,887,907,928,949,967,988,1008,1028,1049,1068,1088,1107,1128,1148,1168,1188,1208,1228,1247,1268,1287,1307,1328,1348,1368,1388,1408],"xSR":741.5,"ySR":469.95,"xT1":424.9,"yT1":0,"xT2":1058.1,"yT2":0,"toosoon":0,"cond_shown":"equaldotsize","ratio_trial":900,"smaller_num":"9","larger_num":"10","correct_side":1,"subjID":"JuanMartínBlancoNarvaéz25","gender":"0","age":"9","school":"4"},{"start_time":1552055134801,"click_time":1552055136295,"finger_time":1552055135235,"fix_duration":1324.4116339189918,"trial":15,"RT":434,"MT":1060,"sideResp":1,"stimulus":"img/750/equaldotsize/L/6_Ratio_750_L_24_R_18.png","xmouse":[815,815,815,815,815,815,815,815,815,815,815,815,815,815,815,815,815,814,816,820,822,823,823,823,823,823,823,823,823,823,824,826,833,836,838,838,835,831,823,809,800,790,780,763,730,711,688,656,593,563,546,546,546,546,546,546,546,546,546,546,546,546,546,546,546,546,546,403,407,415,420,422,423,424,426],"ymouse":[545,545,545,545,545,545,545,545,545,545,545,545,545,545,545,545,545,545,515,496,476,457,443,432,432,432,432,432,432,432,426,417,395,378,349,338,331,325,321,318,315,312,307,296,271,253,224,180,76,32,10,10,10,10,10,10,10,10,10,10,10,10,10,10,10,10,10,5,15,36,43,46,47,48,49],"timestamp_mouse":[16,39,55,76,95,114,134,156,175,195,214,235,255,276,295,315,334,355,376,394,415,434,455,476,494,515,535,555,575,595,615,635,655,674,695,714,734,755,775,795,815,834,855,875,895,914,934,955,976,994,1016,1035,1055,1075,1095,1115,1135,1154,1175,1195,1214,1234,1254,1274,1296,1315,1335,1355,1376,1395,1414,1434,1455,1475,1494],"xSR":741.5,"ySR":469.95,"xT1":424.9,"yT1":0,"xT2":1058.1,"yT2":0,"toosoon":0,"cond_shown":"equaldotsize","ratio_trial":750,"smaller_num":"18","larger_num":"24","correct_side":1,"subjID":"JuanMartínBlancoNarvaéz25","gender":"0","age":"9","school":"4"},{"start_time":1552055140907,"click_time":1552055142177,"finger_time":1552055141644,"fix_duration":250,"trial":16,"RT":737,"MT":533,"sideResp":1,"stimulus":"img/500/equaldotsize/L/8_Ratio_500_L_8_R_4.png","xmouse":[770,770,770,770,770,770,770,770,770,770,770,770,770,770,770,770,770,770,770,770,770,770,770,770,770,770,770,770,770,770,770,770,770,770,769,752,738,723,705,657,638,620,610,594,589,572,567,563,560,552,547,543,537,533,528,528,528,528,528,528,526,524,523,518],"ymouse":[537,537,537,537,537,537,537,537,537,537,537,537,537,537,537,537,537,537,537,537,537,537,537,537,537,537,537,537,537,537,537,537,537,536,530,508,493,478,456,387,360,328,303,274,264,226,213,200,190,157,140,126,113,105,100,100,100,100,100,100,100,100,100,99],"timestamp_mouse":[11,35,48,68,88,109,128,148,170,189,209,229,250,270,288,309,329,348,369,389,409,429,448,470,489,509,530,549,568,588,610,629,649,669,688,710,737,749,770,789,809,829,848,869,888,909,929,948,968,989,1008,1029,1049,1069,1089,1108,1128,1148,1169,1189,1209,1229,1250,1270],"xSR":741.5,"ySR":469.95,"xT1":424.9,"yT1":0,"xT2":1058.1,"yT2":0,"toosoon":0,"cond_shown":"equaldotsize","ratio_trial":500,"smaller_num":"4","larger_num":"8","correct_side":1,"subjID":"JuanMartínBlancoNarvaéz25","gender":"0","age":"9","school":"4"},{"start_time":1552055144229,"click_time":1552055145716,"finger_time":1552055145017,"fix_duration":770.3785792667738,"trial":17,"RT":788,"MT":699,"sideResp":2,"stimulus":"img/900/equaldotsize/R/13_Ratio_900_L_18_R_20.png","xmouse":[800,800,800,800,800,800,800,800,800,800,800,800,800,800,800,800,800,800,800,800,800,800,800,800,800,800,800,800,800,800,800,800,800,800,800,800,805,810,819,845,858,870,883,896,918,932,944,968,981,1001,1007,1011,1017,1021,1028,1033,1035,1037,1039,1040,1040,1040,1040,1040,1040,1040,1040,1040,1040,1040,1040,1043,1046,1049,1061],"ymouse":[549,549,549,549,549,549,549,549,549,549,549,549,549,549,549,549,549,549,549,549,549,549,549,549,549,549,549,549,549,549,549,549,549,549,549,549,533,519,498,451,430,409,387,365,320,294,271,224,192,139,116,96,78,64,46,39,38,35,33,32,32,32,32,32,32,32,32,32,32,32,31,30,29,28,28],"timestamp_mouse":[10,32,48,68,87,107,127,147,166,188,207,227,246,266,288,306,326,348,368,388,407,426,448,467,488,506,527,548,567,588,606,627,647,668,687,708,726,746,767,788,806,827,846,866,886,906,927,946,967,987,1006,1026,1047,1067,1086,1106,1127,1147,1167,1187,1206,1226,1247,1267,1286,1306,1327,1346,1366,1387,1406,1427,1447,1468,1487],"xSR":741.5,"ySR":469.95,"xT1":424.9,"yT1":0,"xT2":1058.1,"yT2":0,"toosoon":0,"cond_shown":"equaldotsize","ratio_trial":900,"smaller_num":"18","larger_num":"20","correct_side":2,"subjID":"JuanMartínBlancoNarvaéz25","gender":"0","age":"9","school":"4"},{"start_time":1552055148081,"click_time":1552055149035,"finger_time":1552055148696,"fix_duration":1341.2613724063142,"trial":18,"RT":615,"MT":339,"sideResp":1,"stimulus":"img/750/randomdotsizeEA/L/6_Ratio_750_L_24_R_18.png","xmouse":[764,764,764,764,764,764,764,764,764,764,764,764,764,764,764,764,764,764,764,764,764,764,764,764,764,764,764,764,764,764,764,768,771,771,771,770,749,733,716,695,681,649,624,607,589,574,541,524],"ymouse":[473,473,473,473,473,473,473,473,473,473,473,473,473,473,473,473,473,473,473,473,473,473,473,473,473,473,473,473,473,473,466,444,417,399,377,353,279,249,222,190,169,131,102,82,62,48,20,10],"timestamp_mouse":[15,36,55,75,94,115,134,155,174,196,215,234,254,276,294,314,335,355,374,394,416,434,456,474,496,515,534,554,575,594,615,634,655,675,695,715,734,754,776,795,814,835,854,874,896,915,935,954],"xSR":741.5,"ySR":469.95,"xT1":424.9,"yT1":0,"xT2":1058.1,"yT2":0,"toosoon":0,"cond_shown":"randomdotsizeEA","ratio_trial":750,"smaller_num":"18","larger_num":"24","correct_side":1,"subjID":"JuanMartínBlancoNarvaéz25","gender":"0","age":"9","school":"4"},{"start_time":1552055150227,"click_time":1552055152316,"finger_time":1552055151215,"fix_duration":250,"trial":19,"RT":988,"MT":1101,"sideResp":2,"stimulus":"img/500/equaldotsize/R/12_Ratio_500_L_1_R_2.png","xmouse":[818,818,818,818,818,818,818,818,818,818,818,818,818,818,818,818,818,818,818,818,818,818,818,818,818,818,818,818,818,818,818,818,818,818,818,818,818,818,818,818,818,818,818,818,818,829,835,837,840,842,846,850,855,859,867,876,881,885,890,909,925,961,1012,1062,1175,1184,1184,1185,1184,1166,1159,1151,1144,1142,1140,1138,1138,1138,1139,1139,1142,1142,1143,1143,1143,1143,1143,1143,1142,1140,1136,1135,1134,1133,1131,1129,1128,1127,1127,1127,1127,1127,1127,1125,1125],"ymouse":[542,542,542,542,542,542,542,542,542,542,542,542,542,542,542,542,542,542,542,542,542,542,542,542,542,542,542,542,542,542,542,542,542,542,542,542,542,542,542,542,542,542,542,542,541,520,503,489,477,464,445,435,423,413,394,371,359,350,342,319,305,285,262,245,218,215,215,215,214,210,208,204,198,196,191,185,180,174,168,163,151,146,142,141,140,140,140,139,137,135,131,130,128,125,121,118,115,114,113,112,110,108,106,100,93],"timestamp_mouse":[10,36,49,69,88,108,129,149,168,189,210,228,249,269,288,309,329,348,368,388,408,428,450,469,489,508,528,549,569,589,610,629,650,670,689,709,729,748,769,789,809,828,848,869,889,909,928,948,969,988,1009,1028,1048,1070,1089,1109,1128,1150,1169,1189,1209,1229,1249,1269,1290,1308,1328,1349,1368,1389,1409,1429,1448,1469,1488,1509,1529,1549,1568,1588,1609,1628,1649,1669,1690,1709,1729,1750,1768,1789,1808,1829,1849,1869,1889,1910,1930,1949,1969,1989,2009,2029,2049,2068,2089],"xSR":741.5,"ySR":469.95,"xT1":424.9,"yT1":0,"xT2":1058.1,"yT2":0,"toosoon":0,"cond_shown":"equaldotsize","ratio_trial":500,"smaller_num":"1","larger_num":"2","correct_side":2,"subjID":"JuanMartínBlancoNarvaéz25","gender":"0","age":"9","school":"4"},{"start_time":1552055154987,"click_time":1552055156255,"finger_time":1552055155856,"fix_duration":250,"trial":20,"RT":869,"MT":399,"sideResp":2,"stimulus":"img/250/randomdotsizeEA/R/13_Ratio_250_L_2_R_8.png","xmouse":[780,780,780,780,780,780,780,780,780,780,780,780,780,780,780,780,780,780,780,780,780,780,780,780,780,780,780,780,780,780,780,780,780,780,780,780,782,783,783,782,782,782,782,782,792,804,820,856,881,900,920,939,962,972,980,988,997,1014,1026,1042,1057,1071,1098,1112],"ymouse":[531,531,531,531,531,531,531,531,531,531,531,531,531,531,531,531,531,531,531,531,531,531,531,531,531,531,531,531,531,531,531,531,531,531,531,531,527,520,513,509,501,495,478,469,441,421,400,361,340,321,301,280,250,227,215,205,195,179,170,161,150,139,116,98],"timestamp_mouse":[11,35,49,70,89,108,129,150,169,188,209,230,250,270,289,308,330,350,369,388,408,428,448,469,490,508,528,549,568,588,608,630,648,668,690,709,729,749,768,788,809,830,848,869,888,909,929,948,968,989,1009,1029,1049,1069,1088,1108,1128,1149,1169,1190,1209,1230,1249,1268],"xSR":741.5,"ySR":469.95,"xT1":424.9,"yT1":0,"xT2":1058.1,"yT2":0,"toosoon":0,"cond_shown":"randomdotsizeEA","ratio_trial":250,"smaller_num":"2","larger_num":"8","correct_side":2,"subjID":"JuanMartínBlancoNarvaéz25","gender":"0","age":"9","school":"4"},{"start_time":1552055159450,"click_time":1552055160977,"finger_time":1552055160177,"fix_duration":790.5245593948604,"trial":21,"RT":727,"MT":800,"sideResp":1,"stimulus":"img/250/equaldotanddens/L/2_Ratio_250_L_16_R_4.png","xmouse":[757,757,757,757,757,757,757,757,757,757,757,757,757,757,757,757,757,757,757,757,757,757,757,757,757,757,757,757,757,757,757,757,756,755,751,745,737,728,718,705,682,670,659,652,647,635,628,622,617,613,612,611,611,610,609,609,609,608,606,604,596,591,584,579,568,565,563,562,562,561,560,559,558,556,543,531,517],"ymouse":[538,538,538,538,538,538,538,538,538,538,538,538,538,538,538,538,538,538,538,538,538,538,538,538,538,538,538,538,538,538,538,538,537,535,517,502,484,464,441,415,379,362,344,329,319,299,292,284,280,274,268,265,262,260,257,256,254,251,245,234,215,202,190,178,162,158,156,155,154,154,152,149,145,137,109,92,70],"timestamp_mouse":[16,40,47,67,87,109,127,148,168,188,208,227,248,268,287,307,328,348,368,388,407,428,447,467,488,508,528,547,567,588,608,627,648,668,689,707,727,748,768,788,808,827,847,867,887,907,928,948,967,988,1007,1027,1047,1067,1088,1107,1128,1147,1167,1187,1208,1227,1249,1268,1289,1307,1327,1347,1368,1387,1408,1427,1447,1468,1489,1507,1527],"xSR":741.5,"ySR":469.95,"xT1":424.9,"yT1":0,"xT2":1058.1,"yT2":0,"toosoon":0,"cond_shown":"equaldotanddens","ratio_trial":250,"smaller_num":"4","larger_num":"16","correct_side":1,"subjID":"JuanMartínBlancoNarvaéz25","gender":"0","age":"9","school":"4"},{"start_time":1552055173405,"click_time":1552055174178,"finger_time":1552055174037,"fix_duration":487.14947543632815,"trial":22,"RT":632,"MT":141,"sideResp":1,"stimulus":"img/250/equaldotanddens/L/14_Ratio_250_L_12_R_3.png","xmouse":[828,828,828,828,828,828,828,828,828,828,828,828,828,828,828,828,828,828,828,828,828,828,828,828,828,828,828,828,828,818,810,789,765,694,640,613,585,549,493],"ymouse":[488,488,488,488,488,488,488,488,488,488,488,488,488,488,488,488,488,488,488,488,488,488,488,488,488,488,488,488,488,477,470,442,409,310,231,178,141,101,36],"timestamp_mouse":[13,35,52,73,93,112,133,152,174,192,213,232,252,272,292,312,332,353,373,393,413,432,452,474,493,514,533,553,572,592,613,632,652,672,693,712,733,753,773],"xSR":741.5,"ySR":469.95,"xT1":424.9,"yT1":0,"xT2":1058.1,"yT2":0,"toosoon":0,"cond_shown":"equaldotanddens","ratio_trial":250,"smaller_num":"3","larger_num":"12","correct_side":1,"subjID":"JuanMartínBlancoNarvaéz25","gender":"0","age":"9","school":"4"},{"start_time":1552055176462,"click_time":1552055177757,"finger_time":1552055177018,"fix_duration":1143.6998408535355,"trial":23,"RT":556,"MT":739,"sideResp":1,"stimulus":"img/250/equaldotanddens/L/5_Ratio_250_L_24_R_6.png","xmouse":[770,770,770,770,770,770,770,770,770,770,770,770,770,770,770,770,770,770,770,770,770,770,770,770,769,762,749,730,674,647,538,391,318,264,235,215,203,203,203,206,209,224,232,244,252,277,289,303,321,335,360,388,399,407,409,409,409,409,409,409,409,409,409,409,464],"ymouse":[538,538,538,538,538,538,538,538,538,538,538,538,538,538,538,538,538,538,538,538,538,538,538,538,537,527,515,501,469,452,391,267,204,157,120,95,69,67,64,64,63,63,63,61,60,58,56,54,49,45,37,21,12,4,2,2,2,2,2,2,2,2,2,2,1],"timestamp_mouse":[17,35,56,75,95,116,135,155,175,195,215,236,257,276,296,316,337,356,376,396,416,436,455,477,496,516,535,556,575,595,615,635,655,676,695,716,735,755,776,795,815,835,855,876,895,916,935,955,975,995,1016,1035,1055,1075,1095,1116,1136,1155,1175,1196,1216,1236,1255,1275,1295],"xSR":741.5,"ySR":469.95,"xT1":424.9,"yT1":0,"xT2":1058.1,"yT2":0,"toosoon":0,"cond_shown":"equaldotanddens","ratio_trial":250,"smaller_num":"6","larger_num":"24","correct_side":1,"subjID":"JuanMartínBlancoNarvaéz25","gender":"0","age":"9","school":"4"},{"start_time":1552055179810,"click_time":1552055180717,"finger_time":1552055180438,"fix_duration":731.6334709589122,"trial":24,"RT":628,"MT":279,"sideResp":2,"stimulus":"img/900/randomdotsizeEA/L/1_Ratio_900_L_10_R_9.png","xmouse":[797,797,797,797,797,797,797,797,797,797,797,797,797,797,797,797,797,797,797,797,797,797,797,797,797,797,797,797,798,813,830,867,904,935,982,1000,1017,1032,1047,1068,1084,1095,1108,1119,1135,1140],"ymouse":[528,528,528,528,528,528,528,528,528,528,528,528,528,528,528,528,528,528,528,528,528,528,528,528,528,528,528,528,528,511,494,450,407,365,292,266,246,227,212,192,174,159,143,128,100,89],"timestamp_mouse":[17,32,47,67,87,108,127,147,167,187,207,229,248,269,288,307,328,349,367,388,408,427,447,467,487,507,527,548,567,587,608,628,647,668,687,707,727,747,768,787,808,827,847,868,887,907],"xSR":741.5,"ySR":469.95,"xT1":424.9,"yT1":0,"xT2":1058.1,"yT2":0,"toosoon":0,"cond_shown":"randomdotsizeEA","ratio_trial":900,"smaller_num":"9","larger_num":"10","correct_side":1,"subjID":"JuanMartínBlancoNarvaéz25","gender":"0","age":"9","school":"4"},{"start_time":1552055185302,"click_time":1552055186538,"finger_time":1552055185998,"fix_duration":1302.4944910191675,"trial":25,"RT":696,"MT":540,"sideResp":2,"stimulus":"img/500/randomdotsizeEA/R/6_Ratio_500_L_9_R_18.png","xmouse":[788,788,788,789,789,790,790,790,790,790,790,790,790,790,790,790,790,790,790,790,790,790,791,791,792,792,792,792,793,793,796,801,812,823,848,870,904,948,999,1068,1086,1099,1109,1124,1148,1159,1169,1180,1184,1186,1188,1188,1186,1184,1184,1184,1184,1184,1184,1184,1155,1145],"ymouse":[535,535,535,535,535,535,535,535,535,535,535,535,535,535,535,535,535,535,535,535,535,535,535,535,535,535,535,535,535,535,535,534,529,524,509,495,475,454,433,394,379,356,335,301,250,222,191,155,128,99,50,31,15,5,5,5,5,5,5,5,0,7],"timestamp_mouse":[15,44,55,76,95,116,137,156,176,196,215,235,255,275,295,315,335,355,376,397,417,437,456,475,496,515,535,555,576,595,615,635,656,676,696,715,735,755,776,797,816,835,856,875,896,916,935,955,976,996,1015,1035,1056,1077,1096,1116,1137,1155,1177,1196,1215,1235],"xSR":741.5,"ySR":469.95,"xT1":424.9,"yT1":0,"xT2":1058.1,"yT2":0,"toosoon":0,"cond_shown":"randomdotsizeEA","ratio_trial":500,"smaller_num":"9","larger_num":"18","correct_side":2,"subjID":"JuanMartínBlancoNarvaéz25","gender":"0","age":"9","school":"4"},{"start_time":1552055188971,"click_time":1552055190478,"finger_time":1552055189657,"fix_duration":1350.543151906336,"trial":26,"RT":686,"MT":821,"sideResp":2,"stimulus":"img/250/equaldotanddens/R/6_Ratio_250_L_6_R_24.png","xmouse":[771,771,771,771,771,771,771,769,767,767,767,767,767,767,767,767,767,767,767,767,767,767,767,767,767,767,767,767,767,767,767,767,771,778,791,804,819,844,857,863,868,875,895,909,924,939,956,968,968,970,972,981,987,997,1002,1007,1012,1024,1035,1046,1057,1066,1076,1077,1078,1078,1078,1079,1079,1079,1079,1079,1079,1080,1090,1098],"ymouse":[479,479,479,479,479,479,479,479,481,481,481,481,481,481,481,483,483,483,483,483,483,483,483,483,483,483,483,483,483,483,483,483,483,476,464,450,430,377,318,287,260,233,186,164,140,118,100,86,86,85,85,90,93,100,104,108,112,115,115,115,114,111,108,107,106,106,106,106,106,106,106,106,106,106,101,92],"timestamp_mouse":[11,31,46,66,86,106,127,146,166,186,206,226,246,267,286,306,326,346,366,388,406,426,448,466,486,507,526,548,567,586,606,628,647,667,686,707,727,746,767,786,806,827,847,866,886,906,927,946,966,987,1007,1027,1046,1067,1086,1106,1126,1146,1166,1187,1207,1226,1246,1266,1288,1307,1327,1346,1367,1386,1407,1426,1446,1466,1486,1507],"xSR":741.5,"ySR":469.95,"xT1":424.9,"yT1":0,"xT2":1058.1,"yT2":0,"toosoon":0,"cond_shown":"equaldotanddens","ratio_trial":250,"smaller_num":"6","larger_num":"24","correct_side":2,"subjID":"JuanMartínBlancoNarvaéz25","gender":"0","age":"9","school":"4"},{"start_time":1552055192997,"click_time":1552055194237,"finger_time":1552055193738,"fix_duration":278.96802406485756,"trial":27,"RT":741,"MT":499,"sideResp":2,"stimulus":"img/900/equaldotsize/L/10_Ratio_900_L_20_R_18.png","xmouse":[814,814,814,814,811,810,806,805,804,804,804,804,803,803,801,800,800,799,799,799,799,799,799,799,799,799,799,799,799,799,799,799,798,797,797,797,797,805,814,826,845,902,929,946,958,962,965,973,979,989,996,1011,1015,1019,1021,1021,1029,1033,1036,1039,1043,1054,1062],"ymouse":[498,498,498,498,500,502,505,505,506,506,506,506,508,509,511,512,512,513,513,513,513,513,513,513,513,513,513,513,513,513,511,509,502,498,491,485,477,451,434,413,389,337,314,298,284,274,266,241,225,204,185,147,132,122,115,110,101,97,93,89,87,78,72],"timestamp_mouse":[10,34,40,60,80,100,120,141,161,180,201,220,240,261,280,300,320,341,360,382,401,420,440,461,482,500,521,540,561,582,600,620,641,661,680,701,720,741,760,782,801,821,840,861,881,900,921,940,961,980,1001,1021,1040,1060,1080,1100,1121,1140,1160,1180,1200,1220,1240],"xSR":741.5,"ySR":469.95,"xT1":424.9,"yT1":0,"xT2":1058.1,"yT2":0,"toosoon":0,"cond_shown":"equaldotsize","ratio_trial":900,"smaller_num":"18","larger_num":"20","correct_side":1,"subjID":"JuanMartínBlancoNarvaéz25","gender":"0","age":"9","school":"4"},{"start_time":1552055198250,"click_time":1552055199378,"finger_time":1552055198937,"fix_duration":250,"trial":28,"RT":687,"MT":441,"sideResp":2,"stimulus":"img/900/equaldotsize/R/12_Ratio_900_L_18_R_20.png","xmouse":[776,778,778,779,779,779,779,779,779,779,779,779,779,779,779,779,779,779,779,779,779,779,779,779,779,779,781,781,782,783,784,786,788,793,815,833,855,883,916,985,1025,1042,1053,1058,1060,1060,1061,1061,1065,1068,1072,1073,1075,1076,1091,1100,1107],"ymouse":[521,518,516,516,516,516,516,516,516,516,516,516,516,516,516,516,516,516,516,516,516,516,516,516,516,516,514,513,513,509,507,504,502,493,462,437,409,372,330,256,220,203,190,183,181,181,180,179,173,169,157,155,151,146,121,104,91],"timestamp_mouse":[13,33,48,67,88,107,129,147,167,187,207,228,248,268,289,308,328,348,369,387,407,427,447,467,488,507,528,548,567,587,608,627,648,667,687,708,728,747,767,787,809,827,848,868,888,907,928,948,967,987,1007,1027,1047,1067,1087,1107,1127],"xSR":741.5,"ySR":469.95,"xT1":424.9,"yT1":0,"xT2":1058.1,"yT2":0,"toosoon":0,"cond_shown":"equaldotsize","ratio_trial":900,"smaller_num":"18","larger_num":"20","correct_side":2,"subjID":"JuanMartínBlancoNarvaéz25","gender":"0","age":"9","school":"4"},{"start_time":1552055200832,"click_time":1552055202439,"finger_time":1552055201397,"fix_duration":451.6192320091288,"trial":29,"RT":565,"MT":1042,"sideResp":2,"stimulus":"img/250/equaldotanddens/R/6_Ratio_250_L_6_R_24.png","xmouse":[824,824,824,824,824,824,824,824,824,824,824,824,824,824,824,824,824,824,824,824,824,824,824,824,824,824,825,828,836,844,877,899,920,945,965,993,1000,1004,1011,1018,1041,1041,1041,1041,1041,1041,1041,1041,1041,1041,1041,1041,1041,1052,1048,1042,1040,1038,1037,1036,1035,1035,1035,1035,1035,1035,1035,1035,1035,1035,1035,1035,1035,1035,1035,1035,1035,1036,1041,1049,1060],"ymouse":[502,502,502,502,502,502,502,502,502,502,502,502,502,502,502,502,502,502,502,502,502,502,502,502,502,502,492,485,467,446,371,320,266,210,164,97,75,59,42,28,0,0,0,0,0,0,0,0,0,0,0,0,0,17,30,56,68,76,84,89,96,98,98,98,98,98,98,98,99,101,104,104,104,104,104,104,104,104,100,89,78],"timestamp_mouse":[11,34,45,65,85,107,125,145,166,185,206,225,246,265,286,306,325,346,365,386,406,426,445,466,486,505,525,546,565,586,606,625,645,665,685,705,725,746,766,785,806,825,845,866,885,906,926,945,966,986,1005,1026,1045,1065,1085,1105,1125,1145,1165,1186,1206,1225,1246,1265,1286,1305,1326,1347,1366,1386,1406,1427,1445,1465,1486,1505,1525,1545,1567,1585,1606],"xSR":741.5,"ySR":469.95,"xT1":424.9,"yT1":0,"xT2":1058.1,"yT2":0,"toosoon":0,"cond_shown":"equaldotanddens","ratio_trial":250,"smaller_num":"6","larger_num":"24","correct_side":2,"subjID":"JuanMartínBlancoNarvaéz25","gender":"0","age":"9","school":"4"},{"start_time":1552055204547,"click_time":1552055205499,"finger_time":1552055205197,"fix_duration":708.5357599917774,"trial":30,"RT":650,"MT":302,"sideResp":1,"stimulus":"img/750/equaldotanddens/L/13_Ratio_750_L_8_R_6.png","xmouse":[802,802,802,802,802,802,802,802,802,802,802,802,802,802,802,802,802,802,802,802,802,802,804,807,812,819,822,823,824,825,825,824,817,810,803,783,771,756,740,723,693,678,653,627,601,554,533,517],"ymouse":[544,544,544,544,544,544,544,544,544,544,544,544,544,544,544,544,544,544,544,544,544,544,544,539,531,514,508,503,498,489,484,478,462,446,428,385,364,342,321,296,250,228,197,172,150,116,100,88],"timestamp_mouse":[11,37,52,70,90,112,132,150,171,192,211,231,251,271,290,311,331,350,371,390,411,431,451,470,490,510,531,551,570,592,610,631,650,671,690,710,731,750,770,790,810,830,850,871,890,910,931,952],"xSR":741.5,"ySR":469.95,"xT1":424.9,"yT1":0,"xT2":1058.1,"yT2":0,"toosoon":0,"cond_shown":"equaldotanddens","ratio_trial":750,"smaller_num":"6","larger_num":"8","correct_side":1,"subjID":"JuanMartínBlancoNarvaéz25","gender":"0","age":"9","school":"4"},{"start_time":1552055223099,"click_time":1552055224338,"finger_time":1552055223878,"fix_duration":897.7894797761484,"trial":31,"RT":779,"MT":460,"sideResp":2,"stimulus":"img/500/equaldotanddens/R/12_Ratio_500_L_1_R_2.png","xmouse":[802,802,797,788,779,777,777,777,777,777,777,777,777,777,777,777,777,777,777,777,777,777,777,777,777,777,777,777,777,777,777,777,777,777,777,780,789,800,819,832,852,860,869,878,888,903,906,909,913,916,927,935,945,956,968,990,1009,1027,1043,1059,1081,1087,1094],"ymouse":[533,533,537,541,544,545,545,545,545,545,545,545,545,545,545,545,545,545,545,545,545,545,545,545,545,545,545,545,545,545,545,545,545,545,545,538,521,502,470,450,412,397,381,365,351,326,319,305,296,288,268,259,248,239,227,212,197,183,170,155,123,109,94],"timestamp_mouse":[2,18,39,60,80,99,120,139,160,178,199,218,240,259,280,299,319,340,359,379,400,419,439,460,479,500,520,540,560,579,599,619,640,660,679,699,720,738,760,779,799,819,839,858,880,899,920,939,959,978,998,1018,1039,1059,1079,1100,1119,1139,1159,1180,1198,1219,1239],"xSR":741.5,"ySR":469.95,"xT1":424.9,"yT1":0,"xT2":1058.1,"yT2":0,"toosoon":0,"cond_shown":"equaldotanddens","ratio_trial":500,"smaller_num":"1","larger_num":"2","correct_side":2,"subjID":"JuanMartínBlancoNarvaéz25","gender":"0","age":"9","school":"4"},{"start_time":1552055227070,"click_time":1552055227979,"finger_time":1552055227838,"fix_duration":250,"trial":32,"RT":768,"MT":141,"sideResp":2,"stimulus":"img/750/randomdotsizeEA/R/11_Ratio_750_L_12_R_16.png","xmouse":[784,784,784,784,784,784,784,784,784,784,784,784,784,784,784,784,784,784,784,784,784,784,784,784,784,784,784,784,784,784,784,784,784,784,788,794,799,838,864,896,933,996,1024,1044,1063,1072],"ymouse":[538,538,538,538,538,538,538,538,538,538,538,538,538,538,538,538,538,538,538,538,538,538,538,538,538,538,538,538,538,538,538,538,538,538,535,529,523,471,439,395,343,229,176,137,106,88],"timestamp_mouse":[11,40,48,68,88,108,128,148,169,188,208,228,248,268,288,308,328,349,369,388,409,428,448,468,488,508,528,548,568,589,609,628,649,668,688,708,727,748,768,788,808,828,848,868,888,908],"xSR":741.5,"ySR":469.95,"xT1":424.9,"yT1":0,"xT2":1058.1,"yT2":0,"toosoon":0,"cond_shown":"randomdotsizeEA","ratio_trial":750,"smaller_num":"12","larger_num":"16","correct_side":2,"subjID":"JuanMartínBlancoNarvaéz25","gender":"0","age":"9","school":"4"},{"start_time":1552055230139,"click_time":1552055230798,"finger_time":1552055230698,"fix_duration":1159.626855884299,"trial":33,"RT":559,"MT":100,"sideResp":1,"stimulus":"img/750/equaldotanddens/L/13_Ratio_750_L_8_R_6.png","xmouse":[821,821,821,821,821,821,821,821,821,821,821,821,821,821,821,821,821,821,821,821,821,821,821,821,815,807,786,747,625,544,501,464,435],"ymouse":[516,516,516,516,516,516,516,516,516,516,516,516,516,516,516,516,516,516,516,516,516,516,516,516,509,498,471,432,323,241,186,127,73],"timestamp_mouse":[19,39,61,78,98,119,139,160,179,200,219,240,260,279,300,319,339,358,378,398,419,439,460,479,499,519,539,559,580,600,619,639,659],"xSR":741.5,"ySR":469.95,"xT1":424.9,"yT1":0,"xT2":1058.1,"yT2":0,"toosoon":0,"cond_shown":"equaldotanddens","ratio_trial":750,"smaller_num":"6","larger_num":"8","correct_side":1,"subjID":"JuanMartínBlancoNarvaéz25","gender":"0","age":"9","school":"4"},{"start_time":1552055235451,"click_time":1552055236558,"finger_time":1552055236118,"fix_duration":1489.9483876846868,"trial":34,"RT":667,"MT":440,"sideResp":2,"stimulus":"img/250/equaldotanddens/R/8_Ratio_250_L_1_R_4.png","xmouse":[793,793,793,793,793,793,793,793,793,793,793,793,793,793,793,793,793,793,793,793,793,793,793,793,793,793,793,793,793,793,793,810,820,884,910,935,956,973,1000,1014,1025,1034,1042,1048,1049,1051,1053,1055,1060,1064,1070,1079,1088,1100,1109,1113],"ymouse":[535,535,535,535,535,535,535,535,535,535,535,535,535,535,535,535,535,535,535,535,535,535,535,535,535,535,535,535,535,535,535,518,508,435,398,367,332,309,268,248,231,218,205,197,196,192,187,184,174,169,160,148,139,121,100,92],"timestamp_mouse":[10,29,48,67,87,107,128,147,166,187,208,227,246,266,287,307,327,347,367,387,407,427,447,468,486,508,527,548,568,587,607,627,647,667,687,707,727,748,767,787,808,828,847,867,887,908,928,948,967,988,1007,1027,1047,1067,1086,1107],"xSR":741.5,"ySR":469.95,"xT1":424.9,"yT1":0,"xT2":1058.1,"yT2":0,"toosoon":0,"cond_shown":"equaldotanddens","ratio_trial":250,"smaller_num":"1","larger_num":"4","correct_side":2,"subjID":"JuanMartínBlancoNarvaéz25","gender":"0","age":"9","school":"4"},{"start_time":1552055239157,"click_time":1552055240419,"finger_time":1552055239758,"fix_duration":277.9134443134968,"trial":35,"RT":601,"MT":661,"sideResp":1,"stimulus":"img/500/equaldotsize/L/13_Ratio_500_L_12_R_6.png","xmouse":[795,795,795,795,795,795,795,795,795,795,795,795,795,795,795,795,795,795,795,795,795,795,795,795,795,795,795,794,789,783,772,759,743,722,684,666,648,634,623,605,598,592,586,578,572,570,562,556,550,540,537,533,531,527,520,516,515,512,511,509,508,506,505,499],"ymouse":[514,514,514,514,514,514,514,514,514,514,514,514,514,514,514,514,514,514,514,514,514,514,514,514,514,511,509,503,488,478,462,446,430,415,384,365,339,319,298,261,245,232,217,193,176,170,150,138,127,113,110,109,109,109,107,106,105,104,103,102,102,102,100,97],"timestamp_mouse":[6,21,40,61,81,101,122,141,162,181,202,221,242,261,280,301,321,341,361,381,402,421,441,462,481,501,521,541,561,581,601,622,641,662,682,701,720,741,762,782,801,821,842,862,881,901,921,941,961,981,1001,1021,1042,1062,1082,1101,1121,1142,1161,1181,1201,1221,1242,1262],"xSR":741.5,"ySR":469.95,"xT1":424.9,"yT1":0,"xT2":1058.1,"yT2":0,"toosoon":0,"cond_shown":"equaldotsize","ratio_trial":500,"smaller_num":"6","larger_num":"12","correct_side":1,"subjID":"JuanMartínBlancoNarvaéz25","gender":"0","age":"9","school":"4"},{"start_time":1552055242374,"click_time":1552055243479,"finger_time":1552055243078,"fix_duration":733.4499012493832,"trial":36,"RT":704,"MT":401,"sideResp":2,"stimulus":"img/250/randomdotsizeEA/R/10_Ratio_250_L_4_R_16.png","xmouse":[815,815,815,815,815,815,815,815,815,815,815,815,815,815,815,815,815,815,815,815,815,815,815,817,821,824,827,828,830,830,830,830,830,830,834,840,850,860,885,897,913,924,935,958,964,971,980,987,1006,1013,1019,1027,1032,1046,1060,1068],"ymouse":[530,530,530,530,530,530,530,530,530,530,530,530,530,530,530,530,530,530,530,530,530,530,530,529,522,518,512,509,503,503,502,502,501,495,485,468,447,424,367,340,312,289,270,233,222,211,199,188,164,155,146,136,130,114,101,90],"timestamp_mouse":[10,29,45,65,85,105,123,144,165,185,204,225,244,265,285,305,324,345,363,384,405,425,444,463,484,504,524,544,564,584,605,623,643,664,685,704,725,744,764,785,805,823,844,864,883,905,925,945,964,985,1005,1024,1045,1064,1085,1104],"xSR":741.5,"ySR":469.95,"xT1":424.9,"yT1":0,"xT2":1058.1,"yT2":0,"toosoon":0,"cond_shown":"randomdotsizeEA","ratio_trial":250,"smaller_num":"4","larger_num":"16","correct_side":2,"subjID":"JuanMartínBlancoNarvaéz25","gender":"0","age":"9","school":"4"},{"start_time":1552055245743,"click_time":1552055247279,"finger_time":1552055246438,"fix_duration":1283.8437324490621,"trial":37,"RT":695,"MT":841,"sideResp":2,"stimulus":"img/900/randomdotsizeEA/R/3_Ratio_900_L_9_R_10.png","xmouse":[782,782,782,782,782,782,782,782,782,782,782,782,782,782,782,782,782,782,782,782,782,782,782,782,782,782,782,782,782,782,784,785,787,789,793,799,802,805,807,811,814,817,822,825,841,848,855,862,869,881,887,892,898,904,924,933,944,956,966,977,994,1001,1010,1018,1024,1035,1039,1044,1048,1051,1053,1054,1055,1056,1057,1058,1062],"ymouse":[482,482,482,482,482,482,482,482,482,482,482,482,482,482,482,482,482,482,482,482,482,482,482,482,482,482,482,482,482,482,479,478,476,473,468,460,456,452,450,445,442,439,434,430,415,409,403,394,387,373,366,360,353,346,323,313,301,290,277,265,242,231,222,205,193,165,152,142,131,123,114,110,108,106,105,100,90],"timestamp_mouse":[15,37,55,75,94,116,135,156,176,195,216,235,255,275,295,316,336,356,375,395,415,435,455,476,495,514,534,555,576,595,615,636,655,676,695,716,735,755,775,795,814,835,855,875,895,915,935,956,976,996,1015,1035,1055,1076,1095,1115,1135,1155,1175,1195,1214,1236,1254,1276,1295,1315,1335,1356,1375,1396,1415,1434,1455,1476,1495,1516,1536],"xSR":741.5,"ySR":469.95,"xT1":424.9,"yT1":0,"xT2":1058.1,"yT2":0,"toosoon":0,"cond_shown":"randomdotsizeEA","ratio_trial":900,"smaller_num":"9","larger_num":"10","correct_side":2,"subjID":"JuanMartínBlancoNarvaéz25","gender":"0","age":"9","school":"4"},{"start_time":1552055251717,"click_time":1552055252918,"finger_time":1552055252438,"fix_duration":977.9426043416847,"trial":38,"RT":721,"MT":480,"sideResp":2,"stimulus":"img/500/equaldotsize/R/9_Ratio_500_L_2_R_4.png","xmouse":[758,758,758,758,758,758,758,758,758,758,758,758,758,758,758,758,758,758,758,758,758,758,758,758,758,758,758,758,759,761,762,764,770,776,782,788,793,809,817,829,840,852,876,893,905,918,931,957,968,982,992,1005,1017,1023,1029,1037,1045,1061,1069,1074,1080],"ymouse":[552,552,552,552,552,552,552,552,552,552,552,552,552,552,552,552,552,552,552,552,552,552,552,552,552,552,552,552,548,544,538,532,513,498,484,471,459,428,412,393,378,362,329,308,295,285,272,249,238,227,218,203,187,178,170,159,146,123,112,103,94],"timestamp_mouse":[8,21,41,62,82,102,122,142,161,182,202,221,242,262,282,301,321,341,361,382,401,422,440,460,481,502,521,542,560,581,601,621,641,661,681,702,721,741,762,782,801,822,841,861,882,901,921,941,961,981,1001,1020,1041,1061,1080,1102,1121,1141,1161,1181,1201],"xSR":741.5,"ySR":469.95,"xT1":424.9,"yT1":0,"xT2":1058.1,"yT2":0,"toosoon":0,"cond_shown":"equaldotsize","ratio_trial":500,"smaller_num":"2","larger_num":"4","correct_side":2,"subjID":"JuanMartínBlancoNarvaéz25","gender":"0","age":"9","school":"4"},{"start_time":1552055254738,"click_time":1552055255938,"finger_time":1552055255498,"fix_duration":677.3179968513888,"trial":39,"RT":760,"MT":440,"sideResp":2,"stimulus":"img/750/equaldotanddens/R/4_Ratio_750_L_15_R_20.png","xmouse":[798,798,798,798,798,798,798,798,798,798,798,798,798,798,798,798,798,798,798,798,798,798,798,798,798,798,798,798,798,798,798,798,801,805,809,815,828,833,841,853,857,882,893,905,917,928,952,964,976,986,997,1012,1029,1036,1044,1051,1060,1076,1083,1091,1105],"ymouse":[526,526,526,526,526,526,526,526,526,526,526,526,526,526,526,526,526,526,526,526,526,526,526,526,526,526,526,526,526,526,526,526,525,519,514,506,487,476,463,444,437,397,383,364,347,331,299,283,267,255,239,221,198,188,179,170,158,135,125,116,99],"timestamp_mouse":[8,33,41,60,80,100,120,140,161,181,200,220,241,260,280,300,320,340,359,381,400,420,440,460,480,501,519,540,560,581,599,619,641,660,681,700,720,739,760,780,801,821,839,860,881,900,920,939,960,980,1001,1020,1040,1060,1080,1100,1120,1140,1160,1180,1200],"xSR":741.5,"ySR":469.95,"xT1":424.9,"yT1":0,"xT2":1058.1,"yT2":0,"toosoon":0,"cond_shown":"equaldotanddens","ratio_trial":750,"smaller_num":"15","larger_num":"20","correct_side":2,"subjID":"JuanMartínBlancoNarvaéz25","gender":"0","age":"9","school":"4"},{"start_time":1552055258170,"click_time":1552055259578,"finger_time":1552055259098,"fix_duration":1131.0922050309866,"trial":40,"RT":928,"MT":480,"sideResp":1,"stimulus":"img/500/randomdotsizeEA/L/5_Ratio_500_L_4_R_2.png","xmouse":[805,805,805,805,805,805,805,805,805,805,805,805,805,805,805,805,805,805,805,805,805,805,805,805,805,805,805,805,805,805,805,805,805,805,805,805,805,805,805,805,805,805,805,802,798,766,694,631,562,488,379,356,348,344,343,343,343,343,343,343,343,342,341,341,341,348,366,385,402,416,435],"ymouse":[535,535,535,535,535,535,535,535,535,535,535,535,535,535,535,535,535,535,535,535,535,535,535,535,535,535,535,535,535,535,535,535,535,535,535,535,535,535,535,535,535,535,535,523,513,471,412,365,309,256,176,153,140,131,124,113,102,93,82,68,44,34,25,21,19,13,13,23,30,36,48],"timestamp_mouse":[10,36,48,69,88,109,128,148,168,189,207,229,249,268,289,309,328,349,369,388,409,427,449,469,489,509,529,549,569,588,608,628,649,668,689,708,728,748,768,788,808,828,848,868,888,908,928,948,968,988,1009,1028,1048,1068,1089,1107,1128,1147,1167,1187,1208,1228,1247,1267,1288,1308,1328,1348,1368,1388,1408],"xSR":741.5,"ySR":469.95,"xT1":424.9,"yT1":0,"xT2":1058.1,"yT2":0,"toosoon":0,"cond_shown":"randomdotsizeEA","ratio_trial":500,"smaller_num":"2","larger_num":"4","correct_side":1,"subjID":"JuanMartínBlancoNarvaéz25","gender":"0","age":"9","school":"4"},{"start_time":1552055260970,"click_time":1552055262179,"finger_time":1552055261719,"fix_duration":250,"trial":41,"RT":749,"MT":460,"sideResp":2,"stimulus":"img/250/equaldotsize/R/4_Ratio_250_L_3_R_12.png","xmouse":[778,778,778,778,778,778,778,778,778,778,778,778,778,778,778,778,778,778,778,778,778,778,778,778,778,778,778,778,778,778,778,779,779,783,787,814,828,845,860,874,901,914,925,937,947,966,977,984,989,992,998,1001,1004,1009,1014,1032,1040,1047,1053,1058,1067],"ymouse":[490,490,490,490,490,490,490,490,490,490,490,490,490,490,490,490,490,490,490,490,490,490,490,490,490,490,490,490,490,490,490,491,491,490,489,476,470,463,456,447,431,422,413,403,394,373,360,352,345,338,328,321,312,302,287,234,205,176,152,126,84],"timestamp_mouse":[11,29,47,68,88,108,128,149,168,187,209,227,249,269,288,308,327,347,368,388,409,428,449,469,488,509,528,549,567,588,609,628,649,668,689,708,729,749,768,788,808,828,848,869,889,907,927,948,969,988,1007,1028,1048,1069,1088,1107,1127,1148,1169,1188,1208],"xSR":741.5,"ySR":469.95,"xT1":424.9,"yT1":0,"xT2":1058.1,"yT2":0,"toosoon":0,"cond_shown":"equaldotsize","ratio_trial":250,"smaller_num":"3","larger_num":"12","correct_side":2,"subjID":"JuanMartínBlancoNarvaéz25","gender":"0","age":"9","school":"4"},{"start_time":1552055263722,"click_time":1552055265638,"finger_time":1552055264659,"fix_duration":443.14932355974935,"trial":42,"RT":937,"MT":979,"sideResp":1,"stimulus":"img/500/equaldotsize/L/13_Ratio_500_L_12_R_6.png","xmouse":[833,833,833,833,833,833,833,833,833,833,833,833,833,833,833,833,833,833,833,833,833,833,833,833,833,833,833,833,833,833,833,833,833,833,833,833,833,833,832,829,825,821,817,804,800,794,791,788,782,781,779,777,775,768,765,758,751,743,726,716,706,693,678,656,644,636,625,621,612,607,605,603,600,595,592,587,579,573,562,558,553,552,545,544,543,543,543,543,543,542,541,540,538,533,527,516],"ymouse":[528,528,528,528,528,528,528,528,528,528,528,528,528,528,528,528,528,528,528,528,528,528,528,528,528,528,528,528,528,528,528,528,528,528,528,528,528,527,525,522,518,510,504,487,480,470,464,458,444,438,431,422,413,393,382,364,353,343,320,310,295,276,258,226,210,198,181,173,159,155,153,149,144,138,134,129,122,117,108,105,102,101,98,97,97,97,97,97,97,96,95,94,93,90,86,79],"timestamp_mouse":[18,37,56,77,96,116,136,156,177,197,216,237,257,275,297,316,336,356,377,397,416,436,457,476,497,517,537,556,576,597,617,635,657,677,696,717,737,756,777,796,816,836,855,876,897,916,937,957,976,996,1016,1035,1057,1076,1096,1116,1137,1156,1176,1195,1216,1237,1256,1275,1296,1316,1337,1356,1377,1396,1416,1437,1456,1475,1496,1516,1536,1557,1575,1597,1616,1635,1656,1676,1697,1717,1737,1758,1776,1795,1816,1835,1857,1875,1896,1916],"xSR":741.5,"ySR":469.95,"xT1":424.9,"yT1":0,"xT2":1058.1,"yT2":0,"toosoon":0,"cond_shown":"equaldotsize","ratio_trial":500,"smaller_num":"6","larger_num":"12","correct_side":1,"subjID":"JuanMartínBlancoNarvaéz25","gender":"0","age":"9","school":"4"},{"start_time":1552055268242,"click_time":1552055269598,"finger_time":1552055269019,"fix_duration":942.9359003768304,"trial":43,"RT":777,"MT":579,"sideResp":1,"stimulus":"img/900/randomdotsizeEA/L/1_Ratio_900_L_10_R_9.png","xmouse":[800,800,800,800,800,800,800,800,800,800,800,800,800,800,800,800,800,800,800,800,800,800,800,800,800,800,800,800,800,800,800,800,800,800,800,801,801,803,805,807,807,807,806,802,796,787,778,753,744,735,727,718,698,686,674,661,647,611,596,583,571,558,538,527,520,512,506,498],"ymouse":[485,485,485,485,485,485,485,485,485,485,485,485,485,485,485,485,485,485,485,485,485,485,485,485,485,485,485,485,485,485,485,485,485,485,485,485,483,476,466,461,454,447,433,426,420,412,406,386,377,363,351,337,302,283,265,247,228,187,172,159,151,141,123,117,111,105,102,96],"timestamp_mouse":[16,37,56,76,97,117,136,157,176,196,216,236,256,276,296,316,337,355,376,397,416,435,456,477,496,516,536,555,577,596,616,637,657,677,696,716,736,756,777,796,817,836,856,875,897,916,937,956,976,996,1016,1036,1056,1076,1096,1116,1136,1157,1177,1196,1215,1236,1257,1277,1296,1316,1336,1356],"xSR":741.5,"ySR":469.95,"xT1":424.9,"yT1":0,"xT2":1058.1,"yT2":0,"toosoon":0,"cond_shown":"randomdotsizeEA","ratio_trial":900,"smaller_num":"9","larger_num":"10","correct_side":1,"subjID":"JuanMartínBlancoNarvaéz25","gender":"0","age":"9","school":"4"},{"start_time":1552055271831,"click_time":1552055273378,"finger_time":1552055272597,"fix_duration":730.9710845936448,"trial":44,"RT":766,"MT":781,"sideResp":1,"stimulus":"img/750/randomdotsizeEA/L/13_Ratio_750_L_8_R_6.png","xmouse":[806,806,806,806,806,806,806,806,805,804,804,803,802,802,802,802,802,802,802,802,802,802,802,802,802,800,799,795,782,777,773,770,769,765,762,757,753,745,734,729,723,717,712,706,693,683,662,640,612,527,475,424,376,336,274,258,254,253,252,252,254,257,261,268,279,287,293,303,318,326,336,348,360,370,387,400,420,433],"ymouse":[523,523,523,523,523,523,523,523,523,523,523,523,524,524,524,524,524,524,524,524,524,524,524,524,524,525,525,527,529,529,529,529,528,526,524,519,515,505,490,480,470,460,450,440,422,410,398,388,379,345,319,289,261,235,188,166,155,147,137,131,128,123,118,111,102,96,92,86,81,80,77,74,71,69,65,61,55,49],"timestamp_mouse":[10,33,48,67,87,108,126,147,167,187,208,227,248,267,287,307,328,346,367,387,408,427,447,467,487,506,527,547,567,587,606,628,647,668,687,707,727,747,766,787,807,827,847,867,887,908,927,947,968,986,1007,1028,1048,1067,1087,1107,1128,1147,1168,1187,1206,1226,1246,1266,1287,1306,1326,1347,1368,1386,1407,1428,1448,1467,1488,1507,1527,1547],"xSR":741.5,"ySR":469.95,"xT1":424.9,"yT1":0,"xT2":1058.1,"yT2":0,"toosoon":0,"cond_shown":"randomdotsizeEA","ratio_trial":750,"smaller_num":"6","larger_num":"8","correct_side":1,"subjID":"JuanMartínBlancoNarvaéz25","gender":"0","age":"9","school":"4"},{"start_time":1552055275642,"click_time":1552055277019,"finger_time":1552055276418,"fix_duration":721.5926621883772,"trial":45,"RT":776,"MT":601,"sideResp":2,"stimulus":"img/900/randomdotsizeEA/R/9_Ratio_900_L_18_R_20.png","xmouse":[793,793,793,793,793,793,793,793,793,793,793,793,793,793,793,793,793,793,793,793,793,793,793,793,793,793,793,793,793,793,793,793,792,793,796,801,805,810,822,827,834,841,846,861,872,880,892,899,918,930,940,951,961,987,994,1005,1015,1021,1040,1055,1066,1073,1076,1086,1093,1096,1101,1103,1105],"ymouse":[510,510,510,510,510,510,510,510,510,510,510,510,510,510,510,510,510,510,510,510,510,510,510,510,510,510,510,510,510,510,510,510,510,507,500,490,480,471,447,437,425,413,402,378,360,349,335,325,304,291,280,266,255,231,225,215,207,200,184,170,160,153,150,133,122,116,108,103,98],"timestamp_mouse":[16,38,56,75,96,117,137,157,177,196,216,236,257,275,295,315,336,357,377,397,417,436,457,476,496,516,536,557,575,596,617,637,656,675,697,716,736,756,776,797,815,836,857,877,896,915,937,955,975,996,1017,1035,1056,1075,1096,1116,1136,1155,1176,1197,1216,1237,1256,1275,1296,1316,1336,1356,1376],"xSR":741.5,"ySR":469.95,"xT1":424.9,"yT1":0,"xT2":1058.1,"yT2":0,"toosoon":0,"cond_shown":"randomdotsizeEA","ratio_trial":900,"smaller_num":"18","larger_num":"20","correct_side":2,"subjID":"JuanMartínBlancoNarvaéz25","gender":"0","age":"9","school":"4"},{"start_time":1552055280507,"click_time":1552055282138,"finger_time":1552055281418,"fix_duration":985.3206781451805,"trial":46,"RT":911,"MT":720,"sideResp":2,"stimulus":"img/750/randomdotsizeEA/R/7_Ratio_750_L_3_R_4.png","xmouse":[797,797,797,797,797,797,797,797,797,797,797,797,797,797,797,797,797,797,797,797,797,797,797,797,797,797,797,797,797,797,797,797,797,797,797,797,797,797,796,796,791,787,784,781,778,775,775,775,775,778,782,791,795,802,812,822,838,847,853,862,875,884,890,898,906,919,928,939,949,952,973,981,990,997,1005,1016,1024,1029,1035,1043,1048,1060],"ymouse":[543,543,543,543,543,543,543,543,543,543,543,543,543,543,543,543,543,543,543,543,543,543,543,543,543,543,543,543,543,543,543,543,543,543,543,543,543,543,542,539,521,509,496,486,473,453,442,433,419,408,395,364,354,338,321,304,274,261,250,235,217,207,199,189,181,164,153,142,130,127,106,99,93,88,83,78,74,70,65,61,58,52],"timestamp_mouse":[17,38,52,71,91,111,131,151,171,192,211,231,252,271,292,312,332,350,371,392,411,430,452,472,490,511,531,550,571,592,612,632,651,671,692,712,732,752,770,792,811,832,852,872,891,911,930,951,971,991,1011,1031,1051,1071,1090,1111,1131,1150,1171,1191,1212,1231,1250,1271,1290,1312,1331,1351,1371,1392,1411,1431,1451,1471,1492,1511,1531,1552,1571,1591,1611,1631],"xSR":741.5,"ySR":469.95,"xT1":424.9,"yT1":0,"xT2":1058.1,"yT2":0,"toosoon":0,"cond_shown":"randomdotsizeEA","ratio_trial":750,"smaller_num":"3","larger_num":"4","correct_side":2,"subjID":"JuanMartínBlancoNarvaéz25","gender":"0","age":"9","school":"4"},{"start_time":1552055283271,"click_time":1552055284938,"finger_time":1552055284139,"fix_duration":250,"trial":47,"RT":868,"MT":799,"sideResp":2,"stimulus":"img/250/randomdotsizeEA/R/8_Ratio_250_L_1_R_4.png","xmouse":[798,798,798,798,798,798,798,798,798,798,798,798,798,798,798,798,798,798,798,798,798,798,798,798,798,798,798,798,798,798,798,798,798,798,798,797,796,793,785,781,779,779,779,779,779,781,784,798,812,817,830,849,869,881,891,900,908,914,929,939,947,953,961,972,977,985,990,996,1007,1023,1039,1050,1059,1062,1062,1063,1063,1064,1067,1069,1075,1080,1083,1090],"ymouse":[505,505,505,505,505,505,505,505,505,505,505,505,505,505,505,505,505,505,505,505,505,505,505,505,505,505,505,505,505,505,505,505,505,505,505,505,503,496,483,476,474,473,472,466,462,455,445,424,399,389,371,342,317,303,292,281,272,261,240,226,215,207,199,187,183,177,173,169,163,155,149,145,142,140,140,139,139,138,135,132,122,113,102,81],"timestamp_mouse":[11,31,47,68,88,107,128,147,168,187,209,228,247,267,288,308,328,347,367,388,408,428,448,468,488,507,528,547,567,587,609,628,648,667,688,707,727,747,767,788,808,828,847,868,887,908,928,948,968,987,1007,1027,1049,1067,1088,1108,1128,1147,1167,1187,1208,1227,1248,1267,1287,1307,1327,1348,1367,1388,1408,1428,1447,1467,1487,1508,1528,1548,1567,1588,1608,1628,1647,1667],"xSR":741.5,"ySR":469.95,"xT1":424.9,"yT1":0,"xT2":1058.1,"yT2":0,"toosoon":0,"cond_shown":"randomdotsizeEA","ratio_trial":250,"smaller_num":"1","larger_num":"4","correct_side":2,"subjID":"JuanMartínBlancoNarvaéz25","gender":"0","age":"9","school":"4"},{"start_time":1552055287776,"click_time":1552055288979,"finger_time":1552055288579,"fix_duration":615.6823184043602,"trial":48,"RT":803,"MT":400,"sideResp":2,"stimulus":"img/250/randomdotsizeEA/R/10_Ratio_250_L_4_R_16.png","xmouse":[792,792,792,792,792,792,792,792,792,792,792,792,792,792,792,792,792,792,792,792,792,792,792,792,792,792,792,792,792,792,792,792,792,792,792,792,793,796,815,826,838,847,857,869,876,885,892,900,920,932,944,959,975,996,1007,1017,1028,1040,1063,1076,1086],"ymouse":[538,538,538,538,538,538,538,538,538,538,538,538,538,538,538,538,538,538,538,538,538,538,538,538,538,538,538,538,538,538,538,538,538,538,538,538,534,530,501,483,466,450,428,401,390,379,368,358,331,314,296,276,249,219,201,185,168,150,120,103,91],"timestamp_mouse":[17,32,42,62,82,103,122,142,163,182,202,222,243,263,283,302,322,342,362,383,403,423,443,462,482,503,522,542,562,582,602,622,644,663,683,703,723,742,762,784,803,822,842,862,882,902,923,942,962,982,1002,1022,1043,1063,1083,1102,1124,1143,1162,1182,1203],"xSR":741.5,"ySR":469.95,"xT1":424.9,"yT1":0,"xT2":1058.1,"yT2":0,"toosoon":0,"cond_shown":"randomdotsizeEA","ratio_trial":250,"smaller_num":"4","larger_num":"16","correct_side":2,"subjID":"JuanMartínBlancoNarvaéz25","gender":"0","age":"9","school":"4"},{"start_time":1552055290927,"click_time":1552055292298,"finger_time":1552055291840,"fix_duration":966.304194468951,"trial":49,"RT":913,"MT":458,"sideResp":2,"stimulus":"img/900/randomdotsizeEA/R/14_Ratio_900_L_18_R_20.png","xmouse":[817,817,817,817,817,817,817,817,817,817,817,817,817,817,817,817,817,817,817,817,817,817,817,817,817,817,817,817,817,817,817,817,817,817,817,817,818,819,820,821,822,822,822,823,823,825,826,828,831,834,844,854,857,864,877,885,902,908,917,925,933,949,959,976,991,1005,1038,1056,1063],"ymouse":[503,503,503,503,503,503,503,503,503,503,503,503,503,503,503,503,503,503,503,503,503,503,503,503,503,503,503,503,503,503,503,503,503,499,498,497,494,492,490,486,484,479,476,473,471,460,453,445,435,425,403,381,374,361,342,327,304,292,280,267,253,219,198,164,138,113,53,23,11],"timestamp_mouse":[11,31,52,72,92,112,131,151,171,192,212,232,251,272,292,312,332,352,371,392,411,432,451,472,492,511,533,552,572,592,611,632,653,671,692,711,731,751,772,792,811,831,851,871,892,913,931,953,972,991,1012,1031,1051,1073,1091,1111,1132,1152,1171,1192,1213,1232,1251,1271,1291,1311,1331,1351,1371],"xSR":741.5,"ySR":469.95,"xT1":424.9,"yT1":0,"xT2":1058.1,"yT2":0,"toosoon":0,"cond_shown":"randomdotsizeEA","ratio_trial":900,"smaller_num":"18","larger_num":"20","correct_side":2,"subjID":"JuanMartínBlancoNarvaéz25","gender":"0","age":"9","school":"4"},{"start_time":1552055293690,"click_time":1552055295398,"finger_time":1552055294598,"fix_duration":250,"trial":50,"RT":908,"MT":800,"sideResp":1,"stimulus":"img/900/randomdotsizeEA/L/1_Ratio_900_L_10_R_9.png","xmouse":[755,755,755,755,755,754,751,747,743,742,742,742,742,742,742,742,742,742,742,742,742,742,742,742,742,742,742,742,742,742,742,742,742,742,742,742,742,742,742,742,742,742,742,742,742,741,735,731,722,718,715,713,711,709,708,707,706,706,704,704,704,701,698,688,681,677,671,668,659,657,653,651,649,646,642,640,636,628,596,572,548,525,507,493,491,491],"ymouse":[482,482,482,482,482,482,484,489,499,500,500,500,500,500,500,500,500,500,500,500,500,500,500,500,500,500,500,500,500,500,500,500,500,500,500,500,500,500,500,500,500,500,500,500,500,500,494,488,468,455,442,431,422,405,395,388,383,374,353,340,328,313,295,259,235,219,205,194,174,167,163,159,156,153,151,151,151,151,156,157,154,146,133,112,103,99],"timestamp_mouse":[9,29,49,69,89,109,129,149,168,189,208,229,249,268,288,309,328,349,369,389,408,429,449,469,489,509,528,548,569,589,609,628,648,669,688,709,728,748,768,788,808,828,849,868,889,908,929,948,969,989,1009,1028,1048,1068,1088,1108,1129,1149,1168,1188,1209,1228,1248,1268,1289,1308,1329,1349,1368,1388,1409,1428,1449,1468,1488,1508,1529,1548,1569,1588,1608,1629,1648,1668,1688,1708],"xSR":741.5,"ySR":469.95,"xT1":424.9,"yT1":0,"xT2":1058.1,"yT2":0,"toosoon":0,"cond_shown":"randomdotsizeEA","ratio_trial":900,"smaller_num":"9","larger_num":"10","correct_side":1,"subjID":"JuanMartínBlancoNarvaéz25","gender":"0","age":"9","school":"4"},{"start_time":1552055297316,"click_time":1552055298878,"finger_time":1552055298179,"fix_duration":414.8565370197884,"trial":51,"RT":863,"MT":699,"sideResp":2,"stimulus":"img/900/equaldotsize/R/15_Ratio_900_L_9_R_10.png","xmouse":[807,807,807,807,807,807,807,807,807,807,807,807,807,807,807,807,807,807,807,807,807,807,807,807,807,807,807,807,807,807,807,807,807,807,807,807,807,807,807,809,813,819,833,850,866,881,901,926,990,1025,1053,1071,1096,1097,1098,1100,1101,1105,1106,1108,1109,1110,1108,1102,1096,1092,1090,1090,1091,1092,1094,1094,1095,1095,1095,1095,1095,1095,1095],"ymouse":[537,537,537,537,537,537,537,537,537,537,537,537,537,537,537,537,537,537,537,537,537,537,537,537,537,537,537,537,537,537,537,537,537,537,537,537,537,537,537,538,536,531,523,509,499,489,476,458,403,373,346,324,289,283,280,276,275,267,265,261,251,239,207,188,174,160,148,130,121,115,109,106,103,102,102,102,102,102,99],"timestamp_mouse":[2,28,43,62,83,103,122,142,163,182,203,222,242,262,282,302,323,343,364,382,403,423,443,463,483,502,523,542,563,583,602,623,642,662,682,703,722,742,763,783,802,823,842,863,883,903,924,943,962,983,1002,1022,1042,1062,1083,1103,1122,1143,1162,1182,1202,1223,1242,1263,1282,1302,1323,1344,1362,1382,1404,1422,1442,1462,1482,1504,1524,1542,1562],"xSR":741.5,"ySR":469.95,"xT1":424.9,"yT1":0,"xT2":1058.1,"yT2":0,"toosoon":0,"cond_shown":"equaldotsize","ratio_trial":900,"smaller_num":"9","larger_num":"10","correct_side":2,"subjID":"JuanMartínBlancoNarvaéz25","gender":"0","age":"9","school":"4"},{"start_time":1552055300525,"click_time":1552055301720,"finger_time":1552055301318,"fix_duration":764.5972628965558,"trial":52,"RT":793,"MT":402,"sideResp":1,"stimulus":"img/900/equaldotsize/R/5_Ratio_900_L_9_R_10.png","xmouse":[807,807,807,807,807,807,807,807,807,807,807,807,807,807,807,807,807,807,807,807,807,807,807,807,807,807,807,807,807,807,807,807,807,807,807,807,806,805,799,793,783,773,747,734,724,712,701,677,665,653,635,613,600,589,578,567,558,546,531,519],"ymouse":[522,522,522,522,522,522,522,522,522,522,522,522,522,522,522,522,522,522,522,522,522,522,522,522,522,522,522,522,522,522,522,522,522,522,522,522,519,504,478,459,440,424,390,372,356,340,325,292,276,262,239,205,188,170,151,132,115,91,46,28],"timestamp_mouse":[14,34,53,74,93,115,134,154,174,194,214,234,254,273,294,313,333,355,374,394,415,433,454,473,494,514,533,553,574,594,614,634,654,674,693,714,734,753,773,793,814,833,853,873,893,914,934,953,973,993,1013,1035,1053,1074,1095,1113,1134,1154,1174,1194],"xSR":741.5,"ySR":469.95,"xT1":424.9,"yT1":0,"xT2":1058.1,"yT2":0,"toosoon":0,"cond_shown":"equaldotsize","ratio_trial":900,"smaller_num":"9","larger_num":"10","correct_side":2,"subjID":"JuanMartínBlancoNarvaéz25","gender":"0","age":"9","school":"4"},{"start_time":1552055304321,"click_time":1552055305458,"finger_time":1552055305058,"fix_duration":1001.6846234923261,"trial":53,"RT":737,"MT":400,"sideResp":1,"stimulus":"img/500/equaldotanddens/L/4_Ratio_500_L_18_R_9.png","xmouse":[806,806,806,806,806,806,806,806,806,806,806,806,806,806,806,806,806,806,806,806,806,806,806,806,806,806,806,806,806,806,806,804,798,793,782,769,753,712,696,682,671,660,638,626,613,597,581,539,520,505,492,483,477,472,471,470,470],"ymouse":[513,513,513,513,513,513,513,513,513,513,513,513,513,513,513,513,513,513,513,513,513,513,513,513,513,513,513,513,513,513,513,513,510,506,496,484,468,419,396,375,356,337,304,290,278,267,251,205,181,162,146,133,121,106,102,100,99],"timestamp_mouse":[18,37,58,78,98,119,137,158,179,198,218,237,257,278,297,317,338,358,377,397,419,437,458,479,497,518,537,558,578,598,617,638,657,678,697,717,737,757,777,797,818,838,857,877,897,918,938,957,979,998,1017,1037,1057,1079,1098,1118,1137],"xSR":741.5,"ySR":469.95,"xT1":424.9,"yT1":0,"xT2":1058.1,"yT2":0,"toosoon":0,"cond_shown":"equaldotanddens","ratio_trial":500,"smaller_num":"9","larger_num":"18","correct_side":1,"subjID":"JuanMartínBlancoNarvaéz25","gender":"0","age":"9","school":"4"},{"start_time":1552055314579,"click_time":1552055315578,"finger_time":1552055315398,"fix_duration":1178.4563898653319,"trial":54,"RT":819,"MT":180,"sideResp":2,"stimulus":"img/750/randomdotsizeEA/R/11_Ratio_750_L_12_R_16.png","xmouse":[782,782,782,782,782,782,782,782,782,782,782,782,782,782,782,782,782,782,782,782,782,782,782,782,782,782,782,782,782,782,782,782,782,782,782,782,782,782,782,782,792,811,827,854,892,938,1020,1055,1079,1095,1109],"ymouse":[502,502,502,502,502,502,502,502,502,502,502,502,502,502,502,502,502,502,502,502,502,502,502,502,502,502,502,502,502,502,502,502,502,502,502,502,502,502,500,497,482,459,444,418,385,345,244,199,152,123,89],"timestamp_mouse":[1,30,40,59,79,99,119,141,160,179,199,221,240,260,280,300,320,340,359,379,399,419,439,461,480,500,521,540,560,579,601,620,639,659,680,700,720,740,760,780,799,819,841,859,880,899,920,939,959,980,999],"xSR":741.5,"ySR":469.95,"xT1":424.9,"yT1":0,"xT2":1058.1,"yT2":0,"toosoon":0,"cond_shown":"randomdotsizeEA","ratio_trial":750,"smaller_num":"12","larger_num":"16","correct_side":2,"subjID":"JuanMartínBlancoNarvaéz25","gender":"0","age":"9","school":"4"},{"start_time":1552055317392,"click_time":1552055318778,"finger_time":1552055318079,"fix_duration":611.1120083398262,"trial":55,"RT":687,"MT":699,"sideResp":2,"stimulus":"img/500/randomdotsizeEA/R/6_Ratio_500_L_9_R_18.png","xmouse":[757,757,757,757,757,757,757,757,757,757,757,757,757,757,757,757,757,757,757,757,757,757,757,757,757,757,757,757,757,757,757,759,763,768,778,789,821,836,852,874,888,914,924,934,946,956,969,975,981,986,994,996,997,1000,1002,1004,1004,1004,1004,1004,1004,1004,1004,1004,1004,1004,1004,1004,1004,1063],"ymouse":[490,490,490,490,490,490,490,490,490,490,490,490,490,490,490,490,490,490,490,490,490,490,490,490,490,490,490,490,490,490,490,490,485,477,462,450,411,388,359,319,287,234,210,186,160,136,96,78,55,42,25,18,12,8,4,1,1,1,1,1,1,1,1,1,1,1,1,1,1,2],"timestamp_mouse":[11,37,47,67,87,106,127,146,166,187,207,228,246,267,286,306,326,347,367,387,407,427,446,467,486,507,526,546,567,587,607,627,647,666,687,706,726,746,766,788,808,827,847,867,886,906,927,946,966,986,1008,1026,1047,1067,1086,1107,1126,1147,1167,1186,1208,1226,1246,1266,1287,1307,1327,1347,1366,1386],"xSR":741.5,"ySR":469.95,"xT1":424.9,"yT1":0,"xT2":1058.1,"yT2":0,"toosoon":0,"cond_shown":"randomdotsizeEA","ratio_trial":500,"smaller_num":"9","larger_num":"18","correct_side":2,"subjID":"JuanMartínBlancoNarvaéz25","gender":"0","age":"9","school":"4"},{"start_time":1552055320206,"click_time":1552055321379,"finger_time":1552055320899,"fix_duration":387.2308530327573,"trial":56,"RT":693,"MT":480,"sideResp":2,"stimulus":"img/900/equaldotanddens/R/14_Ratio_900_L_18_R_20.png","xmouse":[809,809,809,809,809,809,809,809,809,809,809,809,809,809,809,809,809,809,809,809,809,809,809,809,809,809,809,809,809,809,809,807,806,805,803,801,799,799,799,802,811,817,828,838,849,883,895,907,921,934,958,971,981,995,1007,1037,1048,1058,1067],"ymouse":[493,493,493,493,493,493,493,493,493,493,493,493,493,493,493,493,493,493,493,493,493,493,493,493,493,493,493,493,493,493,493,492,487,477,463,436,414,398,383,368,336,318,295,271,249,191,170,150,131,118,97,88,80,71,64,49,44,40,36],"timestamp_mouse":[29,34,53,73,92,113,133,152,173,193,213,233,254,273,293,313,333,352,372,393,413,433,452,472,492,513,534,553,572,592,612,632,653,672,693,713,732,752,773,793,813,832,853,873,893,912,933,952,972,992,1012,1032,1053,1073,1092,1112,1132,1152,1173],"xSR":741.5,"ySR":469.95,"xT1":424.9,"yT1":0,"xT2":1058.1,"yT2":0,"toosoon":0,"cond_shown":"equaldotanddens","ratio_trial":900,"smaller_num":"18","larger_num":"20","correct_side":2,"subjID":"JuanMartínBlancoNarvaéz25","gender":"0","age":"9","school":"4"},{"start_time":1552055323086,"click_time":1552055324421,"finger_time":1552055323718,"fix_duration":807.7171394946591,"trial":57,"RT":632,"MT":703,"sideResp":1,"stimulus":"img/250/equaldotanddens/L/15_Ratio_250_L_12_R_3.png","xmouse":[811,811,809,809,808,808,808,808,808,808,808,808,808,808,808,808,808,808,808,808,808,808,808,808,808,808,808,808,807,805,802,767,733,686,626,566,510,421,391,370,354,319,312,307,305,304,304,304,304,304,304,304,304,304,304,304,304,304,304,304,304,304,304,304,304,421,430],"ymouse":[499,499,500,501,501,502,502,502,502,502,502,502,502,502,502,502,502,502,502,502,502,502,502,502,502,502,502,502,502,499,493,449,424,390,350,305,262,182,152,133,113,70,54,37,20,2,2,2,2,2,2,2,2,2,2,2,2,2,2,2,2,2,2,2,2,0,18],"timestamp_mouse":[15,33,53,72,93,113,132,152,172,193,212,232,252,272,292,313,334,352,372,392,413,432,452,472,492,513,534,553,572,592,612,632,652,673,693,714,733,753,772,792,813,833,853,873,893,914,933,953,973,992,1013,1033,1052,1072,1093,1113,1133,1153,1172,1192,1213,1232,1252,1272,1292,1313,1335],"xSR":741.5,"ySR":469.95,"xT1":424.9,"yT1":0,"xT2":1058.1,"yT2":0,"toosoon":0,"cond_shown":"equaldotanddens","ratio_trial":250,"smaller_num":"3","larger_num":"12","correct_side":1,"subjID":"JuanMartínBlancoNarvaéz25","gender":"0","age":"9","school":"4"},{"start_time":1552055326190,"click_time":1552055327379,"finger_time":1552055326879,"fix_duration":670.619796311309,"trial":58,"RT":689,"MT":500,"sideResp":1,"stimulus":"img/750/equaldotanddens/L/13_Ratio_750_L_8_R_6.png","xmouse":[804,802,802,802,802,802,802,802,802,802,802,802,802,802,802,802,802,802,802,802,802,802,802,802,802,802,802,802,802,801,799,794,776,764,740,727,696,681,666,654,645,640,629,627,621,618,613,606,601,597,595,588,575,567,549,535,518,487,477,469],"ymouse":[539,537,536,536,536,536,536,536,536,536,536,536,536,536,536,536,536,536,536,536,536,536,536,536,536,536,536,536,535,534,533,529,515,504,480,462,415,389,363,336,314,297,254,248,231,222,213,197,189,184,180,173,160,152,142,136,129,113,104,98],"timestamp_mouse":[10,33,49,68,88,108,129,150,169,188,208,228,248,269,288,308,329,349,368,388,408,428,448,469,489,509,528,549,568,588,610,628,648,669,689,708,730,748,768,789,808,828,848,869,889,908,930,948,968,990,1009,1028,1048,1069,1089,1109,1128,1148,1168,1189],"xSR":741.5,"ySR":469.95,"xT1":424.9,"yT1":0,"xT2":1058.1,"yT2":0,"toosoon":0,"cond_shown":"equaldotanddens","ratio_trial":750,"smaller_num":"6","larger_num":"8","correct_side":1,"subjID":"JuanMartínBlancoNarvaéz25","gender":"0","age":"9","school":"4"},{"start_time":1552055331542,"click_time":1552055333099,"finger_time":1552055332180,"fix_duration":761.7912953773687,"trial":59,"RT":638,"MT":919,"sideResp":1,"stimulus":"img/750/equaldotsize/L/1_Ratio_750_L_20_R_15.png","xmouse":[762,762,762,762,762,762,762,762,762,762,762,762,762,762,762,762,762,762,762,762,762,762,762,762,762,762,762,762,762,762,762,762,761,758,749,741,729,715,703,678,663,650,631,611,579,572,566,560,555,555,555,555,555,555,555,555,555,550,547,539,536,533,530,529,527,527,527,527,527,527,527,527,527,527,527,527,526,522],"ymouse":[492,492,492,492,492,492,492,492,492,492,492,492,492,492,492,492,492,492,492,492,492,492,492,492,492,492,492,492,492,486,477,462,442,418,354,326,297,270,245,199,177,156,134,108,53,35,20,8,0,0,0,0,0,0,0,0,0,1,9,36,48,56,61,62,62,62,62,62,62,62,62,62,62,62,62,62,62,62],"timestamp_mouse":[32,36,57,76,96,116,137,156,176,197,216,238,257,280,296,317,336,356,376,396,418,436,457,476,496,516,537,557,576,596,616,638,656,676,696,717,737,757,778,797,816,838,856,877,897,916,938,957,977,997,1016,1037,1057,1076,1096,1116,1136,1157,1177,1197,1217,1236,1256,1276,1297,1318,1336,1356,1376,1397,1417,1437,1456,1477,1496,1516,1537,1556],"xSR":741.5,"ySR":469.95,"xT1":424.9,"yT1":0,"xT2":1058.1,"yT2":0,"toosoon":0,"cond_shown":"equaldotsize","ratio_trial":750,"smaller_num":"15","larger_num":"20","correct_side":1,"subjID":"JuanMartínBlancoNarvaéz25","gender":"0","age":"9","school":"4"},{"start_time":1552055334725,"click_time":1552055335940,"finger_time":1552055335359,"fix_duration":464.99768540800903,"trial":60,"RT":634,"MT":581,"sideResp":1,"stimulus":"img/750/equaldotsize/L/8_Ratio_750_L_4_R_3.png","xmouse":[788,788,788,788,788,788,788,788,788,788,788,788,788,788,788,788,788,788,788,788,788,788,788,788,788,788,788,788,788,788,788,787,785,779,775,770,756,748,740,729,709,697,684,664,650,616,606,599,593,589,584,581,581,578,576,570,554,542,531,520,507],"ymouse":[491,491,491,491,491,491,491,491,491,491,491,491,491,491,491,491,491,491,491,491,491,491,491,491,491,491,491,490,488,484,476,469,464,452,444,434,411,396,380,362,327,306,287,255,233,197,186,176,169,164,159,156,156,153,152,150,140,132,122,111,95],"timestamp_mouse":[15,34,53,73,93,114,133,153,173,194,213,233,254,274,294,313,335,353,374,394,414,433,454,473,495,514,533,553,575,593,614,634,653,675,694,713,733,754,773,793,814,833,853,874,894,915,933,954,974,993,1014,1033,1054,1075,1094,1115,1133,1153,1173,1193,1214],"xSR":741.5,"ySR":469.95,"xT1":424.9,"yT1":0,"xT2":1058.1,"yT2":0,"toosoon":0,"cond_shown":"equaldotsize","ratio_trial":750,"smaller_num":"3","larger_num":"4","correct_side":1,"subjID":"JuanMartínBlancoNarvaéz25","gender":"0","age":"9","school":"4"},{"start_time":1552055338081,"click_time":1552055339139,"finger_time":1552055338638,"fix_duration":1020.797858531509,"trial":61,"RT":557,"MT":501,"sideResp":2,"stimulus":"img/750/randomdotsizeEA/R/15_Ratio_750_L_9_R_12.png","xmouse":[794,794,794,794,794,794,794,794,794,794,794,794,794,794,794,794,794,794,794,795,796,798,799,801,805,807,810,816,825,834,843,855,868,907,923,939,956,972,1007,1022,1036,1051,1062,1089,1097,1103,1108,1112,1117,1119,1120,1121,1123],"ymouse":[496,496,496,496,496,496,496,496,496,496,496,496,496,496,496,496,496,496,496,496,495,495,493,489,484,479,474,467,451,440,429,414,397,353,335,318,301,287,258,245,232,220,209,179,167,156,146,137,121,115,110,104,95],"timestamp_mouse":[17,39,57,77,99,118,137,158,177,199,217,238,257,277,298,319,337,358,378,397,418,438,457,477,497,518,537,557,577,598,617,638,659,677,697,718,738,758,777,798,818,837,857,877,897,917,937,958,977,997,1017,1038,1058],"xSR":741.5,"ySR":469.95,"xT1":424.9,"yT1":0,"xT2":1058.1,"yT2":0,"toosoon":0,"cond_shown":"randomdotsizeEA","ratio_trial":750,"smaller_num":"9","larger_num":"12","correct_side":2,"subjID":"JuanMartínBlancoNarvaéz25","gender":"0","age":"9","school":"4"},{"start_time":1552055340722,"click_time":1552055341919,"finger_time":1552055341438,"fix_duration":683.6325976386104,"trial":62,"RT":716,"MT":481,"sideResp":2,"stimulus":"img/500/equaldotsize/R/12_Ratio_500_L_1_R_2.png","xmouse":[819,819,819,819,819,819,819,819,819,819,819,819,819,819,819,819,819,819,819,819,819,819,819,819,819,819,819,819,819,819,819,819,822,828,837,850,888,911,934,961,971,1008,1015,1020,1023,1024,1031,1033,1034,1034,1034,1034,1034,1034,1035,1037,1043,1046,1051,1059],"ymouse":[530,530,530,530,530,530,530,530,530,530,530,530,530,530,530,530,530,530,530,530,530,530,530,530,530,530,530,530,530,530,530,527,517,497,475,448,388,358,327,296,284,242,231,220,215,206,186,176,165,158,145,137,122,114,107,101,87,83,77,70],"timestamp_mouse":[17,36,57,76,97,117,136,157,176,196,216,236,256,277,297,316,336,357,377,397,417,436,457,478,497,517,536,556,576,597,616,636,657,676,698,716,736,756,777,796,818,837,857,876,897,916,936,956,976,997,1016,1037,1057,1077,1097,1117,1137,1157,1176,1197],"xSR":741.5,"ySR":469.95,"xT1":424.9,"yT1":0,"xT2":1058.1,"yT2":0,"toosoon":0,"cond_shown":"equaldotsize","ratio_trial":500,"smaller_num":"1","larger_num":"2","correct_side":2,"subjID":"JuanMartínBlancoNarvaéz25","gender":"0","age":"9","school":"4"},{"start_time":1552055345184,"click_time":1552055346578,"finger_time":1552055345938,"fix_duration":1025.8607305669352,"trial":63,"RT":754,"MT":640,"sideResp":2,"stimulus":"img/900/equaldotanddens/L/10_Ratio_900_L_20_R_18.png","xmouse":[794,794,794,794,794,794,794,794,794,794,794,794,794,794,794,794,794,794,794,794,794,794,794,794,794,794,794,794,794,794,794,795,795,795,802,810,818,826,842,849,858,864,868,875,891,906,914,922,941,950,962,973,983,995,1013,1025,1029,1033,1033,1035,1035,1035,1036,1036,1038,1040,1045,1048,1051,1061],"ymouse":[524,524,524,524,524,524,524,524,524,524,524,524,524,524,524,524,524,524,524,524,524,524,524,524,524,524,524,524,524,524,524,524,522,517,500,485,472,457,429,414,399,385,372,357,325,301,286,273,245,233,220,207,195,182,162,148,141,13