[{"start_time":1552312985456,"click_time":1552312986000,"finger_time":1552312985467,"fix_duration":372.26115171417575,"trial":0,"RT":11,"MT":533,"sideResp":2,"stimulus":[],"xmouse":[799,799,799,799,799,799,799,799,799,799,799,798,798,798,798,798,798,798,798,798,798,798,798,805,814,834,950,1083],"ymouse":[521,521,521,521,521,521,521,521,521,521,521,524,525,525,525,526,526,526,526,526,526,526,526,519,509,467,259,59],"timestamp_mouse":[10,22,42,63,82,102,122,142,161,182,202,221,242,263,283,303,322,342,363,382,401,421,441,462,482,502,523,543],"xSR":741.5,"ySR":469.95,"xT1":424.9,"yT1":0,"xT2":1058.1,"yT2":0,"toosoon":0,"cond_shown":"Incongruent","ratio_trial":100,"L_num":8,"L_den":20,"R_num":1,"R_den":2,"correct_side":2,"subjID":"juan pablo galindo valbuena .15","gender":"0","age":"10","school":null,"test":{"fix_dur":[250,1500],"timestim":1000,"targets_dim":[100,100],"targets_relative_coord":[0.3,0.7],"size_stim":[880,420],"start_dim":[100,100],"size_start":[300,300],"size_fix":60,"samplingrate":20,"img_types":["Congruent","Incongruent"],"ratios":[100,200,300],"rep_conds":19,"nTrials":120,"trials_to_rest":500,"Trials_order":[13,41,40,70,71,115,39,83,48,98,106,28,77,103,94,8,74,4,18,68,33,62,72,84,89,80,47,27,5,52,95,43,104,82,31,30,91,38,0,119,90,25,118,81,60,36,34,37,61,88,54,46,78,114,10,3,116,111,110,73,20,97,6,66,44,107,69,51,56,21,50,35,19,113,105,102,79,100,1,29,53,17,11,7,14,42,67,75,109,58,117,15,92,12,23,63,87,22,64,2,93,57,55,76,9,24,112,86,65,85,96,108,16,45,49,26,32,59,101,99],"cond_shown":["Incongruent","Incongruent","Congruent","Congruent","Incongruent","Incongruent","Incongruent","Incongruent","Congruent","Congruent","Congruent","Congruent","Incongruent","Incongruent","Congruent","Congruent","Congruent","Congruent","Congruent","Congruent","Incongruent","Congruent","Congruent","Congruent","Incongruent","Congruent","Incongruent","Incongruent","Incongruent","Congruent","Incongruent","Incongruent","Congruent","Congruent","Incongruent","Congruent","Incongruent","Congruent","Congruent","Incongruent","Congruent","Incongruent","Congruent","Incongruent","Congruent","Congruent","Congruent","Incongruent","Incongruent","Congruent","Congruent","Congruent","Congruent","Congruent","Congruent","Incongruent","Congruent","Incongruent","Congruent","Incongruent","Congruent","Incongruent","Congruent","Congruent","Congruent","Incongruent","Incongruent","Incongruent","Congruent","Incongruent","Congruent","Incongruent","Incongruent","Incongruent","Incongruent","Congruent","Incongruent","Congruent","Incongruent","Incongruent","Incongruent","Incongruent","Incongruent","Incongruent","Congruent","Congruent","Incongruent","Incongruent","Incongruent","Congruent","Incongruent","Incongruent","Congruent","Congruent","Incongruent","Incongruent","Incongruent","Congruent","Congruent","Congruent","Incongruent","Incongruent","Incongruent","Congruent","Incongruent","Congruent","Congruent","Congruent","Incongruent","Incongruent","Congruent","Congruent","Congruent","Incongruent","Incongruent","Congruent","Congruent","Incongruent","Incongruent","Incongruent"],"ratio_trial":[100,300,300,300,300,100,200,300,100,200,300,300,300,100,300,200,200,300,100,200,200,200,100,100,300,200,300,200,300,300,300,100,200,300,100,100,100,200,100,300,100,100,300,200,100,100,300,100,100,300,100,300,100,100,300,200,200,200,200,100,200,100,100,100,200,300,200,200,200,200,200,300,100,300,200,100,100,300,100,300,300,300,300,100,200,100,100,200,100,300,200,200,200,100,300,200,200,300,300,200,200,200,100,300,200,100,300,200,300,100,100,100,300,200,100,200,200,300,300,200],"left_num":[8,4,1,5,4,17,7,4,2,9,2,11,13,2,3,12,3,11,12,20,3,3,1,9,13,8,13,6,3,2,13,9,9,4,6,7,8,1,4,13,9,2,20,7,7,8,9,6,6,4,7,2,1,9,1,4,3,11,14,2,16,12,2,9,6,4,9,1,7,7,4,7,13,1,4,2,10,4,2,13,13,2,4,17,8,11,3,3,8,11,4,4,7,12,13,7,4,11,11,16,3,7,11,20,7,2,3,9,4,17,3,1,20,3,12,13,7,13,13,7],"right_num":[1,2,19,6,2,10,8,2,11,13,12,1,12,8,2,6,9,1,13,9,1,11,18,8,12,7,12,3,4,10,12,20,13,1,3,15,1,21,6,12,8,6,5,4,15,2,3,3,3,13,9,10,3,8,3,14,9,3,6,8,9,2,6,8,3,2,8,3,18,4,3,8,6,2,6,11,8,2,8,12,12,6,8,10,2,4,7,1,6,1,1,6,18,13,12,14,14,2,1,12,11,8,9,13,4,6,2,4,2,10,2,3,13,11,2,14,2,12,12,4],"left_den":[20,20,3,25,20,30,10,20,5,30,10,22,26,4,6,20,12,22,30,25,10,10,2,15,26,15,26,20,6,20,26,10,30,10,12,14,20,2,8,26,15,4,25,15,14,16,10,12,12,20,14,20,2,15,5,6,12,20,28,4,30,30,5,15,15,20,15,2,15,15,10,10,26,2,5,5,25,5,4,26,26,4,5,30,15,22,9,10,16,22,30,5,15,30,26,10,6,22,22,20,4,10,22,25,15,5,6,20,20,30,6,2,25,4,30,26,21,26,26,15],"right_den":[2,4,30,12,4,15,16,4,22,26,24,5,15,20,10,15,20,5,26,15,2,22,30,16,15,21,15,6,20,25,15,25,26,10,5,25,2,30,10,15,16,15,10,6,25,5,5,5,5,26,15,25,5,16,6,30,20,4,20,20,27,4,12,16,15,4,10,10,27,6,15,20,10,10,10,22,16,4,20,15,15,30,16,15,6,10,30,2,10,5,3,10,27,26,15,28,30,10,5,20,20,16,15,26,6,12,10,16,4,15,5,5,26,20,4,20,15,15,15,6],"correct_side":[2,2,2,2,2,2,1,2,2,2,2,1,2,1,1,1,2,1,2,1,2,2,2,1,2,1,2,2,1,2,2,1,2,1,2,2,2,2,2,2,1,1,1,2,2,1,1,2,2,2,2,2,2,1,2,1,2,2,1,1,1,2,2,1,1,2,2,1,2,2,1,1,2,1,1,2,2,1,1,2,2,1,1,2,1,1,1,2,2,1,2,1,2,2,2,1,1,1,1,1,1,1,2,1,2,2,1,1,2,2,1,2,1,1,2,2,1,2,2,2],"img_shown":["img2/100/Incongruent/R/I_Dist_100_LN_8_LD_20_RN_1_RD_2_1.png","img2/300/Incongruent/R/I_Dist_300_LN_4_LD_20_RN_2_RD_4_1.png","img2/300/Congruent/R/C_Dist_300_LN_1_LD_3_RN_19_RD_30_1.png","img2/300/Congruent/R/C_Dist_300_LN_5_LD_25_RN_6_RD_12_1.png","img2/300/Incongruent/R/I_Dist_300_LN_4_LD_20_RN_2_RD_4_1.png","img2/100/Incongruent/R/I_Dist_100_LN_17_LD_30_RN_10_RD_15_1.png","img2/200/Incongruent/L/I_Dist_200_LN_7_LD_10_RN_8_RD_16_0.png","img2/300/Incongruent/R/I_Dist_300_LN_4_LD_20_RN_2_RD_4_1.png","img2/100/Congruent/R/C_Dist_100_LN_2_LD_5_RN_11_RD_22_1.png","img2/200/Congruent/R/C_Dist_200_LN_9_LD_30_RN_13_RD_26_1.png","img2/300/Congruent/R/C_Dist_300_LN_2_LD_10_RN_12_RD_24_1.png","img2/300/Congruent/L/C_Dist_300_LN_11_LD_22_RN_1_RD_5_0.png","img2/300/Incongruent/R/I_Dist_300_LN_13_LD_26_RN_12_RD_15_1.png","img2/100/Incongruent/L/I_Dist_100_LN_2_LD_4_RN_8_RD_20_0.png","img2/300/Congruent/L/C_Dist_300_LN_3_LD_6_RN_2_RD_10_0.png","img2/200/Congruent/L/C_Dist_200_LN_12_LD_20_RN_6_RD_15_0.png","img2/200/Congruent/R/C_Dist_200_LN_3_LD_12_RN_9_RD_20_1.png","img2/300/Congruent/L/C_Dist_300_LN_11_LD_22_RN_1_RD_5_0.png","img2/100/Congruent/R/C_Dist_100_LN_12_LD_30_RN_13_RD_26_1.png","img2/200/Congruent/L/C_Dist_200_LN_20_LD_25_RN_9_RD_15_0.png","img2/200/Incongruent/R/I_Dist_200_LN_3_LD_10_RN_1_RD_2_1.png","img2/200/Congruent/R/C_Dist_200_LN_3_LD_10_RN_11_RD_22_1.png","img2/100/Congruent/R/C_Dist_100_LN_1_LD_2_RN_18_RD_30_1.png","img2/100/Congruent/L/C_Dist_100_LN_9_LD_15_RN_8_RD_16_0.png","img2/300/Incongruent/R/I_Dist_300_LN_13_LD_26_RN_12_RD_15_1.png","img2/200/Congruent/L/C_Dist_200_LN_8_LD_15_RN_7_RD_21_0.png","img2/300/Incongruent/R/I_Dist_300_LN_13_LD_26_RN_12_RD_15_1.png","img2/200/Incongruent/R/I_Dist_200_LN_6_LD_20_RN_3_RD_6_1.png","img2/300/Incongruent/L/I_Dist_300_LN_3_LD_6_RN_4_RD_20_0.png","img2/300/Congruent/R/C_Dist_300_LN_2_LD_20_RN_10_RD_25_1.png","img2/300/Incongruent/R/I_Dist_300_LN_13_LD_26_RN_12_RD_15_1.png","img2/100/Incongruent/L/I_Dist_100_LN_9_LD_10_RN_20_RD_25_0.png","img2/200/Congruent/R/C_Dist_200_LN_9_LD_30_RN_13_RD_26_1.png","img2/300/Congruent/L/C_Dist_300_LN_4_LD_10_RN_1_RD_10_0.png","img2/100/Incongruent/R/I_Dist_100_LN_6_LD_12_RN_3_RD_5_1.png","img2/100/Congruent/R/C_Dist_100_LN_7_LD_14_RN_15_RD_25_1.png","img2/100/Incongruent/R/I_Dist_100_LN_8_LD_20_RN_1_RD_2_1.png","img2/200/Congruent/R/C_Dist_200_LN_1_LD_2_RN_21_RD_30_1.png","img2/100/Congruent/R/C_Dist_100_LN_4_LD_8_RN_6_RD_10_1.png","img2/300/Incongruent/R/I_Dist_300_LN_13_LD_26_RN_12_RD_15_1.png","img2/100/Congruent/L/C_Dist_100_LN_9_LD_15_RN_8_RD_16_0.png","img2/100/Incongruent/L/I_Dist_100_LN_2_LD_4_RN_6_RD_15_0.png","img2/300/Congruent/L/C_Dist_300_LN_20_LD_25_RN_5_RD_10_0.png","img2/200/Incongruent/R/I_Dist_200_LN_7_LD_15_RN_4_RD_6_1.png","img2/100/Congruent/R/C_Dist_100_LN_7_LD_14_RN_15_RD_25_1.png","img2/100/Congruent/L/C_Dist_100_LN_8_LD_16_RN_2_RD_5_0.png","img2/300/Congruent/L/C_Dist_300_LN_9_LD_10_RN_3_RD_5_0.png","img2/100/Incongruent/R/I_Dist_100_LN_6_LD_12_RN_3_RD_5_1.png","img2/100/Incongruent/R/I_Dist_100_LN_6_LD_12_RN_3_RD_5_1.png","img2/300/Congruent/R/C_Dist_300_LN_4_LD_20_RN_13_RD_26_1.png","img2/100/Congruent/R/C_Dist_100_LN_7_LD_14_RN_9_RD_15_1.png","img2/300/Congruent/R/C_Dist_300_LN_2_LD_20_RN_10_RD_25_1.png","img2/100/Congruent/R/C_Dist_100_LN_1_LD_2_RN_3_RD_5_1.png","img2/100/Congruent/L/C_Dist_100_LN_9_LD_15_RN_8_RD_16_0.png","img2/300/Congruent/R/C_Dist_300_LN_1_LD_5_RN_3_RD_6_1.png","img2/200/Incongruent/L/I_Dist_200_LN_4_LD_6_RN_14_RD_30_0.png","img2/200/Congruent/R/C_Dist_200_LN_3_LD_12_RN_9_RD_20_1.png","img2/200/Incongruent/R/I_Dist_200_LN_11_LD_20_RN_3_RD_4_1.png","img2/200/Congruent/L/C_Dist_200_LN_14_LD_28_RN_6_RD_20_0.png","img2/100/Incongruent/L/I_Dist_100_LN_2_LD_4_RN_8_RD_20_0.png","img2/200/Congruent/L/C_Dist_200_LN_16_LD_30_RN_9_RD_27_0.png","img2/100/Incongruent/R/I_Dist_100_LN_12_LD_30_RN_2_RD_4_1.png","img2/100/Congruent/R/C_Dist_100_LN_2_LD_5_RN_6_RD_12_1.png","img2/100/Congruent/L/C_Dist_100_LN_9_LD_15_RN_8_RD_16_0.png","img2/200/Congruent/L/C_Dist_200_LN_6_LD_15_RN_3_RD_15_0.png","img2/300/Incongruent/R/I_Dist_300_LN_4_LD_20_RN_2_RD_4_1.png","img2/200/Incongruent/R/I_Dist_200_LN_9_LD_15_RN_8_RD_10_1.png","img2/200/Incongruent/L/I_Dist_200_LN_1_LD_2_RN_3_RD_10_0.png","img2/200/Congruent/R/C_Dist_200_LN_7_LD_15_RN_18_RD_27_1.png","img2/200/Incongruent/R/I_Dist_200_LN_7_LD_15_RN_4_RD_6_1.png","img2/200/Congruent/L/C_Dist_200_LN_4_LD_10_RN_3_RD_15_0.png","img2/300/Incongruent/L/I_Dist_300_LN_7_LD_10_RN_8_RD_20_0.png","img2/100/Incongruent/R/I_Dist_100_LN_13_LD_26_RN_6_RD_10_1.png","img2/300/Incongruent/L/I_Dist_300_LN_1_LD_2_RN_2_RD_10_0.png","img2/200/Incongruent/L/I_Dist_200_LN_4_LD_5_RN_6_RD_10_0.png","img2/100/Congruent/R/C_Dist_100_LN_2_LD_5_RN_11_RD_22_1.png","img2/100/Incongruent/R/I_Dist_100_LN_10_LD_25_RN_8_RD_16_1.png","img2/300/Congruent/L/C_Dist_300_LN_4_LD_5_RN_2_RD_4_0.png","img2/100/Incongruent/L/I_Dist_100_LN_2_LD_4_RN_8_RD_20_0.png","img2/300/Incongruent/R/I_Dist_300_LN_13_LD_26_RN_12_RD_15_1.png","img2/300/Incongruent/R/I_Dist_300_LN_13_LD_26_RN_12_RD_15_1.png","img2/300/Incongruent/L/I_Dist_300_LN_2_LD_4_RN_6_RD_30_0.png","img2/300/Incongruent/L/I_Dist_300_LN_4_LD_5_RN_8_RD_16_0.png","img2/100/Incongruent/R/I_Dist_100_LN_17_LD_30_RN_10_RD_15_1.png","img2/200/Congruent/L/C_Dist_200_LN_8_LD_15_RN_2_RD_6_0.png","img2/100/Congruent/L/C_Dist_100_LN_11_LD_22_RN_4_RD_10_0.png","img2/100/Incongruent/L/I_Dist_100_LN_3_LD_9_RN_7_RD_30_0.png","img2/200/Incongruent/R/I_Dist_200_LN_3_LD_10_RN_1_RD_2_1.png","img2/100/Incongruent/R/I_Dist_100_LN_8_LD_16_RN_6_RD_10_1.png","img2/300/Congruent/L/C_Dist_300_LN_11_LD_22_RN_1_RD_5_0.png","img2/200/Incongruent/R/I_Dist_200_LN_4_LD_30_RN_1_RD_3_1.png","img2/200/Incongruent/L/I_Dist_200_LN_4_LD_5_RN_6_RD_10_0.png","img2/200/Congruent/R/C_Dist_200_LN_7_LD_15_RN_18_RD_27_1.png","img2/100/Congruent/R/C_Dist_100_LN_12_LD_30_RN_13_RD_26_1.png","img2/300/Incongruent/R/I_Dist_300_LN_13_LD_26_RN_12_RD_15_1.png","img2/200/Incongruent/L/I_Dist_200_LN_7_LD_10_RN_14_RD_28_0.png","img2/200/Incongruent/L/I_Dist_200_LN_4_LD_6_RN_14_RD_30_0.png","img2/300/Congruent/L/C_Dist_300_LN_11_LD_22_RN_2_RD_10_0.png","img2/300/Congruent/L/C_Dist_300_LN_11_LD_22_RN_1_RD_5_0.png","img2/200/Congruent/L/C_Dist_200_LN_16_LD_20_RN_12_RD_20_0.png","img2/200/Incongruent/L/I_Dist_200_LN_3_LD_4_RN_11_RD_20_0.png","img2/200/Incongruent/L/I_Dist_200_LN_7_LD_10_RN_8_RD_16_0.png","img2/100/Incongruent/R/I_Dist_100_LN_11_LD_22_RN_9_RD_15_1.png","img2/300/Congruent/L/C_Dist_300_LN_20_LD_25_RN_13_RD_26_0.png","img2/200/Incongruent/R/I_Dist_200_LN_7_LD_15_RN_4_RD_6_1.png","img2/100/Congruent/R/C_Dist_100_LN_2_LD_5_RN_6_RD_12_1.png","img2/300/Congruent/L/C_Dist_300_LN_3_LD_6_RN_2_RD_10_0.png","img2/200/Congruent/L/C_Dist_200_LN_9_LD_20_RN_4_RD_16_0.png","img2/300/Incongruent/R/I_Dist_300_LN_4_LD_20_RN_2_RD_4_1.png","img2/100/Incongruent/R/I_Dist_100_LN_17_LD_30_RN_10_RD_15_1.png","img2/100/Congruent/L/C_Dist_100_LN_3_LD_6_RN_2_RD_5_0.png","img2/100/Congruent/R/C_Dist_100_LN_1_LD_2_RN_3_RD_5_1.png","img2/300/Congruent/L/C_Dist_300_LN_20_LD_25_RN_13_RD_26_0.png","img2/200/Incongruent/L/I_Dist_200_LN_3_LD_4_RN_11_RD_20_0.png","img2/100/Incongruent/R/I_Dist_100_LN_12_LD_30_RN_2_RD_4_1.png","img2/200/Congruent/R/C_Dist_200_LN_13_LD_26_RN_14_RD_20_1.png","img2/200/Congruent/L/C_Dist_200_LN_7_LD_21_RN_2_RD_15_0.png","img2/300/Incongruent/R/I_Dist_300_LN_13_LD_26_RN_12_RD_15_1.png","img2/300/Incongruent/R/I_Dist_300_LN_13_LD_26_RN_12_RD_15_1.png","img2/200/Incongruent/R/I_Dist_200_LN_7_LD_15_RN_4_RD_6_1.png"],"dist100_C":[["C_Dist_100_LN_10_LD_25_RN_3_RD_10_0.png","C_Dist_100_LN_11_LD_22_RN_4_RD_10_0.png","C_Dist_100_LN_11_LD_22_RN_6_RD_15_0.png","C_Dist_100_LN_15_LD_25_RN_13_RD_26_0.png","C_Dist_100_LN_3_LD_6_RN_2_RD_5_0.png","C_Dist_100_LN_6_LD_20_RN_5_RD_25_0.png","C_Dist_100_LN_8_LD_16_RN_2_RD_5_0.png","C_Dist_100_LN_9_LD_15_RN_8_RD_16_0.png"],["C_Dist_100_LN_1_LD_2_RN_18_RD_30_1.png","C_Dist_100_LN_1_LD_2_RN_3_RD_5_1.png","C_Dist_100_LN_12_LD_30_RN_13_RD_26_1.png","C_Dist_100_LN_2_LD_5_RN_11_RD_22_1.png","C_Dist_100_LN_2_LD_5_RN_6_RD_12_1.png","C_Dist_100_LN_3_LD_20_RN_4_RD_16_1.png","C_Dist_100_LN_4_LD_10_RN_15_RD_30_1.png","C_Dist_100_LN_4_LD_8_RN_6_RD_10_1.png","C_Dist_100_LN_6_LD_12_RN_15_RD_25_1.png","C_Dist_100_LN_7_LD_14_RN_15_RD_25_1.png","C_Dist_100_LN_7_LD_14_RN_9_RD_15_1.png"]],"dist100_I":[["I_Dist_100_LN_1_LD_2_RN_8_RD_20_0.png","I_Dist_100_LN_2_LD_4_RN_6_RD_15_0.png","I_Dist_100_LN_2_LD_4_RN_8_RD_20_0.png","I_Dist_100_LN_3_LD_5_RN_11_RD_22_0.png","I_Dist_100_LN_3_LD_5_RN_8_RD_16_0.png","I_Dist_100_LN_3_LD_6_RN_4_RD_10_0.png","I_Dist_100_LN_3_LD_9_RN_7_RD_30_0.png","I_Dist_100_LN_4_LD_8_RN_8_RD_20_0.png","I_Dist_100_LN_6_LD_10_RN_11_RD_22_0.png","I_Dist_100_LN_6_LD_10_RN_13_RD_26_0.png","I_Dist_100_LN_6_LD_10_RN_7_RD_14_0.png","I_Dist_100_LN_9_LD_10_RN_20_RD_25_0.png","I_Dist_100_LN_9_LD_15_RN_13_RD_26_0.png","I_Dist_100_LN_9_LD_15_RN_14_RD_28_0.png"],["I_Dist_100_LN_10_LD_25_RN_8_RD_16_1.png","I_Dist_100_LN_10_LD_25_RN_9_RD_18_1.png","I_Dist_100_LN_11_LD_22_RN_9_RD_15_1.png","I_Dist_100_LN_12_LD_24_RN_9_RD_15_1.png","I_Dist_100_LN_12_LD_30_RN_2_RD_4_1.png","I_Dist_100_LN_13_LD_26_RN_12_RD_20_1.png","I_Dist_100_LN_13_LD_26_RN_6_RD_10_1.png","I_Dist_100_LN_17_LD_30_RN_10_RD_15_1.png","I_Dist_100_LN_6_LD_12_RN_3_RD_5_1.png","I_Dist_100_LN_8_LD_16_RN_6_RD_10_1.png","I_Dist_100_LN_8_LD_20_RN_1_RD_2_1.png","I_Dist_100_LN_9_LD_18_RN_6_RD_10_1.png"]],"dist100_S":[["E_Dist_100_LN_2_LD_12_RN_2_RD_30_0.png","E_Dist_100_LN_6_LD_10_RN_6_RD_12_0.png"],["E_Dist_100_LN_6_LD_12_RN_6_RD_10_1.png"]],"dist200_C":[["C_Dist_200_LN_11_LD_22_RN_3_RD_10_0.png","C_Dist_200_LN_12_LD_15_RN_6_RD_10_0.png","C_Dist_200_LN_12_LD_20_RN_6_RD_15_0.png","C_Dist_200_LN_14_LD_28_RN_6_RD_20_0.png","C_Dist_200_LN_15_LD_25_RN_4_RD_10_0.png","C_Dist_200_LN_16_LD_20_RN_12_RD_20_0.png","C_Dist_200_LN_16_LD_30_RN_9_RD_27_0.png","C_Dist_200_LN_20_LD_25_RN_9_RD_15_0.png","C_Dist_200_LN_21_LD_30_RN_2_RD_4_0.png","C_Dist_200_LN_4_LD_10_RN_3_RD_15_0.png","C_Dist_200_LN_4_LD_8_RN_3_RD_10_0.png","C_Dist_200_LN_6_LD_15_RN_3_RD_15_0.png","C_Dist_200_LN_7_LD_21_RN_2_RD_15_0.png","C_Dist_200_LN_8_LD_15_RN_2_RD_6_0.png","C_Dist_200_LN_8_LD_15_RN_3_RD_9_0.png","C_Dist_200_LN_8_LD_15_RN_7_RD_21_0.png","C_Dist_200_LN_9_LD_20_RN_4_RD_16_0.png"],["C_Dist_200_LN_1_LD_2_RN_21_RD_30_1.png","C_Dist_200_LN_13_LD_26_RN_14_RD_20_1.png","C_Dist_200_LN_3_LD_10_RN_11_RD_22_1.png","C_Dist_200_LN_3_LD_10_RN_14_RD_28_1.png","C_Dist_200_LN_3_LD_10_RN_7_RD_14_1.png","C_Dist_200_LN_3_LD_12_RN_9_RD_20_1.png","C_Dist_200_LN_3_LD_6_RN_14_RD_20_1.png","C_Dist_200_LN_5_LD_10_RN_14_RD_20_1.png","C_Dist_200_LN_6_LD_12_RN_7_RD_10_1.png","C_Dist_200_LN_6_LD_20_RN_11_RD_22_1.png","C_Dist_200_LN_7_LD_15_RN_18_RD_27_1.png","C_Dist_200_LN_9_LD_30_RN_13_RD_26_1.png"]],"dist200_I":[["I_Dist_200_LN_1_LD_2_RN_3_RD_10_0.png","I_Dist_200_LN_1_LD_3_RN_2_RD_15_0.png","I_Dist_200_LN_3_LD_4_RN_11_RD_20_0.png","I_Dist_200_LN_4_LD_5_RN_6_RD_10_0.png","I_Dist_200_LN_4_LD_6_RN_14_RD_30_0.png","I_Dist_200_LN_7_LD_10_RN_12_RD_24_0.png","I_Dist_200_LN_7_LD_10_RN_14_RD_28_0.png","I_Dist_200_LN_7_LD_10_RN_8_RD_16_0.png"],["I_Dist_200_LN_11_LD_20_RN_3_RD_4_1.png","I_Dist_200_LN_14_LD_30_RN_12_RD_18_1.png","I_Dist_200_LN_14_LD_30_RN_6_RD_9_1.png","I_Dist_200_LN_3_LD_10_RN_1_RD_2_1.png","I_Dist_200_LN_4_LD_30_RN_1_RD_3_1.png","I_Dist_200_LN_6_LD_20_RN_3_RD_6_1.png","I_Dist_200_LN_7_LD_15_RN_4_RD_6_1.png","I_Dist_200_LN_7_LD_15_RN_6_RD_9_1.png","I_Dist_200_LN_9_LD_15_RN_8_RD_10_1.png"]],"dist200_S":[["E_Dist_200_LN_3_LD_6_RN_3_RD_10_0.png"],["E_Dist_200_LN_3_LD_10_RN_3_RD_6_1.png"]],"dist300_C":[["C_Dist_300_LN_11_LD_22_RN_1_RD_5_0.png","C_Dist_300_LN_11_LD_22_RN_2_RD_10_0.png","C_Dist_300_LN_11_LD_22_RN_4_RD_20_0.png","C_Dist_300_LN_12_LD_24_RN_2_RD_10_0.png","C_Dist_300_LN_18_LD_20_RN_9_RD_15_0.png","C_Dist_300_LN_20_LD_25_RN_13_RD_26_0.png","C_Dist_300_LN_20_LD_25_RN_14_RD_28_0.png","C_Dist_300_LN_20_LD_25_RN_5_RD_10_0.png","C_Dist_300_LN_20_LD_25_RN_8_RD_16_0.png","C_Dist_300_LN_20_LD_25_RN_9_RD_18_0.png","C_Dist_300_LN_24_LD_30_RN_2_RD_4_0.png","C_Dist_300_LN_24_LD_30_RN_8_RD_16_0.png","C_Dist_300_LN_3_LD_6_RN_2_RD_10_0.png","C_Dist_300_LN_4_LD_10_RN_1_RD_10_0.png","C_Dist_300_LN_4_LD_5_RN_2_RD_4_0.png","C_Dist_300_LN_8_LD_16_RN_1_RD_5_0.png","C_Dist_300_LN_9_LD_10_RN_3_RD_5_0.png"],["C_Dist_300_LN_1_LD_20_RN_7_RD_20_1.png","C_Dist_300_LN_1_LD_3_RN_19_RD_30_1.png","C_Dist_300_LN_1_LD_30_RN_8_RD_24_1.png","C_Dist_300_LN_1_LD_5_RN_11_RD_22_1.png","C_Dist_300_LN_1_LD_5_RN_3_RD_6_1.png","C_Dist_300_LN_1_LD_5_RN_6_RD_12_1.png","C_Dist_300_LN_2_LD_10_RN_12_RD_24_1.png","C_Dist_300_LN_2_LD_20_RN_10_RD_25_1.png","C_Dist_300_LN_3_LD_12_RN_11_RD_20_1.png","C_Dist_300_LN_3_LD_6_RN_4_RD_5_1.png","C_Dist_300_LN_4_LD_20_RN_13_RD_26_1.png","C_Dist_300_LN_5_LD_25_RN_6_RD_12_1.png","C_Dist_300_LN_5_LD_25_RN_7_RD_14_1.png","C_Dist_300_LN_7_LD_14_RN_20_RD_25_1.png","C_Dist_300_LN_8_LD_15_RN_10_RD_12_1.png"]],"dist300_I":[["I_Dist_300_LN_1_LD_2_RN_2_RD_10_0.png","I_Dist_300_LN_1_LD_2_RN_3_RD_15_0.png","I_Dist_300_LN_2_LD_4_RN_6_RD_30_0.png","I_Dist_300_LN_3_LD_6_RN_4_RD_20_0.png","I_Dist_300_LN_4_LD_5_RN_6_RD_12_0.png","I_Dist_300_LN_4_LD_5_RN_8_RD_16_0.png","I_Dist_300_LN_7_LD_10_RN_8_RD_20_0.png","I_Dist_300_LN_8_LD_10_RN_14_RD_28_0.png","I_Dist_300_LN_8_LD_10_RN_9_RD_18_0.png"],["I_Dist_300_LN_13_LD_26_RN_12_RD_15_1.png","I_Dist_300_LN_4_LD_20_RN_2_RD_4_1.png"]],"dist300_S":[["E_Dist_300_LN_9_LD_12_RN_9_RD_20_0.png"],["E_Dist_300_LN_18_LD_30_RN_18_RD_20_1.png","E_Dist_300_LN_3_LD_10_RN_3_RD_5_1.png","E_Dist_300_LN_9_LD_20_RN_9_RD_12_1.png"]],"dist500_C":[["C_Dist_500_LN_10_LD_13_RN_7_RD_26_0.png","C_Dist_500_LN_10_LD_15_RN_4_RD_24_0.png","C_Dist_500_LN_12_LD_16_RN_3_RD_12_0.png","C_Dist_500_LN_12_LD_18_RN_4_RD_24_0.png","C_Dist_500_LN_15_LD_18_RN_5_RD_15_0.png","C_Dist_500_LN_15_LD_20_RN_1_RD_4_0.png","C_Dist_500_LN_18_LD_27_RN_1_RD_6_0.png","C_Dist_500_LN_20_LD_24_RN_1_RD_3_0.png","C_Dist_500_LN_20_LD_24_RN_3_RD_9_0.png","C_Dist_500_LN_20_LD_24_RN_7_RD_21_0.png","C_Dist_500_LN_20_LD_28_RN_3_RD_14_0.png","C_Dist_500_LN_21_LD_28_RN_6_RD_24_0.png","C_Dist_500_LN_22_LD_28_RN_2_RD_7_0.png","C_Dist_500_LN_25_LD_30_RN_9_RD_27_0.png","C_Dist_500_LN_4_LD_6_RN_1_RD_6_0.png","C_Dist_500_LN_5_LD_6_RN_2_RD_6_0.png","C_Dist_500_LN_6_LD_9_RN_1_RD_6_0.png","C_Dist_500_LN_7_LD_10_RN_1_RD_5_0.png","C_Dist_500_LN_8_LD_12_RN_1_RD_6_0.png","C_Dist_500_LN_8_LD_12_RN_4_RD_24_0.png"],["C_Dist_500_LN_1_LD_4_RN_12_RD_16_1.png","C_Dist_500_LN_1_LD_4_RN_9_RD_12_1.png","C_Dist_500_LN_1_LD_9_RN_11_RD_18_1.png","C_Dist_500_LN_10_LD_24_RN_22_RD_24_1.png","C_Dist_500_LN_2_LD_12_RN_10_RD_15_1.png","C_Dist_500_LN_2_LD_12_RN_12_RD_18_1.png","C_Dist_500_LN_2_LD_12_RN_4_RD_6_1.png","C_Dist_500_LN_2_LD_24_RN_7_RD_12_1.png","C_Dist_500_LN_2_LD_5_RN_18_RD_20_1.png","C_Dist_500_LN_2_LD_5_RN_9_RD_10_1.png","C_Dist_500_LN_2_LD_8_RN_12_RD_16_1.png","C_Dist_500_LN_2_LD_8_RN_21_RD_28_1.png","C_Dist_500_LN_3_LD_10_RN_4_RD_5_1.png","C_Dist_500_LN_3_LD_12_RN_15_RD_20_1.png","C_Dist_500_LN_3_LD_30_RN_6_RD_10_1.png","C_Dist_500_LN_3_LD_8_RN_14_RD_16_1.png","C_Dist_500_LN_4_LD_16_RN_15_RD_20_1.png","C_Dist_500_LN_4_LD_24_RN_12_RD_18_1.png","C_Dist_500_LN_5_LD_14_RN_6_RD_7_1.png","C_Dist_500_LN_7_LD_21_RN_20_RD_24_1.png","C_Dist_500_LN_7_LD_28_RN_12_RD_16_1.png","C_Dist_500_LN_7_LD_28_RN_9_RD_12_1.png","C_Dist_500_LN_9_LD_27_RN_20_RD_24_1.png"]],"dist500_I":[["I_Dist_500_LN_2_LD_3_RN_4_RD_24_0.png","I_Dist_500_LN_5_LD_6_RN_6_RD_18_0.png","I_Dist_500_LN_7_LD_8_RN_9_RD_24_0.png"],["I_Dist_500_LN_7_LD_21_RN_5_RD_6_1.png"]],"dist500_S":[["E_Dist_500_LN_6_LD_8_RN_6_RD_24_0.png"],["E_Dist_500_LN_2_LD_12_RN_2_RD_3_1.png","E_Dist_500_LN_6_LD_24_RN_6_RD_8_1.png"]]}},{"start_time":1552312991970,"click_time":1552312994779,"finger_time":1552312992338,"fix_duration":250,"trial":1,"RT":368,"MT":2441,"sideResp":2,"stimulus":[],"xmouse":[774,774,774,774,774,774,774,774,774,774,774,774,774,774,773,773,777,778,780,782,786,787,789,790,793,800,811,812,812,812,812,812,812,812,811,811,811,810,807,807,807,821,828,830,830,830,829,827,825,823,819,817,815,813,811,810,807,807,807,807,807,807,807,807,807,807,807,807,807,807,807,807,807,807,807,807,806,804,804,804,804,804,805,805,805,805,805,803,800,798,798,798,798,798,798,798,798,798,798,798,798,798,798,798,798,798,798,798,798,798,798,798,798,798,798,798,798,798,798,798,798,797,797,798,805,814,827,846,866,901,926,1027,1039,1040,1041,1043,1053,1057,1057,1057,1059],"ymouse":[623,623,623,623,623,623,623,623,623,623,623,623,623,623,621,616,600,586,563,547,524,519,514,509,498,473,398,377,371,369,369,369,369,369,369,369,377,385,405,421,442,501,521,527,532,536,542,546,549,554,561,565,570,575,580,585,594,597,601,606,608,608,608,608,608,608,608,608,608,608,608,608,608,608,608,608,609,609,609,609,609,609,610,610,610,610,610,610,609,608,608,608,608,608,608,608,608,608,608,608,608,608,608,608,608,608,608,608,608,608,608,608,608,608,608,608,608,608,608,608,608,605,598,581,561,540,452,323,209,80,22,0,0,0,0,0,0,0,0,0,4],"timestamp_mouse":[13,38,49,67,88,108,129,147,169,189,207,229,249,268,288,308,327,347,368,388,408,427,448,469,488,507,527,547,567,588,608,627,648,667,688,707,727,748,768,787,807,827,847,868,888,907,927,947,967,989,1010,1028,1047,1069,1089,1107,1127,1149,1169,1189,1207,1227,1249,1268,1287,1307,1327,1347,1368,1389,1408,1427,1448,1468,1487,1507,1529,1549,1568,1588,1608,1629,1648,1668,1687,1709,1727,1748,1768,1787,1807,1828,1848,1869,1889,1907,1927,1947,1968,1988,2007,2029,2048,2067,2088,2108,2129,2147,2168,2189,2207,2228,2248,2268,2288,2307,2328,2349,2367,2387,2407,2429,2447,2468,2487,2508,2527,2548,2568,2589,2609,2630,2647,2668,2688,2707,2727,2747,2768,2787,2808],"xSR":741.5,"ySR":573.95,"xT1":424.9,"yT1":0,"xT2":1058.1,"yT2":0,"toosoon":0,"cond_shown":"Incongruent","ratio_trial":300,"L_num":4,"L_den":20,"R_num":2,"R_den":4,"correct_side":2,"subjID":"juan pablo galindo valbuena .15","gender":"0","school":null,"age":"10"},{"start_time":1552312997004,"click_time":1552313005478,"finger_time":1552313004918,"fix_duration":825.8054276930857,"trial":2,"RT":7914,"MT":560,"sideResp":2,"stimulus":[],"xmouse":[773,773,773,773,773,773,773,773,773,773,773,773,773,773,773,773,773,773,774,777,782,785,788,789,792,794,795,795,797,798,798,798,798,798,798,798,798,798,798,798,798,798,798,798,798,798,798,798,798,798,798,798,798,798,798,798,798,798,798,798,798,798,798,798,798,798,798,798,798,798,797,797,797,797,797,796,796,796,796,796,796,796,796,796,796,796,796,796,796,796,796,796,796,796,796,797,797,797,797,797,797,798,799,799,799,799,799,799,799,799,799,799,799,799,799,799,799,799,799,799,799,799,799,799,799,799,800,802,803,805,805,805,805,805,805,805,805,805,805,805,805,805,805,805,805,805,805,805,804,802,801,801,801,801,801,801,801,801,803,808,808,808,808,808,808,808,808,808,808,808,808,808,808,808,808,808,808,808,808,808,808,808,808,808,808,808,808,808,808,808,808,808,808,808,808,808,808,808,808,808,808,808,808,808,808,808,808,808,808,808,808,808,808,808,808,808,808,808,808,808,808,808,808,808,808,808,808,808,808,808,808,808,808,808,808,808,808,808,808,808,808,808,808,808,808,808,808,808,808,808,808,808,808,808,808,808,808,808,808,808,808,808,808,808,808,808,808,808,808,808,808,808,808,808,808,808,808,808,808,808,808,808,808,808,808,808,808,808,808,808,808,808,809,809,809,809,809,809,809,809,809,809,809,809,809,809,809,809,809,809,809,809,809,809,809,809,809,809,809,809,809,809,809,809,809,809,809,809,809,809,809,809,809,809,809,809,809,809,809,809,809,809,809,809,809,809,809,809,809,809,809,809,809,809,809,809,809,809,809,809,809,809,809,809,809,809,809,809,809,809,809,809,809,809,809,809,809,809,809,809,809,809,809,809,809,809,809,809,809,809,809,809,809,809,810,885,947,999,1031,1038,1040,1040,1040,1040,1040,1040,1040,1040,1040,1040,1040,1040,1040,1040,1040,1040,1040,1040,1040,1040,1040,1042,1059,1153],"ymouse":[629,629,629,629,629,629,629,629,629,629,629,629,629,629,629,629,629,629,628,625,620,616,612,606,598,595,592,590,587,584,584,584,584,584,584,584,584,584,584,584,584,584,584,584,584,584,584,584,584,584,584,584,584,584,584,584,584,584,584,584,584,584,585,585,585,586,586,587,588,590,590,591,592,593,595,596,596,597,597,598,599,600,601,602,603,603,603,603,603,603,603,603,606,606,607,609,609,609,610,610,611,613,614,614,614,614,614,614,614,614,614,614,614,614,614,614,614,614,614,614,614,614,614,614,614,614,614,613,612,612,612,612,612,612,612,612,612,612,612,612,612,612,612,612,612,612,612,612,612,615,616,616,618,618,618,618,618,618,621,630,631,631,631,631,631,631,631,631,631,631,631,631,631,631,631,631,631,631,631,631,631,631,631,631,631,631,631,631,631,631,631,631,631,631,631,631,631,631,631,631,631,631,631,631,631,631,631,631,631,631,631,631,631,631,631,631,631,631,631,631,631,631,631,631,631,631,631,631,631,631,631,631,631,631,631,631,631,631,631,631,631,631,631,631,631,631,631,631,631,631,631,631,631,631,631,631,631,631,631,631,631,631,631,631,631,631,631,631,631,631,631,631,631,631,631,631,631,631,631,631,631,631,631,631,631,631,631,631,631,631,631,631,633,633,633,633,633,633,633,633,633,633,633,633,633,633,633,633,633,633,633,633,633,633,633,633,633,633,633,633,633,633,633,633,633,633,633,633,633,633,633,633,633,633,633,633,633,633,633,633,633,633,633,633,633,633,633,633,633,633,633,633,633,633,633,633,633,633,633,633,633,633,633,633,633,633,633,633,633,633,633,633,633,633,633,633,633,633,633,633,633,633,633,633,633,633,633,633,633,633,633,633,633,633,633,505,373,259,201,189,187,187,187,187,187,187,187,187,187,187,187,187,187,187,187,187,187,187,187,187,187,184,167,92],"timestamp_mouse":[13,40,54,75,94,113,134,155,173,193,214,235,254,274,294,315,335,355,373,393,413,434,455,473,493,513,533,554,575,593,615,634,654,675,694,713,733,754,773,795,814,834,853,874,895,914,933,954,974,995,1014,1033,1054,1074,1095,1114,1133,1155,1174,1194,1214,1235,1253,1273,1293,1313,1335,1354,1374,1393,1415,1433,1455,1474,1494,1515,1535,1553,1574,1593,1615,1634,1655,1674,1694,1715,1735,1754,1774,1794,1815,1833,1853,1874,1893,1914,1934,1953,1974,1995,2015,2034,2054,2074,2094,2115,2135,2155,2174,2194,2213,2235,2253,2275,2295,2314,2333,2354,2374,2394,2414,2435,2453,2474,2495,2514,2533,2554,2573,2594,2615,2635,2655,2673,2693,2715,2735,2755,2775,2794,2814,2834,2855,2875,2894,2913,2934,2954,2973,2995,3013,3034,3053,3075,3094,3114,3133,3155,3175,3194,3213,3233,3253,3274,3294,3315,3333,3354,3374,3394,3413,3434,3454,3474,3495,3514,3534,3553,3574,3594,3614,3635,3654,3674,3694,3715,3735,3753,3774,3794,3814,3834,3854,3874,3894,3914,3934,3955,3973,3995,4015,4034,4053,4074,4093,4113,4135,4154,4173,4194,4215,4234,4255,4275,4294,4315,4334,4353,4374,4394,4415,4434,4453,4475,4494,4514,4534,4553,4573,4594,4615,4634,4654,4673,4694,4714,4734,4754,4775,4794,4813,4835,4853,4875,4894,4915,4934,4954,4975,4994,5014,5034,5054,5075,5095,5114,5134,5153,5173,5195,5214,5234,5254,5273,5293,5315,5334,5354,5374,5394,5415,5434,5455,5474,5494,5513,5535,5554,5574,5594,5615,5635,5654,5674,5694,5715,5733,5754,5775,5794,5813,5835,5853,5874,5893,5914,5933,5954,5974,5994,6014,6034,6055,6075,6094,6113,6133,6154,6173,6193,6214,6234,6255,6274,6294,6313,6334,6354,6375,6394,6413,6433,6454,6473,6493,6514,6535,6554,6573,6594,6613,6633,6654,6675,6695,6714,6733,6754,6775,6795,6814,6834,6853,6874,6895,6914,6934,6954,6973,6995,7014,7034,7054,7073,7095,7113,7134,7154,7175,7194,7213,7234,7254,7274,7293,7314,7334,7354,7374,7394,7415,7434,7454,7475,7494,7514,7533,7554,7574,7594,7615,7634,7654,7673,7694,7713,7733,7754,7774,7794,7813,7834,7854,7874,7895,7914,7933,7953,7974,7995,8014,8034,8053,8074,8094,8113,8134,8155,8173,8194,8213,8234,8253,8273,8294,8315,8333,8355,8374,8395,8415,8434,8453,8474],"xSR":741.5,"ySR":573.95,"xT1":424.9,"yT1":0,"xT2":1058.1,"yT2":0,"toosoon":0,"cond_shown":"Congruent","ratio_trial":300,"L_num":1,"L_den":3,"R_num":19,"R_den":30,"correct_side":2,"subjID":"juan pablo galindo valbuena .15","gender":"0","school":null,"age":"10"},{"start_time":1552313010591,"click_time":1552313012558,"finger_time":1552313012317,"fix_duration":530.9682851716982,"trial":3,"RT":1726,"MT":241,"sideResp":2,"stimulus":[],"xmouse":[791,791,791,791,791,791,791,791,791,791,791,791,791,791,791,791,791,791,791,791,791,791,791,791,791,791,791,791,791,791,791,791,791,791,791,791,791,791,791,791,791,791,791,791,791,791,791,791,791,791,791,791,791,791,791,791,791,791,791,791,791,791,791,791,791,791,791,791,791,791,791,791,791,791,791,791,791,791,791,791,791,791,791,791,801,811,829,853,860,866,873,880,894,900,906,927,974,1102,1150],"ymouse":[605,605,605,605,605,605,605,605,605,605,605,605,605,605,605,605,605,605,605,605,605,605,605,605,605,605,605,605,605,605,605,605,605,605,605,605,605,605,605,605,605,605,605,605,605,605,605,605,605,605,605,605,605,605,605,605,605,605,605,605,605,605,605,605,605,605,605,605,605,605,605,605,605,605,605,605,605,605,605,605,605,605,605,605,598,591,573,548,539,531,518,500,457,436,417,363,283,101,23],"timestamp_mouse":[11,43,46,67,86,106,126,148,167,188,206,226,247,268,286,306,327,346,367,388,406,426,448,467,487,507,528,546,566,587,606,627,646,666,686,707,727,747,767,787,808,827,848,866,887,908,927,947,966,987,1007,1028,1048,1067,1087,1107,1127,1148,1167,1187,1207,1227,1247,1268,1288,1307,1327,1346,1367,1387,1408,1427,1446,1466,1487,1508,1526,1546,1567,1588,1608,1627,1647,1667,1687,1708,1726,1748,1768,1786,1808,1827,1847,1867,1888,1906,1927,1947,1967],"xSR":741.5,"ySR":573.95,"xT1":424.9,"yT1":0,"xT2":1058.1,"yT2":0,"toosoon":0,"cond_shown":"Congruent","ratio_trial":300,"L_num":5,"L_den":25,"R_num":6,"R_den":12,"correct_side":2,"subjID":"juan pablo galindo valbuena .15","gender":"0","school":null,"age":"10"},{"start_time":1552313023774,"click_time":1552313024838,"finger_time":1552313024758,"fix_duration":1315.9091815198713,"trial":4,"RT":984,"MT":80,"sideResp":2,"stimulus":[],"xmouse":[796,796,796,796,796,796,796,796,796,796,796,796,796,796,796,796,796,796,796,796,796,796,796,796,796,796,796,796,796,796,796,796,796,796,796,796,796,796,796,796,796,796,796,796,796,796,796,814,825,905,972,1051,1115,1152],"ymouse":[637,637,637,637,637,637,637,637,637,637,637,637,637,637,637,637,637,637,637,637,637,637,637,637,637,637,637,637,637,637,637,637,637,637,637,637,637,637,637,637,637,637,637,637,637,637,637,619,602,463,348,224,142,92],"timestamp_mouse":[12,31,44,64,83,104,124,144,165,185,204,223,244,264,285,304,323,344,365,385,404,424,444,465,484,504,524,544,563,583,603,625,644,663,684,704,723,744,764,783,804,825,843,864,883,904,925,945,964,984,1003,1025,1044,1064],"xSR":741.5,"ySR":573.95,"xT1":424.9,"yT1":0,"xT2":1058.1,"yT2":0,"toosoon":0,"cond_shown":"Incongruent","ratio_trial":300,"L_num":4,"L_den":20,"R_num":2,"R_den":4,"correct_side":2,"subjID":"juan pablo galindo valbuena .15","gender":"0","school":null,"age":"10"},{"start_time":1552313034057,"click_time":1552313038598,"finger_time":1552313038098,"fix_duration":636.2263932186352,"trial":5,"RT":4041,"MT":500,"sideResp":2,"stimulus":[],"xmouse":[785,785,785,785,785,785,785,785,785,785,785,785,785,785,785,785,785,785,785,785,785,785,785,785,785,785,785,785,785,785,785,785,785,785,785,785,785,785,785,785,785,785,785,785,785,785,785,785,785,785,785,785,785,785,785,785,785,785,785,785,785,785,785,785,785,785,785,785,785,785,785,785,785,785,785,785,785,785,785,785,785,785,785,785,785,785,785,785,785,785,785,785,785,785,785,785,785,785,785,785,785,785,785,785,785,785,785,785,785,785,785,785,785,785,785,785,785,785,785,785,785,785,785,785,785,785,785,785,785,785,785,785,785,785,785,785,785,785,785,785,785,785,785,785,785,785,785,785,785,785,785,785,785,788,791,792,793,793,793,793,793,793,793,793,793,793,793,793,793,793,793,793,793,793,793,793,793,793,793,793,793,793,793,793,793,793,793,793,793,793,793,793,793,793,793,793,793,793,793,797,804,881,981,1205,1341,1440,1492,1494,1496,1508,1511,1511,1507,1484,1449,1408,1361,1355,1351,1347,1344,1311,1258,1224,1193,1171,1155],"ymouse":[627,627,627,627,627,627,627,627,627,627,627,627,627,627,627,627,627,627,627,627,627,627,627,627,627,627,627,627,627,627,627,627,627,627,627,627,627,627,627,627,627,627,627,627,627,627,627,627,627,627,627,627,627,627,627,627,627,627,627,627,627,627,627,627,627,627,627,627,627,627,627,627,627,627,627,627,627,627,627,627,627,627,627,627,627,627,627,627,627,627,627,627,627,627,627,627,627,627,627,627,627,627,627,627,627,627,627,627,627,627,627,627,627,627,627,627,627,627,627,627,627,627,627,627,627,627,627,627,627,627,627,627,627,627,627,627,627,627,627,627,627,627,627,627,627,627,627,627,627,627,627,626,623,614,611,611,611,611,611,611,611,611,611,611,611,611,611,611,611,611,611,611,611,611,611,611,611,611,611,611,611,611,611,611,611,611,611,611,611,611,611,611,611,611,611,611,611,611,611,609,604,530,401,96,0,0,0,0,0,0,0,0,4,19,33,45,50,50,50,49,48,48,50,52,52,52,52],"timestamp_mouse":[22,43,61,80,100,120,141,162,180,200,220,242,261,282,300,320,340,361,380,400,420,440,462,481,502,522,540,562,581,602,620,641,662,681,700,722,742,761,782,802,820,840,862,881,901,921,942,960,981,1000,1022,1041,1062,1080,1101,1120,1142,1162,1180,1200,1221,1241,1261,1280,1301,1322,1342,1361,1382,1400,1421,1442,1462,1481,1502,1521,1540,1561,1580,1602,1622,1641,1661,1682,1700,1720,1740,1761,1782,1801,1820,1841,1861,1882,1901,1920,1941,1962,1982,2001,2021,2041,2060,2081,2102,2121,2141,2161,2181,2202,2220,2240,2260,2282,2301,2321,2341,2362,2380,2401,2420,2441,2462,2481,2500,2521,2542,2561,2581,2601,2622,2641,2661,2682,2702,2720,2740,2761,2782,2801,2822,2840,2861,2881,2902,2921,2942,2961,2981,3001,3022,3040,3061,3080,3101,3120,3141,3160,3180,3201,3220,3241,3262,3281,3301,3321,3340,3360,3380,3400,3421,3440,3460,3480,3501,3521,3540,3562,3580,3600,3621,3641,3661,3681,3700,3721,3740,3761,3780,3800,3821,3840,3861,3882,3901,3921,3941,3960,3982,4000,4021,4041,4061,4082,4101,4121,4142,4160,4180,4200,4220,4241,4260,4282,4302,4321,4341,4361,4381,4400,4422,4442,4462,4481,4502,4521,4540],"xSR":741.5,"ySR":573.95,"xT1":424.9,"yT1":0,"xT2":1058.1,"yT2":0,"toosoon":0,"cond_shown":"Incongruent","ratio_trial":100,"L_num":17,"L_den":30,"R_num":10,"R_den":15,"correct_side":2,"subjID":"juan pablo galindo valbuena .15","gender":"0","school":null,"age":"10"},{"start_time":1552313045650,"click_time":1552313046658,"finger_time":1552313046319,"fix_duration":250,"trial":6,"RT":669,"MT":339,"sideResp":2,"stimulus":[],"xmouse":[787,787,787,787,787,787,787,787,790,792,793,793,793,794,794,794,794,794,794,794,794,794,794,794,794,794,794,794,794,794,799,804,819,830,849,872,893,909,927,939,957,966,976,1015,1044,1070,1082,1083,1083,1083,1085],"ymouse":[619,619,619,619,619,619,619,619,619,619,619,619,619,619,619,619,619,619,619,619,619,619,619,619,619,619,619,619,619,619,612,604,582,555,507,438,365,288,173,143,110,93,72,0,0,0,0,0,0,0,8],"timestamp_mouse":[12,34,50,69,88,108,129,148,168,189,210,229,249,268,290,308,329,349,370,390,410,429,448,468,488,509,528,548,568,589,610,630,650,669,689,709,730,748,768,788,808,828,850,869,888,910,928,949,969,988,1008],"xSR":741.5,"ySR":573.95,"xT1":424.9,"yT1":0,"xT2":1058.1,"yT2":0,"toosoon":0,"cond_shown":"Incongruent","ratio_trial":200,"L_num":7,"L_den":10,"R_num":8,"R_den":16,"correct_side":1,"subjID":"juan pablo galindo valbuena .15","gender":"0","school":null,"age":"10"},{"start_time":1552313049161,"click_time":1552313050679,"finger_time":1552313050158,"fix_duration":1140.3603530449436,"trial":7,"RT":997,"MT":521,"sideResp":2,"stimulus":[],"xmouse":[796,796,796,796,796,796,796,796,796,796,796,796,796,796,796,796,796,796,796,796,796,796,796,796,796,796,796,796,796,796,796,796,796,796,796,796,796,796,796,796,796,796,796,796,796,796,796,798,812,845,881,929,937,937,942,953,970,987,990,995,1002,1004,1004,1004,1007,1007,1007,1009,1017,1026,1032,1032,1033,1043,1058,1074],"ymouse":[633,633,633,633,633,633,633,633,632,632,631,631,630,630,630,630,630,630,630,630,630,630,630,630,630,630,630,630,629,629,629,629,629,629,629,629,629,629,629,629,629,629,629,629,629,629,629,624,589,519,430,275,92,22,0,0,0,0,0,0,0,0,0,2,41,82,105,112,102,90,77,77,76,70,64,54],"timestamp_mouse":[20,37,58,78,97,119,139,159,177,197,217,238,258,277,298,317,338,358,378,399,418,439,458,478,497,518,539,557,577,598,617,639,658,678,698,718,739,758,778,798,818,837,859,879,898,919,938,959,977,997,1017,1039,1058,1077,1099,1118,1139,1157,1177,1198,1218,1238,1258,1278,1298,1318,1339,1357,1378,1397,1419,1438,1458,1478,1499,1518],"xSR":741.5,"ySR":573.95,"xT1":424.9,"yT1":0,"xT2":1058.1,"yT2":0,"toosoon":0,"cond_shown":"Incongruent","ratio_trial":300,"L_num":4,"L_den":20,"R_num":2,"R_den":4,"correct_side":2,"subjID":"juan pablo galindo valbuena .15","gender":"0","school":null,"age":"10"},{"start_time":1552313052338,"click_time":1552313054859,"finger_time":1552313054159,"fix_duration":558.2920731189429,"trial":8,"RT":1821,"MT":700,"sideResp":2,"stimulus":[],"xmouse":[793,793,793,793,793,793,793,793,793,793,793,793,793,793,793,793,793,793,793,793,793,793,793,793,793,793,793,793,793,793,793,793,793,793,793,793,793,793,793,793,793,793,793,793,793,793,793,793,793,793,793,793,793,793,793,793,793,793,793,793,793,793,793,793,793,793,793,793,793,793,793,793,795,795,795,795,795,795,795,795,795,795,795,795,795,795,795,795,795,796,830,850,904,919,922,926,930,944,977,1040,1044,1044,1049,1068,1110,1303,1369,1372,1372,1372,1363,1351,1341,1325,1288,1274,1268,1266,1266,1266,1265,1257,1240,1222,1204,1171,1140],"ymouse":[605,605,605,605,605,605,605,605,605,605,605,605,605,605,605,605,605,605,605,605,605,605,605,605,605,605,605,605,605,605,605,605,605,605,605,605,605,605,605,605,605,605,605,605,605,605,605,605,605,605,605,605,605,605,605,605,605,605,605,605,605,605,605,605,605,605,605,605,605,605,605,605,605,605,605,605,605,605,605,605,605,605,605,605,605,605,605,605,604,603,583,575,541,525,512,484,456,384,258,23,0,0,0,0,0,0,0,0,0,0,14,30,42,52,66,71,74,76,76,76,76,76,71,63,57,49,48],"timestamp_mouse":[10,36,41,61,81,101,121,141,162,181,200,220,240,260,282,300,322,340,360,380,402,422,441,460,481,501,521,541,561,582,602,621,640,662,681,701,720,740,761,782,800,821,841,860,881,901,921,942,960,980,1002,1021,1042,1061,1081,1100,1121,1141,1160,1182,1202,1222,1241,1261,1281,1301,1321,1342,1360,1381,1401,1422,1441,1460,1482,1501,1521,1540,1560,1581,1602,1621,1640,1660,1682,1700,1722,1741,1760,1781,1801,1821,1840,1860,1880,1901,1920,1941,1961,1982,2002,2020,2041,2061,2082,2101,2122,2141,2161,2181,2201,2222,2242,2262,2282,2300,2321,2342,2362,2381,2401,2420,2440,2462,2481,2501,2521],"xSR":741.5,"ySR":573.95,"xT1":424.9,"yT1":0,"xT2":1058.1,"yT2":0,"toosoon":0,"cond_shown":"Congruent","ratio_trial":100,"L_num":2,"L_den":5,"R_num":11,"R_den":22,"correct_side":2,"subjID":"juan pablo galindo valbuena .15","gender":"0","school":null,"age":"10"},{"start_time":1552313056881,"click_time":1552313058439,"finger_time":1552313058119,"fix_duration":760.216553982473,"trial":9,"RT":1238,"MT":320,"sideResp":2,"stimulus":[],"xmouse":[819,818,818,818,818,818,818,818,818,818,817,816,810,807,804,803,803,803,803,803,803,803,803,803,803,803,803,803,803,803,803,803,803,803,803,803,803,803,803,803,803,803,803,803,803,803,803,803,803,803,803,803,803,806,807,807,807,809,814,822,834,851,917,936,954,968,981,1004,1009,1012,1014,1017,1017,1017,1017,1021,1051,1093],"ymouse":[617,617,617,617,617,617,617,617,617,617,617,617,617,617,617,617,617,617,617,617,617,617,617,617,617,617,617,617,617,617,617,617,617,617,617,617,617,617,617,617,617,617,617,617,617,617,617,617,617,617,617,617,617,617,617,617,617,616,611,600,581,550,397,332,260,175,85,0,0,0,0,0,0,0,0,3,20,36],"timestamp_mouse":[21,37,58,78,98,118,139,158,177,198,219,238,257,278,297,318,339,359,377,397,417,438,458,479,498,517,538,558,578,597,617,639,657,677,698,719,738,759,778,798,819,838,857,877,898,918,939,958,977,997,1018,1037,1058,1079,1099,1118,1137,1158,1179,1198,1217,1238,1257,1278,1297,1318,1338,1360,1377,1399,1418,1439,1457,1477,1498,1518,1537,1558],"xSR":741.5,"ySR":573.95,"xT1":424.9,"yT1":0,"xT2":1058.1,"yT2":0,"toosoon":0,"cond_shown":"Congruent","ratio_trial":200,"L_num":9,"L_den":30,"R_num":13,"R_den":26,"correct_side":2,"subjID":"juan pablo galindo valbuena .15","gender":"0","school":null,"age":"10"},{"start_time":1552313060015,"click_time":1552313061140,"finger_time":1552313060918,"fix_duration":355.7706863552159,"trial":10,"RT":903,"MT":222,"sideResp":2,"stimulus":[],"xmouse":[822,822,822,822,822,822,822,822,822,822,822,822,822,822,822,822,822,822,822,822,822,822,822,822,822,822,822,822,822,822,822,822,822,822,822,821,820,820,820,820,820,820,821,824,839,868,962,997,1022,1017,1011,1025,1139,1144,1144,1144,1140],"ymouse":[647,647,647,647,647,647,647,647,647,647,647,647,647,647,647,647,647,647,647,647,647,647,647,647,647,647,647,647,647,647,647,647,647,646,642,638,635,633,632,631,629,628,625,621,607,582,493,412,271,108,0,0,0,0,0,0,4],"timestamp_mouse":[12,23,44,64,83,103,123,144,163,184,204,223,244,263,284,303,323,344,363,384,403,424,445,465,484,503,524,545,565,585,604,624,644,664,684,704,724,745,764,784,803,825,844,863,883,903,924,943,964,985,1005,1026,1043,1064,1083,1103,1125],"xSR":741.5,"ySR":573.95,"xT1":424.9,"yT1":0,"xT2":1058.1,"yT2":0,"toosoon":0,"cond_shown":"Congruent","ratio_trial":300,"L_num":2,"L_den":10,"R_num":12,"R_den":24,"correct_side":2,"subjID":"juan pablo galindo valbuena .15","gender":"0","school":null,"age":"10"},{"start_time":1552313062312,"click_time":1552313068178,"finger_time":1552313062760,"fix_duration":250,"trial":11,"RT":448,"MT":5418,"sideResp":1,"stimulus":[],"xmouse":[817,817,817,817,817,817,817,817,817,817,817,817,817,817,817,817,817,818,819,820,822,824,825,827,829,831,836,837,838,838,838,838,838,838,838,838,838,838,833,830,827,823,821,817,811,807,806,804,803,802,802,800,800,800,800,800,800,800,800,800,800,800,800,800,800,800,800,800,800,800,800,800,800,800,800,800,800,800,800,800,800,800,800,799,799,799,799,799,799,799,799,799,799,799,799,799,799,799,799,799,799,799,799,799,799,799,799,799,799,799,799,799,799,799,799,799,799,799,799,797,792,784,778,778,778,778,779,782,782,782,782,782,782,782,782,782,782,782,782,782,782,782,782,782,782,782,782,782,782,782,782,782,782,782,782,782,782,782,782,782,782,782,782,782,782,782,782,782,782,782,782,782,782,783,783,782,782,782,782,782,782,782,782,782,782,782,781,777,774,772,768,760,754,754,754,754,754,754,754,754,754,754,754,754,757,760,772,775,778,782,787,791,798,799,800,800,800,800,800,800,800,800,800,800,800,800,800,800,800,800,800,798,798,798,798,798,798,798,796,796,796,795,795,795,795,795,795,795,795,795,795,795,795,795,795,795,795,795,795,795,795,795,795,795,795,795,795,795,795,795,795,795,795,795,795,795,795,770,730,659,580,497,370,349,341,338,338,338,341,343,344,344,385,465],"ymouse":[605,605,605,605,605,605,605,604,604,604,604,604,604,604,603,602,599,591,589,585,583,577,572,568,564,557,545,543,542,542,542,542,542,542,542,542,542,543,549,554,560,569,574,580,591,595,597,599,600,602,602,604,604,604,604,604,604,604,604,604,604,604,604,604,604,604,604,604,604,604,604,604,604,604,604,604,604,604,604,604,604,604,604,604,604,604,604,604,604,604,604,604,604,604,604,604,604,604,604,604,604,604,604,604,604,604,604,604,604,604,604,604,604,604,604,604,604,604,604,604,606,608,610,610,610,610,610,610,610,610,610,610,610,610,610,610,610,610,610,610,610,610,610,610,610,610,610,610,610,610,610,610,610,610,610,610,610,610,610,610,610,610,610,610,610,610,610,610,610,610,610,610,610,609,609,607,604,603,603,603,603,603,603,603,603,603,602,602,604,615,638,652,655,655,655,655,655,655,655,655,655,655,655,655,651,650,647,645,643,641,638,636,631,630,629,629,629,629,629,629,629,629,629,629,629,629,629,629,629,628,627,626,626,626,626,626,626,626,626,626,626,626,626,626,626,626,626,626,626,626,626,626,626,626,626,626,626,626,626,626,626,626,626,626,626,626,626,626,626,626,626,626,626,626,626,626,626,590,530,449,348,227,30,0,0,0,0,0,0,0,0,0,12,32],"timestamp_mouse":[12,28,48,67,87,106,128,146,168,187,208,226,246,268,287,307,327,348,368,386,407,428,448,467,486,507,528,546,567,586,608,627,646,667,688,707,727,746,767,787,807,828,846,866,888,906,926,946,967,988,1008,1027,1047,1067,1086,1108,1127,1146,1166,1188,1207,1226,1246,1267,1287,1306,1327,1346,1367,1387,1406,1428,1446,1468,1486,1508,1527,1547,1567,1588,1607,1628,1647,1667,1686,1707,1727,1748,1767,1787,1807,1827,1847,1868,1887,1906,1926,1947,1966,1988,2008,2027,2046,2067,2087,2108,2126,2146,2167,2187,2206,2226,2247,2267,2287,2308,2327,2347,2367,2387,2406,2428,2447,2467,2487,2507,2528,2547,2568,2587,2608,2627,2646,2667,2687,2707,2728,2748,2767,2787,2807,2827,2847,2866,2886,2907,2928,2947,2967,2986,3006,3027,3046,3067,3088,3107,3126,3146,3167,3187,3207,3228,3248,3267,3288,3308,3327,3347,3367,3387,3408,3427,3448,3466,3487,3507,3528,3546,3567,3587,3606,3628,3646,3667,3688,3707,3726,3746,3766,3787,3807,3826,3846,3867,3888,3906,3928,3947,3966,3987,4008,4028,4046,4066,4088,4108,4128,4147,4167,4188,4208,4226,4246,4266,4287,4306,4326,4347,4368,4388,4407,4426,4446,4468,4488,4507,4526,4546,4568,4586,4607,4627,4646,4666,4686,4708,4728,4747,4767,4787,4808,4827,4847,4866,4887,4907,4926,4947,4967,4987,5008,5027,5048,5068,5087,5107,5127,5148,5168,5187,5207,5228,5247,5266,5286,5306,5326,5346,5367,5387,5407,5428,5447,5467,5487,5508,5526,5547,5567,5586,5607,5626,5647,5667,5688,5706,5727,5746,5766,5787,5807,5828,5847,5866],"xSR":741.5,"ySR":573.95,"xT1":424.9,"yT1":0,"xT2":1058.1,"yT2":0,"toosoon":0,"cond_shown":"Congruent","ratio_trial":300,"L_num":11,"L_den":22,"R_num":1,"R_den":5,"correct_side":1,"subjID":"juan pablo galindo valbuena .15","gender":"0","school":null,"age":"10"},{"start_time":1552313072373,"click_time":1552313073480,"finger_time":1552313073300,"fix_duration":911.1717155053598,"trial":12,"RT":927,"MT":180,"sideResp":2,"stimulus":[],"xmouse":[801,801,801,801,801,801,801,801,801,801,801,801,801,801,801,801,801,801,801,801,801,801,801,801,801,801,801,801,801,801,801,801,801,801,801,801,801,801,801,801,801,801,801,801,806,832,879,933,982,1005,1051,1064,1077,1086,1090,1096],"ymouse":[614,614,614,614,614,614,614,614,615,615,615,615,615,615,615,615,615,615,615,615,615,615,615,615,615,615,615,615,615,615,615,615,615,615,615,615,615,615,615,615,615,615,615,615,610,595,563,526,482,435,283,227,183,150,122,62],"timestamp_mouse":[22,25,45,65,86,105,127,145,167,185,205,227,246,266,286,307,326,346,365,385,406,426,445,466,485,506,525,547,565,587,605,625,647,666,687,706,725,746,766,785,805,825,845,865,885,906,927,946,966,985,1005,1027,1046,1067,1085,1106],"xSR":741.5,"ySR":573.95,"xT1":424.9,"yT1":0,"xT2":1058.1,"yT2":0,"toosoon":0,"cond_shown":"Incongruent","ratio_trial":300,"L_num":13,"L_den":26,"R_num":12,"R_den":15,"correct_side":2,"subjID":"juan pablo galindo valbuena .15","gender":"0","school":null,"age":"10"},{"start_time":1552313077717,"click_time":1552313079919,"finger_time":1552313079359,"fix_duration":1297.939973773516,"trial":13,"RT":1642,"MT":560,"sideResp":2,"stimulus":[],"xmouse":[808,809,810,810,810,810,809,807,795,793,793,793,793,793,793,793,793,793,793,793,793,793,793,793,792,792,792,792,792,792,792,792,792,792,792,792,792,792,792,792,792,792,792,792,792,792,793,793,793,793,793,793,793,793,793,793,793,793,793,793,793,793,793,793,793,793,793,793,793,793,793,793,793,793,793,793,793,793,795,795,799,803,837,906,1108,1177,1215,1234,1241,1243,1243,1243,1243,1240,1234,1233,1230,1228,1224,1221,1218,1214,1209,1205,1204,1201,1192,1183,1175,1164,1156],"ymouse":[626,625,625,625,622,621,618,614,608,608,608,608,608,608,608,608,608,608,608,608,608,608,608,608,608,612,613,614,614,614,614,614,614,615,615,615,615,615,615,615,615,615,615,615,615,615,615,615,615,615,615,615,615,615,615,615,615,615,615,615,615,615,615,615,615,615,615,615,615,615,615,615,615,615,615,615,615,615,614,614,607,602,572,518,343,272,222,160,128,92,83,80,66,52,35,30,27,23,20,19,18,17,17,17,17,17,20,22,25,26,27],"timestamp_mouse":[1,21,50,61,81,103,121,141,162,183,203,221,243,261,281,303,323,342,363,382,401,422,443,462,481,502,522,542,563,583,602,622,642,662,681,701,722,742,763,783,803,823,843,862,881,902,922,943,961,983,1001,1022,1041,1061,1083,1103,1122,1142,1163,1182,1203,1223,1242,1263,1283,1302,1323,1342,1362,1381,1402,1422,1442,1462,1481,1503,1522,1541,1561,1582,1603,1623,1642,1663,1683,1703,1722,1743,1763,1782,1802,1821,1842,1862,1883,1902,1922,1941,1962,1983,2002,2021,2042,2063,2082,2102,2121,2141,2161,2181,2202],"xSR":741.5,"ySR":573.95,"xT1":424.9,"yT1":0,"xT2":1058.1,"yT2":0,"toosoon":0,"cond_shown":"Incongruent","ratio_trial":100,"L_num":2,"L_den":4,"R_num":8,"R_den":20,"correct_side":1,"subjID":"juan pablo galindo valbuena .15","gender":"0","school":null,"age":"10"},{"start_time":1552313081709,"click_time":1552313084299,"finger_time":1552313083780,"fix_duration":250,"trial":14,"RT":2071,"MT":519,"sideResp":1,"stimulus":[],"xmouse":[800,800,800,801,801,801,801,801,801,802,802,802,802,802,803,804,804,804,804,804,804,804,804,804,804,804,804,804,804,804,804,804,804,804,804,804,804,804,804,804,804,804,804,804,804,804,804,804,804,804,804,804,804,804,804,804,804,804,804,804,804,804,804,804,804,804,804,804,804,804,804,804,804,804,804,804,804,804,804,804,804,804,804,804,804,804,804,804,804,804,804,804,804,804,803,798,794,789,786,781,780,779,776,772,762,759,756,754,753,742,736,724,711,698,675,666,655,640,626,598,589,582,574,560,540,534,532,532,529,517],"ymouse":[621,621,621,621,621,621,621,621,621,621,620,620,620,620,620,619,618,618,617,617,617,617,617,617,617,617,617,617,617,617,617,617,617,617,617,617,617,617,617,617,617,617,617,617,617,617,617,617,617,617,617,617,617,617,617,617,617,617,617,617,617,617,617,617,617,617,617,617,617,617,617,617,617,617,617,617,617,617,617,617,617,617,617,617,617,617,617,617,617,617,617,617,617,617,614,607,601,594,590,584,582,580,576,571,556,550,547,541,537,511,488,447,401,357,285,247,214,162,129,89,78,70,64,59,56,55,54,54,55,62],"timestamp_mouse":[12,41,50,70,90,109,130,150,170,191,209,229,250,269,290,310,330,349,369,389,410,431,450,470,490,511,529,549,570,590,611,631,650,670,691,710,729,749,771,790,810,830,850,871,889,909,929,951,971,991,1009,1030,1050,1071,1091,1110,1130,1149,1169,1189,1209,1231,1251,1270,1290,1310,1330,1350,1371,1391,1411,1429,1451,1470,1489,1510,1531,1551,1569,1590,1610,1629,1649,1670,1691,1710,1729,1749,1770,1791,1809,1830,1850,1869,1890,1911,1929,1949,1971,1990,2010,2031,2051,2071,2089,2110,2130,2151,2170,2189,2210,2230,2251,2270,2290,2309,2329,2349,2369,2389,2410,2429,2450,2471,2489,2509,2530,2549,2570,2590],"xSR":741.5,"ySR":573.95,"xT1":424.9,"yT1":0,"xT2":1058.1,"yT2":0,"toosoon":0,"cond_shown":"Congruent","ratio_trial":300,"L_num":3,"L_den":6,"R_num":2,"R_den":10,"correct_side":1,"subjID":"juan pablo galindo valbuena .15","gender":"0","school":null,"age":"10"},{"start_time":1552313085849,"click_time":1552313087900,"finger_time":1552313087479,"fix_duration":250,"trial":15,"RT":1630,"MT":421,"sideResp":1,"stimulus":[],"xmouse":[811,811,811,811,811,811,811,811,811,811,811,811,811,811,811,809,808,805,805,805,805,805,805,805,805,805,805,805,805,805,805,805,805,805,805,805,805,805,805,805,805,805,805,805,805,805,805,805,805,805,804,804,804,804,804,804,804,804,804,804,804,804,804,804,804,804,804,804,804,804,804,804,804,804,804,804,804,804,804,804,796,773,732,667,648,642,640,636,630,625,616,605,598,589,584,579,574,567,557,541,521,492,467],"ymouse":[609,609,609,609,609,609,609,609,609,609,609,609,609,609,609,610,610,608,608,608,608,608,608,608,608,608,608,608,608,608,608,608,608,608,608,608,608,608,608,608,608,608,608,608,608,608,608,608,608,608,607,607,607,607,607,607,607,607,607,607,607,607,607,607,607,607,607,607,607,607,607,607,607,607,607,607,607,607,607,605,591,558,499,400,375,367,364,354,341,323,300,266,244,206,192,179,172,164,155,141,124,100,79],"timestamp_mouse":[12,32,51,69,90,111,130,150,171,191,210,229,251,270,289,309,329,350,370,389,410,429,450,470,491,511,529,551,571,589,609,630,651,671,691,711,730,749,770,789,810,830,851,870,890,910,930,949,971,991,1010,1029,1049,1069,1091,1110,1130,1151,1171,1191,1211,1230,1249,1269,1289,1309,1330,1350,1371,1390,1409,1430,1449,1470,1489,1511,1529,1550,1570,1589,1611,1630,1650,1669,1689,1710,1730,1750,1769,1791,1811,1830,1850,1871,1891,1911,1929,1950,1969,1989,2009,2029,2051],"xSR":741.5,"ySR":573.95,"xT1":424.9,"yT1":0,"xT2":1058.1,"yT2":0,"toosoon":0,"cond_shown":"Congruent","ratio_trial":200,"L_num":12,"L_den":20,"R_num":6,"R_den":15,"correct_side":1,"subjID":"juan pablo galindo valbuena .15","gender":"0","school":null,"age":"10"},{"start_time":1552313089290,"click_time":1552313090080,"finger_time":1552313089699,"fix_duration":250,"trial":16,"RT":409,"MT":381,"sideResp":1,"stimulus":[],"xmouse":[791,791,791,791,791,791,791,791,791,791,791,791,791,791,791,791,791,791,791,787,778,742,711,661,613,579,541,540,539,537,534,530,529,528,528,528,528,527,526,524],"ymouse":[641,641,641,641,641,641,641,641,641,641,641,641,641,641,641,641,638,625,606,583,555,485,437,366,300,244,193,189,184,172,153,123,112,107,105,102,92,88,86,83],"timestamp_mouse":[12,42,50,68,88,110,129,149,169,189,210,229,250,269,288,310,330,350,369,389,409,429,449,470,490,509,529,549,568,589,608,630,649,668,688,708,728,749,768,790],"xSR":741.5,"ySR":573.95,"xT1":424.9,"yT1":0,"xT2":1058.1,"yT2":0,"toosoon":0,"cond_shown":"Congruent","ratio_trial":200,"L_num":3,"L_den":12,"R_num":9,"R_den":20,"correct_side":2,"subjID":"juan pablo galindo valbuena .15","gender":"0","school":null,"age":"10"},{"start_time":1552313091670,"click_time":1552313092219,"finger_time":1552313092039,"fix_duration":250,"trial":17,"RT":369,"MT":180,"sideResp":2,"stimulus":[],"xmouse":[789,789,789,789,789,789,789,789,789,789,789,789,789,789,789,788,789,805,817,836,859,887,957,994,1029,1057,1084,1111],"ymouse":[609,609,609,609,609,609,609,609,609,609,609,609,609,609,609,605,603,574,553,519,465,400,294,258,225,189,150,81],"timestamp_mouse":[12,37,49,70,89,109,128,148,168,188,208,229,248,270,288,309,329,349,369,388,409,430,449,468,488,508,529,548],"xSR":741.5,"ySR":573.95,"xT1":424.9,"yT1":0,"xT2":1058.1,"yT2":0,"toosoon":0,"cond_shown":"Congruent","ratio_trial":300,"L_num":11,"L_den":22,"R_num":1,"R_den":5,"correct_side":1,"subjID":"juan pablo galindo valbuena .15","gender":"0","school":null,"age":"10"},{"start_time":1552313093620,"click_time":1552313094400,"finger_time":1552313094019,"fix_duration":378.8227502344129,"trial":18,"RT":399,"MT":381,"sideResp":1,"stimulus":[],"xmouse":[778,778,778,778,778,778,778,778,778,778,778,778,778,778,778,778,780,781,781,781,732,694,655,614,592,583,583,583,585,586,587,587,587,587,587,587,587,582,558,511],"ymouse":[637,637,637,637,637,637,637,637,637,637,637,637,637,637,637,637,633,626,617,599,424,323,231,149,106,61,49,42,34,27,21,21,21,21,21,21,21,21,21,21],"timestamp_mouse":[1,18,38,58,78,98,118,138,158,178,199,218,239,260,278,299,320,339,358,378,399,420,439,458,479,499,520,538,559,580,599,619,639,659,678,698,718,738,759,780],"xSR":741.5,"ySR":573.95,"xT1":424.9,"yT1":0,"xT2":1058.1,"yT2":0,"toosoon":0,"cond_shown":"Congruent","ratio_trial":100,"L_num":12,"L_den":30,"R_num":13,"R_den":26,"correct_side":2,"subjID":"juan pablo galindo valbuena .15","gender":"0","school":null,"age":"10"},{"start_time":1552313096071,"click_time":1552313096539,"finger_time":1552313096420,"fix_duration":250,"trial":19,"RT":349,"MT":119,"sideResp":2,"stimulus":[],"xmouse":[832,832,832,832,832,832,832,832,832,832,832,832,832,832,832,832,832,848,885,929,977,1024,1055,1084],"ymouse":[600,600,600,600,600,600,600,600,600,600,600,600,600,600,600,600,600,578,528,458,375,268,170,47],"timestamp_mouse":[10,36,47,68,87,109,127,147,167,187,208,227,248,268,287,307,328,349,368,388,408,429,448,468],"xSR":741.5,"ySR":573.95,"xT1":424.9,"yT1":0,"xT2":1058.1,"yT2":0,"toosoon":0,"cond_shown":"Congruent","ratio_trial":200,"L_num":20,"L_den":25,"R_num":9,"R_den":15,"correct_side":1,"subjID":"juan pablo galindo valbuena .15","gender":"0","school":null,"age":"10"},{"start_time":1552313098211,"click_time":1552313099120,"finger_time":1552313098539,"fix_duration":250,"trial":20,"RT":328,"MT":581,"sideResp":1,"stimulus":[],"xmouse":[816,816,816,816,816,816,816,816,816,816,816,815,813,810,804,796,776,762,754,746,734,706,689,677,670,661,659,655,655,655,655,652,647,633,616,599,578,575,575,575,575,562,555,543,532,518],"ymouse":[628,628,628,628,628,627,627,627,626,626,625,624,621,618,609,597,564,528,489,431,368,272,237,209,191,161,146,134,134,134,134,131,129,123,115,106,98,96,96,96,96,93,90,87,84,80],"timestamp_mouse":[12,38,47,69,89,107,127,149,168,188,207,228,248,267,288,307,328,348,367,388,407,427,448,469,488,509,527,548,569,587,607,627,649,668,687,708,729,747,767,787,808,827,848,867,888,909],"xSR":741.5,"ySR":573.95,"xT1":424.9,"yT1":0,"xT2":1058.1,"yT2":0,"toosoon":0,"cond_shown":"Incongruent","ratio_trial":200,"L_num":3,"L_den":10,"R_num":1,"R_den":2,"correct_side":2,"subjID":"juan pablo galindo valbuena .15","gender":"0","school":null,"age":"10"},{"start_time":1552313101668,"click_time":1552313102341,"finger_time":1552313102078,"fix_duration":967.0979492426198,"trial":21,"RT":410,"MT":263,"sideResp":2,"stimulus":[],"xmouse":[803,803,803,803,803,803,803,803,803,803,803,803,803,803,803,803,803,804,812,820,831,857,868,969,1015,1036,1046,1053,1058,1059,1059,1059,1059,1059],"ymouse":[606,606,606,606,606,606,606,606,606,606,606,606,606,606,606,606,606,603,589,578,558,478,438,149,26,0,0,0,0,0,0,0,0,4],"timestamp_mouse":[13,38,50,70,91,111,131,151,171,190,211,232,252,271,290,311,332,350,370,390,410,431,452,470,491,510,530,551,570,591,611,631,651,672],"xSR":741.5,"ySR":573.95,"xT1":424.9,"yT1":0,"xT2":1058.1,"yT2":0,"toosoon":0,"cond_shown":"Congruent","ratio_trial":200,"L_num":3,"L_den":10,"R_num":11,"R_den":22,"correct_side":2,"subjID":"juan pablo galindo valbuena .15","gender":"0","school":null,"age":"10"},{"start_time":1552313103953,"click_time":1552313104559,"finger_time":1552313104258,"fix_duration":412.8402248893266,"trial":22,"RT":305,"MT":301,"sideResp":2,"stimulus":[],"xmouse":[797,797,797,796,796,796,796,796,796,796,796,796,797,798,799,801,801,803,808,810,810,804,800,804,942,1040,1126,1173,1175,1152,1128],"ymouse":[614,614,614,610,607,607,607,607,607,607,607,606,603,598,591,571,561,532,498,367,285,221,178,156,140,145,164,169,169,128,99],"timestamp_mouse":[10,40,47,66,86,105,126,147,167,186,205,225,246,267,285,305,326,346,366,387,405,426,446,465,486,505,525,545,567,587,605],"xSR":741.5,"ySR":573.95,"xT1":424.9,"yT1":0,"xT2":1058.1,"yT2":0,"toosoon":0,"cond_shown":"Congruent","ratio_trial":100,"L_num":1,"L_den":2,"R_num":18,"R_den":30,"correct_side":2,"subjID":"juan pablo galindo valbuena .15","gender":"0","school":null,"age":"10"},{"start_time":1552313108195,"click_time":1552313109020,"finger_time":1552313108659,"fix_duration":1112.595406127265,"trial":23,"RT":464,"MT":361,"sideResp":2,"stimulus":[],"xmouse":[790,790,790,790,790,790,790,790,790,790,790,790,789,789,789,789,789,789,789,790,791,794,798,825,895,953,1011,1057,1082,1087,1087,1087,1087,1086,1084,1083,1083,1083,1083,1083,1083,1084],"ymouse":[635,635,635,635,635,635,635,635,635,635,635,633,633,633,633,631,630,629,627,625,623,614,604,564,463,382,302,237,164,140,130,125,123,120,116,113,113,113,113,111,102,90],"timestamp_mouse":[16,27,45,65,84,105,125,145,164,184,204,223,245,264,285,304,325,344,364,385,405,425,445,464,485,504,525,544,564,584,604,625,645,664,685,705,724,745,764,784,805,825],"xSR":741.5,"ySR":573.95,"xT1":424.9,"yT1":0,"xT2":1058.1,"yT2":0,"toosoon":0,"cond_shown":"Congruent","ratio_trial":100,"L_num":9,"L_den":15,"R_num":8,"R_den":16,"correct_side":1,"subjID":"juan pablo galindo valbuena .15","gender":"0","school":null,"age":"10"},{"start_time":1552313110854,"click_time":1552313112761,"finger_time":1552313112059,"fix_duration":732.7453946816196,"trial":24,"RT":1205,"MT":702,"sideResp":2,"stimulus":[],"xmouse":[802,802,803,804,804,804,804,804,804,804,804,804,804,804,804,804,804,804,804,804,804,802,801,799,798,798,798,798,799,801,801,801,801,801,801,801,801,801,801,801,801,801,801,801,801,801,801,801,801,801,801,801,801,801,801,801,801,801,808,823,848,922,959,982,993,1004,1012,1019,1028,1047,1054,1062,1064,1066,1067,1068,1075,1086,1092,1092,1092,1092,1092,1092,1092,1092,1092,1092,1092,1092,1092,1092,1092,1092,1092,1092],"ymouse":[632,632,630,627,626,625,625,625,625,625,625,625,625,625,625,625,625,625,625,625,625,626,627,630,631,633,633,633,626,622,622,622,622,622,622,622,622,622,622,622,622,622,622,622,622,622,622,622,622,622,622,622,622,622,622,622,622,620,604,581,550,455,393,337,294,214,180,151,115,45,6,0,0,0,0,0,0,0,0,0,0,0,0,0,0,0,0,0,0,0,0,0,0,0,0,1],"timestamp_mouse":[13,36,46,66,86,105,125,145,165,186,204,226,245,266,285,306,326,345,365,386,406,425,446,465,486,505,526,546,566,586,606,626,646,666,685,705,726,746,766,786,806,826,846,866,885,905,925,945,966,986,1006,1026,1045,1066,1085,1106,1125,1145,1165,1185,1205,1225,1245,1266,1285,1305,1325,1345,1366,1385,1406,1425,1445,1466,1486,1505,1525,1545,1566,1585,1606,1625,1645,1665,1686,1706,1725,1745,1766,1785,1805,1825,1846,1866,1885,1906],"xSR":741.5,"ySR":573.95,"xT1":424.9,"yT1":0,"xT2":1058.1,"yT2":0,"toosoon":0,"cond_shown":"Incongruent","ratio_trial":300,"L_num":13,"L_den":26,"R_num":12,"R_den":15,"correct_side":2,"subjID":"juan pablo galindo valbuena .15","gender":"0","school":null,"age":"10"},{"start_time":1552313114596,"click_time":1552313115800,"finger_time":1552313114879,"fix_duration":513.0863055747936,"trial":25,"RT":283,"MT":921,"sideResp":1,"stimulus":[],"xmouse":[798,798,798,798,798,798,798,798,798,798,798,799,804,861,881,886,889,895,911,922,933,944,963,999,1010,1018,1024,1030,1042,1044,1044,1044,1044,1044,1044,1044,1044,1044,1044,1044,1044,1044,1044,1044,1044,1043,1018,969,801,718,618,601,598,598,598,596,588,573,525,496],"ymouse":[638,638,638,638,638,638,638,638,638,638,638,636,630,598,589,585,581,567,512,490,455,416,353,221,170,133,106,87,51,47,47,47,47,47,47,47,47,47,47,47,47,47,47,47,47,47,52,56,56,48,23,17,17,17,17,17,17,19,44,68],"timestamp_mouse":[19,45,64,84,103,123,144,163,183,204,223,243,263,283,304,323,344,364,383,404,423,444,464,484,504,524,543,563,583,603,624,643,664,684,703,723,743,764,783,803,824,843,864,883,902,923,943,964,983,1004,1023,1043,1063,1083,1103,1123,1143,1164,1183,1203],"xSR":741.5,"ySR":573.95,"xT1":424.9,"yT1":0,"xT2":1058.1,"yT2":0,"toosoon":0,"cond_shown":"Congruent","ratio_trial":200,"L_num":8,"L_den":15,"R_num":7,"R_den":21,"correct_side":1,"subjID":"juan pablo galindo valbuena .15","gender":"0","school":null,"age":"10"},{"start_time":1552313117173,"click_time":1552313118460,"finger_time":1552313118399,"fix_duration":250,"trial":26,"RT":1226,"MT":61,"sideResp":2,"stimulus":[],"xmouse":[805,805,805,805,805,805,805,805,805,805,805,805,805,805,805,805,805,805,805,805,805,805,805,805,805,805,805,805,805,805,805,805,805,805,805,805,805,805,805,805,805,805,805,805,805,805,805,805,805,805,805,805,805,805,805,805,805,805,805,808,823,985,1032,1068,1083],"ymouse":[635,635,635,635,635,635,635,635,635,635,635,635,635,635,634,632,631,630,630,630,630,630,630,630,630,630,630,630,630,630,630,630,630,630,630,630,630,630,630,630,630,630,630,630,630,630,630,630,630,630,630,630,630,630,630,630,630,630,630,626,603,374,267,160,68],"timestamp_mouse":[13,38,46,66,86,107,126,147,167,186,206,227,247,266,286,306,326,346,366,386,406,426,447,467,486,506,526,547,567,586,605,627,646,667,686,706,726,745,766,786,806,826,846,867,886,907,926,946,966,986,1006,1026,1046,1066,1087,1106,1126,1146,1166,1187,1206,1226,1246,1267,1287],"xSR":741.5,"ySR":573.95,"xT1":424.9,"yT1":0,"xT2":1058.1,"yT2":0,"toosoon":0,"cond_shown":"Incongruent","ratio_trial":300,"L_num":13,"L_den":26,"R_num":12,"R_den":15,"correct_side":2,"subjID":"juan pablo galindo valbuena .15","gender":"0","school":null,"age":"10"},{"start_time":1552313120132,"click_time":1552313120580,"finger_time":1552313120420,"fix_duration":250,"trial":27,"RT":288,"MT":160,"sideResp":2,"stimulus":[],"xmouse":[817,817,817,817,817,817,817,817,817,817,817,817,821,836,862,912,972,1019,1066,1076,1083,1089,1089],"ymouse":[616,616,616,616,616,616,616,616,616,616,616,616,612,605,590,553,499,443,330,260,190,121,75],"timestamp_mouse":[19,49,50,67,88,108,127,147,167,187,207,227,247,267,288,308,327,346,367,387,407,428,447],"xSR":741.5,"ySR":573.95,"xT1":424.9,"yT1":0,"xT2":1058.1,"yT2":0,"toosoon":0,"cond_shown":"Incongruent","ratio_trial":200,"L_num":6,"L_den":20,"R_num":3,"R_den":6,"correct_side":2,"subjID":"juan pablo galindo valbuena .15","gender":"0","school":null,"age":"10"},{"start_time":1552313122399,"click_time":1552313123139,"finger_time":1552313122699,"fix_duration":898.3491742880238,"trial":28,"RT":300,"MT":440,"sideResp":2,"stimulus":[],"xmouse":[788,788,788,789,790,791,791,791,791,791,791,791,792,797,825,979,1064,1159,1177,1180,1180,1180,1181,1182,1182,1185,1185,1185,1185,1185,1185,1185,1185,1185,1185,1185,1169,1142],"ymouse":[603,603,603,603,601,601,601,601,601,601,601,601,601,597,577,443,343,210,171,155,153,152,152,146,134,99,92,88,83,82,79,78,78,78,78,77,74,71],"timestamp_mouse":[10,35,41,60,80,100,120,140,161,180,201,221,240,259,280,300,320,340,361,382,400,420,441,460,480,501,521,540,560,581,601,620,641,661,681,700,720,740],"xSR":741.5,"ySR":573.95,"xT1":424.9,"yT1":0,"xT2":1058.1,"yT2":0,"toosoon":0,"cond_shown":"Incongruent","ratio_trial":300,"L_num":3,"L_den":6,"R_num":4,"R_den":20,"correct_side":1,"subjID":"juan pablo galindo valbuena .15","gender":"0","school":null,"age":"10"},{"start_time":1552313128638,"click_time":1552313129960,"finger_time":1552313129618,"fix_duration":1338.7524486478053,"trial":29,"RT":980,"MT":342,"sideResp":2,"stimulus":[],"xmouse":[794,794,794,794,794,794,794,794,794,794,794,794,794,794,794,794,794,794,794,794,794,794,794,794,794,794,794,794,794,794,794,794,794,794,794,794,794,794,794,794,794,794,794,794,794,795,796,802,828,845,873,883,913,944,961,972,979,988,997,1012,1017,1025,1038,1085,1106,1129,1149],"ymouse":[620,620,620,620,620,620,620,620,620,620,620,620,620,620,620,620,620,620,620,619,618,614,614,614,614,614,614,614,614,614,614,614,614,614,614,614,614,614,614,614,614,614,614,614,614,614,614,607,578,560,536,528,504,471,447,431,419,406,394,367,347,325,296,202,158,104,46],"timestamp_mouse":[10,22,44,62,82,101,121,141,162,181,202,222,248,262,282,302,322,341,362,381,402,422,442,461,482,502,522,542,562,582,601,621,641,662,681,701,720,742,762,782,802,822,841,860,880,900,920,940,961,980,1001,1020,1040,1061,1081,1101,1122,1141,1161,1182,1201,1221,1242,1261,1281,1302,1322],"xSR":741.5,"ySR":573.95,"xT1":424.9,"yT1":0,"xT2":1058.1,"yT2":0,"toosoon":0,"cond_shown":"Congruent","ratio_trial":300,"L_num":2,"L_den":20,"R_num":10,"R_den":25,"correct_side":2,"subjID":"juan pablo galindo valbuena .15","gender":"0","school":null,"age":"10"},{"start_time":1552313132381,"click_time":1552313133520,"finger_time":1552313132819,"fix_duration":1118.1606827265068,"trial":30,"RT":438,"MT":701,"sideResp":2,"stimulus":[],"xmouse":[786,786,786,786,786,786,786,786,786,786,786,786,786,786,788,790,803,807,810,815,821,833,870,917,974,1024,1079,1207,1270,1328,1382,1425,1458,1461,1461,1461,1461,1460,1439,1412,1387,1359,1340,1340,1340,1333,1320,1300,1291,1277,1262,1245,1223,1210,1196,1180,1167,1149],"ymouse":[595,595,595,595,595,595,595,595,595,595,595,595,595,595,595,595,593,593,592,590,587,580,545,479,395,322,248,71,0,0,0,0,0,0,0,0,0,0,0,0,0,0,0,0,0,1,4,9,12,16,21,27,31,34,35,35,35,35],"timestamp_mouse":[1,18,38,59,79,98,117,139,158,179,198,219,238,258,278,299,319,338,358,377,398,418,438,459,478,498,518,538,559,578,598,618,639,658,678,699,720,738,758,778,799,818,839,859,879,899,919,938,958,979,999,1018,1038,1058,1078,1099,1119,1139],"xSR":741.5,"ySR":573.95,"xT1":424.9,"yT1":0,"xT2":1058.1,"yT2":0,"toosoon":0,"cond_shown":"Incongruent","ratio_trial":300,"L_num":13,"L_den":26,"R_num":12,"R_den":15,"correct_side":2,"subjID":"juan pablo galindo valbuena .15","gender":"0","school":null,"age":"10"},{"start_time":1552313138759,"click_time":1552313139620,"finger_time":1552313139200,"fix_duration":1217.6091558383946,"trial":31,"RT":441,"MT":420,"sideResp":2,"stimulus":[],"xmouse":[785,785,785,785,785,785,785,785,785,785,785,785,785,785,785,785,785,785,785,785,798,822,842,875,887,901,924,964,1088,1140,1182,1214,1248,1248,1246,1244,1244,1244,1244,1243,1227,1183,1166,1153],"ymouse":[600,600,600,600,600,600,600,600,600,600,600,600,600,600,600,600,600,600,600,600,597,588,578,559,549,535,509,461,299,206,99,0,0,0,0,0,0,0,0,0,4,24,31,38],"timestamp_mouse":[11,20,44,61,81,101,120,141,160,181,201,221,241,261,280,300,320,341,361,380,401,421,441,460,480,500,520,540,560,580,601,620,640,660,681,699,720,741,762,780,801,821,841,860],"xSR":741.5,"ySR":573.95,"xT1":424.9,"yT1":0,"xT2":1058.1,"yT2":0,"toosoon":0,"cond_shown":"Incongruent","ratio_trial":100,"L_num":9,"L_den":10,"R_num":20,"R_den":25,"correct_side":1,"subjID":"juan pablo galindo valbuena .15","gender":"0","school":null,"age":"10"},{"start_time":1552313144661,"click_time":1552313146319,"finger_time":1552313145820,"fix_duration":260.1276736273533,"trial":32,"RT":1159,"MT":499,"sideResp":2,"stimulus":[],"xmouse":[803,803,803,803,803,803,803,803,803,803,803,803,803,803,803,803,803,803,803,803,803,803,803,803,803,803,803,803,803,803,803,803,803,803,803,803,803,803,803,803,803,803,803,803,803,803,803,803,803,803,803,803,803,811,816,822,829,841,978,1083,1205,1321,1439,1473,1473,1473,1473,1476,1477,1477,1470,1459,1444,1403,1339,1315,1297,1282,1266,1250,1219,1178,1152],"ymouse":[629,629,629,629,629,629,629,629,629,629,629,629,629,629,629,629,629,629,629,629,629,629,629,629,629,629,629,629,629,629,629,629,629,629,629,629,629,629,629,629,629,629,629,629,629,629,629,629,629,629,629,629,629,620,609,596,578,552,334,180,0,0,0,0,0,0,0,0,0,5,23,41,58,80,90,90,90,90,86,81,70,52,36],"timestamp_mouse":[19,43,58,78,98,118,138,158,179,198,219,239,259,278,298,319,339,359,379,398,418,438,458,479,498,518,539,558,578,598,617,639,658,678,698,718,738,758,778,798,818,838,858,879,898,919,939,958,979,998,1018,1038,1058,1078,1099,1119,1139,1159,1178,1199,1218,1238,1258,1278,1298,1318,1339,1358,1379,1398,1418,1439,1459,1478,1499,1519,1538,1558,1578,1598,1619,1638,1658],"xSR":741.5,"ySR":573.95,"xT1":424.9,"yT1":0,"xT2":1058.1,"yT2":0,"toosoon":0,"cond_shown":"Congruent","ratio_trial":200,"L_num":9,"L_den":30,"R_num":13,"R_den":26,"correct_side":2,"subjID":"juan pablo galindo valbuena .15","gender":"0","school":null,"age":"10"},{"start_time":1552313150407,"click_time":1552313152981,"finger_time":1552313152879,"fix_duration":546.4994746771359,"trial":33,"RT":2472,"MT":102,"sideResp":2,"stimulus":[],"xmouse":[785,785,785,785,785,785,786,787,788,788,789,789,789,789,790,790,790,790,790,790,790,790,790,790,790,790,790,790,790,790,790,790,790,790,790,790,790,790,790,790,790,790,790,790,790,790,790,790,790,790,790,790,790,790,790,790,790,790,790,790,790,790,790,790,790,790,790,790,790,790,790,790,790,790,790,790,790,790,790,790,790,790,790,790,790,790,790,790,790,790,790,790,790,790,790,790,790,790,790,790,790,790,790,790,790,790,790,790,790,792,793,799,801,801,801,801,801,801,801,801,801,801,820,837,853,872,916,1059,1126],"ymouse":[653,653,653,653,653,653,652,648,646,645,643,643,643,642,640,639,639,638,638,638,638,638,638,638,638,638,638,638,638,638,638,638,638,638,638,638,638,638,638,638,638,638,638,638,638,638,638,638,638,638,638,638,638,638,638,638,638,638,638,638,638,638,638,638,638,638,638,638,638,638,638,638,638,638,638,638,638,638,638,638,638,638,638,638,638,638,638,638,638,638,638,638,638,638,638,638,638,638,638,638,638,638,638,638,638,638,638,638,638,635,631,621,614,614,613,613,613,613,613,613,613,611,588,568,546,512,430,176,41],"timestamp_mouse":[12,37,53,73,92,113,133,152,172,193,212,233,253,272,292,313,333,353,372,393,412,433,453,471,493,513,533,551,571,593,612,633,653,672,693,713,732,753,772,793,813,831,852,872,893,913,932,952,972,992,1012,1033,1053,1072,1093,1112,1133,1152,1173,1193,1212,1233,1252,1273,1293,1313,1332,1351,1372,1392,1413,1433,1453,1473,1493,1513,1532,1553,1573,1593,1612,1633,1653,1672,1692,1713,1731,1753,1772,1792,1813,1833,1852,1872,1892,1912,1932,1953,1973,1993,2013,2032,2052,2071,2093,2112,2133,2152,2173,2193,2213,2232,2252,2273,2293,2312,2333,2352,2373,2393,2411,2433,2452,2472,2492,2511,2532,2552,2573],"xSR":741.5,"ySR":573.95,"xT1":424.9,"yT1":0,"xT2":1058.1,"yT2":0,"toosoon":0,"cond_shown":"Congruent","ratio_trial":300,"L_num":4,"L_den":10,"R_num":1,"R_den":10,"correct_side":1,"subjID":"juan pablo galindo valbuena .15","gender":"0","school":null,"age":"10"},{"start_time":1552313157949,"click_time":1552313160239,"finger_time":1552313158760,"fix_duration":928.7140005874054,"trial":34,"RT":811,"MT":1479,"sideResp":2,"stimulus":[],"xmouse":[780,780,780,780,780,780,780,780,780,780,780,780,780,780,780,780,780,780,780,780,780,780,780,780,780,780,780,780,780,780,780,780,780,780,780,780,781,788,797,806,816,828,844,861,880,902,951,976,1010,1054,1098,1160,1185,1198,1205,1212,1219,1224,1224,1224,1224,1224,1224,1221,1217,1212,1206,1205,1205,1204,1203,1198,1194,1191,1190,1190,1190,1190,1189,1188,1187,1187,1187,1187,1187,1187,1187,1187,1186,1186,1185,1183,1183,1183,1182,1179,1169,1168,1167,1167,1167,1167,1167,1167,1167,1167,1167,1167,1166,1165,1163,1163,1162,1160,1158],"ymouse":[627,627,627,627,627,627,627,627,627,627,627,627,627,627,627,627,627,627,627,627,627,627,627,627,627,627,627,627,627,627,627,627,627,627,627,627,628,619,597,576,553,509,470,446,419,382,259,187,104,22,0,0,0,0,0,0,0,0,0,0,0,0,4,8,14,21,30,32,33,34,38,46,54,58,60,60,60,60,61,63,64,64,64,64,64,64,64,64,65,65,63,61,61,61,59,58,57,57,57,57,57,57,57,57,57,57,57,57,57,57,57,57,57,57,57],"timestamp_mouse":[13,35,50,71,90,111,130,150,171,190,210,230,251,270,291,311,330,350,370,390,410,431,451,470,489,511,530,550,569,593,611,630,650,671,691,711,730,751,771,789,811,830,850,870,891,911,929,950,970,990,1011,1030,1050,1070,1090,1110,1130,1151,1171,1190,1210,1231,1251,1270,1291,1310,1330,1350,1370,1391,1411,1431,1450,1470,1491,1510,1530,1551,1570,1591,1610,1630,1651,1671,1690,1711,1730,1750,1770,1790,1810,1830,1850,1870,1890,1910,1930,1951,1970,1990,2010,2031,2050,2070,2090,2111,2129,2151,2171,2190,2211,2230,2250,2270,2290],"xSR":741.5,"ySR":573.95,"xT1":424.9,"yT1":0,"xT2":1058.1,"yT2":0,"toosoon":0,"cond_shown":"Incongruent","ratio_trial":100,"L_num":6,"L_den":12,"R_num":3,"R_den":5,"correct_side":2,"subjID":"juan pablo galindo valbuena .15","gender":"0","school":null,"age":"10"},{"start_time":1552313163436,"click_time":1552313163821,"finger_time":1552313163679,"fix_duration":1014.781850592447,"trial":35,"RT":243,"MT":142,"sideResp":2,"stimulus":[],"xmouse":[783,783,783,783,783,783,783,783,782,782,784,788,827,859,892,914,940,998,1041,1084],"ymouse":[633,633,633,633,633,633,633,633,629,624,619,605,512,435,362,303,243,137,72,12],"timestamp_mouse":[10,23,44,78,83,104,123,144,164,184,204,224,243,263,283,304,323,343,363,384],"xSR":741.5,"ySR":573.95,"xT1":424.9,"yT1":0,"xT2":1058.1,"yT2":0,"toosoon":0,"cond_shown":"Congruent","ratio_trial":100,"L_num":7,"L_den":14,"R_num":15,"R_den":25,"correct_side":2,"subjID":"juan pablo galindo valbuena .15","gender":"0","school":null,"age":"10"},{"start_time":1552313166250,"click_time":1552313167480,"finger_time":1552313166999,"fix_duration":1229.0534170672556,"trial":36,"RT":749,"MT":481,"sideResp":2,"stimulus":[],"xmouse":[774,774,774,774,774,774,774,774,774,774,774,774,774,774,774,774,774,774,774,774,774,774,780,786,792,795,798,798,798,798,798,798,798,798,798,798,804,841,879,922,953,991,999,1002,1009,1016,1020,1028,1030,1030,1030,1030,1030,1030,1030,1030,1030,1030,1030,1030,1038,1068],"ymouse":[638,638,638,638,638,638,638,638,638,638,638,638,638,638,638,638,638,638,638,638,638,636,622,615,604,599,595,595,595,595,595,595,595,595,595,593,580,514,445,368,310,226,201,182,161,145,134,103,84,63,47,36,28,28,28,28,28,28,28,28,28,41],"timestamp_mouse":[20,29,49,69,89,109,130,149,170,190,209,230,250,270,289,310,330,349,370,389,409,429,450,469,490,509,529,550,570,590,609,629,650,670,689,709,729,749,770,790,809,831,849,869,889,910,929,949,969,990,1009,1029,1050,1070,1089,1109,1130,1150,1169,1190,1209,1230],"xSR":741.5,"ySR":573.95,"xT1":424.9,"yT1":0,"xT2":1058.1,"yT2":0,"toosoon":0,"cond_shown":"Incongruent","ratio_trial":100,"L_num":8,"L_den":20,"R_num":1,"R_den":2,"correct_side":2,"subjID":"juan pablo galindo valbuena .15","gender":"0","school":null,"age":"10"},{"start_time":1552313172293,"click_time":1552313174379,"finger_time":1552313173819,"fix_duration":250,"trial":37,"RT":1526,"MT":560,"sideResp":2,"stimulus":[],"xmouse":[817,817,817,817,817,817,817,817,817,817,817,817,817,817,817,816,816,816,815,815,815,815,815,815,815,815,815,815,815,815,815,815,815,815,815,815,815,815,815,815,815,815,815,815,815,815,815,815,815,815,815,815,815,815,815,815,815,815,815,815,815,815,815,815,815,815,815,815,815,815,815,815,815,815,816,823,838,870,909,956,975,987,989,989,989,989,989,1009,1053,1143,1214,1219,1220,1220,1220,1220,1220,1220,1220,1220,1220,1220,1210,1179,1127],"ymouse":[637,637,637,636,636,636,635,635,635,635,635,635,635,633,633,632,632,632,631,630,630,630,630,630,630,630,630,630,630,630,630,630,630,630,630,630,630,630,630,630,630,630,630,630,630,630,630,630,630,630,630,630,630,630,630,630,630,630,630,630,630,630,630,630,630,630,630,630,630,630,630,630,630,620,615,587,538,450,359,267,233,205,200,198,197,184,162,107,34,0,0,0,0,0,0,0,0,0,0,0,0,0,2,7,15],"timestamp_mouse":[12,30,47,67,87,107,126,146,167,185,205,226,246,267,285,307,327,346,367,387,407,426,445,466,487,506,526,546,565,587,607,626,647,667,687,707,727,747,765,787,807,827,846,866,887,906,926,946,967,987,1006,1026,1045,1066,1086,1107,1126,1146,1167,1185,1206,1227,1247,1266,1286,1306,1326,1345,1367,1386,1406,1426,1446,1466,1486,1506,1526,1547,1566,1586,1607,1626,1646,1666,1687,1706,1725,1747,1767,1786,1806,1826,1846,1866,1886,1907,1926,1946,1967,1986,2007,2025,2046,2067,2086],"xSR":741.5,"ySR":573.95,"xT1":424.9,"yT1":0,"xT2":1058.1,"yT2":0,"toosoon":0,"cond_shown":"Congruent","ratio_trial":200,"L_num":1,"L_den":2,"R_num":21,"R_den":30,"correct_side":2,"subjID":"juan pablo galindo valbuena .15","gender":"0","school":null,"age":"10"},{"start_time":1552313209935,"click_time":1552313211980,"finger_time":1552313211620,"fix_duration":1092.900805957269,"trial":38,"RT":1685,"MT":360,"sideResp":2,"stimulus":[],"xmouse":[780,780,780,780,780,780,780,780,780,780,780,780,780,780,780,780,780,780,780,780,780,780,780,780,780,780,780,780,780,780,780,780,780,780,780,780,780,780,780,780,780,780,780,780,780,780,780,780,780,780,780,780,780,780,780,780,780,780,780,780,780,780,780,780,780,780,780,780,780,780,780,780,780,780,780,780,780,780,780,780,780,780,780,790,853,940,1022,1079,1133,1171,1202,1221,1229,1233,1233,1233,1233,1233,1231,1216,1194,1167,1127],"ymouse":[629,629,629,629,629,629,629,629,629,629,629,629,629,629,629,629,629,629,629,629,629,629,629,629,629,629,629,629,629,629,629,629,629,629,629,629,629,629,629,629,629,629,629,629,629,629,629,629,629,629,629,629,629,629,629,629,629,629,629,629,629,629,629,629,629,629,629,629,629,629,629,629,629,629,629,629,629,629,629,629,629,629,629,617,556,480,419,372,303,217,145,94,64,39,38,38,38,34,15,0,0,4,21],"timestamp_mouse":[12,25,44,65,85,105,124,145,165,184,205,224,245,265,284,304,325,345,365,384,405,425,445,465,485,505,524,545,564,585,603,624,645,665,685,704,725,744,764,785,804,825,844,864,885,903,925,944,965,984,1005,1023,1044,1064,1084,1105,1124,1144,1163,1183,1205,1225,1244,1264,1284,1305,1325,1344,1364,1384,1405,1424,1444,1464,1484,1504,1525,1545,1563,1585,1605,1625,1644,1665,1685,1704,1725,1744,1764,1785,1804,1824,1844,1864,1884,1905,1924,1944,1964,1984,2004,2024,2045],"xSR":741.5,"ySR":573.95,"xT1":424.9,"yT1":0,"xT2":1058.1,"yT2":0,"toosoon":0,"cond_shown":"Congruent","ratio_trial":100,"L_num":4,"L_den":8,"R_num":6,"R_den":10,"correct_side":2,"subjID":"juan pablo galindo valbuena .15","gender":"0","school":null,"age":"10"},{"start_time":1552313217263,"click_time":1552313218340,"finger_time":1552313218300,"fix_duration":543.0305671547412,"trial":39,"RT":1037,"MT":40,"sideResp":2,"stimulus":[],"xmouse":[773,773,773,773,773,773,773,773,773,773,773,773,773,773,773,773,773,775,791,809,812,817,818,818,818,818,818,818,818,818,818,818,818,818,818,818,818,818,818,818,818,816,814,811,806,802,799,799,802,814,833,920,1001,1091],"ymouse":[655,655,655,655,655,655,655,655,655,655,655,655,655,655,654,652,652,650,648,645,643,634,634,634,634,634,634,634,634,634,634,634,634,634,634,634,634,634,634,634,633,633,633,633,633,633,633,633,633,624,592,413,248,70],"timestamp_mouse":[28,44,56,76,96,115,137,157,176,196,217,235,257,276,296,317,337,355,377,396,415,437,456,477,496,516,537,556,576,597,617,635,656,676,695,717,735,757,776,796,817,837,856,876,897,916,937,956,975,997,1017,1037,1056,1076],"xSR":741.5,"ySR":573.95,"xT1":424.9,"yT1":0,"xT2":1058.1,"yT2":0,"toosoon":0,"cond_shown":"Incongruent","ratio_trial":300,"L_num":13,"L_den":26,"R_num":12,"R_den":15,"correct_side":2,"subjID":"juan pablo galindo valbuena .15","gender":"0","school":null,"age":"10"},{"start_time":1552313220092,"click_time":1552313220940,"finger_time":1552313220439,"fix_duration":250,"trial":40,"RT":347,"MT":501,"sideResp":2,"stimulus":[],"xmouse":[760,760,760,760,760,760,760,760,760,760,760,760,760,760,761,761,781,788,800,816,838,881,895,897,893,888,892,898,899,899,899,899,900,901,910,929,983,991,992,992,996,1056,1135],"ymouse":[628,628,628,628,628,628,628,628,628,628,628,628,628,628,625,623,592,572,543,510,468,390,357,329,296,268,205,193,191,191,191,191,191,190,189,184,170,165,164,164,161,133,89],"timestamp_mouse":[12,39,49,67,88,107,127,147,166,186,208,228,248,267,288,307,327,347,366,387,408,427,447,467,488,508,527,548,567,588,607,626,647,667,688,708,727,747,767,788,807,827,848],"xSR":741.5,"ySR":573.95,"xT1":424.9,"yT1":0,"xT2":1058.1,"yT2":0,"toosoon":0,"cond_shown":"Congruent","ratio_trial":100,"L_num":9,"L_den":15,"R_num":8,"R_den":16,"correct_side":1,"subjID":"juan pablo galindo valbuena .15","gender":"0","school":null,"age":"10"},{"start_time":1552313225813,"click_time":1552313228759,"finger_time":1552313227300,"fix_duration":1453.400064706398,"trial":41,"RT":1487,"MT":1459,"sideResp":1,"stimulus":[],"xmouse":[790,790,790,790,790,790,790,790,790,790,790,790,790,790,790,790,790,790,790,790,792,794,796,798,798,798,798,798,798,798,798,798,798,798,798,798,798,798,798,798,798,798,798,798,798,798,798,798,798,798,798,798,798,798,798,798,798,798,798,798,798,798,798,798,798,798,798,798,798,798,798,798,800,807,824,887,920,928,939,941,946,946,946,947,947,947,947,938,911,858,821,819,819,817,798,798,761,751,750,750,750,750,750,750,749,749,748,747,743,743,743,743,743,743,750,818,988,1186,1314,1401,1419,1463,1463,1463,1463,1463,1463,1463,1463,1463,1463,1463,1463,517,267,82,0,0,0,0,0,0,0,0,4,34,330,521],"ymouse":[592,592,592,592,592,592,592,592,592,592,592,592,592,592,592,592,592,592,592,592,591,589,586,584,584,584,584,584,584,584,584,584,584,584,584,584,584,584,584,584,584,584,584,584,584,584,584,584,584,584,584,584,584,584,584,584,584,584,584,584,584,584,584,584,584,584,584,584,584,584,584,584,580,574,561,480,415,393,356,337,308,302,298,296,296,296,296,295,295,295,304,305,305,306,318,318,339,345,346,346,346,346,346,346,346,346,346,345,342,341,341,341,341,341,341,328,263,202,179,166,151,204,204,204,204,204,204,204,204,204,204,204,204,773,562,290,0,0,0,0,0,0,0,0,3,14,68,93],"timestamp_mouse":[10,26,46,67,85,106,126,145,167,187,207,226,247,267,287,307,327,346,366,387,407,427,447,467,486,507,527,546,567,587,605,627,647,667,687,706,727,745,767,787,806,826,847,865,887,907,927,946,967,985,1007,1027,1047,1067,1087,1105,1126,1147,1167,1187,1206,1226,1246,1267,1286,1307,1326,1346,1367,1386,1407,1427,1447,1466,1487,1507,1526,1547,1566,1586,1607,1626,1646,1666,1687,1708,1726,1747,1766,1786,1807,1826,1846,1866,1886,1906,1926,1947,1966,1986,2007,2026,2046,2066,2085,2105,2127,2146,2166,2186,2207,2227,2246,2266,2286,2306,2326,2347,2367,2386,2407,2427,2447,2467,2486,2507,2526,2546,2567,2585,2606,2626,2647,2666,2685,2705,2726,2745,2766,2786,2805,2827,2846,2866,2886,2906,2926,2946],"xSR":741.5,"ySR":573.95,"xT1":424.9,"yT1":0,"xT2":1058.1,"yT2":0,"toosoon":0,"cond_shown":"Incongruent","ratio_trial":100,"L_num":2,"L_den":4,"R_num":6,"R_den":15,"correct_side":1,"subjID":"juan pablo galindo valbuena .15","gender":"0","school":null,"age":"10"},{"start_time":1552313231026,"click_time":1552313232658,"finger_time":1552313232598,"fix_duration":586.6926656163712,"trial":42,"RT":1572,"MT":60,"sideResp":1,"stimulus":[],"xmouse":[783,783,783,783,783,783,783,783,783,783,783,783,783,783,783,783,783,783,783,783,783,783,783,783,783,783,783,783,783,783,783,783,783,783,783,783,783,783,783,783,783,783,783,783,783,783,783,783,783,783,783,783,783,783,783,783,783,783,783,783,783,783,783,783,783,783,783,783,783,783,783,783,783,783,783,783,783,775,741,676,510,442],"ymouse":[645,645,645,645,645,645,645,645,645,645,645,645,645,645,645,645,645,645,645,645,645,645,645,645,645,645,645,645,645,645,645,645,645,645,645,645,645,645,645,645,645,645,645,645,645,645,645,645,645,645,645,645,645,645,645,645,645,645,645,645,645,645,645,645,645,645,645,645,645,645,645,645,645,645,645,645,645,608,520,405,144,41],"timestamp_mouse":[16,43,53,72,94,112,132,154,173,192,212,232,252,274,292,312,332,352,373,393,412,433,452,473,494,512,532,552,573,593,612,634,654,673,694,714,732,753,774,792,813,834,853,872,893,913,934,952,972,994,1013,1033,1054,1074,1094,1113,1132,1152,1174,1194,1214,1232,1252,1273,1292,1314,1333,1352,1374,1393,1412,1432,1453,1473,1494,1512,1532,1552,1572,1593,1612,1632],"xSR":741.5,"ySR":573.95,"xT1":424.9,"yT1":0,"xT2":1058.1,"yT2":0,"toosoon":0,"cond_shown":"Congruent","ratio_trial":300,"L_num":20,"L_den":25,"R_num":5,"R_den":10,"correct_side":1,"subjID":"juan pablo galindo valbuena .15","gender":"0","school":null,"age":"10"},{"start_time":1552313234391,"click_time":1552313235179,"finger_time":1552313234759,"fix_duration":250,"trial":43,"RT":368,"MT":420,"sideResp":1,"stimulus":[],"xmouse":[774,774,774,774,774,774,774,774,774,774,774,774,774,774,773,770,759,748,716,696,663,622,550,521,495,490,483,477,477,477,477,477,477,478,481,485,488,489,486,480],"ymouse":[618,618,618,618,618,618,618,618,618,618,618,618,618,618,619,617,598,582,532,498,449,393,301,268,241,235,222,200,186,175,168,165,165,164,158,150,140,132,106,91],"timestamp_mouse":[10,45,47,69,87,109,127,149,168,188,208,229,247,267,288,307,327,347,368,388,409,427,448,467,488,507,527,548,567,588,608,628,649,668,687,707,728,747,768,788],"xSR":741.5,"ySR":573.95,"xT1":424.9,"yT1":0,"xT2":1058.1,"yT2":0,"toosoon":0,"cond_shown":"Incongruent","ratio_trial":200,"L_num":7,"L_den":15,"R_num":4,"R_den":6,"correct_side":2,"subjID":"juan pablo galindo valbuena .15","gender":"0","school":null,"age":"10"},{"start_time":1552313238010,"click_time":1552313238860,"finger_time":1552313238258,"fix_duration":809.5755804732457,"trial":44,"RT":248,"MT":602,"sideResp":2,"stimulus":[],"xmouse":[804,804,804,804,804,804,804,804,804,804,808,817,845,857,867,880,908,962,994,1032,1076,1122,1202,1220,1231,1234,1236,1236,1236,1236,1236,1236,1236,1236,1225,1207,1189,1168,1166,1165,1165,1162,1146],"ymouse":[646,646,646,646,646,646,646,646,643,642,636,628,601,591,579,564,524,431,361,292,215,142,11,0,0,0,0,0,0,0,0,0,0,0,0,3,8,16,18,19,19,22,29],"timestamp_mouse":[20,29,49,69,88,110,129,148,168,189,210,229,248,269,288,309,328,348,368,389,408,428,448,468,488,508,529,548,569,589,610,629,649,669,690,709,729,749,769,789,808,829,850],"xSR":741.5,"ySR":573.95,"xT1":424.9,"yT1":0,"xT2":1058.1,"yT2":0,"toosoon":0,"cond_shown":"Congruent","ratio_trial":100,"L_num":7,"L_den":14,"R_num":15,"R_den":25,"correct_side":2,"subjID":"juan pablo galindo valbuena .15","gender":"0","school":null,"age":"10"},{"start_time":1552313243294,"click_time":1552313244158,"finger_time":1552313243660,"fix_duration":1212.2651462684476,"trial":45,"RT":366,"MT":498,"sideResp":2,"stimulus":[],"xmouse":[780,791,791,806,806,806,806,806,806,806,806,806,806,806,806,806,806,807,815,824,834,846,856,865,893,950,974,1060,1105,1168,1177,1181,1184,1184,1184,1184,1184,1184,1184,1184,1183,1178,1167,1151],"ymouse":[600,596,596,590,590,590,590,590,590,589,589,589,589,589,589,589,589,588,563,544,521,497,479,463,425,341,306,193,128,38,17,4,0,0,0,0,0,0,0,0,0,0,8,20],"timestamp_mouse":[4,42,44,65,85,106,126,144,165,184,204,226,245,265,284,304,326,345,366,385,404,424,444,465,484,505,524,544,565,585,604,624,645,666,686,705,725,745,766,784,805,825,845,864],"xSR":741.5,"ySR":573.95,"xT1":424.9,"yT1":0,"xT2":1058.1,"yT2":0,"toosoon":0,"cond_shown":"Congruent","ratio_trial":100,"L_num":8,"L_den":16,"R_num":2,"R_den":5,"correct_side":1,"subjID":"juan pablo galindo valbuena .15","gender":"0","school":null,"age":"10"},{"start_time":1552313251173,"click_time":1552313251599,"finger_time":1552313251499,"fix_duration":812.0234134718365,"trial":46,"RT":326,"MT":100,"sideResp":1,"stimulus":[],"xmouse":[805,805,805,805,805,805,805,805,805,805,805,805,805,805,805,804,793,770,718,657,516,447],"ymouse":[593,591,591,591,591,591,591,591,591,591,591,591,591,591,591,591,571,528,416,316,150,90],"timestamp_mouse":[5,35,46,66,85,106,126,145,166,187,205,225,247,267,286,305,326,345,365,386,406,425],"xSR":741.5,"ySR":573.95,"xT1":424.9,"yT1":0,"xT2":1058.1,"yT2":0,"toosoon":0,"cond_shown":"Congruent","ratio_trial":300,"L_num":9,"L_den":10,"R_num":3,"R_den":5,"correct_side":1,"subjID":"juan pablo galindo valbuena .15","gender":"0","school":null,"age":"10"},{"start_time":1552313253418,"click_time":1552313254179,"finger_time":1552313253739,"fix_duration":557.8297567043594,"trial":47,"RT":321,"MT":440,"sideResp":1,"stimulus":[],"xmouse":[785,785,785,785,785,785,785,785,784,783,783,783,783,783,781,771,753,732,695,683,671,664,653,631,570,543,539,539,539,539,540,542,544,547,549,538,530,527,523],"ymouse":[626,626,626,626,626,626,626,626,625,625,625,625,625,625,621,600,565,528,464,441,418,400,378,347,259,211,202,196,193,191,190,188,184,174,136,106,93,88,80],"timestamp_mouse":[10,22,45,60,80,101,121,142,160,181,201,220,240,262,280,300,321,341,361,380,402,421,442,461,481,501,520,540,560,580,600,621,641,660,680,700,720,741,761],"xSR":741.5,"ySR":573.95,"xT1":424.9,"yT1":0,"xT2":1058.1,"yT2":0,"toosoon":0,"cond_shown":"Incongruent","ratio_trial":100,"L_num":6,"L_den":12,"R_num":3,"R_den":5,"correct_side":2,"subjID":"juan pablo galindo valbuena .15","gender":"0","school":null,"age":"10"},{"start_time":1552313259232,"click_time":1552313260878,"finger_time":1552313260760,"fix_duration":1332.2326924909978,"trial":48,"RT":1528,"MT":118,"sideResp":1,"stimulus":[],"xmouse":[797,797,797,797,797,797,797,797,797,797,797,797,797,797,797,797,797,797,797,797,797,797,797,797,797,797,797,797,797,797,797,797,797,797,797,797,797,797,797,797,797,797,797,797,797,797,797,797,797,797,797,797,797,797,797,797,797,797,797,797,797,797,797,797,797,797,797,797,797,797,797,797,797,797,797,797,786,770,738,655,587,567,507],"ymouse":[602,602,602,602,602,602,602,602,602,602,602,602,602,602,602,602,602,602,602,602,602,602,602,602,602,602,602,602,602,602,602,602,602,602,602,602,602,602,602,602,602,602,602,602,602,602,602,602,602,602,602,602,602,602,602,602,602,602,602,602,602,602,602,602,602,602,602,602,602,602,602,602,602,602,602,602,570,531,468,346,243,208,92],"timestamp_mouse":[9,27,48,67,87,108,127,148,168,186,207,227,246,268,288,306,327,347,368,387,406,427,448,468,486,507,528,546,567,587,607,627,646,666,688,707,727,748,767,788,808,827,847,867,887,907,928,948,967,987,1006,1027,1048,1067,1087,1106,1127,1148,1168,1187,1207,1228,1247,1268,1286,1307,1326,1347,1366,1388,1408,1427,1447,1466,1488,1508,1528,1547,1567,1586,1607,1626,1646],"xSR":741.5,"ySR":573.95,"xT1":424.9,"yT1":0,"xT2":1058.1,"yT2":0,"toosoon":0,"cond_shown":"Incongruent","ratio_trial":100,"L_num":6,"L_den":12,"R_num":3,"R_den":5,"correct_side":2,"subjID":"juan pablo galindo valbuena .15","gender":"0","school":null,"age":"10"},{"start_time":1552313263176,"click_time":1552313264038,"finger_time":1552313263598,"fix_duration":495.308859900911,"trial":49,"RT":422,"MT":440,"sideResp":2,"stimulus":[],"xmouse":[763,763,763,763,763,763,763,763,763,763,763,763,763,763,763,763,763,766,771,777,782,786,806,840,865,889,928,1047,1075,1092,1105,1117,1160,1177,1184,1188,1188,1188,1188,1187,1186,1177,1166,1156],"ymouse":[630,630,630,630,630,630,630,630,630,630,630,630,630,630,630,630,628,622,615,604,590,572,513,459,426,390,337,209,188,175,166,155,114,93,79,66,58,53,51,51,49,44,40,36],"timestamp_mouse":[2,23,44,63,83,103,122,144,163,182,202,222,242,264,282,304,323,342,362,384,403,422,442,463,483,502,523,542,564,583,602,622,644,662,682,703,723,742,763,782,804,824,842,862],"xSR":741.5,"ySR":573.95,"xT1":424.9,"yT1":0,"xT2":1058.1,"yT2":0,"toosoon":0,"cond_shown":"Congruent","ratio_trial":300,"L_num":4,"L_den":20,"R_num":13,"R_den":26,"correct_side":2,"subjID":"juan pablo galindo valbuena .15","gender":"0","school":null,"age":"10"},{"start_time":1552313267616,"click_time":1552313270779,"finger_time":1552313269859,"fix_duration":916.6264226311587,"trial":50,"RT":2243,"MT":920,"sideResp":2,"stimulus":[],"xmouse":[787,787,787,787,787,787,787,787,787,787,787,787,787,787,787,787,787,787,787,787,787,787,787,787,787,787,787,787,787,787,787,787,787,787,787,787,787,787,787,787,787,787,787,787,787,787,787,787,787,787,787,787,787,787,787,787,787,787,787,787,787,787,787,787,787,787,787,787,787,787,787,787,787,787,787,787,787,787,787,787,787,787,787,787,787,787,787,787,787,787,787,787,787,787,787,787,787,787,787,787,787,787,787,787,787,787,787,787,787,787,787,787,809,850,886,924,975,1007,1014,1015,1015,1015,1015,1015,1015,1015,1015,1015,1015,1015,1015,1015,1015,1015,1015,1015,1028,1046,1062,1072,1080,1131,1169,1204,1235,1254,1270,1275,1277,1277,1275,1258,1249,1240,1238,1235,1202,1175,1157],"ymouse":[649,649,649,649,649,649,649,649,649,649,649,649,649,649,649,649,649,649,649,649,649,649,649,649,649,649,649,649,649,649,649,649,649,649,649,649,649,649,649,649,649,649,649,649,649,649,649,649,649,649,649,649,649,649,649,649,649,649,649,649,649,649,649,649,649,649,649,649,649,649,649,649,649,649,649,649,649,649,649,649,649,649,649,649,649,649,649,649,649,649,649,649,649,649,649,649,649,649,649,649,649,649,649,649,649,649,649,649,649,649,649,649,515,274,87,0,0,0,0,0,0,0,0,0,0,0,0,0,0,0,0,0,0,0,5,159,236,296,340,351,351,308,258,208,164,140,116,106,96,78,53,1,0,0,0,0,16,25,29],"timestamp_mouse":[21,38,42,63,83,102,123,142,162,184,202,222,242,264,283,304,323,343,362,382,404,423,443,464,483,502,523,543,564,584,604,623,644,663,683,703,723,743,763,784,803,823,843,864,884,903,923,943,964,983,1002,1022,1043,1064,1083,1103,1123,1142,1164,1183,1203,1222,1242,1264,1283,1304,1323,1342,1363,1383,1404,1424,1443,1463,1484,1503,1523,1542,1563,1584,1604,1623,1642,1662,1683,1703,1724,1743,1763,1783,1803,1823,1843,1863,1883,1904,1922,1942,1963,1983,2002,2023,2044,2063,2083,2104,2123,2143,2162,2183,2203,2223,2243,2262,2284,2302,2323,2342,2362,2383,2402,2423,2443,2462,2483,2504,2524,2543,2564,2584,2604,2622,2643,2663,2683,2705,2722,2742,2763,2782,2802,2824,2844,2863,2882,2903,2922,2944,2962,2982,3002,3023,3042,3062,3083,3102,3122,3143,3162],"xSR":741.5,"ySR":573.95,"xT1":424.9,"yT1":0,"xT2":1058.1,"yT2":0,"toosoon":0,"cond_shown":"Congruent","ratio_trial":100,"L_num":7,"L_den":14,"R_num":9,"R_den":15,"correct_side":2,"subjID":"juan pablo galindo valbuena .15","gender":"0","school":null,"age":"10"},{"start_time":1552313273811,"click_time":1552313275859,"finger_time":1552313275299,"fix_duration":1330.9514139799915,"trial":51,"RT":1488,"MT":560,"sideResp":2,"stimulus":[],"xmouse":[807,807,807,807,807,807,807,807,807,807,807,807,807,807,807,807,807,807,807,807,807,807,807,807,807,807,807,807,807,807,807,807,807,807,807,807,807,807,807,807,807,807,807,807,807,807,807,807,807,807,807,807,807,807,807,807,807,807,807,807,807,807,807,807,807,807,807,807,807,809,815,831,837,840,850,858,878,880,892,911,933,984,1006,1034,1076,1153,1197,1197,1197,1197,1191,1188,1188,1188,1188,1188,1188,1187,1184,1180,1175,1168,1150],"ymouse":[642,642,642,642,642,642,642,642,642,642,642,642,642,642,642,642,642,642,642,642,642,642,642,642,642,642,642,642,642,642,642,642,642,642,642,642,642,642,642,642,642,642,642,642,642,642,642,642,642,642,642,642,642,642,642,642,642,642,642,642,642,642,642,642,642,642,642,640,637,629,619,593,584,574,547,517,394,285,140,11,0,0,0,0,0,0,0,0,0,6,26,42,43,43,43,43,43,43,43,44,44,44,44],"timestamp_mouse":[13,41,48,69,88,109,128,147,168,188,209,228,249,269,289,308,328,347,369,389,407,428,449,468,489,509,528,547,569,588,608,628,649,667,688,709,728,748,768,787,809,829,848,868,888,908,929,947,968,989,1009,1028,1047,1068,1088,1109,1129,1147,1167,1187,1209,1228,1247,1268,1288,1309,1328,1347,1367,1388,1408,1427,1448,1468,1488,1508,1527,1549,1567,1587,1608,1628,1647,1668,1687,1707,1728,1747,1768,1788,1808,1829,1848,1869,1889,1907,1928,1947,1968,1987,2009,2028,2048],"xSR":741.5,"ySR":573.95,"xT1":424.9,"yT1":0,"xT2":1058.1,"yT2":0,"toosoon":0,"cond_shown":"Congruent","ratio_trial":300,"L_num":2,"L_den":20,"R_num":10,"R_den":25,"correct_side":2,"subjID":"juan pablo galindo valbuena .15","gender":"0","school":null,"age":"10"},{"start_time":1552313279857,"click_time":1552313280541,"finger_time":1552313280199,"fix_duration":596.8865392404772,"trial":52,"RT":342,"MT":342,"sideResp":2,"stimulus":[],"xmouse":[807,807,807,807,807,807,807,807,807,807,807,807,807,807,807,808,811,821,836,861,932,991,1007,1009,1009,1009,1009,1009,1009,1009,1009,1010,1025,1054,1076],"ymouse":[615,615,615,615,615,615,615,615,615,615,615,615,615,615,615,608,595,565,500,403,113,0,0,0,0,0,0,0,0,0,0,2,25,60,74],"timestamp_mouse":[10,32,43,61,81,101,123,143,162,183,203,222,241,263,282,303,321,342,362,382,402,422,441,462,482,502,521,541,562,581,602,622,642,663,683],"xSR":741.5,"ySR":573.95,"xT1":424.9,"yT1":0,"xT2":1058.1,"yT2":0,"toosoon":0,"cond_shown":"Congruent","ratio_trial":100,"L_num":1,"L_den":2,"R_num":3,"R_den":5,"correct_side":2,"subjID":"juan pablo galindo valbuena .15","gender":"0","school":null,"age":"10"},{"start_time":1552313282640,"click_time":1552313283318,"finger_time":1552313282858,"fix_duration":1078.3812711291357,"trial":53,"RT":218,"MT":460,"sideResp":2,"stimulus":[],"xmouse":[813,813,813,813,813,813,814,815,816,818,820,825,827,828,828,828,828,830,834,855,888,993,1000,1000,994,991,987,991,1004,1017,1019,1035,1044,1055,1069],"ymouse":[608,608,608,608,608,607,605,603,601,592,584,567,560,558,557,557,557,557,557,557,547,444,418,390,345,276,169,147,124,101,94,67,53,40,24],"timestamp_mouse":[6,19,38,59,78,100,119,140,159,179,199,218,238,259,280,298,319,339,359,379,398,418,440,458,478,498,518,538,560,578,599,619,640,659,678],"xSR":741.5,"ySR":573.95,"xT1":424.9,"yT1":0,"xT2":1058.1,"yT2":0,"toosoon":0,"cond_shown":"Congruent","ratio_trial":100,"L_num":9,"L_den":15,"R_num":8,"R_den":16,"correct_side":1,"subjID":"juan pablo galindo valbuena .15","gender":"0","school":null,"age":"10"},{"start_time":1552313288221,"click_time":1552313289299,"finger_time":1552313289140,"fix_duration":660.777556243719,"trial":54,"RT":919,"MT":159,"sideResp":2,"stimulus":[],"xmouse":[794,794,794,794,794,794,794,794,794,794,794,794,794,794,794,794,794,794,794,794,794,794,794,794,794,794,794,7