[{"start_time":1552313698679,"click_time":1552313700123,"finger_time":1552313699684,"fix_duration":811.2859878598398,"trial":0,"RT":1005,"MT":439,"sideResp":1,"stimulus":"img/750/equaldotsize/L/14_Ratio_750_L_8_R_6.png","xmouse":[812,812,812,812,812,812,812,812,812,812,812,812,812,812,812,812,812,812,812,812,812,812,812,812,812,812,812,812,812,812,812,812,812,812,812,812,812,812,812,812,812,812,812,812,812,812,812,812,812,812,799,776,753,733,686,643,643,643,643,643,643,643,643,643,643,643,643,643,643,643,643,480,491],"ymouse":[487,487,487,487,487,487,487,487,487,487,487,487,487,487,487,487,487,487,487,487,487,487,487,487,487,487,487,487,487,487,487,487,487,487,487,487,487,487,487,487,487,487,487,487,487,487,487,487,487,480,451,400,341,285,125,28,28,28,28,28,28,28,28,28,28,28,28,28,28,28,28,0,14],"timestamp_mouse":[9,33,45,64,85,104,125,145,165,185,205,225,245,265,284,305,324,344,364,385,404,424,444,465,485,505,524,544,565,585,604,625,644,663,685,704,725,745,765,784,804,823,845,865,885,903,924,943,964,983,1005,1024,1043,1063,1084,1104,1124,1143,1163,1184,1205,1224,1244,1264,1285,1304,1324,1344,1365,1384,1404,1425,1444],"xSR":741.5,"ySR":469.95,"xT1":424.9,"yT1":0,"xT2":1058.1,"yT2":0,"toosoon":0,"cond_shown":"equaldotsize","ratio_trial":750,"smaller_num":"6","larger_num":"8","correct_side":1,"subjID":"juanpablogalindo15","gender":"0","age":"10","school":"4","test":{"fix_dur":[250,1500],"timestim":300,"targets_dim":[100,100],"targets_relative_coord":[0.3,0.7],"size_stim":[880,420],"start_dim":[100,100],"size_start":[300,300],"size_fix":60,"samplingrate":20,"img_types":["equaldotsize","equaldotanddens","randomdotsizeEA"],"ratios":[250,500,750,900],"rep_conds":9,"nTrials":120,"trials_to_rest":500,"Trials_order":[30,80,95,112,20,96,114,53,60,94,11,78,2,103,74,82,46,54,39,26,108,68,17,113,62,18,32,33,49,119,13,48,71,27,84,10,90,21,31,77,86,109,107,36,75,1,100,58,73,45,79,97,12,29,44,37,61,24,98,42,6,63,64,41,47,83,88,56,25,81,87,85,8,70,91,35,59,106,89,28,0,16,55,92,5,34,76,51,19,69,72,38,101,3,66,22,4,14,7,23,57,52,104,99,65,67,50,118,105,117,102,40,111,115,43,15,93,110,116,9],"cond_shown":["equaldotsize","randomdotsizeEA","randomdotsizeEA","equaldotanddens","randomdotsizeEA","equaldotsize","equaldotsize","randomdotsizeEA","equaldotsize","equaldotanddens","randomdotsizeEA","equaldotsize","randomdotsizeEA","equaldotanddens","randomdotsizeEA","equaldotanddens","equaldotanddens","equaldotsize","equaldotsize","randomdotsizeEA","equaldotsize","randomdotsizeEA","randomdotsizeEA","randomdotsizeEA","randomdotsizeEA","equaldotsize","randomdotsizeEA","equaldotsize","equaldotanddens","randomdotsizeEA","equaldotanddens","equaldotsize","randomdotsizeEA","equaldotsize","equaldotsize","equaldotanddens","equaldotsize","equaldotsize","equaldotanddens","randomdotsizeEA","randomdotsizeEA","equaldotanddens","randomdotsizeEA","equaldotsize","equaldotsize","equaldotanddens","equaldotanddens","equaldotanddens","equaldotanddens","equaldotsize","equaldotanddens","equaldotanddens","equaldotsize","randomdotsizeEA","randomdotsizeEA","equaldotanddens","equaldotanddens","equaldotsize","randomdotsizeEA","equaldotsize","equaldotsize","equaldotsize","equaldotanddens","randomdotsizeEA","randomdotsizeEA","randomdotsizeEA","equaldotanddens","randomdotsizeEA","equaldotanddens","equaldotsize","equaldotsize","equaldotanddens","randomdotsizeEA","equaldotanddens","equaldotanddens","randomdotsizeEA","randomdotsizeEA","equaldotanddens","randomdotsizeEA","equaldotanddens","equaldotsize","equaldotanddens","equaldotanddens","randomdotsizeEA","randomdotsizeEA","equaldotanddens","equaldotanddens","equaldotsize","equaldotanddens","equaldotsize","equaldotsize","randomdotsizeEA","randomdotsizeEA","equaldotsize","equaldotsize","equaldotanddens","equaldotanddens","randomdotsizeEA","equaldotanddens","randomdotsizeEA","equaldotsize","equaldotanddens","randomdotsizeEA","equaldotsize","randomdotsizeEA","equaldotanddens","randomdotsizeEA","equaldotanddens","equaldotsize","equaldotsize","equaldotsize","equaldotanddens","equaldotsize","equaldotanddens","equaldotanddens","equaldotsize","equaldotsize","randomdotsizeEA","randomdotsizeEA","equaldotsize"],"ratio_trial":[750,750,900,500,750,250,750,500,250,900,900,750,250,750,250,900,900,750,500,250,250,750,500,500,250,750,750,900,250,900,250,250,900,500,250,900,750,900,750,500,250,250,900,250,500,250,500,900,250,900,750,250,250,500,750,250,250,250,250,750,750,500,500,500,900,900,500,750,250,900,500,250,750,900,750,900,900,900,500,500,250,500,750,750,500,900,500,500,750,900,250,250,500,500,750,900,500,250,750,900,900,500,750,500,500,750,250,900,900,900,750,500,500,750,750,500,900,250,750,900],"smaller_num":["6","3","18","3","9","3","18","2","1","18","18","15","3","3","4","18","18","3","9","3","6","15","3","1","2","3","3","9","3","18","3","3","9","5","2","18","6","18","15","5","1","3","18","3","2","2","1","9","3","18","18","2","4","10","6","3","2","3","3","15","6","10","6","10","18","18","6","3","3","18","4","2","9","18","9","9","18","18","3","1","2","1","6","3","6","18","5","5","18","18","3","2","3","9","6","18","2","5","3","9","18","9","3","2","2","15","2","9","18","18","6","9","9","15","3","6","18","2","6","18"],"larger_num":["8","4","20","6","12","12","24","4","4","20","20","20","12","4","16","20","20","4","18","12","24","20","6","2","8","4","4","10","12","20","12","12","10","10","8","20","8","20","20","10","4","12","20","12","4","8","2","10","12","20","24","8","16","20","8","12","8","12","12","20","8","20","12","20","20","20","12","4","12","20","8","8","12","20","12","10","20","20","6","2","8","2","8","4","12","20","10","10","24","20","12","8","6","18","8","20","4","20","4","10","20","18","4","4","4","20","8","10","20","20","8","18","18","20","4","12","20","8","8","20"],"correct_side":[1,1,1,2,2,2,1,1,2,1,2,2,1,1,1,1,1,1,1,1,2,2,2,2,1,1,2,1,1,2,1,2,2,1,1,1,1,1,2,2,2,2,1,1,1,1,2,2,1,1,1,1,2,2,2,2,1,2,2,2,1,2,1,2,1,1,1,1,2,1,1,1,2,2,2,1,2,1,2,2,1,2,2,2,1,1,2,2,1,2,1,1,2,2,1,1,2,2,2,2,1,2,1,1,1,1,1,2,2,2,1,1,1,2,1,1,1,1,2,1],"img_shown":["img/750/equaldotsize/L/14_Ratio_750_L_8_R_6.png","img/750/randomdotsizeEA/L/10_Ratio_750_L_4_R_3.png","img/900/randomdotsizeEA/L/4_Ratio_900_L_20_R_18.png","img/500/equaldotanddens/R/2_Ratio_500_L_3_R_6.png","img/750/randomdotsizeEA/R/15_Ratio_750_L_9_R_12.png","img/250/equaldotsize/R/9_Ratio_250_L_3_R_12.png","img/750/equaldotsize/L/6_Ratio_750_L_24_R_18.png","img/500/randomdotsizeEA/L/5_Ratio_500_L_4_R_2.png","img/250/equaldotsize/R/8_Ratio_250_L_1_R_4.png","img/900/equaldotanddens/L/4_Ratio_900_L_20_R_18.png","img/900/randomdotsizeEA/R/13_Ratio_900_L_18_R_20.png","img/750/equaldotsize/R/5_Ratio_750_L_15_R_20.png","img/250/randomdotsizeEA/L/15_Ratio_250_L_12_R_3.png","img/750/equaldotanddens/L/10_Ratio_750_L_4_R_3.png","img/250/randomdotsizeEA/L/2_Ratio_250_L_16_R_4.png","img/900/equaldotanddens/L/10_Ratio_900_L_20_R_18.png","img/900/equaldotanddens/L/4_Ratio_900_L_20_R_18.png","img/750/equaldotsize/L/8_Ratio_750_L_4_R_3.png","img/500/equaldotsize/L/4_Ratio_500_L_18_R_9.png","img/250/randomdotsizeEA/L/14_Ratio_250_L_12_R_3.png","img/250/equaldotsize/R/6_Ratio_250_L_6_R_24.png","img/750/randomdotsizeEA/R/3_Ratio_750_L_15_R_20.png","img/500/randomdotsizeEA/R/2_Ratio_500_L_3_R_6.png","img/500/randomdotsizeEA/R/12_Ratio_500_L_1_R_2.png","img/250/randomdotsizeEA/L/1_Ratio_250_L_8_R_2.png","img/750/equaldotsize/L/9_Ratio_750_L_4_R_3.png","img/750/randomdotsizeEA/R/7_Ratio_750_L_3_R_4.png","img/900/equaldotsize/L/1_Ratio_900_L_10_R_9.png","img/250/equaldotanddens/L/15_Ratio_250_L_12_R_3.png","img/900/randomdotsizeEA/R/12_Ratio_900_L_18_R_20.png","img/250/equaldotanddens/L/14_Ratio_250_L_12_R_3.png","img/250/equaldotsize/R/9_Ratio_250_L_3_R_12.png","img/900/randomdotsizeEA/R/15_Ratio_900_L_9_R_10.png","img/500/equaldotsize/L/7_Ratio_500_L_10_R_5.png","img/250/equaldotsize/L/7_Ratio_250_L_8_R_2.png","img/900/equaldotanddens/L/8_Ratio_900_L_20_R_18.png","img/750/equaldotsize/L/14_Ratio_750_L_8_R_6.png","img/900/equaldotsize/L/4_Ratio_900_L_20_R_18.png","img/750/equaldotanddens/R/3_Ratio_750_L_15_R_20.png","img/500/randomdotsizeEA/R/14_Ratio_500_L_5_R_10.png","img/250/randomdotsizeEA/R/8_Ratio_250_L_1_R_4.png","img/250/equaldotanddens/R/9_Ratio_250_L_3_R_12.png","img/900/randomdotsizeEA/L/10_Ratio_900_L_20_R_18.png","img/250/equaldotsize/L/14_Ratio_250_L_12_R_3.png","img/500/equaldotsize/L/10_Ratio_500_L_4_R_2.png","img/250/equaldotanddens/L/1_Ratio_250_L_8_R_2.png","img/500/equaldotanddens/R/15_Ratio_500_L_1_R_2.png","img/900/equaldotanddens/R/15_Ratio_900_L_9_R_10.png","img/250/equaldotanddens/L/15_Ratio_250_L_12_R_3.png","img/900/equaldotsize/L/2_Ratio_900_L_20_R_18.png","img/750/equaldotanddens/L/6_Ratio_750_L_24_R_18.png","img/250/equaldotanddens/L/7_Ratio_250_L_8_R_2.png","img/250/equaldotsize/R/10_Ratio_250_L_4_R_16.png","img/500/randomdotsizeEA/R/3_Ratio_500_L_10_R_20.png","img/750/randomdotsizeEA/R/2_Ratio_750_L_6_R_8.png","img/250/equaldotanddens/R/9_Ratio_250_L_3_R_12.png","img/250/equaldotanddens/L/3_Ratio_250_L_8_R_2.png","img/250/equaldotsize/R/11_Ratio_250_L_3_R_12.png","img/250/randomdotsizeEA/R/9_Ratio_250_L_3_R_12.png","img/750/equaldotsize/R/3_Ratio_750_L_15_R_20.png","img/750/equaldotsize/L/13_Ratio_750_L_8_R_6.png","img/500/equaldotsize/R/3_Ratio_500_L_10_R_20.png","img/500/equaldotanddens/L/11_Ratio_500_L_12_R_6.png","img/500/randomdotsizeEA/R/3_Ratio_500_L_10_R_20.png","img/900/randomdotsizeEA/L/10_Ratio_900_L_20_R_18.png","img/900/randomdotsizeEA/L/4_Ratio_900_L_20_R_18.png","img/500/equaldotanddens/L/13_Ratio_500_L_12_R_6.png","img/750/randomdotsizeEA/L/10_Ratio_750_L_4_R_3.png","img/250/equaldotanddens/R/4_Ratio_250_L_3_R_12.png","img/900/equaldotsize/L/8_Ratio_900_L_20_R_18.png","img/500/equaldotsize/L/8_Ratio_500_L_8_R_4.png","img/250/equaldotanddens/L/3_Ratio_250_L_8_R_2.png","img/750/randomdotsizeEA/R/15_Ratio_750_L_9_R_12.png","img/900/equaldotanddens/R/12_Ratio_900_L_18_R_20.png","img/750/equaldotanddens/R/15_Ratio_750_L_9_R_12.png","img/900/randomdotsizeEA/L/1_Ratio_900_L_10_R_9.png","img/900/randomdotsizeEA/R/14_Ratio_900_L_18_R_20.png","img/900/equaldotanddens/L/2_Ratio_900_L_20_R_18.png","img/500/randomdotsizeEA/R/2_Ratio_500_L_3_R_6.png","img/500/equaldotanddens/R/15_Ratio_500_L_1_R_2.png","img/250/equaldotsize/L/7_Ratio_250_L_8_R_2.png","img/500/equaldotanddens/R/12_Ratio_500_L_1_R_2.png","img/750/equaldotanddens/R/2_Ratio_750_L_6_R_8.png","img/750/randomdotsizeEA/R/7_Ratio_750_L_3_R_4.png","img/500/randomdotsizeEA/L/11_Ratio_500_L_12_R_6.png","img/900/equaldotanddens/L/10_Ratio_900_L_20_R_18.png","img/500/equaldotanddens/R/14_Ratio_500_L_5_R_10.png","img/500/equaldotsize/R/14_Ratio_500_L_5_R_10.png","img/750/equaldotanddens/L/6_Ratio_750_L_24_R_18.png","img/900/equaldotsize/R/13_Ratio_900_L_18_R_20.png","img/250/equaldotsize/L/15_Ratio_250_L_12_R_3.png","img/250/randomdotsizeEA/L/1_Ratio_250_L_8_R_2.png","img/500/randomdotsizeEA/R/2_Ratio_500_L_3_R_6.png","img/500/equaldotsize/R/1_Ratio_500_L_9_R_18.png","img/750/equaldotsize/L/13_Ratio_750_L_8_R_6.png","img/900/equaldotanddens/L/2_Ratio_900_L_20_R_18.png","img/500/equaldotanddens/R/9_Ratio_500_L_2_R_4.png","img/250/randomdotsizeEA/R/12_Ratio_250_L_5_R_20.png","img/750/equaldotanddens/R/12_Ratio_750_L_3_R_4.png","img/900/randomdotsizeEA/R/3_Ratio_900_L_9_R_10.png","img/900/equaldotsize/L/10_Ratio_900_L_20_R_18.png","img/500/equaldotanddens/R/6_Ratio_500_L_9_R_18.png","img/750/randomdotsizeEA/L/8_Ratio_750_L_4_R_3.png","img/500/equaldotsize/L/10_Ratio_500_L_4_R_2.png","img/500/randomdotsizeEA/L/10_Ratio_500_L_4_R_2.png","img/750/equaldotanddens/L/1_Ratio_750_L_20_R_15.png","img/250/randomdotsizeEA/L/1_Ratio_250_L_8_R_2.png","img/900/equaldotanddens/R/15_Ratio_900_L_9_R_10.png","img/900/equaldotsize/R/11_Ratio_900_L_18_R_20.png","img/900/equaldotsize/R/14_Ratio_900_L_18_R_20.png","img/750/equaldotsize/L/13_Ratio_750_L_8_R_6.png","img/500/equaldotanddens/L/4_Ratio_500_L_18_R_9.png","img/500/equaldotsize/L/4_Ratio_500_L_18_R_9.png","img/750/equaldotanddens/R/4_Ratio_750_L_15_R_20.png","img/750/equaldotanddens/L/8_Ratio_750_L_4_R_3.png","img/500/equaldotsize/L/11_Ratio_500_L_12_R_6.png","img/900/equaldotsize/L/8_Ratio_900_L_20_R_18.png","img/250/randomdotsizeEA/L/1_Ratio_250_L_8_R_2.png","img/750/randomdotsizeEA/R/2_Ratio_750_L_6_R_8.png","img/900/equaldotsize/L/4_Ratio_900_L_20_R_18.png"],"Rat0":[["12_Ratio_0_L_9_R_0.png","13_Ratio_0_L_6_R_0.png","5_Ratio_0_L_2_R_0.png","6_Ratio_0_L_4_R_0.png","8_Ratio_0_L_6_R_0.png"],["1_Ratio_0_L_0_R_17.png","10_Ratio_0_L_0_R_22.png","11_Ratio_0_L_0_R_1.png","14_Ratio_0_L_0_R_24.png","15_Ratio_0_L_0_R_4.png","2_Ratio_0_L_0_R_5.png","3_Ratio_0_L_0_R_17.png","4_Ratio_0_L_0_R_7.png","7_Ratio_0_L_0_R_19.png","9_Ratio_0_L_0_R_15.png"]],"Rat250":[["1_Ratio_250_L_8_R_2.png","14_Ratio_250_L_12_R_3.png","15_Ratio_250_L_12_R_3.png","2_Ratio_250_L_16_R_4.png","3_Ratio_250_L_8_R_2.png","5_Ratio_250_L_24_R_6.png","7_Ratio_250_L_8_R_2.png"],["10_Ratio_250_L_4_R_16.png","11_Ratio_250_L_3_R_12.png","12_Ratio_250_L_5_R_20.png","13_Ratio_250_L_2_R_8.png","4_Ratio_250_L_3_R_12.png","6_Ratio_250_L_6_R_24.png","8_Ratio_250_L_1_R_4.png","9_Ratio_250_L_3_R_12.png"]],"Rat500":[["10_Ratio_500_L_4_R_2.png","11_Ratio_500_L_12_R_6.png","13_Ratio_500_L_12_R_6.png","4_Ratio_500_L_18_R_9.png","5_Ratio_500_L_4_R_2.png","7_Ratio_500_L_10_R_5.png","8_Ratio_500_L_8_R_4.png"],["1_Ratio_500_L_9_R_18.png","12_Ratio_500_L_1_R_2.png","14_Ratio_500_L_5_R_10.png","15_Ratio_500_L_1_R_2.png","2_Ratio_500_L_3_R_6.png","3_Ratio_500_L_10_R_20.png","6_Ratio_500_L_9_R_18.png","9_Ratio_500_L_2_R_4.png"]],"Rat750":[["1_Ratio_750_L_20_R_15.png","10_Ratio_750_L_4_R_3.png","13_Ratio_750_L_8_R_6.png","14_Ratio_750_L_8_R_6.png","6_Ratio_750_L_24_R_18.png","8_Ratio_750_L_4_R_3.png","9_Ratio_750_L_4_R_3.png"],["11_Ratio_750_L_12_R_16.png","12_Ratio_750_L_3_R_4.png","15_Ratio_750_L_9_R_12.png","2_Ratio_750_L_6_R_8.png","3_Ratio_750_L_15_R_20.png","4_Ratio_750_L_15_R_20.png","5_Ratio_750_L_15_R_20.png","7_Ratio_750_L_3_R_4.png"]],"Rat900":[["1_Ratio_900_L_10_R_9.png","10_Ratio_900_L_20_R_18.png","2_Ratio_900_L_20_R_18.png","4_Ratio_900_L_20_R_18.png","8_Ratio_900_L_20_R_18.png"],["11_Ratio_900_L_18_R_20.png","12_Ratio_900_L_18_R_20.png","13_Ratio_900_L_18_R_20.png","14_Ratio_900_L_18_R_20.png","15_Ratio_900_L_9_R_10.png","3_Ratio_900_L_9_R_10.png","5_Ratio_900_L_9_R_10.png","6_Ratio_900_L_9_R_10.png","7_Ratio_900_L_9_R_10.png","9_Ratio_900_L_18_R_20.png"]],"Rat1000":[["10_Ratio_1000_L_16_R_16.png","11_Ratio_1000_L_6_R_6.png","12_Ratio_1000_L_14_R_14.png","13_Ratio_1000_L_20_R_20.png","15_Ratio_1000_L_15_R_15.png","2_Ratio_1000_L_17_R_17.png","4_Ratio_1000_L_9_R_9.png","5_Ratio_1000_L_6_R_6.png","6_Ratio_1000_L_19_R_19.png","8_Ratio_1000_L_14_R_14.png","9_Ratio_1000_L_25_R_25.png"],["1_Ratio_1000_L_1_R_1.png","14_Ratio_1000_L_17_R_17.png","3_Ratio_1000_L_17_R_17.png","7_Ratio_1000_L_6_R_6.png"]]}},{"start_time":1552313704589,"click_time":1552313705603,"finger_time":1552313705303,"fix_duration":1325.5074683252399,"trial":1,"RT":714,"MT":300,"sideResp":2,"stimulus":"img/750/randomdotsizeEA/L/10_Ratio_750_L_4_R_3.png","xmouse":[769,769,769,769,769,769,769,769,769,769,769,769,769,769,769,769,769,769,769,769,769,769,769,769,769,769,769,769,769,769,769,769,769,772,783,803,818,872,932,957,971,989,1009,1024,1024,1024,1024,1027,1033,1041,1060],"ymouse":[498,498,498,498,498,498,498,498,498,498,498,498,498,498,498,498,498,498,498,498,498,498,498,498,498,498,498,498,498,498,498,498,498,496,486,456,430,312,172,110,88,71,64,59,59,59,59,57,55,55,57],"timestamp_mouse":[14,36,53,74,95,114,133,153,174,195,214,234,253,274,293,313,334,355,375,394,413,433,455,474,495,514,534,553,574,595,613,633,655,674,695,714,734,754,775,794,814,834,855,875,894,914,934,954,975,994,1013],"xSR":741.5,"ySR":469.95,"xT1":424.9,"yT1":0,"xT2":1058.1,"yT2":0,"toosoon":0,"cond_shown":"randomdotsizeEA","ratio_trial":750,"smaller_num":"3","larger_num":"4","correct_side":1,"subjID":"juanpablogalindo15","gender":"0","age":"10","school":"4"},{"start_time":1552313708559,"click_time":1552313709664,"finger_time":1552313709304,"fix_duration":592.3743261143303,"trial":2,"RT":745,"MT":360,"sideResp":1,"stimulus":"img/900/randomdotsizeEA/L/4_Ratio_900_L_20_R_18.png","xmouse":[776,776,776,776,776,776,776,776,776,776,776,776,776,776,776,776,776,776,776,776,776,776,776,776,776,776,776,776,776,776,776,776,776,776,776,775,762,737,682,621,570,534,527,524,521,520,520,520,520,520,520,514,504,494,485,479],"ymouse":[499,499,499,499,499,499,499,499,499,499,499,499,499,499,499,499,499,499,499,499,499,499,499,499,499,499,499,499,499,499,499,499,499,499,499,496,485,471,444,409,382,346,326,307,288,272,264,256,243,225,208,171,147,126,107,91],"timestamp_mouse":[13,39,44,63,84,104,125,144,164,185,205,225,243,263,284,304,324,344,364,385,405,425,444,464,484,504,523,544,565,585,605,623,643,663,685,705,723,745,765,784,804,823,844,863,883,904,923,944,964,984,1003,1024,1044,1063,1085,1105],"xSR":741.5,"ySR":469.95,"xT1":424.9,"yT1":0,"xT2":1058.1,"yT2":0,"toosoon":0,"cond_shown":"randomdotsizeEA","ratio_trial":900,"smaller_num":"18","larger_num":"20","correct_side":1,"subjID":"juanpablogalindo15","gender":"0","age":"10","school":"4"},{"start_time":1552313713142,"click_time":1552313714384,"finger_time":1552313713583,"fix_duration":1218.9047477875797,"trial":3,"RT":441,"MT":801,"sideResp":2,"stimulus":"img/500/equaldotanddens/R/2_Ratio_500_L_3_R_6.png","xmouse":[777,777,777,777,777,777,777,777,777,777,777,777,777,777,777,777,777,777,777,777,783,797,854,858,858,858,858,858,858,858,858,858,858,858,858,858,851,848,842,842,847,861,892,909,924,964,1012,1162,1205,1224,1227,1227,1227,1226,1226,1226,1226,1226,1226,1224,1220,1207,1155],"ymouse":[528,528,528,528,528,528,528,528,528,528,528,528,528,528,528,528,528,528,528,528,528,523,493,490,490,490,490,490,489,489,489,489,489,489,485,475,464,454,416,379,343,308,256,239,223,180,142,66,47,37,34,34,34,35,35,35,35,35,35,35,35,37,37],"timestamp_mouse":[14,27,41,61,82,101,120,141,162,181,200,221,240,262,280,301,321,341,362,381,400,421,441,460,481,501,520,542,560,581,602,620,641,660,681,700,720,742,760,781,800,821,842,860,881,901,921,941,960,980,1001,1021,1041,1061,1080,1101,1121,1141,1160,1180,1201,1221,1241],"xSR":741.5,"ySR":469.95,"xT1":424.9,"yT1":0,"xT2":1058.1,"yT2":0,"toosoon":0,"cond_shown":"equaldotanddens","ratio_trial":500,"smaller_num":"3","larger_num":"6","correct_side":2,"subjID":"juanpablogalindo15","gender":"0","age":"10","school":"4"},{"start_time":1552313718128,"click_time":1552313719003,"finger_time":1552313718863,"fix_duration":664.0765727834231,"trial":4,"RT":735,"MT":140,"sideResp":2,"stimulus":"img/750/randomdotsizeEA/R/15_Ratio_750_L_9_R_12.png","xmouse":[796,796,796,796,796,796,796,796,796,796,796,796,796,798,798,798,799,799,799,799,799,799,799,801,803,806,806,806,806,806,806,806,806,806,808,813,818,823,865,911,962,1007,1050,1060],"ymouse":[488,488,488,493,493,493,494,495,497,499,500,500,500,500,499,496,495,495,495,495,495,495,495,492,490,488,488,488,488,488,488,488,488,488,485,477,465,451,364,299,232,172,107,92],"timestamp_mouse":[15,43,55,75,94,115,134,156,175,194,214,236,255,275,296,315,334,354,376,394,415,435,456,475,495,515,535,555,576,596,614,634,655,676,695,715,735,755,775,795,815,836,855,874],"xSR":741.5,"ySR":469.95,"xT1":424.9,"yT1":0,"xT2":1058.1,"yT2":0,"toosoon":0,"cond_shown":"randomdotsizeEA","ratio_trial":750,"smaller_num":"9","larger_num":"12","correct_side":2,"subjID":"juanpablogalindo15","gender":"0","age":"10","school":"4"},{"start_time":1552313720574,"click_time":1552313721624,"finger_time":1552313721364,"fix_duration":250,"trial":5,"RT":790,"MT":260,"sideResp":2,"stimulus":"img/250/equaldotsize/R/9_Ratio_250_L_3_R_12.png","xmouse":[809,809,809,809,809,809,809,809,809,809,809,809,809,809,809,809,809,809,809,809,809,809,809,809,809,809,809,809,809,809,809,809,809,809,811,812,821,828,837,848,858,907,927,945,950,953,959,965,972,991,1027,1060,1108],"ymouse":[523,523,523,523,523,523,523,523,523,523,523,523,523,523,523,523,523,523,523,523,523,523,523,523,523,523,523,523,523,523,523,523,523,523,521,520,505,491,471,444,422,359,338,324,319,316,309,301,292,271,224,178,74],"timestamp_mouse":[20,38,49,68,89,110,128,148,170,189,210,229,249,269,288,309,329,349,368,390,409,429,448,468,489,510,529,550,570,589,609,628,650,670,690,710,729,748,770,790,810,829,848,869,889,910,930,948,968,989,1008,1029,1050],"xSR":741.5,"ySR":469.95,"xT1":424.9,"yT1":0,"xT2":1058.1,"yT2":0,"toosoon":0,"cond_shown":"equaldotsize","ratio_trial":250,"smaller_num":"3","larger_num":"12","correct_side":2,"subjID":"juanpablogalindo15","gender":"0","age":"10","school":"4"},{"start_time":1552313722832,"click_time":1552313723923,"finger_time":1552313723804,"fix_duration":308.71266268289486,"trial":6,"RT":972,"MT":119,"sideResp":1,"stimulus":"img/750/equaldotsize/L/6_Ratio_750_L_24_R_18.png","xmouse":[791,791,791,790,790,790,790,790,790,790,790,790,790,790,790,790,790,790,788,787,786,786,785,785,785,785,785,785,785,785,785,785,785,784,784,784,784,784,784,783,783,783,783,782,780,776,768,755,694,634,561,513,479,462,458],"ymouse":[531,529,529,527,526,526,526,526,526,526,526,526,526,526,526,526,526,526,524,520,518,516,515,515,515,515,515,515,515,515,515,515,513,508,507,506,505,505,505,504,502,501,500,498,492,487,481,472,420,353,271,203,156,121,83],"timestamp_mouse":[15,42,50,72,91,111,131,150,172,191,212,230,250,272,292,311,331,350,370,392,412,431,450,472,492,512,532,550,571,591,611,630,650,672,692,711,730,750,771,790,810,830,850,871,890,911,931,951,972,991,1010,1030,1051,1070,1091],"xSR":741.5,"ySR":469.95,"xT1":424.9,"yT1":0,"xT2":1058.1,"yT2":0,"toosoon":0,"cond_shown":"equaldotsize","ratio_trial":750,"smaller_num":"18","larger_num":"24","correct_side":1,"subjID":"juanpablogalindo15","gender":"0","age":"10","school":"4"},{"start_time":1552313726231,"click_time":1552313727624,"finger_time":1552313726964,"fix_duration":1085.428229914068,"trial":7,"RT":733,"MT":660,"sideResp":1,"stimulus":"img/500/randomdotsizeEA/L/5_Ratio_500_L_4_R_2.png","xmouse":[790,790,790,790,790,790,790,790,790,790,790,790,790,790,790,790,790,790,790,790,790,790,790,790,790,790,790,790,790,790,790,790,790,789,793,798,806,815,821,839,856,867,871,871,839,783,689,583,486,350,322,312,312,312,312,311,311,310,310,310,310,311,313,321,377,398,414,422,424,427],"ymouse":[506,506,506,506,506,506,506,506,506,506,506,506,506,506,506,506,506,506,506,506,506,506,506,506,506,506,506,506,506,506,506,506,506,502,491,479,464,447,432,398,363,329,302,277,232,211,183,152,124,76,62,56,56,56,56,55,50,48,46,45,45,45,45,45,45,45,45,45,46,47],"timestamp_mouse":[13,38,53,73,91,113,132,153,171,192,211,233,251,271,292,312,333,353,371,392,413,433,453,471,492,511,531,551,571,591,611,631,652,673,692,711,732,751,771,791,812,832,852,871,892,913,931,952,973,991,1012,1032,1052,1072,1092,1113,1133,1152,1172,1192,1212,1231,1251,1272,1292,1312,1331,1352,1373,1393],"xSR":741.5,"ySR":469.95,"xT1":424.9,"yT1":0,"xT2":1058.1,"yT2":0,"toosoon":0,"cond_shown":"randomdotsizeEA","ratio_trial":500,"smaller_num":"2","larger_num":"4","correct_side":1,"subjID":"juanpablogalindo15","gender":"0","age":"10","school":"4"},{"start_time":1552313728814,"click_time":1552313730402,"finger_time":1552313729623,"fix_duration":250,"trial":8,"RT":809,"MT":779,"sideResp":2,"stimulus":"img/250/equaldotsize/R/8_Ratio_250_L_1_R_4.png","xmouse":[774,774,774,775,775,775,776,776,776,776,776,776,776,776,776,776,776,776,776,776,776,776,776,776,776,776,776,776,776,776,776,776,776,776,776,777,780,784,790,799,829,846,875,897,932,983,1003,1017,1029,1038,1052,1055,1057,1057,1057,1057,1057,1057,1057,1057,1057,1057,1057,1057,1057,1052,1049,1046,1045,1045,1064,1080,1095,1108,1112,1112,1112,1112,1112,1114],"ymouse":[501,501,501,503,506,513,516,518,518,518,518,518,518,518,518,518,518,518,518,518,518,518,518,518,518,518,518,518,518,518,518,518,518,518,518,519,516,511,502,489,445,422,387,362,329,279,253,234,212,190,148,131,111,94,64,23,8,2,2,2,2,2,2,2,3,26,45,65,85,101,125,126,121,112,104,101,101,101,101,99],"timestamp_mouse":[10,43,49,69,89,109,129,150,170,189,209,230,250,270,290,309,328,349,370,389,410,429,448,469,489,509,529,549,569,589,609,630,649,670,689,708,729,750,769,788,809,829,850,869,890,909,928,948,968,989,1009,1028,1049,1070,1089,1109,1129,1148,1169,1190,1209,1229,1250,1270,1289,1310,1328,1349,1370,1390,1410,1428,1448,1470,1490,1510,1528,1549,1568,1588],"xSR":741.5,"ySR":469.95,"xT1":424.9,"yT1":0,"xT2":1058.1,"yT2":0,"toosoon":0,"cond_shown":"equaldotsize","ratio_trial":250,"smaller_num":"1","larger_num":"4","correct_side":2,"subjID":"juanpablogalindo15","gender":"0","age":"10","school":"4"},{"start_time":1552313733966,"click_time":1552313735124,"finger_time":1552313734602,"fix_duration":580.2672435634681,"trial":9,"RT":636,"MT":522,"sideResp":2,"stimulus":"img/900/equaldotanddens/L/4_Ratio_900_L_20_R_18.png","xmouse":[768,768,768,768,768,768,768,768,768,768,768,768,768,768,768,768,768,768,768,768,768,768,768,768,770,771,772,775,781,784,791,799,807,825,848,874,907,951,1045,1072,1092,1105,1120,1146,1155,1163,1167,1172,1180,1182,1182,1182,1182,1182,1182,1177,1168,1149],"ymouse":[505,505,503,503,503,503,503,503,503,503,503,503,503,503,503,503,503,501,499,499,499,499,499,497,496,495,494,492,486,482,474,464,456,442,428,411,389,356,290,269,252,234,211,156,135,113,95,79,49,39,32,29,28,28,28,28,28,30],"timestamp_mouse":[28,37,57,77,96,117,137,156,178,198,217,238,257,278,296,317,337,357,377,397,418,438,458,477,497,516,536,558,578,596,617,636,658,677,698,717,737,758,777,798,818,837,858,877,896,917,937,956,976,998,1017,1036,1058,1078,1097,1118,1137,1157],"xSR":741.5,"ySR":469.95,"xT1":424.9,"yT1":0,"xT2":1058.1,"yT2":0,"toosoon":0,"cond_shown":"equaldotanddens","ratio_trial":900,"smaller_num":"18","larger_num":"20","correct_side":1,"subjID":"juanpablogalindo15","gender":"0","age":"10","school":"4"},{"start_time":1552313737865,"click_time":1552313739344,"finger_time":1552313738483,"fix_duration":660.482138709249,"trial":10,"RT":618,"MT":861,"sideResp":2,"stimulus":"img/900/randomdotsizeEA/R/13_Ratio_900_L_18_R_20.png","xmouse":[810,810,810,810,810,810,810,810,810,810,810,810,810,810,810,810,810,810,810,810,810,810,810,810,810,810,810,810,804,794,776,752,731,702,693,686,680,663,624,606,589,576,569,564,564,564,564,564,570,621,703,789,874,981,993,1000,1009,1040,1177,1256,1311,1339,1348,1348,1348,1348,1348,1335,1296,1262,1226,1196,1169,1149],"ymouse":[515,515,515,515,515,515,515,515,515,515,515,515,515,515,515,515,515,515,515,515,515,515,515,515,515,515,515,515,499,477,452,422,405,382,373,361,346,319,269,244,225,210,201,192,192,192,192,192,194,223,267,305,333,344,340,333,319,282,212,184,166,153,147,146,146,145,141,127,103,88,74,66,59,55],"timestamp_mouse":[18,44,58,77,98,118,138,159,177,197,218,237,259,279,299,319,337,359,379,399,419,437,457,478,499,519,539,558,578,598,618,639,658,679,697,717,738,757,778,798,818,837,857,878,898,917,937,958,978,998,1018,1038,1058,1078,1097,1118,1138,1159,1178,1197,1218,1238,1258,1278,1298,1317,1338,1358,1379,1397,1419,1439,1459,1479],"xSR":741.5,"ySR":469.95,"xT1":424.9,"yT1":0,"xT2":1058.1,"yT2":0,"toosoon":0,"cond_shown":"randomdotsizeEA","ratio_trial":900,"smaller_num":"18","larger_num":"20","correct_side":2,"subjID":"juanpablogalindo15","gender":"0","age":"10","school":"4"},{"start_time":1552313741688,"click_time":1552313742623,"finger_time":1552313742463,"fix_duration":1243.8150252920789,"trial":11,"RT":775,"MT":160,"sideResp":2,"stimulus":"img/750/equaldotsize/R/5_Ratio_750_L_15_R_20.png","xmouse":[780,780,780,780,780,780,780,780,780,780,780,780,780,780,780,780,780,780,780,780,780,780,780,780,780,780,780,780,780,780,780,780,780,780,780,780,783,790,826,867,915,952,990,1048,1075,1081,1083],"ymouse":[520,520,520,520,520,520,520,520,520,520,520,520,520,520,520,520,520,520,520,520,520,520,520,520,520,520,520,520,520,520,520,520,520,520,520,520,517,508,456,410,360,319,272,189,135,113,96],"timestamp_mouse":[14,38,55,75,96,114,135,156,176,196,215,235,256,276,296,316,334,355,374,394,415,436,454,476,495,514,535,556,575,595,615,634,655,675,695,716,735,755,775,794,814,835,855,875,895,915,935],"xSR":741.5,"ySR":469.95,"xT1":424.9,"yT1":0,"xT2":1058.1,"yT2":0,"toosoon":0,"cond_shown":"equaldotsize","ratio_trial":750,"smaller_num":"15","larger_num":"20","correct_side":2,"subjID":"juanpablogalindo15","gender":"0","age":"10","school":"4"},{"start_time":1552313747820,"click_time":1552313748782,"finger_time":1552313748662,"fix_duration":836.5434172096856,"trial":12,"RT":842,"MT":120,"sideResp":1,"stimulus":"img/250/randomdotsizeEA/L/15_Ratio_250_L_12_R_3.png","xmouse":[770,770,770,770,770,770,770,770,770,770,770,770,770,770,770,770,770,770,770,770,770,770,770,770,770,770,770,770,770,770,770,770,770,770,770,770,770,770,770,770,770,770,757,733,692,629,584,523,504],"ymouse":[501,501,501,501,501,501,501,501,501,501,501,501,501,501,501,501,501,501,501,501,501,501,501,501,501,501,501,501,501,501,501,501,501,501,501,501,501,501,501,501,500,498,469,430,370,283,222,116,75],"timestamp_mouse":[10,24,49,62,83,103,122,143,163,183,203,223,242,263,283,302,322,344,362,382,403,422,444,462,483,503,523,542,562,582,602,623,642,664,683,702,723,742,763,783,803,823,842,862,882,902,922,944,962],"xSR":741.5,"ySR":469.95,"xT1":424.9,"yT1":0,"xT2":1058.1,"yT2":0,"toosoon":0,"cond_shown":"randomdotsizeEA","ratio_trial":250,"smaller_num":"3","larger_num":"12","correct_side":1,"subjID":"juanpablogalindo15","gender":"0","age":"10","school":"4"},{"start_time":1552313751213,"click_time":1552313752342,"finger_time":1552313752082,"fix_duration":250,"trial":13,"RT":869,"MT":260,"sideResp":1,"stimulus":"img/750/equaldotanddens/L/10_Ratio_750_L_4_R_3.png","xmouse":[800,800,799,799,799,799,799,799,799,799,799,799,799,799,799,799,797,797,797,797,797,797,797,797,797,797,797,797,797,797,797,797,797,797,797,797,797,797,797,797,794,792,787,760,730,694,645,600,557,548,543,540,536,529,523,515,513],"ymouse":[490,490,491,491,491,491,491,491,491,491,491,491,491,491,491,491,491,491,491,491,491,491,491,491,491,491,491,491,491,491,491,491,491,491,491,491,491,491,491,491,490,486,479,448,418,390,356,322,278,261,241,221,206,161,133,107,87],"timestamp_mouse":[18,44,50,70,89,109,130,149,170,190,210,229,250,270,289,309,329,350,369,389,410,429,450,470,490,509,530,550,570,589,610,629,650,670,689,710,730,750,769,789,810,830,850,869,889,909,929,950,970,989,1009,1029,1050,1069,1090,1109,1129],"xSR":741.5,"ySR":469.95,"xT1":424.9,"yT1":0,"xT2":1058.1,"yT2":0,"toosoon":0,"cond_shown":"equaldotanddens","ratio_trial":750,"smaller_num":"3","larger_num":"4","correct_side":1,"subjID":"juanpablogalindo15","gender":"0","age":"10","school":"4"},{"start_time":1552313755036,"click_time":1552313756083,"finger_time":1552313755783,"fix_duration":371.1271602736159,"trial":14,"RT":747,"MT":300,"sideResp":1,"stimulus":"img/250/randomdotsizeEA/L/2_Ratio_250_L_16_R_4.png","xmouse":[777,777,777,777,777,777,777,777,777,777,777,777,777,777,777,777,777,777,777,777,777,777,777,777,777,777,777,777,777,777,777,777,777,777,777,772,760,706,666,626,573,548,529,527,526,524,520,513,512,509,509,507,504],"ymouse":[502,502,502,502,502,502,502,502,502,502,502,502,502,502,502,502,502,502,502,502,502,502,502,502,502,502,502,502,502,502,502,502,502,502,499,492,471,382,332,284,207,167,140,137,135,133,130,124,123,116,113,104,93],"timestamp_mouse":[11,27,46,67,87,107,126,147,167,186,206,227,248,267,287,306,326,347,367,386,407,426,446,467,486,507,527,546,566,586,607,627,646,666,687,706,727,747,766,786,807,826,846,866,886,907,927,946,965,987,1007,1026,1047],"xSR":741.5,"ySR":469.95,"xT1":424.9,"yT1":0,"xT2":1058.1,"yT2":0,"toosoon":0,"cond_shown":"randomdotsizeEA","ratio_trial":250,"smaller_num":"4","larger_num":"16","correct_side":1,"subjID":"juanpablogalindo15","gender":"0","age":"10","school":"4"},{"start_time":1552313757626,"click_time":1552313758902,"finger_time":1552313758542,"fix_duration":542.9944574093594,"trial":15,"RT":916,"MT":360,"sideResp":2,"stimulus":"img/900/equaldotanddens/L/10_Ratio_900_L_20_R_18.png","xmouse":[770,770,770,770,770,770,770,770,770,770,770,770,770,770,770,770,770,770,770,770,770,770,770,770,770,770,770,770,770,770,770,770,770,770,770,770,770,770,770,770,770,770,772,788,806,835,885,985,1009,1022,1025,1025,1025,1025,1025,1025,1026,1030,1039,1043,1046,1051,1070,1081],"ymouse":[542,543,543,543,543,543,543,543,543,543,543,543,543,543,543,543,543,543,543,543,543,543,543,543,543,543,543,543,543,543,543,543,543,543,543,543,543,543,543,543,543,543,543,527,507,469,398,251,202,182,177,177,177,177,177,177,175,167,156,149,141,132,103,87],"timestamp_mouse":[17,36,57,76,96,116,136,156,177,196,216,237,257,277,296,316,337,357,376,396,417,437,456,476,497,517,537,557,577,596,616,638,657,676,696,716,737,757,776,797,817,837,856,877,897,916,936,958,976,996,1018,1036,1057,1077,1097,1117,1137,1156,1177,1196,1216,1236,1257,1276],"xSR":741.5,"ySR":469.95,"xT1":424.9,"yT1":0,"xT2":1058.1,"yT2":0,"toosoon":0,"cond_shown":"equaldotanddens","ratio_trial":900,"smaller_num":"18","larger_num":"20","correct_side":1,"subjID":"juanpablogalindo15","gender":"0","age":"10","school":"4"},{"start_time":1552313760659,"click_time":1552313761642,"finger_time":1552313761402,"fix_duration":1035.4513809727393,"trial":16,"RT":743,"MT":240,"sideResp":2,"stimulus":"img/900/equaldotanddens/L/4_Ratio_900_L_20_R_18.png","xmouse":[785,785,785,785,785,785,785,785,785,785,785,785,785,785,785,785,785,785,785,785,785,785,785,785,785,785,785,785,785,785,785,785,785,786,790,799,814,908,973,1020,1057,1081,1105,1110,1115,1117,1118,1118,1118,1118],"ymouse":[512,511,511,511,511,511,511,511,511,511,511,511,511,511,511,511,511,511,511,511,511,511,511,511,511,511,511,511,511,511,511,511,511,509,507,504,495,422,369,322,276,243,201,187,170,152,131,110,103,96],"timestamp_mouse":[3,23,44,64,83,103,123,143,163,183,203,222,242,262,282,303,323,344,364,384,404,423,443,464,484,503,523,544,563,583,603,624,644,664,683,703,723,743,763,783,803,823,843,863,883,904,923,943,963,983],"xSR":741.5,"ySR":469.95,"xT1":424.9,"yT1":0,"xT2":1058.1,"yT2":0,"toosoon":0,"cond_shown":"equaldotanddens","ratio_trial":900,"smaller_num":"18","larger_num":"20","correct_side":1,"subjID":"juanpablogalindo15","gender":"0","age":"10","school":"4"},{"start_time":1552313763769,"click_time":1552313764922,"finger_time":1552313764583,"fix_duration":1204.2632337701627,"trial":17,"RT":814,"MT":339,"sideResp":1,"stimulus":"img/750/equaldotsize/L/8_Ratio_750_L_4_R_3.png","xmouse":[791,791,791,791,791,791,791,791,791,791,791,791,791,791,791,791,791,791,791,791,791,791,791,791,791,791,791,791,791,791,791,791,791,791,791,791,791,789,784,778,751,652,591,539,506,491,488,487,479,475,467,459,457,457,460,461,463,465],"ymouse":[500,500,500,500,500,500,500,500,500,500,500,500,500,500,500,500,500,500,500,500,500,500,500,500,500,500,500,500,500,500,500,500,500,500,500,500,500,497,489,479,439,345,298,261,240,228,220,215,198,192,178,160,136,124,115,110,100,91],"timestamp_mouse":[14,36,53,74,93,113,133,154,174,194,213,233,253,274,293,314,333,354,374,393,414,434,454,473,494,513,533,553,573,594,614,633,654,673,694,714,733,754,773,794,814,834,853,874,894,914,934,953,974,994,1014,1034,1053,1073,1093,1113,1134,1153],"xSR":741.5,"ySR":469.95,"xT1":424.9,"yT1":0,"xT2":1058.1,"yT2":0,"toosoon":0,"cond_shown":"equaldotsize","ratio_trial":750,"smaller_num":"3","larger_num":"4","correct_side":1,"subjID":"juanpablogalindo15","gender":"0","age":"10","school":"4"},{"start_time":1552313778621,"click_time":1552313779442,"finger_time":1552313779363,"fix_duration":1437.4683498115978,"trial":18,"RT":742,"MT":79,"sideResp":1,"stimulus":"img/500/equaldotsize/L/4_Ratio_500_L_18_R_9.png","xmouse":[811,811,811,811,811,811,811,811,811,811,811,811,811,811,811,811,811,811,811,811,811,811,811,811,811,811,811,811,811,811,811,811,811,811,811,811,800,775,737,682,626,518],"ymouse":[529,529,529,529,529,529,529,529,529,529,529,529,529,529,529,529,529,529,529,529,529,529,529,529,529,529,529,529,529,529,529,529,529,529,529,528,497,452,388,312,233,64],"timestamp_mouse":[8,28,42,61,81,101,121,141,161,181,201,221,241,262,281,301,322,341,361,381,401,421,441,462,481,502,522,542,561,582,601,621,641,662,682,702,721,742,761,781,801,821],"xSR":741.5,"ySR":469.95,"xT1":424.9,"yT1":0,"xT2":1058.1,"yT2":0,"toosoon":0,"cond_shown":"equaldotsize","ratio_trial":500,"smaller_num":"9","larger_num":"18","correct_side":1,"subjID":"juanpablogalindo15","gender":"0","age":"10","school":"4"},{"start_time":1552313786098,"click_time":1552313787622,"finger_time":1552313786962,"fix_duration":1154.0273093263,"trial":19,"RT":864,"MT":660,"sideResp":1,"stimulus":"img/250/randomdotsizeEA/L/14_Ratio_250_L_12_R_3.png","xmouse":[763,763,763,763,763,763,763,763,763,763,763,763,763,763,764,764,764,764,764,764,764,764,764,764,764,764,764,764,764,764,764,764,764,764,764,764,764,764,764,764,764,766,769,783,793,805,815,820,823,823,823,823,823,803,755,679,588,510,456,455,455,455,455,455,457,462,472,482,487,487,487,488,488,488,488,488,488],"ymouse":[507,507,507,507,507,507,507,507,507,507,507,507,507,507,506,506,506,506,506,506,506,506,506,506,506,506,506,506,506,506,506,506,506,506,506,506,506,506,506,506,503,500,492,464,447,428,411,403,394,392,391,391,391,376,348,307,253,210,165,155,144,141,139,135,135,135,135,135,135,135,135,134,128,119,114,107,94],"timestamp_mouse":[20,37,46,65,84,104,124,144,165,184,204,224,244,264,284,305,324,344,364,384,405,424,444,465,484,504,524,544,565,585,604,624,645,664,685,704,724,744,765,784,805,825,844,864,885,904,924,945,964,985,1004,1025,1044,1064,1085,1105,1125,1144,1164,1184,1205,1225,1245,1264,1284,1304,1324,1344,1364,1384,1405,1424,1444,1464,1484,1505,1524],"xSR":741.5,"ySR":469.95,"xT1":424.9,"yT1":0,"xT2":1058.1,"yT2":0,"toosoon":0,"cond_shown":"randomdotsizeEA","ratio_trial":250,"smaller_num":"3","larger_num":"12","correct_side":1,"subjID":"juanpablogalindo15","gender":"0","age":"10","school":"4"},{"start_time":1552313790004,"click_time":1552313790662,"finger_time":1552313790602,"fix_duration":1239.3099119173974,"trial":20,"RT":598,"MT":60,"sideResp":2,"stimulus":"img/250/equaldotsize/R/6_Ratio_250_L_6_R_24.png","xmouse":[749,749,749,749,749,749,749,749,749,749,749,749,749,749,749,749,749,749,749,751,760,769,775,782,782,782,782,782,798,836,894,955,1024,1156],"ymouse":[544,544,544,544,544,544,544,545,545,545,545,545,546,549,554,556,556,556,556,555,545,534,525,513,513,513,513,513,503,475,419,344,247,17],"timestamp_mouse":[1,18,39,59,78,98,118,139,159,178,199,219,238,258,279,299,319,339,359,379,399,419,439,458,478,499,519,538,559,579,598,618,638,658],"xSR":741.5,"ySR":469.95,"xT1":424.9,"yT1":0,"xT2":1058.1,"yT2":0,"toosoon":0,"cond_shown":"equaldotsize","ratio_trial":250,"smaller_num":"6","larger_num":"24","correct_side":2,"subjID":"juanpablogalindo15","gender":"0","age":"10","school":"4"},{"start_time":1552313793597,"click_time":1552313794843,"finger_time":1552313794382,"fix_duration":312.22141874114163,"trial":21,"RT":785,"MT":461,"sideResp":2,"stimulus":"img/750/randomdotsizeEA/R/3_Ratio_750_L_15_R_20.png","xmouse":[768,768,768,768,768,768,768,768,768,768,768,768,768,768,768,768,769,769,769,769,769,769,769,769,769,769,769,769,769,769,769,769,769,770,773,779,783,791,807,845,861,874,886,901,943,980,1005,1020,1022,1026,1032,1043,1056,1070,1094,1096,1097,1097,1095,1091,1091,1093,1099],"ymouse":[516,516,516,516,516,516,516,516,516,516,516,516,516,516,516,516,515,513,512,512,512,512,512,512,512,512,512,512,512,512,512,512,512,511,507,502,500,497,491,466,446,414,380,342,280,265,262,260,259,257,254,249,245,239,223,214,198,177,159,131,119,105,89],"timestamp_mouse":[13,29,46,66,85,105,125,146,165,186,205,227,246,265,285,306,326,346,366,386,406,426,445,466,486,506,525,545,566,586,606,626,646,666,685,706,726,746,765,785,805,826,846,865,885,906,926,945,966,986,1006,1026,1045,1066,1086,1105,1125,1145,1166,1185,1205,1226,1246],"xSR":741.5,"ySR":469.95,"xT1":424.9,"yT1":0,"xT2":1058.1,"yT2":0,"toosoon":0,"cond_shown":"randomdotsizeEA","ratio_trial":750,"smaller_num":"15","larger_num":"20","correct_side":2,"subjID":"juanpablogalindo15","gender":"0","age":"10","school":"4"},{"start_time":1552313799107,"click_time":1552313800322,"finger_time":1552313799882,"fix_duration":903.8217855507694,"trial":22,"RT":775,"MT":440,"sideResp":2,"stimulus":"img/500/randomdotsizeEA/R/2_Ratio_500_L_3_R_6.png","xmouse":[793,793,793,793,793,793,793,793,793,793,793,793,793,793,793,793,793,793,793,793,793,793,793,793,793,793,793,793,793,793,793,793,793,793,793,793,792,786,759,728,686,635,594,569,569,570,601,664,833,903,952,973,979,979,981,985,997,1014,1048,1058,1063],"ymouse":[524,524,524,524,524,524,524,524,524,524,524,524,524,524,524,524,524,524,524,524,524,524,524,524,524,524,524,524,524,524,524,524,524,523,520,515,508,488,414,339,257,186,131,100,99,97,94,84,60,52,52,52,52,52,51,49,49,49,45,44,44],"timestamp_mouse":[15,41,56,75,95,116,135,155,175,195,215,235,256,275,296,315,336,356,375,396,415,436,455,475,496,515,536,556,575,596,616,636,655,676,696,715,735,756,775,795,816,835,856,877,895,915,935,956,976,995,1016,1035,1055,1076,1095,1115,1135,1156,1176,1195,1215],"xSR":741.5,"ySR":469.95,"xT1":424.9,"yT1":0,"xT2":1058.1,"yT2":0,"toosoon":0,"cond_shown":"randomdotsizeEA","ratio_trial":500,"smaller_num":"3","larger_num":"6","correct_side":2,"subjID":"juanpablogalindo15","gender":"0","age":"10","school":"4"},{"start_time":1552313804165,"click_time":1552313804961,"finger_time":1552313804881,"fix_duration":1321.468105196696,"trial":23,"RT":716,"MT":80,"sideResp":2,"stimulus":"img/500/randomdotsizeEA/R/12_Ratio_500_L_1_R_2.png","xmouse":[793,793,793,793,793,793,793,793,792,792,792,792,792,792,792,792,792,792,792,793,793,794,795,795,796,796,796,796,796,797,798,801,804,808,814,824,905,978,1046,1074],"ymouse":[513,513,513,513,513,513,513,513,513,513,513,513,512,511,511,511,509,509,509,508,507,506,506,506,505,505,505,505,505,504,503,499,495,486,474,454,315,190,67,19],"timestamp_mouse":[16,37,56,77,97,116,137,156,177,196,217,236,257,276,297,317,336,357,377,397,417,436,456,476,497,517,536,556,577,596,618,636,656,676,696,716,736,756,777,796],"xSR":741.5,"ySR":469.95,"xT1":424.9,"yT1":0,"xT2":1058.1,"yT2":0,"toosoon":0,"cond_shown":"randomdotsizeEA","ratio_trial":500,"smaller_num":"1","larger_num":"2","correct_side":2,"subjID":"juanpablogalindo15","gender":"0","age":"10","school":"4"},{"start_time":1552313806753,"click_time":1552313807882,"finger_time":1552313807501,"fix_duration":250,"trial":24,"RT":748,"MT":381,"sideResp":1,"stimulus":"img/250/randomdotsizeEA/L/1_Ratio_250_L_8_R_2.png","xmouse":[786,786,786,786,786,786,786,786,786,786,786,786,786,786,786,786,786,786,786,786,790,795,800,801,803,803,803,803,803,803,803,803,803,803,803,800,794,771,749,720,690,643,623,605,603,603,603,602,600,599,599,596,578,562,544,527,515],"ymouse":[538,538,538,538,538,538,538,540,542,542,542,542,542,542,542,542,542,542,542,542,538,535,531,530,529,529,529,529,529,529,529,529,529,527,523,515,502,452,391,319,239,132,86,46,40,39,37,33,30,28,28,27,29,39,49,54,55],"timestamp_mouse":[8,37,48,68,88,109,127,148,169,189,209,229,248,269,287,308,329,349,368,388,408,429,448,469,488,508,529,549,569,588,608,628,648,669,688,708,729,748,768,788,808,828,848,869,889,909,928,949,968,989,1008,1029,1048,1068,1089,1108,1129],"xSR":741.5,"ySR":469.95,"xT1":424.9,"yT1":0,"xT2":1058.1,"yT2":0,"toosoon":0,"cond_shown":"randomdotsizeEA","ratio_trial":250,"smaller_num":"2","larger_num":"8","correct_side":1,"subjID":"juanpablogalindo15","gender":"0","age":"10","school":"4"},{"start_time":1552313813434,"click_time":1552313814421,"finger_time":1552313814062,"fix_duration":690.0658819713324,"trial":25,"RT":628,"MT":359,"sideResp":1,"stimulus":"img/750/equaldotsize/L/9_Ratio_750_L_4_R_3.png","xmouse":[786,785,785,785,785,785,785,785,785,785,785,785,785,785,785,785,785,785,785,785,785,785,785,784,782,779,776,775,774,774,772,767,754,724,620,597,587,583,582,579,577,574,572,572,567,564,559,550,537,505],"ymouse":[489,489,489,489,489,489,489,489,489,489,489,489,489,489,489,489,489,489,489,489,489,489,489,489,485,482,480,478,478,478,476,459,418,345,188,155,136,126,120,112,108,103,99,97,92,90,88,83,78,66],"timestamp_mouse":[13,38,47,68,87,107,128,148,167,188,208,228,247,267,288,308,328,347,368,388,407,428,446,467,487,507,527,547,567,587,607,628,647,667,687,707,727,747,768,787,808,827,848,869,888,907,926,948,966,987],"xSR":741.5,"ySR":469.95,"xT1":424.9,"yT1":0,"xT2":1058.1,"yT2":0,"toosoon":0,"cond_shown":"equaldotsize","ratio_trial":750,"smaller_num":"3","larger_num":"4","correct_side":1,"subjID":"juanpablogalindo15","gender":"0","age":"10","school":"4"},{"start_time":1552313815649,"click_time":1552313816661,"finger_time":1552313816421,"fix_duration":445.0169056259947,"trial":26,"RT":772,"MT":240,"sideResp":1,"stimulus":"img/750/randomdotsizeEA/R/7_Ratio_750_L_3_R_4.png","xmouse":[788,788,788,787,787,787,787,787,787,787,787,787,787,787,787,787,787,787,787,787,787,787,787,787,787,789,789,792,798,798,798,798,798,794,789,785,778,772,748,726,693,622,568,467,442,432,429,429,434,436,441],"ymouse":[516,516,516,515,515,515,515,515,515,515,515,515,515,515,515,515,515,515,515,515,515,515,515,515,515,512,511,511,509,509,509,509,509,504,500,497,491,486,464,447,423,364,315,232,210,196,186,173,127,117,97],"timestamp_mouse":[13,39,53,73,92,113,133,152,173,192,212,231,253,273,292,312,333,353,373,393,412,433,453,473,493,512,532,551,572,593,612,633,653,672,693,713,732,752,772,792,813,832,852,872,892,912,933,953,981,992,1012],"xSR":741.5,"ySR":469.95,"xT1":424.9,"yT1":0,"xT2":1058.1,"yT2":0,"toosoon":0,"cond_shown":"randomdotsizeEA","ratio_trial":750,"smaller_num":"3","larger_num":"4","correct_side":2,"subjID":"juanpablogalindo15","gender":"0","age":"10","school":"4"},{"start_time":1552313820357,"click_time":1552313821361,"finger_time":1552313821021,"fix_duration":1313.8027916448298,"trial":27,"RT":664,"MT":340,"sideResp":2,"stimulus":"img/900/equaldotsize/L/1_Ratio_900_L_10_R_9.png","xmouse":[806,806,806,806,806,806,806,806,806,806,806,806,806,806,806,806,806,806,806,806,806,806,806,806,806,806,806,806,806,806,806,810,815,850,947,998,1032,1043,1043,1043,1043,1043,1043,1043,1043,1043,1043,1043,1043,1043,1102],"ymouse":[504,504,504,504,504,504,504,504,504,504,504,504,504,504,504,504,504,504,504,504,504,504,504,504,504,504,504,504,504,504,504,498,489,424,216,110,32,1,1,1,1,1,1,1,1,1,1,1,1,1,8],"timestamp_mouse":[13,34,44,64,84,104,123,144,165,185,205,224,245,264,285,304,325,345,364,385,404,425,445,465,484,505,524,545,564,584,604,624,645,664,683,704,724,744,764,784,804,824,845,864,884,903,923,944,964,984,1004],"xSR":741.5,"ySR":469.95,"xT1":424.9,"yT1":0,"xT2":1058.1,"yT2":0,"toosoon":0,"cond_shown":"equaldotsize","ratio_trial":900,"smaller_num":"9","larger_num":"10","correct_side":1,"subjID":"juanpablogalindo15","gender":"0","age":"10","school":"4"},{"start_time":1552313824095,"click_time":1552313824961,"finger_time":1552313824582,"fix_duration":1312.9336397111933,"trial":28,"RT":487,"MT":379,"sideResp":1,"stimulus":"img/250/equaldotanddens/L/15_Ratio_250_L_12_R_3.png","xmouse":[803,803,803,803,803,803,803,803,803,803,803,803,803,803,803,803,803,803,803,803,803,803,800,790,772,753,721,683,668,652,635,619,600,596,596,596,597,602,602,600,590,578,527,495],"ymouse":[492,492,492,492,492,492,492,492,492,492,492,492,492,492,492,492,492,492,492,492,492,492,486,472,450,431,403,367,348,325,304,288,257,241,226,212,197,154,138,119,104,93,58,39],"timestamp_mouse":[12,36,46,67,85,106,127,147,167,186,206,226,246,267,286,307,327,347,366,386,406,426,446,466,487,506,526,546,565,587,605,627,647,666,686,707,726,747,767,787,806,827,846,865],"xSR":741.5,"ySR":469.95,"xT1":424.9,"yT1":0,"xT2":1058.1,"yT2":0,"toosoon":0,"cond_shown":"equaldotanddens","ratio_trial":250,"smaller_num":"3","larger_num":"12","correct_side":1,"subjID":"juanpablogalindo15","gender":"0","age":"10","school":"4"},{"start_time":1552313830316,"click_time":1552313831382,"finger_time":1552313831182,"fix_duration":354.0163738561256,"trial":29,"RT":866,"MT":200,"sideResp":2,"stimulus":"img/900/randomdotsizeEA/R/12_Ratio_900_L_18_R_20.png","xmouse":[775,775,775,775,775,775,775,775,775,775,775,775,775,775,775,775,775,775,775,775,775,775,775,775,775,775,775,775,775,775,775,775,775,775,775,775,775,775,775,776,779,785,812,833,872,917,953,1006,1025,1040,1049,1056,1067,1073],"ymouse":[520,520,520,520,520,520,520,520,520,520,520,520,520,520,520,520,520,520,520,520,520,520,520,520,520,520,520,520,520,520,520,520,520,520,520,520,520,520,520,520,519,518,482,431,352,265,199,142,128,120,115,111,103,98],"timestamp_mouse":[15,26,45,66,86,106,125,145,166,186,205,225,245,265,286,305,326,345,366,386,405,425,446,466,486,506,525,545,566,585,606,625,646,665,685,706,725,745,766,784,806,824,845,866,885,905,925,946,965,985,1005,1025,1045,1066],"xSR":741.5,"ySR":469.95,"xT1":424.9,"yT1":0,"xT2":1058.1,"yT2":0,"toosoon":0,"cond_shown":"randomdotsizeEA","ratio_trial":900,"smaller_num":"18","larger_num":"20","correct_side":2,"subjID":"juanpablogalindo15","gender":"0","age":"10","school":"4"},{"start_time":1552313832984,"click_time":1552313833962,"finger_time":1552313833661,"fix_duration":341.8144377109201,"trial":30,"RT":677,"MT":301,"sideResp":1,"stimulus":"img/250/equaldotanddens/L/14_Ratio_250_L_12_R_3.png","xmouse":[781,781,781,781,781,781,781,781,781,781,781,781,781,781,781,781,781,782,782,782,782,782,782,782,782,782,782,782,782,782,782,780,775,734,680,621,557,493,468,467,468,473,476,480,483,487,490,503,518],"ymouse":[499,499,499,499,499,499,499,499,499,499,500,500,500,500,500,500,500,500,500,500,500,500,500,500,500,500,500,500,500,500,500,495,488,429,362,302,246,191,166,160,153,145,140,134,130,121,118,102,84],"timestamp_mouse":[22,41,57,78,97,117,137,158,177,197,218,238,258,278,298,318,337,357,378,398,417,437,456,478,497,518,538,558,577,598,617,638,656,677,697,717,738,757,778,798,818,837,858,877,897,917,937,958,978],"xSR":741.5,"ySR":469.95,"xT1":424.9,"yT1":0,"xT2":1058.1,"yT2":0,"toosoon":0,"cond_shown":"equaldotanddens","ratio_trial":250,"smaller_num":"3","larger_num":"12","correct_side":1,"subjID":"juanpablogalindo15","gender":"0","age":"10","school":"4"},{"start_time":1552313835376,"click_time":1552313836081,"finger_time":1552313835901,"fix_duration":552.6490233079478,"trial":31,"RT":525,"MT":180,"sideResp":2,"stimulus":"img/250/equaldotsize/R/9_Ratio_250_L_3_R_12.png","xmouse":[764,764,764,764,764,764,764,764,764,764,764,764,764,764,764,764,764,764,764,765,766,769,773,778,800,831,869,929,962,1005,1017,1023,1030,1036,1043,1062],"ymouse":[525,525,525,525,525,525,525,525,525,525,525,525,525,525,525,525,525,525,525,524,523,523,521,521,515,498,472,409,355,258,204,161,122,93,70,37],"timestamp_mouse":[12,35,45,66,85,106,126,146,166,186,205,225,246,266,285,305,325,346,366,385,406,427,446,466,485,505,525,545,565,586,605,625,646,665,687,705],"xSR":741.5,"ySR":469.95,"xT1":424.9,"yT1":0,"xT2":1058.1,"yT2":0,"toosoon":0,"cond_shown":"equaldotsize","ratio_trial":250,"smaller_num":"3","larger_num":"12","correct_side":2,"subjID":"juanpablogalindo15","gender":"0","age":"10","school":"4"},{"start_time":1552313837955,"click_time":1552313839081,"finger_time":1552313838621,"fix_duration":733.2263764526699,"trial":32,"RT":666,"MT":460,"sideResp":2,"stimulus":"img/900/randomdotsizeEA/R/15_Ratio_900_L_9_R_10.png","xmouse":[798,798,798,798,798,798,798,798,798,798,798,798,798,798,798,798,798,798,798,798,798,798,798,798,798,798,798,798,798,798,800,804,811,821,837,863,948,1024,1067,1090,1110,1135,1151,1173,1192,1199,1201,1200,1199,1199,1199,1199,1199,1175,1169,1160,1148],"ymouse":[494,494,494,494,494,494,494,494,494,494,494,494,494,494,494,494,494,494,494,494,494,494,494,494,494,494,494,494,494,494,489,481,473,459,439,410,321,260,231,217,201,163,128,89,50,32,10,2,0,0,0,0,0,2,5,11,19],"timestamp_mouse":[13,42,46,67,85,106,127,146,166,186,207,225,246,266,286,307,326,347,367,387,406,425,447,467,486,507,527,547,566,587,607,626,646,666,687,706,726,747,765,786,806,827,846,866,886,906,926,948,966,986,1007,1027,1047,1066,1087,1106,1126],"xSR":741.5,"ySR":469.95,"xT1":424.9,"yT1":0,"xT2":1058.1,"yT2":0,"toosoon":0,"cond_shown":"randomdotsizeEA","ratio_trial":900,"smaller_num":"9","larger_num":"10","correct_side":2,"subjID":"juanpablogalindo15","gender":"0","age":"10","school":"4"},{"start_time":1552313842428,"click_time":1552313843282,"finger_time":1552313843242,"fix_duration":1046.626943484012,"trial":33,"RT":814,"MT":40,"sideResp":1,"stimulus":"img/500/equaldotsize/L/7_Ratio_500_L_10_R_5.png","xmouse":[795,795,795,795,795,795,795,795,795,795,795,795,795,795,795,795,795,795,795,795,795,795,795,795,795,795,795,795,795,795,795,795,795,795,795,795,795,795,795,796,764,694,517],"ymouse":[529,529,529,529,529,529,529,529,529,529,529,529,529,529,529,529,529,529,529,529,529,529,529,529,529,529,529,529,529,529,529,529,529,529,529,529,529,529,529,520,462,339,77],"timestamp_mouse":[13,47,53,73,93,114,133,154,173,193,214,234,254,273,293,314,334,353,373,393,413,433,453,474,494,514,534,553,573,594,614,633,653,674,693,714,733,753,773,793,814,833,853],"xSR":741.5,"ySR":469.95,"xT1":424.9,"yT1":0,"xT2":1058.1,"yT2":0,"toosoon":0,"cond_shown":"equaldotsize","ratio_trial":500,"smaller_num":"5","larger_num":"10","correct_side":1,"subjID":"juanpablogalindo15","gender":"0","age":"10","school":"4"},{"start_time":1552313846469,"click_time":1552313847401,"finger_time":1552313847102,"fix_duration":367.0279448042425,"trial":34,"RT":633,"MT":299,"sideResp":1,"stimulus":"img/250/equaldotsize/L/7_Ratio_250_L_8_R_2.png","xmouse":[801,801,801,801,801,801,801,801,801,801,801,801,801,801,801,801,801,801,801,801,801,801,801,801,801,801,801,801,799,796,785,728,675,622,589,579,579,579,580,580,580,580,580,580,577,562,516],"ymouse":[507,507,507,507,507,507,507,507,507,507,507,507,507,507,507,507,507,507,507,507,507,507,507,507,507,507,507,507,505,502,482,385,294,211,159,140,128,127,127,127,127,127,127,127,125,118,93],"timestamp_mouse":[19,47,52,72,92,112,133,153,173,192,212,232,253,273,293,313,332,353,372,392,413,432,453,473,493,513,533,552,573,593,613,633,652,672,693,712,733,752,772,793,813,832,852,872,893,914,932],"xSR":741.5,"ySR":469.95,"xT1":424.9,"yT1":0,"xT2":1058.1,"yT2":0,"toosoon":0,"cond_shown":"equaldotsize","ratio_trial":250,"smaller_num":"2","larger_num":"8","correct_side":1,"subjID":"juanpablogalindo15","gender":"0","age":"10","school":"4"},{"start_time":1552313849965,"click_time":1552313851102,"finger_time":1552313850761,"fix_duration":1463.492499495642,"trial":35,"RT":796,"MT":341,"sideResp":2,"stimulus":"img/900/equaldotanddens/L/8_Ratio_900_L_20_R_18.png","xmouse":[785,787,787,787,787,787,787,787,787,787,787,787,787,787,787,787,787,787,787,787,787,795,798,798,799,799,800,800,800,800,800,800,800,800,800,800,804,811,822,838,881,966,1028,1086,1121,1139,1166,1176,1181,1183,1185,1186,1187,1187,1186,1177,1144],"ymouse":[534,530,530,529,529,529,529,529,529,529,529,529,529,529,529,529,529,529,529,529,525,511,505,503,501,500,499,499,499,499,499,499,499,499,499,498,497,493,484,466,412,325,274,214,172,146,114,102,95,92,87,82,76,75,73,72,72],"timestamp_mouse":[15,51,57,75,96,117,137,156,177,197,217,236,257,277,296,316,336,357,377,396,417,436,457,477,496,517,537,557,576,596,616,636,656,676,697,716,736,757,777,796,816,836,856,876,896,917,936,956,977,997,1016,1036,1057,1076,1097,1117,1137],"xSR":741.5,"ySR":469.95,"xT1":424.9,"yT1":0,"xT2":1058.1,"yT2":0,"toosoon":0,"cond_shown":"equaldotanddens","ratio_trial":900,"smaller_num":"18","larger_num":"20","correct_side":1,"subjID":"juanpablogalindo15","gender":"0","age":"10","school":"4"},{"start_time":1552313857814,"click_time":1552313858862,"finger_time":1552313858602,"fix_duration":690.2088806197272,"trial":36,"RT":788,"MT":260,"sideResp":2,"stimulus":"img/750/equaldotsize/L/14_Ratio_750_L_8_R_6.png","xmouse":[799,799,799,799,799,799,799,799,799,799,799,799,799,799,799,799,799,799,799,799,799,799,799,799,799,799,799,799,799,799,799,799,799,799,799,799,799,808,823,850,968,1011,1055,1080,1099,1121,1130,1140,1148,1151,1152,1149,1141],"ymouse":[499,499,499,499,499,499,499,499,499,499,499,499,499,499,499,499,499,499,499,499,499,499,499,499,499,499,499,499,499,499,499,499,499,499,499,499,499,494,486,469,385,345,306,270,238,189,168,153,142,136,127,113,95],"timestamp_mouse":[13,40,46,67,87,108,128,148,168,188,207,227,248,266,288,307,328,347,368,388,408,428,448,467,487,507,528,547,568,587,607,628,647,667,687,708,728,747,767,788,807,827,847,867,887,907,929,948,967,988,1007,1027,1048],"xSR":741.5,"ySR":469.95,"xT1":424.9,"yT1":0,"xT2":1058.1,"yT2":0,"toosoon":0,"cond_shown":"equaldotsize","ratio_trial":750,"smaller_num":"6","larger_num":"8","correct_side":1,"subjID":"juanpablogalindo15","gender":"0","age":"10","school":"4"},{"start_time":1552313862728,"click_time":1552313863881,"finger_time":1552313863541,"fix_duration":264.11529507249145,"trial":37,"RT":813,"MT":340,"sideResp":2,"stimulus":"img/900/equaldotsize/L/4_Ratio_900_L_20_R_18.png","xmouse":[791,791,791,789,789,788,788,788,788,788,788,788,788,788,788,788,788,788,788,788,788,788,788,788,788,788,788,788,788,788,788,786,785,784,783,783,783,783,790,802,955,1069,1163,1226,1256,1244,1223,1209,1199,1195,1195,1195,1195,1195,1188,1174,1159,1145],"ymouse":[512,513,513,513,513,512,512,512,512,512,512,512,512,512,512,512,512,512,512,512,512,512,512,512,512,512,512,512,512,512,512,514,515,516,517,517,517,517,512,505,415,338,258,192,155,81,49,30,19,13,13,13,13,12,11,15,24,36],"timestamp_mouse":[14,44,53,72,94,114,134,154,173,193,214,234,252,273,293,313,333,353,374,394,413,433,454,473,493,514,534,553,574,594,614,633,654,674,694,714,734,752,773,794,813,834,853,873,893,914,934,953,974,993,1014,1033,1053,1074,1095,1113,1133,1152],"xSR":741.5,"ySR":469.95,"xT1":424.9,"yT1":0,"xT2":1058.1,"yT2":0,"toosoon":0,"cond_shown":"equaldotsize","ratio_trial":900,"smaller_num":"18","larger_num":"20","correct_side":1,"subjID":"juanpablogalindo15","gender":"0","age":"10","school":"4"},{"start_time":1552313866907,"click_time":1552313868624,"finger_time":1552313867864,"fix_duration":342.73815039821875,"trial":38,"RT":957,"MT":760,"sideResp":2,"stimulus":"img/750/equaldotanddens/R/3_Ratio_750_L_15_R_20.png","xmouse":[761,762,764,765,765,765,765,765,765,765,765,765,765,765,765,765,765,765,765,765,765,765,765,765,765,765,765,765,765,767,767,769,770,770,770,770,770,770,770,770,770,770,770,770,767,764,763,762,762,762,762,762,762,762,761,761,759,759,758,759,762,769,773,779,784,788,811,843,892,961,1036,1036,1036,1036,1036,1036,1036,1036,1036,1036,1036,1036,1036,1036,1036,1154],"ymouse":[485,486,499,504,508,510,510,510,511,513,516,521,522,523,523,523,523,523,523,523,523,523,523,523,523,523,523,523,523,523,521,519,517,517,517,517,517,517,517,516,515,511,506,498,487,475,470,469,469,469,469,469,469,469,469,469,469,469,468,464,462,457,453,448,440,430,394,338,250,143,32,32,32,32,32,32,32,32,32,32,32,32,32,32,32,7],"timestamp_mouse":[16,40,57,76,97,117,136,156,177,196,216,237,258,276,296,317,336,357,377,397,418,437,457,477,496,517,536,556,577,598,617,636,656,676,697,716,738,756,776,797,817,836,857,877,897,917,937,957,977,998,1018,1037,1057,1077,1098,1117,1136,1156,1176,1196,1218,1236,1256,1276,1297,1317,1337,1357,1377,1397,1417,1438,1457,1476,1497,1516,1537,1557,1577,1597,1616,1637,1658,1676,1696,1717],"xSR":741.5,"ySR":469.95,"xT1":424.9,"yT1":0,"xT2":1058.1,"yT2":0,"toosoon":0,"cond_shown":"equaldotanddens","ratio_trial":750,"smaller_num":"15","larger_num":"20","correct_side":2,"subjID":"juanpablogalindo15","gender":"0","age":"10","school":"4"},{"start_time":1552313872995,"click_time":1552313875964,"finger_time":1552313875044,"fix_duration":810.2238278224968,"trial":39,"RT":2049,"MT":920,"sideResp":1,"stimulus":"img/500/randomdotsizeEA/R/14_Ratio_500_L_5_R_10.png","xmouse":[809,809,809,809,809,809,809,809,809,809,809,809,809,809,809,809,809,809,809,809,809,809,809,809,809,809,809,809,812,815,816,817,817,817,817,817,817,817,817,817,817,817,817,817,817,817,817,817,817,817,817,817,817,817,817,817,817,817,817,817,817,817,817,817,817,817,817,817,817,817,817,817,817,819,822,823,823,823,823,823,823,823,823,823,823,823,823,823,818,813,807,801,797,794,794,794,794,794,794,797,812,833,859,924,967,1005,1034,1063,1101,1106,1111,1113,1115,1115,1115,1115,1115,1116,1119,1119,1119,1119,1119,1093,1074,1056,1045,1036,1010,990,959,917,861,723,654,585,541,513,510,510,510,510,510,510,510,510,510,510,507],"ymouse":[533,533,533,533,533,533,533,533,533,533,533,533,533,533,533,533,533,533,533,533,533,533,533,533,533,533,533,533,533,533,533,533,533,533,533,533,533,533,533,533,533,533,533,533,533,533,533,533,533,533,533,533,533,533,533,533,533,533,533,533,533,533,533,533,533,533,533,533,533,533,533,533,533,532,527,526,525,524,524,524,524,524,524,524,524,524,524,524,522,520,519,518,517,517,517,517,517,517,516,512,503,491,476,426,402,383,363,341,304,294,286,274,264,250,244,238,234,230,223,223,223,223,222,228,231,234,237,238,241,241,241,235,222,185,161,136,121,112,111,110,110,110,109,107,106,105,103,102,98],"timestamp_mouse":[13,38,49,69,89,109,130,150,169,188,209,230,249,269,289,309,330,350,369,390,409,429,450,469,490,510,529,549,568,588,609,629,649,670,689,709,730,748,770,789,809,830,850,868,889,909,928,949,969,989,1010,1030,1048,1068,1089,1109,1129,1148,1169,1190,1210,1230,1248,1269,1289,1308,1329,1349,1370,1389,1409,1428,1449,1468,1490,1510,1529,1549,1570,1589,1609,1630,1649,1668,1688,1710,1728,1748,1768,1789,1809,1829,1849,1869,1889,1909,1928,1949,1969,1988,2009,2028,2049,2068,2089,2108,2128,2148,2168,2188,2209,2229,2249,2269,2289,2310,2329,2349,2369,2388,2408,2429,2449,2469,2489,2509,2530,2548,2568,2589,2610,2630,2650,2669,2689,2709,2729,2750,2768,2789,2809,2829,2849,2869,2889,2908,2930,2949,2968],"xSR":741.5,"ySR":469.95,"xT1":424.9,"yT1":0,"xT2":1058.1,"yT2":0,"toosoon":0,"cond_shown":"randomdotsizeEA","ratio_trial":500,"smaller_num":"5","larger_num":"10","correct_side":2,"subjID":"juanpablogalindo15","gender":"0","age":"10","school":"4"},{"start_time":1552313907840,"click_time":1552313909144,"finger_time":1552313908643,"fix_duration":1473.8148250970132,"trial":40,"RT":803,"MT":501,"sideResp":2,"stimulus":"img/250/randomdotsizeEA/R/8_Ratio_250_L_1_R_4.png","xmouse":[798,798,798,798,798,798,798,798,798,798,798,798,798,798,798,798,798,798,798,798,798,798,798,798,798,798,798,798,798,798,798,798,798,798,798,798,798,798,798,798,830,879,932,997,1035,1035,1035,1035,1035,1035,1035,1035,1035,1035,1035,1035,1035,1035,1035,1035,1035,1035,1035,1035,1171,1142],"ymouse":[513,513,513,513,513,513,513,513,513,513,513,513,513,513,513,513,513,513,513,513,513,513,513,513,513,513,513,513,513,513,513,513,513,513,513,513,513,513,513,513,406,267,163,64,19,19,19,19,19,19,19,19,19,19,19,19,19,19,19,19,19,19,19,19,0,9],"timestamp_mouse":[12,33,43,65,84,103,123,145,165,183,205,223,244,265,283,303,323,343,364,385,405,425,444,463,484,505,524,545,564,583,604,624,644,663,683,703,724,743,765,784,803,823,843,865,884,904,924,945,964,984,1003,1023,1043,1064,1083,1104,1123,1144,1165,1184,1205,1223,1244,1264,1284,1304],"xSR":741.5,"ySR":469.95,"xT1":424.9,"yT1":0,"xT2":1058.1,"yT2":0,"toosoon":0,"cond_shown":"randomdotsizeEA","ratio_trial":250,"smaller_num":"1","larger_num":"4","correct_side":2,"subjID":"juanpablogalindo15","gender":"0","age":"10","school":"4"},{"start_time":1552313910884,"click_time":1552313911924,"finger_time":1552313911443,"fix_duration":438.60360514278165,"trial":41,"RT":559,"MT":481,"sideResp":2,"stimulus":"img/250/equaldotanddens/R/9_Ratio_250_L_3_R_12.png","xmouse":[764,764,764,764,764,764,764,764,764,764,764,764,764,764,764,764,764,764,764,764,766,771,783,799,804,809,817,823,871,889,898,911,919,946,961,982,987,994,995,993,993,993,993,993,998,1002,1009,1011,1018,1027,1039,1052,1069],"ymouse":[543,543,543,543,543,543,543,543,543,543,543,543,543,543,543,543,543,543,543,543,543,542,538,530,527,523,511,504,441,424,410,395,381,324,289,232,213,170,148,124,122,122,121,117,114,111,108,108,107,106,103,97,88],"timestamp_mouse":[9,21,47,60,80,100,121,139,161,179,199,221,239,260,279,299,320,339,360,381,399,420,439,459,479,500,519,540,559,580,599,619,640,659,679,700,720,739,760,780,800,820,840,860,879,901,919,941,960,979,1000,1020,1040],"xSR":741.5,"ySR":469.95,"xT1":424.9,"yT1":0,"xT2":1058.1,"yT2":0,"toosoon":0,"cond_shown":"equaldotanddens","ratio_trial":250,"smaller_num":"3","larger_num":"12","correct_side":2,"subjID":"juanpablogalindo15","gender":"0","age":"10","school":"4"},{"start_time":1552313914476,"click_time":1552313916264,"finger_time":1552313915144,"fix_duration":1489.6996575717653,"trial":42,"RT":668,"MT":1120,"sideResp":1,"stimulus":"img/900/randomdotsizeEA/L/10_Ratio_900_L_20_R_18.png","xmouse":[782,782,782,782,782,782,782,782,782,782,782,782,782,782,782,782,782,782,782,782,782,782,782,782,782,782,782,782,782,782,785,790,800,823,830,833,838,845,853,860,864,870,880,906,929,937,945,958,974,1042,1068,1077,1077,1077,1052,1023,1000,995,994,994,994,994,995,997,1012,1019,1024,1027,1029,1029,1029,1029,1029,1029,1017,1005,995,990,986,984,979,970,951,916,726,642,580,544,526,510],"ymouse":[528,528,528,528,528,528,528,528,528,528,528,528,528,528,528,528,528,528,528,528,528,528,528,528,528,528,528,528,528,528,519,512,488,423,384,355,345,333,318,298,292,281,268,248,235,228,219,204,187,140,127,121,121,121,118,116,111,109,107,104,102,100,98,96,92,92,91,91,90,90,90,90,90,90,96,101,103,104,106,108,110,111,111,111,81,57,38,28,24,22],"timestamp_mouse":[13,38,48,69,89,108,129,148,169,188,208,228,247,269,288,309,328,347,367,388,409,427,448,468,488,509,529,547,568,588,609,629,648,668,687,708,729,749,767,787,808,827,847,870,887,908,928,949,969,988,1009,1029,1049,1069,1088,1107,1128,1147,1169,1187,1208,1229,1249,1269,1288,1309,1328,1348,1368,1388,1409,1428,1447,1468,1488,1509,1528,1547,1570,1587,1608,1627,1649,1668,1688,1708,1727,1748,1767,1788],"xSR":741.5,"ySR":469.95,"xT1":424.9,"yT1":0,"xT2":1058.1,"yT2":0,"toosoon":0,"cond_shown":"randomdotsizeEA","ratio_trial":900,"smaller_num":"18","larger_num":"20","correct_side":1,"subjID":"juanpablogalindo15","gender":"0","age":"10","school":"4"},{"start_time":1552313918619,"click_time":1552313919463,"finger_time":1552313919305,"fix_duration":1033.8889392407032,"trial":43,"RT":686,"MT":158,"sideResp":1,"stimulus":"img/250/equaldotsize/L/14_Ratio_250_L_12_R_3.png","xmouse":[820,820,820,820,820,820,820,820,820,820,820,819,819,818,818,817,817,817,817,817,817,817,817,817,817,817,817,817,817,817,817,816,796,772,740,669,643,551,526,504,490,481,475],"ymouse":[518,518,518,518,518,518,518,518,518,518,518,518,516,515,513,510,510,510,510,510,510,510,510,510,510,510,510,510,510,510,510,509,498,485,465,416,396,284,227,178,143,123,99],"timestamp_mouse":[11,24,44,65,85,105,125,144,166,186,204,224,245,265,285,305,325,345,364,385,404,424,444,466,484,504,526,546,565,584,604,625,644,666,686,705,725,744,764,786,805,825,844],"xSR":741.5,"ySR":469.95,"xT1":424.9,"yT1":0,"xT2":1058.1,"yT2":0,"toosoon":0,"cond_shown":"equaldotsize","ratio_trial":250,"smaller_num":"3","larger_num":"12","correct_side":1,"subjID":"juanpablogalindo15","gender":"0","age":"10","school":"4"},{"start_time":1552313921393,"click_time":1552313922644,"finger_time":1552313922124,"fix_duration":427.14214790076244,"trial":44,"RT":731,"MT":520,"sideResp":1,"stimulus":"img/500/equaldotsize/L/10_Ratio_500_L_4_R_2.png","xmouse":[800,800,800,800,800,800,800,800,800,800,800,800,800,800,800,800,800,800,800,800,800,800,800,800,800,800,800,800,800,800,800,800,800,800,795,786,769,741,713,704,695,685,670,641,624,620,610,606,599,593,586,582,579,579,579,579,579,579,577,556,530,502,485],"ymouse":[495,495,495,495,495,495,495,495,495,495,495,495,495,495,495,495,495,495,495,495,495,495,495,495,495,495,495,495,495,495,495,495,495,495,487,471,442,402,364,349,337,324,306,273,248,242,223,213,197,186,173,164,160,159,159,159,159,159,157,141,121,102,89],"timestamp_mouse":[11,45,51,70,91,110,130,152,172,192,210,231,250,272,291,310,331,351,371,391,411,431,452,470,491,511,532,551,571,591,612,631,651,671,691,710,731,751,772,790,810,832,851,872,890,910,931,951,972,990,1010,1030,1051,1072,1091,1111,1131,1150,1171,1190,1211,1232,1251],"xSR":741.5,"ySR":469.95,"xT1":424.9,"yT1":0,"xT2":1058.1,"yT2":0,"toosoon":0,"cond_shown":"equaldotsize","ratio_trial":500,"smaller_num":"2","larger_num":"4","correct_side":1,"subjID":"juanpablogalindo15","gender":"0","age":"10","school":"4"},{"start_time":1552313925389,"click_time":1552313926266,"finger_time":1552313925906,"fix_duration":1182.620678971278,"trial":45,"RT":517,"MT":360,"sideResp":1,"stimulus":"img/250/equaldotanddens/L/1_Ratio_250_L_8_R_2.png","xmouse":[785,785,785,785,785,785,785,785,785,785,785,785,785,785,785,785,785,785,785,785,785,785,785,782,744,723,702,692,688,677,667,649,626,604,586,585,585,585,585,576,562,544,525,504],"ymouse":[539,539,539,539,539,539,539,539,539,539,539,539,539,539,539,539,539,539,539,539,539,539,540,538,500,483,470,464,460,442,416,373,326,289,253,243,226,206,185,141,120,97,75,53],"timestamp_mouse":[16,42,56,78,98,118,138,158,178,198,217,238,257,278,297,317,337,357,377,397,418,438,457,477,497,517,537,557,577,597,618,638,657,678,696,718,737,757,777,797,817,837,857,877],"xSR":741.5,"ySR":469.95,"xT1":424.9,"yT1":0,"xT2":1058.1,"yT2":0,"toosoon":0,"cond_shown":"equaldotanddens","ratio_trial":250,"smaller_num":"2","larger_num":"8","correct_side":1,"subjID":"juanpablogalindo15","gender":"0","age":"10","school":"4"},{"start_time":1552313930400,"click_time":1552313931427,"finger_time":1552313931046,"fix_duration":633.297411468175,"trial":46,"RT":646,"MT":381,"sideResp":2,"stimulus":"img/500/equaldotanddens/R/15_Ratio_500_L_1_R_2.png","xmouse":[787,787,787,787,787,787,787,787,787,787,787,787,787,787,787,787,787,787,787,787,787,787,787,787,787,787,787,787,787,787,794,807,830,860,899,911,917,924,934,956,967,982,987,990,999,1004,1010,1018,1023,1039,1051,1059],"ymouse":[499,499,499,499,499,499,499,499,499,499,499,499,499,499,499,499,499,499,499,499,499,499,499,499,499,499,499,499,499,499,492,471,427,359,272,253,242,232,221,194,178,150,141,137,119,111,103,94,86,67,56,51],"timestamp_mouse":[12,38,46,66,87,107,126,147,165,187,207,227,246,267,286,305,327,347,367,385,406,427,447,466,486,506,526,547,567,586,606,626,646,666,687,706,726,745,765,787,806,826,846,866,887,906,926,947,966,987,1006,1027],"xSR":741.5,"ySR":469.95,"xT1":424.9,"yT1":0,"xT2":1058.1,"yT2":0,"toosoon":0,"cond_shown":"equaldotanddens","ratio_trial":500,"smaller_num":"1","larger_num":"2","correct_side":2,"subjID":"juanpablogalindo15","gender":"0","age":"10","school":"4"},{"start_time":1552313934261,"click_time":1552313935046,"finger_time":1552313934925,"fix_duration":1411.3181088600543,"trial":47,"RT":664,"MT":121,"sideResp":2,"stimulus":"img/900/equaldotanddens/R/15_Ratio_900_L_9_R_10.png","xmouse":[791,791,791,791,791,791,791,791,791,791,791,791,791,791,791,791,791,791,791,791,791,791,791,791,791,791,791,791,795,799,801,804,809,822,848,913,973,1077,1104,1137],"ymouse":[519,519,519,519,519,519,519,519,519,519,519,519,519,519,519,519,519,519,519,519,519,519,519,519,519,519,519,517,506,496,491,486,478,464,442,387,326,169,102,21],"timestamp_mouse":[12,25,46,65,86,104,126,146,165,186,206,225,246,265,285,305,325,345,366,386,405,425,446,464,486,506,525,545,566,585,605,625,646,664,686,705,726,745,765,785],"xSR":741.5,"ySR":469.95,"xT1":424.9,"yT1":0,"xT2":1058.1,"yT2":0,"toosoon":0,"cond_shown":"equaldotanddens","ratio_trial":900,"smaller_num":"9","larger_num":"10","correct_side":2,"subjID":"juanpablogalindo15","gender":"0","age":"10","school":"4"},{"start_time":1552313937779,"click_time":1552313938886,"finger_time":1552313938526,"fix_duration":250,"trial":48,"RT":747,"MT":360,"sideResp":1,"stimulus":"img/250/equaldotanddens/L/15_Ratio_250_L_12_R_3.png","xmouse":[795,795,795,795,795,795,795,795,795,795,795,795,795,795,795,795,795,795,795,795,795,795,795,795,795,795,795,795,795,795,795,795,795,795,795,794,777,755,666,586,501,384,370,369,369,369,369,367,366,364,364,369,381,398,415,428],"ymouse":[522,522,522,522,522,522,522,522,522,522,522,522,522,522,522,522,522,522,522,522,522,522,522,522,522,522,522,522,522,522,522,522,522,522,520,514,479,443,351,282,217,136,127,126,126,126,126,124,123,120,118,110,99,89,82,77],"timestamp_mouse":[13,44,47,68,88,106,127,147,168,188,207,228,248,268,288,308,327,348,367,387,406,427,448,467,487,508,527,547,568,587,607,627,647,667,688,707,727,747,767,787,807,828,847,867,888,907,928,947,968,986,1007,1028,1047,1067,1087,1106],"xSR":741.5,"ySR":469.95,"xT1":424.9,"yT1":0,"xT2":1058.1,"yT2":0,"toosoon":0,"cond_shown":"equaldotanddens","ratio_trial":250,"smaller_num":"3","larger_num":"12","correct_side":1,"subjID":"juanpablogalindo15","gender":"0","age":"10","school":"4"},{"start_time":1552313940396,"click_time":1552313941426,"finger_time":1552313941066,"fix_duration":567.444381348178,"trial":49,"RT":670,"MT":360,"sideResp":2,"stimulus":"img/900/equaldotsize/L/2_Ratio_900_L_20_R_18.png","xmouse":[773,773,773,773,773,773,773,773,773,773,773,773,773,773,773,773,773,773,773,773,773,773,771,762,754,748,748,748,748,748,754,766,780,801,830,875,981,1046,1084,1119,1165,1179,1182,1185,1187,1187,1187,1187,1187,1187,1182,1155],"ymouse":[530,530,530,530,530,530,530,530,530,530,530,530,530,530,530,530,530,530,530,530,530,530,524,511,498,488,488,488,488,488,487,484,478,464,436,384,259,193,158,129,87,73,66,56,51,47,47,47,47,46,46,48],"timestamp_mouse":[9,41,51,70,90,111,130,151,171,190,210,231,251,271,290,310,331,349,371,391,410,431,450,471,491,510,531,551,570,590,610,631,651,670,690,710,730,750,770,789,811,830,850,871,891,912,931,950,970,990,1011,1029],"xSR":741.5,"ySR":469.95,"xT1":424.9,"yT1":0,"xT2":1058.1,"yT2":0,"toosoon":0,"cond_shown":"equaldotsize","ratio_trial":900,"smaller_num":"18","larger_num":"20","correct_side":1,"subjID":"juanpablogalindo15","gender":"0","age":"10","school":"4"},{"start_time":1552313942894,"click_time":1552313943726,"finger_time":1552313943286,"fix_duration":625.0158878547888,"trial":50,"RT":392,"MT":440,"sideResp":1,"stimulus":"img/750/equaldotanddens/L/6_Ratio_750_L_24_R_18.png","xmouse":[792,792,792,792,792,792,792,792,792,792,792,792,792,792,793,790,787,778,765,746,713,685,660,649,636,618,588,578,572,569,568,567,567,567,567,567,567,566,563,558,548,493],"ymouse":[514,514,514,514,514,514,514,514,514,514,514,514,514,514,513,507,503,492,476,453,387,312,225,187,152,119,68,51,40,34,31,29,29,29,29,29,39,45,50,54,57,58],"timestamp_mouse":[21,49,53,73,92,112,133,152,173,193,212,232,253,273,293,315,333,353,373,392,411,432,452,472,492,513,531,551,573,593,613,632,653,672,692,712,731,752,773,793,813,832],"xSR":741.5,"ySR":469.95,"xT1":424.9,"yT1":0,"xT2":1058.1,"yT2":0,"toosoon":0,"cond_shown":"equaldotanddens","ratio_trial":750,"smaller_num":"18","larger_num":"24","correct_side":1,"subjID":"juanpablogalindo15","gender":"0","age":"10","school":"4"},{"start_time":1552313945205,"click_time":1552313945826,"finger_time":1552313945725,"fix_duration":678.3613220613607,"trial":51,"RT":520,"MT":101,"sideResp":1,"stimulus":"img/250/equaldotanddens/L/7_Ratio_250_L_8_R_2.png","xmouse":[786,786,786,786,786,786,786,786,786,786,786,786,786,786,786,786,786,786,786,786,786,786,786,786,785,781,763,731,681,624,560,467],"ymouse":[484,484,484,484,484,484,484,484,484,484,484,484,484,484,482,482,482,482,482,482,482,482,482,482,482,475,440,382,301,220,150,64],"timestamp_mouse":[10,35,41,61,82,101,121,142,162,182,201,220,242,261,281,301,322,341,362,381,401,422,442,461,481,502,520,542,561,581,601,621],"xSR":741.5,"ySR":469.95,"xT1":424.9,"yT1":0,"xT2":1058.1,"yT2":0,"toosoon":0,"cond_shown":"equaldotanddens","ratio_trial":250,"smaller_num":"2","larger_num":"8","correct_side":1,"subjID":"juanpablogalindo15","gender":"0","age":"10","school":"4"},{"start_time":1552313948505,"click_time":1552313949566,"finger_time":1552313949206,"fix_duration":1417.579455660343,"trial":52,"RT":701,"MT":360,"sideResp":2,"stimulus":"img/250/equaldotsize/R/10_Ratio_250_L_4_R_16.png","xmouse":[798,798,798,798,798,798,798,798,798,798,797,796,793,793,793,793,793,793,793,793,793,793,793,793,793,793,793,793,793,793,793,793,793,801,815,840,909,935,957,964,966,966,967,970,973,979,989,1016,1036,1047,1051,1054,1057,1061],"ymouse":[485,485,485,485,485,485,485,485,485,485,485,487,493,493,493,493,493,493,493,493,493,493,493,493,493,493,493,493,493,493,493,493,493,483,471,454,405,383,357,340,323,293,277,259,243,226,205,154,120,105,102,99,97,95],"timestamp_mouse":[11,38,41,61,81,101,121,142,162,182,202,222,241,262,281,302,322,341,362,381,401,421,442,462,480,502,521,542,561,582,602,621,642,661,682,701,723,741,762,781,802,821,840,861,882,901,923,941,961,982,1002,1021,1042,1061],"xSR":741.5,"ySR":469.95,"xT1":424.9,"yT1":0,"xT2":1058.1,"yT2":0,"toosoon":0,"cond_shown":"equaldotsize","ratio_trial":250,"smaller_num":"4","larger_num":"16","correct_side":2,"subjID":"juanpablogalindo15","gender":"0","age":"10","school":"4"},{"start_time":1552313951996,"click_time":1552313952766,"finger_time":1552313952685,"fix_duration":1147.2214324524173,"trial":53,"RT":689,"MT":81,"sideResp":2,"stimulus":"img/500/randomdotsizeEA/R/3_Ratio_500_L_10_R_20.png","xmouse":[816,812,808,806,803,800,798,797,796,796,796,796,796,796,796,796,796,796,796,796,796,796,796,796,796,796,796,796,796,796,796,796,796,796,809,865,935,1086,1149],"ymouse":[513,513,512,509,506,501,498,494,493,493,493,493,493,493,493,493,493,493,493,493,493,493,493,493,493,493,493,493,493,493,493,493,493,492,464,385,292,115,35],"timestamp_mouse":[11,36,50,70,91,111,130,149,169,190,211,231,251,271,291,310,331,350,371,390,411,431,451,471,490,511,531,549,571,590,610,629,651,671,689,711,731,750,769],"xSR":741.5,"ySR":469.95,"xT1":424.9,"yT1":0,"xT2":1058.1,"yT2":0,"toosoon":0,"cond_shown":"randomdotsizeEA","ratio_trial":500,"smaller_num":"10","larger_num":"20","correct_side":2,"subjID":"juanpablogalindo15","gender":"0","age":"10","school":"4"},{"start_time":1552313960429,"click_time":1552313961488,"finger_time":1552313961266,"fix_duration":1380.32779248901,"trial":54,"RT":837,"MT":222,"sideResp":2,"stimulus":"img/750/randomdotsizeEA/R/2_Ratio_750_L_6_R_8.png","xmouse":[775,775,775,775,775,775,775,775,774,773,771,764,760,757,754,753,753,753,753,753,753,753,753,753,753,753,753,753,754,756,756,757,757,758,758,758,758,759,761,766,769,787,803,822,849,873,904,911,920,933,950,1040,1099],"ymouse":[511,511,511,511,511,511,511,512,511,511,510,511,514,517,523,524,525,525,525,525,525,525,525,525,525,525,525,525,523,521,520,515,512,509,506,505,504,503,499,487,475,450,436,417,395,369,293,267,244,222,199,128,93],"timestamp_mouse":[17,48,58,78,97,117,137,157,176,197,217,238,257,277,297,317,337,357,376,398,417,438,457,477,498,518,538,558,577,597,618,638,657,678,697,717,737,757,777,798,817,837,858,877,897,919,937,958,977,997,1018,1037,1058],"xSR":741.5,"ySR":469.95,"xT1":424.9,"yT1":0,"xT2":1058.1,"yT2":0,"toosoon":0,"cond_shown":"randomdotsizeEA","ratio_trial":750,"smaller_num":"6","larger_num":"8","correct_side":2,"subjID":"juanpablogalindo15","gender":"0","age":"10","school":"4"},{"start_time":1552313962999,"click_time":1552313963806,"finger_time":1552313963686,"fix_duration":332.10265164751195,"trial":55,"RT":687,"MT":120,"sideResp":2,"stimulus":"img/250/equaldotanddens/R/9_Ratio_250_L_3_R_12.png","xmouse":[806,806,806,806,806,806,806,806,806,806,806,806,806,806,806,806,805,803,790,779,769,759,752,748,746,746,748,751,760,763,768,774,785,813,845,892,934,991,1037,1056,1070],"ymouse":[534,534,534,534,534,534,534,534,534,534,534,534,534,534,534,534,534,534,534,534,534,534,534,534,535,535,535,534,531,531,529,525,519,493,451,376,294,186,99,71,50],"timestamp_mouse":[12,35,48,68,87,106,128,147,167,188,207,228,247,267,288,307,328,347,367,387,408,428,448,468,487,508,527,547,566,588,608,628,646,667,687,708,728,748,767,787,807],"xSR":741.5,"ySR":469.95,"xT1":424.9,"yT1":0,"xT2":1058.1,"yT2":0,"toosoon":0,"cond_shown":"equaldotanddens","ratio_trial":250,"smaller_num":"3","larger_num":"12","correct_side":2,"subjID":"juanpablogalindo15","gender":"0","age":"10","school":"4"},{"start_time":1552313965711,"click_time":1552313966587,"finger_time":1552313966327,"fix_duration":962.2486427128083,"trial":56,"RT":616,"MT":260,"sideResp":1,"stimulus":"img/250/equaldotanddens/L/3_Ratio_250_L_8_R_2.png","xmouse":[799,799,799,799,799,799,799,799,799,799,799,799,799,799,799,799,799,799,799,799,799,799,799,799,799,799,799,799,791,779,755,723,645,612,587,573,566,563,562,561,557,549,537,519],"ymouse":[531,531,531,531,531,531,531,531,531,531,531,531,531,531,531,531,531,531,531,531,531,531,531,531,531,531,531,526,504,480,444,407,313,277,251,236,226,220,217,205,191,164,131,69],"timestamp_mouse":[20,39,56,76,96,115,136,156,176,196,215,236,256,275,296,316,336,356,375,395,416,435,454,476,495,515,536,555,575,596,616,635,656,675,695,716,734,756,775,796,815,836,856,876],"xSR":741.5,"ySR":469.95,"xT1":424.9,"yT1":0,"xT2":1058.1,"yT2":0,"toosoon":0,"cond_shown":"equaldotanddens","ratio_trial":250,"smaller_num":"2","larger_num":"8","correct_side":1,"subjID":"juanpablogalindo15","gender":"0","age":"10","school":"4"},{"start_time":1552313969579,"click_time":1552313970486,"finger_time":1552313970086,"fix_duration":810.5391104151944,"trial":57,"RT":507,"MT":400,"sideResp":2,"stimulus":"img/250/equaldotsize/R/11_Ratio_250_L_3_R_12.png","xmouse":[801,801,801,801,801,801,801,801,801,801,801,801,801,801,801,801,801,801,801,801,801,801,802,802,806,835,848,862,875,885,918,931,949,964,972,980,983,989,996,1005,1027,1034,1038,1046,1054,1064],"ymouse":[541,541,541,541,541,541,541,541,541,541,541,541,541,541,541,541,541,541,541,541,541,541,539,536,522,457,420,369,332,303,246,226,202,187,179,172,167,160,152,142,120,113,109,97,90,77],"timestamp_mouse":[11,34,48,67,88,107,127,147,167,187,207,227,246,268,287,308,327,347,367,388,406,427,447,467,488,507,528,547,567,588,607,627,647,668,687,707,727,747,768,788,807,828,847,867,886,906],"xSR":741.5,"ySR":469.95,"xT1":424.9,"yT1":0,"xT2":1058.1,"yT2":0,"toosoon":0,"cond_shown":"equaldotsize","ratio_trial":250,"smaller_num":"3","larger_num":"12","correct_side":2,"subjID":"juanpablogalindo15","gender":"0","age":"10","school":"4"},{"start_time":1552313972217,"click_time":1552313973246,"finger_time":1552313972807,"fix_duration":1228.8900548330118,"trial":58,"RT":590,"MT":439,"sideResp":2,"stimulus":"img/250/randomdotsizeEA/R/9_Ratio_250_L_3_R_12.png","xmouse":[799,799,799,799,799,799,800,800,800,800,800,800,800,800,800,800,800,800,800,800,800,800,800,800,800,804,807,812,824,832,839,848,863,893,910,920,928,933,941,951,973,1010,1037,1058,1085,1094,1102,1109,1118,1125,1128,1134],"ymouse":[522,522,522,520,520,519,519,519,519,519,519,519,519,519,519,519,519,519,519,519,519,519,519,519,518,512,507,499,470,456,441,424,391,345,322,307,297,289,275,267,256,240,232,228,214,206,196,182,142,114,104,83],"timestamp_mouse":[15,28,49,68,89,110,130,150,170,189,209,229,249,270,289,309,330,349,370,390,409,430,449,470,489,509,529,549,569,590,610,629,649,669,689,709,729,748,770,789,809,829,849,869,890,909,929,949,970,989,1010,1029],"xSR":741.5,"ySR":469.95,"xT1":424.9,"yT1":0,"xT2":1058.1,"yT2":0,"toosoon":0,"cond_shown":"randomdotsizeEA","ratio_trial":250,"smaller_num":"3","larger_num":"12","correct_side":2,"subjID":"juanpablogalindo15","gender":"0","age":"10","school":"4"},{"start_time":1552313974077,"click_time":1552313974888,"finger_time":1552313974587,"fix_duration":250,"trial":59,"RT":510,"MT":301,"sideResp":2,"stimulus":"img/750/equaldotsize/R/3_Ratio_750_L_15_R_20.png","xmouse":[756,758,758,759,759,759,759,759,759,759,760,760,760,760,760,762,766,772,782,800,808,814,820,827,855,884,918,932,943,953,958,966,974,985,1006,1015,1031,1039,1047,1070],"ymouse":[539,538,536,536,536,536,536,536,536,535,535,535,534,534,534,531,527,522,517,501,493,488,480,473,429,392,353,332,314,289,276,261,244,227,193,176,147,125,102,60],"timestamp_mouse":[29,50,70,90,110,129,150,170,190,210,229,250,268,289,309,329,349,369,389,410,429,448,470,489,510,529,549,569,590,611,629,649,669,689,710,729,750,769,789,810],"xSR":741.5,"ySR":469.95,"xT1":424.9,"yT1":0,"xT2":1058.1,"yT2":0,"toosoon":0,"cond_shown":"equaldotsize","ratio_trial":750,"smaller_num":"15","larger_num":"20","correct_side":2,"subjID":"juanpablogalindo15","gender":"0","age":"10","school":"4"},{"start_time":1552313976080,"click_time":1552313977007,"finger_time":1552313976627,"fix_duration":250,"trial":60,"RT":547,"MT":380,"sideResp":1,"stimulus":"img/750/equaldotsize/L/13_Ratio_750_L_8_R_6.png","xmouse":[787,787,787,787,787,787,787,787,787,787,787,787,787,787,787,787,787,787,787,787,787,787,787,788,788,788,779,766,744,711,667,605,596,591,590,589,589,589,589,586,580,559,543,526,516,506,492],"ymouse":[511,511,511,511,511,511,511,511,511,511,511,511,511,511,511,511,511,511,511,511,511,511,511,511,510,502,482,463,439,401,360,292,274,261,252,245,238,235,231,226,216,186,163,143,128,110,73],"timestamp_mouse":[7,25,46,66,86,106,126,145,166,186,207,226,247,267,286,307,327,346,365,387,407,425,446,465,486,507,527,547,565,587,608,627,646,666,687,707,726,747,767,785,806,825,846,867,887,906,926],"xSR":741.5,"ySR":469.95,"xT1":424.9,"yT1":0,"xT2":1058.1,"yT2":0,"toosoon":0,"cond_shown":"equaldotsize","ratio_trial":750,"smaller_num":"6","larger_num":"8","correct_side":1,"subjID":"juanpablogalindo15","gender":"0","age":"10","school":"4"},{"start_time":1552313978733,"click_time":1552313979587,"finger_time":1552313979267,"fix_duration":505.89867641368903,"trial":61,"RT":534,"MT":320,"sideResp":2,"stimulus":"img/500/equaldotsize/R/3_Ratio_500_L_10_R_20.png","xmouse":[788,788,788,788,788,788,788,788,788,788,788,788,788,788,788,788,788,788,788,788,788,788,788,791,807,828,861,886,926,945,964,984,1017,1033,1038,1040,1043,1046,1055,1064,1070,1076,1079],"ymouse":[512,512,512,512,512,512,512,512,512,512,512,512,512,512,512,512,512,512,512,512,512,512,512,508,491,472,444,420,339,298,260,227,186,164,158,156,154,151,139,128,119,106,90],"timestamp_mouse":[13,33,53,72,93,113,133,153,174,193,214,234,254,273,294,314,333,352,372,393,413,434,453,473,494,514,534,553,573,593,613,634,653,674,693,713,733,754,773,792,813,834,854],"xSR":741.5,"ySR":469.95,"xT1":424.9,"yT1":0,"xT2":1058.1,"yT2":0,"toosoon":0,"cond_shown":"equaldotsize","ratio_trial":500,"smaller_num":"10","larger_num":"20","correct_side":2,"subjID":"juanpablogalindo15","gender":"0","age":"10","school":"4"},{"start_time":1552313980810,"click_time":1552313981686,"finger_time":1552313981387,"fix_duration":442.54575344544025,"trial":62,"RT":577,"MT":299,"sideResp":1,"stimulus":"img/500/equaldotanddens/L/11_Ratio_500_L_12_R_6.png","xmouse":[782,782,782,782,782,782,782,782,782,782,782,782,782,782,782,782,782,782,782,782,782,782,782,782,779,771,763,752,735,696,672,631,603,587,561,549,545,545,544,543,536,528,517,507],"ymouse":[530,530,530,530,530,530,530,530,530,530,530,530,530,530,530,530,530,530,530,530,530,530,530,528,517,502,488,470,437,367,324,271,235,217,191,181,178,178,176,168,148,124,100,81],"timestamp_mouse":[16,35,56,76,96,115,137,157,177,197,217,235,255,276,297,316,336,356,377,397,415,436,457,476,496,517,537,556,577,597,617,636,657,677,697,716,737,756,777,796,815,837,856,876],"xSR":741.5,"ySR":469.95,"xT1":424.9,"yT1":0,"xT2":1058.1,"yT2":0,"toosoon":0,"cond_shown":"equaldotanddens","ratio_trial":500,"smaller_num":"6","larger_num":"12","correct_side":1,"subjID":"juanpablogalindo15","gender":"0","age":"10","school":"4"},{"start_time":1552313983463,"click_time":1552313984227,"finger_time":1552313984006,"fix_duration":815.1389817737775,"trial":63,"RT":543,"MT":221,"sideResp":2,"stimulus":"img/500/randomdotsizeEA/R/3_Ratio_500_L_10_R_20.png","xmouse":[760,760,760,760,760,760,760,760,760,760,760,760,760,760,760,760,760,760,760,760,760,760,760,760,760,765,777,848,895,934,960,977,997,1004,1015,1023,1032,1043,1062],"ymouse":[515,515,515,515,515,515,515,515,515,515,515,515,515,515,515,515,515,515,515,515,515,515,515,515,515,515,511,457,400,341,274,239,200,180,155,137,123,107,81],"timestamp_mouse":[20,40,43,63,83,104,124,143,164,184,203,223,243,263,284,303,323,342,364,384,404,424,443,464,482,504,524,543,563,583,604,623,644,662,684,704,724,743,764],"xSR":741.5,"ySR":469.95,"xT1":424.9,"yT1":0,"xT2":1058.1,"yT2":0,"toosoon":0,"cond_shown":"randomdotsizeEA","ratio_trial":500,"smaller_num":"10","larger_num":"20","correct_side":2,"subjID":"juanpablogalindo15","gender":"0","age":"10","school":"4"},{"start_time":1552313987491,"click_time":1552314008109,"finger_time":1552314004349,"fix_duration":1101.3711078937952,"trial":64,"RT":16858,"MT":3760,"sideResp":2,"stimulus":"img/900/randomdotsizeEA/L/10_Ratio_900_L_20_R_18.png","xmouse":[768,768,768,768,768,768,768,768,768,768,768,762,760,757,757,757,757,757,757,757,757,757,757,757,757,757,757,757,757,757,757,757,757,757,757,757,757,757,757,757,757,757,757,757,757,757,757,757,757,757,757,757,757,757,757,757,757,757,757,757,757,757,757,757,757,757,757,757,757,757,757,757,757,757,757,757,757,757,757,757,757,757,757,757,757,757,757,757,757,757,757,757,757,757,757,757,757,757,757,757,757,757,757,757,757,757,757,757,757,757,757,757,757,757,757,757,757,757,757,757,757,757,757,757,757,757,757,757,757,757,757,757,757,757,757,757,757,757,757,757,757,757,757,757,757,757,757,757,757,757,757,757,757,757,757,757,757,757,757,757,757,757,757,757,757,757,757,757,757,757,757,757,757,757,757,757,757,757,757,757,757,757,757,757,757,757,757,757,757,757,757,757,757,757,757,757,757,757,757,757,757,757,757,757,757,757,757,757,757,757,757,757,757,757,757,757,757,757,757,757,757,757,757,757,757,757,757,757,757,757,757,757,757,757,757,757,757,757,757,757,757,757,757,757,757,757,757,757,757,757,757,757,757,757,757,757,757,757,757,757,757,757,757,757,757,757,757,757,757,757,757,757,757,757,757,757,757,757,757,757,757,757,757,757,757,757,757,757,757,757,757,757,757,757,757,757,757,757,757,757,757,757,757,757,757,757,757,757,757,757,757,757,757,757,757,757,757,757,757,757,757,757,757,757,757,757,757,757,757,757,757,757,757,757,757,757,757,757,757,757,757,757,757,757,757,757,757,757,757,757,757,757,757,757,757,757,757,757,757,757,757,757,757,757,757,757,757,757,757,757,757,757,757,757,757,757,757,757,757,757,757,757,757,757,757,757,757,757,757,757,757,757,757,757,757,757,757,757,757,757,757,757,757,757,757,757,757,757,757,757,757,757,757,757,757,757,757,757,757,757,757,757,757,757,757,757,757,757,757,757,757,757,757,757,757,757,757,757,757,757,757,757,757,757,757,757,757,757,757,757,757,757,757,757,757,757,757,757,757,757,757,757,757,757,757,757,757,757,757,757,757,757,757,757,757,757,757,757,757,757,757,757,757,757,757,757,757,757,757,757,757,757,757,757,757,757,757,757,757,757,757,757,757,757,757,757,757,757,757,757,757,757,757,757,757,757,757,757,757,757,757,757,757,757,757,757,757,757,757,757,757,757,757,757,757,757,757,757,757,757,757,757,757,757,757,757,757,757,757,757,757,757,757,757,757,757,757,757,757,757,757,757,757,757,757,757,757,757,757,757,757,757,757,757,757,757,757,757,757,757,757,757,757,757,757,757,757,757,757,757,757,757,757,757,757,757,757,757,757,757,757,757,757,757,757,757,757,757,757,757,757,757,757,757,757,757,757,757,757,757,757,757,757,757,757,757,757,757,757,757,757,757,757,757,757,757,757,757,757,757,757,757,757,757,757,757,757,757,757,757,757,757,757,757,757,757,757,757,757,757,757,757,757,757,757,757,757,757,757,757,757,757,757,757,757,757,757,757,757,757,757,757,757,757,757,757,757,757,757,757,757,757,757,757,757,757,757,757,757,757,757,757,757,757,757,757,757,757,757,757,757,757,757,757,757,757,757,757,757,757,757,757,757,757,757,757,757,757,757,757,757,757,757,757,757,757,757,757,757,757,757,757,757,757,757,757,757,757,757,757,757,757,757,757,757,757,757,757,757,757,757,757,757,757,757,757,757,757,757,757,757,757,757,757,757,757,757,757,757,757,757,757,757,757,757,757,757,757,757,757,757,757,757,757,757,757,757,757,757,757,757,757,757,757,757,757,757,757,757,757,757,757,757,757,757,757,757,757,757,757,757,757,757,757,757,757,757,757,757,757,757,757,757,757,757,757,757,757,757,757,757,796,908,928,924,918,914,911,909,909,909,909,909,909,907,907,901,894,887,879,863,840,811,790,790,790,795,800,818,824,827,828,828,828,828,827,821,809,787,782,780,780,780,780,780,780,780,780,780,780,780,780,781,785,786,786,787,787,790,790,790,790,790,790,791,791,791,791,791,792,792,792,792,794,794,794,794,794,794,794,794,794,794,794,794,794,794,794,794,794,794,794,794,794,794,794,794,794,794,794,794,794,794,794,794,794,794,794,794,794,794,793,792,791,791,791,791,791,791,791,791,791,791,791,791,791,791,791,791,791,789,788,782,773,773,773,773,779,807,828,845,855,856,855,853,851,848,845,840,827,821,817,813,810,808,804,799,793,790,790,790,790,790,790,790,790,790,790,790,790,790,790,790,790,790,790,790,790,790,795,810,825,842,865,879,893,915,943,1031,1058,1065],"ymouse":[540,540,540,540,540,540,540,540,540,540,540,541,541,542,542,542,542,542,542,542,542,542,542,542,542,542,542,542,542,542,542,542,542,542,542,542,542,542,542,542,542,542,542,542,542,542,542,542,542,542,542,542,542,542,542,542,542,542,542,542,542,542,542,542,542,542,542,542,542,542,542,542,542,542,542,542,542,542,542,542,542,542,542,542,542,542,542,542,542,542,542,542,542,542,542,542,542,542,542,542,542,542,542,542,542,542,542,542,542,542,542,542,542,542,542,542,542,542,542,542,542,542,542,542,542,542,542,542,542,542,542,542,542,542,542,542,542,542,542,542,542,542,542,542,542,542,542,542,542,542,542,542,542,542,542,542,542,542,542,542,542,542,542,542,542,542,542,542,542,542,542,542,542,542,542,542,542,542,542,542,542,542,542,542,542,542,542,542,542,542,542,542,542,542,542,542,542,542,542,542,542,542,542,542,542,542,542,542,542,542,542,542,542,542,542,542,542,542,542,542,542,542,542,542,542,542,542,542,542,542,542,542,542,542,542,542,542,542,542,542,542,542,542,542,542,542,542,542,542,542,542,542,542,542,542,542,542,542,542,542,542,542,542,542,542,542,542,542,542,542,542,542,542,542,542,542,542,542,542,542,542,542,542,542,542,542,542,542,542,542,542,542,542,542,542,542,542,542,542,542,542,542,542,542,542,542,542,542,542,542,542,542,542,542,542,542,542,542,542,542,542,542,542,542,542,542,542,542,542,542,542,542,542,542,542,542,542,542,542,542,542,542,542,542,542,542,542,542,542,542,542,542,542,542,542,542,542,542,542,542,542,542,542,542,542,542,542,542,542,542,542,542,542,542,542,542,542,542,542,542,542,542,542,542,542,542,542,542,542,542,542,542,542,542,542,542,542,542,542,542,542,542,542,542,542,542,542,542,542,542,542,542,542,542,542,542,542,542,542,542,542,542,542,542,542,542,542,542,542,542,542,542,542,542,542,542,542,542,542,542,542,542,542,542,542,542,542,542,542,542,542,542,542,542,542,542,542,542,542,542,542,542,542,542,542,542,542,542,542,542,542,542,542,542,542,542,542,542,542,542,542,542,542,542,542,542,542,542,542,542,542,542,542,542,542,542,542,542,542,542,542,542,542,542,542,542,542,542,542,542,542,542,542,542,542,542,542,542,542,542,542,542,542,542,542,542,542,542,542,542,542,542,542,542,542,542,542,542,542,542,542,542,542,542,542,542,542,542,542,542,542,542,542,542,542,542,542,542,542,542,542,542,542,542,542,542,542,542,542,542,542,542,542,542,542,542,542,542,542,542,542,542,542,542,542,542,542,542,542,542,542,542,542,542,542,542,542,542,542,542,542,542,542,542,542,542,542,542,542,542,542,542,542,542,542,542,542,542,542,542,542,542,542,542,542,542,542,542,542,542,542,542,542,542,542,542,542,542,542,542,542,542,542,542,542,542,542,542,542,542,542,542,542,542,542,542,542,542,542,542,542,542,542,542,542,542,542,542,542,542,542,542,542,542,542,542,542,542,542,542,542,542,542,542,542,542,542,542,542,542,542,542,542,542,542,542,542,542,542,542,542,542,542,542,542,542,542,542,542,542,542,542,542,542,542,542,542,542,542,542,542,542,542,542,542,542,542,542,542,542,542,542,542,542,542,542,542,542,542,542,542,542,542,542,542,542,542,542,542,542,542,542,542,542,542,542,542,542,542,542,542,542,542,542,542,542,542,542,542,542,542,542,542,542,542,542,542,542,542,542,542,542,542,542,542,542,542,542,542,542,542,542,542,542,542,542,542,542,542,542,542,542,542,542,542,542,542,542,542,542,542,542,542,542,542,542,542,542,542,542,542,542,542,542,542,542,542,542,542,542,542,542,542,542,542,542,542,542,542,542,538,503,416,405,409,416,421,424,425,425,425,425,425,425,413,344,296,274,266,268,280,292,308,353,366,381,397,407,423,426,427,427,427,445,459,474,484,498,522,531,537,541,542,542,542,542,542,542,542,542,542,542,542,538,536,536,535,535,532,532,532,532,532,532,531,528,526,525,524,522,522,522,523,526,526,526,526,526,526,526,526,526,526,526,526,526,526,526,526,526,526,526,526,526,526,526,526,526,526,526,525,525,525,525,525,525,525,525,525,525,525,524,523,522,521,521,521,521,521,521,521,521,521,521,521,521,521,521,521,521,521,521,521,521,521,521,521,519,519,519,519,519,519,519,519,519,519,519,519,519,519,519,519,518,517,517,516,516,516,516,516,516,516,516,516,516,516,516,516,516,516,516,516,516,516,516,516,516,515,511,493,477,451,401,367,317,282,239,104,44,21],"timestamp_mouse":[17,37,56,76,96,117,137,157,178,197,218,237,257,277,297,317,336,358,378,398,417,438,457,478,496,516,538,557,578,596,616,637,658,677,698,718,738,757,776,797,818,838,858,876,897,917,937,957,976,997,1017,1038,1058,1077,1097,1117,1138,1156,1176,1198,1217,1238,1257,1277,1298,1317,1336,1358,1377,1397,1417,1436,1457,1477,1497,1518,1538,1557,1577,1598,1617,1637,1658,1678,1696,1717,1736,1757,1777,1796,1817,1837,1858,1876,1898,1916,1937,1958,1977,1997,2016,2037,2058,2077,2097,2117,2138,2157,2177,2198,2218,2238,2256,2277,2298,2317,2336,2357,2378,2398,2418,2436,2456,2477,2498,2518,2536,2558,2578,2598,2616,2636,2658,2677,2697,2716,2737,2756,2778,2798,2817,2836,2858,2877,2896,2916,2937,2957,2977,2997,3017,3037,3058,3077,3097,3116,3136,3158,3177,3196,3218,3237,3258,3277,3297,3317,3337,3357,3377,3398,3417,3436,3456,3478,3498,3518,3537,3558,3577,3597,3616,3637,3658,3677,3696,3717,3736,3758,3778,3797,3817,3837,3858,3876,3897,3918,3937,3957,3977,3996,4017,4037,4058,4077,4098,4117,4137,4158,4178,4196,4216,4238,4256,4278,4298,4316,4337,4358,4377,4397,4417,4437,4458,4478,4497,4517,4537,4557,4578,4596,4617,4636,4658,4676,4697,4717,4738,4757,4776,4798,4818,4837,4858,4876,4897,4918,4937,4956,4978,4996,5018,5036,5057,5076,5098,5116,5138,5157,5177,5197,5217,5236,5257,5278,5297,5316,5336,5357,5377,5397,5417,5436,5457,5476,5497,5518,5538,5557,5578,5597,5618,5636,5656,5678,5698,5717,5737,5756,5777,5796,5818,5837,5858,5877,5897,5916,5937,5958,5977,5997,6016,6038,6057,6077,6097,6117,6138,6158,6177,6198,6217,6238,6257,6276,6296,6318,6338,6358,6377,6396,6417,6438,6457,6476,6496,6518,6537,6556,6577,6598,6618,6638,6656,6676,6698,6718,6738,6757,6777,6796,6818,6838,6857,6876,6897,6917,6937,6956,6978,6998,7017,7037,7058,7077,7096,7116,7137,7158,7178,7196,7216,7237,7258,7277,7297,7316,7336,7356,7376,7397,7418,7437,7457,7477,7498,7517,7536,7557,7576,7598,7617,7637,7658,7678,7697,7717,7736,7757,7778,7797,7818,7838,7858,7876,7896,7917,7938,7957,7977,7998,8017,8036,8057,8078,8097,8118,8136,8156,8178,8198,8216,8236,8258,8278,8297,8316,8336,8357,8378,8396,8416,8437,8457,8478,8497,8518,8537,8558,8578,8596,8617,8637,8658,8677,8697,8718,8736,8758,8777,8798,8817,8836,8858,8878,8897,8918,8937,8956,8977,8997,9018,9037,9057,9076,9097,9117,9137,9157,9176,9198,9216,9237,9256,9276,9298,9318,9337,9356,9378,9397,9417,9437,9456,9478,9497,9518,9537,9557,9577,9598,9618,9637,9658,9677,9696,9717,9737,9758,9778,9798,9817,9836,9858,9876,9896,9917,9937,9958,9977,9996,10018,10038,10056,10077,10096,10118,10138,10156,10177,10197,10217,10237,10256,10277,10297,10318,10336,10356,10378,10398,10416,10437,10456,10476,10498,10518,10537,10556,10577,10598,10618,10637,10658,10677,10696,10716,10737,10758,10777,10797,10818,10838,10858,10877,10898,10918,10936,10957,10978,10998,11017,11037,11057,11078,11096,11116,11137,11157,11178,11198,11217,11236,11257,11278,11296,11316,11338,11357,11377,11398,11417,11438,11457,11478,11497,11517,11536,11556,11578,11596,11617,11637,11657,11678,11696,11717,11736,11757,11778,11797,11817,11837,11857,11877,11897,11918,11937,11957,11978,11998,12018,12037,12056,12077,12096,12117,12138,12156,12176,12198,12218,12238,12257,12276,12296,12318,12336,12358,12377,12398,12416,12436,12457,12478,12497,12518,12537,12557,12576,12597,12617,12638,12657,12676,12698,12718,12737,12756,12777,12797,12818,12838,12857,12878,12898,12917,12937,12957,12977,12996,13017,13037,13057,13078,13097,13117,13137,