[{"start_time":1552055064075,"click_time":1552055066198,"finger_time":1552055065698,"fix_duration":671.54917772248,"trial":0,"RT":1623,"MT":500,"sideResp":2,"stimulus":"img/750/randomdotsizeEA/L/13_Ratio_750_L_8_R_6.png","xmouse":[801,801,801,801,801,801,801,801,801,801,801,801,801,801,801,801,801,801,801,801,801,801,801,801,801,801,801,801,801,801,801,801,801,801,801,801,801,801,801,801,801,801,801,801,801,801,801,801,801,801,801,801,801,801,801,801,801,801,801,801,801,801,801,801,801,801,801,801,801,801,801,801,801,801,801,801,801,801,801,793,729,684,657,652,652,652,662,716,806,947,968,976,977,978,992,1000,1009,1013,1014,1014,1015,1015,1015,1015,1032,1061],"ymouse":[527,527,527,527,527,527,527,527,527,527,527,527,527,527,527,527,527,527,527,527,527,527,527,527,527,527,527,527,527,527,527,527,527,527,527,527,527,527,527,527,527,527,527,527,527,527,527,527,527,527,527,527,527,527,527,527,527,527,527,527,527,527,527,527,527,527,527,527,527,527,527,527,527,527,527,527,527,527,527,482,229,114,66,58,58,58,58,60,60,60,60,60,60,60,75,80,84,85,85,85,85,85,85,85,84,77],"timestamp_mouse":[11,49,63,84,103,123,143,163,183,204,224,243,263,283,304,323,343,364,383,403,424,443,463,484,504,524,543,564,583,603,624,643,664,685,704,723,743,765,785,803,824,844,865,885,904,927,944,964,983,1005,1025,1044,1063,1084,1104,1123,1145,1164,1184,1204,1224,1243,1265,1284,1303,1324,1343,1363,1383,1405,1425,1443,1464,1484,1504,1523,1543,1563,1583,1604,1623,1643,1663,1683,1704,1724,1743,1764,1784,1805,1823,1843,1863,1884,1904,1923,1943,1964,1983,2005,2024,2044,2063,2085,2104,2123],"xSR":741.5,"ySR":501.8,"xT1":424.9,"yT1":0,"xT2":1058.1,"yT2":0,"toosoon":0,"cond_shown":"randomdotsizeEA","ratio_trial":750,"smaller_num":"6","larger_num":"8","correct_side":1,"subjID":"JuanSebastianGonzalez","gender":"0","age":"No_ag","school":"4","test":{"fix_dur":[250,1500],"timestim":300,"targets_dim":[100,100],"targets_relative_coord":[0.3,0.7],"size_stim":[880,420],"start_dim":[100,100],"size_start":[300,300],"size_fix":60,"samplingrate":20,"img_types":["equaldotsize","equaldotanddens","randomdotsizeEA"],"ratios":[250,500,750,900],"rep_conds":9,"nTrials":120,"trials_to_rest":500,"Trials_order":[92,44,39,45,61,57,30,105,25,98,89,94,104,3,35,43,21,9,81,101,42,91,1,82,40,75,80,24,0,119,90,86,47,96,4,52,113,56,22,15,6,31,69,95,68,87,13,83,109,106,99,67,17,20,46,112,88,116,59,7,41,19,32,64,65,93,76,2,49,63,55,71,77,37,27,72,79,10,78,74,111,16,118,110,66,54,38,62,14,58,117,115,28,18,11,29,8,33,97,26,51,108,50,48,114,102,60,100,103,12,107,53,34,5,85,73,84,36,23,70],"cond_shown":["randomdotsizeEA","randomdotsizeEA","equaldotsize","equaldotsize","equaldotanddens","equaldotsize","equaldotsize","equaldotsize","equaldotanddens","randomdotsizeEA","randomdotsizeEA","equaldotanddens","randomdotsizeEA","equaldotsize","randomdotsizeEA","equaldotanddens","equaldotsize","equaldotsize","equaldotsize","randomdotsizeEA","equaldotsize","equaldotanddens","equaldotanddens","equaldotanddens","equaldotanddens","equaldotsize","randomdotsizeEA","equaldotsize","equaldotsize","randomdotsizeEA","equaldotsize","randomdotsizeEA","randomdotsizeEA","equaldotsize","equaldotanddens","equaldotanddens","randomdotsizeEA","randomdotsizeEA","equaldotanddens","equaldotsize","equaldotsize","equaldotanddens","equaldotsize","randomdotsizeEA","randomdotsizeEA","equaldotsize","equaldotanddens","randomdotsizeEA","equaldotanddens","equaldotanddens","equaldotsize","equaldotanddens","randomdotsizeEA","randomdotsizeEA","equaldotanddens","equaldotanddens","equaldotanddens","randomdotsizeEA","randomdotsizeEA","equaldotanddens","randomdotsizeEA","equaldotanddens","randomdotsizeEA","equaldotanddens","randomdotsizeEA","equaldotsize","equaldotanddens","randomdotsizeEA","equaldotanddens","equaldotsize","equaldotanddens","randomdotsizeEA","randomdotsizeEA","equaldotanddens","equaldotsize","equaldotsize","equaldotanddens","equaldotanddens","equaldotsize","randomdotsizeEA","equaldotsize","equaldotanddens","equaldotanddens","randomdotsizeEA","equaldotsize","equaldotsize","randomdotsizeEA","randomdotsizeEA","randomdotsizeEA","equaldotanddens","equaldotsize","equaldotanddens","equaldotanddens","equaldotsize","randomdotsizeEA","randomdotsizeEA","randomdotsizeEA","equaldotsize","equaldotanddens","randomdotsizeEA","equaldotsize","equaldotsize","randomdotsizeEA","equaldotsize","equaldotsize","equaldotsize","equaldotsize","equaldotanddens","equaldotanddens","equaldotsize","randomdotsizeEA","randomdotsizeEA","equaldotanddens","randomdotsizeEA","equaldotanddens","equaldotanddens","equaldotsize","equaldotsize","randomdotsizeEA","equaldotanddens"],"ratio_trial":[750,750,500,900,250,900,750,900,250,250,500,900,750,500,900,750,900,900,900,500,750,750,250,900,500,500,750,250,250,900,750,250,900,250,500,500,500,750,900,500,750,750,900,900,750,500,250,900,250,900,500,750,500,750,900,500,500,750,900,750,500,750,750,500,500,900,500,250,250,500,750,900,500,250,500,250,750,900,750,250,500,500,900,250,750,750,250,250,250,900,900,750,500,750,900,500,750,900,250,250,500,250,250,250,750,750,250,500,750,250,900,500,900,500,250,250,250,250,900,900],"smaller_num":["6","6","4","18","5","18","12","9","2","3","4","18","15","2","9","3","9","18","18","5","3","3","1","9","3","2","3","3","2","9","6","2","9","3","5","1","1","15","9","5","15","15","18","9","15","6","3","9","3","9","2","15","6","3","9","5","6","6","18","3","6","6","6","10","1","18","9","3","2","5","15","9","2","2","6","2","3","18","3","3","9","10","9","6","6","6","2","1","2","9","9","3","6","3","9","2","3","18","3","2","6","3","2","3","3","15","3","6","15","4","9","10","18","6","2","6","3","2","18","9"],"larger_num":["8","8","8","20","20","20","16","10","8","12","8","20","20","4","10","4","10","20","20","10","4","4","4","10","6","4","4","12","8","10","8","8","10","12","10","2","2","20","10","10","20","20","20","10","20","12","12","10","12","10","4","20","12","4","10","10","12","8","20","4","12","8","8","20","2","20","18","12","8","10","20","10","4","8","12","8","4","20","4","12","18","20","10","24","8","8","8","4","8","10","10","4","12","4","10","4","4","20","12","8","12","12","8","12","4","20","12","12","20","16","10","20","20","12","8","24","12","8","20","10"],"correct_side":[1,2,1,1,2,2,2,2,1,2,1,1,1,1,2,2,2,1,2,1,1,1,2,2,2,1,1,2,1,2,1,2,1,1,2,2,2,1,1,1,1,2,1,2,2,1,2,1,1,1,2,2,1,2,1,2,1,1,1,1,1,1,1,2,2,2,2,2,1,1,2,2,1,1,1,1,2,1,2,2,2,2,2,2,1,2,1,2,1,2,1,1,1,2,2,1,1,2,2,1,1,2,2,2,1,2,2,1,2,1,2,2,1,1,1,2,1,1,1,1],"img_shown":["img/750/randomdotsizeEA/L/13_Ratio_750_L_8_R_6.png","img/750/randomdotsizeEA/R/2_Ratio_750_L_6_R_8.png","img/500/equaldotsize/L/8_Ratio_500_L_8_R_4.png","img/900/equaldotsize/L/4_Ratio_900_L_20_R_18.png","img/250/equaldotanddens/R/12_Ratio_250_L_5_R_20.png","img/900/equaldotsize/R/12_Ratio_900_L_18_R_20.png","img/750/equaldotsize/R/11_Ratio_750_L_12_R_16.png","img/900/equaldotsize/R/3_Ratio_900_L_9_R_10.png","img/250/equaldotanddens/L/7_Ratio_250_L_8_R_2.png","img/250/randomdotsizeEA/R/9_Ratio_250_L_3_R_12.png","img/500/randomdotsizeEA/L/8_Ratio_500_L_8_R_4.png","img/900/equaldotanddens/L/4_Ratio_900_L_20_R_18.png","img/750/randomdotsizeEA/L/1_Ratio_750_L_20_R_15.png","img/500/equaldotsize/L/5_Ratio_500_L_4_R_2.png","img/900/randomdotsizeEA/R/3_Ratio_900_L_9_R_10.png","img/750/equaldotanddens/R/7_Ratio_750_L_3_R_4.png","img/900/equaldotsize/R/5_Ratio_900_L_9_R_10.png","img/900/equaldotsize/L/4_Ratio_900_L_20_R_18.png","img/900/equaldotsize/R/9_Ratio_900_L_18_R_20.png","img/500/randomdotsizeEA/L/7_Ratio_500_L_10_R_5.png","img/750/equaldotsize/L/10_Ratio_750_L_4_R_3.png","img/750/equaldotanddens/L/10_Ratio_750_L_4_R_3.png","img/250/equaldotanddens/R/8_Ratio_250_L_1_R_4.png","img/900/equaldotanddens/R/6_Ratio_900_L_9_R_10.png","img/500/equaldotanddens/R/2_Ratio_500_L_3_R_6.png","img/500/equaldotsize/L/10_Ratio_500_L_4_R_2.png","img/750/randomdotsizeEA/L/8_Ratio_750_L_4_R_3.png","img/250/equaldotsize/R/11_Ratio_250_L_3_R_12.png","img/250/equaldotsize/L/3_Ratio_250_L_8_R_2.png","img/900/randomdotsizeEA/R/6_Ratio_900_L_9_R_10.png","img/750/equaldotsize/L/13_Ratio_750_L_8_R_6.png","img/250/randomdotsizeEA/R/13_Ratio_250_L_2_R_8.png","img/900/randomdotsizeEA/L/1_Ratio_900_L_10_R_9.png","img/250/equaldotsize/L/15_Ratio_250_L_12_R_3.png","img/500/equaldotanddens/R/14_Ratio_500_L_5_R_10.png","img/500/equaldotanddens/R/15_Ratio_500_L_1_R_2.png","img/500/randomdotsizeEA/R/15_Ratio_500_L_1_R_2.png","img/750/randomdotsizeEA/L/1_Ratio_750_L_20_R_15.png","img/900/equaldotanddens/L/1_Ratio_900_L_10_R_9.png","img/500/equaldotsize/L/7_Ratio_500_L_10_R_5.png","img/750/equaldotsize/L/1_Ratio_750_L_20_R_15.png","img/750/equaldotanddens/R/5_Ratio_750_L_15_R_20.png","img/900/equaldotsize/L/2_Ratio_900_L_20_R_18.png","img/900/randomdotsizeEA/R/6_Ratio_900_L_9_R_10.png","img/750/randomdotsizeEA/R/5_Ratio_750_L_15_R_20.png","img/500/equaldotsize/L/11_Ratio_500_L_12_R_6.png","img/250/equaldotanddens/R/9_Ratio_250_L_3_R_12.png","img/900/randomdotsizeEA/L/1_Ratio_900_L_10_R_9.png","img/250/equaldotanddens/L/15_Ratio_250_L_12_R_3.png","img/900/equaldotanddens/L/1_Ratio_900_L_10_R_9.png","img/500/equaldotsize/R/9_Ratio_500_L_2_R_4.png","img/750/equaldotanddens/R/4_Ratio_750_L_15_R_20.png","img/500/randomdotsizeEA/L/11_Ratio_500_L_12_R_6.png","img/750/randomdotsizeEA/R/12_Ratio_750_L_3_R_4.png","img/900/equaldotanddens/L/1_Ratio_900_L_10_R_9.png","img/500/equaldotanddens/R/14_Ratio_500_L_5_R_10.png","img/500/equaldotanddens/L/13_Ratio_500_L_12_R_6.png","img/750/randomdotsizeEA/L/14_Ratio_750_L_8_R_6.png","img/900/randomdotsizeEA/L/8_Ratio_900_L_20_R_18.png","img/750/equaldotanddens/L/9_Ratio_750_L_4_R_3.png","img/500/randomdotsizeEA/L/13_Ratio_500_L_12_R_6.png","img/750/equaldotanddens/L/13_Ratio_750_L_8_R_6.png","img/750/randomdotsizeEA/L/14_Ratio_750_L_8_R_6.png","img/500/equaldotanddens/R/3_Ratio_500_L_10_R_20.png","img/500/randomdotsizeEA/R/12_Ratio_500_L_1_R_2.png","img/900/equaldotsize/R/14_Ratio_900_L_18_R_20.png","img/500/equaldotanddens/R/6_Ratio_500_L_9_R_18.png","img/250/randomdotsizeEA/R/11_Ratio_250_L_3_R_12.png","img/250/equaldotanddens/L/7_Ratio_250_L_8_R_2.png","img/500/equaldotsize/L/7_Ratio_500_L_10_R_5.png","img/750/equaldotanddens/R/3_Ratio_750_L_15_R_20.png","img/900/randomdotsizeEA/R/7_Ratio_900_L_9_R_10.png","img/500/randomdotsizeEA/L/5_Ratio_500_L_4_R_2.png","img/250/equaldotanddens/L/7_Ratio_250_L_8_R_2.png","img/500/equaldotsize/L/11_Ratio_500_L_12_R_6.png","img/250/equaldotsize/L/3_Ratio_250_L_8_R_2.png","img/750/equaldotanddens/R/12_Ratio_750_L_3_R_4.png","img/900/equaldotanddens/L/8_Ratio_900_L_20_R_18.png","img/750/equaldotsize/R/12_Ratio_750_L_3_R_4.png","img/250/randomdotsizeEA/R/11_Ratio_250_L_3_R_12.png","img/500/equaldotsize/R/6_Ratio_500_L_9_R_18.png","img/500/equaldotanddens/R/3_Ratio_500_L_10_R_20.png","img/900/equaldotanddens/R/7_Ratio_900_L_9_R_10.png","img/250/randomdotsizeEA/R/6_Ratio_250_L_6_R_24.png","img/750/equaldotsize/L/13_Ratio_750_L_8_R_6.png","img/750/equaldotsize/R/2_Ratio_750_L_6_R_8.png","img/250/randomdotsizeEA/L/7_Ratio_250_L_8_R_2.png","img/250/randomdotsizeEA/R/8_Ratio_250_L_1_R_4.png","img/250/randomdotsizeEA/L/1_Ratio_250_L_8_R_2.png","img/900/equaldotanddens/R/6_Ratio_900_L_9_R_10.png","img/900/equaldotsize/L/1_Ratio_900_L_10_R_9.png","img/750/equaldotanddens/L/8_Ratio_750_L_4_R_3.png","img/500/equaldotanddens/L/13_Ratio_500_L_12_R_6.png","img/750/equaldotsize/R/7_Ratio_750_L_3_R_4.png","img/900/randomdotsizeEA/R/15_Ratio_900_L_9_R_10.png","img/500/randomdotsizeEA/L/5_Ratio_500_L_4_R_2.png","img/750/randomdotsizeEA/L/10_Ratio_750_L_4_R_3.png","img/900/equaldotsize/R/14_Ratio_900_L_18_R_20.png","img/250/equaldotanddens/R/4_Ratio_250_L_3_R_12.png","img/250/randomdotsizeEA/L/7_Ratio_250_L_8_R_2.png","img/500/equaldotsize/L/13_Ratio_500_L_12_R_6.png","img/250/equaldotsize/R/9_Ratio_250_L_3_R_12.png","img/250/randomdotsizeEA/R/13_Ratio_250_L_2_R_8.png","img/250/equaldotsize/R/4_Ratio_250_L_3_R_12.png","img/750/equaldotsize/L/9_Ratio_750_L_4_R_3.png","img/750/equaldotsize/R/3_Ratio_750_L_15_R_20.png","img/250/equaldotsize/R/9_Ratio_250_L_3_R_12.png","img/500/equaldotanddens/L/11_Ratio_500_L_12_R_6.png","img/750/equaldotanddens/R/5_Ratio_750_L_15_R_20.png","img/250/equaldotsize/L/2_Ratio_250_L_16_R_4.png","img/900/randomdotsizeEA/R/6_Ratio_900_L_9_R_10.png","img/500/randomdotsizeEA/R/3_Ratio_500_L_10_R_20.png","img/900/equaldotanddens/L/2_Ratio_900_L_20_R_18.png","img/500/randomdotsizeEA/L/13_Ratio_500_L_12_R_6.png","img/250/equaldotanddens/L/7_Ratio_250_L_8_R_2.png","img/250/equaldotanddens/R/6_Ratio_250_L_6_R_24.png","img/250/equaldotsize/L/14_Ratio_250_L_12_R_3.png","img/250/equaldotsize/L/7_Ratio_250_L_8_R_2.png","img/900/randomdotsizeEA/L/2_Ratio_900_L_20_R_18.png","img/900/equaldotanddens/L/1_Ratio_900_L_10_R_9.png"],"Rat0":[["12_Ratio_0_L_9_R_0.png","13_Ratio_0_L_6_R_0.png","5_Ratio_0_L_2_R_0.png","6_Ratio_0_L_4_R_0.png","8_Ratio_0_L_6_R_0.png"],["1_Ratio_0_L_0_R_17.png","10_Ratio_0_L_0_R_22.png","11_Ratio_0_L_0_R_1.png","14_Ratio_0_L_0_R_24.png","15_Ratio_0_L_0_R_4.png","2_Ratio_0_L_0_R_5.png","3_Ratio_0_L_0_R_17.png","4_Ratio_0_L_0_R_7.png","7_Ratio_0_L_0_R_19.png","9_Ratio_0_L_0_R_15.png"]],"Rat250":[["1_Ratio_250_L_8_R_2.png","14_Ratio_250_L_12_R_3.png","15_Ratio_250_L_12_R_3.png","2_Ratio_250_L_16_R_4.png","3_Ratio_250_L_8_R_2.png","5_Ratio_250_L_24_R_6.png","7_Ratio_250_L_8_R_2.png"],["10_Ratio_250_L_4_R_16.png","11_Ratio_250_L_3_R_12.png","12_Ratio_250_L_5_R_20.png","13_Ratio_250_L_2_R_8.png","4_Ratio_250_L_3_R_12.png","6_Ratio_250_L_6_R_24.png","8_Ratio_250_L_1_R_4.png","9_Ratio_250_L_3_R_12.png"]],"Rat500":[["10_Ratio_500_L_4_R_2.png","11_Ratio_500_L_12_R_6.png","13_Ratio_500_L_12_R_6.png","4_Ratio_500_L_18_R_9.png","5_Ratio_500_L_4_R_2.png","7_Ratio_500_L_10_R_5.png","8_Ratio_500_L_8_R_4.png"],["1_Ratio_500_L_9_R_18.png","12_Ratio_500_L_1_R_2.png","14_Ratio_500_L_5_R_10.png","15_Ratio_500_L_1_R_2.png","2_Ratio_500_L_3_R_6.png","3_Ratio_500_L_10_R_20.png","6_Ratio_500_L_9_R_18.png","9_Ratio_500_L_2_R_4.png"]],"Rat750":[["1_Ratio_750_L_20_R_15.png","10_Ratio_750_L_4_R_3.png","13_Ratio_750_L_8_R_6.png","14_Ratio_750_L_8_R_6.png","6_Ratio_750_L_24_R_18.png","8_Ratio_750_L_4_R_3.png","9_Ratio_750_L_4_R_3.png"],["11_Ratio_750_L_12_R_16.png","12_Ratio_750_L_3_R_4.png","15_Ratio_750_L_9_R_12.png","2_Ratio_750_L_6_R_8.png","3_Ratio_750_L_15_R_20.png","4_Ratio_750_L_15_R_20.png","5_Ratio_750_L_15_R_20.png","7_Ratio_750_L_3_R_4.png"]],"Rat900":[["1_Ratio_900_L_10_R_9.png","10_Ratio_900_L_20_R_18.png","2_Ratio_900_L_20_R_18.png","4_Ratio_900_L_20_R_18.png","8_Ratio_900_L_20_R_18.png"],["11_Ratio_900_L_18_R_20.png","12_Ratio_900_L_18_R_20.png","13_Ratio_900_L_18_R_20.png","14_Ratio_900_L_18_R_20.png","15_Ratio_900_L_9_R_10.png","3_Ratio_900_L_9_R_10.png","5_Ratio_900_L_9_R_10.png","6_Ratio_900_L_9_R_10.png","7_Ratio_900_L_9_R_10.png","9_Ratio_900_L_18_R_20.png"]],"Rat1000":[["10_Ratio_1000_L_16_R_16.png","11_Ratio_1000_L_6_R_6.png","12_Ratio_1000_L_14_R_14.png","13_Ratio_1000_L_20_R_20.png","15_Ratio_1000_L_15_R_15.png","2_Ratio_1000_L_17_R_17.png","4_Ratio_1000_L_9_R_9.png","5_Ratio_1000_L_6_R_6.png","6_Ratio_1000_L_19_R_19.png","8_Ratio_1000_L_14_R_14.png","9_Ratio_1000_L_25_R_25.png"],["1_Ratio_1000_L_1_R_1.png","14_Ratio_1000_L_17_R_17.png","3_Ratio_1000_L_17_R_17.png","7_Ratio_1000_L_6_R_6.png"]]}},{"start_time":1552055069244,"click_time":1552055070539,"finger_time":1552055070119,"fix_duration":1442.2567981383713,"trial":1,"RT":875,"MT":420,"sideResp":1,"stimulus":"img/750/randomdotsizeEA/R/2_Ratio_750_L_6_R_8.png","xmouse":[793,793,793,793,793,793,793,793,793,793,793,793,793,793,793,793,793,793,793,793,793,793,793,793,793,793,793,793,793,793,793,793,793,793,793,793,793,793,793,793,793,792,777,760,743,713,684,631,611,592,575,550,545,541,540,539,538,537,537,536,536,534,532,527,517],"ymouse":[496,496,496,496,496,496,496,496,496,496,496,496,496,496,496,496,496,496,496,496,496,496,496,496,496,496,496,496,496,496,496,496,496,496,496,496,496,496,496,496,496,496,486,467,447,411,378,314,282,250,217,156,137,126,121,119,117,114,113,113,113,111,109,108,98],"timestamp_mouse":[14,35,55,74,96,115,135,155,175,195,215,234,256,275,295,315,335,354,375,395,414,435,455,475,495,515,536,555,574,595,615,636,655,674,695,716,736,756,776,796,816,835,854,875,895,914,934,954,974,996,1015,1035,1054,1074,1095,1114,1134,1154,1174,1196,1214,1236,1254,1274,1295],"xSR":741.5,"ySR":469.95,"xT1":424.9,"yT1":0,"xT2":1058.1,"yT2":0,"toosoon":0,"cond_shown":"randomdotsizeEA","ratio_trial":750,"smaller_num":"6","larger_num":"8","correct_side":2,"subjID":"JuanSebastianGonzalez","gender":"0","age":"No_ag","school":"4"},{"start_time":1552055072084,"click_time":1552055074179,"finger_time":1552055073298,"fix_duration":824.5570119483058,"trial":2,"RT":1214,"MT":881,"sideResp":1,"stimulus":"img/500/equaldotsize/L/8_Ratio_500_L_8_R_4.png","xmouse":[798,798,798,798,798,798,798,798,798,798,798,798,798,798,798,798,798,798,798,798,798,798,798,798,798,798,798,798,798,798,798,798,798,798,798,798,798,798,798,798,798,798,798,798,798,798,798,798,798,798,798,798,798,799,799,800,800,800,798,768,733,697,674,664,655,653,652,650,648,645,644,644,644,644,644,640,630,615,600,584,546,531,517,502,476,467,458,448,440,429,429,429,429,429,429,429,429,429,429,429,433,435,438,440,442],"ymouse":[499,499,499,499,499,499,499,499,499,499,499,499,499,499,499,499,499,499,499,499,499,499,499,499,499,499,499,499,499,499,499,499,499,499,499,499,499,499,499,499,499,499,499,499,499,499,499,499,499,499,499,499,499,496,494,493,493,493,493,499,511,522,528,531,533,532,528,519,500,478,473,473,472,472,472,464,439,406,382,361,313,299,287,274,249,231,206,179,156,130,128,127,127,127,127,123,122,121,120,118,113,109,105,102,98],"timestamp_mouse":[20,38,54,74,95,115,135,154,174,195,214,235,254,274,294,315,335,354,374,394,415,435,454,474,496,515,534,555,574,594,615,634,654,674,695,715,736,754,774,795,815,834,855,874,895,916,936,954,974,994,1015,1035,1055,1075,1095,1115,1134,1155,1174,1195,1214,1235,1255,1274,1296,1314,1334,1355,1375,1394,1416,1434,1455,1474,1495,1514,1534,1555,1574,1594,1614,1636,1655,1675,1696,1714,1734,1754,1774,1795,1814,1835,1855,1874,1894,1915,1935,1955,1975,1994,2014,2034,2054,2074,2095],"xSR":741.5,"ySR":469.95,"xT1":424.9,"yT1":0,"xT2":1058.1,"yT2":0,"toosoon":0,"cond_shown":"equaldotsize","ratio_trial":500,"smaller_num":"4","larger_num":"8","correct_side":1,"subjID":"JuanSebastianGonzalez","gender":"0","age":"No_ag","school":"4"},{"start_time":1552055076425,"click_time":1552055078958,"finger_time":1552055076638,"fix_duration":943.9589126441483,"trial":3,"RT":213,"MT":2320,"sideResp":1,"stimulus":"img/900/equaldotsize/L/4_Ratio_900_L_20_R_18.png","xmouse":[834,834,834,834,834,834,834,836,790,756,738,735,735,735,735,735,735,735,735,735,735,735,735,735,735,735,735,735,735,735,735,737,745,754,757,759,759,759,759,759,759,759,759,759,760,760,752,749,748,748,748,747,746,746,746,746,746,746,746,747,750,754,757,759,760,762,765,769,787,789,793,797,802,804,808,814,830,835,864,875,888,898,912,914,915,916,916,916,916,916,916,916,916,908,895,880,863,861,861,861,861,859,856,834,805,768,733,662,638,616,594,576,562,541,538,537,537,537,537,537,537,537,537,537,537,537,512],"ymouse":[543,543,543,543,543,543,543,544,524,512,507,506,506,506,506,506,506,506,506,506,506,506,506,506,506,506,506,506,506,506,506,506,510,513,513,514,514,514,514,514,514,514,514,514,514,510,491,485,480,478,476,473,468,467,465,465,465,465,464,464,464,465,467,467,469,469,471,472,480,482,483,485,485,485,484,479,461,453,403,382,358,337,310,306,304,302,302,302,302,302,302,302,302,309,320,330,339,341,341,341,341,341,342,320,272,213,168,109,97,88,80,74,70,67,67,68,68,68,68,68,68,68,68,68,68,68,57],"timestamp_mouse":[13,36,54,74,95,113,133,153,175,193,213,233,254,274,294,314,334,355,374,393,414,434,454,474,493,514,533,554,574,593,613,633,653,673,694,713,735,754,774,794,814,835,854,873,893,914,933,953,973,993,1014,1034,1055,1073,1093,1114,1134,1153,1173,1193,1213,1233,1254,1273,1294,1313,1333,1353,1373,1394,1414,1434,1454,1473,1495,1514,1534,1553,1574,1593,1613,1633,1654,1673,1693,1713,1733,1754,1773,1793,1814,1835,1853,1873,1893,1913,1933,1955,1973,1994,2015,2033,2054,2073,2094,2113,2135,2154,2173,2193,2214,2234,2253,2273,2294,2313,2333,2353,2373,2393,2414,2433,2455,2473,2493,2514,2533],"xSR":741.5,"ySR":469.95,"xT1":424.9,"yT1":0,"xT2":1058.1,"yT2":0,"toosoon":0,"cond_shown":"equaldotsize","ratio_trial":900,"smaller_num":"18","larger_num":"20","correct_side":1,"subjID":"JuanSebastianGonzalez","gender":"0","age":"No_ag","school":"4"},{"start_time":1552055080497,"click_time":1552055081479,"finger_time":1552055081298,"fix_duration":257.06041312271543,"trial":4,"RT":801,"MT":181,"sideResp":2,"stimulus":"img/250/equaldotanddens/R/12_Ratio_250_L_5_R_20.png","xmouse":[794,794,794,794,794,794,794,794,789,788,788,788,788,788,788,788,788,788,788,788,788,788,788,788,788,788,788,788,788,788,788,788,788,788,788,788,788,793,799,830,842,860,888,931,1000,1048,1051,1053,1055,1060],"ymouse":[511,511,511,511,511,511,511,511,511,511,511,511,511,511,511,511,511,511,511,511,511,511,511,511,511,511,511,511,511,511,511,511,511,511,511,511,511,511,511,501,493,480,459,420,341,233,193,151,124,94],"timestamp_mouse":[9,37,41,62,82,102,121,141,161,182,202,223,241,261,282,302,321,342,361,382,402,422,441,463,481,501,523,543,563,582,602,623,642,663,681,702,723,741,763,782,801,821,841,863,882,902,921,943,961,981],"xSR":741.5,"ySR":469.95,"xT1":424.9,"yT1":0,"xT2":1058.1,"yT2":0,"toosoon":0,"cond_shown":"equaldotanddens","ratio_trial":250,"smaller_num":"5","larger_num":"20","correct_side":2,"subjID":"JuanSebastianGonzalez","gender":"0","age":"No_ag","school":"4"},{"start_time":1552055083389,"click_time":1552055085798,"finger_time":1552055084218,"fix_duration":788.1580080896965,"trial":5,"RT":829,"MT":1580,"sideResp":2,"stimulus":"img/900/equaldotsize/R/12_Ratio_900_L_18_R_20.png","xmouse":[775,775,775,775,775,775,775,775,775,775,775,775,775,775,775,775,775,775,775,775,775,775,775,775,775,775,775,775,778,781,785,785,786,786,786,786,786,786,786,786,781,777,771,765,762,759,759,756,754,750,724,710,693,680,652,636,622,616,616,616,616,616,616,616,616,616,616,616,616,616,533,533,533,533,533,533,533,533,533,533,533,533,533,533,533,533,533,533,535,538,546,549,553,556,558,563,565,571,572,581,605,620,634,649,665,699,719,740,757,796,814,832,848,865,892,902,910,923,948,1054,1086],"ymouse":[522,522,522,522,522,522,522,522,522,522,522,522,522,522,522,522,522,522,522,522,522,522,522,522,522,522,522,522,521,521,519,519,519,519,519,519,519,519,513,507,480,465,450,436,431,421,417,411,401,384,296,240,192,151,70,37,14,3,3,3,3,3,3,3,3,3,3,3,3,3,18,39,54,65,70,72,74,77,79,84,87,89,89,89,89,89,89,91,100,111,128,134,138,141,143,145,145,145,145,145,134,128,124,120,117,117,117,117,117,118,120,123,125,127,131,132,132,132,124,80,74],"timestamp_mouse":[13,37,50,71,89,110,130,150,171,190,210,230,250,270,291,311,330,349,370,390,410,429,449,469,490,510,530,549,570,589,610,631,650,669,690,710,731,749,770,789,811,829,850,869,889,909,930,949,969,989,1010,1030,1051,1070,1090,1109,1130,1149,1170,1190,1210,1230,1250,1271,1291,1311,1330,1350,1370,1389,1411,1429,1450,1471,1490,1509,1529,1550,1571,1589,1609,1630,1649,1670,1690,1710,1730,1749,1770,1789,1809,1829,1850,1869,1891,1909,1930,1949,1969,1990,2011,2029,2050,2069,2090,2109,2131,2151,2170,2190,2209,2229,2250,2270,2291,2309,2330,2350,2370,2390,2409],"xSR":741.5,"ySR":469.95,"xT1":424.9,"yT1":0,"xT2":1058.1,"yT2":0,"toosoon":0,"cond_shown":"equaldotsize","ratio_trial":900,"smaller_num":"18","larger_num":"20","correct_side":2,"subjID":"JuanSebastianGonzalez","gender":"0","age":"No_ag","school":"4"},{"start_time":1552055087176,"click_time":1552055088358,"finger_time":1552055088259,"fix_duration":295.2877203161424,"trial":6,"RT":1083,"MT":99,"sideResp":2,"stimulus":"img/750/equaldotsize/R/11_Ratio_750_L_12_R_16.png","xmouse":[774,774,774,774,774,774,774,774,774,774,774,774,774,774,774,774,774,774,774,774,774,774,774,774,774,774,774,774,774,774,774,774,774,774,774,774,774,774,774,774,774,774,774,774,774,774,774,774,780,786,786,795,813,837,866,951,1003,1066,1112,1135],"ymouse":[550,550,550,550,550,550,550,550,550,550,550,550,550,550,550,550,550,550,550,550,550,550,550,550,550,550,550,550,550,550,550,550,550,550,550,550,550,550,550,550,550,550,550,550,550,550,550,550,550,553,553,553,549,533,509,424,355,241,141,87],"timestamp_mouse":[13,33,43,63,83,102,123,143,162,183,202,223,242,262,283,304,323,343,362,382,403,424,443,463,484,504,523,542,564,583,602,622,643,662,683,702,722,743,763,782,804,824,843,862,883,903,922,943,962,983,1002,1023,1042,1062,1083,1104,1122,1143,1163,1182],"xSR":741.5,"ySR":469.95,"xT1":424.9,"yT1":0,"xT2":1058.1,"yT2":0,"toosoon":0,"cond_shown":"equaldotsize","ratio_trial":750,"smaller_num":"12","larger_num":"16","correct_side":2,"subjID":"JuanSebastianGonzalez","gender":"0","age":"No_ag","school":"4"},{"start_time":1552055091770,"click_time":1552055093399,"finger_time":1552055092719,"fix_duration":250,"trial":7,"RT":949,"MT":680,"sideResp":2,"stimulus":"img/900/equaldotsize/R/3_Ratio_900_L_9_R_10.png","xmouse":[801,801,801,801,801,801,801,801,801,801,801,801,801,801,801,801,801,801,801,801,801,801,801,801,801,801,801,801,801,801,801,801,801,801,801,801,801,801,801,801,801,801,801,801,801,801,834,871,901,931,943,954,958,964,970,993,1007,1018,1026,1032,1043,1067,1086,1110,1137,1160,1185,1186,1186,1186,1186,1186,1186,1186,1186,1186,1186,1184,1181,1176,1166,1152],"ymouse":[551,551,551,551,551,551,551,551,551,551,551,551,551,551,551,551,551,551,551,551,551,551,551,551,551,551,551,551,551,551,551,551,551,551,551,551,551,551,551,551,551,551,551,551,551,546,504,458,426,391,373,346,327,306,283,234,213,200,187,177,163,142,132,125,120,118,115,115,115,115,115,115,115,115,115,115,115,115,113,110,100,87],"timestamp_mouse":[12,41,49,69,88,108,128,148,168,189,208,229,248,268,289,310,330,349,368,388,409,429,449,469,490,509,529,549,570,589,608,629,649,670,689,709,728,749,769,789,808,828,848,868,889,908,928,949,969,989,1008,1028,1048,1070,1088,1109,1128,1148,1168,1188,1208,1228,1248,1269,1289,1308,1329,1349,1369,1388,1409,1429,1449,1470,1489,1508,1528,1548,1568,1588,1608,1629],"xSR":741.5,"ySR":469.95,"xT1":424.9,"yT1":0,"xT2":1058.1,"yT2":0,"toosoon":0,"cond_shown":"equaldotsize","ratio_trial":900,"smaller_num":"9","larger_num":"10","correct_side":2,"subjID":"JuanSebastianGonzalez","gender":"0","age":"No_ag","school":"4"},{"start_time":1552055095989,"click_time":1552055097298,"finger_time":1552055096938,"fix_duration":1329.9396039242417,"trial":8,"RT":949,"MT":360,"sideResp":1,"stimulus":"img/250/equaldotanddens/L/7_Ratio_250_L_8_R_2.png","xmouse":[803,803,803,803,803,803,803,803,803,803,803,803,803,803,803,803,803,803,803,803,803,803,803,803,803,803,803,803,803,803,803,803,803,803,803,803,803,803,803,803,803,803,803,803,803,801,784,765,740,711,679,671,665,657,640,624,592,582,568,561,556,555,554,548,525,518],"ymouse":[534,534,534,534,534,534,534,534,534,534,534,534,534,534,534,534,534,534,534,534,534,534,534,534,534,534,534,534,534,534,534,534,534,534,534,534,534,534,534,534,534,534,534,534,534,522,495,465,435,401,355,340,326,309,268,239,188,174,155,143,134,133,131,121,86,80],"timestamp_mouse":[12,38,49,71,89,110,130,150,171,190,210,229,249,269,290,311,331,350,370,390,409,430,450,469,489,510,530,550,570,590,609,629,649,669,690,710,730,749,769,789,809,829,849,871,889,909,929,949,969,990,1011,1029,1049,1069,1091,1109,1129,1149,1170,1189,1209,1229,1249,1270,1291,1309],"xSR":741.5,"ySR":469.95,"xT1":424.9,"yT1":0,"xT2":1058.1,"yT2":0,"toosoon":0,"cond_shown":"equaldotanddens","ratio_trial":250,"smaller_num":"2","larger_num":"8","correct_side":1,"subjID":"JuanSebastianGonzalez","gender":"0","age":"No_ag","school":"4"},{"start_time":1552055098631,"click_time":1552055100178,"finger_time":1552055099578,"fix_duration":250,"trial":9,"RT":947,"MT":600,"sideResp":2,"stimulus":"img/250/randomdotsizeEA/R/9_Ratio_250_L_3_R_12.png","xmouse":[773,773,773,773,773,773,773,773,773,773,773,773,773,773,773,773,773,773,773,773,773,773,773,773,773,773,773,773,773,773,773,773,773,773,773,773,773,773,773,773,773,773,773,773,773,776,785,944,1019,1070,1095,1103,1105,1105,1101,1095,1089,1072,1065,1063,1060,1059,1059,1059,1059,1059,1059,1063,1065,1065,1066,1066,1066,1066,1065,1064,1064,1064],"ymouse":[515,515,515,515,515,515,515,515,515,515,515,515,515,515,515,515,515,515,515,515,515,515,515,515,515,515,515,515,515,515,515,515,515,515,515,515,515,515,515,515,515,515,515,515,515,515,511,463,430,408,391,380,369,337,318,297,275,231,216,205,197,193,191,185,181,177,172,152,146,140,135,131,127,116,110,106,100,94],"timestamp_mouse":[12,34,48,68,88,107,128,148,168,188,208,228,248,269,288,308,327,348,367,387,408,427,448,469,489,508,528,548,569,587,608,627,649,668,688,708,728,747,768,789,808,827,848,868,888,907,928,947,967,987,1007,1027,1048,1067,1087,1108,1128,1148,1167,1187,1208,1227,1249,1268,1288,1309,1329,1349,1367,1387,1408,1427,1448,1467,1488,1508,1527,1547],"xSR":741.5,"ySR":469.95,"xT1":424.9,"yT1":0,"xT2":1058.1,"yT2":0,"toosoon":0,"cond_shown":"randomdotsizeEA","ratio_trial":250,"smaller_num":"3","larger_num":"12","correct_side":2,"subjID":"JuanSebastianGonzalez","gender":"0","age":"No_ag","school":"4"},{"start_time":1552055101374,"click_time":1552055102680,"finger_time":1552055102279,"fix_duration":453.0161073258748,"trial":10,"RT":905,"MT":401,"sideResp":1,"stimulus":"img/500/randomdotsizeEA/L/8_Ratio_500_L_8_R_4.png","xmouse":[779,779,779,779,779,780,780,781,781,781,782,782,782,782,783,783,785,786,786,787,788,789,789,790,791,793,793,793,793,793,793,793,793,794,794,794,794,794,794,794,794,794,794,794,794,774,682,620,549,475,449,427,423,422,421,421,421,421,420,420,420,420,420,420,423,433],"ymouse":[499,499,499,499,499,500,500,500,500,500,501,501,501,501,501,501,502,502,502,503,503,503,503,503,503,504,504,504,504,504,504,504,504,504,504,504,504,504,504,504,504,504,504,503,495,465,365,314,264,209,185,152,143,138,136,135,135,135,134,134,132,129,126,122,114,84],"timestamp_mouse":[12,40,45,64,84,105,125,145,166,185,205,225,244,266,284,304,324,344,364,385,404,425,444,464,485,504,525,544,565,584,606,625,644,666,685,705,726,744,765,784,806,825,845,864,884,905,924,944,964,985,1005,1025,1044,1065,1084,1106,1125,1145,1166,1186,1204,1225,1245,1264,1286,1305],"xSR":741.5,"ySR":469.95,"xT1":424.9,"yT1":0,"xT2":1058.1,"yT2":0,"toosoon":0,"cond_shown":"randomdotsizeEA","ratio_trial":500,"smaller_num":"4","larger_num":"8","correct_side":1,"subjID":"JuanSebastianGonzalez","gender":"0","age":"No_ag","school":"4"},{"start_time":1552055104443,"click_time":1552055105639,"finger_time":1552055105158,"fix_duration":981.267563302247,"trial":11,"RT":715,"MT":481,"sideResp":2,"stimulus":"img/900/equaldotanddens/L/4_Ratio_900_L_20_R_18.png","xmouse":[778,778,778,778,778,778,778,778,778,778,778,778,778,778,778,778,778,778,778,778,778,778,778,778,778,778,778,778,778,778,778,778,781,786,798,824,862,883,901,922,938,961,968,974,979,981,990,995,1001,1005,1008,1017,1020,1025,1029,1033,1045,1051,1058,1064],"ymouse":[495,495,495,495,495,495,495,495,495,495,495,495,495,495,495,495,495,495,495,495,495,495,495,495,495,495,495,495,495,495,495,495,493,490,481,463,436,419,398,368,332,265,242,223,210,202,190,183,175,168,164,151,147,141,135,129,107,95,83,73],"timestamp_mouse":[16,35,56,77,96,116,135,157,175,195,215,237,255,276,296,315,337,356,376,395,416,435,456,475,496,516,536,556,577,596,616,637,656,676,696,715,736,755,775,796,816,836,855,876,895,915,937,955,975,995,1015,1036,1055,1077,1096,1115,1137,1155,1175,1195],"xSR":741.5,"ySR":469.95,"xT1":424.9,"yT1":0,"xT2":1058.1,"yT2":0,"toosoon":0,"cond_shown":"equaldotanddens","ratio_trial":900,"smaller_num":"18","larger_num":"20","correct_side":1,"subjID":"JuanSebastianGonzalez","gender":"0","age":"No_ag","school":"4"},{"start_time":1552055106910,"click_time":1552055107779,"finger_time":1552055107679,"fix_duration":250,"trial":12,"RT":769,"MT":100,"sideResp":1,"stimulus":"img/750/randomdotsizeEA/L/1_Ratio_750_L_20_R_15.png","xmouse":[777,777,777,777,777,777,777,777,777,777,777,777,777,777,777,777,777,777,777,777,775,773,769,767,767,767,767,767,767,767,767,767,767,767,767,767,767,767,756,740,712,671,621,515],"ymouse":[516,516,516,516,516,516,516,516,516,516,516,516,516,516,516,516,516,516,516,516,510,505,498,494,494,494,494,494,494,494,494,494,494,494,494,494,493,488,441,401,336,260,179,17],"timestamp_mouse":[15,38,49,70,90,109,129,148,168,189,208,228,248,268,288,308,330,348,369,388,408,428,449,469,489,508,529,548,568,588,608,629,649,668,690,710,729,748,769,788,808,829,850,869],"xSR":741.5,"ySR":469.95,"xT1":424.9,"yT1":0,"xT2":1058.1,"yT2":0,"toosoon":0,"cond_shown":"randomdotsizeEA","ratio_trial":750,"smaller_num":"15","larger_num":"20","correct_side":1,"subjID":"JuanSebastianGonzalez","gender":"0","age":"No_ag","school":"4"},{"start_time":1552055110670,"click_time":1552055113378,"finger_time":1552055112258,"fix_duration":250,"trial":13,"RT":1588,"MT":1120,"sideResp":1,"stimulus":"img/500/equaldotsize/L/5_Ratio_500_L_4_R_2.png","xmouse":[782,782,782,782,782,782,782,782,782,782,782,782,782,782,782,782,782,782,782,782,782,782,782,782,782,782,782,782,782,782,782,782,782,782,782,782,782,782,782,782,782,782,782,782,782,782,782,782,782,782,782,782,782,782,782,782,782,782,782,782,782,782,782,782,782,782,782,782,782,782,782,782,782,782,782,782,782,787,830,875,892,895,895,895,895,895,895,895,897,899,899,893,883,868,843,744,701,671,655,651,650,650,650,650,650,650,650,649,647,644,635,632,630,628,628,627,627,627,626,623,609,596,585,572,571,570,570,570,570,570,570,568,564,555,545,524],"ymouse":[541,541,541,541,541,541,541,541,541,541,541,541,541,541,541,541,541,541,541,541,541,541,541,541,541,541,541,541,541,541,541,541,541,541,541,541,541,541,541,541,541,541,541,541,541,541,541,541,541,541,541,541,541,541,541,541,541,541,541,541,541,541,541,541,541,541,541,541,541,541,541,541,541,541,541,541,541,541,541,532,530,530,530,530,530,530,529,522,508,495,474,455,433,399,339,149,77,29,7,2,2,2,2,2,2,2,1,1,2,6,18,22,24,26,26,26,26,26,26,29,43,51,58,66,66,66,66,66,66,66,66,66,66,62,62,68],"timestamp_mouse":[12,39,49,69,88,110,128,149,170,190,209,229,248,269,288,308,330,349,368,389,409,430,448,468,488,508,529,549,569,588,609,630,648,668,690,708,728,748,768,788,809,829,848,869,890,909,929,950,968,989,1010,1028,1049,1069,1090,1108,1129,1149,1168,1190,1210,1229,1248,1269,1288,1308,1330,1350,1369,1388,1408,1429,1448,1468,1490,1510,1529,1548,1568,1588,1609,1629,1649,1668,1689,1709,1728,1748,1769,1788,1809,1828,1849,1868,1889,1909,1928,1948,1968,1988,2010,2030,2049,2069,2089,2109,2129,2149,2170,2189,2210,2228,2248,2269,2289,2310,2330,2349,2368,2388,2410,2428,2449,2468,2489,2509,2529,2550,2570,2589,2609,2628,2648,2668,2689,2708],"xSR":741.5,"ySR":469.95,"xT1":424.9,"yT1":0,"xT2":1058.1,"yT2":0,"toosoon":0,"cond_shown":"equaldotsize","ratio_trial":500,"smaller_num":"2","larger_num":"4","correct_side":1,"subjID":"JuanSebastianGonzalez","gender":"0","age":"No_ag","school":"4"},{"start_time":1552055115428,"click_time":1552055117799,"finger_time":1552055116258,"fix_duration":748.0778758801015,"trial":14,"RT":830,"MT":1541,"sideResp":1,"stimulus":"img/900/randomdotsizeEA/R/3_Ratio_900_L_9_R_10.png","xmouse":[795,795,795,795,795,795,795,795,795,795,795,795,795,795,795,795,795,795,795,795,795,795,795,795,795,795,795,795,795,795,795,795,795,795,795,795,795,795,795,800,813,819,819,819,819,819,819,819,819,819,819,819,819,819,819,819,819,819,819,819,819,819,819,820,825,832,838,844,856,870,885,895,898,898,898,898,898,898,898,894,889,884,868,860,853,848,843,835,797,782,767,752,723,719,718,716,712,702,681,665,615,615,542,512,493,478,470,464,461,456,451,446,440,439,438,438,438,439,446],"ymouse":[496,496,496,496,496,496,496,496,496,496,496,496,496,496,496,496,496,496,496,496,496,496,496,496,496,496,496,496,496,496,496,496,496,496,496,496,496,496,496,517,563,582,583,583,583,583,583,583,583,583,583,583,583,583,583,583,583,583,583,583,583,583,583,581,568,556,547,534,519,500,483,472,468,468,468,468,468,468,468,468,470,470,470,470,469,467,463,452,384,361,335,311,265,258,255,252,248,239,226,220,204,204,191,186,179,173,170,168,167,163,155,142,124,120,118,117,115,111,98],"timestamp_mouse":[12,37,51,71,91,111,130,150,170,191,211,231,250,271,291,311,330,351,371,392,411,431,451,470,492,511,530,552,572,591,611,631,651,671,692,710,731,750,771,790,811,830,851,871,890,912,930,951,970,991,1011,1030,1051,1071,1090,1111,1132,1151,1170,1191,1212,1230,1251,1270,1290,1310,1330,1350,1371,1390,1410,1430,1451,1471,1490,1511,1530,1550,1570,1591,1611,1631,1652,1670,1691,1710,1731,1752,1771,1790,1811,1830,1851,1870,1891,1910,1930,1951,1970,1990,2019,2031,2051,2070,2090,2110,2130,2152,2170,2190,2210,2230,2252,2270,2292,2311,2331,2350,2370],"xSR":741.5,"ySR":469.95,"xT1":424.9,"yT1":0,"xT2":1058.1,"yT2":0,"toosoon":0,"cond_shown":"randomdotsizeEA","ratio_trial":900,"smaller_num":"9","larger_num":"10","correct_side":2,"subjID":"JuanSebastianGonzalez","gender":"0","age":"No_ag","school":"4"},{"start_time":1552055119931,"click_time":1552055121359,"finger_time":1552055120960,"fix_duration":750.596860387869,"trial":15,"RT":1029,"MT":399,"sideResp":2,"stimulus":"img/750/equaldotanddens/R/7_Ratio_750_L_3_R_4.png","xmouse":[771,771,771,771,771,771,771,771,771,771,771,771,771,771,771,771,771,771,771,771,771,771,771,771,771,771,771,771,771,771,771,771,771,771,771,771,771,771,771,771,771,771,771,771,771,771,771,771,771,771,801,826,930,978,1021,1046,1058,1066,1070,1072,1074,1074,1074,1075,1075,1075,1075,1075,1076,1080,1089,1099],"ymouse":[517,517,517,517,517,517,517,517,517,517,517,517,517,517,517,517,517,517,517,517,517,517,517,517,517,517,517,517,517,517,517,517,517,517,517,517,517,517,517,517,517,517,517,517,517,517,517,517,517,517,475,434,322,286,256,236,221,206,189,181,175,172,172,171,171,171,171,166,154,136,109,86],"timestamp_mouse":[12,34,48,67,87,107,127,148,169,187,208,228,248,268,289,308,327,347,367,387,408,429,448,468,487,508,528,548,569,588,609,628,648,667,687,708,727,749,769,788,808,828,848,868,887,908,929,947,969,988,1008,1029,1049,1067,1087,1109,1127,1149,1168,1189,1208,1227,1248,1267,1289,1308,1327,1348,1367,1387,1407,1427],"xSR":741.5,"ySR":469.95,"xT1":424.9,"yT1":0,"xT2":1058.1,"yT2":0,"toosoon":0,"cond_shown":"equaldotanddens","ratio_trial":750,"smaller_num":"3","larger_num":"4","correct_side":2,"subjID":"JuanSebastianGonzalez","gender":"0","age":"No_ag","school":"4"},{"start_time":1552055122669,"click_time":1552055124680,"finger_time":1552055123719,"fix_duration":588.3975521639657,"trial":16,"RT":1050,"MT":961,"sideResp":2,"stimulus":"img/900/equaldotsize/R/5_Ratio_900_L_9_R_10.png","xmouse":[767,767,767,767,767,767,767,770,771,774,776,781,782,784,784,784,784,784,784,784,784,784,784,784,784,784,784,784,784,784,784,784,784,784,784,784,784,784,784,784,784,784,784,784,784,784,784,784,785,794,821,833,842,847,848,852,855,863,871,883,914,928,943,957,971,1004,1013,1020,1027,1032,1036,1042,1045,1051,1058,1069,1088,1090,1090,1090,1090,1090,1090,1090,1090,1090,1090,1090,1090,1090,1090,1090,1090,1090,1090,1090,1090,1090,1090,1090,1092],"ymouse":[559,559,559,559,559,559,559,559,558,557,556,554,554,553,553,553,553,553,553,553,553,553,553,553,553,553,553,553,553,553,553,553,553,553,553,553,553,553,553,553,553,553,553,553,553,553,553,553,550,534,496,479,468,461,459,452,447,435,423,408,370,354,337,319,299,246,225,207,192,180,171,158,150,141,132,122,106,105,105,105,105,105,105,105,105,105,105,105,105,105,105,105,105,105,105,105,105,105,105,105,99],"timestamp_mouse":[12,44,49,69,90,109,130,150,171,190,209,229,250,270,291,311,329,350,370,389,410,431,451,470,490,509,529,549,569,591,611,630,649,671,689,709,729,751,770,789,810,831,851,870,890,910,930,949,969,990,1011,1030,1050,1069,1089,1111,1129,1150,1169,1189,1211,1229,1251,1270,1291,1310,1329,1349,1371,1389,1411,1429,1450,1469,1489,1510,1529,1549,1569,1591,1611,1630,1650,1669,1689,1709,1729,1749,1770,1790,1811,1830,1850,1869,1889,1910,1929,1950,1971,1990,2011],"xSR":741.5,"ySR":469.95,"xT1":424.9,"yT1":0,"xT2":1058.1,"yT2":0,"toosoon":0,"cond_shown":"equaldotsize","ratio_trial":900,"smaller_num":"9","larger_num":"10","correct_side":2,"subjID":"JuanSebastianGonzalez","gender":"0","age":"No_ag","school":"4"},{"start_time":1552055126337,"click_time":1552055127998,"finger_time":1552055127318,"fix_duration":376.43277201145077,"trial":17,"RT":981,"MT":680,"sideResp":2,"stimulus":"img/900/equaldotsize/L/4_Ratio_900_L_20_R_18.png","xmouse":[773,773,773,773,773,773,773,773,773,773,773,773,773,773,773,773,773,773,773,773,773,773,773,773,773,773,773,773,773,773,773,773,773,773,773,773,773,773,773,773,773,773,773,773,773,773,773,774,793,819,838,852,866,880,885,892,907,938,953,967,977,983,988,990,991,996,1002,1023,1033,1037,1039,1040,1042,1042,1043,1043,1043,1044,1047,1050,1052,1054,1056,1059],"ymouse":[527,527,527,527,527,527,527,527,527,527,527,527,527,527,527,527,527,527,527,527,527,527,527,527,527,527,527,527,527,527,527,527,527,527,527,527,527,527,527,527,527,527,527,527,527,527,527,526,489,453,433,421,413,405,402,398,387,355,336,314,299,286,274,271,267,258,250,229,219,210,201,195,187,180,178,177,176,169,160,150,138,127,113,94],"timestamp_mouse":[10,21,42,62,82,101,122,141,163,183,202,222,242,262,281,302,322,341,362,382,401,422,442,462,483,503,522,541,562,583,602,622,641,661,683,703,722,741,761,783,803,822,841,861,881,902,921,941,962,981,1001,1021,1042,1061,1082,1103,1121,1142,1161,1182,1201,1222,1242,1262,1281,1301,1321,1343,1361,1381,1401,1422,1441,1461,1482,1502,1523,1543,1561,1582,1602,1622,1641,1661],"xSR":741.5,"ySR":469.95,"xT1":424.9,"yT1":0,"xT2":1058.1,"yT2":0,"toosoon":0,"cond_shown":"equaldotsize","ratio_trial":900,"smaller_num":"18","larger_num":"20","correct_side":1,"subjID":"JuanSebastianGonzalez","gender":"0","age":"No_ag","school":"4"},{"start_time":1552055130334,"click_time":1552055131898,"finger_time":1552055131159,"fix_duration":1233.7850267788147,"trial":18,"RT":825,"MT":739,"sideResp":2,"stimulus":"img/900/equaldotsize/R/9_Ratio_900_L_18_R_20.png","xmouse":[761,761,761,761,761,761,761,761,761,761,761,761,761,761,761,761,761,761,761,761,761,761,761,761,761,761,761,761,761,761,761,761,761,761,761,761,761,761,767,773,793,871,956,1121,1179,1218,1241,1265,1271,1276,1280,1285,1289,1289,1289,1289,1289,1276,1269,1262,1259,1259,1259,1259,1255,1252,1243,1220,1210,1198,1192,1190,1189,1187,1185,1176,1169,1164,1155],"ymouse":[529,529,529,529,529,529,529,529,529,529,529,529,529,529,529,529,529,529,529,529,529,529,529,529,529,529,529,529,529,529,529,529,529,529,529,529,529,529,525,520,510,489,473,442,420,402,387,359,345,330,316,298,239,213,182,151,121,68,50,42,38,38,38,38,38,40,47,64,72,78,81,82,82,83,83,83,80,77,69],"timestamp_mouse":[13,25,44,65,84,105,124,145,164,184,205,226,246,264,286,305,325,345,366,384,405,425,445,464,485,506,525,545,566,586,605,626,645,665,686,705,726,744,765,785,804,825,844,866,884,905,924,945,964,984,1005,1024,1046,1065,1084,1105,1124,1146,1164,1185,1205,1225,1245,1264,1284,1305,1324,1346,1364,1385,1406,1425,1445,1464,1484,1505,1524,1544,1564],"xSR":741.5,"ySR":469.95,"xT1":424.9,"yT1":0,"xT2":1058.1,"yT2":0,"toosoon":0,"cond_shown":"equaldotsize","ratio_trial":900,"smaller_num":"18","larger_num":"20","correct_side":2,"subjID":"JuanSebastianGonzalez","gender":"0","age":"No_ag","school":"4"},{"start_time":1552055133792,"click_time":1552055135059,"finger_time":1552055134778,"fix_duration":772.4545720136349,"trial":19,"RT":986,"MT":281,"sideResp":1,"stimulus":"img/500/randomdotsizeEA/L/7_Ratio_500_L_10_R_5.png","xmouse":[788,788,788,788,788,788,788,788,788,788,788,788,788,788,788,788,788,788,788,788,788,788,788,788,788,788,788,788,788,788,788,788,788,788,788,788,788,788,788,788,788,788,788,788,788,788,788,788,777,683,616,605,594,587,584,584,583,580,576,548,531,508,491,476],"ymouse":[515,515,515,515,515,515,515,515,515,515,515,515,515,515,515,515,515,515,515,515,515,515,515,515,515,515,515,515,515,515,515,515,515,515,515,515,515,515,515,515,515,515,515,515,515,515,515,516,505,418,370,362,355,350,347,346,344,331,312,245,203,151,111,76],"timestamp_mouse":[13,34,46,66,87,108,127,147,166,186,207,228,246,267,288,307,326,348,367,387,407,428,448,466,487,508,527,547,567,588,606,627,648,668,687,707,728,748,767,786,808,826,847,868,887,907,927,947,967,986,1007,1026,1047,1067,1088,1106,1127,1146,1166,1188,1206,1226,1247,1266],"xSR":741.5,"ySR":469.95,"xT1":424.9,"yT1":0,"xT2":1058.1,"yT2":0,"toosoon":0,"cond_shown":"randomdotsizeEA","ratio_trial":500,"smaller_num":"5","larger_num":"10","correct_side":1,"subjID":"JuanSebastianGonzalez","gender":"0","age":"No_ag","school":"4"},{"start_time":1552055137250,"click_time":1552055138600,"finger_time":1552055138059,"fix_duration":929.7031424465218,"trial":20,"RT":809,"MT":541,"sideResp":1,"stimulus":"img/750/equaldotsize/L/10_Ratio_750_L_4_R_3.png","xmouse":[805,805,805,805,805,805,805,805,805,805,805,805,805,805,805,805,805,805,805,805,805,805,805,805,805,805,805,805,805,805,805,805,805,805,805,805,805,805,804,794,734,528,425,362,350,350,350,350,350,350,350,349,346,340,337,337,336,336,336,336,336,336,336,336,336,336,356,436],"ymouse":[537,537,537,537,537,537,537,537,537,537,537,537,537,537,537,537,537,537,537,537,537,537,537,537,537,537,537,537,537,537,537,537,537,537,537,537,537,537,537,523,436,226,152,109,99,98,98,98,95,90,84,67,56,44,36,33,33,33,33,33,33,33,33,33,33,33,37,60],"timestamp_mouse":[12,28,48,69,90,109,129,150,170,188,209,230,249,268,288,309,329,350,370,388,408,429,449,469,490,509,529,549,570,588,609,628,650,670,689,708,728,750,769,790,809,830,848,870,890,910,930,949,968,989,1009,1030,1048,1068,1088,1108,1130,1148,1169,1189,1209,1229,1248,1268,1289,1309,1329,1350],"xSR":741.5,"ySR":469.95,"xT1":424.9,"yT1":0,"xT2":1058.1,"yT2":0,"toosoon":0,"cond_shown":"equaldotsize","ratio_trial":750,"smaller_num":"3","larger_num":"4","correct_side":1,"subjID":"JuanSebastianGonzalez","gender":"0","age":"No_ag","school":"4"},{"start_time":1552055140133,"click_time":1552055143019,"finger_time":1552055141079,"fix_duration":372.82666551534106,"trial":21,"RT":946,"MT":1940,"sideResp":1,"stimulus":"img/750/equaldotanddens/L/10_Ratio_750_L_4_R_3.png","xmouse":[800,800,800,800,800,800,800,800,800,800,800,800,800,800,800,800,800,800,800,800,800,800,800,800,800,800,800,800,800,800,800,800,799,799,799,798,797,796,795,794,794,794,793,790,790,793,804,854,886,918,936,946,948,948,948,948,948,947,937,913,869,807,665,644,640,640,640,640,638,634,630,628,621,621,620,619,618,615,612,609,602,595,583,569,562,553,543,513,500,493,477,460,452,451,451,451,451,451,451,451,451,451,451,451,451,451,451,451,450,450,451,452,452,452,452,452,452,452,452,452,452,452,452,452,452,452,452,452,452,452,452,452,452,452,452,452,452,452,452,452,452,452,452,453,455],"ymouse":[520,520,520,520,520,520,520,520,520,520,520,520,520,520,520,520,520,520,520,520,520,520,520,520,520,520,520,520,520,520,520,520,519,518,518,518,517,516,515,514,514,513,513,504,497,487,474,436,416,395,381,371,367,367,367,367,367,364,357,347,334,319,303,299,299,299,299,299,296,285,269,264,248,245,243,242,240,231,224,217,208,199,183,172,167,159,154,143,139,136,127,121,116,115,115,115,115,115,115,115,115,115,115,115,115,115,115,115,114,110,107,103,103,103,103,103,103,103,103,103,103,103,103,103,103,103,103,103,103,103,103,103,103,103,103,103,103,103,103,103,103,103,103,101,99],"timestamp_mouse":[19,36,46,66,85,105,125,146,165,185,205,225,246,265,285,305,325,345,367,385,405,426,446,467,485,506,525,547,565,585,606,625,646,666,686,706,726,745,766,787,806,826,845,867,885,907,925,946,965,986,1006,1026,1046,1065,1085,1106,1125,1146,1165,1186,1205,1225,1247,1265,1285,1306,1327,1347,1366,1385,1405,1426,1446,1465,1485,1505,1525,1547,1565,1586,1605,1626,1645,1665,1685,1706,1726,1746,1765,1785,1806,1825,1846,1865,1886,1906,1927,1946,1966,1986,2007,2026,2046,2065,2086,2105,2126,2146,2165,2185,2206,2225,2245,2265,2285,2307,2327,2346,2365,2385,2405,2425,2446,2465,2487,2507,2525,2546,2565,2585,2605,2625,2646,2666,2685,2706,2726,2746,2767,2786,2807,2825,2846,2865,2885],"xSR":741.5,"ySR":469.95,"xT1":424.9,"yT1":0,"xT2":1058.1,"yT2":0,"toosoon":0,"cond_shown":"equaldotanddens","ratio_trial":750,"smaller_num":"3","larger_num":"4","correct_side":1,"subjID":"JuanSebastianGonzalez","gender":"0","age":"No_ag","school":"4"},{"start_time":1552055145266,"click_time":1552055146318,"finger_time":1552055146040,"fix_duration":1325.349529472635,"trial":22,"RT":774,"MT":278,"sideResp":2,"stimulus":"img/250/equaldotanddens/R/8_Ratio_250_L_1_R_4.png","xmouse":[789,789,789,789,789,789,789,789,789,789,789,789,789,789,789,789,789,789,789,789,789,789,789,789,789,789,789,789,789,789,789,789,789,789,789,789,789,804,863,928,1049,1084,1096,1108,1110,1119,1124,1131,1135,1139,1143,1143,1143],"ymouse":[524,524,524,524,524,524,524,524,524,524,524,524,524,524,524,524,524,524,524,524,524,524,524,524,524,524,524,524,524,524,524,524,524,524,524,524,524,498,437,380,259,220,204,185,179,166,159,147,139,130,114,104,95],"timestamp_mouse":[13,36,52,74,93,113,133,152,173,194,213,233,254,273,292,313,332,353,372,394,413,433,453,474,493,512,534,554,572,593,613,632,652,674,694,713,733,753,774,793,814,832,852,872,893,914,932,952,972,992,1014,1032,1052],"xSR":741.5,"ySR":469.95,"xT1":424.9,"yT1":0,"xT2":1058.1,"yT2":0,"toosoon":0,"cond_shown":"equaldotanddens","ratio_trial":250,"smaller_num":"1","larger_num":"4","correct_side":2,"subjID":"JuanSebastianGonzalez","gender":"0","age":"No_ag","school":"4"},{"start_time":1552055148458,"click_time":1552055149898,"finger_time":1552055149079,"fix_duration":1078.3455485478735,"trial":23,"RT":621,"MT":819,"sideResp":2,"stimulus":"img/900/equaldotanddens/R/6_Ratio_900_L_9_R_10.png","xmouse":[782,782,782,782,782,782,782,782,782,782,782,782,782,782,782,782,782,782,782,782,782,782,782,782,782,782,782,782,782,782,788,866,975,1108,1239,1339,1396,1397,1397,1397,1397,1397,1398,1399,1399,1399,1397,1394,1393,1393,1393,1393,1393,1392,1391,1370,1335,1212,1129,1061,1028,1016,1016,1016,1016,1016,1016,1016,1016,1016,1016,1054,1076],"ymouse":[508,508,508,508,508,508,508,508,508,508,508,508,508,508,508,508,508,508,508,508,508,508,508,508,508,508,508,508,508,508,499,417,338,265,196,148,116,115,115,115,115,115,114,109,105,99,93,90,90,90,90,90,90,90,90,93,98,118,121,121,121,121,121,121,121,121,121,121,121,121,118,102,94],"timestamp_mouse":[10,21,40,62,81,101,120,140,161,180,200,221,242,260,281,301,321,340,360,381,400,420,441,460,480,500,521,541,561,581,601,621,640,660,680,700,722,740,761,781,800,822,840,860,880,900,922,940,961,981,1000,1022,1042,1060,1081,1100,1120,1141,1160,1180,1202,1221,1241,1261,1281,1302,1321,1341,1361,1382,1402,1422,1440],"xSR":741.5,"ySR":469.95,"xT1":424.9,"yT1":0,"xT2":1058.1,"yT2":0,"toosoon":0,"cond_shown":"equaldotanddens","ratio_trial":900,"smaller_num":"9","larger_num":"10","correct_side":2,"subjID":"JuanSebastianGonzalez","gender":"0","age":"No_ag","school":"4"},{"start_time":1552055151270,"click_time":1552055152359,"finger_time":1552055152098,"fix_duration":250,"trial":24,"RT":828,"MT":261,"sideResp":2,"stimulus":"img/500/equaldotanddens/R/2_Ratio_500_L_3_R_6.png","xmouse":[800,800,800,800,800,800,800,800,800,800,800,800,800,800,800,800,800,800,800,800,800,800,800,800,800,800,800,800,800,800,800,800,800,800,800,800,800,800,801,802,806,831,847,864,880,906,911,917,925,937,973,1000,1024,1053,1090],"ymouse":[523,523,523,523,523,523,523,523,523,523,523,523,523,523,523,523,523,523,523,523,523,523,523,523,523,523,523,523,523,523,523,523,523,523,523,523,523,523,506,499,477,426,401,380,363,339,335,329,317,301,245,204,157,106,21],"timestamp_mouse":[13,42,48,69,89,108,130,149,168,189,209,228,248,269,288,309,329,348,368,388,408,428,450,468,489,508,529,548,569,589,610,629,649,668,688,709,729,749,769,788,809,828,849,868,889,909,928,948,968,989,1010,1028,1050,1069,1089],"xSR":741.5,"ySR":469.95,"xT1":424.9,"yT1":0,"xT2":1058.1,"yT2":0,"toosoon":0,"cond_shown":"equaldotanddens","ratio_trial":500,"smaller_num":"3","larger_num":"6","correct_side":2,"subjID":"JuanSebastianGonzalez","gender":"0","age":"No_ag","school":"4"},{"start_time":1552055154625,"click_time":1552055155860,"finger_time":1552055155418,"fix_duration":1144.105622809505,"trial":25,"RT":793,"MT":442,"sideResp":1,"stimulus":"img/500/equaldotsize/L/10_Ratio_500_L_4_R_2.png","xmouse":[806,806,806,806,806,806,806,806,806,806,806,806,806,806,806,806,806,806,806,806,806,806,806,806,806,806,806,806,806,806,806,806,806,806,806,806,806,806,801,767,718,672,614,588,572,563,559,554,553,552,549,545,540,539,538,537,537,537,532,526,518,512],"ymouse":[501,501,501,501,501,501,501,501,501,501,501,501,501,501,501,501,501,501,501,501,501,501,501,501,501,501,501,501,501,501,501,501,501,501,501,501,501,501,498,468,432,392,323,282,254,233,217,191,185,176,166,157,141,137,134,133,133,132,125,117,106,96],"timestamp_mouse":[14,35,54,73,94,113,133,153,174,194,213,234,254,273,295,313,335,354,375,394,414,434,455,475,493,513,534,553,573,595,614,634,653,674,695,715,734,754,774,793,813,834,854,873,893,913,934,955,975,994,1014,1033,1055,1073,1093,1114,1133,1154,1174,1194,1214,1235],"xSR":741.5,"ySR":469.95,"xT1":424.9,"yT1":0,"xT2":1058.1,"yT2":0,"toosoon":0,"cond_shown":"equaldotsize","ratio_trial":500,"smaller_num":"2","larger_num":"4","correct_side":1,"subjID":"JuanSebastianGonzalez","gender":"0","age":"No_ag","school":"4"},{"start_time":1552055157973,"click_time":1552055159698,"finger_time":1552055158978,"fix_duration":973.2103029511134,"trial":26,"RT":1005,"MT":720,"sideResp":1,"stimulus":"img/750/randomdotsizeEA/L/8_Ratio_750_L_4_R_3.png","xmouse":[781,781,781,781,781,781,781,781,781,781,781,781,781,781,781,781,781,781,781,781,781,781,781,781,781,781,781,781,781,781,781,781,781,781,781,781,781,781,781,781,781,781,781,781,781,781,781,781,781,779,728,590,510,433,372,338,327,327,327,327,327,327,327,327,327,327,327,330,337,343,381,397,409,416,419,422,422,422,422,422,422,422,422,422,422,422,430],"ymouse":[526,526,526,526,526,526,526,526,526,526,526,526,526,526,526,526,526,526,526,526,526,526,526,526,526,526,526,526,526,526,526,526,526,526,526,526,526,526,526,526,526,526,526,526,526,526,526,526,525,523,463,357,311,268,235,216,207,207,207,207,207,207,207,207,207,204,198,190,182,176,158,150,141,134,128,119,115,113,112,109,107,105,104,103,102,93,79],"timestamp_mouse":[12,40,46,66,86,106,126,145,165,185,206,225,245,266,286,306,325,347,366,386,405,427,447,466,486,507,525,545,567,586,606,626,647,665,686,707,726,745,767,786,806,825,845,865,887,907,926,945,966,986,1005,1025,1045,1065,1085,1107,1126,1146,1167,1185,1206,1226,1247,1266,1285,1307,1326,1346,1366,1387,1406,1425,1445,1465,1485,1507,1525,1546,1566,1585,1605,1625,1646,1666,1686,1707,1725],"xSR":741.5,"ySR":469.95,"xT1":424.9,"yT1":0,"xT2":1058.1,"yT2":0,"toosoon":0,"cond_shown":"randomdotsizeEA","ratio_trial":750,"smaller_num":"3","larger_num":"4","correct_side":1,"subjID":"JuanSebastianGonzalez","gender":"0","age":"No_ag","school":"4"},{"start_time":1552055162263,"click_time":1552055163679,"finger_time":1552055163080,"fix_duration":1082.1127057693368,"trial":27,"RT":817,"MT":599,"sideResp":2,"stimulus":"img/250/equaldotsize/R/11_Ratio_250_L_3_R_12.png","xmouse":[778,778,778,778,778,778,778,778,778,778,778,778,778,778,778,778,778,778,778,778,778,778,778,778,778,778,778,778,778,778,778,778,778,778,778,778,778,778,778,782,903,987,1053,1093,1109,1112,1112,1112,1112,1112,1112,1112,1111,1106,1102,1101,1100,1099,1098,1097,1097,1095,1094,1094,1094,1090,1087,1084,1082,1082,1080],"ymouse":[509,509,509,509,509,509,509,509,509,509,509,509,509,509,509,509,509,509,509,509,509,509,509,509,509,509,509,509,509,509,509,509,509,509,509,509,509,509,509,508,454,412,366,333,316,303,302,299,294,288,269,257,242,228,216,211,204,202,197,194,190,183,179,175,170,149,138,127,116,106,99],"timestamp_mouse":[16,35,56,75,95,115,136,155,177,195,215,236,257,277,296,316,336,356,377,396,416,435,456,476,496,515,537,556,577,597,617,636,656,677,696,716,737,757,776,795,817,835,856,876,896,916,935,955,975,995,1017,1035,1056,1075,1095,1115,1135,1155,1175,1195,1215,1235,1255,1275,1296,1316,1335,1355,1375,1395,1416],"xSR":741.5,"ySR":469.95,"xT1":424.9,"yT1":0,"xT2":1058.1,"yT2":0,"toosoon":0,"cond_shown":"equaldotsize","ratio_trial":250,"smaller_num":"3","larger_num":"12","correct_side":2,"subjID":"JuanSebastianGonzalez","gender":"0","age":"No_ag","school":"4"},{"start_time":1552055165150,"click_time":1552055166459,"finger_time":1552055165978,"fix_duration":250,"trial":28,"RT":828,"MT":481,"sideResp":1,"stimulus":"img/250/equaldotsize/L/3_Ratio_250_L_8_R_2.png","xmouse":[792,792,792,792,792,792,792,792,792,792,792,792,792,792,792,792,792,792,792,792,792,792,792,792,792,792,792,792,792,792,792,792,792,792,792,792,792,792,792,790,777,721,607,578,564,553,542,538,534,529,524,518,517,517,517,516,510,505,497,491,487,484,481,480,480,479],"ymouse":[492,492,492,492,492,492,492,492,492,492,492,492,492,492,492,492,492,492,492,492,492,492,492,492,492,492,492,492,492,492,492,492,492,492,492,492,492,492,492,492,479,421,331,302,282,265,237,223,210,198,190,182,182,182,182,181,168,155,142,132,125,119,111,107,103,99],"timestamp_mouse":[12,29,49,69,88,109,128,149,168,188,209,228,248,269,290,308,329,350,368,389,409,429,450,469,489,510,530,550,568,588,609,629,650,668,689,708,729,749,770,789,808,828,850,868,888,908,930,949,969,989,1009,1029,1049,1069,1089,1109,1129,1148,1168,1188,1209,1228,1249,1268,1289,1309],"xSR":741.5,"ySR":469.95,"xT1":424.9,"yT1":0,"xT2":1058.1,"yT2":0,"toosoon":0,"cond_shown":"equaldotsize","ratio_trial":250,"smaller_num":"2","larger_num":"8","correct_side":1,"subjID":"JuanSebastianGonzalez","gender":"0","age":"No_ag","school":"4"},{"start_time":1552055170483,"click_time":1552055173479,"finger_time":1552055171559,"fix_duration":1322.2323184785462,"trial":29,"RT":1076,"MT":1920,"sideResp":2,"stimulus":"img/900/randomdotsizeEA/R/6_Ratio_900_L_9_R_10.png","xmouse":[794,794,794,794,794,794,794,794,794,794,794,794,794,794,794,794,794,794,794,794,794,794,794,794,794,794,794,794,794,794,794,794,794,794,794,794,794,794,794,794,794,794,794,794,794,795,795,795,797,799,799,798,791,768,742,660,618,590,570,553,523,512,504,493,469,460,454,452,451,451,451,451,451,451,451,451,451,455,467,504,526,550,571,591,628,644,664,689,718,805,854,892,922,943,980,987,992,996,999,1002,1007,1011,1014,1016,1019,1021,1022,1022,1023,1026,1026,1027,1027,1027,1026,1026,1026,1026,1026,1027,1032,1036,1039,1041,1043,1043,1043,1043,1043,1043,1047,1056,1065,1069,1072,1072,1073,1073,1073,1073,1073,1073,1073,1073,1073,1073,1073,1073,1072,1071],"ymouse":[542,542,542,542,542,542,542,542,542,542,542,542,542,542,542,542,542,542,542,542,542,542,542,542,542,542,542,542,542,542,542,542,542,542,542,542,542,542,542,542,542,542,542,542,542,542,542,542,539,525,514,499,483,457,440,394,373,359,347,335,313,301,289,273,228,215,202,195,193,193,193,193,193,193,193,193,197,203,220,265,285,303,317,329,348,352,354,354,355,355,355,355,354,349,337,333,329,322,313,302,274,261,251,246,235,232,228,224,218,209,205,201,196,192,179,174,168,164,161,156,146,141,137,134,131,131,131,131,131,131,131,129,129,128,125,123,119,118,117,116,116,116,116,116,113,112,108,106,102,99],"timestamp_mouse":[15,36,55,76,96,117,135,155,176,195,217,235,255,275,297,315,336,356,375,395,417,435,456,475,495,516,536,557,577,596,616,636,657,677,696,715,735,756,775,795,816,837,855,876,895,916,936,957,975,996,1015,1036,1056,1076,1095,1116,1136,1156,1176,1196,1216,1235,1255,1275,1296,1315,1335,1356,1375,1397,1415,1437,1456,1476,1497,1516,1535,1556,1575,1597,1615,1635,1655,1675,1697,1715,1735,1755,1776,1796,1815,1835,1855,1876,1896,1915,1935,1955,1975,1996,2015,2035,2055,2075,2096,2115,2135,2157,2176,2196,2215,2235,2255,2276,2295,2316,2336,2355,2375,2395,2416,2436,2456,2476,2496,2515,2535,2557,2576,2596,2615,2635,2655,2676,2696,2715,2735,2756,2775,2796,2816,2836,2856,2877,2896,2915,2935,2956,2975,2995],"xSR":741.5,"ySR":469.95,"xT1":424.9,"yT1":0,"xT2":1058.1,"yT2":0,"toosoon":0,"cond_shown":"randomdotsizeEA","ratio_trial":900,"smaller_num":"9","larger_num":"10","correct_side":2,"subjID":"JuanSebastianGonzalez","gender":"0","age":"No_ag","school":"4"},{"start_time":1552055175310,"click_time":1552055176879,"finger_time":1552055176298,"fix_duration":729.4881482269659,"trial":30,"RT":988,"MT":581,"sideResp":1,"stimulus":"img/750/equaldotsize/L/13_Ratio_750_L_8_R_6.png","xmouse":[814,814,814,814,814,814,814,814,814,814,814,814,814,814,814,814,814,814,814,814,814,814,814,814,814,814,814,814,814,814,814,814,814,814,814,814,814,814,814,814,814,814,814,814,814,811,808,795,760,603,512,465,450,437,434,433,433,433,433,431,429,429,429,429,397,369,369,369,369,369,369,369,369,369,369,369,369,369,425],"ymouse":[532,532,532,532,532,532,532,532,532,532,532,532,532,532,532,532,532,532,532,532,532,532,532,532,532,532,532,532,532,532,532,532,532,532,532,532,532,532,532,532,532,532,532,532,532,532,532,524,498,400,361,338,327,305,297,291,286,279,260,246,231,212,187,145,53,3,3,3,3,3,3,3,3,3,3,3,3,3,3],"timestamp_mouse":[14,37,48,69,89,108,128,149,170,188,209,228,248,269,288,308,329,349,368,388,410,429,448,469,488,510,529,549,569,589,609,628,648,669,688,708,728,748,768,790,809,828,849,869,889,908,928,948,969,988,1009,1029,1049,1069,1088,1108,1128,1149,1169,1188,1208,1229,1249,1269,1289,1309,1329,1350,1370,1389,1409,1428,1448,1469,1488,1508,1528,1549,1569],"xSR":741.5,"ySR":469.95,"xT1":424.9,"yT1":0,"xT2":1058.1,"yT2":0,"toosoon":0,"cond_shown":"equaldotsize","ratio_trial":750,"smaller_num":"6","larger_num":"8","correct_side":1,"subjID":"JuanSebastianGonzalez","gender":"0","age":"No_ag","school":"4"},{"start_time":1552055179111,"click_time":1552055180520,"finger_time":1552055179958,"fix_duration":371.81203996291765,"trial":31,"RT":847,"MT":562,"sideResp":2,"stimulus":"img/250/randomdotsizeEA/R/13_Ratio_250_L_2_R_8.png","xmouse":[794,794,794,794,794,794,794,794,794,794,794,794,794,794,794,794,794,794,794,794,794,794,794,794,794,794,794,794,794,794,794,794,794,794,794,794,794,794,794,794,794,794,806,886,912,936,948,952,954,954,955,960,970,995,1003,1012,1018,1028,1050,1060,1065,1067,1068,1070,1071,1072,1072,1072,1072,1072,1072],"ymouse":[489,489,489,489,489,489,489,489,489,489,489,489,489,489,489,489,489,489,489,489,489,489,489,489,489,489,489,489,489,489,489,489,489,489,489,489,489,489,489,489,489,486,469,386,354,321,302,288,274,253,241,231,216,192,184,178,173,168,155,150,145,143,142,137,134,130,124,118,106,102,99],"timestamp_mouse":[12,34,48,68,87,109,127,148,168,188,208,228,248,268,287,308,328,348,368,388,409,428,448,469,488,507,528,549,569,588,608,629,647,667,688,708,729,749,767,788,809,828,847,868,887,907,927,947,967,987,1007,1027,1047,1069,1087,1107,1127,1147,1168,1187,1209,1228,1249,1269,1287,1307,1327,1347,1369,1387,1409],"xSR":741.5,"ySR":469.95,"xT1":424.9,"yT1":0,"xT2":1058.1,"yT2":0,"toosoon":0,"cond_shown":"randomdotsizeEA","ratio_trial":250,"smaller_num":"2","larger_num":"8","correct_side":2,"subjID":"JuanSebastianGonzalez","gender":"0","age":"No_ag","school":"4"},{"start_time":1552055181752,"click_time":1552055184000,"finger_time":1552055182838,"fix_duration":451.77967339019887,"trial":32,"RT":1086,"MT":1162,"sideResp":2,"stimulus":"img/900/randomdotsizeEA/L/1_Ratio_900_L_10_R_9.png","xmouse":[785,785,785,785,785,785,785,785,785,785,785,785,785,785,785,785,785,785,785,785,785,785,785,785,785,785,785,785,785,785,785,785,785,785,785,785,785,785,785,785,785,785,780,774,767,761,756,751,750,749,749,753,767,788,810,827,861,871,874,878,882,892,897,903,909,912,920,925,934,946,956,970,970,970,970,970,971,973,976,978,980,984,984,984,984,984,984,984,984,984,984,984,984,987,990,996,1004,1026,1033,1036,1037,1037,1037,1037,1037,1037,1038,1040,1042,1046,1050,1056,1066],"ymouse":[526,526,526,526,526,526,526,526,526,526,526,526,526,526,526,526,526,526,526,526,526,526,526,526,526,526,526,526,526,526,526,526,526,526,526,526,526,526,526,526,526,526,526,522,517,513,510,505,503,501,498,490,483,474,464,456,437,429,425,420,411,389,376,363,347,333,310,296,281,259,240,204,200,199,199,199,196,192,188,185,182,178,178,178,178,178,178,178,178,178,178,178,176,170,163,155,145,128,123,121,120,120,120,120,120,120,119,116,112,106,99,87,65],"timestamp_mouse":[11,44,48,66,86,107,126,147,166,186,206,228,246,267,287,307,327,347,367,387,406,427,446,466,487,507,527,546,566,588,607,627,648,666,688,708,727,746,768,786,807,826,847,867,887,907,928,947,967,987,1007,1026,1047,1068,1086,1106,1127,1148,1168,1186,1206,1227,1247,1267,1286,1308,1326,1346,1367,1387,1408,1427,1446,1467,1486,1506,1527,1547,1566,1587,1607,1628,1647,1667,1686,1706,1727,1747,1767,1787,1806,1826,1846,1866,1886,1907,1926,1946,1967,1988,2006,2027,2046,2066,2087,2107,2126,2146,2166,2186,2207,2227,2247],"xSR":741.5,"ySR":469.95,"xT1":424.9,"yT1":0,"xT2":1058.1,"yT2":0,"toosoon":0,"cond_shown":"randomdotsizeEA","ratio_trial":900,"smaller_num":"9","larger_num":"10","correct_side":1,"subjID":"JuanSebastianGonzalez","gender":"0","age":"No_ag","school":"4"},{"start_time":1552055187975,"click_time":1552055189398,"finger_time":1552055188679,"fix_duration":373.8319616126909,"trial":33,"RT":704,"MT":719,"sideResp":1,"stimulus":"img/250/equaldotsize/L/15_Ratio_250_L_12_R_3.png","xmouse":[811,811,811,811,811,811,811,811,811,811,811,811,811,811,811,811,811,811,811,811,811,811,811,811,811,811,811,811,811,811,811,811,811,811,800,713,680,665,658,650,635,629,623,618,612,602,582,566,550,528,491,486,480,475,470,459,457,457,457,457,457,457,457,457,457,457,457,457,457,457,457,457],"ymouse":[532,532,532,532,532,532,532,532,532,532,532,532,532,532,532,532,532,532,532,532,532,532,532,532,532,532,532,532,532,532,532,532,532,532,521,462,440,425,415,405,386,376,364,351,332,308,265,241,218,190,140,135,134,133,133,133,133,133,133,133,133,133,130,128,127,126,126,126,126,124,104,91],"timestamp_mouse":[13,32,43,64,83,104,124,144,165,185,204,224,244,263,284,303,323,344,365,383,404,425,443,465,484,504,525,543,565,585,604,625,645,664,684,704,724,744,763,784,805,823,843,863,884,904,924,943,964,984,1004,1023,1043,1064,1085,1105,1123,1143,1165,1184,1204,1224,1243,1264,1285,1304,1324,1343,1364,1385,1404,1423],"xSR":741.5,"ySR":469.95,"xT1":424.9,"yT1":0,"xT2":1058.1,"yT2":0,"toosoon":0,"cond_shown":"equaldotsize","ratio_trial":250,"smaller_num":"3","larger_num":"12","correct_side":1,"subjID":"JuanSebastianGonzalez","gender":"0","age":"No_ag","school":"4"},{"start_time":1552055191083,"click_time":1552055192219,"finger_time":1552055191778,"fix_duration":604.3671265770339,"trial":34,"RT":695,"MT":441,"sideResp":2,"stimulus":"img/500/equaldotanddens/R/14_Ratio_500_L_5_R_10.png","xmouse":[777,777,777,777,777,777,777,777,777,777,777,777,777,777,777,777,777,777,777,777,777,777,777,777,777,777,777,777,777,777,777,777,782,794,811,845,856,861,862,863,865,866,867,870,873,880,883,890,900,930,947,962,977,992,1021,1056,1063],"ymouse":[555,555,555,555,555,555,555,555,555,555,555,555,555,555,555,555,555,555,555,555,555,555,555,555,555,555,555,555,555,555,555,555,528,485,445,366,343,329,320,314,303,299,293,286,274,250,239,227,214,192,182,168,154,139,119,99,94],"timestamp_mouse":[21,44,57,76,95,116,135,155,177,196,215,237,257,276,296,316,336,355,375,397,417,435,457,475,496,517,535,556,575,597,616,635,655,676,695,715,735,757,776,796,815,836,856,875,895,915,935,956,976,997,1015,1036,1056,1077,1095,1116,1136],"xSR":741.5,"ySR":469.95,"xT1":424.9,"yT1":0,"xT2":1058.1,"yT2":0,"toosoon":0,"cond_shown":"equaldotanddens","ratio_trial":500,"smaller_num":"5","larger_num":"10","correct_side":2,"subjID":"JuanSebastianGonzalez","gender":"0","age":"No_ag","school":"4"},{"start_time":1552055193510,"click_time":1552055195879,"finger_time":1552055194279,"fix_duration":250,"trial":35,"RT":769,"MT":1600,"sideResp":2,"stimulus":"img/500/equaldotanddens/R/15_Ratio_500_L_1_R_2.png","xmouse":[813,813,813,813,813,813,813,813,813,813,813,813,813,813,813,813,813,813,813,813,813,813,813,813,813,813,813,813,813,813,813,813,813,813,813,802,793,772,726,690,647,601,557,503,478,475,475,475,471,466,458,445,438,426,413,410,410,410,410,410,410,410,412,420,433,446,467,496,540,548,555,561,561,563,564,566,568,572,582,587,591,603,624,738,778,800,816,826,833,848,860,898,910,951,981,981,981,981,981,992,1004,1021,1038,1067,1096,1100,1102,1102,1102,1102,1102,1102,1101,1101,1097,1094,1092,1087,1082],"ymouse":[519,519,519,519,519,519,519,519,519,519,519,519,519,519,519,519,519,519,519,519,519,519,519,519,519,519,519,519,519,519,519,519,519,519,519,512,508,500,475,457,433,402,371,320,286,283,282,281,271,258,241,213,191,146,104,99,99,99,99,99,102,105,113,132,163,187,216,250,303,318,329,337,339,344,346,349,352,355,361,362,362,360,352,312,295,285,279,272,268,260,253,235,230,212,199,199,199,199,199,194,187,177,168,150,128,122,120,119,118,117,117,116,115,115,109,107,105,102,98],"timestamp_mouse":[12,34,48,69,89,110,130,148,168,189,209,230,249,269,290,310,329,349,369,389,410,428,449,468,489,510,529,550,569,590,609,628,648,669,689,708,730,748,769,788,809,828,849,869,888,908,928,948,969,989,1009,1028,1048,1069,1089,1110,1128,1149,1169,1188,1210,1228,1248,1270,1290,1308,1329,1348,1370,1388,1409,1430,1449,1469,1489,1508,1529,1548,1570,1588,1608,1628,1649,1670,1688,1710,1728,1748,1768,1789,1808,1828,1849,1869,1889,1909,1929,1949,1969,1988,2009,2028,2048,2069,2090,2109,2130,2148,2169,2189,2210,2228,2248,2268,2289,2308,2329,2349,2369],"xSR":741.5,"ySR":469.95,"xT1":424.9,"yT1":0,"xT2":1058.1,"yT2":0,"toosoon":0,"cond_shown":"equaldotanddens","ratio_trial":500,"smaller_num":"1","larger_num":"2","correct_side":2,"subjID":"JuanSebastianGonzalez","gender":"0","age":"No_ag","school":"4"},{"start_time":1552055198692,"click_time":1552055202080,"finger_time":1552055201360,"fix_duration":571.5027913805397,"trial":36,"RT":2668,"MT":720,"sideResp":2,"stimulus":"img/500/randomdotsizeEA/R/15_Ratio_500_L_1_R_2.png","xmouse":[809,809,809,808,808,808,808,808,808,808,808,808,808,808,808,808,808,808,808,808,808,808,808,808,808,808,808,808,808,808,808,808,808,808,808,808,808,808,808,808,808,808,808,808,808,808,808,808,808,808,808,808,808,807,803,773,768,768,768,768,768,768,768,768,768,768,768,768,768,768,768,768,768,768,768,768,768,768,768,768,768,768,768,768,768,768,768,768,768,768,768,768,768,768,768,768,768,768,768,768,768,768,768,768,768,768,768,768,768,768,768,768,768,768,768,768,768,768,768,768,768,768,768,768,768,768,768,768,768,768,768,777,800,895,964,1030,1038,1040,1040,1040,1040,1040,1040,1039,1036,1034,1033,1033,1032,1032,1032,1036,1038,1043,1053,1057,1061,1064,1065,1065,1065,1065,1065,1065,1065,1066,1067,1068,1070,1073],"ymouse":[555,555,555,554,547,541,540,540,539,539,539,539,539,539,539,539,539,539,539,539,539,539,539,539,539,539,539,539,539,539,539,539,539,539,539,539,539,539,539,539,539,539,539,539,539,539,539,539,539,539,539,539,539,538,535,523,521,521,521,521,521,521,521,521,521,521,521,521,521,521,521,521,521,521,521,521,521,521,521,521,521,521,521,521,521,521,521,521,521,521,521,521,521,521,521,521,521,521,521,521,521,521,521,521,521,521,521,521,521,521,521,521,521,521,521,521,521,521,521,521,521,521,521,521,521,521,521,521,521,521,521,512,499,448,410,366,359,355,354,353,349,345,339,333,313,303,296,288,281,273,258,247,237,227,202,190,179,167,159,152,150,150,150,150,143,134,127,118,106,84],"timestamp_mouse":[19,36,46,66,87,107,128,146,166,187,207,226,246,267,286,306,326,347,368,387,407,426,448,467,486,506,528,546,566,587,606,628,647,666,686,707,727,748,768,786,807,827,847,868,887,906,927,947,966,987,1008,1026,1046,1067,1087,1108,1127,1147,1167,1188,1208,1227,1247,1266,1287,1308,1327,1346,1367,1387,1406,1428,1447,1467,1488,1508,1527,1548,1566,1587,1608,1628,1647,1666,1687,1708,1727,1748,1768,1786,1808,1826,1846,1867,1887,1907,1926,1947,1968,1987,2007,2026,2048,2067,2087,2107,2128,2147,2166,2188,2206,2227,2246,2268,2288,2306,2328,2348,2368,2388,2407,2427,2447,2466,2486,2508,2526,2547,2568,2587,2608,2627,2647,2668,2687,2706,2726,2746,2766,2786,2806,2827,2846,2867,2888,2906,2926,2946,2966,2988,3006,3026,3046,3067,3087,3107,3127,3148,3168,3187,3206,3226,3247,3267,3288,3307,3328,3347,3367,3387],"xSR":741.5,"ySR":469.95,"xT1":424.9,"yT1":0,"xT2":1058.1,"yT2":0,"toosoon":0,"cond_shown":"randomdotsizeEA","ratio_trial":500,"smaller_num":"1","larger_num":"2","correct_side":2,"subjID":"JuanSebastianGonzalez","gender":"0","age":"No_ag","school":"4"},{"start_time":1552055203904,"click_time":1552055205839,"finger_time":1552055204778,"fix_duration":464.6140386938685,"trial":37,"RT":874,"MT":1061,"sideResp":2,"stimulus":"img/750/randomdotsizeEA/L/1_Ratio_750_L_20_R_15.png","xmouse":[798,798,798,798,798,798,798,798,798,798,798,798,798,798,798,798,798,798,798,798,798,798,798,798,798,798,798,798,798,798,798,798,798,798,798,798,798,798,798,798,798,798,808,855,940,970,985,991,994,994,994,997,1004,1015,1019,1025,1029,1034,1045,1051,1057,1064,1076,1084,1088,1088,1088,1088,1088,1088,1088,1088,1088,1088,1088,1088,1088,1088,1088,1088,1088,1088,1088,1088,1088,1088,1088,1088,1088,1088,1088,1088,1088,1088,1087,1087,1087],"ymouse":[505,505,505,505,505,505,505,505,505,505,505,505,505,505,505,505,505,505,505,505,505,505,505,505,505,505,505,505,505,505,505,505,505,505,505,505,505,505,505,505,505,505,496,460,393,367,352,344,338,338,336,332,323,303,294,282,273,262,237,223,207,189,162,145,130,128,128,127,126,125,124,122,121,119,115,112,109,106,105,105,105,105,105,105,105,105,105,105,105,105,105,105,105,104,102,100,98],"timestamp_mouse":[15,40,54,76,95,116,135,156,175,194,214,236,255,274,295,314,335,355,374,396,415,434,455,475,495,514,536,556,575,595,614,635,655,674,696,716,735,756,775,795,815,834,856,874,894,914,934,955,975,994,1015,1034,1055,1075,1094,1114,1134,1155,1175,1196,1214,1234,1255,1275,1295,1315,1335,1356,1376,1394,1414,1434,1456,1475,1495,1514,1534,1555,1575,1595,1615,1635,1654,1675,1695,1715,1735,1755,1775,1794,1814,1834,1854,1874,1895,1914,1935],"xSR":741.5,"ySR":469.95,"xT1":424.9,"yT1":0,"xT2":1058.1,"yT2":0,"toosoon":0,"cond_shown":"randomdotsizeEA","ratio_trial":750,"smaller_num":"15","larger_num":"20","correct_side":1,"subjID":"JuanSebastianGonzalez","gender":"0","age":"No_ag","school":"4"},{"start_time":1552055233167,"click_time":1552055235798,"finger_time":1552055234279,"fix_duration":965.4728542195724,"trial":38,"RT":1112,"MT":1519,"sideResp":1,"stimulus":"img/900/equaldotanddens/L/1_Ratio_900_L_10_R_9.png","xmouse":[757,757,757,757,757,757,757,757,757,757,757,757,757,757,757,757,757,758,758,758,758,758,758,758,758,758,758,758,758,758,758,758,758,758,758,759,759,759,759,759,759,759,760,760,761,762,763,765,765,766,766,766,766,766,761,714,683,657,635,630,619,602,592,588,586,586,586,586,586,586,586,586,586,586,585,585,575,573,573,573,573,573,573,573,573,573,581,593,603,608,611,613,613,613,612,609,602,597,591,584,570,567,565,564,563,561,560,559,558,557,556,552,549,547,545,541,538,533,530,527,524,523,522,521,520,516,515,515,512,510,503,497],"ymouse":[525,525,525,525,525,525,525,525,525,525,525,525,525,525,525,525,525,525,525,525,525,525,525,525,525,525,525,525,525,525,525,525,525,525,525,525,525,524,524,524,524,524,524,524,523,522,520,519,518,518,518,518,516,508,493,413,353,310,279,274,264,261,259,259,259,259,259,259,259,259,259,259,259,259,258,258,254,253,253,253,253,253,253,253,253,249,242,234,227,223,219,215,212,207,203,199,193,191,187,184,176,174,172,171,169,166,165,163,163,161,160,158,156,156,153,152,150,149,148,147,144,144,143,143,142,139,138,136,133,128,110,94],"timestamp_mouse":[13,45,51,73,92,111,133,153,172,192,211,233,252,272,292,312,332,353,372,391,412,433,452,473,493,513,532,551,573,593,613,631,653,673,692,712,732,753,773,793,811,832,852,873,892,912,931,951,972,991,1011,1032,1051,1071,1091,1112,1131,1151,1171,1192,1212,1232,1252,1271,1292,1313,1332,1352,1372,1392,1412,1432,1451,1472,1491,1511,1531,1552,1572,1592,1612,1632,1652,1672,1691,1713,1731,1752,1772,1792,1812,1831,1851,1872,1892,1912,1932,1952,1973,1992,2012,2031,2052,2073,2091,2112,2131,2153,2172,2191,2211,2232,2251,2272,2291,2313,2331,2352,2373,2392,2412,2431,2451,2472,2491,2513,2531,2552,2572,2593,2612,2631],"xSR":741.5,"ySR":469.95,"xT1":424.9,"yT1":0,"xT2":1058.1,"yT2":0,"toosoon":0,"cond_shown":"equaldotanddens","ratio_trial":900,"smaller_num":"9","larger_num":"10","correct_side":1,"subjID":"JuanSebastianGonzalez","gender":"0","age":"No_ag","school":"4"},{"start_time":1552055239276,"click_time":1552055240621,"finger_time":1552055240039,"fix_duration":1055.9901923991517,"trial":39,"RT":763,"MT":582,"sideResp":1,"stimulus":"img/500/equaldotsize/L/7_Ratio_500_L_10_R_5.png","xmouse":[775,775,775,775,775,775,775,775,775,775,775,775,775,775,775,775,775,775,775,775,775,775,775,775,775,775,775,775,775,775,775,775,775,775,775,775,775,750,681,592,426,394,383,380,379,379,379,379,379,379,379,382,385,390,393,411,417,421,424,424,424,424,424,424,424,424,424,433],"ymouse":[512,512,512,512,512,512,512,512,512,512,512,512,512,512,512,512,512,512,512,512,512,512,512,512,512,512,512,512,512,512,512,512,512,512,512,512,512,480,422,348,199,150,126,115,112,112,112,112,112,110,110,98,93,88,87,86,86,86,86,86,86,86,86,86,86,86,86,86],"timestamp_mouse":[14,32,43,63,82,102,123,144,163,183,202,223,243,262,284,303,322,342,364,384,403,422,444,462,484,504,523,542,564,582,603,624,643,663,682,703,723,743,763,782,804,822,843,864,883,903,924,943,962,982,1003,1022,1042,1064,1085,1104,1124,1144,1164,1185,1204,1225,1244,1265,1283,1304,1324,1345],"xSR":741.5,"ySR":469.95,"xT1":424.9,"yT1":0,"xT2":1058.1,"yT2":0,"toosoon":0,"cond_shown":"equaldotsize","ratio_trial":500,"smaller_num":"5","larger_num":"10","correct_side":1,"subjID":"JuanSebastianGonzalez","gender":"0","age":"No_ag","school":"4"},{"start_time":1552055242204,"click_time":1552055243380,"finger_time":1552055242900,"fix_duration":641.0077037580205,"trial":40,"RT":696,"MT":480,"sideResp":1,"stimulus":"img/750/equaldotsize/L/1_Ratio_750_L_20_R_15.png","xmouse":[776,776,776,776,776,776,776,776,776,776,776,776,776,776,776,776,776,776,776,776,776,776,776,776,776,776,776,776,776,776,776,776,773,763,747,715,672,624,520,500,485,474,466,456,452,449,448,447,447,446,446,446,446,446,446,447,449,453,479],"ymouse":[497,497,497,497,497,497,497,497,497,497,497,497,497,497,497,497,497,497,497,497,497,497,497,497,497,497,497,497,497,497,497,497,493,480,463,438,412,383,313,295,281,268,257,238,230,224,220,216,215,214,214,214,212,210,204,197,181,158,67],"timestamp_mouse":[16,44,56,77,97,115,137,157,176,196,216,237,256,277,297,315,337,357,377,397,417,436,457,476,497,517,537,555,576,597,617,637,656,676,696,716,736,756,777,795,815,836,856,877,896,916,936,956,976,997,1016,1036,1055,1077,1096,1116,1136,1156,1176],"xSR":741.5,"ySR":469.95,"xT1":424.9,"yT1":0,"xT2":1058.1,"yT2":0,"toosoon":0,"cond_shown":"equaldotsize","ratio_trial":750,"smaller_num":"15","larger_num":"20","correct_side":1,"subjID":"JuanSebastianGonzalez","gender":"0","age":"No_ag","school":"4"},{"start_time":1552055244517,"click_time":1552055245440,"finger_time":1552055245340,"fix_duration":374.0588844750644,"trial":41,"RT":823,"MT":100,"sideResp":2,"stimulus":"img/750/equaldotanddens/R/5_Ratio_750_L_15_R_20.png","xmouse":[817,817,817,816,816,816,816,816,816,816,816,816,816,816,816,816,816,816,816,816,816,816,816,816,816,816,816,816,816,816,816,816,816,816,816,816,816,816,816,821,835,872,920,1051,1090,1117,1127],"ymouse":[537,537,537,537,537,537,537,537,537,537,537,537,537,537,537,537,537,537,537,537,537,537,537,537,537,537,537,537,537,537,537,537,537,537,537,537,537,537,537,529,520,488,440,247,171,102,59],"timestamp_mouse":[13,35,43,63,83,103,124,143,163,183,203,223,243,263,283,303,323,343,363,383,403,423,443,463,483,503,523,542,563,583,603,624,644,664,682,703,723,743,763,783,803,823,843,863,883,904,923],"xSR":741.5,"ySR":469.95,"xT1":424.9,"yT1":0,"xT2":1058.1,"yT2":0,"toosoon":0,"cond_shown":"equaldotanddens","ratio_trial":750,"smaller_num":"15","larger_num":"20","correct_side":2,"subjID":"JuanSebastianGonzalez","gender":"0","age":"No_ag","school":"4"},{"start_time":1552055247422,"click_time":1552055250399,"finger_time":1552055248401,"fix_duration":858.6596401173894,"trial":42,"RT":979,"MT":1998,"sideResp":1,"stimulus":"img/900/equaldotsize/L/2_Ratio_900_L_20_R_18.png","xmouse":[817,817,817,817,817,817,817,817,817,817,817,817,817,817,817,817,817,817,817,817,817,817,817,817,817,817,817,817,817,817,817,817,815,813,811,810,810,810,810,810,810,810,809,805,804,803,802,799,773,752,729,711,694,694,694,694,694,694,689,682,670,659,634,622,613,602,596,589,589,588,588,588,588,588,586,581,574,559,553,546,541,536,532,525,522,521,520,520,519,519,518,517,517,516,516,515,514,512,512,512,512,511,511,511,511,511,510,505,502,499,496,496,496,496,496,496,496,496,496,496,496,496,496,496,496,496,496,496,496,496,496,496,493,491,491,490,490,490,490,490,490,490,490,490,490,490,490,490,487],"ymouse":[494,494,494,494,494,494,494,494,494,494,494,494,494,494,494,494,494,494,494,494,494,494,494,494,494,494,494,494,494,494,494,494,493,490,486,484,484,484,484,484,484,483,482,477,477,476,475,473,458,446,434,424,415,415,415,415,415,415,408,400,388,374,339,323,310,297,290,281,281,281,281,281,281,280,276,270,260,241,231,223,216,209,202,192,188,186,184,184,182,181,179,178,175,174,171,169,167,164,164,163,162,160,160,160,160,160,158,147,139,131,127,126,126,126,126,126,126,126,126,126,126,126,126,126,126,126,126,126,126,126,126,126,116,111,107,106,105,104,104,104,104,104,104,104,104,104,104,104,97],"timestamp_mouse":[20,46,58,79,99,117,138,159,179,198,219,238,258,279,299,319,338,359,379,398,417,439,458,479,498,517,539,558,579,597,617,639,659,678,698,719,738,759,778,797,819,838,857,878,898,918,939,958,979,997,1018,1038,1059,1077,1098,1117,1138,1158,1178,1198,1219,1239,1259,1278,1298,1317,1337,1359,1378,1397,1418,1438,1458,1478,1499,1519,1538,1559,1578,1598,1618,1638,1658,1678,1698,1718,1739,1758,1778,1798,1818,1839,1860,1878,1898,1918,1939,1959,1978,1998,2019,2039,2058,2077,2098,2118,2138,2158,2177,2198,2218,2238,2258,2279,2298,2318,2338,2359,2379,2398,2419,2439,2458,2478,2499,2518,2537,2559,2579,2598,2619,2639,2659,2678,2698,2719,2738,2758,2777,2797,2817,2838,2858,2878,2898,2919,2939,2958,2977],"xSR":741.5,"ySR":469.95,"xT1":424.9,"yT1":0,"xT2":1058.1,"yT2":0,"toosoon":0,"cond_shown":"equaldotsize","ratio_trial":900,"smaller_num":"18","larger_num":"20","correct_side":1,"subjID":"JuanSebastianGonzalez","gender":"0","age":"No_ag","school":"4"},{"start_time":1552055254006,"click_time":1552055258780,"finger_time":1552055255420,"fix_duration":945.3702485741222,"trial":43,"RT":1414,"MT":3360,"sideResp":2,"stimulus":"img/900/randomdotsizeEA/R/6_Ratio_900_L_9_R_10.png","xmouse":[753,753,753,753,753,753,753,753,753,753,753,753,753,753,753,753,753,753,753,753,753,753,753,753,753,753,753,753,753,753,753,753,753,753,753,753,753,753,753,753,753,753,753,753,753,753,753,753,753,753,753,753,753,753,753,753,753,753,753,753,753,753,753,753,753,753,753,753,753,754,757,760,760,760,760,760,760,760,760,760,760,760,760,760,760,760,760,760,760,760,760,760,760,760,760,756,751,745,739,739,739,738,738,737,735,733,733,733,729,727,723,716,707,691,651,632,625,624,624,624,624,624,624,624,624,624,624,624,623,623,620,612,598,544,507,486,472,466,463,462,460,458,457,456,455,455,455,455,458,458,459,461,468,535,614,712,821,921,996,1016,1018,1018,1018,1018,1018,1018,1018,1018,1018,1019,1020,1022,1024,1025,1030,1034,1037,1041,1044,1047,1047,1048,1050,1050,1053,1054,1055,1055,1056,1056,1056,1056,1056,1056,1056,1056,1056,1056,1056,1056,1056,1056,1056,1056,1056,1056,1056,1056,1054,1052,1052,1052,1052,1052,1052,1052,1052,1052,1052,1052,1052,1052,1052,1052,1052,1052,1052,1052,1052,1052,1052,1052,1052,1052,1052,1052,1052,1052,1078],"ymouse":[507,507,507,507,507,507,507,507,507,507,507,507,507,507,507,507,507,507,507,507,507,507,507,507,507,507,507,507,507,507,507,507,507,507,507,507,507,507,507,507,507,507,507,507,507,507,507,507,507,507,507,507,507,507,507,507,507,507,507,507,507,507,507,507,507,507,507,507,503,482,469,460,458,457,457,457,457,457,457,457,457,457,457,457,457,457,457,457,457,457,457,457,457,457,457,457,459,462,465,465,465,465,465,466,466,467,467,467,468,468,468,463,455,441,410,403,399,398,398,398,398,398,398,398,398,398,398,398,385,372,360,350,339,311,296,286,280,278,276,275,273,270,267,266,263,263,263,261,254,254,253,252,249,239,229,215,209,209,209,216,217,217,217,217,217,217,217,217,217,215,211,207,204,201,195,190,187,184,183,181,180,179,177,175,170,168,163,161,145,139,133,130,127,127,127,127,127,127,127,127,127,127,127,127,125,124,122,118,103,96,94,94,94,94,94,94,94,94,94,94,94,94,94,94,94,94,94,94,94,94,94,94,94,94,94,94,93,93,90],"timestamp_mouse":[14,35,54,74,94,113,135,154,175,194,215,235,254,275,294,314,334,355,374,395,415,435,453,475,494,514,535,555,575,594,614,634,655,674,695,715,733,755,775,794,814,834,855,875,895,915,934,953,974,995,1014,1035,1054,1075,1094,1113,1135,1155,1174,1194,1215,1234,1253,1274,1295,1315,1334,1353,1374,1395,1414,1435,1453,1475,1495,1514,1534,1561,1574,1593,1614,1634,1654,1674,1695,1714,1734,1754,1775,1794,1815,1834,1853,1875,1893,1914,1934,1955,1975,1994,2014,2035,2055,2074,2094,2114,2134,2154,2178,2193,2213,2233,2254,2274,2294,2314,2334,2355,2374,2394,2413,2435,2454,2474,2495,2515,2534,2554,2575,2594,2614,2635,2655,2674,2694,2714,2733,2753,2775,2794,2813,2834,2854,2875,2893,2914,2935,2954,2974,2993,3015,3034,3053,3075,3095,3114,3134,3155,3175,3195,3214,3234,3253,3275,3295,3314,3334,3354,3375,3395,3415,3434,3453,3474,3493,3515,3534,3555,3573,3593,3613,3635,3654,3673,3693,3715,3734,3754,3774,3795,3814,3834,3855,3874,3894,3914,3935,3955,3975,3994,4014,4035,4053,4074,4094,4114,4135,4155,4174,4194,4214,4235,4255,4274,4294,4314,4333,4353,4375,4395,4414,4434,4453,4475,4493,4514,4534,4555,4574,4594,4614,4634,4654,4674,4694,4713,4734,4755,4774],"xSR":741.5,"ySR":469.95,"xT1":424.9,"yT1":0,"xT2":1058.1,"yT2":0,"toosoon":0,"cond_shown":"randomdotsizeEA","ratio_trial":900,"smaller_num":"9","larger_num":"10","correct_side":2,"subjID":"JuanSebastianGonzalez","gender":"0","age":"No_ag","school":"4"},{"start_time":1552055260832,"click_time":1552055262120,"finger_time":1552055261659,"fix_duration":250,"trial":44,"RT":827,"MT":461,"sideResp":2,"stimulus":"img/750/randomdotsizeEA/R/5_Ratio_750_L_15_R_20.png","xmouse":[772,772,772,772,772,772,772,772,772,772,772,772,772,772,772,772,772,772,772,772,772,772,772,772,772,772,772,772,772,772,772,772,772,772,772,772,772,772,772,779,795,858,1016,1084,1143,1177,1190,1191,1184,1179,1176,1172,1170,1170,1170,1170,1169,1168,1167,1166,1165,1164,1157,1153,1149],"ymouse":[526,526,526,526,526,526,526,526,526,526,526,526,526,526,526,526,526,526,526,526,526,526,526,526,526,526,526,526,526,526,526,526,526,526,526,526,526,526,526,519,501,456,363,315,269,235,212,176,165,156,147,138,131,129,128,126,126,125,124,122,121,118,108,102,97],"timestamp_mouse":[12,36,49,68,89,108,127,148,168,189,207,227,249,267,289,309,329,349,369,389,408,428,449,469,489,508,529,549,568,589,608,628,649,669,688,709,727,748,768,788,808,827,849,867,889,908,928,948,968,987,1008,1028,1048,1067,1088,1109,1128,1149,1168,1187,1208,1228,1248,1268,1288],"xSR":741.5,"ySR":469.95,"xT1":424.9,"yT1":0,"xT2":1058.1,"yT2":0,"toosoon":0,"cond_shown":"randomdotsizeEA","ratio_trial":750,"smaller_num":"15","larger_num":"20","correct_side":2,"subjID":"JuanSebastianGonzalez","gender":"0","age":"No_ag","school":"4"},{"start_time":1552055264082,"click_time":1552055265060,"finger_time":1552055264741,"fix_duration":1021.3700095173755,"trial":45,"RT":659,"MT":319,"sideResp":1,"stimulus":"img/500/equaldotsize/L/11_Ratio_500_L_12_R_6.png","xmouse":[819,819,819,819,819,819,819,819,819,819,819,819,819,819,819,819,819,819,819,819,819,819,819,819,819,819,819,819,819,819,819,817,813,794,775,746,730,719,711,692,680,665,645,624,594,556,544,533,521],"ymouse":[485,485,485,485,485,485,485,485,485,485,485,485,485,485,485,485,485,485,485,485,485,485,485,485,485,485,485,485,485,485,485,476,469,435,407,361,341,324,312,282,266,248,231,214,188,154,134,117,98],"timestamp_mouse":[18,38,58,78,98,118,138,158,179,198,218,238,259,279,297,318,338,358,377,399,418,437,459,479,497,519,538,557,578,599,619,638,659,678,697,718,738,758,778,798,817,838,858,877,897,918,939,959,978],"xSR":741.5,"ySR":469.95,"xT1":424.9,"yT1":0,"xT2":1058.1,"yT2":0,"toosoon":0,"cond_shown":"equaldotsize","ratio_trial":500,"smaller_num":"6","larger_num":"12","correct_side":1,"subjID":"JuanSebastianGonzalez","gender":"0","age":"No_ag","school":"4"},{"start_time":1552055266800,"click_time":1552055268080,"finger_time":1552055267540,"fix_duration":639.8486235231187,"trial":46,"RT":740,"MT":540,"sideResp":2,"stimulus":"img/250/equaldotanddens/R/9_Ratio_250_L_3_R_12.png","xmouse":[769,769,769,769,769,769,769,769,769,769,769,769,769,769,769,769,769,769,769,769,769,769,769,769,769,769,769,769,769,769,769,769,770,770,772,775,790,853,889,1109,1192,1261,1293,1302,1302,1299,1296,1293,1291,1288,1284,1282,1279,1277,1272,1269,1268,1265,1258,1246,1218,1200,1179,1159,1144],"ymouse":[522,522,522,522,522,522,522,522,522,522,522,522,522,522,522,522,522,522,522,522,522,522,522,522,522,522,522,522,522,522,522,522,521,521,520,519,513,490,475,360,308,256,230,218,208,202,197,188,181,172,159,154,149,146,143,142,141,141,139,135,123,115,107,98,93],"timestamp_mouse":[2,19,40,60,80,100,120,141,160,181,201,219,241,260,280,300,319,340,360,380,400,419,441,461,481,499,520,540,561,581,600,620,640,661,680,700,720,740,760,780,799,820,840,860,880,900,919,939,961,980,1000,1020,1041,1061,1079,1100,1120,1139,1160,1181,1200,1220,1240,1261,1279],"xSR":741.5,"ySR":469.95,"xT1":424.9,"yT1":0,"xT2":1058.1,"yT2":0,"toosoon":0,"cond_shown":"equaldotanddens","ratio_trial":250,"smaller_num":"3","larger_num":"12","correct_side":2,"subjID":"JuanSebastianGonzalez","gender":"0","age":"No_ag","school":"4"},{"start_time":1552055269627,"click_time":1552055272141,"finger_time":1552055270840,"fix_duration":885.304450376217,"trial":47,"RT":1213,"MT":1301,"sideResp":2,"stimulus":"img/900/randomdotsizeEA/L/1_Ratio_900_L_10_R_9.png","xmouse":[796,796,794,794,794,793,793,793,793,793,793,793,793,793,793,793,793,793,793,793,793,793,793,793,793,793,793,793,793,793,793,793,793,793,793,793,793,793,793,793,793,793,793,793,793,793,793,793,793,793,793,793,793,793,793,793,793,793,798,810,829,862,911,977,986,988,988,988,987,986,986,986,986,986,986,986,987,988,994,997,1000,1001,1005,1007,1008,1010,1010,1015,1017,1019,1021,1021,1022,1022,1022,1022,1022,1022,1022,1022,1022,1022,1022,1054,1117,1135,1162,1174,1174,1173,1170,1169,1169,1169,1169,1169,1169,1169,1169,1169,1169,1169,1169,1165,1160,1155],"ymouse":[524,524,523,523,523,523,523,523,523,523,523,523,523,523,523,523,523,523,523,523,523,523,523,523,523,523,523,523,523,523,523,523,523,523,523,523,523,523,523,523,523,523,523,523,523,523,523,523,523,523,523,523,523,523,523,523,523,523,506,483,447,398,334,237,216,208,205,202,200,199,198,197,196,192,188,187,184,182,173,168,164,163,159,157,156,154,154,152,151,150,149,149,149,149,149,149,149,149,148,148,148,148,148,143,126,116,88,48,35,25,18,16,16,16,16,16,16,16,16,16,16,16,16,28,39,47],"timestamp_mouse":[14,35,54,74,94,112,133,153,172,192,214,232,254,272,293,312,333,353,373,393,413,433,453,473,493,514,533,554,572,593,612,634,653,672,694,714,732,753,773,793,813,833,852,873,894,914,934,953,974,993,1013,1034,1052,1073,1094,1113,1134,1152,1173,1193,1213,1233,1254,1272,1293,1313,1332,1354,1372,1393,1413,1432,1453,1472,1493,1513,1532,1552,1574,1593,1613,1633,1654,1672,1693,1714,1733,1754,1773,1793,1813,1833,1854,1874,1893,1914,1934,1953,1973,1992,2012,2033,2053,2073,2093,2114,2133,2154,2173,2192,2214,2233,2253,2273,2294,2313,2333,2354,2374,2393,2413,2433,2453,2473,2493,2514],"xSR":741.5,"ySR":469.95,"xT1":424.9,"yT1":0,"xT2":1058.1,"yT2":0,"toosoon":0,"cond_shown":"randomdotsizeEA","ratio_trial":900,"smaller_num":"9","larger_num":"10","correct_side":1,"subjID":"JuanSebastianGonzalez","gender":"0","age":"No_ag","school":"4"},{"start_time":1552055283808,"click_time":1552055285380,"finger_time":1552055284621,"fix_duration":587.122610368209,"trial":48,"RT":813,"MT":759,"sideResp":1,"stimulus":"img/250/equaldotanddens/L/15_Ratio_250_L_12_R_3.png","xmouse":[757,757,757,757,757,757,757,757,757,757,757,757,757,757,757,757,757,757,757,757,757,757,757,757,757,757,757,757,757,757,757,757,757,757,757,757,757,757,756,750,738,712,673,622,495,432,380,309,292,292,292,292,292,292,292,292,292,292,292,292,292,292,354,358,360,365,382,390,402,405,405,406,406,411,416,421,423,423,432],"ymouse":[524,524,524,524,524,524,524,524,524,524,524,524,524,524,524,524,524,524,524,524,524,524,524,524,524,524,524,524,524,524,524,524,524,524,524,524,524,524,524,521,505,475,438,394,280,207,145,42,13,13,13,13,13,13,13,13,13,13,13,13,13,13,1,2,3,5,18,25,45,51,52,53,53,56,61,63,64,64,64],"timestamp_mouse":[12,32,52,72,92,112,132,152,172,192,212,232,252,272,292,312,332,351,371,391,412,432,451,471,491,511,531,551,571,591,611,631,651,671,691,711,731,751,773,792,813,833,853,872,893,913,933,953,972,992,1013,1033,1053,1072,1093,1113,1133,1153,1174,1193,1213,1233,1252,1273,1291,1313,1333,1352,1373,1391,1412,1432,1452,1472,1492,1512,1532,1552,1572],"xSR":741.5,"ySR":469.95,"xT1":424.9,"yT1":0,"xT2":1058.1,"yT2":0,"toosoon":0,"cond_shown":"equaldotanddens","ratio_trial":250,"smaller_num":"3","larger_num":"12","correct_side":1,"subjID":"JuanSebastianGonzalez","gender":"0","age":"No_ag","school":"4"},{"start_time":1552055287712,"click_time":1552055289121,"finger_time":1552055288641,"fix_duration":1050.1848311090207,"trial":49,"RT":929,"MT":480,"sideResp":2,"stimulus":"img/900/equaldotanddens/L/1_Ratio_900_L_10_R_9.png","xmouse":[766,766,766,766,766,766,766,766,766,766,766,766,766,766,766,766,766,766,766,766,766,766,766,766,766,766,766,766,766,766,766,766,766,766,766,766,766,766,766,766,766,766,766,766,770,818,897,979,1057,1065,1066,1066,1066,1067,1067,1067,1067,1067,1067,1067,1067,1065,1050,1047,1047,1047,1047,1052,1056,1072,1076],"ymouse":[498,498,498,498,498,498,498,498,498,498,498,498,498,498,498,498,498,498,498,498,498,498,498,498,498,498,498,498,498,498,498,498,498,498,498,498,498,498,498,498,498,498,498,498,498,474,446,422,399,394,393,393,393,365,349,330,309,290,249,228,205,172,119,106,104,104,104,104,103,100,99],"timestamp_mouse":[12,34,48,68,89,108,127,148,168,189,207,229,249,268,288,308,328,348,369,388,407,429,449,467,489,508,529,548,568,589,607,628,649,669,688,709,727,748,768,789,807,829,849,869,887,908,929,949,968,988,1008,1028,1048,1071,1088,1109,1129,1149,1168,1189,1209,1229,1248,1268,1287,1308,1328,1349,1368,1388,1409],"xSR":741.5,"ySR":469.95,"xT1":424.9,"yT1":0,"xT2":1058.1,"yT2":0,"toosoon":0,"cond_shown":"equaldotanddens","ratio_trial":900,"smaller_num":"9","larger_num":"10","correct_side":1,"subjID":"JuanSebastianGonzalez","gender":"0","age":"No_ag","school":"4"},{"start_time":1552055291520,"click_time":1552055293101,"finger_time":1552055292059,"fix_duration":1339.9812344367324,"trial":50,"RT":539,"MT":1042,"sideResp":2,"stimulus":"img/500/equaldotsize/R/9_Ratio_500_L_2_R_4.png","xmouse":[839,839,839,839,839,839,839,839,839,839,839,839,839,839,824,803,782,765,754,753,753,753,753,750,746,745,743,741,739,733,728,722,721,717,717,717,717,717,717,716,714,709,701,660,633,599,572,554,547,547,547,547,547,554,574,615,682,757,832,976,1034,1065,1088,1104,1117,1123,1131,1141,1149,1168,1179,1189,1192,1193,1184,1172,1152,1129,1086,1070],"ymouse":[521,521,521,521,521,521,521,521,521,521,521,521,521,521,521,521,523,527,531,531,531,531,531,525,515,502,490,476,465,446,435,423,421,414,412,412,412,412,410,407,402,393,379,321,286,244,216,198,194,193,193,193,193,198,211,236,274,307,338,381,389,390,390,386,368,356,343,327,311,277,256,223,212,179,146,134,126,118,101,92],"timestamp_mouse":[6,20,46,60,79,101,121,140,160,180,199,221,240,261,281,300,321,340,360,380,401,419,439,460,480,500,520,539,559,579,600,619,640,660,680,700,720,740,761,780,800,820,840,860,880,900,920,940,961,980,1000,1020,1040,1060,1080,1101,1120,1139,1159,1179,1200,1220,1239,1260,1280,1300,1319,1340,1360,1380,1401,1419,1440,1460,1480,1500,1520,1541,1560,1581],"xSR":741.5,"ySR":469.95,"xT1":424.9,"yT1":0,"xT2":1058.1,"yT2":0,"toosoon":0,"cond_shown":"equaldotsize","ratio_trial":500,"smaller_num":"2","larger_num":"4","correct_side":2,"subjID":"JuanSebastianGonzalez","gender":"0","age":"No_ag","school":"4"},{"start_time":1552055294212,"click_time":1552055295181,"finger_time":1552055295080,"fix_duration":250,"trial":51,"RT":868,"MT":101,"sideResp":2,"stimulus":"img/750/equaldotanddens/R/4_Ratio_750_L_15_R_20.png","xmouse":[790,790,790,790,790,790,790,790,790,790,790,790,790,790,790,790,790,790,790,790,790,790,790,790,790,790,790,790,790,790,790,790,790,790,790,790,790,790,790,790,790,790,804,910,1006,1088,1149,1179,1138],"ymouse":[502,502,502,502,502,502,502,502,502,502,502,502,502,502,502,502,502,502,502,502,502,502,502,502,502,502,502,502,502,502,502,502,502,502,502,502,502,502,502,502,502,502,488,413,335,253,174,109,66],"timestamp_mouse":[13,36,48,68,89,109,127,149,169,187,208,229,248,268,288,309,329,348,369,388,409,429,449,469,488,508,528,548,569,587,608,627,649,669,689,709,729,749,768,788,808,829,848,868,887,908,928,948,968],"xSR":741.5,"ySR":469.95,"xT1":424.9,"yT1":0,"xT2":1058.1,"yT2":0,"toosoon":0,"cond_shown":"equaldotanddens","ratio_trial":750,"smaller_num":"15","larger_num":"20","correct_side":2,"subjID":"JuanSebastianGonzalez","gender":"0","age":"No_ag","school":"4"},{"start_time":1552055296853,"click_time":1552055298180,"finger_time":1552055297660,"fix_duration":250,"trial":52,"RT":807,"MT":520,"sideResp":1,"stimulus":"img/500/randomdotsizeEA/L/11_Ratio_500_L_12_R_6.png","xmouse":[774,774,774,774,774,774,774,774,774,774,774,774,774,774,774,774,774,774,774,774,774,774,774,774,774,774,774,774,774,774,774,774,774,774,774,774,774,774,769,760,737,678,651,627,607,586,535,513,500,488,479,466,461,459,458,458,458,458,458,458,458,461,465,470,475,478,479],"ymouse":[545,545,545,545,545,545,545,545,545,545,545,545,545,545,545,545,545,545,545,545,545,545,545,545,545,545,545,545,545,545,545,545,545,545,545,545,545,545,541,537,524,495,477,462,445,427,368,335,311,284,262,231,223,220,219,219,219,219,219,219,217,205,190,171,148,124,88],"timestamp_mouse":[12,43,47,67,88,108,126,146,167,188,207,228,246,267,287,308,328,348,367,387,408,426,447,468,487,508,527,548,566,587,607,627,647,668,687,706,727,748,767,788,807,827,846,867,886,906,928,948,967,988,1008,1028,1048,1067,1087,1108,1128,1147,1167,1187,1207,1227,1247,1267,1287,1308,1327],"xSR":741.5,"ySR":469.95,"xT1":424.9,"yT1":0,"xT2":1058.1,"yT2":0,"toosoon":0,"cond_shown":"randomdotsizeEA","ratio_trial":500,"smaller_num":"6","larger_num":"12","correct_side":1,"subjID":"JuanSebastianGonzalez","gender":"0","age":"No_ag","school":"4"},{"start_time":1552055299452,"click_time":1552055300902,"finger_time":1552055300341,"fix_duration":250,"trial":53,"RT":889,"MT":561,"sideResp":2,"stimulus":"img/750/randomdotsizeEA/R/12_Ratio_750_L_3_R_4.png","xmouse":[795,795,795,795,795,795,795,795,795,795,795,795,795,795,795,795,795,795,795,795,795,795,795,795,795,795,795,795,795,795,795,795,795,795,795,795,795,795,795,795,795,795,798,799,812,822,849,887,901,909,915,916,916,916,916,916,918,921,927,935,943,948,954,958,963,973,982,996,1006,1017,1030,1057,1068],"ymouse":[510,510,510,510,510,510,510,510,510,510,510,510,510,510,510,510,510,510,510,510,510,510,510,510,510,510,510,510,510,510,510,510,510,510,510,510,510,510,510,510,510,510,499,486,420,390,297,206,173,155,145,143,143,143,143,143,139,138,136,135,134,133,132,132,132,132,132,130,129,125,121,108,99],"timestamp_mouse":[13,27,47,68,89,108,128,148,169,189,209,229,248,268,289,308,327,348,368,388,408,428,448,469,489,509,529,549,569,588,607,629,649,669,688,709,729,749,767,787,809,828,848,868,889,910,930,949,970,990,1008,1028,1048,1069,1089,1109,1129,1150,1169,1190,1209,1229,1248,1269,1288,1309,1328,1349,1368,1389,1409,1430,1450],"xSR":741.5,"ySR":469.95,"xT1":424.9,"yT1":0,"xT2":1058.1,"yT2":0,"toosoon":0,"cond_shown":"randomdotsizeEA","ratio_trial":750,"smaller_num":"3","larger_num":"4","correct_side":2,"subjID":"JuanSebastianGonzalez","gender":"0","age":"No_ag","school":"4"},{"start_time":1552055302373,"click_time":1552055304322,"finger_time":1552055303242,"fix_duration":250,"trial":54,"RT":869,"MT":1080,"sideResp":2,"stimulus":"img/900/equaldotanddens/L/1_Ratio_900_L_10_R_9.png","xmouse":[759,759,759,759,759,