[{"start_time":1552054149643,"click_time":1552054153450,"finger_time":1552054151868,"fix_duration":806.1864127677192,"trial":0,"RT":2225,"MT":1582,"sideResp":1,"stimulus":[],"xmouse":[776,776,776,776,776,776,776,776,776,776,776,776,776,776,776,776,776,776,776,776,776,776,776,776,776,776,776,776,776,776,776,776,776,776,776,776,776,776,776,776,776,776,776,776,776,776,776,776,776,776,776,776,776,776,776,776,776,776,776,776,776,776,776,776,776,776,776,776,776,776,776,776,776,776,778,785,789,796,803,804,804,804,804,805,805,805,805,805,805,805,805,805,805,805,805,805,805,805,805,805,805,805,805,805,805,805,805,805,811,828,844,850,851,851,851,851,851,851,851,851,851,851,851,852,849,842,831,826,823,823,823,823,823,823,823,823,823,823,823,824,824,824,824,824,823,821,810,807,802,800,799,798,798,796,794,792,790,785,767,752,730,709,690,658,630,593,553,502,463,451,445,441,439,437,436,434,431,426,425,425,425,425,433,436,439,439,440,440,446,450],"ymouse":[536,536,540,541,541,541,541,541,541,541,541,541,541,541,541,541,541,541,541,541,541,541,541,541,541,541,541,541,541,541,541,541,541,541,541,541,541,541,541,541,541,541,541,541,541,541,541,541,541,541,541,541,541,541,541,541,541,541,541,541,541,541,541,541,541,541,541,541,541,541,541,541,541,541,540,534,531,526,522,521,520,520,520,520,520,520,520,520,520,520,520,520,520,520,520,520,520,520,520,520,520,520,520,520,520,520,520,520,520,516,513,511,511,511,511,511,511,511,511,511,511,511,511,511,515,520,527,529,531,531,531,531,531,531,531,531,531,531,529,527,526,525,525,525,521,518,508,505,501,499,498,497,497,495,494,493,493,493,493,493,493,493,491,476,455,426,390,336,280,262,251,244,240,229,221,207,194,180,170,169,166,161,144,136,130,127,125,125,110,96],"timestamp_mouse":[11,48,65,87,106,127,146,167,187,206,227,245,266,286,307,327,347,366,385,405,426,446,466,486,506,525,546,566,587,607,627,647,667,687,707,726,747,765,787,806,827,847,866,887,907,927,947,967,987,1005,1026,1047,1066,1087,1105,1127,1147,1165,1185,1207,1227,1245,1267,1287,1306,1327,1346,1367,1387,1405,1427,1446,1467,1487,1506,1525,1547,1566,1586,1605,1627,1645,1666,1687,1707,1727,1746,1766,1787,1806,1827,1848,1867,1887,1907,1925,1947,1967,1986,2007,2027,2047,2066,2086,2106,2127,2147,2167,2187,2205,2225,2247,2267,2286,2306,2326,2346,2365,2386,2407,2426,2446,2465,2485,2506,2526,2545,2566,2585,2606,2627,2647,2667,2686,2707,2726,2747,2767,2785,2805,2827,2847,2867,2886,2906,2926,2946,2965,2987,3005,3025,3047,3066,3086,3107,3125,3146,3166,3185,3205,3226,3246,3266,3285,3306,3326,3347,3366,3386,3406,3427,3446,3466,3486,3506,3525,3546,3566,3585,3606,3626,3646,3668,3685,3706,3726,3746,3765,3785,3806],"xSR":741.5,"ySR":501.8,"xT1":424.9,"yT1":0,"xT2":1058.1,"yT2":0,"toosoon":0,"cond_shown":"Incongruent","ratio_trial":200,"L_num":3,"L_den":4,"R_num":11,"R_den":20,"correct_side":1,"subjID":"JuanSebastianGonzalez30","gender":"0","age":"4","school":"4","test":{"fix_dur":[250,1500],"timestim":1000,"targets_dim":[100,100],"targets_relative_coord":[0.3,0.7],"size_stim":[880,420],"start_dim":[100,100],"size_start":[300,300],"size_fix":60,"samplingrate":20,"img_types":["Congruent","Incongruent"],"ratios":[100,200,300],"rep_conds":19,"nTrials":120,"trials_to_rest":500,"Trials_order":[39,101,38,95,86,2,97,35,47,103,14,89,92,79,63,40,76,69,64,113,67,7,108,30,56,102,87,73,72,98,84,16,25,81,105,110,19,115,11,75,44,9,27,51,34,5,36,111,54,106,28,74,85,90,32,78,23,107,80,8,41,83,82,13,114,57,59,31,117,52,21,0,29,104,118,24,17,1,22,3,45,71,96,109,26,37,48,62,20,112,49,58,33,6,53,12,77,18,43,50,42,15,70,61,99,116,93,65,60,68,100,119,10,55,46,4,88,94,66,91],"cond_shown":["Incongruent","Incongruent","Congruent","Incongruent","Congruent","Congruent","Incongruent","Incongruent","Incongruent","Incongruent","Congruent","Incongruent","Congruent","Incongruent","Incongruent","Congruent","Congruent","Incongruent","Congruent","Incongruent","Incongruent","Incongruent","Congruent","Congruent","Congruent","Congruent","Incongruent","Incongruent","Congruent","Congruent","Congruent","Congruent","Incongruent","Incongruent","Incongruent","Congruent","Incongruent","Incongruent","Incongruent","Incongruent","Congruent","Incongruent","Incongruent","Incongruent","Congruent","Incongruent","Congruent","Incongruent","Congruent","Congruent","Congruent","Congruent","Incongruent","Congruent","Congruent","Congruent","Incongruent","Incongruent","Congruent","Congruent","Incongruent","Incongruent","Congruent","Incongruent","Congruent","Incongruent","Incongruent","Incongruent","Incongruent","Congruent","Incongruent","Congruent","Incongruent","Congruent","Congruent","Congruent","Incongruent","Incongruent","Congruent","Incongruent","Incongruent","Incongruent","Congruent","Incongruent","Congruent","Incongruent","Congruent","Congruent","Congruent","Congruent","Incongruent","Congruent","Incongruent","Congruent","Incongruent","Congruent","Incongruent","Congruent","Incongruent","Congruent","Congruent","Incongruent","Congruent","Incongruent","Incongruent","Congruent","Incongruent","Incongruent","Congruent","Congruent","Congruent","Incongruent","Congruent","Incongruent","Congruent","Congruent","Congruent","Congruent","Congruent","Incongruent"],"ratio_trial":[200,300,200,300,200,200,100,300,300,100,200,300,200,100,200,300,300,200,300,300,100,100,100,100,200,100,200,100,100,200,100,300,100,200,200,200,100,100,300,200,200,200,200,200,300,300,100,200,100,300,300,200,100,100,200,100,300,300,200,200,300,300,300,100,100,200,300,100,200,300,200,100,300,200,300,100,300,100,300,200,200,300,100,100,200,100,100,200,200,300,100,300,200,100,300,100,300,100,100,200,100,200,300,100,200,200,200,300,100,200,300,300,300,100,300,300,300,300,100,100],"left_num":[3,1,13,1,3,9,3,4,13,10,9,4,3,9,4,20,5,7,1,8,9,2,1,6,15,11,14,8,2,16,4,1,6,1,7,12,3,12,4,6,7,14,7,3,3,13,1,7,1,1,4,3,2,3,9,7,4,4,3,3,13,1,1,17,2,9,1,6,11,11,11,3,4,7,1,4,8,10,8,1,4,4,11,3,8,6,4,4,7,20,8,24,14,3,1,4,7,4,10,20,10,1,2,6,7,12,7,4,7,11,5,1,4,8,3,20,8,20,2,3],"right_num":[11,3,14,3,7,13,11,2,12,8,13,2,7,6,6,9,7,8,19,9,13,8,3,15,4,4,12,6,11,12,6,8,7,2,6,6,4,2,2,3,18,6,8,1,11,12,18,14,18,3,2,14,6,2,13,9,2,2,14,9,12,3,8,10,6,8,2,13,3,4,3,4,2,18,7,15,14,9,1,2,6,2,6,8,7,7,6,3,2,9,1,2,6,4,2,6,8,6,9,9,3,2,12,11,4,6,12,2,9,3,7,2,13,1,2,13,1,14,6,8],"left_den":[4,2,26,2,10,30,5,20,26,25,30,20,10,18,5,25,25,10,3,10,15,4,2,12,25,22,30,16,5,20,8,30,10,3,15,20,6,30,20,20,15,30,10,10,12,26,2,10,2,5,5,6,4,6,30,14,20,20,6,12,26,2,30,30,5,15,2,10,20,22,20,20,20,15,20,10,10,25,16,3,5,20,22,5,15,10,8,8,21,25,20,30,30,20,2,8,10,8,25,25,25,3,10,10,15,20,10,20,14,22,25,2,20,20,6,25,16,25,5,5],"right_den":[20,15,20,15,14,26,22,4,15,16,26,4,14,10,10,18,14,16,30,18,26,20,5,25,10,10,18,10,22,20,10,24,14,15,9,15,10,4,4,6,27,9,16,2,20,15,30,28,30,6,4,20,15,5,26,15,4,4,20,20,15,15,24,15,12,10,10,26,4,20,4,16,4,27,20,30,28,18,5,15,10,4,15,16,21,14,10,10,15,18,2,4,9,16,10,10,20,10,18,15,10,15,24,22,6,15,24,4,15,10,14,10,26,2,10,26,5,28,12,16],"correct_side":[1,1,2,1,2,2,1,2,2,2,2,2,2,2,1,1,2,1,2,1,1,1,2,2,1,1,2,2,2,1,2,2,1,1,2,1,1,2,2,2,2,2,1,2,2,2,2,1,2,2,1,2,1,1,2,2,2,2,2,2,2,1,2,2,2,2,1,1,2,1,2,2,2,2,2,2,1,2,1,1,1,2,1,1,1,1,2,1,1,1,2,1,2,2,1,2,1,2,2,1,1,1,2,1,2,1,1,2,2,1,2,1,2,2,1,1,1,1,2,1],"img_shown":["img2/200/Incongruent/L/I_Dist_200_LN_3_LD_4_RN_11_RD_20_0.png","img2/300/Incongruent/L/I_Dist_300_LN_1_LD_2_RN_3_RD_15_0.png","img2/200/Congruent/R/C_Dist_200_LN_13_LD_26_RN_14_RD_20_1.png","img2/300/Incongruent/L/I_Dist_300_LN_1_LD_2_RN_3_RD_15_0.png","img2/200/Congruent/R/C_Dist_200_LN_3_LD_10_RN_7_RD_14_1.png","img2/200/Congruent/R/C_Dist_200_LN_9_LD_30_RN_13_RD_26_1.png","img2/100/Incongruent/L/I_Dist_100_LN_3_LD_5_RN_11_RD_22_0.png","img2/300/Incongruent/R/I_Dist_300_LN_4_LD_20_RN_2_RD_4_1.png","img2/300/Incongruent/R/I_Dist_300_LN_13_LD_26_RN_12_RD_15_1.png","img2/100/Incongruent/R/I_Dist_100_LN_10_LD_25_RN_8_RD_16_1.png","img2/200/Congruent/R/C_Dist_200_LN_9_LD_30_RN_13_RD_26_1.png","img2/300/Incongruent/R/I_Dist_300_LN_4_LD_20_RN_2_RD_4_1.png","img2/200/Congruent/R/C_Dist_200_LN_3_LD_10_RN_7_RD_14_1.png","img2/100/Incongruent/R/I_Dist_100_LN_9_LD_18_RN_6_RD_10_1.png","img2/200/Incongruent/L/I_Dist_200_LN_4_LD_5_RN_6_RD_10_0.png","img2/300/Congruent/L/C_Dist_300_LN_20_LD_25_RN_9_RD_18_0.png","img2/300/Congruent/R/C_Dist_300_LN_5_LD_25_RN_7_RD_14_1.png","img2/200/Incongruent/L/I_Dist_200_LN_7_LD_10_RN_8_RD_16_0.png","img2/300/Congruent/R/C_Dist_300_LN_1_LD_3_RN_19_RD_30_1.png","img2/300/Incongruent/L/I_Dist_300_LN_8_LD_10_RN_9_RD_18_0.png","img2/100/Incongruent/L/I_Dist_100_LN_9_LD_15_RN_13_RD_26_0.png","img2/100/Incongruent/L/I_Dist_100_LN_2_LD_4_RN_8_RD_20_0.png","img2/100/Congruent/R/C_Dist_100_LN_1_LD_2_RN_3_RD_5_1.png","img2/100/Congruent/R/C_Dist_100_LN_6_LD_12_RN_15_RD_25_1.png","img2/200/Congruent/L/C_Dist_200_LN_15_LD_25_RN_4_RD_10_0.png","img2/100/Congruent/L/C_Dist_100_LN_11_LD_22_RN_4_RD_10_0.png","img2/200/Incongruent/R/I_Dist_200_LN_14_LD_30_RN_12_RD_18_1.png","img2/100/Incongruent/R/I_Dist_100_LN_8_LD_16_RN_6_RD_10_1.png","img2/100/Congruent/R/C_Dist_100_LN_2_LD_5_RN_11_RD_22_1.png","img2/200/Congruent/L/C_Dist_200_LN_16_LD_20_RN_12_RD_20_0.png","img2/100/Congruent/R/C_Dist_100_LN_4_LD_8_RN_6_RD_10_1.png","img2/300/Congruent/R/C_Dist_300_LN_1_LD_30_RN_8_RD_24_1.png","img2/100/Incongruent/L/I_Dist_100_LN_6_LD_10_RN_7_RD_14_0.png","img2/200/Incongruent/L/I_Dist_200_LN_1_LD_3_RN_2_RD_15_0.png","img2/200/Incongruent/R/I_Dist_200_LN_7_LD_15_RN_6_RD_9_1.png","img2/200/Congruent/L/C_Dist_200_LN_12_LD_20_RN_6_RD_15_0.png","img2/100/Incongruent/L/I_Dist_100_LN_3_LD_6_RN_4_RD_10_0.png","img2/100/Incongruent/R/I_Dist_100_LN_12_LD_30_RN_2_RD_4_1.png","img2/300/Incongruent/R/I_Dist_300_LN_4_LD_20_RN_2_RD_4_1.png","img2/200/Incongruent/R/I_Dist_200_LN_6_LD_20_RN_3_RD_6_1.png","img2/200/Congruent/R/C_Dist_200_LN_7_LD_15_RN_18_RD_27_1.png","img2/200/Incongruent/R/I_Dist_200_LN_14_LD_30_RN_6_RD_9_1.png","img2/200/Incongruent/L/I_Dist_200_LN_7_LD_10_RN_8_RD_16_0.png","img2/200/Incongruent/R/I_Dist_200_LN_3_LD_10_RN_1_RD_2_1.png","img2/300/Congruent/R/C_Dist_300_LN_3_LD_12_RN_11_RD_20_1.png","img2/300/Incongruent/R/I_Dist_300_LN_13_LD_26_RN_12_RD_15_1.png","img2/100/Congruent/R/C_Dist_100_LN_1_LD_2_RN_18_RD_30_1.png","img2/200/Incongruent/L/I_Dist_200_LN_7_LD_10_RN_14_RD_28_0.png","img2/100/Congruent/R/C_Dist_100_LN_1_LD_2_RN_18_RD_30_1.png","img2/300/Congruent/R/C_Dist_300_LN_1_LD_5_RN_3_RD_6_1.png","img2/300/Congruent/L/C_Dist_300_LN_4_LD_5_RN_2_RD_4_0.png","img2/200/Congruent/R/C_Dist_200_LN_3_LD_6_RN_14_RD_20_1.png","img2/100/Incongruent/L/I_Dist_100_LN_2_LD_4_RN_6_RD_15_0.png","img2/100/Congruent/L/C_Dist_100_LN_3_LD_6_RN_2_RD_5_0.png","img2/200/Congruent/R/C_Dist_200_LN_9_LD_30_RN_13_RD_26_1.png","img2/100/Congruent/R/C_Dist_100_LN_7_LD_14_RN_9_RD_15_1.png","img2/300/Incongruent/R/I_Dist_300_LN_4_LD_20_RN_2_RD_4_1.png","img2/300/Incongruent/R/I_Dist_300_LN_4_LD_20_RN_2_RD_4_1.png","img2/200/Congruent/R/C_Dist_200_LN_3_LD_6_RN_14_RD_20_1.png","img2/200/Congruent/R/C_Dist_200_LN_3_LD_12_RN_9_RD_20_1.png","img2/300/Incongruent/R/I_Dist_300_LN_13_LD_26_RN_12_RD_15_1.png","img2/300/Incongruent/L/I_Dist_300_LN_1_LD_2_RN_3_RD_15_0.png","img2/300/Congruent/R/C_Dist_300_LN_1_LD_30_RN_8_RD_24_1.png","img2/100/Incongruent/R/I_Dist_100_LN_17_LD_30_RN_10_RD_15_1.png","img2/100/Congruent/R/C_Dist_100_LN_2_LD_5_RN_6_RD_12_1.png","img2/200/Incongruent/R/I_Dist_200_LN_9_LD_15_RN_8_RD_10_1.png","img2/300/Incongruent/L/I_Dist_300_LN_1_LD_2_RN_2_RD_10_0.png","img2/100/Incongruent/L/I_Dist_100_LN_6_LD_10_RN_13_RD_26_0.png","img2/200/Incongruent/R/I_Dist_200_LN_11_LD_20_RN_3_RD_4_1.png","img2/300/Congruent/L/C_Dist_300_LN_11_LD_22_RN_4_RD_20_0.png","img2/200/Incongruent/R/I_Dist_200_LN_11_LD_20_RN_3_RD_4_1.png","img2/100/Congruent/R/C_Dist_100_LN_3_LD_20_RN_4_RD_16_1.png","img2/300/Incongruent/R/I_Dist_300_LN_4_LD_20_RN_2_RD_4_1.png","img2/200/Congruent/R/C_Dist_200_LN_7_LD_15_RN_18_RD_27_1.png","img2/300/Congruent/R/C_Dist_300_LN_1_LD_20_RN_7_RD_20_1.png","img2/100/Congruent/R/C_Dist_100_LN_4_LD_10_RN_15_RD_30_1.png","img2/300/Incongruent/L/I_Dist_300_LN_8_LD_10_RN_14_RD_28_0.png","img2/100/Incongruent/R/I_Dist_100_LN_10_LD_25_RN_9_RD_18_1.png","img2/300/Congruent/L/C_Dist_300_LN_8_LD_16_RN_1_RD_5_0.png","img2/200/Incongruent/L/I_Dist_200_LN_1_LD_3_RN_2_RD_15_0.png","img2/200/Incongruent/L/I_Dist_200_LN_4_LD_5_RN_6_RD_10_0.png","img2/300/Incongruent/R/I_Dist_300_LN_4_LD_20_RN_2_RD_4_1.png","img2/100/Congruent/L/C_Dist_100_LN_11_LD_22_RN_6_RD_15_0.png","img2/100/Incongruent/L/I_Dist_100_LN_3_LD_5_RN_8_RD_16_0.png","img2/200/Congruent/L/C_Dist_200_LN_8_LD_15_RN_7_RD_21_0.png","img2/100/Incongruent/L/I_Dist_100_LN_6_LD_10_RN_7_RD_14_0.png","img2/100/Congruent/R/C_Dist_100_LN_4_LD_8_RN_6_RD_10_1.png","img2/200/Congruent/L/C_Dist_200_LN_4_LD_8_RN_3_RD_10_0.png","img2/200/Congruent/L/C_Dist_200_LN_7_LD_21_RN_2_RD_15_0.png","img2/300/Congruent/L/C_Dist_300_LN_20_LD_25_RN_9_RD_18_0.png","img2/100/Incongruent/R/I_Dist_100_LN_8_LD_20_RN_1_RD_2_1.png","img2/300/Congruent/L/C_Dist_300_LN_24_LD_30_RN_2_RD_4_0.png","img2/200/Incongruent/R/I_Dist_200_LN_14_LD_30_RN_6_RD_9_1.png","img2/100/Congruent/R/C_Dist_100_LN_3_LD_20_RN_4_RD_16_1.png","img2/300/Incongruent/L/I_Dist_300_LN_1_LD_2_RN_2_RD_10_0.png","img2/100/Congruent/R/C_Dist_100_LN_4_LD_8_RN_6_RD_10_1.png","img2/300/Incongruent/L/I_Dist_300_LN_7_LD_10_RN_8_RD_20_0.png","img2/100/Congruent/R/C_Dist_100_LN_4_LD_8_RN_6_RD_10_1.png","img2/100/Incongruent/R/I_Dist_100_LN_10_LD_25_RN_9_RD_18_1.png","img2/200/Congruent/L/C_Dist_200_LN_20_LD_25_RN_9_RD_15_0.png","img2/100/Congruent/L/C_Dist_100_LN_10_LD_25_RN_3_RD_10_0.png","img2/200/Incongruent/L/I_Dist_200_LN_1_LD_3_RN_2_RD_15_0.png","img2/300/Congruent/R/C_Dist_300_LN_2_LD_10_RN_12_RD_24_1.png","img2/100/Incongruent/L/I_Dist_100_LN_6_LD_10_RN_11_RD_22_0.png","img2/200/Incongruent/R/I_Dist_200_LN_7_LD_15_RN_4_RD_6_1.png","img2/200/Congruent/L/C_Dist_200_LN_12_LD_20_RN_6_RD_15_0.png","img2/200/Incongruent/L/I_Dist_200_LN_7_LD_10_RN_12_RD_24_0.png","img2/300/Incongruent/R/I_Dist_300_LN_4_LD_20_RN_2_RD_4_1.png","img2/100/Congruent/R/C_Dist_100_LN_7_LD_14_RN_9_RD_15_1.png","img2/200/Congruent/L/C_Dist_200_LN_11_LD_22_RN_3_RD_10_0.png","img2/300/Congruent/R/C_Dist_300_LN_5_LD_25_RN_7_RD_14_1.png","img2/300/Incongruent/L/I_Dist_300_LN_1_LD_2_RN_2_RD_10_0.png","img2/300/Congruent/R/C_Dist_300_LN_4_LD_20_RN_13_RD_26_1.png","img2/100/Incongruent/R/I_Dist_100_LN_8_LD_20_RN_1_RD_2_1.png","img2/300/Congruent/L/C_Dist_300_LN_3_LD_6_RN_2_RD_10_0.png","img2/300/Congruent/L/C_Dist_300_LN_20_LD_25_RN_13_RD_26_0.png","img2/300/Congruent/L/C_Dist_300_LN_8_LD_16_RN_1_RD_5_0.png","img2/300/Congruent/L/C_Dist_300_LN_20_LD_25_RN_14_RD_28_0.png","img2/100/Congruent/R/C_Dist_100_LN_2_LD_5_RN_6_RD_12_1.png","img2/100/Incongruent/L/I_Dist_100_LN_3_LD_5_RN_8_RD_16_0.png"],"dist100_C":[["C_Dist_100_LN_10_LD_25_RN_3_RD_10_0.png","C_Dist_100_LN_11_LD_22_RN_4_RD_10_0.png","C_Dist_100_LN_11_LD_22_RN_6_RD_15_0.png","C_Dist_100_LN_15_LD_25_RN_13_RD_26_0.png","C_Dist_100_LN_3_LD_6_RN_2_RD_5_0.png","C_Dist_100_LN_6_LD_20_RN_5_RD_25_0.png","C_Dist_100_LN_8_LD_16_RN_2_RD_5_0.png","C_Dist_100_LN_9_LD_15_RN_8_RD_16_0.png"],["C_Dist_100_LN_1_LD_2_RN_18_RD_30_1.png","C_Dist_100_LN_1_LD_2_RN_3_RD_5_1.png","C_Dist_100_LN_12_LD_30_RN_13_RD_26_1.png","C_Dist_100_LN_2_LD_5_RN_11_RD_22_1.png","C_Dist_100_LN_2_LD_5_RN_6_RD_12_1.png","C_Dist_100_LN_3_LD_20_RN_4_RD_16_1.png","C_Dist_100_LN_4_LD_10_RN_15_RD_30_1.png","C_Dist_100_LN_4_LD_8_RN_6_RD_10_1.png","C_Dist_100_LN_6_LD_12_RN_15_RD_25_1.png","C_Dist_100_LN_7_LD_14_RN_15_RD_25_1.png","C_Dist_100_LN_7_LD_14_RN_9_RD_15_1.png"]],"dist100_I":[["I_Dist_100_LN_1_LD_2_RN_8_RD_20_0.png","I_Dist_100_LN_2_LD_4_RN_6_RD_15_0.png","I_Dist_100_LN_2_LD_4_RN_8_RD_20_0.png","I_Dist_100_LN_3_LD_5_RN_11_RD_22_0.png","I_Dist_100_LN_3_LD_5_RN_8_RD_16_0.png","I_Dist_100_LN_3_LD_6_RN_4_RD_10_0.png","I_Dist_100_LN_3_LD_9_RN_7_RD_30_0.png","I_Dist_100_LN_4_LD_8_RN_8_RD_20_0.png","I_Dist_100_LN_6_LD_10_RN_11_RD_22_0.png","I_Dist_100_LN_6_LD_10_RN_13_RD_26_0.png","I_Dist_100_LN_6_LD_10_RN_7_RD_14_0.png","I_Dist_100_LN_9_LD_10_RN_20_RD_25_0.png","I_Dist_100_LN_9_LD_15_RN_13_RD_26_0.png","I_Dist_100_LN_9_LD_15_RN_14_RD_28_0.png"],["I_Dist_100_LN_10_LD_25_RN_8_RD_16_1.png","I_Dist_100_LN_10_LD_25_RN_9_RD_18_1.png","I_Dist_100_LN_11_LD_22_RN_9_RD_15_1.png","I_Dist_100_LN_12_LD_24_RN_9_RD_15_1.png","I_Dist_100_LN_12_LD_30_RN_2_RD_4_1.png","I_Dist_100_LN_13_LD_26_RN_12_RD_20_1.png","I_Dist_100_LN_13_LD_26_RN_6_RD_10_1.png","I_Dist_100_LN_17_LD_30_RN_10_RD_15_1.png","I_Dist_100_LN_6_LD_12_RN_3_RD_5_1.png","I_Dist_100_LN_8_LD_16_RN_6_RD_10_1.png","I_Dist_100_LN_8_LD_20_RN_1_RD_2_1.png","I_Dist_100_LN_9_LD_18_RN_6_RD_10_1.png"]],"dist100_S":[["E_Dist_100_LN_2_LD_12_RN_2_RD_30_0.png","E_Dist_100_LN_6_LD_10_RN_6_RD_12_0.png"],["E_Dist_100_LN_6_LD_12_RN_6_RD_10_1.png"]],"dist200_C":[["C_Dist_200_LN_11_LD_22_RN_3_RD_10_0.png","C_Dist_200_LN_12_LD_15_RN_6_RD_10_0.png","C_Dist_200_LN_12_LD_20_RN_6_RD_15_0.png","C_Dist_200_LN_14_LD_28_RN_6_RD_20_0.png","C_Dist_200_LN_15_LD_25_RN_4_RD_10_0.png","C_Dist_200_LN_16_LD_20_RN_12_RD_20_0.png","C_Dist_200_LN_16_LD_30_RN_9_RD_27_0.png","C_Dist_200_LN_20_LD_25_RN_9_RD_15_0.png","C_Dist_200_LN_21_LD_30_RN_2_RD_4_0.png","C_Dist_200_LN_4_LD_10_RN_3_RD_15_0.png","C_Dist_200_LN_4_LD_8_RN_3_RD_10_0.png","C_Dist_200_LN_6_LD_15_RN_3_RD_15_0.png","C_Dist_200_LN_7_LD_21_RN_2_RD_15_0.png","C_Dist_200_LN_8_LD_15_RN_2_RD_6_0.png","C_Dist_200_LN_8_LD_15_RN_3_RD_9_0.png","C_Dist_200_LN_8_LD_15_RN_7_RD_21_0.png","C_Dist_200_LN_9_LD_20_RN_4_RD_16_0.png"],["C_Dist_200_LN_1_LD_2_RN_21_RD_30_1.png","C_Dist_200_LN_13_LD_26_RN_14_RD_20_1.png","C_Dist_200_LN_3_LD_10_RN_11_RD_22_1.png","C_Dist_200_LN_3_LD_10_RN_14_RD_28_1.png","C_Dist_200_LN_3_LD_10_RN_7_RD_14_1.png","C_Dist_200_LN_3_LD_12_RN_9_RD_20_1.png","C_Dist_200_LN_3_LD_6_RN_14_RD_20_1.png","C_Dist_200_LN_5_LD_10_RN_14_RD_20_1.png","C_Dist_200_LN_6_LD_12_RN_7_RD_10_1.png","C_Dist_200_LN_6_LD_20_RN_11_RD_22_1.png","C_Dist_200_LN_7_LD_15_RN_18_RD_27_1.png","C_Dist_200_LN_9_LD_30_RN_13_RD_26_1.png"]],"dist200_I":[["I_Dist_200_LN_1_LD_2_RN_3_RD_10_0.png","I_Dist_200_LN_1_LD_3_RN_2_RD_15_0.png","I_Dist_200_LN_3_LD_4_RN_11_RD_20_0.png","I_Dist_200_LN_4_LD_5_RN_6_RD_10_0.png","I_Dist_200_LN_4_LD_6_RN_14_RD_30_0.png","I_Dist_200_LN_7_LD_10_RN_12_RD_24_0.png","I_Dist_200_LN_7_LD_10_RN_14_RD_28_0.png","I_Dist_200_LN_7_LD_10_RN_8_RD_16_0.png"],["I_Dist_200_LN_11_LD_20_RN_3_RD_4_1.png","I_Dist_200_LN_14_LD_30_RN_12_RD_18_1.png","I_Dist_200_LN_14_LD_30_RN_6_RD_9_1.png","I_Dist_200_LN_3_LD_10_RN_1_RD_2_1.png","I_Dist_200_LN_4_LD_30_RN_1_RD_3_1.png","I_Dist_200_LN_6_LD_20_RN_3_RD_6_1.png","I_Dist_200_LN_7_LD_15_RN_4_RD_6_1.png","I_Dist_200_LN_7_LD_15_RN_6_RD_9_1.png","I_Dist_200_LN_9_LD_15_RN_8_RD_10_1.png"]],"dist200_S":[["E_Dist_200_LN_3_LD_6_RN_3_RD_10_0.png"],["E_Dist_200_LN_3_LD_10_RN_3_RD_6_1.png"]],"dist300_C":[["C_Dist_300_LN_11_LD_22_RN_1_RD_5_0.png","C_Dist_300_LN_11_LD_22_RN_2_RD_10_0.png","C_Dist_300_LN_11_LD_22_RN_4_RD_20_0.png","C_Dist_300_LN_12_LD_24_RN_2_RD_10_0.png","C_Dist_300_LN_18_LD_20_RN_9_RD_15_0.png","C_Dist_300_LN_20_LD_25_RN_13_RD_26_0.png","C_Dist_300_LN_20_LD_25_RN_14_RD_28_0.png","C_Dist_300_LN_20_LD_25_RN_5_RD_10_0.png","C_Dist_300_LN_20_LD_25_RN_8_RD_16_0.png","C_Dist_300_LN_20_LD_25_RN_9_RD_18_0.png","C_Dist_300_LN_24_LD_30_RN_2_RD_4_0.png","C_Dist_300_LN_24_LD_30_RN_8_RD_16_0.png","C_Dist_300_LN_3_LD_6_RN_2_RD_10_0.png","C_Dist_300_LN_4_LD_10_RN_1_RD_10_0.png","C_Dist_300_LN_4_LD_5_RN_2_RD_4_0.png","C_Dist_300_LN_8_LD_16_RN_1_RD_5_0.png","C_Dist_300_LN_9_LD_10_RN_3_RD_5_0.png"],["C_Dist_300_LN_1_LD_20_RN_7_RD_20_1.png","C_Dist_300_LN_1_LD_3_RN_19_RD_30_1.png","C_Dist_300_LN_1_LD_30_RN_8_RD_24_1.png","C_Dist_300_LN_1_LD_5_RN_11_RD_22_1.png","C_Dist_300_LN_1_LD_5_RN_3_RD_6_1.png","C_Dist_300_LN_1_LD_5_RN_6_RD_12_1.png","C_Dist_300_LN_2_LD_10_RN_12_RD_24_1.png","C_Dist_300_LN_2_LD_20_RN_10_RD_25_1.png","C_Dist_300_LN_3_LD_12_RN_11_RD_20_1.png","C_Dist_300_LN_3_LD_6_RN_4_RD_5_1.png","C_Dist_300_LN_4_LD_20_RN_13_RD_26_1.png","C_Dist_300_LN_5_LD_25_RN_6_RD_12_1.png","C_Dist_300_LN_5_LD_25_RN_7_RD_14_1.png","C_Dist_300_LN_7_LD_14_RN_20_RD_25_1.png","C_Dist_300_LN_8_LD_15_RN_10_RD_12_1.png"]],"dist300_I":[["I_Dist_300_LN_1_LD_2_RN_2_RD_10_0.png","I_Dist_300_LN_1_LD_2_RN_3_RD_15_0.png","I_Dist_300_LN_2_LD_4_RN_6_RD_30_0.png","I_Dist_300_LN_3_LD_6_RN_4_RD_20_0.png","I_Dist_300_LN_4_LD_5_RN_6_RD_12_0.png","I_Dist_300_LN_4_LD_5_RN_8_RD_16_0.png","I_Dist_300_LN_7_LD_10_RN_8_RD_20_0.png","I_Dist_300_LN_8_LD_10_RN_14_RD_28_0.png","I_Dist_300_LN_8_LD_10_RN_9_RD_18_0.png"],["I_Dist_300_LN_13_LD_26_RN_12_RD_15_1.png","I_Dist_300_LN_4_LD_20_RN_2_RD_4_1.png"]],"dist300_S":[["E_Dist_300_LN_9_LD_12_RN_9_RD_20_0.png"],["E_Dist_300_LN_18_LD_30_RN_18_RD_20_1.png","E_Dist_300_LN_3_LD_10_RN_3_RD_5_1.png","E_Dist_300_LN_9_LD_20_RN_9_RD_12_1.png"]],"dist500_C":[["C_Dist_500_LN_10_LD_13_RN_7_RD_26_0.png","C_Dist_500_LN_10_LD_15_RN_4_RD_24_0.png","C_Dist_500_LN_12_LD_16_RN_3_RD_12_0.png","C_Dist_500_LN_12_LD_18_RN_4_RD_24_0.png","C_Dist_500_LN_15_LD_18_RN_5_RD_15_0.png","C_Dist_500_LN_15_LD_20_RN_1_RD_4_0.png","C_Dist_500_LN_18_LD_27_RN_1_RD_6_0.png","C_Dist_500_LN_20_LD_24_RN_1_RD_3_0.png","C_Dist_500_LN_20_LD_24_RN_3_RD_9_0.png","C_Dist_500_LN_20_LD_24_RN_7_RD_21_0.png","C_Dist_500_LN_20_LD_28_RN_3_RD_14_0.png","C_Dist_500_LN_21_LD_28_RN_6_RD_24_0.png","C_Dist_500_LN_22_LD_28_RN_2_RD_7_0.png","C_Dist_500_LN_25_LD_30_RN_9_RD_27_0.png","C_Dist_500_LN_4_LD_6_RN_1_RD_6_0.png","C_Dist_500_LN_5_LD_6_RN_2_RD_6_0.png","C_Dist_500_LN_6_LD_9_RN_1_RD_6_0.png","C_Dist_500_LN_7_LD_10_RN_1_RD_5_0.png","C_Dist_500_LN_8_LD_12_RN_1_RD_6_0.png","C_Dist_500_LN_8_LD_12_RN_4_RD_24_0.png"],["C_Dist_500_LN_1_LD_4_RN_12_RD_16_1.png","C_Dist_500_LN_1_LD_4_RN_9_RD_12_1.png","C_Dist_500_LN_1_LD_9_RN_11_RD_18_1.png","C_Dist_500_LN_10_LD_24_RN_22_RD_24_1.png","C_Dist_500_LN_2_LD_12_RN_10_RD_15_1.png","C_Dist_500_LN_2_LD_12_RN_12_RD_18_1.png","C_Dist_500_LN_2_LD_12_RN_4_RD_6_1.png","C_Dist_500_LN_2_LD_24_RN_7_RD_12_1.png","C_Dist_500_LN_2_LD_5_RN_18_RD_20_1.png","C_Dist_500_LN_2_LD_5_RN_9_RD_10_1.png","C_Dist_500_LN_2_LD_8_RN_12_RD_16_1.png","C_Dist_500_LN_2_LD_8_RN_21_RD_28_1.png","C_Dist_500_LN_3_LD_10_RN_4_RD_5_1.png","C_Dist_500_LN_3_LD_12_RN_15_RD_20_1.png","C_Dist_500_LN_3_LD_30_RN_6_RD_10_1.png","C_Dist_500_LN_3_LD_8_RN_14_RD_16_1.png","C_Dist_500_LN_4_LD_16_RN_15_RD_20_1.png","C_Dist_500_LN_4_LD_24_RN_12_RD_18_1.png","C_Dist_500_LN_5_LD_14_RN_6_RD_7_1.png","C_Dist_500_LN_7_LD_21_RN_20_RD_24_1.png","C_Dist_500_LN_7_LD_28_RN_12_RD_16_1.png","C_Dist_500_LN_7_LD_28_RN_9_RD_12_1.png","C_Dist_500_LN_9_LD_27_RN_20_RD_24_1.png"]],"dist500_I":[["I_Dist_500_LN_2_LD_3_RN_4_RD_24_0.png","I_Dist_500_LN_5_LD_6_RN_6_RD_18_0.png","I_Dist_500_LN_7_LD_8_RN_9_RD_24_0.png"],["I_Dist_500_LN_7_LD_21_RN_5_RD_6_1.png"]],"dist500_S":[["E_Dist_500_LN_6_LD_8_RN_6_RD_24_0.png"],["E_Dist_500_LN_2_LD_12_RN_2_RD_3_1.png","E_Dist_500_LN_6_LD_24_RN_6_RD_8_1.png"]]}},{"start_time":1552054156105,"click_time":1552054159429,"finger_time":1552054158710,"fix_duration":1334.788257076075,"trial":1,"RT":2605,"MT":719,"sideResp":2,"stimulus":[],"xmouse":[785,785,785,785,785,785,785,785,785,785,785,785,785,785,785,785,785,785,785,785,785,785,785,785,785,785,785,785,785,785,785,785,785,785,786,786,786,786,786,786,786,786,786,786,786,786,786,786,786,786,786,786,786,786,786,786,786,786,786,786,786,786,786,786,786,786,786,786,786,786,786,786,786,786,786,786,786,786,786,786,786,786,786,786,786,786,786,786,786,786,786,786,786,786,786,786,786,786,786,786,786,786,786,786,786,786,786,786,786,786,786,786,786,786,786,786,786,786,786,786,786,786,786,786,786,786,786,786,787,796,845,975,1018,1040,1048,1050,1053,1055,1058,1068,1081,1113,1125,1131,1132,1132,1132,1132,1134,1144,1171,1175,1175,1175,1175,1175,1175,1175,1175,1175,1175,1175,1175,1175,1175,1164,1143],"ymouse":[526,526,526,526,526,526,526,526,526,526,526,526,526,526,526,526,526,526,526,526,526,526,526,526,526,526,526,526,526,526,526,526,526,526,525,525,525,525,525,525,525,525,525,525,525,525,525,525,525,525,525,525,525,525,525,525,525,525,525,525,525,525,525,525,525,525,525,525,525,525,525,525,525,525,525,525,525,525,525,525,525,525,525,525,525,525,525,525,525,525,525,525,525,525,525,525,525,525,525,525,525,525,525,525,525,525,525,525,525,525,525,525,525,525,525,525,525,525,525,525,525,525,525,525,525,525,525,525,521,512,484,428,409,396,387,382,369,355,336,306,262,186,164,148,143,142,142,141,132,116,89,88,88,88,88,88,88,88,88,88,88,88,88,88,87,86,86],"timestamp_mouse":[14,33,44,64,85,105,123,143,164,185,205,225,244,264,284,305,325,345,364,385,403,424,445,464,485,505,525,544,564,583,605,624,644,665,684,704,725,744,764,784,803,823,845,865,883,905,924,944,965,985,1004,1024,1043,1064,1084,1105,1123,1143,1165,1185,1204,1223,1244,1265,1285,1304,1325,1343,1363,1384,1404,1425,1444,1465,1484,1505,1523,1545,1565,1584,1605,1625,1644,1664,1685,1705,1723,1744,1765,1785,1804,1825,1843,1865,1885,1905,1925,1943,1964,1985,2003,2023,2045,2064,2084,2105,2125,2144,2165,2185,2205,2224,2244,2265,2285,2304,2324,2345,2364,2384,2405,2424,2444,2464,2485,2505,2524,2545,2564,2583,2605,2624,2644,2664,2685,2704,2724,2744,2765,2784,2804,2824,2845,2863,2884,2905,2925,2943,2964,2984,3006,3024,3043,3064,3084,3104,3124,3145,3163,3185,3205,3223,3244,3264,3284,3304,3324],"xSR":741.5,"ySR":469.95,"xT1":424.9,"yT1":0,"xT2":1058.1,"yT2":0,"toosoon":0,"cond_shown":"Incongruent","ratio_trial":300,"L_num":1,"L_den":2,"R_num":3,"R_den":15,"correct_side":1,"subjID":"JuanSebastianGonzalez30","gender":"0","school":"4","age":"4"},{"start_time":1552054162138,"click_time":1552054166609,"finger_time":1552054164110,"fix_duration":626.392722644595,"trial":2,"RT":1972,"MT":2499,"sideResp":2,"stimulus":[],"xmouse":[792,788,788,784,784,784,784,784,784,784,784,784,784,784,784,784,784,784,784,784,784,784,784,784,784,784,783,783,783,783,783,783,783,783,783,783,783,783,783,783,783,783,783,783,783,783,783,783,783,783,783,783,783,783,783,783,783,783,783,783,783,783,783,783,783,783,783,783,783,783,783,783,783,783,783,783,783,783,783,783,781,774,769,766,764,764,763,763,763,762,762,760,758,756,753,751,748,746,741,738,736,731,727,724,719,717,715,713,711,708,707,705,701,699,695,693,690,686,677,672,669,666,663,660,657,656,655,654,654,650,647,644,642,636,634,633,632,632,632,632,631,630,630,630,630,630,630,630,630,630,630,630,630,630,630,630,630,630,630,630,628,627,627,627,627,627,627,627,627,627,627,627,626,626,626,626,626,626,626,626,627,630,633,643,647,652,659,667,684,693,699,709,713,736,792,838,890,929,949,963,966,969,982,988,989,987,983,983,983,983,983,983,983,983,983,983,983,983,983,990,1002,1018,1044,1065],"ymouse":[534,536,536,538,538,538,538,538,538,538,538,538,538,538,538,538,538,538,538,538,538,538,538,538,538,538,538,538,538,538,538,538,538,538,538,538,538,538,538,538,538,538,538,538,538,538,538,538,538,538,538,538,538,538,538,538,538,538,538,538,538,538,538,538,538,538,538,538,538,538,538,538,538,538,538,538,538,538,538,538,538,535,532,531,530,530,530,530,530,530,530,530,530,528,526,525,524,523,520,519,516,514,512,511,509,506,506,505,504,504,503,503,502,502,501,501,500,499,497,496,496,495,494,494,494,493,493,493,493,492,492,491,490,490,489,489,489,489,489,489,489,489,489,489,489,489,489,489,489,489,489,489,489,489,489,489,489,489,489,489,489,489,490,490,491,491,491,491,491,491,491,491,491,492,495,496,499,501,503,505,506,506,507,509,509,510,511,514,517,518,519,519,518,506,464,425,374,337,311,276,255,228,158,110,55,42,38,37,37,37,37,37,37,37,37,37,37,37,37,43,53,61,72,77],"timestamp_mouse":[21,40,50,71,92,111,132,151,170,191,211,231,251,271,290,312,331,352,371,392,412,432,451,472,490,510,531,550,571,592,610,632,651,670,690,710,732,751,772,791,811,832,852,872,892,912,931,951,971,992,1011,1031,1051,1071,1092,1110,1132,1151,1170,1192,1212,1230,1252,1272,1291,1312,1331,1350,1372,1392,1412,1431,1452,1472,1492,1511,1532,1551,1572,1590,1611,1630,1652,1672,1692,1712,1732,1752,1771,1791,1811,1831,1851,1870,1892,1910,1931,1951,1972,1991,2011,2031,2052,2071,2091,2111,2131,2151,2171,2191,2211,2231,2252,2272,2291,2311,2331,2351,2373,2390,2412,2430,2451,2471,2491,2511,2530,2551,2571,2590,2611,2630,2651,2672,2691,2712,2732,2751,2771,2790,2810,2830,2852,2872,2892,2911,2931,2950,2972,2990,3011,3032,3050,3071,3091,3112,3132,3152,3171,3192,3212,3231,3251,3270,3292,3312,3332,3352,3372,3391,3412,3431,3451,3470,3492,3510,3531,3552,3571,3591,3611,3630,3651,3673,3691,3711,3731,3751,3773,3791,3811,3830,3851,3871,3891,3911,3932,3951,3972,3990,4011,4032,4051,4071,4091,4111,4131,4151,4171,4191,4211,4231,4251,4272,4291,4311,4331,4351,4371,4390,4410,4431,4451,4471],"xSR":741.5,"ySR":469.95,"xT1":424.9,"yT1":0,"xT2":1058.1,"yT2":0,"toosoon":0,"cond_shown":"Congruent","ratio_trial":200,"L_num":13,"L_den":26,"R_num":14,"R_den":20,"correct_side":2,"subjID":"JuanSebastianGonzalez30","gender":"0","school":"4","age":"4"},{"start_time":1552054168894,"click_time":1552054171329,"finger_time":1552054171110,"fix_duration":342.5627411545733,"trial":3,"RT":2216,"MT":219,"sideResp":2,"stimulus":[],"xmouse":[758,758,758,758,758,758,758,758,758,758,758,758,758,758,758,758,758,758,758,758,758,758,758,758,758,758,758,758,758,758,758,758,758,758,758,758,758,758,758,758,758,758,758,758,758,758,758,758,758,758,758,758,758,758,758,758,758,758,758,758,758,758,758,758,758,758,758,758,758,758,758,758,758,758,758,758,758,758,758,758,758,758,758,758,758,758,758,758,758,758,758,758,758,758,758,759,763,768,772,774,777,780,780,780,781,783,785,788,791,798,825,855,900,946,1006,1030,1045,1047,1047,1048,1053,1060],"ymouse":[517,517,517,517,517,517,517,517,517,517,517,517,517,517,517,517,517,517,517,517,517,517,517,517,517,517,517,517,517,517,517,517,517,517,517,517,517,517,517,517,517,517,517,517,517,517,517,517,517,517,517,517,517,517,517,517,517,517,517,517,517,517,517,517,517,517,517,517,517,517,517,517,517,517,517,517,517,517,517,517,517,517,517,517,517,517,517,517,517,517,517,517,517,517,517,517,516,513,512,511,509,508,508,508,508,506,505,503,501,497,469,429,366,301,194,152,122,119,117,116,107,97],"timestamp_mouse":[15,38,55,76,96,115,134,154,176,196,216,236,255,276,295,316,335,355,376,396,416,434,455,475,496,516,536,555,576,596,616,635,654,676,696,716,736,754,776,796,816,835,856,876,895,915,934,956,975,996,1016,1036,1056,1076,1096,1116,1135,1156,1175,1196,1215,1236,1256,1276,1296,1316,1335,1355,1375,1396,1415,1434,1455,1476,1496,1515,1536,1556,1575,1594,1615,1635,1655,1675,1695,1716,1735,1754,1776,1796,1815,1835,1854,1875,1896,1914,1935,1954,1975,1998,2015,2035,2054,2076,2096,2114,2136,2154,2175,2195,2216,2234,2255,2275,2295,2315,2335,2355,2375,2395,2417,2434],"xSR":741.5,"ySR":469.95,"xT1":424.9,"yT1":0,"xT2":1058.1,"yT2":0,"toosoon":0,"cond_shown":"Incongruent","ratio_trial":300,"L_num":1,"L_den":2,"R_num":3,"R_den":15,"correct_side":1,"subjID":"JuanSebastianGonzalez30","gender":"0","school":"4","age":"4"},{"start_time":1552054173501,"click_time":1552054177070,"finger_time":1552054175949,"fix_duration":250,"trial":4,"RT":2448,"MT":1121,"sideResp":2,"stimulus":[],"xmouse":[775,775,775,775,775,775,775,775,775,775,775,775,775,775,775,775,775,775,775,775,775,775,775,775,775,775,775,775,775,775,775,775,775,775,775,775,775,775,775,775,775,775,775,775,775,775,775,775,775,775,775,775,775,775,775,775,775,775,775,775,775,775,775,775,775,775,775,775,775,775,775,775,775,775,775,775,775,775,775,775,775,775,775,775,775,775,775,775,775,775,775,775,775,775,775,775,775,775,775,775,775,775,775,775,775,775,775,775,775,775,775,775,775,775,775,775,776,778,779,781,785,790,796,804,806,816,829,841,854,878,916,933,946,952,955,956,958,958,959,960,963,967,971,977,980,988,992,992,993,993,993,994,995,995,996,997,998,998,999,1001,1004,1007,1010,1012,1015,1016,1019,1021,1022,1024,1030,1033,1037,1039,1044,1047,1053,1058,1060],"ymouse":[510,510,510,510,510,510,510,510,510,510,510,510,510,510,510,510,510,510,510,510,510,510,510,510,510,510,510,510,510,510,510,510,510,510,510,510,510,510,510,510,510,510,510,510,510,510,510,510,510,510,510,510,510,510,510,510,510,510,510,510,510,510,510,510,510,510,510,510,510,510,510,510,510,510,510,510,510,510,510,510,510,510,510,510,510,510,510,510,510,510,510,510,510,510,510,510,510,510,510,510,510,510,510,510,510,510,510,510,510,510,510,510,510,510,510,509,505,501,496,491,484,471,460,448,443,430,412,399,384,357,323,309,299,290,287,283,280,277,275,271,265,249,239,222,213,193,172,166,158,152,138,134,132,129,128,126,123,122,119,115,111,103,98,94,89,87,84,82,81,80,78,77,76,76,76,76,76,76,76],"timestamp_mouse":[12,43,48,68,88,107,128,148,169,187,209,229,248,269,288,309,329,349,367,389,408,428,449,469,489,509,529,548,568,589,608,629,648,669,688,709,728,748,769,789,808,828,848,869,889,909,929,949,967,988,1008,1029,1048,1068,1088,1109,1129,1147,1169,1189,1208,1229,1247,1267,1289,1309,1329,1349,1369,1389,1407,1428,1449,1469,1487,1508,1529,1548,1569,1588,1607,1627,1649,1669,1687,1709,1729,1749,1768,1788,1809,1828,1848,1867,1888,1909,1929,1949,1967,1989,2008,2027,2047,2069,2087,2107,2129,2148,2169,2188,2207,2229,2249,2268,2288,2307,2328,2347,2369,2388,2408,2428,2448,2467,2489,2507,2528,2547,2568,2588,2610,2627,2649,2669,2688,2708,2729,2748,2768,2789,2809,2827,2849,2867,2889,2908,2928,2948,2968,2988,3010,3027,3048,3068,3087,3108,3128,3148,3168,3188,3208,3228,3249,3269,3287,3307,3327,3348,3369,3389,3409,3428,3449,3468,3488,3509,3528,3547,3569],"xSR":741.5,"ySR":469.95,"xT1":424.9,"yT1":0,"xT2":1058.1,"yT2":0,"toosoon":0,"cond_shown":"Congruent","ratio_trial":200,"L_num":3,"L_den":10,"R_num":7,"R_den":14,"correct_side":2,"subjID":"JuanSebastianGonzalez30","gender":"0","school":"4","age":"4"},{"start_time":1552054179504,"click_time":1552054191169,"finger_time":1552054187569,"fix_duration":1073.2565290404843,"trial":5,"RT":8065,"MT":3600,"sideResp":2,"stimulus":[],"xmouse":[807,807,807,807,807,807,807,807,807,807,807,807,807,807,807,807,807,807,807,807,807,807,807,807,807,807,806,806,806,806,806,806,806,806,806,806,806,806,806,806,806,806,806,806,806,806,806,806,806,806,806,806,806,806,806,806,806,806,806,806,806,806,806,806,806,806,806,806,806,806,806,806,806,806,806,806,806,806,806,806,806,806,806,806,806,806,806,806,806,806,806,806,806,806,806,806,806,806,806,806,806,806,806,806,806,806,806,806,806,806,806,806,806,806,806,806,806,806,806,806,806,806,806,806,806,806,806,806,806,806,806,806,806,806,806,806,806,806,806,806,806,806,806,806,806,806,806,806,806,806,806,806,806,806,806,806,806,806,806,806,806,806,806,806,806,806,806,806,806,806,806,806,806,806,806,806,806,806,806,806,806,806,806,806,806,806,806,806,806,806,806,806,806,806,806,806,806,806,806,806,806,806,806,806,806,806,806,806,806,806,806,806,806,806,806,806,806,806,806,806,806,806,806,806,806,806,806,806,806,806,806,806,806,806,806,806,806,806,806,806,806,806,806,806,806,806,806,806,806,806,806,806,806,806,806,806,806,806,806,806,806,806,806,806,806,806,806,806,806,806,806,806,806,806,806,806,806,806,806,806,806,806,806,806,806,806,806,806,806,806,806,806,806,806,806,806,806,806,806,806,806,806,806,806,806,806,806,806,806,806,806,806,806,806,806,806,806,806,806,806,806,806,806,806,806,806,806,806,806,806,806,806,806,806,806,806,806,806,806,806,806,806,806,806,806,806,806,806,806,806,806,806,806,806,806,806,806,806,806,806,806,806,806,806,806,806,806,806,806,806,806,806,806,806,806,806,806,806,806,806,806,806,806,806,806,806,806,806,806,806,806,806,806,806,806,806,806,806,806,806,806,806,821,835,845,845,845,845,845,845,845,845,845,845,845,845,845,845,845,845,845,845,845,845,845,845,845,845,845,845,845,845,845,845,845,845,845,845,845,845,845,845,845,845,845,845,845,845,845,845,845,845,845,845,845,845,845,845,845,845,845,845,845,845,845,845,845,845,845,845,845,845,845,845,845,845,845,845,845,845,846,846,846,846,846,846,846,846,846,846,846,846,846,837,823,810,786,783,782,782,782,782,782,782,782,782,782,782,782,782,782,775,775,774,774,774,774,774,774,774,774,774,774,774,774,774,774,774,774,774,774,774,774,774,774,774,774,774,774,774,774,775,776,778,789,799,824,837,846,858,871,891,898,912,917,932,932,932,932,932,932,932,932,932,932,936,967,996,1021,1037,1044,1048,1051,1051,1054,1055,1056,1057,1057,1057,1059,1063,1065,1067],"ymouse":[554,554,554,554,554,554,554,554,554,554,554,554,554,554,554,554,554,554,554,554,554,554,554,554,554,554,553,553,553,553,553,553,553,553,553,553,553,553,553,553,553,553,553,553,553,553,553,553,553,553,553,553,553,553,553,553,553,553,553,553,553,553,553,553,553,553,553,553,553,553,553,553,553,553,553,553,553,553,553,553,553,553,553,553,553,553,553,553,553,553,553,553,553,553,553,553,553,553,553,553,553,553,553,553,553,553,553,553,553,553,553,553,553,553,553,553,553,553,553,553,553,553,553,553,553,553,553,553,553,553,553,553,553,553,553,553,553,553,553,553,553,553,553,553,553,553,553,553,553,553,553,553,553,553,553,553,553,553,553,553,553,553,553,553,553,553,553,553,553,553,553,553,553,553,553,553,553,553,553,553,553,553,553,553,553,553,553,553,553,553,553,553,553,553,553,553,553,553,553,553,553,553,553,553,553,553,553,553,553,553,553,553,553,553,553,553,553,553,553,553,553,553,553,553,553,553,553,553,553,553,553,553,553,553,553,553,553,553,553,553,553,553,553,553,553,553,553,553,553,553,553,553,553,553,553,553,553,553,553,553,553,553,553,553,553,553,553,553,553,553,553,553,553,553,553,553,553,553,553,553,553,553,553,553,553,553,553,553,553,553,553,553,553,553,553,553,553,553,553,553,553,553,553,553,553,553,553,553,553,553,553,553,553,553,553,553,553,553,553,553,553,553,553,553,553,553,553,553,553,553,553,553,553,553,553,553,553,553,553,553,553,553,553,553,553,553,553,553,553,553,553,553,553,553,553,553,553,553,553,553,553,553,553,553,553,553,553,553,553,553,553,553,553,553,553,553,553,553,553,553,553,553,553,553,553,553,553,553,553,553,553,553,553,553,553,553,553,553,553,553,553,553,479,428,392,392,392,392,392,392,392,392,392,392,392,392,392,392,392,392,392,392,392,392,392,392,392,392,392,392,392,392,392,392,392,392,392,392,392,392,392,392,392,392,392,392,392,392,392,392,392,392,392,392,392,392,392,392,392,392,392,392,392,392,392,392,392,392,392,392,392,392,392,392,392,392,392,392,390,387,376,375,375,375,375,375,375,375,375,375,375,375,375,384,406,426,458,463,464,464,464,464,464,464,464,464,464,464,464,464,464,459,459,458,458,458,458,458,458,458,458,458,459,463,474,480,484,484,484,484,484,484,484,484,484,484,484,485,488,493,498,506,507,507,507,504,465,431,401,369,340,291,260,211,200,165,161,161,161,161,161,161,161,161,161,160,160,160,159,155,151,145,141,140,137,134,131,128,125,123,118,109,104,99],"timestamp_mouse":[12,34,44,66,84,106,125,146,166,186,204,226,244,266,285,306,324,346,365,384,406,426,446,466,486,505,526,545,566,586,604,626,645,666,686,706,726,745,764,786,805,824,845,866,884,906,926,945,964,984,1004,1025,1046,1065,1086,1106,1126,1145,1165,1185,1206,1225,1246,1266,1285,1304,1325,1346,1364,1386,1406,1424,1445,1464,1485,1506,1526,1545,1566,1586,1605,1625,1646,1666,1686,1704,1726,1746,1765,1786,1804,1826,1846,1866,1886,1906,1926,1946,1965,1986,2005,2025,2046,2066,2086,2106,2126,2146,2166,2186,2204,2226,2246,2266,2286,2306,2325,2346,2366,2386,2406,2426,2445,2466,2486,2504,2526,2546,2566,2585,2606,2625,2646,2665,2685,2706,2726,2746,2766,2785,2804,2826,2845,2864,2885,2906,2924,2945,2966,2986,3005,3026,3046,3065,3086,3106,3124,3146,3166,3186,3205,3226,3244,3266,3286,3306,3325,3344,3366,3385,3404,3424,3446,3466,3486,3506,3526,3546,3566,3585,3604,3626,3646,3666,3685,3705,3726,3746,3766,3784,3806,3826,3846,3865,3885,3906,3925,3944,3966,3984,4005,4026,4045,4065,4086,4105,4125,4145,4166,4184,4205,4226,4245,4266,4285,4306,4326,4346,4366,4386,4404,4426,4446,4466,4486,4505,4526,4546,4564,4586,4605,4626,4646,4665,4685,4706,4726,4746,4765,4786,4806,4825,4845,4866,4885,4904,4926,4946,4965,4986,5006,5026,5044,5066,5086,5104,5125,5145,5166,5185,5206,5226,5245,5266,5286,5306,5326,5344,5366,5386,5406,5426,5445,5464,5486,5506,5526,5546,5565,5585,5606,5626,5646,5664,5686,5704,5726,5746,5765,5785,5804,5826,5846,5866,5885,5906,5926,5945,5964,5986,6006,6026,6044,6065,6086,6106,6125,6146,6166,6186,6206,6225,6246,6265,6285,6305,6326,6346,6366,6385,6406,6426,6446,6465,6486,6506,6526,6544,6565,6586,6606,6626,6644,6665,6686,6706,6724,6746,6765,6785,6806,6826,6846,6866,6886,6906,6926,6944,6966,6986,7006,7026,7045,7066,7086,7106,7125,7146,7164,7185,7206,7224,7245,7266,7284,7306,7324,7345,7366,7386,7405,7426,7445,7466,7485,7506,7526,7546,7566,7585,7605,7626,7646,7666,7684,7706,7726,7745,7766,7786,7805,7826,7846,7865,7885,7906,7924,7945,7965,7984,8006,8025,8046,8065,8086,8105,8125,8146,8166,8185,8204,8225,8245,8266,8285,8304,8325,8344,8366,8385,8406,8425,8445,8465,8485,8505,8526,8544,8564,8586,8606,8625,8646,8665,8686,8705,8726,8746,8764,8785,8805,8825,8845,8866,8886,8905,8924,8944,8966,8986,9005,9025,9045,9066,9086,9105,9126,9145,9164,9185,9206,9225,9245,9265,9286,9305,9326,9345,9365,9384,9406,9424,9445,9466,9485,9505,9526,9545,9564,9585,9606,9625,9644,9666,9686,9706,9725,9746,9765,9785,9804,9825,9844,9865,9886,9905,9925,9944,9965,9986,10006,10026,10044,10065,10086,10105,10125,10146,10165,10185,10205,10225,10245,10265,10284,10304,10324,10346,10365,10386,10404,10425,10445,10465,10485,10506,10525,10546,10565,10586,10606,10625,10646,10666,10685,10706,10725,10744,10765,10785,10806,10825,10845,10865,10885,10905,10926,10945,10965,10985,11005,11024,11045,11065,11085,11107,11125,11146,11165,11185,11206,11225,11245,11264,11285,11305,11325,11345,11365,11386,11406,11424,11446,11465,11485,11506,11525,11545,11566,11585,11605,11624,11645,11665],"xSR":741.5,"ySR":469.95,"xT1":424.9,"yT1":0,"xT2":1058.1,"yT2":0,"toosoon":0,"cond_shown":"Congruent","ratio_trial":200,"L_num":9,"L_den":30,"R_num":13,"R_den":26,"correct_side":2,"subjID":"JuanSebastianGonzalez30","gender":"0","school":"4","age":"4"},{"start_time":1552054192762,"click_time":1552054195070,"finger_time":1552054194430,"fix_duration":272.73212945556037,"trial":6,"RT":1668,"MT":640,"sideResp":1,"stimulus":[],"xmouse":[793,793,793,793,793,793,793,793,793,793,793,793,793,793,793,793,793,793,793,793,793,793,793,793,793,793,793,793,793,793,793,793,793,793,793,793,793,793,793,793,793,793,793,793,793,793,793,793,793,793,793,793,793,793,793,793,793,793,793,793,793,793,793,793,793,793,793,793,793,793,793,793,793,793,793,793,793,793,793,793,793,777,745,619,568,527,509,505,504,504,504,504,504,503,500,495,489,478,474,472,472,472,472,475,477,481,486,489,498,498,498,498,494,492,489,484],"ymouse":[498,498,498,498,498,498,498,498,498,498,498,498,498,498,498,498,498,498,498,498,498,498,498,498,498,498,498,498,498,498,498,498,498,498,498,498,498,498,498,498,498,498,498,498,498,498,498,498,498,498,498,498,498,498,498,498,498,498,498,498,498,498,498,498,498,498,498,498,498,498,498,498,498,498,498,498,498,498,498,498,498,490,476,424,406,393,383,380,380,380,380,380,380,367,356,342,325,286,271,259,250,244,238,226,221,213,203,194,171,157,148,142,127,119,106,92],"timestamp_mouse":[12,36,48,68,87,107,128,148,167,187,208,228,246,268,288,307,327,348,367,388,408,427,447,468,487,507,527,548,568,588,608,627,647,668,688,707,727,748,767,787,808,828,847,867,888,907,926,946,967,988,1008,1026,1048,1068,1086,1108,1128,1146,1168,1187,1208,1227,1247,1267,1288,1307,1327,1348,1368,1387,1408,1428,1446,1468,1488,1507,1528,1548,1568,1588,1606,1628,1647,1668,1687,1707,1727,1747,1767,1787,1807,1827,1846,1867,1887,1906,1927,1949,1967,1987,2007,2028,2047,2067,2087,2107,2127,2147,2166,2186,2207,2227,2248,2266,2286,2308],"xSR":741.5,"ySR":469.95,"xT1":424.9,"yT1":0,"xT2":1058.1,"yT2":0,"toosoon":0,"cond_shown":"Incongruent","ratio_trial":100,"L_num":3,"L_den":5,"R_num":11,"R_den":22,"correct_side":1,"subjID":"JuanSebastianGonzalez30","gender":"0","school":"4","age":"4"},{"start_time":1552054196820,"click_time":1552054198389,"finger_time":1552054197828,"fix_duration":528.1975442928594,"trial":7,"RT":1008,"MT":561,"sideResp":2,"stimulus":[],"xmouse":[777,777,777,777,777,777,777,777,777,777,777,777,777,777,777,777,777,777,777,777,777,777,777,777,777,777,777,777,777,777,777,777,777,777,777,777,777,777,777,777,777,777,777,777,777,777,777,777,783,803,882,926,959,974,978,978,978,978,978,978,978,978,978,978,978,978,978,978,979,980,990,997,1004,1012,1020,1037,1044,1051,1063],"ymouse":[514,514,514,514,514,514,514,514,514,514,514,514,514,514,514,514,514,514,514,514,514,514,514,514,514,514,514,514,514,514,514,514,514,514,514,514,514,514,514,514,514,514,514,514,514,514,514,514,509,488,406,356,319,295,282,282,282,282,282,282,282,282,282,280,277,269,263,256,246,236,215,203,191,177,161,123,105,88,65],"timestamp_mouse":[14,38,49,69,88,108,130,150,168,190,209,228,249,270,289,310,329,350,369,388,410,430,450,469,490,521,530,549,570,589,610,629,649,668,689,709,729,750,770,789,809,830,850,870,890,910,929,948,969,989,1008,1029,1048,1069,1090,1109,1129,1150,1170,1190,1208,1229,1248,1268,1289,1309,1330,1349,1370,1389,1408,1429,1449,1469,1489,1509,1528,1549,1569],"xSR":741.5,"ySR":469.95,"xT1":424.9,"yT1":0,"xT2":1058.1,"yT2":0,"toosoon":0,"cond_shown":"Incongruent","ratio_trial":300,"L_num":4,"L_den":20,"R_num":2,"R_den":4,"correct_side":2,"subjID":"JuanSebastianGonzalez30","gender":"0","school":"4","age":"4"},{"start_time":1552054209603,"click_time":1552054211950,"finger_time":1552054211290,"fix_duration":250,"trial":8,"RT":1687,"MT":660,"sideResp":2,"stimulus":[],"xmouse":[793,793,793,793,793,793,793,793,793,793,793,793,793,793,793,793,793,793,793,793,793,793,793,793,793,793,793,793,793,793,793,793,793,793,793,793,793,793,793,793,793,793,793,793,793,793,793,793,793,793,793,793,793,793,793,793,793,793,793,793,793,793,793,793,793,793,793,793,793,793,793,793,793,793,793,793,793,793,798,799,800,800,804,831,972,1197,1277,1337,1387,1413,1434,1451,1457,1464,1473,1490,1507,1501,1478,1441,1426,1320,1294,1279,1275,1274,1274,1275,1279,1280,1279,1265,1258,1247,1235,1223,1184,1143],"ymouse":[508,508,508,508,508,508,508,508,508,508,508,508,508,508,508,508,508,508,508,508,508,508,508,508,508,508,508,508,508,508,508,508,508,508,508,508,508,508,508,508,508,508,508,508,508,508,508,508,508,508,508,508,508,508,508,508,508,508,508,508,508,508,508,508,508,508,508,508,508,508,508,508,508,508,508,508,511,525,554,555,555,555,555,555,507,391,376,374,392,405,414,421,422,422,422,416,387,365,333,301,294,249,238,229,225,217,210,200,174,165,138,107,98,93,89,86,79,78],"timestamp_mouse":[13,44,47,67,87,108,127,148,168,186,207,228,248,267,287,308,327,347,367,388,408,428,447,468,488,506,528,548,567,588,607,627,648,667,688,708,727,747,768,786,808,827,847,868,887,908,927,947,967,987,1009,1026,1046,1068,1088,1108,1127,1148,1168,1187,1206,1227,1248,1268,1287,1308,1327,1347,1368,1388,1407,1427,1448,1468,1488,1508,1527,1547,1567,1588,1608,1628,1648,1668,1687,1708,1727,1747,1767,1788,1808,1827,1847,1867,1887,1906,1927,1947,1967,1988,2007,2028,2047,2067,2087,2109,2127,2147,2166,2188,2207,2227,2247,2268,2287,2307,2327,2347],"xSR":741.5,"ySR":469.95,"xT1":424.9,"yT1":0,"xT2":1058.1,"yT2":0,"toosoon":0,"cond_shown":"Incongruent","ratio_trial":300,"L_num":13,"L_den":26,"R_num":12,"R_den":15,"correct_side":2,"subjID":"JuanSebastianGonzalez30","gender":"0","school":"4","age":"4"},{"start_time":1552054214724,"click_time":1552054217230,"finger_time":1552054216210,"fix_duration":1152.7657471474383,"trial":9,"RT":1486,"MT":1020,"sideResp":2,"stimulus":[],"xmouse":[789,789,789,789,789,789,789,789,789,789,789,789,789,789,789,789,789,789,789,789,789,789,789,789,789,789,789,789,789,789,789,789,789,789,789,789,789,789,789,789,789,789,789,789,789,789,789,789,789,789,789,789,789,789,789,789,789,789,789,789,789,789,789,789,789,789,789,789,789,787,790,803,826,841,868,971,1026,1079,1120,1172,1184,1192,1202,1209,1221,1263,1289,1307,1319,1327,1330,1330,1330,1330,1329,1329,1325,1319,1309,1294,1254,1234,1208,1195,1185,1181,1181,1181,1181,1181,1187,1188,1190,1191,1192,1193,1190,1188,1185,1177,1172,1168,1165,1162,1160,1154],"ymouse":[496,496,496,496,496,496,496,496,496,496,496,496,496,496,496,496,496,496,496,496,496,496,496,496,496,496,496,496,496,496,496,496,496,496,496,496,496,496,496,496,496,496,496,496,496,496,496,496,496,496,496,496,496,496,496,496,496,496,496,496,496,496,496,496,496,496,496,496,496,496,492,484,474,472,469,472,479,490,496,501,500,495,486,465,424,342,304,268,238,215,182,172,165,162,160,159,159,159,157,155,153,150,146,146,145,143,143,143,143,137,121,115,105,97,83,57,49,45,43,42,44,45,46,48,50,52],"timestamp_mouse":[13,34,47,66,85,106,127,147,167,187,206,227,247,267,285,307,326,347,367,386,407,426,447,466,487,507,526,546,567,586,606,627,646,667,687,706,726,747,767,786,806,827,847,866,886,906,927,947,967,986,1006,1026,1046,1066,1086,1107,1127,1147,1167,1187,1206,1227,1246,1267,1287,1307,1326,1346,1367,1387,1406,1426,1446,1466,1486,1506,1526,1546,1566,1588,1606,1626,1646,1666,1686,1706,1726,1746,1766,1786,1805,1826,1846,1866,1886,1907,1926,1947,1966,1986,2006,2027,2046,2066,2087,2106,2126,2146,2167,2187,2206,2226,2247,2267,2286,2306,2325,2347,2366,2388,2406,2426,2446,2466,2487,2506],"xSR":741.5,"ySR":469.95,"xT1":424.9,"yT1":0,"xT2":1058.1,"yT2":0,"toosoon":0,"cond_shown":"Incongruent","ratio_trial":100,"L_num":10,"L_den":25,"R_num":8,"R_den":16,"correct_side":2,"subjID":"JuanSebastianGonzalez30","gender":"0","school":"4","age":"4"},{"start_time":1552054218884,"click_time":1552054221191,"finger_time":1552054220730,"fix_duration":250,"trial":10,"RT":1846,"MT":461,"sideResp":2,"stimulus":[],"xmouse":[773,773,773,773,773,773,773,773,773,773,773,773,773,773,773,773,773,773,773,773,773,773,773,773,773,773,773,773,773,773,773,773,773,773,773,773,773,773,773,773,773,773,773,773,773,773,773,773,773,773,773,773,773,773,773,773,773,773,773,773,773,773,773,773,773,773,773,773,773,773,773,773,773,773,773,773,773,773,773,773,773,773,773,773,773,773,773,773,773,788,802,838,924,960,985,1002,1020,1033,1040,1050,1066,1081,1110,1120,1126,1126,1126,1120,1119,1119,1118,1117,1109,1098,1086,1066],"ymouse":[506,506,506,506,506,506,506,506,506,506,506,506,506,506,506,506,506,506,506,506,506,506,506,506,506,506,506,506,506,506,506,506,506,506,506,506,506,506,506,506,506,506,506,506,506,506,506,506,506,506,506,506,506,506,506,506,506,506,506,506,506,506,506,506,506,506,506,506,506,506,506,506,506,506,506,506,506,506,506,506,506,506,506,506,506,506,506,506,506,506,501,496,466,440,417,401,384,371,362,351,334,319,281,261,229,211,205,190,188,188,187,185,165,146,123,85],"timestamp_mouse":[10,45,46,67,87,107,127,146,167,187,207,226,246,266,286,306,325,346,366,386,406,426,445,466,487,506,527,547,566,587,607,626,647,666,686,706,727,746,766,787,806,827,846,866,886,907,926,946,967,987,1006,1026,1046,1067,1087,1107,1127,1147,1167,1186,1207,1226,1246,1267,1286,1307,1326,1346,1367,1386,1407,1427,1447,1467,1486,1506,1527,1547,1566,1587,1607,1627,1646,1667,1685,1707,1727,1747,1767,1786,1806,1826,1846,1867,1886,1907,1927,1946,1966,1986,2006,2026,2046,2066,2085,2106,2126,2146,2166,2187,2206,2228,2246,2266,2287,2307],"xSR":741.5,"ySR":469.95,"xT1":424.9,"yT1":0,"xT2":1058.1,"yT2":0,"toosoon":0,"cond_shown":"Congruent","ratio_trial":200,"L_num":9,"L_den":30,"R_num":13,"R_den":26,"correct_side":2,"subjID":"JuanSebastianGonzalez30","gender":"0","school":"4","age":"4"},{"start_time":1552054222883,"click_time":1552054224370,"finger_time":1552054224210,"fix_duration":250,"trial":11,"RT":1327,"MT":160,"sideResp":2,"stimulus":[],"xmouse":[759,759,759,759,759,759,759,760,761,764,765,767,768,768,768,768,768,768,768,768,768,768,768,768,768,768,768,768,768,768,768,768,768,768,768,769,769,769,769,769,770,770,770,770,770,771,771,771,771,771,771,771,771,771,771,771,771,771,771,771,772,772,775,783,791,816,840,907,943,975,1013,1051,1063,1074,1084],"ymouse":[537,537,537,537,537,537,537,538,538,538,537,537,537,537,537,537,537,537,537,537,537,537,537,537,537,537,537,537,537,537,537,537,537,537,537,537,536,536,536,536,536,536,535,535,535,534,533,533,533,533,533,533,533,533,533,533,533,533,533,533,532,532,529,523,515,491,463,358,299,243,188,138,118,102,87],"timestamp_mouse":[13,27,48,68,88,107,128,148,167,187,207,228,248,268,287,307,328,348,367,388,408,427,448,467,488,508,528,546,567,588,608,628,648,667,687,708,728,747,767,788,808,828,846,867,888,907,927,947,967,988,1007,1028,1047,1068,1087,1107,1127,1148,1167,1187,1207,1227,1247,1267,1286,1308,1327,1348,1367,1387,1407,1429,1446,1468,1487],"xSR":741.5,"ySR":469.95,"xT1":424.9,"yT1":0,"xT2":1058.1,"yT2":0,"toosoon":0,"cond_shown":"Incongruent","ratio_trial":300,"L_num":4,"L_den":20,"R_num":2,"R_den":4,"correct_side":2,"subjID":"JuanSebastianGonzalez30","gender":"0","school":"4","age":"4"},{"start_time":1552054226204,"click_time":1552054228630,"finger_time":1552054227930,"fix_duration":250,"trial":12,"RT":1726,"MT":700,"sideResp":2,"stimulus":[],"xmouse":[769,769,769,769,769,769,769,769,770,770,770,770,770,770,770,770,770,770,770,770,770,770,770,770,770,770,770,770,770,770,770,770,770,770,770,770,770,770,770,770,770,770,770,770,770,770,770,770,770,770,770,770,770,770,770,770,770,770,770,770,770,770,770,770,770,770,770,770,770,770,770,770,770,770,770,770,770,770,770,770,770,770,770,775,787,807,862,886,907,923,969,986,1006,1021,1032,1048,1059,1072,1087,1107,1133,1150,1152,1152,1152,1152,1149,1149,1148,1147,1147,1145,1145,1145,1145,1143,1143,1143,1143,1143,1136,1129],"ymouse":[524,524,524,524,524,524,524,524,524,524,524,524,524,524,524,524,524,524,524,524,524,524,524,524,524,524,524,524,524,524,524,524,524,524,524,524,524,524,524,524,524,524,524,524,524,524,524,524,524,524,524,524,524,524,524,524,524,524,524,524,524,524,524,524,524,524,524,524,524,524,524,524,524,524,524,524,524,524,524,524,524,524,523,518,508,494,456,437,418,399,338,318,302,293,287,275,269,257,245,231,209,186,180,178,176,175,171,169,165,160,155,150,150,149,147,142,138,135,132,128,110,98],"timestamp_mouse":[13,41,47,66,87,105,127,146,166,187,207,227,246,266,287,307,327,346,367,387,406,427,446,466,487,506,527,546,567,586,606,627,647,667,687,707,727,746,767,787,807,826,847,866,886,905,927,946,966,986,1006,1026,1046,1067,1086,1107,1127,1146,1167,1187,1207,1227,1246,1266,1286,1307,1326,1347,1366,1387,1407,1426,1447,1466,1486,1507,1526,1547,1566,1587,1607,1627,1647,1665,1686,1706,1726,1746,1766,1786,1807,1826,1846,1866,1886,1907,1926,1946,1966,1986,2006,2027,2046,2067,2087,2107,2126,2146,2166,2186,2206,2226,2246,2267,2286,2308,2325,2347,2366,2386,2407,2426],"xSR":741.5,"ySR":469.95,"xT1":424.9,"yT1":0,"xT2":1058.1,"yT2":0,"toosoon":0,"cond_shown":"Congruent","ratio_trial":200,"L_num":3,"L_den":10,"R_num":7,"R_den":14,"correct_side":2,"subjID":"JuanSebastianGonzalez30","gender":"0","school":"4","age":"4"},{"start_time":1552054231159,"click_time":1552054233312,"finger_time":1552054232710,"fix_duration":1466.3885192976916,"trial":13,"RT":1551,"MT":602,"sideResp":2,"stimulus":[],"xmouse":[810,810,810,809,806,801,796,791,791,791,791,791,791,791,791,791,791,791,791,791,791,791,791,791,791,791,791,791,791,791,791,791,791,791,791,791,791,791,791,791,791,791,791,791,791,791,791,791,791,791,791,791,791,791,791,791,791,791,791,791,791,791,791,791,791,791,791,792,792,793,793,793,796,805,812,823,837,855,894,913,932,966,983,995,997,998,998,998,1001,1008,1017,1032,1040,1045,1045,1045,1045,1047,1048,1049,1049,1049,1049,1051,1052,1057,1062,1079],"ymouse":[496,496,496,496,498,499,500,502,502,502,502,502,502,502,502,502,502,502,502,502,502,502,502,502,502,502,502,502,502,502,502,502,502,502,502,502,502,502,502,502,502,502,502,502,502,502,502,502,502,502,502,502,502,502,502,502,503,504,505,505,505,506,506,506,506,507,507,508,508,508,508,508,508,506,503,494,483,469,432,412,387,333,295,243,230,224,220,214,185,166,145,122,114,109,108,108,108,106,105,105,105,105,105,104,103,103,100,93],"timestamp_mouse":[14,39,52,71,91,111,131,152,171,191,211,231,252,272,291,311,332,351,372,391,412,431,451,472,491,512,531,551,572,592,611,632,652,670,691,711,732,751,771,791,811,832,852,872,892,912,932,951,972,992,1012,1031,1052,1071,1091,1112,1131,1152,1172,1192,1212,1231,1252,1271,1292,1312,1331,1352,1373,1391,1411,1431,1451,1472,1491,1512,1531,1551,1571,1591,1611,1631,1653,1671,1691,1711,1730,1751,1771,1791,1811,1831,1852,1872,1891,1911,1931,1951,1971,1991,2011,2031,2052,2071,2091,2111,2131,2152],"xSR":741.5,"ySR":469.95,"xT1":424.9,"yT1":0,"xT2":1058.1,"yT2":0,"toosoon":0,"cond_shown":"Incongruent","ratio_trial":100,"L_num":9,"L_den":18,"R_num":6,"R_den":10,"correct_side":2,"subjID":"JuanSebastianGonzalez30","gender":"0","school":"4","age":"4"},{"start_time":1552054235389,"click_time":1552054237529,"finger_time":1552054236650,"fix_duration":1058.9764060953137,"trial":14,"RT":1261,"MT":879,"sideResp":1,"stimulus":[],"xmouse":[797,797,797,797,797,797,797,797,797,797,797,797,797,797,797,797,797,797,797,797,797,797,797,797,797,797,797,797,797,797,797,797,797,797,797,797,797,797,797,797,797,797,797,797,797,797,797,797,797,797,797,797,797,797,797,797,797,797,797,797,797,772,681,562,432,188,126,106,101,106,118,123,130,136,148,171,181,190,201,204,204,205,205,206,215,319,392,451,477,477,477,477,477,479,482,487,494,496,497,499,500,500,499,497,493,488,476],"ymouse":[543,543,543,543,543,543,543,543,543,543,543,543,543,543,543,543,543,543,543,543,543,543,543,543,543,543,543,543,543,543,543,543,543,543,543,543,543,543,543,543,543,543,543,543,543,543,543,543,543,543,543,543,543,543,543,543,543,543,543,543,543,538,517,482,444,368,340,322,309,292,273,266,257,247,233,206,189,171,141,122,108,102,102,101,101,117,139,154,158,158,158,158,158,158,157,155,150,149,148,145,142,131,125,119,113,105,92],"timestamp_mouse":[21,43,61,80,102,122,142,161,181,201,222,242,262,282,302,321,341,362,381,401,422,441,460,481,501,522,541,562,581,602,621,641,662,681,702,721,741,761,781,802,821,842,861,881,902,922,941,962,981,1001,1021,1041,1061,1081,1102,1122,1141,1162,1182,1201,1222,1241,1261,1282,1301,1323,1341,1361,1381,1402,1423,1441,1461,1481,1501,1522,1541,1562,1582,1601,1622,1642,1662,1682,1702,1722,1740,1761,1781,1801,1821,1841,1861,1882,1901,1921,1941,1961,1994,2001,2021,2040,2061,2082,2100,2120,2140],"xSR":741.5,"ySR":469.95,"xT1":424.9,"yT1":0,"xT2":1058.1,"yT2":0,"toosoon":0,"cond_shown":"Incongruent","ratio_trial":200,"L_num":4,"L_den":5,"R_num":6,"R_den":10,"correct_side":1,"subjID":"JuanSebastianGonzalez30","gender":"0","school":"4","age":"4"},{"start_time":1552054239192,"click_time":1552054240712,"finger_time":1552054240191,"fix_duration":740.8032756667105,"trial":15,"RT":999,"MT":521,"sideResp":1,"stimulus":[],"xmouse":[768,768,768,768,768,768,768,768,768,768,768,768,768,768,768,768,768,768,768,768,768,768,768,768,768,768,768,768,768,768,768,768,768,768,768,768,768,768,768,768,768,768,768,768,768,768,768,757,748,726,712,686,672,662,654,648,646,646,644,644,641,635,628,620,617,610,606,600,591,569,558,543,539,535,531,524],"ymouse":[538,538,538,538,538,538,538,538,538,538,538,538,538,538,538,538,538,538,538,538,538,538,538,538,538,538,538,538,538,538,538,538,538,538,538,538,538,538,538,538,538,538,538,538,538,538,538,538,537,525,512,476,449,425,399,377,346,334,304,275,196,167,149,137,134,128,124,118,110,97,92,87,87,87,87,87],"timestamp_mouse":[34,38,59,77,98,119,139,158,179,199,219,239,259,278,298,318,339,359,379,399,418,439,459,479,498,518,539,559,578,599,619,639,659,679,699,719,738,759,779,799,817,839,858,878,898,919,938,958,978,999,1018,1037,1058,1079,1098,1118,1138,1159,1178,1198,1220,1237,1258,1278,1298,1320,1338,1358,1378,1399,1419,1439,1459,1478,1499,1519],"xSR":741.5,"ySR":469.95,"xT1":424.9,"yT1":0,"xT2":1058.1,"yT2":0,"toosoon":0,"cond_shown":"Congruent","ratio_trial":300,"L_num":20,"L_den":25,"R_num":9,"R_den":18,"correct_side":1,"subjID":"JuanSebastianGonzalez30","gender":"0","school":"4","age":"4"},{"start_time":1552054242030,"click_time":1552054244050,"finger_time":1552054243431,"fix_duration":278.8799814659795,"trial":16,"RT":1401,"MT":619,"sideResp":2,"stimulus":[],"xmouse":[792,792,792,791,790,790,790,790,790,790,790,790,790,790,790,790,790,790,790,790,790,790,790,790,790,790,790,790,790,790,790,790,790,790,790,790,790,790,790,790,790,790,790,790,790,790,790,790,790,790,790,790,790,790,790,790,790,790,790,790,790,790,790,790,790,790,789,791,802,818,852,866,878,889,901,905,906,910,915,928,940,954,969,983,996,1015,1024,1032,1043,1051,1063,1069,1071,1071,1071,1071,1071,1071,1072,1073,1073,1075],"ymouse":[521,521,521,521,520,520,520,520,520,520,520,520,520,520,520,520,520,520,520,520,520,520,520,520,520,520,520,520,520,520,520,520,520,520,520,520,520,520,520,520,520,520,520,520,520,520,520,520,520,520,520,520,520,520,520,520,520,520,520,520,520,520,520,520,520,520,520,517,509,496,461,440,419,399,369,356,353,346,336,314,299,283,266,248,236,212,199,190,177,168,154,147,144,144,144,144,144,143,137,118,103,88],"timestamp_mouse":[10,33,40,60,80,101,119,140,160,180,201,221,241,261,281,301,321,341,361,380,400,421,441,460,480,501,520,540,560,579,601,620,641,661,681,701,721,741,759,780,801,821,840,861,881,901,920,941,959,980,1001,1019,1041,1060,1080,1101,1120,1141,1161,1180,1200,1220,1241,1261,1279,1301,1321,1340,1359,1380,1401,1420,1440,1460,1482,1505,1520,1540,1560,1582,1600,1619,1641,1660,1681,1700,1720,1741,1760,1780,1800,1820,1840,1860,1880,1901,1921,1941,1961,1982,2000,2020],"xSR":741.5,"ySR":469.95,"xT1":424.9,"yT1":0,"xT2":1058.1,"yT2":0,"toosoon":0,"cond_shown":"Congruent","ratio_trial":300,"L_num":5,"L_den":25,"R_num":7,"R_den":14,"correct_side":2,"subjID":"JuanSebastianGonzalez30","gender":"0","school":"4","age":"4"},{"start_time":1552054246266,"click_time":1552054248430,"finger_time":1552054247671,"fix_duration":953.6933809570135,"trial":17,"RT":1405,"MT":759,"sideResp":2,"stimulus":[],"xmouse":[777,777,777,777,777,777,777,777,777,777,777,777,777,777,777,777,777,777,777,777,777,777,777,777,777,777,777,777,777,777,777,777,777,777,777,777,777,777,777,777,777,777,777,777,777,777,777,777,777,777,777,777,777,777,777,777,777,777,777,777,777,777,777,777,777,777,777,781,795,803,808,809,809,809,809,810,810,815,833,852,879,906,960,981,996,1006,1013,1019,1022,1022,1022,1024,1027,1033,1036,1037,1038,1038,1038,1038,1038,1038,1039,1041,1044,1047,1053,1058,1064],"ymouse":[500,500,500,500,500,500,500,500,500,500,500,500,500,500,500,500,500,501,505,506,508,509,509,509,509,509,509,509,509,509,509,509,509,509,509,509,509,509,509,509,509,509,509,509,509,509,509,509,509,509,509,509,509,509,509,509,509,509,509,509,509,509,509,509,509,509,509,502,484,473,466,464,464,464,464,463,463,452,413,376,329,278,185,139,104,80,62,49,43,42,40,39,34,27,24,23,22,22,22,22,22,22,22,26,32,40,51,58,68],"timestamp_mouse":[12,25,44,63,84,105,125,144,165,185,205,225,245,264,284,304,325,344,365,384,405,424,445,465,484,504,525,544,564,584,604,625,645,665,684,705,724,745,764,784,805,824,844,865,884,905,925,944,965,984,1004,1025,1045,1065,1085,1105,1124,1145,1165,1185,1204,1224,1245,1266,1285,1305,1324,1344,1364,1384,1405,1425,1444,1465,1484,1505,1523,1545,1564,1584,1604,1624,1646,1664,1684,1704,1723,1746,1764,1784,1804,1825,1844,1864,1884,1904,1923,1944,1965,1984,2005,2024,2044,2064,2085,2104,2124,2144,2164],"xSR":741.5,"ySR":469.95,"xT1":424.9,"yT1":0,"xT2":1058.1,"yT2":0,"toosoon":0,"cond_shown":"Incongruent","ratio_trial":200,"L_num":7,"L_den":10,"R_num":8,"R_den":16,"correct_side":1,"subjID":"JuanSebastianGonzalez30","gender":"0","school":"4","age":"4"},{"start_time":1552054253722,"click_time":1552054255710,"finger_time":1552054255210,"fix_duration":809.4006015967136,"trial":18,"RT":1488,"MT":500,"sideResp":2,"stimulus":[],"xmouse":[768,768,768,768,768,768,768,768,768,768,768,768,768,768,768,768,768,768,768,768,768,768,768,768,768,768,768,768,768,768,768,768,768,768,768,768,768,768,768,768,768,768,768,768,768,768,768,768,768,768,768,768,768,768,768,768,768,768,768,768,768,768,768,768,768,768,768,768,768,768,769,776,803,813,838,893,923,955,985,1012,1040,1048,1051,1051,1051,1051,1054,1058,1061,1063,1064,1064,1066,1070,1076,1087,1092,1097,1101,1102],"ymouse":[540,540,540,540,540,540,540,540,540,540,540,540,540,540,540,540,540,540,540,540,540,540,540,540,540,540,540,540,540,540,540,540,540,540,540,540,540,540,540,540,540,540,540,540,540,540,540,540,540,540,540,540,540,540,540,540,540,540,540,540,540,540,540,540,540,540,540,540,540,540,540,536,506,493,425,334,295,259,226,199,160,149,145,144,144,144,144,144,143,142,142,142,140,137,132,121,114,107,100,97],"timestamp_mouse":[14,37,48,68,88,109,129,148,169,189,209,228,249,269,288,309,328,349,369,389,409,428,448,468,488,508,528,548,568,588,609,628,649,668,689,709,728,749,769,789,808,828,848,868,888,908,928,949,968,989,1008,1028,1048,1069,1089,1109,1129,1149,1168,1189,1208,1229,1249,1269,1289,1309,1328,1347,1369,1388,1408,1428,1448,1468,1488,1508,1528,1548,1568,1588,1608,1629,1648,1669,1689,1709,1729,1748,1768,1788,1809,1828,1848,1869,1890,1907,1928,1949,1968,1988],"xSR":741.5,"ySR":469.95,"xT1":424.9,"yT1":0,"xT2":1058.1,"yT2":0,"toosoon":0,"cond_shown":"Congruent","ratio_trial":300,"L_num":1,"L_den":3,"R_num":19,"R_den":30,"correct_side":2,"subjID":"JuanSebastianGonzalez30","gender":"0","school":"4","age":"4"},{"start_time":1552054257034,"click_time":1552054258850,"finger_time":1552054258410,"fix_duration":401.3217922787423,"trial":19,"RT":1376,"MT":440,"sideResp":1,"stimulus":[],"xmouse":[801,801,801,801,801,801,801,801,801,801,801,801,801,801,801,801,801,801,801,801,801,801,801,801,801,801,801,801,801,801,801,801,801,801,801,801,801,801,801,801,801,801,801,801,801,801,801,801,801,801,801,801,801,801,801,801,801,801,801,801,801,801,801,801,801,799,795,787,775,750,732,715,697,686,677,674,673,673,673,673,670,664,657,649,627,614,600,576,546,531,518],"ymouse":[517,517,517,517,517,517,517,517,517,517,517,517,517,517,517,517,517,517,517,517,517,517,517,517,517,517,517,517,517,517,517,517,517,517,517,517,517,517,517,517,517,517,517,517,517,517,517,517,517,517,517,517,517,517,517,517,517,517,517,517,517,517,517,517,517,516,509,489,463,417,399,382,367,358,343,327,319,302,281,234,222,207,193,179,141,123,108,90,72,63,57],"timestamp_mouse":[17,42,56,77,96,116,137,156,176,196,216,237,257,277,297,316,337,357,376,397,417,436,456,476,496,516,537,556,577,596,616,637,656,676,697,717,737,756,776,795,816,836,855,877,896,917,937,956,977,997,1017,1036,1056,1076,1097,1117,1136,1156,1176,1196,1216,1236,1256,1277,1297,1316,1335,1357,1376,1396,1416,1436,1456,1476,1496,1516,1536,1556,1576,1596,1616,1637,1656,1676,1696,1716,1736,1757,1778,1795,1815],"xSR":741.5,"ySR":469.95,"xT1":424.9,"yT1":0,"xT2":1058.1,"yT2":0,"toosoon":0,"cond_shown":"Incongruent","ratio_trial":300,"L_num":8,"L_den":10,"R_num":9,"R_den":18,"correct_side":1,"subjID":"JuanSebastianGonzalez30","gender":"0","school":"4","age":"4"},{"start_time":1552054261472,"click_time":1552054262930,"finger_time":1552054262511,"fix_duration":1441.6332042295476,"trial":20,"RT":1039,"MT":419,"sideResp":2,"stimulus":[],"xmouse":[788,788,788,788,788,788,788,788,788,788,788,788,788,788,788,788,788,788,788,788,788,788,788,788,788,788,788,788,788,788,788,788,788,788,788,788,788,788,788,788,788,788,788,788,788,788,788,788,789,793,809,849,870,887,900,909,911,911,911,913,914,919,921,926,932,937,958,972,987,1009,1031,1077,1089],"ymouse":[527,527,527,527,527,527,527,527,527,527,527,527,527,527,527,527,527,527,527,527,527,527,527,527,527,527,527,527,527,527,527,527,527,527,527,527,527,527,527,527,527,527,527,527,527,527,527,527,527,526,518,494,476,457,435,409,390,366,360,354,350,340,335,323,313,308,297,290,279,258,223,113,79],"timestamp_mouse":[18,40,58,78,98,119,139,159,179,199,219,239,258,278,298,319,338,359,379,399,417,439,459,478,498,519,539,559,579,597,619,639,657,678,699,718,739,759,778,799,818,839,859,879,899,919,939,959,979,999,1018,1039,1058,1079,1098,1118,1138,1158,1178,1198,1218,1239,1258,1279,1297,1318,1340,1358,1378,1398,1418,1439,1458],"xSR":741.5,"ySR":469.95,"xT1":424.9,"yT1":0,"xT2":1058.1,"yT2":0,"toosoon":0,"cond_shown":"Incongruent","ratio_trial":100,"L_num":9,"L_den":15,"R_num":13,"R_den":26,"correct_side":1,"subjID":"JuanSebastianGonzalez30","gender":"0","school":"4","age":"4"},{"start_time":1552054265525,"click_time":1552054267392,"finger_time":1552054266950,"fix_duration":692.9508029992567,"trial":21,"RT":1425,"MT":442,"sideResp":1,"stimulus":[],"xmouse":[775,775,775,775,775,775,775,775,775,775,775,775,775,775,775,775,775,775,775,775,775,775,775,775,775,775,775,775,775,775,775,775,775,775,775,775,775,775,775,775,775,775,775,775,775,775,775,775,775,775,775,775,775,775,775,775,775,775,775,775,775,775,775,775,775,775,775,773,768,761,754,747,735,730,705,689,672,647,619,590,555,549,546,546,546,546,545,544,543,539,536,529,514,482],"ymouse":[495,495,495,495,495,495,495,495,495,495,495,495,495,495,495,495,495,495,495,495,495,495,495,495,495,495,495,495,495,495,495,495,495,495,495,495,495,495,495,495,495,495,495,495,495,495,495,495,495,495,495,495,495,495,495,495,495,495,495,495,495,495,495,495,495,495,496,495,489,479,472,466,458,455,437,425,413,396,376,354,319,305,290,286,275,269,264,259,253,239,228,206,156,42],"timestamp_mouse":[13,34,44,65,86,105,126,145,166,186,205,226,245,266,286,305,325,346,365,385,406,425,445,465,485,506,526,546,565,585,606,625,646,665,685,706,725,746,766,785,806,826,846,864,885,905,925,946,965,986,1005,1026,1046,1065,1085,1105,1126,1145,1165,1186,1205,1224,1246,1265,1286,1306,1325,1345,1365,1386,1405,1425,1445,1466,1486,1505,1525,1545,1565,1587,1605,1625,1645,1665,1687,1705,1726,1745,1765,1787,1805,1826,1846,1866],"xSR":741.5,"ySR":469.95,"xT1":424.9,"yT1":0,"xT2":1058.1,"yT2":0,"toosoon":0,"cond_shown":"Incongruent","ratio_trial":100,"L_num":2,"L_den":4,"R_num":8,"R_den":20,"correct_side":1,"subjID":"JuanSebastianGonzalez30","gender":"0","school":"4","age":"4"},{"start_time":1552054269256,"click_time":1552054272690,"finger_time":1552054271791,"fix_duration":343.9760918218442,"trial":22,"RT":2535,"MT":899,"sideResp":2,"stimulus":[],"xmouse":[781,781,781,781,781,781,781,781,781,781,781,781,781,781,781,781,781,781,781,781,781,781,781,781,781,781,781,781,781,781,781,781,781,781,781,781,781,781,781,781,781,781,781,781,781,781,781,781,781,781,781,781,781,781,781,781,781,781,781,781,781,781,781,781,781,781,781,781,781,781,781,781,781,781,781,781,781,781,781,781,781,781,781,781,781,781,781,781,781,781,781,781,781,781,781,781,781,781,781,781,781,781,781,781,781,781,779,778,768,765,763,763,763,763,763,763,763,763,763,763,768,772,791,805,818,837,842,856,874,883,891,899,918,927,936,943,950,963,981,992,1002,1011,1030,1039,1049,1054,1057,1058,1058,1058,1058,1058,1057,1057,1057,1055,1055,1055,1055,1055,1055,1055,1055,1055,1055,1055,1055,1055,1055,1055,1058,1062],"ymouse":[527,527,527,527,527,527,527,527,527,527,527,527,527,527,527,527,527,527,527,527,527,527,527,527,527,527,527,527,527,527,527,527,527,527,527,527,527,527,527,527,527,527,527,527,527,527,527,527,527,527,527,527,527,527,527,527,527,527,527,527,527,527,527,527,527,527,527,527,527,527,527,527,527,527,527,527,527,527,527,527,527,527,527,527,527,527,527,527,527,527,527,527,527,527,527,527,527,527,527,527,527,527,527,527,527,527,526,519,495,489,487,486,486,486,486,486,486,486,486,486,492,496,503,503,503,499,495,476,434,413,394,373,330,311,291,273,259,235,202,187,174,164,148,144,136,129,112,100,78,72,69,68,65,63,60,57,56,56,56,56,56,56,56,56,56,56,56,56,56,55,56,58],"timestamp_mouse":[14,38,55,75,95,116,136,154,175,194,215,236,256,275,295,315,335,356,376,395,415,435,456,475,495,515,536,554,576,594,615,635,654,674,695,715,735,754,774,795,815,835,855,875,895,915,936,956,975,994,1014,1035,1054,1074,1096,1115,1135,1154,1175,1195,1215,1234,1255,1274,1294,1315,1334,1355,1376,1394,1414,1435,1455,1474,1494,1515,1535,1556,1576,1595,1615,1634,1655,1676,1695,1715,1735,1755,1775,1794,1815,1834,1856,1874,1894,1915,1935,1954,1975,1996,2015,2034,2055,2074,2094,2115,2134,2155,2174,2194,2214,2235,2255,2275,2295,2315,2334,2355,2374,2394,2414,2434,2456,2474,2495,2515,2535,2555,2574,2594,2614,2634,2656,2674,2695,2714,2734,2754,2774,2794,2814,2834,2856,2874,2894,2914,2935,2955,2976,2995,3014,3034,3056,3074,3095,3114,3135,3154,3175,3195,3214,3234,3256,3275,3295,3314,3335,3355,3375,3395,3414,3434],"xSR":741.5,"ySR":469.95,"xT1":424.9,"yT1":0,"xT2":1058.1,"yT2":0,"toosoon":0,"cond_shown":"Congruent","ratio_trial":100,"L_num":1,"L_den":2,"R_num":3,"R_den":5,"correct_side":2,"subjID":"JuanSebastianGonzalez30","gender":"0","school":"4","age":"4"},{"start_time":1552054274679,"click_time":1552054277111,"finger_time":1552054276231,"fix_duration":947.3236669006722,"trial":23,"RT":1552,"MT":880,"sideResp":2,"stimulus":[],"xmouse":[797,797,797,797,797,797,797,797,797,797,797,797,797,797,797,797,797,797,797,797,797,797,797,797,797,797,797,797,797,797,797,797,797,797,797,797,797,797,797,797,797,797,797,797,797,797,797,797,797,797,797,797,797,797,797,797,797,797,797,797,797,797,797,797,797,797,797,797,797,797,797,797,797,797,797,797,799,809,812,816,819,824,825,829,832,835,842,855,864,871,879,890,895,901,906,909,922,927,933,942,950,962,984,999,1012,1032,1043,1060,1066,1069,1072,1074,1076,1077,1079,1083,1084,1085,1086,1087,1087,1088],"ymouse":[507,507,507,507,507,507,507,507,507,507,507,507,507,507,507,507,507,507,507,507,507,507,507,507,507,507,507,507,507,507,507,507,507,507,507,507,507,507,507,507,507,507,507,507,507,507,507,507,507,507,507,507,507,507,507,507,507,507,507,507,507,507,507,507,507,507,507,507,507,507,507,507,507,507,507,505,496,456,441,428,418,406,400,394,387,379,365,345,335,327,319,305,299,293,289,285,276,273,271,269,267,264,252,239,227,208,198,180,170,165,159,153,146,142,137,129,125,118,112,107,103,98],"timestamp_mouse":[27,44,52,72,91,113,132,153,173,192,212,233,252,271,292,312,332,352,371,392,412,431,452,471,492,512,532,551,571,592,613,631,652,671,691,713,732,752,771,793,812,831,851,871,892,912,932,953,971,992,1011,1032,1052,1072,1092,1112,1132,1153,1172,1192,1211,1231,1252,1271,1291,1312,1331,1352,1371,1392,1413,1432,1453,1472,1491,1512,1532,1552,1571,1591,1611,1633,1651,1672,1691,1712,1731,1751,1771,1792,1811,1833,1851,1872,1891,1911,1932,1951,1971,1991,2011,2033,2051,2071,2091,2112,2132,2151,2171,2191,2212,2231,2251,2272,2291,2311,2331,2351,2371,2392,2413,2432],"xSR":741.5,"ySR":469.95,"xT1":424.9,"yT1":0,"xT2":1058.1,"yT2":0,"toosoon":0,"cond_shown":"Congruent","ratio_trial":100,"L_num":6,"L_den":12,"R_num":15,"R_den":25,"correct_side":2,"subjID":"JuanSebastianGonzalez30","gender":"0","school":"4","age":"4"},{"start_time":1552054279599,"click_time":1552054281812,"finger_time":1552054281310,"fix_duration":1005.4591636895303,"trial":24,"RT":1711,"MT":502,"sideResp":1,"stimulus":[],"xmouse":[796,796,796,796,796,796,796,796,796,796,796,796,796,796,796,796,796,796,796,796,796,796,796,796,796,796,796,796,796,796,796,796,796,796,796,796,796,796,796,796,796,796,796,796,796,796,796,796,796,796,796,796,796,796,796,796,796,796,796,796,796,796,796,796,796,796,796,796,796,796,796,796,796,796,796,796,796,796,796,796,796,796,795,792,777,745,632,596,567,558,542,526,513,501,486,458,443,427,412,408,402,395,391,388,384,382,383,391,405,421,476],"ymouse":[475,475,475,475,475,475,475,475,475,475,475,475,475,475,475,475,475,475,475,475,475,475,475,475,475,475,475,475,475,475,475,475,475,475,475,475,475,475,475,475,475,475,475,475,475,475,475,475,475,475,475,475,475,475,475,475,475,475,475,475,475,475,475,475,475,475,475,475,475,475,475,475,475,475,475,475,475,475,475,475,475,475,476,476,472,456,410,397,386,382,373,359,341,325,307,278,265,254,242,240,233,220,213,204,189,161,147,134,120,105,40],"timestamp_mouse":[13,46,51,71,91,112,131,151,172,192,211,231,251,271,291,311,331,351,373,392,412,431,451,473,492,513,531,552,571,592,612,633,651,672,691,713,732,753,772,792,811,833,852,871,893,912,933,952,972,991,1011,1032,1052,1072,1092,1112,1131,1152,1171,1191,1211,1231,1252,1272,1291,1312,1331,1352,1372,1393,1412,1431,1452,1471,1492,1513,1532,1551,1571,1592,1611,1631,1651,1671,1691,1711,1731,1752,1771,1792,1813,1831,1851,1871,1891,1914,1931,1952,1971,1992,2012,2033,2052,2071,2092,2112,2131,2151,2171,2191,2213],"xSR":741.5,"ySR":469.95,"xT1":424.9,"yT1":0,"xT2":1058.1,"yT2":0,"toosoon":0,"cond_shown":"Congruent","ratio_trial":200,"L_num":15,"L_den":25,"R_num":4,"R_den":10,"correct_side":1,"subjID":"JuanSebastianGonzalez30","gender":"0","school":"4","age":"4"},{"start_time":1552054284434,"click_time":1552054288330,"finger_time":1552054285991,"fix_duration":1301.3907960959564,"trial":25,"RT":1557,"MT":2339,"sideResp":1,"stimulus":[],"xmouse":[796,796,796,796,796,796,796,796,796,796,796,796,796,796,796,796,796,796,796,796,796,796,796,796,796,796,796,796,796,796,796,796,796,796,796,796,796,796,796,796,796,796,796,796,796,796,796,796,796,796,796,796,796,796,796,796,796,796,796,796,796,796,796,796,796,796,796,796,796,796,796,796,796,796,796,796,792,758,725,670,652,643,640,632,627,616,602,589,561,556,555,555,555,555,555,555,555,555,555,555,555,555,555,555,555,555,555,555,555,555,555,555,555,555,555,555,555,555,555,550,544,540,536,532,529,529,528,527,527,527,527,527,527,527,527,527,528,528,528,525,520,518,516,516,514,512,512,512,511,511,511,511,511,511,511,511,511,511,509,508,507,506,506,506,506,506,506,506,506,506,506,506,506,506,506,506,506,506,506,506,506,505,505,505,505,505,505,505,505,505,505,505,505,505,504],"ymouse":[554,554,554,554,554,554,554,554,554,554,554,554,554,554,554,554,554,554,554,554,554,554,554,554,554,554,554,554,554,554,554,554,554,554,554,554,554,554,554,554,554,554,554,554,554,554,554,554,554,554,554,554,554,554,554,554,554,554,554,554,554,554,554,554,554,554,554,554,554,554,554,554,554,554,554,527,500,409,355,298,285,279,277,271,266,257,247,239,225,223,222,222,222,222,222,222,222,222,222,222,222,222,222,222,222,222,222,222,222,222,222,222,222,222,222,222,222,222,222,222,219,218,216,214,213,213,212,212,210,210,210,210,208,205,203,200,197,193,181,165,154,147,144,142,138,136,134,132,130,130,130,130,130,130,130,130,130,128,123,119,116,113,110,107,107,107,107,107,107,107,107,107,107,107,107,107,107,107,107,107,106,103,102,101,101,101,101,101,101,101,101,101,101,101,99],"timestamp_mouse":[16,42,57,77,97,116,136,157,177,197,216,237,258,277,296,316,338,357,377,396,416,437,456,478,496,516,536,556,576,597,616,636,656,676,698,716,736,756,777,796,818,836,856,876,897,916,936,956,977,997,1016,1037,1056,1077,1096,1116,1137,1157,1178,1197,1216,1237,1257,1277,1297,1317,1336,1357,1377,1396,1416,1436,1456,1477,1497,1517,1538,1557,1576,1596,1616,1636,1656,1678,1696,1717,1736,1756,1778,1796,1817,1837,1856,1877,1896,1917,1937,1956,1976,1996,2017,2037,2056,2077,2096,2117,2138,2158,2176,2197,2216,2237,2256,2278,2297,2317,2338,2356,2376,2397,2417,2437,2456,2476,2496,2517,2536,2556,2577,2596,2616,2636,2656,2678,2696,2716,2737,2757,2777,2796,2816,2837,2857,2876,2896,2916,2937,2956,2976,2997,3016,3037,3056,3076,3096,3116,3136,3156,3178,3196,3217,3237,3256,3278,3296,3317,3337,3356,3376,3397,3417,3436,3457,3477,3496,3516,3536,3556,3577,3597,3618,3637,3656,3676,3697,3716,3737,3758,3777,3797,3816,3836,3857,3878,3896],"xSR":741.5,"ySR":469.95,"xT1":424.9,"yT1":0,"xT2":1058.1,"yT2":0,"toosoon":0,"cond_shown":"Congruent","ratio_trial":100,"L_num":11,"L_den":22,"R_num":4,"R_den":10,"correct_side":1,"subjID":"JuanSebastianGonzalez30","gender":"0","school":"4","age":"4"},{"start_time":1552054290159,"click_time":1552054293070,"finger_time":1552054292490,"fix_duration":307.37225848581727,"trial":26,"RT":2331,"MT":580,"sideResp":2,"stimulus":[],"xmouse":[772,772,772,772,772,772,772,772,772,772,772,772,772,772,772,772,772,772,772,772,772,772,772,772,772,772,772,772,772,772,772,772,772,772,772,772,772,772,772,772,772,772,772,772,772,772,772,772,772,772,772,772,772,772,772,772,772,772,772,772,772,772,772,772,772,772,772,772,772,772,772,772,772,772,772,772,772,772,772,772,772,771,767,764,764,764,764,764,764,764,764,764,764,764,764,764,764,764,764,764,764,764,764,764,764,764,764,764,764,764,764,764,764,765,776,791,815,844,915,946,969,992,993,1010,1019,1022,1023,1023,1023,1023,1023,1023,1023,1023,1023,1023,1023,1023,1023,1023,1023,1023,1023,1030,1048,1062],"ymouse":[517,517,517,517,517,517,517,517,517,517,517,517,517,517,517,517,517,517,517,517,517,517,517,517,517,517,517,517,517,517,517,517,517,517,517,517,517,517,517,517,517,517,517,517,517,517,517,517,517,517,517,517,517,517,517,517,517,517,517,517,517,517,517,517,517,517,517,517,517,517,517,517,517,517,517,517,517,517,517,517,517,515,511,509,509,509,509,509,509,509,509,509,509,509,509,509,509,509,509,509,509,509,509,509,509,509,509,509,509,509,509,509,509,507,497,485,467,448,389,354,307,206,143,80,68,64,63,63,63,63,63,63,63,63,63,63,63,63,63,63,63,63,63,64,74,80],"timestamp_mouse":[13,38,52,72,92,112,132,153,171,191,212,233,252,272,291,311,332,351,373,392,412,432,451,473,492,512,532,551,573,593,612,632,652,673,691,712,732,751,773,793,812,831,851,872,891,911,931,953,972,991,1011,1031,1052,1071,1091,1112,1132,1152,1172,1192,1212,1232,1252,1272,1292,1311,1331,1352,1373,1393,1412,1432,1451,1472,1491,1511,1531,1553,1573,1592,1612,1632,1651,1673,1691,1711,1732,1752,1773,1792,1811,1832,1852,1871,1891,1912,1932,1953,1972,1992,2011,2031,2051,2072,2092,2113,2132,2151,2172,2191,2211,2232,2252,2272,2291,2312,2331,2353,2371,2392,2411,2431,2451,2471,2491,2511,2531,2552,2571,2592,2611,2631,2651,2671,2692,2711,2731,2752,2771,2792,2812,2831,2852,2871,2891,2911],"xSR":741.5,"ySR":469.95,"xT1":424.9,"yT1":0,"xT2":1058.1,"yT2":0,"toosoon":0,"cond_shown":"Incongruent","ratio_trial":200,"L_num":14,"L_den":30,"R_num":12,"R_den":18,"correct_side":2,"subjID":"JuanSebastianGonzalez30","gender":"0","school":"4","age":"4"},{"start_time":1552054294621,"click_time":1552054296330,"finger_time":1552054296130,"fix_duration":428.7862725971363,"trial":27,"RT":1509,"MT":200,"sideResp":1,"stimulus":[],"xmouse":[773,773,773,773,773,773,773,773,773,773,773,773,773,773,773,773,773,773,773,773,773,773,773,773,773,773,773,773,773,773,773,773,773,773,773,773,773,773,773,773,773,773,773,773,773,773,773,773,773,773,773,773,773,773,773,773,773,773,773,773,773,773,773,773,773,773,773,773,773,773,773,773,773,775,775,714,668,622,590,569,563,561,556,543,503,483],"ymouse":[544,544,544,544,544,544,544,544,544,544,544,544,544,544,544,544,544,544,544,544,544,544,544,544,544,544,544,544,544,544,544,544,544,544,544,544,544,544,544,544,544,544,544,544,544,544,544,544,544,544,544,544,544,544,544,544,544,544,544,544,544,544,544,544,544,544,544,544,544,544,544,544,544,542,529,395,318,250,201,167,160,157,151,139,109,94],"timestamp_mouse":[20,36,49,69,89,109,129,150,169,190,211,229,250,269,290,309,329,351,370,389,409,430,450,471,489,509,529,550,570,591,610,631,650,669,690,709,731,750,770,789,810,830,850,871,889,909,930,950,969,989,1009,1030,1050,1071,1090,1110,1129,1150,1170,1190,1209,1230,1249,1270,1289,1310,1329,1349,1370,1391,1410,1430,1450,1469,1489,1509,1529,1550,1570,1589,1609,1631,1650,1669,1690,1709],"xSR":741.5,"ySR":469.95,"xT1":424.9,"yT1":0,"xT2":1058.1,"yT2":0,"toosoon":0,"cond_shown":"Incongruent","ratio_trial":100,"L_num":8,"L_den":16,"R_num":6,"R_den":10,"correct_side":2,"subjID":"JuanSebastianGonzalez30","gender":"0","school":"4","age":"4"},{"start_time":1552054298821,"click_time":1552054300392,"finger_time":1552054299231,"fix_duration":827.4811397178531,"trial":28,"RT":410,"MT":1161,"sideResp":2,"stimulus":[],"xmouse":[802,803,803,803,803,803,803,803,803,803,803,803,803,803,803,803,803,807,815,830,860,875,890,904,922,950,967,976,976,937,891,889,889,889,889,889,889,889,889,889,889,889,889,889,889,897,912,926,946,962,985,995,1001,1005,1011,1013,1015,1017,1021,1028,1036,1046,1054,1063,1071,1082,1084,1085,1085,1085,1086,1086,1086,1087,1087,1091,1093,1096,1098],"ymouse":[547,546,546,546,546,546,546,546,546,546,546,546,546,546,546,546,546,540,532,519,496,487,476,466,455,435,422,401,372,263,167,159,157,157,157,157,157,157,157,157,157,157,157,157,156,157,164,170,179,186,192,192,192,192,188,186,184,180,172,161,152,144,136,129,124,119,118,118,118,118,118,118,118,118,118,116,111,106,98],"timestamp_mouse":[15,42,49,69,90,110,130,150,170,190,210,229,250,270,290,311,331,349,369,389,410,429,449,469,489,509,530,550,569,589,609,630,649,670,689,710,729,749,769,791,809,830,850,870,890,909,929,949,969,991,1009,1030,1050,1069,1091,1109,1129,1149,1169,1190,1209,1229,1250,1270,1289,1309,1329,1349,1370,1390,1410,1429,1450,1471,1490,1509,1529,1549,1570],"xSR":741.5,"ySR":469.95,"xT1":424.9,"yT1":0,"xT2":1058.1,"yT2":0,"toosoon":0,"cond_shown":"Congruent","ratio_trial":100,"L_num":2,"L_den":5,"R_num":11,"R_den":22,"correct_side":2,"subjID":"JuanSebastianGonzalez30","gender":"0","school":"4","age":"4"},{"start_time":1552054302590,"click_time":1552054304990,"finger_time":1552054304130,"fix_duration":1036.4163738843968,"trial":29,"RT":1540,"MT":860,"sideResp":1,"stimulus":[],"xmouse":[775,775,775,775,775,775,775,775,775,775,775,775,775,775,775,775,775,775,775,775,775,775,775,775,775,775,775,775,775,775,775,775,775,775,775,775,775,775,775,775,775,775,775,775,775,775,775,775,775,775,775,775,775,775,775,775,775,775,775,775,775,775,775,775,775,775,775,775,775,775,775,775,775,775,775,775,775,775,767,750,706,594,594,594,594,594,594,594,594,594,594,594,594,594,594,594,594,594,594,594,418,415,412,412,417,425,437,439,441,443,444,445,447,449,452,455,461,469,470,472,472],"ymouse":[496,496,496,496,496,496,496,496,496,496,496,496,496,496,496,496,496,496,496,496,496,496,496,496,496,496,496,496,496,496,496,496,496,496,496,496,496,496,496,496,496,496,496,496,496,496,496,496,496,496,496,496,496,496,496,496,496,496,496,496,496,496,496,496,496,496,496,496,496,496,496,496,496,496,496,496,491,466,412,324,201,16,16,16,16,16,16,16,16,16,16,16,16,16,16,16,16,16,16,16,2,21,62,82,104,122,145,147,150,151,152,152,152,151,147,140,131,111,103,100,95],"timestamp_mouse":[10,20,41,61,80,100,120,140,160,181,201,220,241,261,282,301,321,342,362,380,400,420,442,462,481,500,520,541,562,581,600,620,642,661,681,700,720,742,760,781,802,821,840,860,882,900,922,941,960,982,1001,1021,1040,1060,1081,1100,1120,1141,1160,1181,1202,1220,1241,1261,1280,1301,1321,1340,1361,1380,1402,1420,1440,1460,1482,1500,1520,1540,1560,1580,1601,1622,1640,1660,1681,1700,1722,1740,1760,1781,1802,1821,1841,1861,1880,1901,1920,1940,1961,1980,2000,2020,2040,2060,2080,2100,2121,2140,2160,2181,2200,2222,2240,2260,2280,2300,2320,2340,2362,2380,2400],"xSR":741.5,"ySR":469.95,"xT1":424.9,"yT1":0,"xT2":1058.1,"yT2":0,"toosoon":0,"cond_shown":"Congruent","ratio_trial":200,"L_num":16,"L_den":20,"R_num":12,"R_den":20,"correct_side":1,"subjID":"JuanSebastianGonzalez30","gender":"0","school":"4","age":"4"},{"start_time":1552054306382,"click_time":1552054308511,"finger_time":1552054308030,"fix_duration":250,"trial":30,"RT":1648,"MT":481,"sideResp":2,"stimulus":[],"xmouse":[758,758,758,758,758,758,758,758,758,758,758,758,758,758,758,758,758,758,758,758,758,758,758,758,758,758,758,758,758,758,758,758,758,758,758,758,758,758,758,758,758,758,758,758,758,758,758,758,758,758,758,758,758,758,758,758,758,758,758,758,758,758,758,758,758,758,758,758,758,758,758,758,758,758,758,758,758,758,758,767,784,835,871,900,919,935,956,960,961,961,961,962,971,978,986,995,1002,1014,1020,1027,1030,1030,1037,1049,1064,1087,1106],"ymouse":[509,509,509,509,509,509,509,509,509,509,509,509,509,509,509,509,509,509,509,509,509,509,509,509,509,509,509,509,509,509,509,509,509,509,509,509,509,509,509,509,509,509,509,509,509,509,509,509,509,509,509,509,509,509,509,509,509,509,509,509,509,509,509,509,509,509,509,509,509,509,509,509,509,509,509,509,509,509,509,507,501,483,466,450,434,420,400,397,396,396,396,395,383,375,367,358,352,334,325,302,281,253,199,174,147,110,69],"timestamp_mouse":[13,28,49,68,89,108,129,149,169,189,208,229,249,269,290,309,329,348,368,390,409,428,449,469,488,509,529,549,568,588,609,630,648,668,689,710,730,749,769,790,809,829,850,868,888,908,929,950,969,988,1009,1029,1050,1069,1088,1108,1129,1150,1169,1188,1208,1229,1249,1268,1290,1310,1329,1349,1368,1389,1409,1428,1449,1469,1489,1509,1528,1549,1568,1588,1608,1630,1648,1668,1688,1708,1731,1748,1769,1789,1808,1828,1848,1868,1888,1908,1929,1949,1968,1988,2009,2028,2049,2068,2090,2110,2128],"xSR":741.5,"ySR":469.95,"xT1":424.9,"yT1":0,"xT2":1058.1,"yT2":0,"toosoon":0,"cond_shown":"Congruent","ratio_trial":100,"L_num":4,"L_den":8,"R_num":6,"R_den":10,"correct_side":2,"subjID":"JuanSebastianGonzalez30","gender":"0","school":"4","age":"4"},{"start_time":1552054310596,"click_time":1552054312851,"finger_time":1552054312071,"fix_duration":703.4616695921351,"trial":31,"RT":1475,"MT":780,"sideResp":2,"stimulus":[],"xmouse":[779,779,779,779,779,779,779,779,779,779,779,779,779,779,779,779,779,779,779,779,779,779,779,779,779,779,779,779,779,779,779,779,779,779,779,779,779,779,779,779,779,779,779,779,779,779,779,779,779,779,779,779,779,779,779,779,779,779,779,779,779,779,779,779,779,779,779,779,779,779,779,785,822,884,936,984,1067,1084,1095,1104,1124,1130,1138,1145,1151,1161,1164,1165,1165,1165,1166,1166,1166,1166,1164,1161,1154,1143,1131,1120,1112,1112,1111,1111,1111,1111,1111,1111,1112,1113,1115,1116,1116],"ymouse":[530,530,530,530,530,530,530,530,530,530,530,530,530,530,530,530,530,530,530,530,530,530,530,530,530,530,530,530,530,530,530,530,530,530,530,530,530,530,530,530,530,530,530,530,530,530,530,530,530,530,530,530,530,530,530,530,530,530,530,530,530,530,530,530,530,530,530,530,530,530,530,530,523,514,507,496,472,466,461,452,408,392,375,359,345,323,310,296,278,255,229,217,207,198,190,185,177,170,161,152,143,142,141,141,140,138,131,126,122,116,111,103,99],"timestamp_mouse":[15,39,54,75,94,115,134,155,175,194,215,235,255,275,295,316,336,355,374,395,415,436,455,475,495,514,535,555,575,594,615,634,655,675,694,715,736,755,775,795,814,835,855,875,894,914,934,954,974,996,1014,1035,1054,1076,1094,1115,1134,1154,1175,1195,1214,1234,1255,1274,1295,1314,1334,1354,1376,1395,1415,1435,1454,1475,1494,1515,1534,1555,1575,1596,1615,1634,1654,1674,1694,1716,1734,1755,1774,1795,1815,1834,1855,1874,1894,1915,1934,1954,1974,1995,2015,2034,2055,2074,2095,2114,2134,2155,2175,2196,2215,2235,2255],"xSR":741.5,"ySR":469.95,"xT1":424.9,"yT1":0,"xT2":1058.1,"yT2":0,"toosoon":0,"cond_shown":"Congruent","ratio_trial":300,"L_num":1,"L_den":30,"R_num":8,"R_den":24,"correct_side":2,"subjID":"JuanSebastianGonzalez30","gender":"0","school":"4","age":"4"},{"start_time":1552054316785,"click_time":1552054321412,"finger_time":1552054318471,"fix_duration":1111.582078605241,"trial":32,"RT":1686,"MT":2941,"sideResp":1,"stimulus":[],"xmouse":[769,769,769,769,769,769,769,769,769,769,769,769,769,769,769,769,769,769,769,769,769,769,769,769,769,769,769,769,769,769,769,769,769,769,769,769,769,769,769,769,769,769,769,769,769,769,769,769,769,769,769,769,769,769,769,769,769,769,769,769,769,769,769,769,769,769,769,769,769,769,769,769,769,769,769,769,769,769,769,769,768,768,771,777,782,787,792,795,795,795,795,795,795,795,795,795,795,795,795,795,791,778,771,761,749,739,726,724,724,724,724,721,720,718,715,712,709,702,697,696,694,693,693,692,691,688,670,652,625,578,486,418,292,251,225,215,212,212,212,216,229,250,264,281,301,318,346,355,364,368,369,369,369,371,373,380,388,403,409,413,414,414,414,415,417,421,423,425,426,426,426,426,428,428,428,428,429,429,430,430,430,432,433,435,436,436,441,444,447,448,452,455,455,457,457,458,458,459,460,461,462,462,463,464,464,464,464,464,464,464,464,464,464,465,465,465,465,465,465,465,465,465,465,465,465,465,465,465,465,465,465,465],"ymouse":[518,518,518,518,518,518,518,518,518,518,518,518,518,518,518,518,518,518,518,518,518,518,518,518,518,518,518,518,518,518,518,518,518,518,518,518,518,518,518,518,518,518,518,518,518,518,518,518,518,518,518,518,518,518,518,518,518,518,518,518,518,518,518,518,518,518,518,518,518,518,518,518,518,518,518,518,518,518,518,518,517,511,491,477,467,462,458,457,457,457,457,457,457,457,457,457,457,457,456,456,449,432,422,411,398,383,364,360,357,355,353,346,341,337,332,328,324,317,312,311,310,309,309,308,307,305,295,282,262,228,168,118,46,27,20,18,18,18,19,21,30,43,50,60,69,76,87,93,97,99,100,100,100,100,102,104,108,114,116,117,117,117,117,117,117,118,118,118,118,118,118,118,118,118,118,118,118,118,118,118,118,118,118,117,117,116,115,114,113,113,113,112,112,111,111,111,111,110,110,109,108,108,107,106,106,105,104,104,104,104,104,104,104,103,103,103,103,103,103,103,103,103,102,101,101,101,101,101,101,100,100,99],"timestamp_mouse":[13,27,45,65,86,105,126,146,166,186,206,227,247,265,286,305,326,347,367,386,406,425,446,465,487,506,526,545,566,587,606,626,645,665,686,707,726,745,767,786,806,826,846,866,886,906,925,947,967,985,1006,1026,1046,1065,1086,1106,1125,1146,1165,1185,1205,1226,1245,1266,1287,1306,1326,1345,1366,1385,1406,1427,1447,1466,1486,1506,1525,1545,1566,1587,1606,1625,1645,1665,1686,1705,1727,1745,1766,1787,1805,1826,1845,1865,1885,1905,1927,1945,1966,1985,2005,2027,2045,2066,2086,2105,2127,2145,2165,2185,2205,2226,2245,2265,2285,2305,2325,2345,2366,2386,2406,2426,2447,2467,2487,2506,2526,2545,2566,2585,2605,2625,2646,2667,2685,2705,2726,2745,2765,2785,2805,2827,2845,2866,2885,2905,2926,2945,2966,2986,3006,3025,3046,3066,3085,3107,3126,3145,3166,3185,3206,3226,3246,3265,3286,3305,3326,3345,3366,3385,3406,3427,3447,3465,3485,3505,3526,3545,3565,3586,3606,3626,3647,3665,3686,3705,3727,3745,3765,3785,3806,3827,3845,3865,3885,3906,3927,3945,3965,3985,4005,4025,4046,4066,4086,4105,4125,4146,4165,4190,4205,4227,4246,4266,4285,4306,4325,4345,4365,4386,4406,4426,4445,4466,4486,4505,4527,4546,4565,4586,4606,4627],"xSR":741.5,"ySR":469.95,"xT1":424.9,"yT1":0,"xT2":1058.1,"yT2":0,"toosoon":0,"cond_shown":"Incongruent","ratio_trial":100,"L_num":6,"L_den":10,"R_num":7,"R_den":14,"correct_side":1,"subjID":"JuanSebastianGonzalez30","gender":"0","school":"4","age":"4"},{"start_time":1552054323333,"click_time":1552054326290,"finger_time":1552054324931,"fix_duration":421.8175480192432,"trial":33,"RT":1598,"MT":1359,"sideResp":1,"stimulus":[],"xmouse":[799,799,799,799,799,799,799,799,799,799,799,799,799,799,799,799,799,799,799,799,799,799,799,799,799,799,799,799,799,799,799,799,799,799,799,799,799,799,799,799,799,799,799,799,799,799,799,799,799,799,799,799,799,799,799,799,799,799,799,799,799,799,799,799,799,799,799,799,799,799,799,799,799,799,799,799,799,799,799,785,778,775,775,775,775,775,775,775,775,775,775,775,773,771,768,767,767,767,767,767,767,767,767,768,768,768,768,768,764,763,761,756,754,739,730,721,713,707,703,699,697,697,695,692,679,671,660,649,638,617,609,603,596,593,583,577,572,568,561,542,532,528,524,516,514,509,499,486],"ymouse":[509,509,509,509,509,509,509,509,509,509,509,509,509,509,509,509,509,509,509,509,509,509,509,509,509,509,509,509,509,509,509,509,509,509,509,509,509,509,509,509,509,509,509,509,509,509,509,509,509,509,509,509,509,509,509,509,509,509,509,509,509,509,509,509,509,509,509,509,509,509,509,509,509,509,509,509,509,508,505,452,429,417,415,415,415,415,415,415,415,415,415,415,408,399,388,386,386,386,386,384,384,383,382,381,379,377,376,374,370,368,367,363,362,356,352,349,346,344,342,341,336,333,319,306,278,265,251,239,228,210,205,201,197,196,191,187,185,182,176,154,144,140,137,130,128,123,110,97],"timestamp_mouse":[17,43,59,78,97,118,138,158,177,199,218,238,258,278,299,318,338,358,378,398,419,438,458,478,498,518,537,558,578,597,618,638,657,677,699,718,739,757,777,797,817,839,858,877,898,917,937,958,977,997,1017,1038,1057,1078,1098,1118,1138,1157,1178,1199,1218,1238,1258,1277,1298,1318,1338,1358,1378,1398,1418,1437,1458,1479,1497,1518,1538,1557,1579,1598,1617,1637,1658,1678,1698,1717,1737,1757,1777,1797,1818,1839,1858,1878,1898,1917,1938,1958,1979,1997,2018,2037,2058,2077,2097,2118,2137,2157,2179,2197,2218,2237,2258,2279,2297,2318,2338,2357,2378,2397,2418,2437,2457,2479,2498,2517,2537,2558,2577,2597,2618,2638,2657,2677,2697,2717,2737,2757,2777,2797,2817,2839,2858,2878,2897,2918,2938,2957],"xSR":741.5,"ySR":469.95,"xT1":424.9,"yT1":0,"xT2":1058.1,"yT2":0,"toosoon":0,"cond_shown":"Incongruent","ratio_trial":200,"L_num":1,"L_den":3,"R_num":2,"R_den":15,"correct_side":1,"subjID":"JuanSebastianGonzalez30","gender":"0","school":"4","age":"4"},{"start_time":1552054328726,"click_time":1552054331032,"finger_time":1552054330672,"fix_duration":1172.0427626121557,"trial":34,"RT":1946,"MT":360,"sideResp":2,"stimulus":[],"xmouse":[809,809,809,809,809,809,809,809,809,809,809,809,809,809,809,809,809,809,809,809,809,809,809,809,809,809,809,809,809,809,809,809,809,809,809,809,809,809,809,809,809,809,809,809,809,809,809,809,809,809,809,809,809,809,809,809,809,809,809,809,809,809,809,809,809,809,809,809,809,809,809,809,809,809,809,809,809,809,809,809,809,809,809,809,809,809,809,809,809,809,809,809,809,809,809,796,787,785,785,785,785,785,785,785,785,785,785,785,785,785,792,809,871,900,1016,1121],"ymouse":[532,532,532,532,532,532,532,532,532,532,532,532,532,532,532,532,532,532,532,532,532,532,532,532,532,532,532,532,532,532,532,532,532,532,532,532,532,532,532,532,532,532,532,532,532,532,532,532,532,532,532,532,532,532,532,532,532,532,532,532,532,532,532,532,532,532,532,532,532,532,532,532,532,532,532,532,532,532,532,532,532,532,532,532,532,532,532,532,532,532,532,532,532,532,530,491,471,459,452,448,448,448,448,448,448,448,448,448,448,447,437,420,350,319,195,67],"timestamp_mouse":[12,34,46,66,85,105,125,145,165,186,207,227,246,267,285,307,326,345,367,385,405,427,447,467,486,507,525,545,565,586,607,627,646,665,687,707,726,746,765,786,805,826,846,867,885,905,927,946,967,986,1005,1026,1046,1066,1085,1107,1127,1147,1166,1185,1206,1227,1245,1265,1286,1306,1325,1346,1367,1387,1406,1427,1446,1465,1486,1507,1527,1546,1567,1587,1606,1626,1647,1666,1686,1706,1726,1747,1767,1785,1806,1827,1847,1865,1885,1906,1926,1946,1965,1986,2005,2026,2046,2066,2087,2107,2125,2145,2165,2186,2206,2225,2245,2267,2287,2306],"xSR":741.5,"ySR":469.95,"xT1":424.9,"yT1":0,"xT2":1058.1,"yT2":0,"toosoon":0,"cond_shown":"Incongruent","ratio_trial":200,"L_num":7,"L_den":15,"R_num":6,"R_den":9,"correct_side":2,"subjID":"JuanSebastianGonzalez30","gender":"0","school":"4","age":"4"},{"start_time":1552054333746,"click_time":1552054336012,"finger_time":1552054335392,"fix_duration":992.4885304137362,"trial":35,"RT":1646,"MT":620,"sideResp":1,"stimulus":[],"xmouse":[789,789,789,789,789,789,789,789,789,789,789,789,789,789,789,789,789,789,789,789,789,789,789,789,789,789,789,789,789,789,789,789,789,789,789,789,789,789,789,789,789,789,789,789,789,789,789,789,789,789,789,789,789,789,789,789,789,789,789,789,789,789,789,789,789,789,789,789,789,789,789,789,789,789,789,789,789,789,787,770,761,748,730,686,616,599,587,581,580,578,575,572,569,542,528,515,507,501,497,496,496,496,494,488,487,487,486,486,486,486,486,486,485,484],"ymouse":[530,530,530,530,530,530,530,530,530,530,530,530,530,530,530,530,530,530,530,530,530,530,530,530,530,530,530,530,530,530,530,530,530,530,530,530,530,530,530,530,530,530,530,530,530,530,530,530,530,530,530,530,530,530,530,530,530,530,530,530,530,530,530,530,530,530,530,530,530,530,530,530,530,530,530,530,530,530,530,525,519,511,498,473,436,428,421,416,414,407,401,388,382,339,318,298,281,266,248,243,238,233,221,202,197,195,192,187,180,158,141,125,109,90],"timestamp_mouse":[22,43,45,66,85,105,126,146,166,185,205,225,246,266,285,305,326,346,365,387,406,426,446,467,486,506,527,547,565,586,605,625,645,666,686,705,725,746,767,787,805,826,845,867,887,906,926,946,967,986,1006,1026,1045,1066,1087,1107,1125,1146,1166,1185,1207,1225,1246,1266,1285,1305,1325,1346,1365,1387,1407,1426,1447,1467,1486,1505,1525,1547,1566,1585,1605,1626,1646,1665,1685,1705,1725,1745,1767,1785,1805,1825,1847,1867,1886,1905,1925,1945,1967,1986,2005,2026,2046,2066,2085,2106,2126,2147,2166,2185,2206,2227,2246,2266],"xSR":741.5,"ySR":469.95,"xT1":424.9,"yT1":0,"xT2":1058.1,"yT2":0,"toosoon":0,"cond_shown":"Congruent","ratio_trial":200,"L_num":12,"L_den":20,"R_num":6,"R_den":15,"correct_side":1,"subjID":"JuanSebastianGonzalez30","gender":"0","school":"4","age":"4"},{"start_time":1552054337663,"click_time":1552054339672,"finger_time":1552054339211,"fix_duration":250,"trial":36,"RT":1548,"MT":461,"sideResp":1,"stimulus":[],"xmouse":[813,812,811,810,809,809,809,809,809,809,809,809,809,809,809,809,809,809,809,809,809,809,809,809,809,809,809,809,809,809,809,809,809,809,809,809,809,809,809,809,809,809,809,809,809,809,809,809,809,809,809,809,809,809,809,809,809,809,809,809,809,809,809,809,809,809,809,809,809,809,809,809,809,806,800,784,755,680,556,512,478,461,450,438,432,424,414,398,390,390,390,390,390,390,391,393,396,406,414,421,430],"ymouse":[538,536,535,534,533,533,533,533,533,533,533,533,533,533,533