[{"start_time":1552309305670,"click_time":1552309307697,"finger_time":1552309305679,"fix_duration":250,"trial":0,"RT":9,"MT":2018,"sideResp":1,"stimulus":"img/250/equaldotanddens/R/4_Ratio_250_L_3_R_12.png","xmouse":[835,835,835,834,833,832,830,827,824,820,818,815,811,809,809,809,809,809,809,809,809,808,807,807,807,807,806,807,807,807,807,807,807,807,807,807,807,807,807,807,807,807,807,807,807,807,807,807,807,807,807,807,807,807,807,807,807,807,807,808,808,809,809,809,810,810,812,812,812,812,812,812,812,812,812,812,812,812,812,812,812,812,812,812,812,813,813,811,797,789,782,770,749,663,597,541,498,463,460,460,460,460],"ymouse":[604,604,605,605,604,603,601,598,596,590,587,583,572,568,566,566,566,566,566,566,566,565,563,562,561,559,557,549,549,549,549,549,549,549,549,549,549,549,549,549,549,549,549,549,549,549,549,549,549,549,549,549,549,549,549,549,549,549,547,545,545,544,544,544,544,544,544,544,544,544,544,544,544,544,544,544,544,544,544,544,544,544,544,544,544,545,542,534,499,485,472,456,435,371,324,280,244,200,175,155,130,99],"timestamp_mouse":[9,39,47,66,86,106,127,147,166,186,206,225,246,265,287,307,326,345,366,386,405,425,445,465,486,506,525,546,567,586,605,626,646,666,686,706,726,745,767,785,805,825,845,865,885,905,925,945,965,986,1005,1026,1046,1066,1085,1106,1125,1146,1165,1186,1207,1225,1245,1267,1287,1305,1325,1345,1366,1387,1406,1427,1446,1465,1487,1505,1526,1546,1567,1587,1606,1627,1646,1665,1686,1705,1726,1745,1766,1786,1805,1826,1845,1866,1886,1905,1925,1947,1966,1986,2006,2026],"xSR":741.5,"ySR":501.8,"xT1":424.9,"yT1":0,"xT2":1058.1,"yT2":0,"toosoon":0,"cond_shown":"equaldotanddens","ratio_trial":250,"smaller_num":"3","larger_num":"12","correct_side":2,"subjID":"juansebastiánmera24","gender":"0","age":"9","school":"4","test":{"fix_dur":[250,1500],"timestim":300,"targets_dim":[100,100],"targets_relative_coord":[0.3,0.7],"size_stim":[880,420],"start_dim":[100,100],"size_start":[300,300],"size_fix":60,"samplingrate":20,"img_types":["equaldotsize","equaldotanddens","randomdotsizeEA"],"ratios":[250,500,750,900],"rep_conds":9,"nTrials":120,"trials_to_rest":500,"Trials_order":[73,109,67,25,7,80,15,75,72,39,42,45,62,99,105,86,60,71,29,111,3,112,50,49,1,10,33,18,97,4,36,59,20,22,69,98,58,68,95,26,65,43,87,6,96,102,103,108,83,30,28,88,38,115,118,9,82,14,17,63,106,24,23,76,51,56,16,61,70,85,113,0,54,100,114,48,52,90,66,74,19,101,93,89,84,8,117,79,104,116,5,35,110,13,55,44,81,31,37,57,46,21,107,119,64,47,91,12,92,78,53,32,11,41,27,2,94,77,34,40],"cond_shown":["equaldotanddens","equaldotanddens","equaldotanddens","equaldotanddens","equaldotanddens","randomdotsizeEA","equaldotsize","equaldotsize","equaldotsize","equaldotsize","equaldotsize","equaldotsize","randomdotsizeEA","equaldotsize","equaldotsize","randomdotsizeEA","equaldotsize","randomdotsizeEA","randomdotsizeEA","equaldotsize","equaldotsize","equaldotanddens","randomdotsizeEA","equaldotanddens","equaldotanddens","equaldotanddens","equaldotsize","equaldotsize","equaldotanddens","equaldotanddens","equaldotsize","randomdotsizeEA","randomdotsizeEA","equaldotanddens","equaldotsize","randomdotsizeEA","equaldotanddens","randomdotsizeEA","randomdotsizeEA","randomdotsizeEA","randomdotsizeEA","equaldotanddens","equaldotsize","equaldotsize","equaldotsize","equaldotsize","equaldotanddens","equaldotsize","randomdotsizeEA","equaldotsize","equaldotanddens","equaldotanddens","randomdotsizeEA","equaldotanddens","equaldotanddens","equaldotsize","equaldotanddens","randomdotsizeEA","randomdotsizeEA","equaldotsize","equaldotanddens","equaldotsize","randomdotsizeEA","equaldotanddens","equaldotsize","randomdotsizeEA","equaldotanddens","equaldotanddens","equaldotanddens","equaldotanddens","randomdotsizeEA","equaldotsize","equaldotsize","equaldotanddens","equaldotsize","equaldotsize","equaldotanddens","equaldotsize","equaldotsize","randomdotsizeEA","equaldotanddens","randomdotsizeEA","equaldotsize","randomdotsizeEA","equaldotsize","randomdotsizeEA","equaldotsize","equaldotanddens","randomdotsizeEA","randomdotsizeEA","randomdotsizeEA","randomdotsizeEA","randomdotsizeEA","equaldotanddens","equaldotanddens","randomdotsizeEA","equaldotsize","equaldotanddens","equaldotanddens","equaldotsize","equaldotanddens","equaldotsize","randomdotsizeEA","randomdotsizeEA","equaldotanddens","randomdotsizeEA","equaldotanddens","equaldotsize","randomdotsizeEA","equaldotsize","randomdotsizeEA","randomdotsizeEA","randomdotsizeEA","randomdotsizeEA","equaldotsize","randomdotsizeEA","equaldotanddens","randomdotsizeEA","equaldotanddens","equaldotanddens"],"ratio_trial":[250,250,750,250,750,750,500,500,250,500,750,900,250,500,900,250,250,900,500,500,500,500,250,250,250,900,900,750,250,500,250,900,750,900,900,250,900,750,900,250,500,750,500,750,250,750,750,250,900,750,500,500,250,750,900,900,900,250,500,500,900,250,900,500,500,750,500,250,900,250,500,250,750,500,750,250,500,750,750,250,750,500,900,500,250,750,900,750,750,750,500,900,250,250,750,750,900,750,250,900,900,900,900,900,500,900,750,250,750,750,500,750,900,500,500,250,900,500,900,500],"smaller_num":["3","3","9","6","3","12","10","6","3","9","3","18","6","10","18","4","3","18","6","9","9","9","6","6","4","18","18","3","4","6","4","9","9","18","18","4","18","3","18","3","5","6","10","6","2","12","15","2","18","12","1","9","5","15","9","9","18","6","2","2","18","3","18","5","1","15","4","3","9","3","1","1","3","1","12","1","3","15","15","2","3","6","18","5","3","3","9","9","15","6","1","18","2","4","6","3","18","3","2","9","9","18","18","9","6","18","3","3","6","6","5","9","18","9","6","4","9","10","18","6"],"larger_num":["12","12","12","24","4","16","20","12","12","18","4","20","24","20","20","16","12","20","12","18","18","18","24","24","16","20","20","4","16","12","16","10","12","20","20","16","20","4","20","12","10","8","20","8","8","16","20","8","20","16","2","18","20","20","10","10","20","24","4","4","20","12","20","10","2","20","8","12","10","12","2","4","4","2","16","4","6","20","20","8","4","12","20","10","12","4","10","12","20","8","2","20","8","16","8","4","20","4","8","10","10","20","20","10","12","20","4","12","8","8","10","12","20","18","12","16","10","20","20","12"],"correct_side":[2,2,2,1,1,2,2,1,1,2,2,2,2,2,2,2,2,1,1,2,1,2,2,1,1,1,2,2,2,1,1,1,2,1,2,1,1,1,1,1,2,1,2,2,1,2,1,1,1,2,2,2,2,1,2,2,2,1,1,1,2,2,1,1,2,1,1,2,1,2,2,2,2,2,2,2,2,1,2,2,1,1,1,1,2,1,2,2,2,1,2,1,1,1,2,1,2,1,2,2,2,1,1,2,1,1,2,2,1,1,1,2,2,1,1,2,2,2,1,1],"img_shown":["img/250/equaldotanddens/R/4_Ratio_250_L_3_R_12.png","img/250/equaldotanddens/R/9_Ratio_250_L_3_R_12.png","img/750/equaldotanddens/R/15_Ratio_750_L_9_R_12.png","img/250/equaldotanddens/L/5_Ratio_250_L_24_R_6.png","img/750/equaldotanddens/L/8_Ratio_750_L_4_R_3.png","img/750/randomdotsizeEA/R/11_Ratio_750_L_12_R_16.png","img/500/equaldotsize/R/3_Ratio_500_L_10_R_20.png","img/500/equaldotsize/L/13_Ratio_500_L_12_R_6.png","img/250/equaldotsize/L/15_Ratio_250_L_12_R_3.png","img/500/equaldotsize/R/1_Ratio_500_L_9_R_18.png","img/750/equaldotsize/R/7_Ratio_750_L_3_R_4.png","img/900/equaldotsize/R/12_Ratio_900_L_18_R_20.png","img/250/randomdotsizeEA/R/6_Ratio_250_L_6_R_24.png","img/500/equaldotsize/R/3_Ratio_500_L_10_R_20.png","img/900/equaldotsize/R/13_Ratio_900_L_18_R_20.png","img/250/randomdotsizeEA/R/10_Ratio_250_L_4_R_16.png","img/250/equaldotsize/R/4_Ratio_250_L_3_R_12.png","img/900/randomdotsizeEA/L/8_Ratio_900_L_20_R_18.png","img/500/randomdotsizeEA/L/13_Ratio_500_L_12_R_6.png","img/500/equaldotsize/R/6_Ratio_500_L_9_R_18.png","img/500/equaldotsize/L/4_Ratio_500_L_18_R_9.png","img/500/equaldotanddens/R/1_Ratio_500_L_9_R_18.png","img/250/randomdotsizeEA/R/6_Ratio_250_L_6_R_24.png","img/250/equaldotanddens/L/5_Ratio_250_L_24_R_6.png","img/250/equaldotanddens/L/2_Ratio_250_L_16_R_4.png","img/900/equaldotanddens/L/2_Ratio_900_L_20_R_18.png","img/900/equaldotsize/R/11_Ratio_900_L_18_R_20.png","img/750/equaldotsize/R/7_Ratio_750_L_3_R_4.png","img/250/equaldotanddens/R/10_Ratio_250_L_4_R_16.png","img/500/equaldotanddens/L/11_Ratio_500_L_12_R_6.png","img/250/equaldotsize/L/2_Ratio_250_L_16_R_4.png","img/900/randomdotsizeEA/L/1_Ratio_900_L_10_R_9.png","img/750/randomdotsizeEA/R/15_Ratio_750_L_9_R_12.png","img/900/equaldotanddens/L/8_Ratio_900_L_20_R_18.png","img/900/equaldotsize/R/14_Ratio_900_L_18_R_20.png","img/250/randomdotsizeEA/L/2_Ratio_250_L_16_R_4.png","img/900/equaldotanddens/L/2_Ratio_900_L_20_R_18.png","img/750/randomdotsizeEA/L/8_Ratio_750_L_4_R_3.png","img/900/randomdotsizeEA/L/10_Ratio_900_L_20_R_18.png","img/250/randomdotsizeEA/L/15_Ratio_250_L_12_R_3.png","img/500/randomdotsizeEA/R/14_Ratio_500_L_5_R_10.png","img/750/equaldotanddens/L/13_Ratio_750_L_8_R_6.png","img/500/equaldotsize/R/3_Ratio_500_L_10_R_20.png","img/750/equaldotsize/R/2_Ratio_750_L_6_R_8.png","img/250/equaldotsize/L/7_Ratio_250_L_8_R_2.png","img/750/equaldotsize/R/11_Ratio_750_L_12_R_16.png","img/750/equaldotanddens/L/1_Ratio_750_L_20_R_15.png","img/250/equaldotsize/L/3_Ratio_250_L_8_R_2.png","img/900/randomdotsizeEA/L/2_Ratio_900_L_20_R_18.png","img/750/equaldotsize/R/11_Ratio_750_L_12_R_16.png","img/500/equaldotanddens/R/15_Ratio_500_L_1_R_2.png","img/500/equaldotanddens/R/1_Ratio_500_L_9_R_18.png","img/250/randomdotsizeEA/R/12_Ratio_250_L_5_R_20.png","img/750/equaldotanddens/L/1_Ratio_750_L_20_R_15.png","img/900/equaldotanddens/R/6_Ratio_900_L_9_R_10.png","img/900/equaldotsize/R/5_Ratio_900_L_9_R_10.png","img/900/equaldotanddens/R/12_Ratio_900_L_18_R_20.png","img/250/randomdotsizeEA/L/5_Ratio_250_L_24_R_6.png","img/500/randomdotsizeEA/L/10_Ratio_500_L_4_R_2.png","img/500/equaldotsize/L/10_Ratio_500_L_4_R_2.png","img/900/equaldotanddens/R/14_Ratio_900_L_18_R_20.png","img/250/equaldotsize/R/11_Ratio_250_L_3_R_12.png","img/900/randomdotsizeEA/L/8_Ratio_900_L_20_R_18.png","img/500/equaldotanddens/L/7_Ratio_500_L_10_R_5.png","img/500/equaldotsize/R/12_Ratio_500_L_1_R_2.png","img/750/randomdotsizeEA/L/1_Ratio_750_L_20_R_15.png","img/500/equaldotanddens/L/8_Ratio_500_L_8_R_4.png","img/250/equaldotanddens/R/11_Ratio_250_L_3_R_12.png","img/900/equaldotanddens/L/1_Ratio_900_L_10_R_9.png","img/250/equaldotanddens/R/9_Ratio_250_L_3_R_12.png","img/500/randomdotsizeEA/R/15_Ratio_500_L_1_R_2.png","img/250/equaldotsize/R/8_Ratio_250_L_1_R_4.png","img/750/equaldotsize/R/7_Ratio_750_L_3_R_4.png","img/500/equaldotanddens/R/12_Ratio_500_L_1_R_2.png","img/750/equaldotsize/R/11_Ratio_750_L_12_R_16.png","img/250/equaldotsize/R/8_Ratio_250_L_1_R_4.png","img/500/equaldotanddens/R/2_Ratio_500_L_3_R_6.png","img/750/equaldotsize/L/1_Ratio_750_L_20_R_15.png","img/750/equaldotsize/R/5_Ratio_750_L_15_R_20.png","img/250/randomdotsizeEA/R/13_Ratio_250_L_2_R_8.png","img/750/equaldotanddens/L/10_Ratio_750_L_4_R_3.png","img/500/randomdotsizeEA/L/11_Ratio_500_L_12_R_6.png","img/900/equaldotsize/L/2_Ratio_900_L_20_R_18.png","img/500/randomdotsizeEA/L/7_Ratio_500_L_10_R_5.png","img/250/equaldotsize/R/9_Ratio_250_L_3_R_12.png","img/750/randomdotsizeEA/L/10_Ratio_750_L_4_R_3.png","img/900/equaldotsize/R/5_Ratio_900_L_9_R_10.png","img/750/equaldotanddens/R/15_Ratio_750_L_9_R_12.png","img/750/randomdotsizeEA/R/4_Ratio_750_L_15_R_20.png","img/750/randomdotsizeEA/L/14_Ratio_750_L_8_R_6.png","img/500/randomdotsizeEA/R/12_Ratio_500_L_1_R_2.png","img/900/randomdotsizeEA/L/4_Ratio_900_L_20_R_18.png","img/250/randomdotsizeEA/L/7_Ratio_250_L_8_R_2.png","img/250/equaldotanddens/L/2_Ratio_250_L_16_R_4.png","img/750/equaldotanddens/R/2_Ratio_750_L_6_R_8.png","img/750/randomdotsizeEA/L/9_Ratio_750_L_4_R_3.png","img/900/equaldotsize/R/9_Ratio_900_L_18_R_20.png","img/750/equaldotanddens/L/9_Ratio_750_L_4_R_3.png","img/250/equaldotanddens/R/13_Ratio_250_L_2_R_8.png","img/900/equaldotsize/R/15_Ratio_900_L_9_R_10.png","img/900/equaldotanddens/R/3_Ratio_900_L_9_R_10.png","img/900/equaldotsize/L/2_Ratio_900_L_20_R_18.png","img/900/randomdotsizeEA/L/2_Ratio_900_L_20_R_18.png","img/900/randomdotsizeEA/R/5_Ratio_900_L_9_R_10.png","img/500/equaldotanddens/L/11_Ratio_500_L_12_R_6.png","img/900/randomdotsizeEA/L/4_Ratio_900_L_20_R_18.png","img/750/equaldotanddens/R/12_Ratio_750_L_3_R_4.png","img/250/equaldotsize/R/9_Ratio_250_L_3_R_12.png","img/750/randomdotsizeEA/L/13_Ratio_750_L_8_R_6.png","img/750/equaldotsize/L/14_Ratio_750_L_8_R_6.png","img/500/randomdotsizeEA/L/7_Ratio_500_L_10_R_5.png","img/750/randomdotsizeEA/R/15_Ratio_750_L_9_R_12.png","img/900/randomdotsizeEA/R/13_Ratio_900_L_18_R_20.png","img/500/randomdotsizeEA/L/4_Ratio_500_L_18_R_9.png","img/500/equaldotsize/L/11_Ratio_500_L_12_R_6.png","img/250/randomdotsizeEA/R/10_Ratio_250_L_4_R_16.png","img/900/equaldotanddens/R/7_Ratio_900_L_9_R_10.png","img/500/randomdotsizeEA/R/3_Ratio_500_L_10_R_20.png","img/900/equaldotanddens/L/2_Ratio_900_L_20_R_18.png","img/500/equaldotanddens/L/11_Ratio_500_L_12_R_6.png"],"Rat0":[["12_Ratio_0_L_9_R_0.png","13_Ratio_0_L_6_R_0.png","5_Ratio_0_L_2_R_0.png","6_Ratio_0_L_4_R_0.png","8_Ratio_0_L_6_R_0.png"],["1_Ratio_0_L_0_R_17.png","10_Ratio_0_L_0_R_22.png","11_Ratio_0_L_0_R_1.png","14_Ratio_0_L_0_R_24.png","15_Ratio_0_L_0_R_4.png","2_Ratio_0_L_0_R_5.png","3_Ratio_0_L_0_R_17.png","4_Ratio_0_L_0_R_7.png","7_Ratio_0_L_0_R_19.png","9_Ratio_0_L_0_R_15.png"]],"Rat250":[["1_Ratio_250_L_8_R_2.png","14_Ratio_250_L_12_R_3.png","15_Ratio_250_L_12_R_3.png","2_Ratio_250_L_16_R_4.png","3_Ratio_250_L_8_R_2.png","5_Ratio_250_L_24_R_6.png","7_Ratio_250_L_8_R_2.png"],["10_Ratio_250_L_4_R_16.png","11_Ratio_250_L_3_R_12.png","12_Ratio_250_L_5_R_20.png","13_Ratio_250_L_2_R_8.png","4_Ratio_250_L_3_R_12.png","6_Ratio_250_L_6_R_24.png","8_Ratio_250_L_1_R_4.png","9_Ratio_250_L_3_R_12.png"]],"Rat500":[["10_Ratio_500_L_4_R_2.png","11_Ratio_500_L_12_R_6.png","13_Ratio_500_L_12_R_6.png","4_Ratio_500_L_18_R_9.png","5_Ratio_500_L_4_R_2.png","7_Ratio_500_L_10_R_5.png","8_Ratio_500_L_8_R_4.png"],["1_Ratio_500_L_9_R_18.png","12_Ratio_500_L_1_R_2.png","14_Ratio_500_L_5_R_10.png","15_Ratio_500_L_1_R_2.png","2_Ratio_500_L_3_R_6.png","3_Ratio_500_L_10_R_20.png","6_Ratio_500_L_9_R_18.png","9_Ratio_500_L_2_R_4.png"]],"Rat750":[["1_Ratio_750_L_20_R_15.png","10_Ratio_750_L_4_R_3.png","13_Ratio_750_L_8_R_6.png","14_Ratio_750_L_8_R_6.png","6_Ratio_750_L_24_R_18.png","8_Ratio_750_L_4_R_3.png","9_Ratio_750_L_4_R_3.png"],["11_Ratio_750_L_12_R_16.png","12_Ratio_750_L_3_R_4.png","15_Ratio_750_L_9_R_12.png","2_Ratio_750_L_6_R_8.png","3_Ratio_750_L_15_R_20.png","4_Ratio_750_L_15_R_20.png","5_Ratio_750_L_15_R_20.png","7_Ratio_750_L_3_R_4.png"]],"Rat900":[["1_Ratio_900_L_10_R_9.png","10_Ratio_900_L_20_R_18.png","2_Ratio_900_L_20_R_18.png","4_Ratio_900_L_20_R_18.png","8_Ratio_900_L_20_R_18.png"],["11_Ratio_900_L_18_R_20.png","12_Ratio_900_L_18_R_20.png","13_Ratio_900_L_18_R_20.png","14_Ratio_900_L_18_R_20.png","15_Ratio_900_L_9_R_10.png","3_Ratio_900_L_9_R_10.png","5_Ratio_900_L_9_R_10.png","6_Ratio_900_L_9_R_10.png","7_Ratio_900_L_9_R_10.png","9_Ratio_900_L_18_R_20.png"]],"Rat1000":[["10_Ratio_1000_L_16_R_16.png","11_Ratio_1000_L_6_R_6.png","12_Ratio_1000_L_14_R_14.png","13_Ratio_1000_L_20_R_20.png","15_Ratio_1000_L_15_R_15.png","2_Ratio_1000_L_17_R_17.png","4_Ratio_1000_L_9_R_9.png","5_Ratio_1000_L_6_R_6.png","6_Ratio_1000_L_19_R_19.png","8_Ratio_1000_L_14_R_14.png","9_Ratio_1000_L_25_R_25.png"],["1_Ratio_1000_L_1_R_1.png","14_Ratio_1000_L_17_R_17.png","3_Ratio_1000_L_17_R_17.png","7_Ratio_1000_L_6_R_6.png"]]}},{"start_time":1552309310012,"click_time":1552309311356,"finger_time":1552309310977,"fix_duration":1093.9410590338987,"trial":1,"RT":965,"MT":379,"sideResp":2,"stimulus":"img/250/equaldotanddens/R/9_Ratio_250_L_3_R_12.png","xmouse":[786,786,786,786,794,796,797,797,796,790,785,780,780,780,780,779,779,779,776,773,773,773,773,773,773,773,773,773,773,773,773,773,773,773,773,773,778,785,795,800,801,802,802,802,802,802,802,802,804,829,872,1021,1083,1121,1129,1129,1129,1129,1129,1129,1130,1131,1131,1131,1131,1128,1120,1117],"ymouse":[479,479,479,479,478,478,478,478,482,490,494,497,497,497,497,498,498,498,498,500,500,500,500,500,500,500,500,500,500,500,500,500,500,500,500,500,495,486,478,474,473,473,473,473,473,473,473,472,469,453,431,329,279,231,210,204,202,202,201,192,186,165,157,152,148,140,114,96],"timestamp_mouse":[9,23,53,63,83,103,124,143,163,183,204,224,243,265,283,304,324,345,363,384,405,423,443,465,483,503,523,543,563,584,603,625,645,665,684,704,724,743,764,784,803,825,844,864,885,903,925,944,965,984,1004,1024,1044,1064,1083,1104,1124,1144,1164,1183,1204,1223,1243,1264,1284,1303,1323,1344],"xSR":741.5,"ySR":469.95,"xT1":424.9,"yT1":0,"xT2":1058.1,"yT2":0,"toosoon":0,"cond_shown":"equaldotanddens","ratio_trial":250,"smaller_num":"3","larger_num":"12","correct_side":2,"subjID":"juansebastiánmera24","gender":"0","age":"9","school":"4"},{"start_time":1552309312832,"click_time":1552309313776,"finger_time":1552309313555,"fix_duration":534.4065049583608,"trial":2,"RT":723,"MT":221,"sideResp":2,"stimulus":"img/750/equaldotanddens/R/15_Ratio_750_L_9_R_12.png","xmouse":[797,797,797,797,797,797,797,797,797,797,797,797,795,794,793,791,790,790,790,790,789,787,783,780,777,775,775,775,775,775,775,775,779,782,790,817,845,865,889,921,985,1008,1027,1042,1058,1101,1110,1122],"ymouse":[507,507,507,507,507,507,507,507,507,507,507,507,509,509,509,511,512,512,512,512,512,514,517,523,528,531,531,531,531,531,531,531,527,525,518,500,479,461,441,416,360,337,312,288,239,146,119,86],"timestamp_mouse":[13,24,44,64,83,105,125,144,163,185,204,224,244,263,285,304,324,345,364,384,404,423,445,463,484,503,524,545,563,585,603,624,645,663,685,703,723,744,764,784,805,824,843,864,883,904,924,944],"xSR":741.5,"ySR":469.95,"xT1":424.9,"yT1":0,"xT2":1058.1,"yT2":0,"toosoon":0,"cond_shown":"equaldotanddens","ratio_trial":750,"smaller_num":"9","larger_num":"12","correct_side":2,"subjID":"juansebastiánmera24","gender":"0","age":"9","school":"4"},{"start_time":1552309316658,"click_time":1552309326056,"finger_time":1552309319757,"fix_duration":679.4851046820038,"trial":3,"RT":3099,"MT":6299,"sideResp":2,"stimulus":"img/250/equaldotanddens/L/5_Ratio_250_L_24_R_6.png","xmouse":[788,788,788,788,788,788,788,788,788,788,788,788,788,788,788,788,788,788,788,788,788,788,788,788,788,788,788,788,788,788,788,788,788,788,788,788,788,788,788,788,788,788,788,788,788,788,788,788,788,788,788,788,788,788,788,788,788,788,788,788,788,788,788,788,788,788,788,788,788,788,788,788,788,788,788,788,788,788,788,788,788,788,788,788,788,788,788,788,788,788,788,788,788,788,788,788,788,788,788,788,788,788,788,788,788,788,788,788,788,788,788,788,788,788,788,788,788,788,788,788,788,788,788,788,788,788,788,788,788,788,788,788,788,788,788,788,788,788,788,788,788,788,788,788,788,788,788,788,788,788,788,788,797,818,879,890,895,931,1037,1146,1359,1549,1549,1549,1549,1549,1549,1549,1549,1549,1549,1549,1549,1549,1549,1549,1549,1549,1549,1549,1549,1549,1549,1549,1549,1549,1549,1549,1549,1549,1549,1549,1549,1549,1549,1549,1549,1549,1549,1549,1549,1549,1549,1549,1549,1549,1549,1549,1549,1549,1549,1549,1549,1549,1549,1549,1549,1549,1549,1549,1549,1549,1549,1549,1549,1549,1549,1549,1549,1549,1549,1549,1549,1549,1549,1549,1549,1549,1549,1549,1549,1549,1549,1549,1549,1549,1549,1549,1549,1549,1549,1549,1549,1549,1549,1549,1549,1549,1549,1549,1549,1549,1549,1549,1549,1549,1549,1549,1549,1549,1549,1549,1549,1549,1549,1549,1549,1549,1549,1549,1549,1549,1549,1549,1549,1549,1549,1549,1549,626,645,691,732,777,785,791,795,798,800,798,798,798,798,798,802,805,814,826,852,863,868,869,868,873,886,896,900,906,920,946,973,1004,1010,1012,1015,1018,1023,1039,1049,1058,1064,1072,1087],"ymouse":[539,539,539,539,539,539,539,539,539,539,539,539,539,539,539,539,539,539,539,539,539,539,539,539,539,539,539,539,539,539,539,539,539,539,539,539,539,539,539,539,539,539,539,539,539,539,539,539,539,539,539,539,539,539,539,539,539,539,539,539,539,539,539,539,539,539,539,539,539,539,539,539,539,539,539,539,539,539,539,539,539,539,539,539,539,539,539,539,539,539,539,539,539,539,539,539,539,539,539,539,539,539,539,539,539,539,539,539,539,539,539,539,539,539,539,539,539,539,539,539,539,539,539,539,539,539,539,539,539,539,539,539,539,539,539,539,539,539,539,539,539,539,539,539,539,539,539,539,539,539,539,539,535,526,501,496,496,510,540,564,605,662,662,662,662,662,662,662,662,662,662,662,662,662,662,662,662,662,662,662,662,662,662,662,662,662,662,662,662,662,662,662,662,662,662,662,662,662,662,662,662,662,662,662,662,662,662,662,662,662,662,662,662,662,662,662,662,662,662,662,662,662,662,662,662,662,662,662,662,662,662,662,662,662,662,662,662,662,662,662,662,662,662,662,662,662,662,662,662,662,662,662,662,662,662,662,662,662,662,662,662,662,662,662,662,662,662,662,662,662,662,662,662,662,662,662,662,662,662,662,662,662,662,662,662,662,662,662,662,10,33,89,142,237,289,330,360,382,404,407,409,410,411,412,406,397,379,358,315,302,297,297,320,347,378,392,396,392,367,315,253,186,167,151,147,143,140,133,128,122,117,109,92],"timestamp_mouse":[18,40,58,79,99,119,137,159,178,198,217,239,258,277,298,318,338,358,378,398,419,438,457,478,498,517,537,558,579,598,618,639,657,677,697,718,739,757,778,798,818,839,859,879,898,918,937,959,979,998,1018,1037,1058,1078,1097,1117,1139,1159,1179,1199,1219,1237,1259,1280,1298,1319,1339,1360,1379,1400,1420,1438,1459,1480,1500,1518,1539,1559,1580,1600,1619,1640,1660,1680,1700,1718,1738,1758,1778,1800,1820,1840,1859,1878,1900,1920,1940,1959,1978,1998,2019,2039,2059,2079,2099,2120,2139,2158,2179,2199,2220,2240,2259,2278,2299,2318,2339,2360,2379,2400,2420,2439,2459,2479,2499,2520,2539,2560,2580,2599,2619,2639,2660,2680,2699,2719,2740,2759,2779,2799,2820,2839,2859,2879,2900,2918,2939,2959,2979,3000,3020,3039,3059,3079,3099,3119,3139,3159,3179,3198,3219,3239,3259,3279,3299,3319,3339,3360,3379,3398,3418,3438,3459,3478,3498,3519,3539,3558,3580,3599,3619,3639,3659,3680,3700,3718,3739,3758,3779,3798,3818,3839,3860,3879,3898,3918,3939,3959,3980,3998,4019,4040,4060,4078,4098,4119,4138,4158,4180,4199,4220,4240,4260,4279,4300,4319,4340,4359,4380,4399,4419,4439,4458,4480,4498,4519,4539,4559,4578,4599,4619,4640,4660,4679,4699,4719,4738,4759,4778,4798,4820,4839,4859,4879,4899,4925,4938,4958,4980,4999,5020,5039,5060,5078,5099,5118,5138,5159,5178,5254,5936,5939,6935,7947,8040,8058,8078,8098,8118,8139,8159,8178,8199,8218,8240,8260,8279,8299,8320,8340,8360,8380,8399,8418,8438,8459,8479,8499,8520,8539,8559,8579,8599,8619,8638,8658,8678,8699,8718,8738,8758,8779,8798,8819,8838,8859,8878,8899,8918,8938,8958,8979,9000,9018,9039,9059,9078,9100,9118,9140,9159,9178,9198,9218,9238,9258,9279,9301,9319,9339,9359,9378,9398],"xSR":741.5,"ySR":469.95,"xT1":424.9,"yT1":0,"xT2":1058.1,"yT2":0,"toosoon":0,"cond_shown":"equaldotanddens","ratio_trial":250,"smaller_num":"6","larger_num":"24","correct_side":1,"subjID":"juansebastiánmera24","gender":"0","age":"9","school":"4"},{"start_time":1552309327528,"click_time":1552309328957,"finger_time":1552309328277,"fix_duration":250,"trial":4,"RT":749,"MT":680,"sideResp":1,"stimulus":"img/750/equaldotanddens/L/8_Ratio_750_L_4_R_3.png","xmouse":[774,774,774,774,774,774,774,774,774,774,774,774,774,774,774,774,774,774,774,774,774,774,774,774,774,774,774,774,774,774,774,774,774,774,774,774,774,745,707,647,575,493,365,346,344,344,344,344,344,344,344,349,372,388,390,391,398,406,413,419,421,422,422,422,422,422,422,422,422,422,423,425],"ymouse":[531,531,531,531,531,532,533,533,534,536,538,539,542,542,542,542,542,542,542,542,542,542,542,542,542,542,542,542,542,542,542,542,542,542,542,541,533,454,387,305,220,139,64,56,55,55,55,52,44,34,30,28,26,24,24,24,29,43,53,59,61,61,61,61,61,61,61,61,61,61,61,61],"timestamp_mouse":[8,37,48,69,90,109,130,149,168,189,209,229,248,269,288,308,329,349,369,388,409,428,449,470,489,509,528,550,568,589,610,630,649,669,690,708,728,749,768,788,808,829,849,869,888,909,929,948,969,989,1009,1029,1049,1068,1089,1109,1129,1148,1168,1188,1209,1230,1249,1270,1289,1308,1328,1348,1368,1390,1409,1429],"xSR":741.5,"ySR":501.8,"xT1":424.9,"yT1":0,"xT2":1058.1,"yT2":0,"toosoon":0,"cond_shown":"equaldotanddens","ratio_trial":750,"smaller_num":"3","larger_num":"4","correct_side":1,"subjID":"juansebastiánmera24","gender":"0","age":"9","school":"4"},{"start_time":1552309331452,"click_time":1552309332897,"finger_time":1552309332277,"fix_duration":1433.9600166950333,"trial":5,"RT":825,"MT":620,"sideResp":2,"stimulus":"img/750/randomdotsizeEA/R/11_Ratio_750_L_12_R_16.png","xmouse":[778,778,778,778,778,778,778,778,778,778,778,778,778,778,778,778,778,778,778,778,778,778,778,778,778,778,778,778,778,778,778,778,778,778,778,778,783,812,827,835,841,848,932,1038,1152,1266,1469,1506,1506,1506,1506,1506,1506,1506,1506,1506,1506,1506,1506,1506,1506,1506,1506,1272,1244,1210,1193,1193,1193,1192,1185,1174,1155],"ymouse":[545,545,545,545,545,546,546,546,546,546,546,546,546,546,546,546,546,546,546,546,546,546,546,546,546,546,546,546,546,546,546,546,546,546,546,546,545,533,525,518,509,492,398,323,239,158,26,1,1,1,1,1,1,1,1,1,1,1,1,1,1,1,1,7,19,34,44,44,44,44,45,45,46],"timestamp_mouse":[10,25,47,65,85,105,125,146,164,186,205,224,246,266,285,305,326,346,364,385,406,424,444,464,484,506,526,544,566,585,605,624,646,664,686,705,724,745,765,785,804,825,845,865,884,905,925,944,964,985,1005,1025,1044,1065,1085,1104,1125,1145,1164,1185,1204,1226,1244,1266,1285,1305,1326,1344,1364,1384,1404,1425,1445],"xSR":741.5,"ySR":501.8,"xT1":424.9,"yT1":0,"xT2":1058.1,"yT2":0,"toosoon":0,"cond_shown":"randomdotsizeEA","ratio_trial":750,"smaller_num":"12","larger_num":"16","correct_side":2,"subjID":"juansebastiánmera24","gender":"0","age":"9","school":"4"},{"start_time":1552309337812,"click_time":1552309339877,"finger_time":1552309338596,"fix_duration":454.9064307827878,"trial":6,"RT":784,"MT":1281,"sideResp":2,"stimulus":"img/500/equaldotsize/R/3_Ratio_500_L_10_R_20.png","xmouse":[775,775,775,775,775,775,775,775,775,775,775,775,775,775,775,775,775,775,775,775,775,775,775,775,775,775,775,775,775,775,775,775,775,775,775,775,775,776,776,781,785,790,794,799,800,810,827,835,847,857,860,863,867,870,871,878,884,889,897,910,963,996,1018,1035,1045,1047,1047,1047,1048,1049,1049,1049,1049,1048,1048,1048,1048,1048,1048,1048,1048,1048,1048,1048,1048,1048,1048,1048,1048,1049,1049,1050,1050,1051,1053,1055,1056,1057,1057,1057,1057,1057,1057,1061],"ymouse":[507,507,507,507,507,507,507,507,507,507,507,507,507,507,507,507,507,507,507,507,507,507,507,507,507,507,507,507,507,507,507,507,507,507,507,507,507,505,503,485,471,453,434,410,359,318,279,237,211,194,192,189,188,187,185,180,173,163,144,117,71,61,56,53,52,52,52,52,52,52,52,52,52,53,53,53,53,53,53,53,53,53,53,53,53,53,53,53,54,54,54,54,54,54,54,55,55,56,56,58,59,59,61,65],"timestamp_mouse":[10,24,44,66,86,106,125,144,166,184,205,225,244,266,284,304,326,345,365,386,405,424,445,465,486,505,524,546,564,584,605,624,645,664,686,706,726,745,766,784,804,824,844,865,885,905,924,944,964,984,1005,1025,1046,1066,1084,1104,1125,1146,1165,1185,1204,1225,1244,1264,1285,1305,1326,1346,1365,1385,1405,1425,1445,1465,1485,1505,1525,1545,1565,1585,1606,1625,1646,1665,1686,1705,1724,1745,1765,1785,1805,1824,1845,1864,1886,1905,1926,1946,1966,1985,2004,2024,2044,2065],"xSR":741.5,"ySR":501.8,"xT1":424.9,"yT1":0,"xT2":1058.1,"yT2":0,"toosoon":0,"cond_shown":"equaldotsize","ratio_trial":500,"smaller_num":"10","larger_num":"20","correct_side":2,"subjID":"juansebastiánmera24","gender":"0","age":"9","school":"4"},{"start_time":1552309342178,"click_time":1552309343998,"finger_time":1552309342876,"fix_duration":819.0032866627387,"trial":7,"RT":698,"MT":1122,"sideResp":1,"stimulus":"img/500/equaldotsize/L/13_Ratio_500_L_12_R_6.png","xmouse":[824,824,824,824,824,824,824,824,824,824,824,824,824,824,824,824,824,824,824,824,824,824,824,824,824,824,824,824,824,824,824,824,824,786,726,169,0,0,0,0,0,0,0,0,0,0,0,0,0,0,0,0,0,0,0,0,0,0,0,0,0,0,0,0,0,0,0,0,0,46,54,76,90,107,125,136,142,148,153,157,165,184,190,193,195,204,226,252,303,368,436],"ymouse":[530,530,530,530,530,530,530,530,530,530,530,530,530,530,530,530,530,530,530,530,530,530,530,530,530,530,530,530,530,530,530,530,530,503,460,159,9,9,9,9,9,9,9,9,9,9,9,9,9,9,9,9,9,9,9,9,9,9,9,9,9,9,9,9,9,9,9,9,9,1,6,35,75,115,139,145,144,140,137,133,126,112,108,106,104,100,97,97,97,97,97],"timestamp_mouse":[18,44,58,78,98,118,140,159,178,198,218,240,258,279,300,319,339,359,380,398,419,440,460,479,500,518,540,560,579,599,618,639,659,678,698,720,738,759,779,798,820,838,859,879,899,920,939,959,979,999,1018,1038,1060,1079,1099,1119,1138,1160,1180,1200,1219,1238,1258,1280,1299,1320,1338,1359,1379,1398,1418,1438,1459,1479,1499,1520,1539,1559,1578,1599,1619,1638,1659,1678,1698,1718,1738,1758,1779,1798,1820],"xSR":741.5,"ySR":501.8,"xT1":424.9,"yT1":0,"xT2":1058.1,"yT2":0,"toosoon":0,"cond_shown":"equaldotsize","ratio_trial":500,"smaller_num":"6","larger_num":"12","correct_side":1,"subjID":"juansebastiánmera24","gender":"0","age":"9","school":"4"},{"start_time":1552309349084,"click_time":1552309350897,"finger_time":1552309349876,"fix_duration":645.7592369682441,"trial":8,"RT":792,"MT":1021,"sideResp":1,"stimulus":"img/250/equaldotsize/L/15_Ratio_250_L_12_R_3.png","xmouse":[763,763,763,763,763,763,763,763,763,763,763,763,763,763,763,763,763,763,763,763,763,763,763,763,763,763,763,763,763,763,763,763,763,763,763,763,763,763,762,729,686,671,623,569,498,412,262,262,262,262,262,262,262,262,262,262,262,262,262,262,262,112,131,142,148,151,152,152,152,152,154,164,198,219,245,337,385,661,748,797,816,818,818,818,818,818,814,752,677,587,503],"ymouse":[538,538,538,538,538,538,538,538,538,538,538,538,538,538,538,538,538,538,538,538,538,538,538,538,538,538,538,538,538,538,538,538,538,538,538,538,538,538,538,539,542,523,400,322,241,160,27,27,27,27,27,27,27,27,27,27,27,27,27,27,27,31,47,60,67,70,71,71,71,71,71,66,39,25,16,14,26,104,135,157,162,162,162,162,162,162,162,139,119,94,80],"timestamp_mouse":[13,40,54,74,92,113,134,154,172,192,213,233,253,273,294,314,333,352,372,392,414,433,453,473,492,514,533,553,573,594,614,633,652,672,693,712,733,754,773,792,812,832,852,873,893,913,934,953,973,992,1012,1033,1053,1074,1094,1112,1133,1152,1172,1193,1212,1234,1252,1274,1292,1312,1333,1352,1372,1392,1412,1433,1452,1473,1492,1513,1532,1552,1573,1593,1612,1633,1654,1672,1693,1713,1733,1754,1772,1793,1813],"xSR":741.5,"ySR":501.8,"xT1":424.9,"yT1":0,"xT2":1058.1,"yT2":0,"toosoon":0,"cond_shown":"equaldotsize","ratio_trial":250,"smaller_num":"3","larger_num":"12","correct_side":1,"subjID":"juansebastiánmera24","gender":"0","age":"9","school":"4"},{"start_time":1552309352749,"click_time":1552309354857,"finger_time":1552309352957,"fix_duration":250,"trial":9,"RT":208,"MT":1900,"sideResp":2,"stimulus":"img/500/equaldotsize/R/1_Ratio_500_L_9_R_18.png","xmouse":[770,770,770,769,769,769,768,767,765,751,740,728,725,722,722,722,722,721,723,728,734,741,745,746,747,747,747,747,747,747,747,747,747,747,747,747,747,747,747,747,747,747,747,747,747,747,747,747,747,747,747,747,747,747,747,747,747,747,747,747,747,747,747,747,747,747,747,747,747,747,747,747,751,755,764,769,774,779,785,799,804,817,835,880,981,1028,1054,1072,1082,1098,1102,1107,1109,1112,1126,1135,1145,1148,1150,1150,1150,1150,1150,1149,1140,1130],"ymouse":[534,534,534,534,532,532,531,528,526,524,524,524,524,524,524,524,524,523,521,520,518,517,515,515,515,515,515,515,515,515,515,515,515,515,515,515,515,515,515,515,515,515,515,515,515,515,515,515,515,515,515,515,515,515,515,515,515,515,515,515,515,515,515,515,515,515,515,515,515,515,515,515,513,510,506,503,500,498,493,480,470,449,429,394,334,298,275,263,256,241,237,231,225,218,192,174,161,153,149,148,143,142,140,135,111,94],"timestamp_mouse":[12,39,48,67,89,107,127,148,168,187,208,227,248,269,289,309,328,347,370,388,407,427,447,468,489,508,529,548,567,587,607,628,649,669,688,707,727,749,768,788,808,828,848,867,889,908,929,948,969,989,1009,1029,1047,1068,1089,1109,1129,1148,1167,1187,1208,1227,1249,1268,1288,1309,1328,1348,1367,1389,1408,1427,1449,1468,1487,1508,1528,1548,1567,1587,1607,1628,1648,1668,1688,1708,1727,1748,1768,1788,1808,1827,1848,1868,1888,1908,1928,1948,1968,1987,2007,2027,2047,2068,2087,2108],"xSR":741.5,"ySR":501.8,"xT1":424.9,"yT1":0,"xT2":1058.1,"yT2":0,"toosoon":0,"cond_shown":"equaldotsize","ratio_trial":500,"smaller_num":"9","larger_num":"18","correct_side":2,"subjID":"juansebastiánmera24","gender":"0","age":"9","school":"4"},{"start_time":1552309356249,"click_time":1552309357438,"finger_time":1552309356977,"fix_duration":250,"trial":10,"RT":728,"MT":461,"sideResp":2,"stimulus":"img/750/equaldotsize/R/7_Ratio_750_L_3_R_4.png","xmouse":[805,805,805,806,806,806,806,806,806,806,806,806,806,806,806,806,806,806,806,806,806,806,806,806,806,806,806,806,806,806,806,806,806,808,819,830,845,851,855,862,874,893,924,965,1033,1049,1064,1072,1080,1094,1098,1103,1105,1107,1108,1108,1106,1100,1094,1086],"ymouse":[527,527,527,529,530,530,530,530,530,530,530,530,530,532,532,532,532,532,532,532,532,532,532,532,532,532,532,532,532,532,532,532,532,531,520,513,501,496,490,466,443,413,384,348,294,274,242,224,205,185,179,171,168,161,151,134,127,119,109,84],"timestamp_mouse":[10,42,48,68,88,108,128,149,167,188,208,227,247,268,289,307,328,348,367,388,409,429,447,468,489,507,528,547,567,588,609,629,647,668,688,708,727,748,768,788,807,827,848,867,888,907,927,947,967,989,1007,1028,1048,1068,1087,1108,1128,1149,1167,1189],"xSR":741.5,"ySR":501.8,"xT1":424.9,"yT1":0,"xT2":1058.1,"yT2":0,"toosoon":0,"cond_shown":"equaldotsize","ratio_trial":750,"smaller_num":"3","larger_num":"4","correct_side":2,"subjID":"juansebastiánmera24","gender":"0","age":"9","school":"4"},{"start_time":1552309361501,"click_time":1552309362897,"finger_time":1552309362257,"fix_duration":1443.9623356202574,"trial":11,"RT":756,"MT":640,"sideResp":2,"stimulus":"img/900/equaldotsize/R/12_Ratio_900_L_18_R_20.png","xmouse":[807,807,807,807,807,807,807,807,807,807,807,807,807,807,807,807,807,807,807,807,807,807,807,807,807,807,807,807,807,807,806,806,806,805,805,805,801,789,785,790,810,833,858,862,866,869,876,923,964,992,1020,1029,1039,1041,1044,1044,1045,1047,1049,1050,1052,1055,1064,1069,1073,1077,1079,1080,1081,1082],"ymouse":[549,549,549,549,549,549,549,549,549,549,549,549,549,549,549,549,549,549,549,549,549,549,549,549,549,549,549,549,548,548,547,546,545,544,542,535,516,436,385,332,308,291,269,261,256,249,240,218,207,199,188,182,173,169,165,161,159,153,149,145,141,135,124,119,115,112,110,107,103,98],"timestamp_mouse":[16,41,55,77,97,115,136,157,176,196,217,237,257,275,295,316,335,357,375,395,416,436,456,476,496,516,535,557,576,596,616,636,656,676,696,716,735,756,776,796,817,836,856,875,895,916,935,956,976,996,1016,1035,1056,1075,1096,1115,1136,1156,1176,1196,1217,1237,1256,1275,1296,1315,1335,1355,1375,1395],"xSR":741.5,"ySR":501.8,"xT1":424.9,"yT1":0,"xT2":1058.1,"yT2":0,"toosoon":0,"cond_shown":"equaldotsize","ratio_trial":900,"smaller_num":"18","larger_num":"20","correct_side":2,"subjID":"juansebastiánmera24","gender":"0","age":"9","school":"4"},{"start_time":1552309365874,"click_time":1552309367496,"finger_time":1552309366736,"fix_duration":495.76325205487916,"trial":12,"RT":862,"MT":760,"sideResp":1,"stimulus":"img/250/randomdotsizeEA/R/6_Ratio_250_L_6_R_24.png","xmouse":[812,812,812,812,812,812,812,812,812,812,812,812,812,812,812,812,812,812,812,812,812,812,812,812,812,812,812,812,812,812,812,812,812,812,812,812,812,813,812,810,810,810,809,850,1051,1180,1253,1266,1266,1245,1208,1196,1195,1196,1199,1199,1196,1188,1171,1114,958,872,788,704,636,513,459,414,371,322,309,300,298,298,298,304,315,334,356,382,423,428],"ymouse":[566,566,566,566,566,566,566,566,566,566,566,566,566,566,566,566,566,566,566,566,566,566,566,566,566,566,566,566,566,566,566,566,566,566,566,566,566,563,560,554,553,553,552,530,464,405,360,343,332,306,289,273,263,250,238,232,223,209,199,183,170,170,170,170,170,170,163,154,146,130,125,122,121,121,121,117,110,98,90,83,78,76],"timestamp_mouse":[9,23,42,64,83,103,122,142,163,183,203,223,244,262,283,302,324,344,363,383,404,423,444,462,482,504,522,543,564,583,603,622,644,664,683,703,722,742,762,783,804,822,844,862,884,902,922,943,963,984,1002,1023,1043,1062,1082,1102,1123,1142,1163,1183,1202,1222,1242,1263,1283,1302,1322,1343,1364,1384,1402,1422,1442,1462,1484,1502,1523,1543,1562,1583,1603,1622],"xSR":741.5,"ySR":501.8,"xT1":424.9,"yT1":0,"xT2":1058.1,"yT2":0,"toosoon":0,"cond_shown":"randomdotsizeEA","ratio_trial":250,"smaller_num":"6","larger_num":"24","correct_side":2,"subjID":"juansebastiánmera24","gender":"0","age":"9","school":"4"},{"start_time":1552309371422,"click_time":1552309372218,"finger_time":1552309371937,"fix_duration":1205.790000843051,"trial":13,"RT":515,"MT":281,"sideResp":2,"stimulus":"img/500/equaldotsize/R/3_Ratio_500_L_10_R_20.png","xmouse":[788,788,788,788,788,788,788,788,788,788,788,788,788,788,788,788,789,790,791,792,793,794,797,807,829,865,920,1004,1016,1011,964,917,818,790,782,782,800,934,1051,1157],"ymouse":[574,574,574,574,574,574,574,574,574,574,574,574,574,574,574,574,574,573,571,569,567,566,564,559,549,537,521,454,401,341,249,193,111,87,77,74,68,68,75,75],"timestamp_mouse":[15,39,54,75,96,114,136,156,174,195,215,236,255,275,296,315,335,354,375,394,415,436,454,474,496,515,534,555,575,595,615,635,655,674,695,714,736,755,775,795],"xSR":741.5,"ySR":501.8,"xT1":424.9,"yT1":0,"xT2":1058.1,"yT2":0,"toosoon":0,"cond_shown":"equaldotsize","ratio_trial":500,"smaller_num":"10","larger_num":"20","correct_side":2,"subjID":"juansebastiánmera24","gender":"0","age":"9","school":"4"},{"start_time":1552309373988,"click_time":1552309375478,"finger_time":1552309374376,"fix_duration":250,"trial":14,"RT":388,"MT":1102,"sideResp":2,"stimulus":"img/900/equaldotsize/R/13_Ratio_900_L_18_R_20.png","xmouse":[777,777,778,778,774,768,766,767,771,774,784,789,796,805,817,819,820,820,820,820,820,819,818,817,817,817,817,817,817,817,817,818,822,830,845,846,848,854,864,892,908,919,936,949,972,977,980,985,992,1007,1014,1027,1045,1064,1079,1079,1079,1079,1079,1080,1080,1080,1080,1078,1078,1077,1076,1075,1074,1072,1071,1071,1070,1072,1081],"ymouse":[548,545,543,542,538,538,538,541,546,547,548,546,542,537,527,522,519,516,513,495,475,465,460,459,459,459,462,466,471,472,472,471,462,447,416,410,398,384,354,300,274,258,237,222,204,202,201,199,197,179,167,150,135,122,113,112,112,112,112,111,111,111,111,112,112,112,113,113,113,113,113,113,113,108,96],"timestamp_mouse":[15,29,48,68,89,108,129,149,169,188,209,228,248,268,289,308,328,350,370,388,408,429,449,470,488,509,529,550,569,589,609,628,649,670,689,708,728,748,768,809,811,829,850,868,889,908,929,949,968,990,1009,1029,1049,1068,1089,1109,1130,1149,1170,1189,1208,1229,1248,1268,1289,1310,1329,1350,1370,1389,1408,1428,1449,1468,1489],"xSR":741.5,"ySR":501.8,"xT1":424.9,"yT1":0,"xT2":1058.1,"yT2":0,"toosoon":0,"cond_shown":"equaldotsize","ratio_trial":900,"smaller_num":"18","larger_num":"20","correct_side":2,"subjID":"juansebastiánmera24","gender":"0","age":"9","school":"4"},{"start_time":1552309382602,"click_time":1552309384316,"finger_time":1552309383438,"fix_duration":724.4658961934291,"trial":15,"RT":836,"MT":878,"sideResp":1,"stimulus":"img/250/randomdotsizeEA/R/10_Ratio_250_L_4_R_16.png","xmouse":[777,777,777,777,777,777,777,777,777,777,777,777,777,777,777,777,777,777,777,777,777,777,777,777,777,777,777,777,777,777,777,777,777,777,777,777,777,777,777,777,814,874,905,920,931,933,936,937,940,958,973,988,1002,1017,1040,1043,1043,1043,1043,1043,1032,1014,987,960,880,849,813,780,750,696,676,660,650,640,634,607,602,599,598,598,597,593,587,580,550,520],"ymouse":[530,530,530,530,530,530,530,530,530,530,530,530,530,530,530,530,530,530,530,530,530,530,530,530,530,530,530,530,530,530,530,530,530,530,530,530,530,530,530,530,518,491,474,463,447,443,437,432,422,381,354,333,316,300,272,269,268,268,268,268,266,263,260,257,230,213,199,184,171,148,141,133,128,120,111,79,75,73,72,72,72,72,72,72,68,62],"timestamp_mouse":[14,45,54,75,94,116,135,155,174,194,214,235,254,274,295,316,335,356,374,394,415,434,456,476,495,515,536,556,576,594,614,636,654,674,695,716,735,756,776,794,814,836,856,875,896,914,935,955,975,996,1015,1034,1055,1075,1095,1114,1135,1156,1176,1194,1214,1234,1255,1276,1296,1314,1335,1355,1375,1395,1414,1435,1455,1476,1495,1516,1535,1555,1576,1596,1614,1634,1654,1676,1696,1714],"xSR":741.5,"ySR":501.8,"xT1":424.9,"yT1":0,"xT2":1058.1,"yT2":0,"toosoon":0,"cond_shown":"randomdotsizeEA","ratio_trial":250,"smaller_num":"4","larger_num":"16","correct_side":2,"subjID":"juansebastiánmera24","gender":"0","age":"9","school":"4"},{"start_time":1552309386817,"click_time":1552309388856,"finger_time":1552309387577,"fix_duration":1499.7443022955963,"trial":16,"RT":760,"MT":1279,"sideResp":2,"stimulus":"img/250/equaldotsize/R/4_Ratio_250_L_3_R_12.png","xmouse":[790,790,790,790,790,790,790,790,790,790,790,790,790,790,790,790,790,790,790,790,790,790,790,790,790,790,790,790,790,790,790,790,790,790,790,790,790,793,883,937,954,962,970,983,1004,1027,1061,1112,1143,1169,1181,1200,1237,1248,1271,1286,1289,1291,1292,1292,1288,1277,1253,1241,1229,1228,1228,1228,1229,1230,1230,1228,1226,1222,1217,1213,1212,1211,1210,1209,1203,1201,1198,1194,1189,1172,1165,1162,1162,1162,1162,1162,1162,1162,1162,1162,1162,1162,1162,1162,1162,1159,1155],"ymouse":[543,543,543,543,543,543,543,543,543,543,543,543,543,543,543,543,543,543,543,543,543,543,543,543,543,543,543,543,543,543,543,543,543,543,543,543,543,542,522,514,493,477,459,426,388,363,340,318,306,297,293,285,275,272,262,247,237,228,213,194,149,114,56,27,7,6,6,6,6,9,15,23,27,34,41,47,47,48,48,48,48,47,45,45,45,45,45,44,44,44,44,44,44,44,44,44,44,44,44,44,44,44,44],"timestamp_mouse":[10,19,39,59,80,100,121,140,159,180,201,221,241,259,280,300,320,341,361,381,399,421,440,460,480,501,520,541,559,580,601,620,641,661,680,701,719,740,760,780,799,821,840,860,881,899,919,939,959,981,1000,1020,1039,1060,1079,1099,1120,1140,1161,1180,1199,1220,1240,1260,1281,1299,1320,1340,1360,1380,1400,1419,1440,1460,1479,1500,1520,1540,1559,1580,1599,1620,1640,1660,1680,1700,1719,1739,1760,1781,1800,1821,1841,1861,1879,1901,1920,1941,1960,1980,1999,2020,2039],"xSR":741.5,"ySR":501.8,"xT1":424.9,"yT1":0,"xT2":1058.1,"yT2":0,"toosoon":0,"cond_shown":"equaldotsize","ratio_trial":250,"smaller_num":"3","larger_num":"12","correct_side":2,"subjID":"juansebastiánmera24","gender":"0","age":"9","school":"4"},{"start_time":1552309390906,"click_time":1552309392678,"finger_time":1552309392256,"fix_duration":387.74957216258775,"trial":17,"RT":1350,"MT":422,"sideResp":1,"stimulus":"img/900/randomdotsizeEA/L/8_Ratio_900_L_20_R_18.png","xmouse":[784,784,784,783,783,783,783,783,783,783,783,783,783,783,783,783,783,783,783,783,783,783,783,783,783,783,783,783,783,783,783,783,783,783,783,783,783,783,783,783,783,783,783,783,783,783,783,783,783,783,783,783,783,783,783,783,783,783,783,783,783,783,783,783,783,780,765,756,750,747,740,734,729,721,710,673,640,618,608,601,593,587,580,572,566,549,538,528,520],"ymouse":[546,546,546,546,546,546,546,546,546,546,546,546,546,546,546,546,546,546,546,546,546,546,546,546,546,546,546,546,546,546,546,546,546,546,546,546,546,546,546,546,546,546,546,545,545,544,544,544,544,544,544,544,544,544,544,544,543,543,543,543,542,542,541,540,538,526,504,488,475,465,448,436,426,414,400,371,348,333,325,318,304,292,280,266,251,194,160,126,96],"timestamp_mouse":[18,42,51,71,91,111,132,150,172,192,211,232,252,270,290,310,332,350,372,391,412,430,451,470,490,512,532,552,571,591,611,632,650,671,692,711,732,751,771,790,810,831,851,871,891,910,930,952,972,991,1010,1032,1052,1072,1091,1110,1131,1151,1171,1190,1211,1231,1251,1271,1290,1311,1332,1350,1372,1391,1411,1430,1451,1471,1491,1511,1531,1551,1572,1591,1611,1633,1650,1670,1691,1712,1730,1751,1772],"xSR":741.5,"ySR":501.8,"xT1":424.9,"yT1":0,"xT2":1058.1,"yT2":0,"toosoon":0,"cond_shown":"randomdotsizeEA","ratio_trial":900,"smaller_num":"18","larger_num":"20","correct_side":1,"subjID":"juansebastiánmera24","gender":"0","age":"9","school":"4"},{"start_time":1552309394588,"click_time":1552309396576,"finger_time":1552309395198,"fix_duration":250,"trial":18,"RT":610,"MT":1378,"sideResp":1,"stimulus":"img/500/randomdotsizeEA/L/13_Ratio_500_L_12_R_6.png","xmouse":[774,774,774,774,773,773,773,773,773,773,773,773,773,773,772,772,772,772,772,772,772,772,772,772,772,772,772,772,777,779,802,815,910,946,969,988,1004,1005,1005,1005,1005,1005,1005,1001,994,967,896,710,605,502,417,329,321,318,318,318,318,318,318,318,319,335,343,353,367,386,421,421,421,421,421,422,423,423,423,423,423,423,423,423,423,423,424,424,424,424,424,424,424,424,424,424,424,424,424,424,424,424,424,425],"ymouse":[520,520,520,520,520,520,520,520,520,520,520,520,520,520,519,519,518,516,515,515,515,515,515,515,515,515,515,514,511,506,480,464,346,308,281,258,232,230,230,230,230,230,230,230,233,244,254,264,255,235,209,158,132,94,69,51,39,32,31,31,30,25,23,20,19,19,24,24,24,24,24,26,30,32,34,35,35,35,35,35,35,35,36,36,36,36,36,36,36,36,36,36,36,37,38,38,38,38,38,38],"timestamp_mouse":[11,43,49,68,89,110,128,148,168,190,209,229,248,270,289,308,328,348,369,388,409,429,450,469,488,508,528,548,568,590,610,629,649,668,688,710,730,749,769,790,809,829,850,869,889,909,928,949,969,989,1010,1031,1048,1068,1090,1109,1128,1148,1170,1189,1209,1231,1248,1268,1289,1309,1330,1349,1369,1389,1408,1428,1449,1468,1489,1510,1528,1548,1568,1590,1608,1629,1648,1669,1690,1709,1729,1749,1769,1789,1808,1830,1849,1870,1890,1910,1929,1950,1969,1988],"xSR":741.5,"ySR":501.8,"xT1":424.9,"yT1":0,"xT2":1058.1,"yT2":0,"toosoon":0,"cond_shown":"randomdotsizeEA","ratio_trial":500,"smaller_num":"6","larger_num":"12","correct_side":1,"subjID":"juansebastiánmera24","gender":"0","age":"9","school":"4"},{"start_time":1552309398463,"click_time":1552309399796,"finger_time":1552309399158,"fix_duration":764.4948153789519,"trial":19,"RT":695,"MT":638,"sideResp":2,"stimulus":"img/500/equaldotsize/R/6_Ratio_500_L_9_R_18.png","xmouse":[800,800,800,800,800,800,800,800,800,800,800,800,800,800,800,800,800,800,800,800,800,800,800,801,801,802,802,803,804,805,807,809,810,824,837,852,860,868,894,917,977,1098,1250,1446,1458,1448,1420,1399,1369,1361,1357,1351,1338,1275,1225,1205,1188,1179,1175,1175,1175,1174,1172,1169,1164,1159,1155],"ymouse":[555,555,555,555,555,555,555,555,555,555,555,555,555,555,555,555,555,555,555,555,555,555,555,553,550,549,545,543,538,536,532,530,528,510,494,474,465,457,432,415,388,341,289,192,145,109,79,64,53,52,52,52,55,67,90,103,111,116,117,117,117,117,116,109,99,91,85],"timestamp_mouse":[14,41,54,75,94,113,133,155,173,193,214,233,254,275,294,314,334,353,374,395,413,433,455,473,494,514,534,555,574,593,613,633,655,673,695,714,735,754,774,793,813,834,854,874,895,914,934,954,974,993,1013,1033,1054,1074,1094,1114,1134,1153,1173,1194,1214,1233,1255,1274,1295,1314,1333],"xSR":741.5,"ySR":501.8,"xT1":424.9,"yT1":0,"xT2":1058.1,"yT2":0,"toosoon":0,"cond_shown":"equaldotsize","ratio_trial":500,"smaller_num":"9","larger_num":"18","correct_side":2,"subjID":"juansebastiánmera24","gender":"0","age":"9","school":"4"},{"start_time":1552309401728,"click_time":1552309402877,"finger_time":1552309402337,"fix_duration":570.4298178629722,"trial":20,"RT":609,"MT":540,"sideResp":1,"stimulus":"img/500/equaldotsize/L/4_Ratio_500_L_18_R_9.png","xmouse":[791,792,792,792,792,792,792,792,792,792,792,792,792,792,791,791,791,791,791,791,791,791,791,791,791,791,791,791,791,791,790,768,740,707,672,637,583,570,561,554,549,545,545,545,545,545,545,545,545,543,543,540,538,536,535,529,526,524],"ymouse":[553,551,551,550,550,550,550,550,550,550,550,550,549,549,549,549,549,549,549,549,549,549,547,546,546,545,543,540,536,530,494,431,381,330,276,224,133,106,84,68,56,45,44,44,44,44,44,44,44,44,44,47,47,47,48,48,48,48],"timestamp_mouse":[8,45,49,69,88,109,129,148,170,190,208,230,249,269,289,309,330,350,369,388,409,430,449,469,488,509,528,549,569,589,609,628,649,669,688,710,728,749,769,790,809,829,849,869,890,909,929,949,968,988,1008,1028,1049,1069,1088,1110,1128,1149],"xSR":741.5,"ySR":501.8,"xT1":424.9,"yT1":0,"xT2":1058.1,"yT2":0,"toosoon":0,"cond_shown":"equaldotsize","ratio_trial":500,"smaller_num":"9","larger_num":"18","correct_side":1,"subjID":"juansebastiánmera24","gender":"0","age":"9","school":"4"},{"start_time":1552309405304,"click_time":1552309406238,"finger_time":1552309405537,"fix_duration":1085.7393181210157,"trial":21,"RT":233,"MT":701,"sideResp":2,"stimulus":"img/500/equaldotanddens/R/1_Ratio_500_L_9_R_18.png","xmouse":[798,798,805,806,807,807,807,803,792,771,766,751,746,746,746,746,746,743,743,742,742,742,742,742,742,742,742,742,742,742,755,769,822,861,896,929,960,1010,1026,1040,1055,1062,1078,1091,1108,1121,1132],"ymouse":[516,511,504,504,503,503,503,519,537,577,588,613,622,622,622,622,622,621,620,620,620,620,620,620,620,620,619,617,610,606,585,567,506,469,438,409,378,326,308,294,269,256,222,192,147,110,86],"timestamp_mouse":[13,33,54,72,93,114,133,152,172,192,213,233,253,272,293,313,332,353,373,393,414,433,453,472,494,512,533,553,573,592,612,632,652,672,693,713,734,753,773,793,813,833,852,873,893,912,934],"xSR":741.5,"ySR":501.8,"xT1":424.9,"yT1":0,"xT2":1058.1,"yT2":0,"toosoon":0,"cond_shown":"equaldotanddens","ratio_trial":500,"smaller_num":"9","larger_num":"18","correct_side":2,"subjID":"juansebastiánmera24","gender":"0","age":"9","school":"4"},{"start_time":1552309408556,"click_time":1552309410177,"finger_time":1552309409277,"fix_duration":1357.9827992951302,"trial":22,"RT":721,"MT":900,"sideResp":2,"stimulus":"img/250/randomdotsizeEA/R/6_Ratio_250_L_6_R_24.png","xmouse":[815,815,815,815,815,815,815,815,815,815,815,815,815,815,815,815,815,815,815,815,815,815,815,815,815,815,815,815,815,815,815,815,815,815,815,815,807,800,789,771,717,684,656,625,600,565,553,551,551,551,551,551,551,551,552,561,580,598,622,651,731,799,873,926,960,986,987,990,992,996,1003,1026,1038,1047,1051,1054,1061,1069,1078,1087,1108,1118],"ymouse":[536,536,536,536,536,536,536,536,536,536,536,536,536,536,536,536,536,536,537,537,537,537,537,537,537,537,537,537,537,537,537,537,537,535,533,525,475,449,419,378,296,257,224,191,169,140,129,126,125,125,125,125,125,125,127,142,163,177,195,211,259,282,294,297,297,290,284,276,269,260,245,211,193,180,175,171,162,154,144,136,107,93],"timestamp_mouse":[13,36,41,61,81,101,120,140,160,182,202,222,242,261,280,302,321,340,362,382,401,420,441,462,481,502,520,541,560,582,601,621,641,660,682,701,721,741,760,781,802,820,842,860,880,902,921,941,960,980,1001,1022,1041,1062,1082,1101,1120,1141,1161,1180,1201,1221,1242,1260,1281,1302,1321,1340,1360,1381,1401,1420,1441,1461,1481,1501,1521,1541,1560,1580,1602,1620],"xSR":741.5,"ySR":501.8,"xT1":424.9,"yT1":0,"xT2":1058.1,"yT2":0,"toosoon":0,"cond_shown":"randomdotsizeEA","ratio_trial":250,"smaller_num":"6","larger_num":"24","correct_side":2,"subjID":"juansebastiánmera24","gender":"0","age":"9","school":"4"},{"start_time":1552309412563,"click_time":1552309413516,"finger_time":1552309413158,"fix_duration":1324.4161134549101,"trial":23,"RT":595,"MT":358,"sideResp":1,"stimulus":"img/250/equaldotanddens/L/5_Ratio_250_L_24_R_6.png","xmouse":[798,798,798,798,798,798,798,798,798,798,798,798,798,798,798,798,798,798,798,798,798,798,798,797,796,791,781,768,751,713,697,684,670,662,654,637,629,619,609,584,574,563,557,547,534,509,495,489],"ymouse":[543,543,542,542,542,540,540,540,540,540,540,540,540,540,540,540,540,540,540,540,540,540,540,538,537,532,525,517,507,486,478,468,447,427,399,342,317,293,272,243,234,225,218,206,188,134,103,88],"timestamp_mouse":[14,42,53,75,94,115,135,154,174,195,215,234,253,273,295,313,334,354,375,395,414,434,455,473,493,514,533,555,574,595,613,634,653,674,693,713,733,753,774,796,813,834,854,874,893,914,934,953],"xSR":741.5,"ySR":501.8,"xT1":424.9,"yT1":0,"xT2":1058.1,"yT2":0,"toosoon":0,"cond_shown":"equaldotanddens","ratio_trial":250,"smaller_num":"6","larger_num":"24","correct_side":1,"subjID":"juansebastiánmera24","gender":"0","age":"9","school":"4"},{"start_time":1552309415772,"click_time":1552309416958,"finger_time":1552309416496,"fix_duration":1032.3941786617968,"trial":24,"RT":724,"MT":462,"sideResp":1,"stimulus":"img/250/equaldotanddens/L/2_Ratio_250_L_16_R_4.png","xmouse":[791,791,791,791,791,791,791,791,791,791,791,791,791,791,791,791,791,791,791,791,791,791,791,790,790,790,790,790,790,790,789,789,788,788,787,779,770,757,735,697,591,542,528,523,522,521,521,520,520,519,519,519,519,519,519,519,518,518,517,517],"ymouse":[545,545,545,545,545,545,545,545,545,545,545,545,545,545,545,545,545,545,545,545,545,545,545,543,543,541,541,541,540,539,538,536,534,530,525,508,492,473,448,405,269,203,175,161,154,147,137,134,125,118,112,111,111,109,107,104,103,102,101,99],"timestamp_mouse":[9,39,44,64,85,106,125,146,166,185,205,224,245,265,285,306,325,344,366,384,406,425,445,464,484,505,526,546,564,585,604,626,644,665,684,705,724,744,765,784,805,825,844,864,884,905,930,945,965,984,1005,1024,1045,1065,1084,1104,1125,1144,1165,1185],"xSR":741.5,"ySR":501.8,"xT1":424.9,"yT1":0,"xT2":1058.1,"yT2":0,"toosoon":0,"cond_shown":"equaldotanddens","ratio_trial":250,"smaller_num":"4","larger_num":"16","correct_side":1,"subjID":"juansebastiánmera24","gender":"0","age":"9","school":"4"},{"start_time":1552309418452,"click_time":1552309419578,"finger_time":1552309419416,"fix_duration":573.623693458905,"trial":25,"RT":964,"MT":162,"sideResp":1,"stimulus":"img/900/equaldotanddens/L/2_Ratio_900_L_20_R_18.png","xmouse":[798,798,796,796,789,787,786,785,785,785,785,785,785,785,785,785,785,785,785,785,785,785,785,785,785,785,785,785,785,785,785,785,785,785,785,785,785,785,785,785,785,785,785,785,785,784,780,774,763,749,733,713,642,605,575,551,522],"ymouse":[542,542,541,541,541,540,540,540,540,538,538,538,538,538,538,538,538,538,538,538,538,538,538,538,538,538,538,538,538,538,538,538,538,538,538,538,538,538,538,538,536,534,532,530,529,528,520,511,499,483,459,429,290,223,173,130,64],"timestamp_mouse":[10,25,58,64,85,104,125,144,165,185,206,226,244,265,286,305,325,345,364,386,405,425,445,465,484,504,526,544,564,585,605,624,644,665,685,705,724,744,765,784,804,825,844,865,885,905,925,944,964,986,1005,1026,1044,1065,1085,1106,1125],"xSR":741.5,"ySR":501.8,"xT1":424.9,"yT1":0,"xT2":1058.1,"yT2":0,"toosoon":0,"cond_shown":"equaldotanddens","ratio_trial":900,"smaller_num":"18","larger_num":"20","correct_side":1,"subjID":"juansebastiánmera24","gender":"0","age":"9","school":"4"},{"start_time":1552309421004,"click_time":1552309422279,"finger_time":1552309421917,"fix_duration":266.91466315119783,"trial":26,"RT":913,"MT":362,"sideResp":1,"stimulus":"img/900/equaldotsize/R/11_Ratio_900_L_18_R_20.png","xmouse":[749,749,749,749,749,749,749,749,749,749,749,749,749,749,749,749,749,749,749,749,749,749,749,749,749,749,749,749,749,749,749,749,749,749,749,749,749,749,749,749,749,749,749,749,749,748,740,735,694,670,647,632,622,619,616,615,611,602,594,579,572,562,555,524],"ymouse":[508,508,508,508,508,508,508,508,508,508,508,508,508,508,508,508,508,508,508,508,508,508,508,508,508,508,508,508,508,508,508,508,508,508,508,508,508,508,508,508,508,506,505,504,502,500,487,480,394,343,305,288,275,271,267,265,261,248,238,216,203,177,154,32],"timestamp_mouse":[13,42,54,72,92,112,132,153,173,194,214,232,254,274,292,313,334,354,374,393,414,432,454,474,493,513,533,553,573,593,614,633,652,672,692,713,734,753,774,793,812,833,854,873,893,913,932,953,974,992,1014,1034,1053,1073,1093,1113,1132,1153,1172,1192,1212,1232,1252,1274],"xSR":741.5,"ySR":501.8,"xT1":424.9,"yT1":0,"xT2":1058.1,"yT2":0,"toosoon":0,"cond_shown":"equaldotsize","ratio_trial":900,"smaller_num":"18","larger_num":"20","correct_side":2,"subjID":"juansebastiánmera24","gender":"0","age":"9","school":"4"},{"start_time":1552309425043,"click_time":1552309426817,"finger_time":1552309426036,"fix_duration":1265.1934517962634,"trial":27,"RT":993,"MT":781,"sideResp":2,"stimulus":"img/750/equaldotsize/R/7_Ratio_750_L_3_R_4.png","xmouse":[796,792,790,789,789,789,789,789,789,789,789,789,789,788,787,787,787,787,786,785,784,784,784,784,783,783,783,783,783,783,783,783,783,783,783,783,783,783,783,783,783,783,783,783,783,783,783,785,792,801,813,827,849,862,868,875,884,910,924,937,946,952,958,961,964,969,976,1036,1052,1058,1058,1058,1058,1058,1058,1058,1058,1059,1059,1059,1059,1059,1059,1059,1059,1058,1058,1052,1068],"ymouse":[563,557,553,551,550,550,550,550,550,550,550,550,550,550,550,550,550,550,549,544,543,542,542,542,541,541,541,541,541,541,541,541,541,541,541,541,541,541,541,541,541,541,541,541,541,541,541,534,512,487,451,411,366,346,337,326,312,276,256,237,225,217,208,205,202,195,186,135,123,120,120,120,120,120,120,120,120,119,119,119,119,118,118,117,115,113,106,88,30],"timestamp_mouse":[18,43,54,74,93,115,133,154,175,195,214,235,253,274,295,315,333,353,373,395,413,434,453,475,493,515,533,553,574,595,614,634,655,673,694,713,735,753,774,793,815,835,854,875,893,913,933,953,973,993,1015,1034,1054,1073,1094,1115,1133,1155,1173,1194,1214,1233,1254,1275,1294,1314,1333,1354,1373,1394,1415,1435,1454,1474,1494,1515,1535,1555,1574,1594,1613,1634,1654,1675,1694,1715,1733,1754,1774],"xSR":741.5,"ySR":501.8,"xT1":424.9,"yT1":0,"xT2":1058.1,"yT2":0,"toosoon":0,"cond_shown":"equaldotsize","ratio_trial":750,"smaller_num":"3","larger_num":"4","correct_side":2,"subjID":"juansebastiánmera24","gender":"0","age":"9","school":"4"},{"start_time":1552309430215,"click_time":1552309431456,"finger_time":1552309431016,"fix_duration":397.94446076803837,"trial":28,"RT":801,"MT":440,"sideResp":2,"stimulus":"img/250/equaldotanddens/R/10_Ratio_250_L_4_R_16.png","xmouse":[797,797,797,797,797,797,797,797,797,797,797,797,797,797,797,797,797,797,797,797,797,797,797,797,797,797,797,797,797,797,797,796,796,796,796,796,796,796,796,804,839,883,894,915,918,932,944,958,967,971,974,977,979,980,982,987,989,991,994,1013,1066,1095,1121],"ymouse":[551,551,551,551,551,551,551,551,551,551,551,551,551,551,551,551,551,551,551,551,551,551,551,551,551,551,551,551,551,551,551,551,550,548,546,541,540,537,532,521,481,427,411,371,351,281,233,193,174,166,158,154,150,149,147,142,140,138,135,128,113,101,87],"timestamp_mouse":[9,23,41,62,81,102,122,141,163,183,203,222,242,262,282,302,322,341,363,382,403,422,441,461,481,503,523,542,562,582,601,623,643,662,682,702,721,743,762,781,801,823,842,863,882,902,922,942,962,982,1002,1023,1041,1062,1081,1101,1121,1142,1162,1182,1201,1222,1241],"xSR":741.5,"ySR":501.8,"xT1":424.9,"yT1":0,"xT2":1058.1,"yT2":0,"toosoon":0,"cond_shown":"equaldotanddens","ratio_trial":250,"smaller_num":"4","larger_num":"16","correct_side":2,"subjID":"juansebastiánmera24","gender":"0","age":"9","school":"4"},{"start_time":1552309434325,"click_time":1552309436437,"finger_time":1552309434437,"fix_duration":647.1439444944664,"trial":29,"RT":112,"MT":2000,"sideResp":2,"stimulus":"img/500/equaldotanddens/L/11_Ratio_500_L_12_R_6.png","xmouse":[748,748,748,748,747,746,746,745,744,744,743,742,742,742,741,741,741,741,741,741,741,741,741,741,741,741,741,741,741,741,741,741,741,741,741,741,741,741,741,741,741,741,741,742,745,748,750,753,755,758,760,763,765,768,772,773,773,773,773,773,773,773,773,773,773,773,773,773,773,773,773,773,773,773,773,773,778,793,822,936,991,1020,1038,1043,1040,1029,1025,1022,1022,1021,1018,1017,1017,1017,1017,1021,1026,1034,1042,1057,1062,1065,1067,1070,1071,1064],"ymouse":[510,510,510,510,504,498,495,491,488,483,481,477,474,471,466,465,465,465,465,465,465,465,465,465,465,465,465,465,465,465,465,465,465,465,465,465,465,465,465,465,466,468,469,472,476,482,487,492,496,503,507,514,519,524,533,534,534,534,534,534,534,534,534,534,534,534,534,534,534,534,534,534,534,534,534,535,533,527,516,464,425,394,365,346,306,278,265,257,252,245,223,217,214,213,211,202,196,191,187,181,178,175,170,150,103,78],"timestamp_mouse":[11,32,51,72,91,112,131,151,171,192,211,232,252,272,293,312,332,351,372,392,413,432,452,473,493,512,531,552,571,592,612,633,652,673,692,712,731,752,772,792,811,833,852,873,893,912,932,952,972,992,1012,1032,1051,1071,1091,1112,1133,1152,1172,1192,1213,1232,1253,1273,1292,1312,1333,1352,1373,1392,1412,1432,1453,1473,1492,1513,1531,1552,1571,1592,1611,1632,1651,1672,1693,1712,1732,1752,1772,1792,1811,1831,1851,1872,1891,1912,1931,1951,1971,1992,2012,2032,2052,2072,2093,2112],"xSR":741.5,"ySR":501.8,"xT1":424.9,"yT1":0,"xT2":1058.1,"yT2":0,"toosoon":0,"cond_shown":"equaldotanddens","ratio_trial":500,"smaller_num":"6","larger_num":"12","correct_side":1,"subjID":"juansebastiánmera24","gender":"0","age":"9","school":"4"},{"start_time":1552309440549,"click_time":1552309442337,"finger_time":1552309441238,"fix_duration":250,"trial":30,"RT":689,"MT":1099,"sideResp":1,"stimulus":"img/250/equaldotsize/L/2_Ratio_250_L_16_R_4.png","xmouse":[817,817,817,817,817,817,817,817,817,817,817,817,817,817,817,817,815,815,815,815,815,815,815,815,815,815,815,815,815,815,815,815,806,773,658,622,602,593,590,590,590,590,590,590,590,590,590,590,588,579,567,560,548,538,533,533,534,534,534,534,534,534,534,534,534,534,534,534,534,534,534,535,536,537,539,539,539,539,539,537,535,534,534,533,533,533,533,531,530,523],"ymouse":[559,559,559,559,559,559,559,559,559,559,559,559,559,559,559,559,559,559,559,559,559,559,559,559,559,559,559,559,559,559,559,559,552,522,429,388,349,327,310,257,232,222,216,214,211,210,209,206,196,164,139,121,101,82,73,72,71,71,71,71,71,71,71,71,71,71,71,71,71,71,71,70,69,65,56,55,55,55,55,54,54,54,54,55,55,55,55,55,55,56],"timestamp_mouse":[10,38,48,68,88,107,127,147,169,189,207,229,249,269,288,308,328,347,367,387,408,427,448,469,489,507,529,547,568,587,609,627,648,668,689,708,729,748,768,787,807,828,848,868,887,908,927,948,969,987,1007,1028,1048,1069,1089,1109,1128,1149,1169,1189,1209,1228,1247,1267,1287,1308,1328,1349,1369,1389,1409,1427,1447,1468,1487,1508,1528,1548,1568,1588,1609,1629,1648,1668,1687,1708,1729,1749,1768,1788],"xSR":741.5,"ySR":501.8,"xT1":424.9,"yT1":0,"xT2":1058.1,"yT2":0,"toosoon":0,"cond_shown":"equaldotsize","ratio_trial":250,"smaller_num":"4","larger_num":"16","correct_side":1,"subjID":"juansebastiánmera24","gender":"0","age":"9","school":"4"},{"start_time":1552309446369,"click_time":1552309447876,"finger_time":1552309447097,"fix_duration":250,"trial":31,"RT":728,"MT":779,"sideResp":1,"stimulus":"img/900/randomdotsizeEA/L/1_Ratio_900_L_10_R_9.png","xmouse":[786,786,786,786,786,786,786,786,786,786,786,786,786,786,786,786,786,786,786,786,786,786,786,786,786,786,786,786,786,786,786,785,782,776,771,758,738,705,627,608,594,579,570,563,556,554,554,554,554,554,554,554,554,554,554,554,554,554,554,550,542,528,517,510,494,494,494,494,494,494,494,494,494,494,494,494],"ymouse":[545,545,545,545,545,545,545,545,545,545,545,545,545,545,545,545,545,545,545,545,545,545,545,545,545,545,545,545,545,545,545,545,543,534,526,508,476,434,349,327,307,288,272,257,237,228,221,212,202,190,187,184,183,183,183,183,183,183,183,171,159,148,142,139,113,111,108,108,108,108,108,108,108,105,101,96],"timestamp_mouse":[10,27,47,79,88,109,129,148,168,189,209,228,248,269,289,308,329,348,367,389,409,429,448,469,488,508,527,548,568,589,608,628,647,668,687,708,728,747,770,787,808,827,847,869,887,907,927,948,968,988,1008,1028,1048,1067,1087,1108,1129,1148,1167,1189,1208,1228,1248,1269,1288,1307,1327,1347,1368,1387,1409,1428,1448,1470,1488,1507],"xSR":741.5,"ySR":501.8,"xT1":424.9,"yT1":0,"xT2":1058.1,"yT2":0,"toosoon":0,"cond_shown":"randomdotsizeEA","ratio_trial":900,"smaller_num":"9","larger_num":"10","correct_side":1,"subjID":"juansebastiánmera24","gender":"0","age":"9","school":"4"},{"start_time":1552309450617,"click_time":1552309455317,"finger_time":1552309450857,"fix_duration":659.4814391186844,"trial":32,"RT":240,"MT":4460,"sideResp":1,"stimulus":"img/750/randomdotsizeEA/R/15_Ratio_750_L_9_R_12.png","xmouse":[773,773,773,773,773,773,773,773,773,773,773,773,773,773,773,773,773,773,773,773,773,773,773,773,773,773,773,773,773,773,773,773,773,774,775,776,776,776,776,776,776,776,776,776,776,776,776,776,776,776,776,776,776,776,776,776,776,776,776,775,771,764,749,711,690,682,680,676,675,674,674,673,672,671,671,671,671,671,667,665,664,663,663,662,660,660,658,655,654,651,649,648,648,648,648,647,646,646,646,646,646,646,646,646,646,646,646,646,646,646,646,646,646,646,646,646,646,646,646,646,646,646,646,646,646,646,646,646,646,646,646,646,646,646,646,646,646,646,646,646,646,646,646,646,646,646,646,646,646,646,646,646,646,646,646,646,646,646,646,646,646,646,646,646,646,646,646,646,646,646,646,646,646,646,646,646,646,646,646,646,646,646,646,646,646,646,646,646,646,646,646,646,646,646,646,646,646,646,646,646,646,646,646,646,646,646,646,646,646,646,646,646,646,646,646,646,646,646,646,646,646,646,646,643,638,629,614,579,572,570,570,568,562,555,539,516],"ymouse":[510,510,510,510,510,510,510,510,510,510,508,505,500,500,500,500,500,500,500,500,500,500,500,500,500,500,500,500,500,500,500,500,500,495,490,487,487,486,486,486,486,486,486,486,486,486,486,486,486,486,486,486,486,485,482,480,476,472,469,463,452,429,395,300,245,228,220,206,201,197,193,191,179,177,177,177,177,177,172,169,167,166,165,161,160,159,155,148,147,142,139,138,138,137,137,136,135,135,135,135,135,135,135,135,135,135,135,135,135,135,135,135,135,135,135,135,134,134,134,134,134,134,134,134,134,134,134,134,134,134,134,134,134,134,134,134,134,134,134,134,134,134,134,134,134,134,134,134,134,134,134,134,134,134,134,134,134,134,134,134,134,134,134,134,134,134,134,134,134,134,134,134,134,134,134,134,134,134,134,134,134,134,134,134,134,134,134,134,134,134,134,134,134,134,134,134,134,134,134,134,134,134,134,134,134,134,134,134,134,134,134,134,134,134,134,134,134,134,134,134,134,134,131,122,116,111,107,106,106,106,106,105,101,98,92,86],"timestamp_mouse":[1,19,40,61,80,100,119,141,161,180,199,220,240,261,281,301,320,340,360,380,399,420,440,461,481,500,521,540,560,581,600,621,639,660,680,700,720,740,760,781,800,820,839,859,881,900,921,940,960,980,1001,1019,1040,1060,1080,1099,1120,1140,1159,1180,1200,1220,1240,1260,1280,1300,1320,1340,1359,1379,1401,1420,1440,1461,1480,1500,1519,1540,1560,1581,1601,1621,1640,1659,1680,1700,1719,1740,1759,1780,1801,1820,1839,1860,1880,1899,1920,1941,1961,1981,2000,2020,2040,2060,2080,2100,2119,2140,2159,2180,2200,2220,2240,2260,2281,2300,2319,2340,2361,2381,2401,2420,2440,2460,2479,2499,2520,2540,2560,2580,2600,2620,2640,2660,2680,2700,2721,2740,2760,2780,2801,2821,2840,2861,2881,2900,2920,2940,2961,2980,3000,3020,3040,3060,3080,3100,3120,3140,3161,3180,3201,3220,3240,3260,3281,3300,3321,3340,3360,3380,3399,3419,3440,3461,3481,3501,3520,3540,3560,3580,3600,3620,3640,3661,3681,3700,3721,3741,3760,3779,3800,3819,3841,3860,3880,3900,3919,3939,3960,3981,4001,4020,4040,4060,4079,4100,4121,4140,4161,4180,4201,4221,4240,4260,4281,4300,4320,4341,4360,4380,4401,4420,4441,4460,4480,4501,4520,4541,4560,4579,4599,4620,4641,4659,4679,4700],"xSR":741.5,"ySR":501.8,"xT1":424.9,"yT1":0,"xT2":1058.1,"yT2":0,"toosoon":0,"cond_shown":"randomdotsizeEA","ratio_trial":750,"smaller_num":"9","larger_num":"12","correct_side":2,"subjID":"juansebastiánmera24","gender":"0","age":"9","school":"4"},{"start_time":1552309461301,"click_time":1552309462416,"finger_time":1552309461917,"fix_duration":902.464971706989,"trial":33,"RT":616,"MT":499,"sideResp":1,"stimulus":"img/900/equaldotanddens/L/8_Ratio_900_L_20_R_18.png","xmouse":[808,808,808,808,808,808,808,808,808,808,808,808,808,808,808,808,808,808,808,808,808,808,808,808,808,808,808,808,805,802,785,755,723,662,662,662,662,662,662,662,662,662,662,662,662,662,662,405,412,441,455,459,459,461,464,463],"ymouse":[531,531,531,531,531,531,531,531,531,531,531,531,531,531,531,531,531,531,531,531,531,531,531,531,531,531,531,531,530,505,412,304,199,37,37,37,37,37,37,37,37,37,37,37,37,37,37,18,68,138,160,166,166,166,120,99],"timestamp_mouse":[16,43,57,76,97,116,136,155,177,196,216,235,256,276,297,316,337,355,377,395,416,435,457,475,496,516,536,555,575,595,616,636,656,676,695,715,735,755,776,796,816,835,856,876,897,916,937,957,976,996,1016,1035,1056,1075,1096,1115],"xSR":741.5,"ySR":501.8,"xT1":424.9,"yT1":0,"xT2":1058.1,"yT2":0,"toosoon":0,"cond_shown":"equaldotanddens","ratio_trial":900,"smaller_num":"18","larger_num":"20","correct_side":1,"subjID":"juansebastiánmera24","gender":"0","age":"9","school":"4"},{"start_time":1552309464281,"click_time":1552309465637,"finger_time":1552309465097,"fix_duration":882.5134712309981,"trial":34,"RT":816,"MT":540,"sideResp":2,"stimulus":"img/900/equaldotsize/R/14_Ratio_900_L_18_R_20.png","xmouse":[792,792,792,792,792,792,792,792,792,792,792,792,792,792,792,792,792,792,792,792,792,792,792,792,792,792,792,792,792,792,792,792,792,792,794,820,820,807,793,750,714,715,729,805,871,939,948,957,978,1052,1079,1097,1110,1111,1115,1121,1124,1126,1127,1127,1127,1127,1127,1127,1127,1127,1127,1129],"ymouse":[581,581,581,581,581,581,581,581,581,581,581,581,581,581,581,581,581,581,581,581,581,581,581,581,581,581,581,581,581,581,581,581,581,581,581,566,566,559,553,534,515,514,508,492,490,481,460,407,334,227,204,193,188,186,182,168,159,151,146,144,143,143,143,143,132,121,107,93],"timestamp_mouse":[16,40,57,76,97,117,135,157,177,197,215,237,257,277,296,315,336,356,376,397,415,436,455,477,495,517,537,556,576,597,616,637,656,676,696,716,736,757,776,796,816,836,856,877,896,917,936,956,976,998,1015,1036,1055,1075,1096,1116,1136,1156,1175,1197,1215,1235,1257,1277,1297,1315,1336,1356],"xSR":741.5,"ySR":501.8,"xT1":424.9,"yT1":0,"xT2":1058.1,"yT2":0,"toosoon":0,"cond_shown":"equaldotsize","ratio_trial":900,"smaller_num":"18","larger_num":"20","correct_side":2,"subjID":"juansebastiánmera24","gender":"0","age":"9","school":"4"},{"start_time":1552309469559,"click_time":1552309471017,"finger_time":1552309470577,"fix_duration":1260.198039875272,"trial":35,"RT":1018,"MT":440,"sideResp":1,"stimulus":"img/250/randomdotsizeEA/L/2_Ratio_250_L_16_R_4.png","xmouse":[815,815,815,815,815,815,815,815,815,815,815,815,815,815,815,815,815,815,815,815,815,815,815,815,815,815,815,815,815,815,815,815,815,815,815,815,815,815,815,815,815,815,815,815,815,815,813,797,785,788,791,755,718,683,666,660,651,646,644,639,634,618,613,610,608,601,570,531,506,488,471,457,445],"ymouse":[575,575,575,575,575,575,575,575,575,575,575,575,575,575,575,575,575,575,575,575,575,575,575,575,575,575,575,575,575,575,575,575,575,575,575,575,575,575,575,575,575,575,575,575,575,575,575,565,550,516,477,414,384,360,349,344,327,316,306,295,286,263,258,254,252,246,221,187,165,146,132,118,96],"timestamp_mouse":[18,40,58,78,98,119,139,157,178,198,219,238,259,278,299,319,337,359,379,398,417,438,459,478,498,518,537,558,577,599,619,638,659,679,699,718,738,758,778,797,819,838,858,878,897,917,937,959,981,998,1018,1038,1057,1078,1099,1118,1139,1159,1178,1199,1218,1238,1257,1279,1298,1318,1339,1357,1377,1399,1418,1438,1458],"xSR":741.5,"ySR":501.8,"xT1":424.9,"yT1":0,"xT2":1058.1,"yT2":0,"toosoon":0,"cond_shown":"randomdotsizeEA","ratio_trial":250,"smaller_num":"4","larger_num":"16","correct_side":1,"subjID":"juansebastiánmera24","gender":"0","age":"9","school":"4"},{"start_time":1552309474645,"click_time":1552309475937,"finger_time":1552309475358,"fix_duration":1405.487406408269,"trial":36,"RT":713,"MT":579,"sideResp":2,"stimulus":"img/900/equaldotanddens/L/2_Ratio_900_L_20_R_18.png","xmouse":[760,760,760,758,758,758,758,758,758,758,758,758,758,758,758,758,758,758,758,758,758,758,758,758,758,758,758,758,758,758,758,758,758,755,749,736,725,718,717,717,717,717,717,732,762,806,858,926,1090,1172,1229,1229,1229,1229,1229,1229,1229,1229,1229,1229,1229,1216,1207,1171,1158],"ymouse":[549,550,551,551,551,551,551,551,551,551,551,551,551,551,551,551,551,551,551,551,551,551,551,551,551,551,551,551,551,551,551,551,551,546,529,510,496,487,487,487,487,487,487,483,473,454,417,354,188,94,9,9,9,9,9,9,9,9,9,9,9,0,8,42,54],"timestamp_mouse":[14,33,52,72,93,113,131,153,172,192,212,233,252,272,293,312,332,353,371,391,413,431,452,473,492,512,531,553,573,593,613,632,653,673,691,713,732,751,772,791,812,833,851,872,892,912,932,952,971,992,1013,1032,1052,1073,1092,1111,1131,1153,1173,1191,1211,1231,1253,1271,1291],"xSR":741.5,"ySR":501.8,"xT1":424.9,"yT1":0,"xT2":1058.1,"yT2":0,"toosoon":0,"cond_shown":"equaldotanddens","ratio_trial":900,"smaller_num":"18","larger_num":"20","correct_side":1,"subjID":"juansebastiánmera24","gender":"0","age":"9","school":"4"},{"start_time":1552309477158,"click_time":1552309478518,"finger_time":1552309477438,"fix_duration":500.8275083087004,"trial":37,"RT":280,"MT":1080,"sideResp":2,"stimulus":"img/750/randomdotsizeEA/L/8_Ratio_750_L_4_R_3.png","xmouse":[773,773,773,773,773,773,773,773,773,773,773,773,773,773,773,773,773,773,773,773,773,776,782,783,784,784,784,784,784,784,784,784,784,784,784,784,784,788,793,799,811,826,842,870,881,883,884,906,975,1102,1256,1381,1448,1460,1450,1440,1427,1398,1383,1372,1364,1357,1349,1321,1287,1255,1196,1066],"ymouse":[576,576,576,576,576,576,576,581,585,589,592,596,601,602,603,603,603,603,603,603,602,597,586,584,584,584,584,584,584,584,584,584,584,584,584,584,583,582,580,576,565,547,525,473,449,444,443,431,402,350,272,204,163,137,120,117,114,108,106,106,105,105,105,105,105,98,75,4],"timestamp_mouse":[18,40,60,79,100,118,138,159,178,199,219,240,258,280,299,319,339,360,379,400,419,439,458,478,499,520,540,560,580,600,619,639,659,678,698,720,738,759,778,799,819,839,859,880,899,920,938,960,978,999,1018,1040,1059,1080,1098,1120,1139,1159,1178,1199,1219,1239,1259,1279,1298,1319,1340,1360],"xSR":741.5,"ySR":501.8,"xT1":424.9,"yT1":0,"xT2":1058.1,"yT2":0,"toosoon":0,"cond_shown":"randomdotsizeEA","ratio_trial":750,"smaller_num":"3","larger_num":"4","correct_side":1,"subjID":"juansebastiánmera24","gender":"0","age":"9","school":"4"},{"start_time":1552309480444,"click_time":1552309481657,"finger_time":1552309481117,"fix_duration":925.0159539327499,"trial":38,"RT":673,"MT":540,"sideResp":2,"stimulus":"img/900/randomdotsizeEA/L/10_Ratio_900_L_20_R_18.png","xmouse":[802,802,802,802,802,802,802,802,802,802,802,802,802,802,802,802,802,802,802,802,802,802,802,802,802,802,802,802,804,805,805,807,808,810,810,803,796,788,774,773,773,773,775,779,804,823,853,893,996,1029,1043,1056,1062,1067,1070,1072,1073,1076,1088,1091,1092],"ymouse":[532,532,532,532,532,532,532,532,532,532,532,532,532,532,531,531,530,530,530,530,529,529,528,528,527,526,524,523,520,519,518,515,511,495,479,456,435,417,392,390,387,382,375,362,316,298,277,252,209,187,179,170,165,161,160,158,156,152,127,112,99],"timestamp_mouse":[14,46,53,73,94,114,134,153,173,193,214,233,254,273,293,313,334,353,373,392,414,433,453,473,492,513,532,553,573,594,612,633,653,673,693,713,733,754,774,793,812,833,853,873,892,913,933,953,974,992,1014,1032,1052,1074,1093,1113,1132,1153,1174,1193,1213],"xSR":741.5,"ySR":501.8,"xT1":424.9,"yT1":0,"xT2":1058.1,"yT2":0,"toosoon":0,"cond_shown":"randomdotsizeEA","ratio_trial":900,"smaller_num":"18","larger_num":"20","correct_side":1,"subjID":"juansebastiánmera24","gender":"0","age":"9","school":"4"},{"start_time":1552309482891,"click_time":1552309484137,"finger_time":1552309483656,"fix_duration":250,"trial":39,"RT":765,"MT":481,"sideResp":1,"stimulus":"img/250/randomdotsizeEA/L/15_Ratio_250_L_12_R_3.png","xmouse":[749,749,749,749,751,751,751,751,751,751,751,751,751,751,751,751,751,751,751,751,751,751,751,751,751,751,751,751,751,751,751,751,751,751,751,751,751,748,743,732,719,699,672,664,662,665,672,679,679,679,679,677,663,652,633,619,605,580,570,564,556,545,519],"ymouse":[548,548,548,545,540,539,539,539,539,539,539,539,539,539,539,539,539,539,539,539,539,539,539,539,539,539,539,539,539,539,539,539,539,539,539,539,537,517,480,409,337,267,177,137,108,69,51,39,38,38,38,38,46,53,62,68,72,78,80,80,79,70,51],"timestamp_mouse":[10,44,46,65,85,106,125,146,167,185,205,226,247,266,285,305,325,345,365,386,405,425,445,467,485,507,525,546,567,587,607,626,646,665,687,707,726,745,765,786,806,825,845,867,886,905,926,945,966,986,1006,1026,1045,1065,1085,1106,1127,1146,1166,1186,1206,1226,1246],"xSR":741.5,"ySR":501.8,"xT1":424.9,"yT1":0,"xT2":1058.1,"yT2":0,"toosoon":0,"cond_shown":"randomdotsizeEA","ratio_trial":250,"smaller_num":"3","larger_num":"12","correct_side":1,"subjID":"juansebastiánmera24","gender":"0","age":"9","school":"4"},{"start_time":1552309486323,"click_time":1552309487257,"finger_time":1552309487117,"fix_duration":1324.6213394493604,"trial":40,"RT":794,"MT":140,"sideResp":2,"stimulus":"img/500/randomdotsizeEA/R/14_Ratio_500_L_5_R_10.png","xmouse":[783,783,783,783,783,783,783,783,783,783,783,783,784,786,786,786,786,786,786,786,786,786,786,786,786,786,786,786,786,786,786,786,787,791,793,799,804,810,820,830,854,886,915,943,972,1040,1078],"ymouse":[545,545,545,545,545,545,545,545,545,545,545,545,545,545,545,545,545,545,545,545,545,545,545,545,545,545,545,545,545,545,545,545,545,544,542,536,529,518,506,490,453,415,373,326,275,153,84],"timestamp_mouse":[14,38,54,74,95,115,134,155,174,194,213,234,253,274,294,314,335,354,374,393,414,433,455,473,494,513,535,554,573,593,614,635,653,674,694,713,733,754,773,794,814,833,853,873,894,914,933],"xSR":741.5,"ySR":501.8,"xT1":424.9,"yT1":0,"xT2":1058.1,"yT2":0,"toosoon":0,"cond_shown":"randomdotsizeEA","ratio_trial":500,"smaller_num":"5","larger_num":"10","correct_side":2,"subjID":"juansebastiánmera24","gender":"0","age":"9","school":"4"},{"start_time":1552309492632,"click_time":1552309494096,"finger_time":1552309493437,"fix_duration":1153.6985920254263,"trial":41,"RT":805,"MT":659,"sideResp":1,"stimulus":"img/750/equaldotanddens/L/13_Ratio_750_L_8_R_6.png","xmouse":[776,776,776,776,776,776,778,778,778,778,778,778,778,778,778,778,778,778,778,778,778,778,778,778,778,778,778,778,778,778,778,778,778,778,778,778,778,780,780,780,777,734,660,624,526,467,393,372,372,372,372,372,372,372,372,372,372,372,372,372,372,372,372,372,343,343,355,369,385,399,408,410,422,444],"ymouse":[565,565,565,565,565,562,559,559,558,558,558,557,555,554,553,553,553,553,553,553,553,553,553,553,553,553,553,553,553,553,553,553,553,553,553,553,551,545,536,508,473,403,331,305,220,155,51,9,9,9,9,9,9,9,9,9,9,9,9,9,9,9,9,9,1,1,6,8,10,12,13,14,19,25],"timestamp_mouse":[10,25,44,64,85,105,125,144,166,186,205,224,245,264,285,305,325,345,366,384,405,425,444,464,486,505,526,545,564,585,605,625,644,665,686,706,725,744,765,785,805,824,844,865,885,905,925,944,966,985,1005,1026,1045,1065,1085,1105,1125,1145,1165,1185,1205,1225,1245,1265,1285,1306,1325,1345,1365,1386,1405,1424,1444,1464],"xSR":741.5,"ySR":501.8,"xT1":424.9,"yT1":0,"xT2":1058.1,"yT2":0,"toosoon":0,"cond_shown":"equaldotanddens","ratio_trial":750,"smaller_num":"6","larger_num":"8","correct_side":1,"subjID":"juansebastiánmera24","gender":"0","age":"9","school":"4"},{"start_time":1552309497610,"click_time":1552309503558,"finger_time":1552309501037,"fix_duration":411.9101129911371,"trial":42,"RT":3427,"MT":2521,"sideResp":1,"stimulus":"img/500/equaldotsize/R/3_Ratio_500_L_10_R_20.png","xmouse":[793,793,793,793,793,793,793,793,793,793,793,793,793,793,793,793,793,793,793,793,793,793,793,793,793,793,793,793,793,793,793,793,793,793,793,793,793,793,793,793,793,793,793,793,793,793,793,793,793,793,793,793,793,793,793,793,793,793,793,793,793,793,793,793,793,793,793,793,793,793,793,793,793,793,793,793,793,793,793,793,793,793,793,793,793,793,793,793,793,793,793,793,793,793,793,793,793,793,793,793,793,793,793,793,793,793,793,793,793,793,793,793,793,793,793,793,793,793,793,793,793,793,793,793,793,793,793,793,793,793,793,793,793,793,793,793,793,793,793,793,793,793,793,793,793,793,793,793,793,793,793,793,793,793,793,793,793,793,793,793,793,793,793,793,793,793,793,793,793,789,771,742,734,729,724,717,716,716,711,698,681,657,646,639,639,639,639,639,639,639,639,639,639,639,640,643,645,645,640,628,621,620,619,619,619,619,619,619,619,619,619,619,619,619,619,619,619,619,619,618,625,637,660,755,793,817,827,829,829,829,829,829,829,829,830,825,825,823,823,823,822,821,819,803,791,779,768,759,726,705,697,697,697,693,685,674,662,646,623,575,548,538,528,496,475,454,433,412,393,393,393,393,393,393,393,392,390,390,414,474,489,489,489,488,488,488,488,488,488,488,488,488,488,488,487,487,487,487],"ymouse":[534,534,534,534,534,534,534,534,534,534,534,534,534,534,534,534,534,534,534,534,534,534,534,534,534,534,534,534,534,534,534,534,534,534,534,534,534,534,534,534,534,534,534,534,534,534,534,534,534,534,534,534,534,534,534,534,534,534,534,534,534,534,534,534,534,534,534,534,534,534,534,534,534,534,534,534,534,534,534,534,534,534,534,534,534,534,534,534,534,534,534,534,534,534,534,534,534,534,534,534,534,534,534,534,534,534,534,534,534,534,534,534,534,534,534,534,534,534,534,534,534,534,534,534,534,534,534,534,534,534,534,534,534,534,534,534,534,534,534,534,534,534,534,534,534,534,534,534,534,534,534,534,534,534,534,534,534,534,534,534,534,534,534,534,534,534,534,534,534,528,511,488,483,480,480,480,480,480,484,503,516,521,523,525,525,525,525,525,525,525,525,525,525,525,531,542,549,554,566,580,584,585,586,586,586,586,586,586,586,586,586,586,586,586,586,586,586,586,586,586,590,593,594,594,594,594,594,594,594,594,594,594,594,594,594,592,592,591,591,591,591,585,574,547,531,511,486,467,424,403,390,390,390,391,400,414,424,433,440,438,419,398,366,290,256,232,215,204,195,195,195,195,195,185,179,172,161,153,135,111,106,106,106,106,106,106,106,106,106,106,106,106,106,106,105,103,100,96],"timestamp_mouse":[12,35,47,68,88,107,127,147,168,186,207,227,247,267,287,306,326,347,368,388,406,427,447,466,488,506,527,547,567,586,608,628,647,668,688,707,727,747,767,788,807,827,847,868,887,908,927,946,966,986,1008,1027,1048,1067,1087,1107,1128,1147,1167,1188,1208,1228,1247,1267,1286,1306,1327,1348,1367,1388,1407,1427,1447,1467,1487,1507,1527,1547,1567,1588,1608,1628,1648,1667,1687,1706,1728,1748,1767,1788,1808,1827,1847,1867,1888,1908,1928,1946,1967,1987,2007,2028,2048,2068,2087,2106,2127,2146,2167,2187,2208,2226,2248,2268,2286,2306,2328,2348,2368,2387,2406,2427,2447,2467,2486,2507,2528,2548,2567,2588,2606,2628,2648,2667,2688,2707,2728,2748,2768,2787,2806,2827,2848,2867,2888,2907,2928,2946,2967,2987,3008,3027,3047,3067,3087,3107,3126,3147,3168,3186,3207,3227,3247,3267,3288,3307,3328,3348,3367,3387,3407,3427,3447,3467,3486,3508,3526,3547,3567,3587,3607,3627,3646,3667,3686,3706,3726,3746,3767,3787,3807,3827,3848,3867,3887,3908,3927,3946,3966,3986,4006,4027,4047,4068,4088,4106,4127,4147,4166,4187,4206,4227,4247,4266,4286,4308,4328,4346,4366,4387,4407,4428,4447,4466,4487,4506,4527,4547,4568,4588,4608,4627,4648,4666,4686,4707,4726,4747,4768,4788,4806,4827,4847,4867,4886,4907,4927,4946,4967,4987,5007,5026,5046,5067,5086,5108,5127,5148,5166,5187,5206,5226,5246,5266,5286,5308,5327,5348,5367,5386,5407,5427,5447,5467,5486,5508,5527,5548,5567,5588,5607,5626,5648,5668,5688,5708,5728,5747,5768,5788,5808,5826,5847,5867,5888,5907,5927,5948],"xSR":741.5,"ySR":501.8,"xT1":424.9,"yT1":0,"xT2":1058.1,"yT2":0,"toosoon":0,"cond_shown":"equaldotsize","ratio_trial":500,"smaller_num":"10","larger_num":"20","correct_side":2,"subjID":"juansebastiánmera24","gender":"0","age":"9","school":"4"},{"start_time":1552309505419,"click_time":1552309506578,"finger_time":1552309506096,"fix_duration":721.3604337845002,"trial":43,"RT":677,"MT":482,"sideResp":2,"stimulus":"img/750/equaldotsize/R/2_Ratio_750_L_6_R_8.png","xmouse":[826,826,826,826,826,826,826,826,826,826,826,826,826,826,826,826,826,826,826,826,826,826,826,826,826,826,826,826,824,824,823,822,817,814,813,813,813,813,853,912,984,1055,1142,1168,1176,1177,1177,1177,1177,1177,1177,1177,1175,1173,1169,1161,1147,1107],"ymouse":[565,565,565,565,565,565,565,565,565,565,565,565,565,565,565,565,565,565,565,565,565,565,565,565,565,564,563,562,555,552,548,540,505,489,479,474,472,468,413,377,350,315,249,213,194,180,172,167,158,152,145,139,130,126,121,112,104,85],"timestamp_mouse":[17,37,58,79,98,119,138,158,178,199,218,238,259,278,298,319,337,357,379,398,417,438,458,478,499,517,538,557,578,597,618,638,658,677,698,718,739,758,777,798,819,838,858,877,897,917,937,957,978,998,1018,1037,1059,1077,1098,1119,1138,1158],"xSR":741.5,"ySR":501.8,"xT1":424.9,"yT1":0,"xT2":1058.1,"yT2":0,"toosoon":0,"cond_shown":"equaldotsize","ratio_trial":750,"smaller_num":"6","larger_num":"8","correct_side":2,"subjID":"juansebastiánmera24","gender":"0","age":"9","school":"4"},{"start_time":1552309509703,"click_time":1552309510656,"finger_time":1552309510398,"fix_duration":903.7295779969454,"trial":44,"RT":695,"MT":258,"sideResp":1,"stimulus":"img/250/equaldotsize/L/7_Ratio_250_L_8_R_2.png","xmouse":[801,801,801,801,801,801,801,801,801,801,801,801,800,799,799,799,799,799,799,799,799,799,799,799,800,805,809,813,813,814,814,812,808,807,800,775,734,657,392,392,392,392,392,392,392,392,392,427],"ymouse":[558,558,558,558,558,558,558,558,558,558,558,558,558,558,558,558,558,558,558,558,558,558,558,558,556,552,548,542,539,536,535,531,528,526,485,414,327,224,40,40,40,40,40,40,40,40,40,5],"timestamp_mouse":[14,40,54,73,95,113,133,154,174,193,215,233,254,274,294,314,333,355,375,393,413,435,454,474,494,513,534,554,574,593,614,633,654,674,695,713,735,754,773,794,814,833,853,873,893,913,933,953],"xSR":741.5,"ySR":501.8,"xT1":424.9,"yT1":0,"xT2":1058.1,"yT2":0,"toosoon":0,"cond_shown":"equaldotsize","ratio_trial":250,"smaller_num":"2","larger_num":"8","correct_side":1,"subjID":"juansebastiánmera24","gender":"0","age":"9","school":"4"},{"start_time":1552309512096,"click_time":1552309513317,"finger_time":1552309512918,"fix_duration":615.6013114330713,"trial":45,"RT":822,"MT":399,"sideResp":2,"stimulus":"img/750/equaldotsize/R/11_Ratio_750_L_12_R_16.png","xmouse":[808,808,808,808,808,808,808,808,808,808,809,810,810,810,810,810,810,810,810,810,810,810,810,810,810,810,810,810,810,810,810,810,810,809,808,806,805,805,805,805,824,872,908,949,977,1000,1004,1007,1009,1011,1015,1020,1022,1026,1028,1033,1036,1039,1041,1046,1058,1061],"ymouse":[597,597,597,597,597,597,597,597,597,597,597,597,596,596,596,596,596,596,596,596,596,596,596,596,596,596,596,596,596,594,590,588,587,592,594,596,599,599,599,597,571,503,451,391,336,277,258,239,224,206,175,148,126,105,84,50,39,30,26,17,5,3],"timestamp_mouse":[10,21,45,61,82,101,122,142,161,182,200,222,240,262,281,300,321,340,361,382,402,422,442,461,480,501,522,542,561,580,601,622,641,662,681,701,722,740,761,781,801,822,841,862,881,901,921,941,961,982,1001,1021,1041,1062,1081,1101,1120,1141,1160,1181,1201,1220],"xSR":741.5,"ySR":501.8,"xT1":424.9,"yT1":0,"xT2":1058.1,"yT2":0,"toosoon":0,"cond_shown":"equaldotsize","ratio_trial":750,"smaller_num":"12","larger_num":"16","correct_side":2,"subjID":"juansebastiánmera24","gender":"0","age":"9","school":"4"},{"start_time":1552309514650,"click_time":1552309515998,"finger_time":1552309515536,"fix_duration":250,"trial":46,"RT":886,"MT":462,"sideResp":1,"stimulus":"img/750/equaldotanddens/L/1_Ratio_750_L_20_R_15.png","xmouse":[826,826,826,826,826,823,821,820,820,820,820,820,820,819,817,816,813,810,803,801,797,796,794,793,793,792,791,789,789,789,789,789,789,789,789,789,789,789,789,789,789,789,787,770,746,696,618,444,416,412,412,418,423,432,434,434,435,446,455,460,465,467,470,476,476,476,476,476],"ymouse":[593,593,593,593,593,593,593,592,592,592,592,592,592,591,591,590,590,587,585,583,582,581,580,579,578,576,572,569,569,569,569,569,569,569,569,567,564,561,559,558,556,552,545,512,484,431,367,245,223,216,215,208,200,178,173,172,170,167,163,159,155,152,140,119,114,109,103,95],"timestamp_mouse":[11,26,48,67,88,108,126,146,168,186,208,227,246,267,287,307,326,346,366,388,406,427,448,467,486,507,526,547,567,587,608,627,647,667,688,708,726,747,766,787,807,827,847,866,886,907,927,948,966,986,1007,1027,1046,1066,1086,1107,1128,1148,1168,1187,1206,1227,1248,1267,1286,1307,1326,1348],"xSR":741.5,"ySR":501.8,"xT1":424.9,"yT1":0,"xT2":1058.1,"yT2":0,"toosoon":0,"cond_shown":"equaldotanddens","ratio_trial":750,"smaller_num":"15","larger_num":"20","correct_side":1,"subjID":"juansebastiánmera24","gender":"0","age":"9","school":"4"},{"start_time":1552309522769,"click_time":1552309524397,"finger_time":1552309523697,"fix_duration":250,"trial":47,"RT":928,"MT":700,"sideResp":1,"stimulus":"img/250/equaldotsize/L/3_Ratio_250_L_8_R_2.png","xmouse":[835,835,835,835,835,835,835,835,835,835,835,835,835,835,835,835,835,835,835,835,835,835,835,835,835,835,835,835,835,835,835,835,835,835,835,835,835,835,835,835,835,835,835,835,835,836,836,831,821,807,786,736,714,711,711,709,706,674,648,609,578,556,532,528,527,527,529,531,531,531,531,531,531,531,531,531,531,531,530,528,522,504],"ymouse":[567,567,567,567,567,567,567,567,567,567,567,567,567,567,567,567,567,567,567,567,567,567,567,567,567,567,567,567,567,567,567,567,567,567,567,567,567,567,567,567,567,567,567,567,553,528,501,456,432,412,390,354,336,329,328,326,323,313,303,283,258,221,156,133,121,116,114,113,113,113,113,113,112,112,112,112,112,112,110,109,104,93],"timestamp_mouse":[10,38,48,69,88,108,129,148,167,189,208,229,249,269,288,309,329,348,369,389,408,427,449,468,488,507,529,548,569,588,608,628,648,668,687,708,729,748,767,788,808,828,848,868,887,907,928,948,967,988,1008,1027,1049,1068,1088,1109,1128,1149,1167,1187,1208,1227,1249,1267,1287,1309,1328,1348,1369,1389,1408,1427,1447,1468,1489,1507,1528,1549,1567,1588,1607,1628],"xSR":741.5,"ySR":501.8,"xT1":424.9,"yT1":0,"xT2":1058.1,"yT2":0,"toosoon":0,"cond_shown":"equaldotsize","ratio_trial":250,"smaller_num":"2","larger_num":"8","correct_side":1,"subjID":"juansebastiánmera24","gender":"0","age":"9","school":"4"},{"start_time":1552309527283,"click_time":1552309528157,"finger_time":1552309527636,"fix_duration":563.4086956481158,"trial":48,"RT":353,"MT":521,"sideResp":1,"stimulus":"img/900/randomdotsizeEA/L/2_Ratio_900_L_20_R_18.png","xmouse":[788,788,788,788,788,788,788,788,788,788,788,788,788,788,785,781,776,754,738,728,721,717,712,712,709,703,700,692,688,679,662,645,608,593,590,590,590,590,590,590,589,586,526,498],"ymouse":[572,572,572,572,572,572,572,572,572,572,572,572,572,572,570,561,541,470,433,399,375,351,314,306,296,275,265,243,232,212,190,175,154,146,145,145,145,145,145,145,143,139,88,55],"timestamp_mouse":[14,38,54,75,93,115,133,153,174,193,214,234,255,273,293,314,334,353,373,393,414,434,454,473,493,513,534,554,573,594,613,634,653,674,694,714,734,753,774,794,814,834,854,874],"xSR":741.5,"ySR":501.8,"xT1":424.9,"yT1":0,"xT2":1058.1,"yT2":0,"toosoon":0,"cond_shown":"randomdotsizeEA","ratio_trial":900,"smaller_num":"18","larger_num":"20","correct_side":1,"subjID":"juansebastiánmera24","gender":"0","age":"9","school":"4"},{"start_time":1552309531782,"click_time":1552309533158,"finger_time":1552309532496,"fix_duration":1024.4227491750619,"trial":49,"RT":714,"MT":662,"sideResp":2,"stimulus":"img/750/equaldotsize/R/11_Ratio_750_L_12_R_16.png","xmouse":[786,786,786,786,786,786,786,786,786,786,786,786,786,786,786,786,786,786,786,786,786,786,786,786,786,786,786,786,786,786,786,786,787,792,796,801,806,826,839,856,874,895,946,978,1021,1047,1068,1090,1092,1095,1096,1098,1102,1106,1110,1110,1110,1112,1114,1118,1122,1124,1125,1126,1126,1125,1123,1119,1109],"ymouse":[536,536,536,536,536,536,536,536,536,536,536,536,536,536,536,536,536,536,536,536,536,536,536,536,536,536,536,536,536,536,536,536,535,529,519,498,472,411,390,371,349,325,294,280,255,243,238,227,226,224,220,211,193,174,163,160,158,149,144,140,136,135,133,128,125,122,117,109,97],"timestamp_mouse":[27,45,54,76,95,114,135,155,176,195,215,235,256,276,295,315,336,356,374,395,416,436,455,475,496,515,534,555,576,596,616,636,655,675,694,714,735,756,775,795,816,835,856,874,895,915,935,956,974,994,1015,1034,1056,1074,1095,1115,1136,1155,1175,1194,1214,1235,1254,1274,1295,1315,1335,1355,1376],"xSR":741.5,"ySR":501.8,"xT1":424.9,"yT1":0,"xT2":1058.1,"yT2":0,"toosoon":0,"cond_shown":"equaldotsize","ratio_trial":750,"smaller_num":"12","larger_num":"16","correct_side":2,"subjID":"juansebastiánmera24","gender":"0","age":"9","school":"4"},{"start_time":1552309535170,"click_time":1552309536877,"finger_time":1552309535518,"fix_duration":1011.0899710590069,"trial":50,"RT":348,"MT":1359,"sideResp":2,"stimulus":"img/500/equaldotanddens/R/15_Ratio_500_L_1_R_2.png","xmouse":[779,779,779,779,779,779,779,779,779,779,779,779,779,779,780,787,790,803,810,822,827,829,830,830,830,830,822,812,801,770,757,749,740,732,709,692,676,644,628,608,606,606,605,604,604,604,603,603,599,583,571,567,567,567,566,566,566,566,566,566,567,569,575,594,666,736,768,788,805,912,1046,1214,1365,1475,1481,1478,1476,1472,1466,1435,1412,1381,1334,1280,1170,1107],"ymouse":[511,511,511,511,511,511,511,511,511,511,511,511,511,511,511,511,508,500,494,480,472,467,463,459,442,427,394,367,340,279,256,236,221,202,168,148,129,107,101,100,100,100,100,100,100,100,100,100,99,92,87,86,85,85,84,84,84,84,83,83,83,83,83,89,110,120,121,122,122,122,131,142,156,166,166,164,162,160,156,146,140,131,118,102,75,63],"timestamp_mouse":[10,27,47,66,88,108,127,147,167,186,207,228,246,268,286,307,328,348,367,387,406,427,447,467,486,508,527,546,566,586,606,627,647,668,687,707,727,747,766,786,807,827,848,867,886,907,926,947,967,988,1008,1027,1047,1067,1086,1106,1126,1148,1167,1187,1207,1228,1248,1267,1287,1308,1326,1347,1367,1386,1406,1428,1447,1467,1486,1506,1526,1547,1567,1587,1608,1627,1646,1667,1686,1706],"xSR":741.5,"ySR":501.8,"xT1":424.9,"yT1":0,"xT2":1058.1,"yT2":0,"toosoon":0,"cond_shown":"equaldotanddens","ratio_trial":500,"smaller_num":"1","larger_num":"2","correct_side":2,"subjID":"juansebastiánmera24","gender":"0","age":"9","school":"4"},{"start_time":1552309539998,"click_time":1552309541137,"finger_time":1552309540557,"fix_duration":619.6870198313798,"trial":51,"RT":559,"MT":580,"sideResp":2,"stimulus":"img/500/equaldotanddens/R/1_Ratio_500_L_9_R_18.png","xmouse":[803,803,803,805,807,809,811,815,816,818,818,819,819,820,820,820,820,820,820,822,824,827,828,829,830,831,834,847,866,902,962,1006,1038,1049,1060,1068,1073,1079,1081,1083,1081,1079,1079,1079,1081,1081,1082,1083,1084,1084,1084,1084,1085,1091,1097,1103,1109],"ymouse":[573,573,572,570,567,565,562,556,554,552,551,550,548,547,547,547,547,547,547,543,542,539,534,531,527,522,518,500,486,463,434,405,362,349,338,330,321,295,272,248,234,221,203,198,192,186,179,170,169,169,169,169,163,152,137,118,99],"timestamp_mouse":[35,39,59,80,100,118,139,159,179,198,218,240,258,280,300,318,340,359,379,398,419,439,459,478,498,519,539,559,579,599,618,638,659,678,699,718,738,759,779,799,819,839,859,878,899,919,938,960,979,999,1020,1039,1059,1079,1098,1119,1139],"xSR":741.5,"ySR":501.8,"xT1":424.9,"yT1":0,"xT2":1058.1,"yT2":0,"toosoon":0,"cond_shown":"equaldotanddens","ratio_trial":500,"smaller_num":"9","larger_num":"18","correct_side":2,"subjID":"juansebastiánmera24","gender":"0","age":"9","school":"4"},{"start_time":1552309542728,"click_time":1552309543759,"finger_time":1552309543517,"fix_duration":250,"trial":52,"RT":789,"MT":242,"sideResp":2,"stimulus":"img/250/randomdotsizeEA/R/12_Ratio_250_L_5_R_20.png","xmouse":[805,805,805,805,805,805,805,805,804,804,804,804,804,804,804,804,803,803,803,803,803,803,803,803,803,803,803,803,803,803,803,803,803,803,803,803,803,803,809,819,836,863,904,910,910,915,924,959,988,1024,1056,1074],"ymouse":[546,546,546,546,546,546,546,548,549,549,549,549,549,549,549,549,550,550,550,550,550,550,550,550,550,550,550,551,551,551,551,551,551,551,551,551,551,551,535,500,344,218,168,164,164,161,156,140,128,111,98,85],"timestamp_mouse":[10,37,49,70,89,109,128,149,170,190,209,229,250,269,290,309,329,350,369,388,409,430,449,470,489,510,528,549,570,590,610,629,650,669,690,709,728,749,769,789,809,829,848,869,889,910,929,948,969,989,1009,1030],"xSR":741.5,"ySR":501.8,"xT1":424.9,"yT1":0,"xT2":1058.1,"yT2":0,"toosoon":0,"cond_shown":"randomdotsizeEA","ratio_trial":250,"smaller_num":"5","larger_num":"20","correct_side":2,"subjID":"juansebastiánmera24","gender":"0","age":"9","school":"4"},{"start_time":1552309562828,"click_time":1552309565498,"finger_time":1552309564837,"fix_duration":829.7025006110234,"trial":53,"RT":2009,"MT":661,"sideResp":1,"stimulus":"img/750/equaldotanddens/L/1_Ratio_750_L_20_R_15.png","xmouse":[794,794,794,794,794,794,794,794,794,794,794,795,795,796,797,797,797,797,797,797,797,797,797,797,799,800,800,800,800,800,800,801,801,801,801,801,801,801,801,801,801,801,801,801,801,801,801,801,801,801,801,801,801,801,801,801,801,801,801,800,799,799,798,797,795,793,792,791,791,789,789,789,789,789,789,789,789,789,789,789,789,789,789,789,789,789,789,789,789,789,789,789,789,789,789,789,789,789,789,789,778,762,741,704,599,547,512,494,487,486,485,483,482,481,480,477,477,477,480,490,493,495,496,496,496,496,496,495,494,494,494,495,495,495],"ymouse":[530,530,530,530,530,530,530,530,529,528,528,525,524,523,522,522,522,522,522,522,522,522,522,519,517,515,514,513,512,512,511,511,511,511,511,510,510,510,510,510,510,510,510,510,510,510,510,510,510,510,510,510,510,510,510,510,510,510,510,510,510,510,511,512,514,515,516,516,517,518,518,518,518,518,518,518,518,518,518,518,518,518,518,518,518,518,518,518,518,518,518,518,518,518,518,518,518,518,517,512,490,468,447,416,342,303,281,268,261,254,246,239,232,223,213,195,188,178,170,151,145,139,136,134,131,130,127,122,117,113,111,106,101,96],"timestamp_mouse":[19,46,49,69,90,108,128,148,169,189,209,229,249,269,290,308,329,349,368,390,410,429,449,469,488,509,528,549,569,588,610,630,649,670,690,709,728,750,769,789,810,829,850,868,889,910,930,949,969,990,1010,1030,1050,1069,1090,1109,1129,1149,1168,1188,1210,1228,1249,1269,1289,1309,1328,1349,1370,1389,1409,1428,1448,1469,1489,1509,1528,1548,1570,1588,1610,1630,1648,1670,1690,1709,1728,1749,1770,1790,1809,1829,1849,1870,1890,1910,1929,1949,1969,1988,2009,2028,2049,2069,2089,2109,2129,2149,2170,2188,2209,2228,2250,2269,2289,2309,2328,2349,2370,2389,2408,2429,2449,2469,2489,2510,2530,2548,2568,2589,2608,2628,2650,2670],"xSR":741.5,"ySR":501.8,"xT1":424.9,"yT1":0,"xT2":1058.1,"yT2":0,"toosoon":0,"cond_shown":"equaldotanddens","ratio_trial":750,"smaller_num":"15","larger_num":"20","correct_side":1,"subjID":"juansebastiánmera24","gender":"0","age":"9","school":"4"},{"start_time":1552309569584,"click_time":1552309570618,"finger_time":1552309570256,"fix_duration":386.7344367047588,"trial":54,"RT":672,"MT":362,"sideResp":2,"stimulus":"img/900/equaldotanddens/R/6_Ratio_900_L_9_R_10.png","xmouse":[804,804,804,804,804,804,804,804,804,804,804,804,804,804,804,804,804,804,804,804,804,804,804,804,804,804,804,804,804,804,804,807,841,906,1000,1179,1179,1179,1179,1179,1179,1179,1179,1179,1179,1179,1179,1179,1179,1249,1183,1134],"ymouse":[576,576,576,576,576,576,576,576,576,576,576,576,576,576,576,576,576,576,576,576,576,576,576,576,576,576,576,576,576,576,576,576,519,402,238,10,10,10,10,10,10,10,10,10,10,10,10,10,10,21,59,83],"timestamp_mouse":[13,40,52,73,93,114,132,152,173,194,212,232,253,272,294,313,332,353,374,392,414,434,452,473,494,514,532,554,574,593,614,633,653,672,693,713,732,752,772,793,813,834,853,873,892,913,934,953,972,992,1014,1033],"xSR":741.5,"ySR":501.8,"xT1":424.9,"yT1":0,"xT2":1058.1,"yT2":0,"toosoon":0,"cond_shown":"equaldotanddens","ratio_trial":900,"smaller_num":"9","larger_num":"10","correct_side":2,"subjID":"juansebastiánmera24","gender":"0","age":"9","school":"4"},{"start_time":1552309572830,"click_time":1552309573457,"finger_time":1552309573197,"fix_duration":1071.5946274974215,"trial":55,"RT":367,"MT":260,"sideResp":2,"stimulus":"img/900/equaldotsize/R/5_Ratio_900_L_9_R_10.png","xmouse":[772,772,772,772,772,772,772,772,772,772,772,772,772,772,772,775,785,827,884,950,1062,1108,1129,1135,1136,1136,1136,1136,1136,1136,1136,1136],"ymouse":[563,563,563,563,563,563,563,563,563,563,563,563,563,562,561,558,548,513,479,441,351,311,286,273,262,244,222,202,179,154,104,79],"timestamp_mouse":[10,39,46,66,88,107,127,146,168,186,206,226,247,267,288,307,327,347,367,387,407,428,447,467,487,507,526,547,567,587,607,627],"xSR":741.5,"ySR":501.8,"xT1":424.9,"yT1":0,"xT2":1058.1,"yT2":0,"toosoon":0,"cond_shown":"equaldotsize","ratio_trial":900,"smaller_num":"9","larger_num":"10","correct_side":2,"subjID":"juansebastiánmera24","gender":"0","age":"9","school":"4"},{"start_time":1552309576948,"click_time":1552309577857,"finger_time":1552309577518,"fix_duration":250,"trial":56,"RT":570,"MT":339,"sideResp":2,"stimulus":"img/900/equaldotanddens/R/12_Ratio_900_L_18_R_20.png","xmouse":[784,784,784,784,784,784,784,784,784,784,783,783,783,783,783,783,783,783,783,783,783,783,783,783,783,783,790,801,844,871,919,935,949,959,981,991,996,1003,1015,1040,1075,1082,1086,1090,1096,1102],"ymouse":[550,550,550,550,550,550,550,550,550,550,550,550,550,550,550,550,550,550,550,550,550,550,550,550,550,550,551,551,536,519,475,452,428,404,323,265,243,229,215,192,157,144,135,121,103,80],"timestamp_mouse":[10,33,49,68,89,110,128,149,