[{"start_time":1552308651511,"click_time":1552308653481,"finger_time":1552308651521,"fix_duration":250,"trial":0,"RT":10,"MT":1960,"sideResp":1,"stimulus":[],"xmouse":[783,783,783,783,784,784,784,784,784,784,784,784,784,784,784,784,784,784,784,784,784,784,784,784,784,784,784,784,784,784,784,784,784,784,784,784,784,784,784,785,786,788,788,788,788,788,788,788,788,788,788,788,788,788,788,788,788,788,788,788,788,788,788,788,788,788,788,788,785,784,784,784,784,784,784,787,790,790,792,792,792,793,793,795,797,800,811,824,813,769,704,583,521,491,474,474,474,474,466],"ymouse":[545,545,545,545,545,545,545,545,545,545,545,545,545,545,545,545,545,545,545,545,545,545,545,545,545,545,545,545,545,545,545,545,545,545,545,545,545,545,545,546,548,560,570,595,602,606,609,614,624,629,629,629,629,629,629,629,629,629,629,629,629,629,629,629,629,629,629,625,603,600,600,600,601,614,624,638,648,651,654,655,655,656,656,653,640,614,538,435,226,119,9,0,0,0,0,0,0,0,7],"timestamp_mouse":[10,27,47,66,86,108,126,146,167,186,207,226,247,266,286,307,327,347,367,388,408,427,448,467,486,507,527,547,567,586,606,626,647,666,687,707,728,747,767,787,806,827,847,868,886,907,927,947,966,986,1007,1026,1047,1066,1086,1106,1126,1147,1167,1188,1208,1228,1247,1268,1286,1307,1326,1348,1366,1387,1407,1428,1447,1468,1487,1506,1526,1547,1568,1587,1606,1626,1648,1667,1687,1706,1727,1747,1766,1787,1807,1827,1848,1868,1888,1907,1927,1946,1968],"xSR":741.5,"ySR":501.8,"xT1":424.9,"yT1":0,"xT2":1058.1,"yT2":0,"toosoon":0,"cond_shown":"Incongruent","ratio_trial":100,"L_num":3,"L_den":9,"R_num":7,"R_den":30,"correct_side":1,"subjID":"juansebastiánmera24 ","gender":"0","age":"9","school":"4","test":{"fix_dur":[250,1500],"timestim":1000,"targets_dim":[100,100],"targets_relative_coord":[0.3,0.7],"size_stim":[880,420],"start_dim":[100,100],"size_start":[300,300],"size_fix":60,"samplingrate":20,"img_types":["Congruent","Incongruent"],"ratios":[100,200,300],"rep_conds":19,"nTrials":120,"trials_to_rest":500,"Trials_order":[1,47,38,113,32,41,97,48,76,15,29,50,19,100,46,36,67,95,34,80,45,63,25,2,102,98,14,83,22,57,106,78,26,37,31,5,8,101,0,58,9,72,39,87,77,10,65,71,107,16,30,6,23,79,4,112,24,52,66,54,108,49,105,70,82,51,115,27,84,3,42,89,94,11,12,93,75,20,59,43,68,18,117,92,62,44,40,90,119,104,35,7,56,53,91,21,85,111,60,99,64,74,88,73,110,33,13,61,116,55,114,103,81,118,17,86,109,69,96,28],"cond_shown":["Incongruent","Incongruent","Congruent","Incongruent","Congruent","Incongruent","Incongruent","Congruent","Congruent","Incongruent","Incongruent","Congruent","Incongruent","Congruent","Congruent","Congruent","Incongruent","Incongruent","Congruent","Congruent","Incongruent","Incongruent","Incongruent","Congruent","Congruent","Congruent","Congruent","Incongruent","Congruent","Incongruent","Congruent","Congruent","Congruent","Incongruent","Incongruent","Incongruent","Congruent","Incongruent","Congruent","Congruent","Incongruent","Congruent","Incongruent","Incongruent","Incongruent","Congruent","Incongruent","Incongruent","Incongruent","Congruent","Congruent","Congruent","Incongruent","Incongruent","Congruent","Congruent","Congruent","Congruent","Congruent","Congruent","Congruent","Incongruent","Incongruent","Congruent","Congruent","Incongruent","Incongruent","Incongruent","Congruent","Incongruent","Congruent","Incongruent","Congruent","Incongruent","Congruent","Incongruent","Incongruent","Congruent","Incongruent","Incongruent","Congruent","Congruent","Incongruent","Congruent","Congruent","Congruent","Congruent","Congruent","Incongruent","Congruent","Incongruent","Incongruent","Congruent","Incongruent","Incongruent","Incongruent","Incongruent","Incongruent","Congruent","Incongruent","Congruent","Congruent","Congruent","Incongruent","Congruent","Incongruent","Incongruent","Incongruent","Congruent","Incongruent","Congruent","Incongruent","Incongruent","Congruent","Incongruent","Congruent","Incongruent","Incongruent","Congruent","Congruent"],"ratio_trial":[100,300,200,300,200,300,100,100,300,200,300,200,100,300,300,100,100,300,300,200,200,200,100,200,100,200,200,300,300,200,300,100,200,100,100,300,200,300,100,300,200,100,200,200,300,300,300,300,300,300,100,100,300,100,300,300,100,300,100,100,100,100,200,300,300,200,100,200,100,200,100,300,300,300,100,200,200,200,300,100,200,100,200,200,200,200,300,100,300,200,300,100,200,300,100,200,100,200,100,200,300,200,300,100,200,200,100,100,200,100,100,100,200,300,300,200,100,200,100,300],"left_num":[3,1,3,8,3,1,6,2,3,7,4,6,11,12,1,7,6,4,9,7,9,3,6,20,4,1,6,7,8,7,3,6,13,13,10,8,14,1,9,8,1,4,4,9,1,8,13,13,1,3,7,2,4,11,1,20,2,8,1,3,6,13,3,8,3,14,10,4,15,7,6,13,2,8,11,3,7,16,8,6,6,2,1,21,1,21,1,4,7,14,13,1,7,13,9,14,17,7,3,7,9,14,2,2,3,4,1,11,16,10,7,9,14,3,1,12,6,4,1,1],"right_num":[7,3,14,9,14,3,3,6,2,8,2,7,9,2,6,15,3,2,3,2,8,1,13,9,6,21,3,8,1,8,2,5,14,12,9,14,6,2,8,1,2,15,6,8,2,1,12,12,3,4,9,6,2,9,8,5,6,1,3,2,5,12,11,10,2,6,8,6,13,6,5,12,10,14,6,11,6,12,14,3,7,11,2,2,21,2,19,15,8,6,12,8,2,12,14,12,10,6,2,8,3,6,12,8,14,1,8,9,12,9,9,6,12,4,3,6,3,14,3,19],"left_den":[9,2,10,10,10,2,12,5,6,10,20,12,22,24,5,14,12,20,10,21,15,10,10,25,8,2,15,10,16,10,6,20,26,26,25,10,28,2,15,16,3,10,5,15,2,16,26,26,2,6,14,5,20,22,30,25,5,16,2,6,20,26,4,15,6,30,25,5,25,15,20,26,20,10,22,4,15,20,10,12,12,5,3,30,2,30,3,10,10,28,26,2,21,26,15,30,30,15,6,10,10,28,10,4,6,30,2,22,20,25,14,18,30,6,2,20,12,6,2,3],"right_den":[30,15,28,18,28,15,5,12,10,16,4,10,15,10,12,25,5,4,5,15,10,2,26,15,10,30,15,20,5,16,10,25,20,20,18,28,20,10,16,5,15,30,10,10,10,5,15,15,15,5,15,12,4,15,24,10,12,5,5,5,25,20,20,12,10,9,16,10,26,9,25,15,25,28,15,20,9,20,28,5,10,22,15,4,30,4,30,30,20,20,15,20,15,15,28,18,15,9,5,16,5,20,24,20,20,3,20,15,20,18,15,10,18,5,15,15,5,30,5,30],"correct_side":[1,1,2,1,2,1,2,2,1,1,2,2,2,1,2,2,2,2,1,1,2,2,1,1,2,2,1,1,1,1,1,1,2,2,2,1,1,1,1,1,1,2,1,2,1,1,2,2,1,2,2,2,2,2,2,1,2,1,2,1,1,2,1,2,1,2,2,1,1,2,1,2,2,1,1,1,2,1,1,2,2,2,1,1,2,1,2,2,1,1,2,1,1,2,1,2,2,2,1,1,1,1,2,1,2,2,1,2,1,2,2,2,2,2,1,1,2,1,2,2],"img_shown":["img2/100/Incongruent/L/I_Dist_100_LN_3_LD_9_RN_7_RD_30_0.png","img2/300/Incongruent/L/I_Dist_300_LN_1_LD_2_RN_3_RD_15_0.png","img2/200/Congruent/R/C_Dist_200_LN_3_LD_10_RN_14_RD_28_1.png","img2/300/Incongruent/L/I_Dist_300_LN_8_LD_10_RN_9_RD_18_0.png","img2/200/Congruent/R/C_Dist_200_LN_3_LD_10_RN_14_RD_28_1.png","img2/300/Incongruent/L/I_Dist_300_LN_1_LD_2_RN_3_RD_15_0.png","img2/100/Incongruent/R/I_Dist_100_LN_6_LD_12_RN_3_RD_5_1.png","img2/100/Congruent/R/C_Dist_100_LN_2_LD_5_RN_6_RD_12_1.png","img2/300/Congruent/L/C_Dist_300_LN_3_LD_6_RN_2_RD_10_0.png","img2/200/Incongruent/L/I_Dist_200_LN_7_LD_10_RN_8_RD_16_0.png","img2/300/Incongruent/R/I_Dist_300_LN_4_LD_20_RN_2_RD_4_1.png","img2/200/Congruent/R/C_Dist_200_LN_6_LD_12_RN_7_RD_10_1.png","img2/100/Incongruent/R/I_Dist_100_LN_11_LD_22_RN_9_RD_15_1.png","img2/300/Congruent/L/C_Dist_300_LN_12_LD_24_RN_2_RD_10_0.png","img2/300/Congruent/R/C_Dist_300_LN_1_LD_5_RN_6_RD_12_1.png","img2/100/Congruent/R/C_Dist_100_LN_7_LD_14_RN_15_RD_25_1.png","img2/100/Incongruent/R/I_Dist_100_LN_6_LD_12_RN_3_RD_5_1.png","img2/300/Incongruent/R/I_Dist_300_LN_4_LD_20_RN_2_RD_4_1.png","img2/300/Congruent/L/C_Dist_300_LN_9_LD_10_RN_3_RD_5_0.png","img2/200/Congruent/L/C_Dist_200_LN_7_LD_21_RN_2_RD_15_0.png","img2/200/Incongruent/R/I_Dist_200_LN_9_LD_15_RN_8_RD_10_1.png","img2/200/Incongruent/R/I_Dist_200_LN_3_LD_10_RN_1_RD_2_1.png","img2/100/Incongruent/L/I_Dist_100_LN_6_LD_10_RN_13_RD_26_0.png","img2/200/Congruent/L/C_Dist_200_LN_20_LD_25_RN_9_RD_15_0.png","img2/100/Congruent/R/C_Dist_100_LN_4_LD_8_RN_6_RD_10_1.png","img2/200/Congruent/R/C_Dist_200_LN_1_LD_2_RN_21_RD_30_1.png","img2/200/Congruent/L/C_Dist_200_LN_6_LD_15_RN_3_RD_15_0.png","img2/300/Incongruent/L/I_Dist_300_LN_7_LD_10_RN_8_RD_20_0.png","img2/300/Congruent/L/C_Dist_300_LN_8_LD_16_RN_1_RD_5_0.png","img2/200/Incongruent/L/I_Dist_200_LN_7_LD_10_RN_8_RD_16_0.png","img2/300/Congruent/L/C_Dist_300_LN_3_LD_6_RN_2_RD_10_0.png","img2/100/Congruent/L/C_Dist_100_LN_6_LD_20_RN_5_RD_25_0.png","img2/200/Congruent/R/C_Dist_200_LN_13_LD_26_RN_14_RD_20_1.png","img2/100/Incongruent/R/I_Dist_100_LN_13_LD_26_RN_12_RD_20_1.png","img2/100/Incongruent/R/I_Dist_100_LN_10_LD_25_RN_9_RD_18_1.png","img2/300/Incongruent/L/I_Dist_300_LN_8_LD_10_RN_14_RD_28_0.png","img2/200/Congruent/L/C_Dist_200_LN_14_LD_28_RN_6_RD_20_0.png","img2/300/Incongruent/L/I_Dist_300_LN_1_LD_2_RN_2_RD_10_0.png","img2/100/Congruent/L/C_Dist_100_LN_9_LD_15_RN_8_RD_16_0.png","img2/300/Congruent/L/C_Dist_300_LN_8_LD_16_RN_1_RD_5_0.png","img2/200/Incongruent/L/I_Dist_200_LN_1_LD_3_RN_2_RD_15_0.png","img2/100/Congruent/R/C_Dist_100_LN_4_LD_10_RN_15_RD_30_1.png","img2/200/Incongruent/L/I_Dist_200_LN_4_LD_5_RN_6_RD_10_0.png","img2/200/Incongruent/R/I_Dist_200_LN_9_LD_15_RN_8_RD_10_1.png","img2/300/Incongruent/L/I_Dist_300_LN_1_LD_2_RN_2_RD_10_0.png","img2/300/Congruent/L/C_Dist_300_LN_8_LD_16_RN_1_RD_5_0.png","img2/300/Incongruent/R/I_Dist_300_LN_13_LD_26_RN_12_RD_15_1.png","img2/300/Incongruent/R/I_Dist_300_LN_13_LD_26_RN_12_RD_15_1.png","img2/300/Incongruent/L/I_Dist_300_LN_1_LD_2_RN_3_RD_15_0.png","img2/300/Congruent/R/C_Dist_300_LN_3_LD_6_RN_4_RD_5_1.png","img2/100/Congruent/R/C_Dist_100_LN_7_LD_14_RN_9_RD_15_1.png","img2/100/Congruent/R/C_Dist_100_LN_2_LD_5_RN_6_RD_12_1.png","img2/300/Incongruent/R/I_Dist_300_LN_4_LD_20_RN_2_RD_4_1.png","img2/100/Incongruent/R/I_Dist_100_LN_11_LD_22_RN_9_RD_15_1.png","img2/300/Congruent/R/C_Dist_300_LN_1_LD_30_RN_8_RD_24_1.png","img2/300/Congruent/L/C_Dist_300_LN_20_LD_25_RN_5_RD_10_0.png","img2/100/Congruent/R/C_Dist_100_LN_2_LD_5_RN_6_RD_12_1.png","img2/300/Congruent/L/C_Dist_300_LN_8_LD_16_RN_1_RD_5_0.png","img2/100/Congruent/R/C_Dist_100_LN_1_LD_2_RN_3_RD_5_1.png","img2/100/Congruent/L/C_Dist_100_LN_3_LD_6_RN_2_RD_5_0.png","img2/100/Congruent/L/C_Dist_100_LN_6_LD_20_RN_5_RD_25_0.png","img2/100/Incongruent/R/I_Dist_100_LN_13_LD_26_RN_12_RD_20_1.png","img2/200/Incongruent/L/I_Dist_200_LN_3_LD_4_RN_11_RD_20_0.png","img2/300/Congruent/R/C_Dist_300_LN_8_LD_15_RN_10_RD_12_1.png","img2/300/Congruent/L/C_Dist_300_LN_3_LD_6_RN_2_RD_10_0.png","img2/200/Incongruent/R/I_Dist_200_LN_14_LD_30_RN_6_RD_9_1.png","img2/100/Incongruent/R/I_Dist_100_LN_10_LD_25_RN_8_RD_16_1.png","img2/200/Incongruent/L/I_Dist_200_LN_4_LD_5_RN_6_RD_10_0.png","img2/100/Congruent/L/C_Dist_100_LN_15_LD_25_RN_13_RD_26_0.png","img2/200/Incongruent/R/I_Dist_200_LN_7_LD_15_RN_6_RD_9_1.png","img2/100/Congruent/L/C_Dist_100_LN_6_LD_20_RN_5_RD_25_0.png","img2/300/Incongruent/R/I_Dist_300_LN_13_LD_26_RN_12_RD_15_1.png","img2/300/Congruent/R/C_Dist_300_LN_2_LD_20_RN_10_RD_25_1.png","img2/300/Incongruent/L/I_Dist_300_LN_8_LD_10_RN_14_RD_28_0.png","img2/100/Congruent/L/C_Dist_100_LN_11_LD_22_RN_6_RD_15_0.png","img2/200/Incongruent/L/I_Dist_200_LN_3_LD_4_RN_11_RD_20_0.png","img2/200/Incongruent/R/I_Dist_200_LN_7_LD_15_RN_6_RD_9_1.png","img2/200/Congruent/L/C_Dist_200_LN_16_LD_20_RN_12_RD_20_0.png","img2/300/Incongruent/L/I_Dist_300_LN_8_LD_10_RN_14_RD_28_0.png","img2/100/Incongruent/R/I_Dist_100_LN_6_LD_12_RN_3_RD_5_1.png","img2/200/Congruent/R/C_Dist_200_LN_6_LD_12_RN_7_RD_10_1.png","img2/100/Congruent/R/C_Dist_100_LN_2_LD_5_RN_11_RD_22_1.png","img2/200/Incongruent/L/I_Dist_200_LN_1_LD_3_RN_2_RD_15_0.png","img2/200/Congruent/L/C_Dist_200_LN_21_LD_30_RN_2_RD_4_0.png","img2/200/Congruent/R/C_Dist_200_LN_1_LD_2_RN_21_RD_30_1.png","img2/200/Congruent/L/C_Dist_200_LN_21_LD_30_RN_2_RD_4_0.png","img2/300/Congruent/R/C_Dist_300_LN_1_LD_3_RN_19_RD_30_1.png","img2/100/Congruent/R/C_Dist_100_LN_4_LD_10_RN_15_RD_30_1.png","img2/300/Incongruent/L/I_Dist_300_LN_7_LD_10_RN_8_RD_20_0.png","img2/200/Congruent/L/C_Dist_200_LN_14_LD_28_RN_6_RD_20_0.png","img2/300/Incongruent/R/I_Dist_300_LN_13_LD_26_RN_12_RD_15_1.png","img2/100/Incongruent/L/I_Dist_100_LN_1_LD_2_RN_8_RD_20_0.png","img2/200/Congruent/L/C_Dist_200_LN_7_LD_21_RN_2_RD_15_0.png","img2/300/Incongruent/R/I_Dist_300_LN_13_LD_26_RN_12_RD_15_1.png","img2/100/Incongruent/L/I_Dist_100_LN_9_LD_15_RN_14_RD_28_0.png","img2/200/Incongruent/R/I_Dist_200_LN_14_LD_30_RN_12_RD_18_1.png","img2/100/Incongruent/R/I_Dist_100_LN_17_LD_30_RN_10_RD_15_1.png","img2/200/Incongruent/R/I_Dist_200_LN_7_LD_15_RN_6_RD_9_1.png","img2/100/Congruent/L/C_Dist_100_LN_3_LD_6_RN_2_RD_5_0.png","img2/200/Incongruent/L/I_Dist_200_LN_7_LD_10_RN_8_RD_16_0.png","img2/300/Congruent/L/C_Dist_300_LN_9_LD_10_RN_3_RD_5_0.png","img2/200/Congruent/L/C_Dist_200_LN_14_LD_28_RN_6_RD_20_0.png","img2/300/Congruent/R/C_Dist_300_LN_2_LD_10_RN_12_RD_24_1.png","img2/100/Incongruent/L/I_Dist_100_LN_2_LD_4_RN_8_RD_20_0.png","img2/200/Congruent/R/C_Dist_200_LN_3_LD_6_RN_14_RD_20_1.png","img2/200/Incongruent/R/I_Dist_200_LN_4_LD_30_RN_1_RD_3_1.png","img2/100/Incongruent/L/I_Dist_100_LN_1_LD_2_RN_8_RD_20_0.png","img2/100/Incongruent/R/I_Dist_100_LN_11_LD_22_RN_9_RD_15_1.png","img2/200/Congruent/L/C_Dist_200_LN_16_LD_20_RN_12_RD_20_0.png","img2/100/Incongruent/R/I_Dist_100_LN_10_LD_25_RN_9_RD_18_1.png","img2/100/Congruent/R/C_Dist_100_LN_7_LD_14_RN_9_RD_15_1.png","img2/100/Incongruent/R/I_Dist_100_LN_9_LD_18_RN_6_RD_10_1.png","img2/200/Incongruent/R/I_Dist_200_LN_14_LD_30_RN_12_RD_18_1.png","img2/300/Congruent/R/C_Dist_300_LN_3_LD_6_RN_4_RD_5_1.png","img2/300/Incongruent/L/I_Dist_300_LN_1_LD_2_RN_3_RD_15_0.png","img2/200/Congruent/L/C_Dist_200_LN_12_LD_20_RN_6_RD_15_0.png","img2/100/Incongruent/R/I_Dist_100_LN_6_LD_12_RN_3_RD_5_1.png","img2/200/Incongruent/L/I_Dist_200_LN_4_LD_6_RN_14_RD_30_0.png","img2/100/Congruent/R/C_Dist_100_LN_1_LD_2_RN_3_RD_5_1.png","img2/300/Congruent/R/C_Dist_300_LN_1_LD_3_RN_19_RD_30_1.png"],"dist100_C":[["C_Dist_100_LN_10_LD_25_RN_3_RD_10_0.png","C_Dist_100_LN_11_LD_22_RN_4_RD_10_0.png","C_Dist_100_LN_11_LD_22_RN_6_RD_15_0.png","C_Dist_100_LN_15_LD_25_RN_13_RD_26_0.png","C_Dist_100_LN_3_LD_6_RN_2_RD_5_0.png","C_Dist_100_LN_6_LD_20_RN_5_RD_25_0.png","C_Dist_100_LN_8_LD_16_RN_2_RD_5_0.png","C_Dist_100_LN_9_LD_15_RN_8_RD_16_0.png"],["C_Dist_100_LN_1_LD_2_RN_18_RD_30_1.png","C_Dist_100_LN_1_LD_2_RN_3_RD_5_1.png","C_Dist_100_LN_12_LD_30_RN_13_RD_26_1.png","C_Dist_100_LN_2_LD_5_RN_11_RD_22_1.png","C_Dist_100_LN_2_LD_5_RN_6_RD_12_1.png","C_Dist_100_LN_3_LD_20_RN_4_RD_16_1.png","C_Dist_100_LN_4_LD_10_RN_15_RD_30_1.png","C_Dist_100_LN_4_LD_8_RN_6_RD_10_1.png","C_Dist_100_LN_6_LD_12_RN_15_RD_25_1.png","C_Dist_100_LN_7_LD_14_RN_15_RD_25_1.png","C_Dist_100_LN_7_LD_14_RN_9_RD_15_1.png"]],"dist100_I":[["I_Dist_100_LN_1_LD_2_RN_8_RD_20_0.png","I_Dist_100_LN_2_LD_4_RN_6_RD_15_0.png","I_Dist_100_LN_2_LD_4_RN_8_RD_20_0.png","I_Dist_100_LN_3_LD_5_RN_11_RD_22_0.png","I_Dist_100_LN_3_LD_5_RN_8_RD_16_0.png","I_Dist_100_LN_3_LD_6_RN_4_RD_10_0.png","I_Dist_100_LN_3_LD_9_RN_7_RD_30_0.png","I_Dist_100_LN_4_LD_8_RN_8_RD_20_0.png","I_Dist_100_LN_6_LD_10_RN_11_RD_22_0.png","I_Dist_100_LN_6_LD_10_RN_13_RD_26_0.png","I_Dist_100_LN_6_LD_10_RN_7_RD_14_0.png","I_Dist_100_LN_9_LD_10_RN_20_RD_25_0.png","I_Dist_100_LN_9_LD_15_RN_13_RD_26_0.png","I_Dist_100_LN_9_LD_15_RN_14_RD_28_0.png"],["I_Dist_100_LN_10_LD_25_RN_8_RD_16_1.png","I_Dist_100_LN_10_LD_25_RN_9_RD_18_1.png","I_Dist_100_LN_11_LD_22_RN_9_RD_15_1.png","I_Dist_100_LN_12_LD_24_RN_9_RD_15_1.png","I_Dist_100_LN_12_LD_30_RN_2_RD_4_1.png","I_Dist_100_LN_13_LD_26_RN_12_RD_20_1.png","I_Dist_100_LN_13_LD_26_RN_6_RD_10_1.png","I_Dist_100_LN_17_LD_30_RN_10_RD_15_1.png","I_Dist_100_LN_6_LD_12_RN_3_RD_5_1.png","I_Dist_100_LN_8_LD_16_RN_6_RD_10_1.png","I_Dist_100_LN_8_LD_20_RN_1_RD_2_1.png","I_Dist_100_LN_9_LD_18_RN_6_RD_10_1.png"]],"dist100_S":[["E_Dist_100_LN_2_LD_12_RN_2_RD_30_0.png","E_Dist_100_LN_6_LD_10_RN_6_RD_12_0.png"],["E_Dist_100_LN_6_LD_12_RN_6_RD_10_1.png"]],"dist200_C":[["C_Dist_200_LN_11_LD_22_RN_3_RD_10_0.png","C_Dist_200_LN_12_LD_15_RN_6_RD_10_0.png","C_Dist_200_LN_12_LD_20_RN_6_RD_15_0.png","C_Dist_200_LN_14_LD_28_RN_6_RD_20_0.png","C_Dist_200_LN_15_LD_25_RN_4_RD_10_0.png","C_Dist_200_LN_16_LD_20_RN_12_RD_20_0.png","C_Dist_200_LN_16_LD_30_RN_9_RD_27_0.png","C_Dist_200_LN_20_LD_25_RN_9_RD_15_0.png","C_Dist_200_LN_21_LD_30_RN_2_RD_4_0.png","C_Dist_200_LN_4_LD_10_RN_3_RD_15_0.png","C_Dist_200_LN_4_LD_8_RN_3_RD_10_0.png","C_Dist_200_LN_6_LD_15_RN_3_RD_15_0.png","C_Dist_200_LN_7_LD_21_RN_2_RD_15_0.png","C_Dist_200_LN_8_LD_15_RN_2_RD_6_0.png","C_Dist_200_LN_8_LD_15_RN_3_RD_9_0.png","C_Dist_200_LN_8_LD_15_RN_7_RD_21_0.png","C_Dist_200_LN_9_LD_20_RN_4_RD_16_0.png"],["C_Dist_200_LN_1_LD_2_RN_21_RD_30_1.png","C_Dist_200_LN_13_LD_26_RN_14_RD_20_1.png","C_Dist_200_LN_3_LD_10_RN_11_RD_22_1.png","C_Dist_200_LN_3_LD_10_RN_14_RD_28_1.png","C_Dist_200_LN_3_LD_10_RN_7_RD_14_1.png","C_Dist_200_LN_3_LD_12_RN_9_RD_20_1.png","C_Dist_200_LN_3_LD_6_RN_14_RD_20_1.png","C_Dist_200_LN_5_LD_10_RN_14_RD_20_1.png","C_Dist_200_LN_6_LD_12_RN_7_RD_10_1.png","C_Dist_200_LN_6_LD_20_RN_11_RD_22_1.png","C_Dist_200_LN_7_LD_15_RN_18_RD_27_1.png","C_Dist_200_LN_9_LD_30_RN_13_RD_26_1.png"]],"dist200_I":[["I_Dist_200_LN_1_LD_2_RN_3_RD_10_0.png","I_Dist_200_LN_1_LD_3_RN_2_RD_15_0.png","I_Dist_200_LN_3_LD_4_RN_11_RD_20_0.png","I_Dist_200_LN_4_LD_5_RN_6_RD_10_0.png","I_Dist_200_LN_4_LD_6_RN_14_RD_30_0.png","I_Dist_200_LN_7_LD_10_RN_12_RD_24_0.png","I_Dist_200_LN_7_LD_10_RN_14_RD_28_0.png","I_Dist_200_LN_7_LD_10_RN_8_RD_16_0.png"],["I_Dist_200_LN_11_LD_20_RN_3_RD_4_1.png","I_Dist_200_LN_14_LD_30_RN_12_RD_18_1.png","I_Dist_200_LN_14_LD_30_RN_6_RD_9_1.png","I_Dist_200_LN_3_LD_10_RN_1_RD_2_1.png","I_Dist_200_LN_4_LD_30_RN_1_RD_3_1.png","I_Dist_200_LN_6_LD_20_RN_3_RD_6_1.png","I_Dist_200_LN_7_LD_15_RN_4_RD_6_1.png","I_Dist_200_LN_7_LD_15_RN_6_RD_9_1.png","I_Dist_200_LN_9_LD_15_RN_8_RD_10_1.png"]],"dist200_S":[["E_Dist_200_LN_3_LD_6_RN_3_RD_10_0.png"],["E_Dist_200_LN_3_LD_10_RN_3_RD_6_1.png"]],"dist300_C":[["C_Dist_300_LN_11_LD_22_RN_1_RD_5_0.png","C_Dist_300_LN_11_LD_22_RN_2_RD_10_0.png","C_Dist_300_LN_11_LD_22_RN_4_RD_20_0.png","C_Dist_300_LN_12_LD_24_RN_2_RD_10_0.png","C_Dist_300_LN_18_LD_20_RN_9_RD_15_0.png","C_Dist_300_LN_20_LD_25_RN_13_RD_26_0.png","C_Dist_300_LN_20_LD_25_RN_14_RD_28_0.png","C_Dist_300_LN_20_LD_25_RN_5_RD_10_0.png","C_Dist_300_LN_20_LD_25_RN_8_RD_16_0.png","C_Dist_300_LN_20_LD_25_RN_9_RD_18_0.png","C_Dist_300_LN_24_LD_30_RN_2_RD_4_0.png","C_Dist_300_LN_24_LD_30_RN_8_RD_16_0.png","C_Dist_300_LN_3_LD_6_RN_2_RD_10_0.png","C_Dist_300_LN_4_LD_10_RN_1_RD_10_0.png","C_Dist_300_LN_4_LD_5_RN_2_RD_4_0.png","C_Dist_300_LN_8_LD_16_RN_1_RD_5_0.png","C_Dist_300_LN_9_LD_10_RN_3_RD_5_0.png"],["C_Dist_300_LN_1_LD_20_RN_7_RD_20_1.png","C_Dist_300_LN_1_LD_3_RN_19_RD_30_1.png","C_Dist_300_LN_1_LD_30_RN_8_RD_24_1.png","C_Dist_300_LN_1_LD_5_RN_11_RD_22_1.png","C_Dist_300_LN_1_LD_5_RN_3_RD_6_1.png","C_Dist_300_LN_1_LD_5_RN_6_RD_12_1.png","C_Dist_300_LN_2_LD_10_RN_12_RD_24_1.png","C_Dist_300_LN_2_LD_20_RN_10_RD_25_1.png","C_Dist_300_LN_3_LD_12_RN_11_RD_20_1.png","C_Dist_300_LN_3_LD_6_RN_4_RD_5_1.png","C_Dist_300_LN_4_LD_20_RN_13_RD_26_1.png","C_Dist_300_LN_5_LD_25_RN_6_RD_12_1.png","C_Dist_300_LN_5_LD_25_RN_7_RD_14_1.png","C_Dist_300_LN_7_LD_14_RN_20_RD_25_1.png","C_Dist_300_LN_8_LD_15_RN_10_RD_12_1.png"]],"dist300_I":[["I_Dist_300_LN_1_LD_2_RN_2_RD_10_0.png","I_Dist_300_LN_1_LD_2_RN_3_RD_15_0.png","I_Dist_300_LN_2_LD_4_RN_6_RD_30_0.png","I_Dist_300_LN_3_LD_6_RN_4_RD_20_0.png","I_Dist_300_LN_4_LD_5_RN_6_RD_12_0.png","I_Dist_300_LN_4_LD_5_RN_8_RD_16_0.png","I_Dist_300_LN_7_LD_10_RN_8_RD_20_0.png","I_Dist_300_LN_8_LD_10_RN_14_RD_28_0.png","I_Dist_300_LN_8_LD_10_RN_9_RD_18_0.png"],["I_Dist_300_LN_13_LD_26_RN_12_RD_15_1.png","I_Dist_300_LN_4_LD_20_RN_2_RD_4_1.png"]],"dist300_S":[["E_Dist_300_LN_9_LD_12_RN_9_RD_20_0.png"],["E_Dist_300_LN_18_LD_30_RN_18_RD_20_1.png","E_Dist_300_LN_3_LD_10_RN_3_RD_5_1.png","E_Dist_300_LN_9_LD_20_RN_9_RD_12_1.png"]],"dist500_C":[["C_Dist_500_LN_10_LD_13_RN_7_RD_26_0.png","C_Dist_500_LN_10_LD_15_RN_4_RD_24_0.png","C_Dist_500_LN_12_LD_16_RN_3_RD_12_0.png","C_Dist_500_LN_12_LD_18_RN_4_RD_24_0.png","C_Dist_500_LN_15_LD_18_RN_5_RD_15_0.png","C_Dist_500_LN_15_LD_20_RN_1_RD_4_0.png","C_Dist_500_LN_18_LD_27_RN_1_RD_6_0.png","C_Dist_500_LN_20_LD_24_RN_1_RD_3_0.png","C_Dist_500_LN_20_LD_24_RN_3_RD_9_0.png","C_Dist_500_LN_20_LD_24_RN_7_RD_21_0.png","C_Dist_500_LN_20_LD_28_RN_3_RD_14_0.png","C_Dist_500_LN_21_LD_28_RN_6_RD_24_0.png","C_Dist_500_LN_22_LD_28_RN_2_RD_7_0.png","C_Dist_500_LN_25_LD_30_RN_9_RD_27_0.png","C_Dist_500_LN_4_LD_6_RN_1_RD_6_0.png","C_Dist_500_LN_5_LD_6_RN_2_RD_6_0.png","C_Dist_500_LN_6_LD_9_RN_1_RD_6_0.png","C_Dist_500_LN_7_LD_10_RN_1_RD_5_0.png","C_Dist_500_LN_8_LD_12_RN_1_RD_6_0.png","C_Dist_500_LN_8_LD_12_RN_4_RD_24_0.png"],["C_Dist_500_LN_1_LD_4_RN_12_RD_16_1.png","C_Dist_500_LN_1_LD_4_RN_9_RD_12_1.png","C_Dist_500_LN_1_LD_9_RN_11_RD_18_1.png","C_Dist_500_LN_10_LD_24_RN_22_RD_24_1.png","C_Dist_500_LN_2_LD_12_RN_10_RD_15_1.png","C_Dist_500_LN_2_LD_12_RN_12_RD_18_1.png","C_Dist_500_LN_2_LD_12_RN_4_RD_6_1.png","C_Dist_500_LN_2_LD_24_RN_7_RD_12_1.png","C_Dist_500_LN_2_LD_5_RN_18_RD_20_1.png","C_Dist_500_LN_2_LD_5_RN_9_RD_10_1.png","C_Dist_500_LN_2_LD_8_RN_12_RD_16_1.png","C_Dist_500_LN_2_LD_8_RN_21_RD_28_1.png","C_Dist_500_LN_3_LD_10_RN_4_RD_5_1.png","C_Dist_500_LN_3_LD_12_RN_15_RD_20_1.png","C_Dist_500_LN_3_LD_30_RN_6_RD_10_1.png","C_Dist_500_LN_3_LD_8_RN_14_RD_16_1.png","C_Dist_500_LN_4_LD_16_RN_15_RD_20_1.png","C_Dist_500_LN_4_LD_24_RN_12_RD_18_1.png","C_Dist_500_LN_5_LD_14_RN_6_RD_7_1.png","C_Dist_500_LN_7_LD_21_RN_20_RD_24_1.png","C_Dist_500_LN_7_LD_28_RN_12_RD_16_1.png","C_Dist_500_LN_7_LD_28_RN_9_RD_12_1.png","C_Dist_500_LN_9_LD_27_RN_20_RD_24_1.png"]],"dist500_I":[["I_Dist_500_LN_2_LD_3_RN_4_RD_24_0.png","I_Dist_500_LN_5_LD_6_RN_6_RD_18_0.png","I_Dist_500_LN_7_LD_8_RN_9_RD_24_0.png"],["I_Dist_500_LN_7_LD_21_RN_5_RD_6_1.png"]],"dist500_S":[["E_Dist_500_LN_6_LD_8_RN_6_RD_24_0.png"],["E_Dist_500_LN_2_LD_12_RN_2_RD_3_1.png","E_Dist_500_LN_6_LD_24_RN_6_RD_8_1.png"]]}},{"start_time":1552308655643,"click_time":1552308659359,"finger_time":1552308658819,"fix_duration":1204.1106025358629,"trial":1,"RT":3176,"MT":540,"sideResp":1,"stimulus":[],"xmouse":[806,806,806,806,806,806,806,806,806,806,806,806,806,806,806,806,806,806,806,806,806,806,806,806,806,806,806,806,806,806,806,806,806,806,806,806,806,806,806,806,806,806,806,806,806,806,806,806,806,806,806,806,806,806,806,806,806,806,806,806,806,806,806,806,806,806,806,806,806,806,806,806,806,806,806,806,806,806,806,806,806,806,806,806,806,806,806,806,806,806,806,806,806,806,806,806,806,806,806,806,806,806,806,806,806,806,806,806,806,806,806,806,806,806,806,806,805,805,805,805,805,805,805,805,805,805,805,805,805,805,805,805,805,805,805,805,805,805,805,805,805,805,805,805,805,805,805,805,805,805,805,805,805,805,805,805,821,842,848,852,852,852,852,852,852,852,852,852,852,852,852,836,823,813,804,798,794,794,793,788,774,705,648,572,505],"ymouse":[637,637,637,637,637,637,637,637,637,637,637,637,637,637,637,637,637,637,637,637,637,637,637,637,637,637,637,637,637,637,637,637,637,637,637,637,637,637,637,637,637,637,637,637,637,637,637,637,637,637,637,637,637,637,637,637,637,637,637,637,637,637,637,637,637,637,637,637,637,637,637,637,637,637,637,637,637,637,637,637,637,637,637,637,637,637,637,637,637,637,637,637,637,637,637,637,637,637,637,637,637,637,637,637,637,637,637,637,637,637,637,637,637,637,637,635,634,634,634,634,634,634,634,634,634,634,634,634,634,634,634,634,634,634,634,634,634,634,634,633,633,632,632,632,632,632,632,632,632,632,632,632,632,632,632,627,615,604,601,599,599,599,599,599,599,599,599,599,599,599,600,606,611,613,617,619,619,619,619,614,589,449,320,181,61],"timestamp_mouse":[15,54,74,95,115,135,156,174,195,215,235,254,274,295,315,336,355,376,395,414,435,455,474,494,516,535,556,576,596,614,635,655,674,695,716,734,755,775,796,816,835,854,874,895,916,935,954,975,996,1016,1035,1056,1075,1095,1114,1135,1155,1175,1195,1216,1236,1255,1275,1295,1314,1336,1355,1376,1395,1415,1434,1455,1475,1496,1516,1535,1554,1575,1595,1614,1635,1655,1675,1695,1714,1735,1755,1775,1794,1814,1835,1856,1875,1896,1915,1934,1955,1974,1995,2014,2036,2055,2076,2096,2115,2135,2156,2176,2195,2216,2234,2255,2276,2294,2314,2336,2355,2375,2394,2414,2435,2454,2474,2495,2516,2535,2555,2574,2595,2614,2636,2655,2676,2695,2715,2734,2755,2774,2794,2814,2836,2855,2875,2895,2916,2936,2954,2975,2996,3015,3034,3055,3075,3095,3114,3134,3155,3176,3195,3216,3234,3255,3275,3296,3314,3334,3354,3376,3395,3415,3434,3455,3474,3496,3514,3534,3556,3575,3595,3615,3634,3655,3675,3695,3715],"xSR":741.5,"ySR":573.95,"xT1":424.9,"yT1":0,"xT2":1058.1,"yT2":0,"toosoon":0,"cond_shown":"Incongruent","ratio_trial":300,"L_num":1,"L_den":2,"R_num":3,"R_den":15,"correct_side":1,"subjID":"juansebastiánmera24 ","gender":"0","school":"4","age":"9"},{"start_time":1552308662797,"click_time":1552308664297,"finger_time":1552308664017,"fix_duration":578.9548826590379,"trial":2,"RT":1220,"MT":280,"sideResp":2,"stimulus":[],"xmouse":[808,808,808,808,808,808,808,808,808,808,808,808,808,808,808,808,808,808,808,808,808,808,808,808,808,808,808,808,808,808,808,808,808,808,808,808,808,808,808,808,808,808,808,808,808,808,808,808,808,808,808,808,808,808,808,808,808,808,808,809,817,855,883,914,957,991,1048,1057,1061,1063,1065,1065,1065,1065,1065,1066],"ymouse":[644,644,644,644,644,644,644,644,644,644,644,644,644,644,644,644,644,644,644,644,644,644,644,644,644,644,644,644,644,644,644,644,644,644,644,644,643,643,642,642,642,642,642,642,642,642,642,642,642,642,642,642,642,642,642,642,642,642,642,638,620,537,477,404,256,142,22,0,0,0,0,0,0,0,0,2],"timestamp_mouse":[10,21,44,61,81,100,121,142,161,181,200,222,240,261,280,302,321,340,361,380,402,422,442,460,481,500,521,541,562,582,601,621,641,661,681,702,721,742,761,780,800,822,840,860,882,901,920,940,961,982,1000,1021,1042,1061,1081,1101,1121,1140,1160,1180,1200,1220,1240,1261,1280,1300,1320,1341,1361,1381,1402,1420,1440,1461,1480,1500],"xSR":741.5,"ySR":573.95,"xT1":424.9,"yT1":0,"xT2":1058.1,"yT2":0,"toosoon":0,"cond_shown":"Congruent","ratio_trial":200,"L_num":3,"L_den":10,"R_num":14,"R_den":28,"correct_side":2,"subjID":"juansebastiánmera24 ","gender":"0","school":"4","age":"9"},{"start_time":1552308666171,"click_time":1552308666717,"finger_time":1552308666558,"fix_duration":511.195558904021,"trial":3,"RT":387,"MT":159,"sideResp":2,"stimulus":[],"xmouse":[793,793,793,793,793,793,795,796,796,796,796,796,796,796,796,796,797,803,810,834,861,901,959,1016,1062,1089,1095,1095],"ymouse":[610,610,610,610,610,610,606,602,602,602,602,602,602,602,602,602,600,593,583,557,534,500,443,342,214,122,100,99],"timestamp_mouse":[14,27,46,67,87,106,127,147,168,187,206,226,248,267,287,306,326,346,367,386,407,427,447,467,486,506,527,546],"xSR":741.5,"ySR":573.95,"xT1":424.9,"yT1":0,"xT2":1058.1,"yT2":0,"toosoon":0,"cond_shown":"Incongruent","ratio_trial":300,"L_num":8,"L_den":10,"R_num":9,"R_den":18,"correct_side":1,"subjID":"juansebastiánmera24 ","gender":"0","school":"4","age":"9"},{"start_time":1552308669370,"click_time":1552308670718,"finger_time":1552308670177,"fix_duration":1250.2496619000221,"trial":4,"RT":807,"MT":541,"sideResp":2,"stimulus":[],"xmouse":[785,785,786,786,786,787,787,787,787,787,787,787,787,787,787,787,787,787,787,787,787,787,787,787,787,787,787,787,787,787,787,787,787,787,787,787,787,789,793,803,813,823,839,886,924,934,935,936,936,936,937,955,975,982,982,982,982,982,985,987,992,1003,1015,1035,1039,1043,1050,1071],"ymouse":[622,621,621,621,621,620,620,620,620,620,620,620,620,620,620,620,620,620,620,620,620,620,620,620,620,620,620,620,620,620,620,620,620,620,620,620,620,615,605,589,572,547,490,234,99,78,76,76,76,76,76,66,52,45,44,44,44,44,45,46,46,46,45,42,42,41,38,32],"timestamp_mouse":[9,27,47,67,87,108,129,147,169,189,207,227,248,268,288,308,328,348,367,389,407,428,449,469,488,508,528,549,567,588,609,628,648,669,687,708,728,747,769,787,807,827,847,867,888,907,927,948,967,987,1008,1028,1047,1067,1089,1108,1128,1148,1167,1187,1207,1227,1248,1267,1287,1307,1327,1348],"xSR":741.5,"ySR":573.95,"xT1":424.9,"yT1":0,"xT2":1058.1,"yT2":0,"toosoon":0,"cond_shown":"Congruent","ratio_trial":200,"L_num":3,"L_den":10,"R_num":14,"R_den":28,"correct_side":2,"subjID":"juansebastiánmera24 ","gender":"0","school":"4","age":"9"},{"start_time":1552308674706,"click_time":1552308676357,"finger_time":1552308675877,"fix_duration":267.9037176876995,"trial":5,"RT":1171,"MT":480,"sideResp":1,"stimulus":[],"xmouse":[813,813,813,813,813,813,813,813,813,813,813,813,813,813,813,813,813,813,813,813,813,813,813,813,813,813,813,813,813,813,813,813,813,813,813,813,813,813,813,813,813,813,813,813,813,813,813,813,813,813,813,813,813,813,813,813,812,802,753,678,574,342,275,264,265,269,272,276,289,299,310,332,342,349,356,359,368,376,381,396,409,416,442],"ymouse":[601,601,601,601,601,601,601,601,601,601,601,601,601,601,601,601,601,601,601,601,601,601,601,601,601,601,601,601,601,601,601,601,601,601,601,601,601,601,601,601,601,601,601,601,601,601,601,601,601,601,601,601,601,601,601,601,596,583,540,495,420,183,88,62,57,53,53,51,47,41,31,5,0,0,0,0,3,9,12,20,25,29,43],"timestamp_mouse":[14,35,51,71,93,113,131,151,172,191,211,232,252,273,292,313,332,352,371,393,412,433,452,472,492,512,533,551,571,593,611,632,653,673,692,711,733,752,772,792,812,832,851,872,892,912,931,951,973,991,1011,1033,1053,1073,1092,1112,1131,1152,1171,1192,1212,1232,1252,1271,1292,1312,1332,1351,1372,1391,1411,1431,1451,1472,1491,1511,1532,1551,1571,1592,1611,1633,1651],"xSR":741.5,"ySR":573.95,"xT1":424.9,"yT1":0,"xT2":1058.1,"yT2":0,"toosoon":0,"cond_shown":"Incongruent","ratio_trial":300,"L_num":1,"L_den":2,"R_num":3,"R_den":15,"correct_side":1,"subjID":"juansebastiánmera24 ","gender":"0","school":"4","age":"9"},{"start_time":1552308682129,"click_time":1552308683058,"finger_time":1552308682477,"fix_duration":670.0473418908397,"trial":6,"RT":348,"MT":581,"sideResp":2,"stimulus":[],"xmouse":[817,817,817,817,817,817,817,817,817,817,817,817,817,817,818,823,839,852,868,887,907,930,935,938,942,956,982,994,1004,1013,1019,1022,1023,1026,1030,1034,1039,1040,1041,1042,1042,1044,1047,1052,1060,1069,1100],"ymouse":[624,624,624,624,624,624,624,624,624,624,624,624,624,622,620,612,583,552,512,484,456,418,405,397,392,380,355,338,321,304,288,264,255,243,226,215,190,177,167,163,159,152,146,140,129,119,91],"timestamp_mouse":[10,37,49,70,88,109,128,148,168,189,209,228,249,268,290,309,328,348,369,389,408,428,448,469,488,509,530,548,569,588,608,628,650,669,690,709,730,748,768,789,808,828,849,869,890,910,929],"xSR":741.5,"ySR":573.95,"xT1":424.9,"yT1":0,"xT2":1058.1,"yT2":0,"toosoon":0,"cond_shown":"Incongruent","ratio_trial":100,"L_num":6,"L_den":12,"R_num":3,"R_den":5,"correct_side":2,"subjID":"juansebastiánmera24 ","gender":"0","school":"4","age":"9"},{"start_time":1552308686453,"click_time":1552308687998,"finger_time":1552308687579,"fix_duration":571.1132419010444,"trial":7,"RT":1126,"MT":419,"sideResp":2,"stimulus":[],"xmouse":[799,799,799,799,799,799,799,799,799,799,799,799,799,799,799,799,799,799,799,799,799,799,799,799,799,799,799,799,799,799,799,799,799,799,799,799,799,799,799,799,799,799,799,799,799,799,799,799,799,799,799,799,799,799,799,824,851,853,853,853,856,860,864,867,872,901,950,986,1018,1038,1042,1043,1047,1047,1053,1056,1057,1060],"ymouse":[617,617,617,617,617,617,617,617,617,617,617,617,617,617,617,617,617,617,617,617,617,617,617,617,617,617,617,617,617,617,617,617,617,617,617,617,617,617,617,617,617,617,617,617,617,617,617,617,617,617,617,617,617,617,615,581,510,434,392,365,334,319,311,301,284,230,174,136,94,64,56,56,46,46,42,40,40,44],"timestamp_mouse":[14,26,45,65,86,105,125,145,164,185,204,224,245,265,285,304,324,345,366,385,405,424,446,465,486,504,525,546,564,585,604,625,645,664,686,706,725,744,765,784,805,825,846,864,884,906,925,945,965,984,1005,1025,1045,1064,1085,1104,1126,1145,1164,1185,1204,1224,1244,1264,1284,1304,1324,1345,1365,1384,1405,1424,1445,1465,1484,1505,1525,1545],"xSR":741.5,"ySR":573.95,"xT1":424.9,"yT1":0,"xT2":1058.1,"yT2":0,"toosoon":0,"cond_shown":"Congruent","ratio_trial":100,"L_num":2,"L_den":5,"R_num":6,"R_den":12,"correct_side":2,"subjID":"juansebastiánmera24 ","gender":"0","school":"4","age":"9"},{"start_time":1552308690975,"click_time":1552308691659,"finger_time":1552308691298,"fix_duration":1114.8552494936225,"trial":8,"RT":323,"MT":361,"sideResp":2,"stimulus":[],"xmouse":[828,828,828,828,828,828,828,828,828,828,828,828,828,828,828,841,919,1043,1170,1393,1416,1422,1425,1425,1425,1420,1412,1399,1374,1330,1249,1210,1172,1133,1099],"ymouse":[653,653,653,653,653,653,653,653,653,653,653,653,653,653,648,617,535,419,313,151,126,106,82,55,33,1,0,0,0,0,0,0,0,0,1],"timestamp_mouse":[10,23,42,62,83,102,124,142,162,183,203,223,243,264,283,302,322,342,362,383,402,423,444,463,482,502,522,543,562,582,602,623,642,663,684],"xSR":741.5,"ySR":573.95,"xT1":424.9,"yT1":0,"xT2":1058.1,"yT2":0,"toosoon":0,"cond_shown":"Congruent","ratio_trial":300,"L_num":3,"L_den":6,"R_num":2,"R_den":10,"correct_side":1,"subjID":"juansebastiánmera24 ","gender":"0","school":"4","age":"9"},{"start_time":1552308694914,"click_time":1552308697479,"finger_time":1552308696638,"fix_duration":294.5538963223263,"trial":9,"RT":1724,"MT":841,"sideResp":1,"stimulus":[],"xmouse":[776,776,776,775,775,775,775,775,775,775,777,779,780,780,780,780,780,780,780,780,780,780,780,780,780,780,780,780,780,780,780,780,780,780,780,780,780,780,780,780,780,780,780,780,780,780,780,780,780,780,780,780,780,780,780,780,780,780,780,781,781,781,781,781,781,781,781,781,781,781,781,781,781,781,781,781,781,781,781,781,781,781,781,781,781,781,781,777,761,756,754,754,754,754,754,754,754,754,754,754,754,754,754,754,754,754,750,743,723,696,670,652,635,617,577,566,556,548,531,526,524,522,521,521,521,524,526,526,522],"ymouse":[593,593,593,592,592,592,592,592,592,589,586,582,581,581,581,581,581,581,581,581,581,581,581,581,581,581,581,581,581,581,581,581,581,581,581,581,581,581,581,581,581,581,581,581,581,581,581,581,581,581,581,581,581,581,581,581,581,581,581,581,581,582,583,583,584,584,584,585,585,585,585,585,585,585,585,585,585,585,585,586,586,586,586,586,585,576,562,543,516,511,509,509,509,509,509,509,509,509,509,509,509,509,509,509,509,509,506,496,462,412,369,344,320,300,268,256,246,238,224,218,216,213,210,202,197,187,170,151,99],"timestamp_mouse":[9,39,43,65,84,104,125,144,164,183,203,223,244,264,283,305,324,345,364,383,404,424,444,465,484,504,525,543,563,583,603,625,644,664,684,704,725,744,764,784,803,825,844,864,885,903,924,944,963,985,1004,1024,1044,1063,1085,1104,1124,1144,1163,1184,1204,1225,1244,1264,1284,1304,1324,1344,1364,1384,1403,1424,1443,1464,1485,1504,1523,1544,1563,1584,1605,1623,1644,1665,1683,1703,1724,1745,1765,1783,1804,1825,1845,1864,1884,1905,1923,1944,1963,1983,2004,2025,2043,2064,2083,2105,2124,2144,2164,2183,2203,2223,2244,2264,2283,2304,2324,2343,2364,2383,2403,2423,2444,2464,2483,2503,2524,2544,2564],"xSR":741.5,"ySR":573.95,"xT1":424.9,"yT1":0,"xT2":1058.1,"yT2":0,"toosoon":0,"cond_shown":"Incongruent","ratio_trial":200,"L_num":7,"L_den":10,"R_num":8,"R_den":16,"correct_side":1,"subjID":"juansebastiánmera24 ","gender":"0","school":"4","age":"9"},{"start_time":1552308702720,"click_time":1552308703718,"finger_time":1552308703518,"fix_duration":1139.4341363454178,"trial":10,"RT":798,"MT":200,"sideResp":1,"stimulus":[],"xmouse":[785,785,785,785,785,785,785,785,785,785,785,785,785,785,785,785,785,785,785,785,785,785,785,785,785,785,785,785,785,785,785,785,785,785,785,785,785,784,772,755,728,691,657,622,598,583,571,553,501,467],"ymouse":[623,623,623,623,623,623,623,623,623,623,623,623,623,623,623,623,623,623,623,623,623,623,623,623,623,623,623,623,623,623,623,623,623,623,623,623,623,622,600,558,499,435,381,327,289,239,218,187,117,82],"timestamp_mouse":[18,46,59,79,98,120,139,159,179,198,218,238,258,280,299,320,340,359,379,399,418,439,458,478,500,519,539,560,580,599,619,640,658,679,698,719,739,758,779,798,818,839,858,878,898,920,940,959,978,998],"xSR":741.5,"ySR":573.95,"xT1":424.9,"yT1":0,"xT2":1058.1,"yT2":0,"toosoon":0,"cond_shown":"Incongruent","ratio_trial":300,"L_num":4,"L_den":20,"R_num":2,"R_den":4,"correct_side":2,"subjID":"juansebastiánmera24 ","gender":"0","school":"4","age":"9"},{"start_time":1552308707736,"click_time":1552308709118,"finger_time":1552308708199,"fix_duration":935.8426304609785,"trial":11,"RT":463,"MT":919,"sideResp":2,"stimulus":[],"xmouse":[745,745,745,745,746,746,746,747,748,748,748,748,748,748,748,748,748,749,749,749,749,747,743,739,736,735,735,736,736,736,732,727,719,689,647,642,642,642,642,640,639,639,639,641,652,660,674,689,703,718,728,740,746,757,840,857,868,879,886,899,909,922,938,962,977,979,985,1000,1022,1059],"ymouse":[622,622,622,622,622,622,622,622,623,623,623,623,623,623,623,623,623,623,623,627,634,646,660,667,672,677,684,689,689,691,693,694,694,621,477,450,447,447,455,516,531,534,535,534,513,503,495,490,487,484,478,467,447,420,232,192,170,151,138,117,103,87,70,46,32,31,31,31,36,48],"timestamp_mouse":[7,23,45,62,82,103,123,142,163,183,203,222,242,263,282,302,323,342,363,382,402,422,443,463,482,503,522,543,563,582,603,623,643,662,682,702,722,742,763,782,802,823,843,863,883,903,922,943,963,983,1003,1023,1042,1062,1083,1103,1123,1143,1163,1182,1203,1222,1242,1262,1284,1303,1322,1342,1362,1382],"xSR":741.5,"ySR":573.95,"xT1":424.9,"yT1":0,"xT2":1058.1,"yT2":0,"toosoon":0,"cond_shown":"Congruent","ratio_trial":200,"L_num":6,"L_den":12,"R_num":7,"R_den":10,"correct_side":2,"subjID":"juansebastiánmera24 ","gender":"0","school":"4","age":"9"},{"start_time":1552308710952,"click_time":1552308712120,"finger_time":1552308711660,"fix_duration":472.13562094155003,"trial":12,"RT":708,"MT":460,"sideResp":2,"stimulus":[],"xmouse":[795,795,795,795,795,795,795,795,795,795,795,795,795,795,795,795,795,795,795,795,795,795,795,795,795,795,795,795,795,795,795,795,795,803,832,882,938,989,1085,1115,1137,1152,1173,1210,1220,1226,1227,1228,1229,1229,1229,1229,1229,1229,1229,1221,1205,1186,1146],"ymouse":[633,633,633,633,633,633,633,633,633,633,633,633,633,633,633,633,633,632,632,632,632,632,632,632,632,632,632,632,632,632,632,632,632,616,582,523,456,383,234,186,153,132,100,26,4,0,0,0,0,0,0,0,0,0,0,0,0,0,3],"timestamp_mouse":[10,39,46,68,86,106,127,147,167,187,208,227,246,266,288,307,326,347,367,387,407,428,446,467,486,506,527,547,567,587,607,626,648,668,686,708,727,747,766,788,806,827,847,866,886,906,926,947,966,986,1007,1027,1047,1066,1086,1107,1126,1147,1168],"xSR":741.5,"ySR":573.95,"xT1":424.9,"yT1":0,"xT2":1058.1,"yT2":0,"toosoon":0,"cond_shown":"Incongruent","ratio_trial":100,"L_num":11,"L_den":22,"R_num":9,"R_den":15,"correct_side":2,"subjID":"juansebastiánmera24 ","gender":"0","school":"4","age":"9"},{"start_time":1552308713888,"click_time":1552308714922,"finger_time":1552308714638,"fix_duration":388.55282149546844,"trial":13,"RT":750,"MT":284,"sideResp":1,"stimulus":[],"xmouse":[777,777,777,777,777,777,777,777,777,777,777,777,777,777,777,777,777,777,777,777,777,777,777,777,777,777,777,777,777,777,777,777,775,773,771,767,761,740,715,677,623,443,386,353,346,343,341,341,344,354,364,464],"ymouse":[632,632,632,632,632,632,632,632,632,632,632,632,632,632,632,632,632,632,632,632,632,632,632,632,632,632,632,632,632,632,632,632,630,627,620,613,601,568,535,478,406,188,102,34,12,0,0,0,0,0,0,28],"timestamp_mouse":[14,31,50,71,92,111,130,151,172,190,210,230,250,270,291,311,330,351,370,391,410,430,451,470,491,510,530,552,570,592,611,631,651,670,691,710,731,750,770,790,810,831,850,871,891,911,930,951,971,991,1011,1033],"xSR":741.5,"ySR":573.95,"xT1":424.9,"yT1":0,"xT2":1058.1,"yT2":0,"toosoon":0,"cond_shown":"Congruent","ratio_trial":300,"L_num":12,"L_den":24,"R_num":2,"R_den":10,"correct_side":1,"subjID":"juansebastiánmera24 ","gender":"0","school":"4","age":"9"},{"start_time":1552308716434,"click_time":1552308719458,"finger_time":1552308718399,"fix_duration":313.6228053064127,"trial":14,"RT":1965,"MT":1059,"sideResp":2,"stimulus":[],"xmouse":[820,820,820,820,820,820,819,818,817,817,817,817,817,816,816,816,816,816,816,816,816,816,815,815,815,815,815,814,814,814,814,814,814,814,814,814,814,814,814,814,814,814,814,814,814,814,814,814,814,814,814,814,814,814,814,814,814,814,814,814,814,814,814,814,814,814,814,814,814,814,814,812,812,811,811,811,811,811,811,811,811,811,811,811,811,811,811,811,811,811,811,811,811,811,811,811,814,818,823,830,843,846,850,861,871,889,895,898,899,900,902,904,909,913,916,921,922,923,924,925,938,947,964,981,996,1026,1036,1043,1045,1046,1047,1048,1048,1049,1050,1051,1053,1054,1055,1055,1055,1055,1055,1056,1057,1058,1058,1058,1058,1058,1058,1059],"ymouse":[617,617,617,617,617,617,617,617,617,617,617,617,617,617,617,617,617,617,617,617,617,617,616,615,615,615,615,614,614,614,614,614,614,614,614,614,614,614,614,614,614,614,614,613,613,613,613,612,612,612,612,612,612,612,612,612,612,612,612,612,612,612,612,612,612,612,612,612,612,612,612,611,610,608,608,608,608,608,608,608,608,608,608,608,608,608,608,608,608,608,608,608,608,608,608,606,597,584,572,559,538,531,523,504,490,459,453,450,449,448,443,441,433,426,421,412,409,404,397,388,362,350,329,304,283,239,226,214,209,206,201,197,190,184,177,166,160,153,144,137,128,123,114,110,107,102,99,99,99,98,98,98],"timestamp_mouse":[10,24,44,64,84,105,125,146,164,184,205,225,244,265,285,304,325,344,364,386,405,425,445,465,485,505,525,544,565,584,605,624,644,665,686,704,724,744,766,785,805,824,844,865,885,904,924,944,964,984,1005,1024,1044,1065,1085,1105,1124,1144,1165,1184,1205,1224,1245,1265,1285,1304,1325,1345,1366,1385,1404,1425,1444,1466,1485,1505,1526,1545,1565,1585,1604,1625,1644,1664,1686,1705,1724,1746,1765,1785,1805,1825,1844,1865,1886,1905,1924,1944,1965,1984,2005,2025,2044,2064,2085,2104,2124,2144,2164,2186,2205,2224,2244,2265,2284,2304,2325,2345,2365,2385,2404,2424,2444,2464,2485,2504,2525,2545,2565,2586,2604,2624,2644,2664,2684,2704,2724,2744,2765,2784,2804,2824,2844,2864,2885,2904,2925,2946,2966,2985,3004,3024],"xSR":741.5,"ySR":573.95,"xT1":424.9,"yT1":0,"xT2":1058.1,"yT2":0,"toosoon":0,"cond_shown":"Congruent","ratio_trial":300,"L_num":1,"L_den":5,"R_num":6,"R_den":12,"correct_side":2,"subjID":"juansebastiánmera24 ","gender":"0","school":"4","age":"9"},{"start_time":1552308723811,"click_time":1552308725719,"finger_time":1552308725259,"fix_duration":250,"trial":15,"RT":1448,"MT":460,"sideResp":2,"stimulus":[],"xmouse":[786,786,786,786,786,786,786,786,786,786,786,786,786,786,786,786,786,785,785,784,784,784,783,783,782,782,781,781,781,781,781,781,781,780,780,780,780,780,780,780,779,779,779,779,779,779,779,779,779,779,779,779,779,779,779,779,779,779,779,779,779,779,779,779,779,779,779,779,779,779,779,780,790,798,808,825,843,882,890,894,899,904,908,911,914,917,922,934,943,953,969,990,1043,1060,1067,1069],"ymouse":[587,586,585,585,585,585,585,585,585,585,585,585,585,587,590,592,598,600,603,604,606,607,608,608,609,609,609,609,609,609,609,611,618,620,620,620,620,620,620,620,620,620,620,620,620,620,620,620,620,620,620,620,620,620,620,620,620,620,620,620,620,620,620,620,620,620,620,620,619,614,600,580,544,526,507,490,476,452,446,440,428,413,382,370,361,352,338,304,283,263,228,196,134,114,101,94],"timestamp_mouse":[8,27,49,68,88,109,128,148,167,188,209,229,248,267,288,308,329,347,368,388,408,428,448,467,488,508,528,547,569,588,608,627,647,668,689,709,727,749,767,788,807,829,847,868,888,908,927,948,968,988,1008,1028,1047,1069,1089,1108,1127,1148,1168,1187,1207,1227,1248,1268,1287,1308,1327,1349,1368,1388,1407,1427,1448,1467,1487,1507,1528,1547,1568,1588,1607,1627,1647,1668,1687,1708,1727,1747,1768,1787,1807,1829,1847,1868,1887,1908],"xSR":741.5,"ySR":573.95,"xT1":424.9,"yT1":0,"xT2":1058.1,"yT2":0,"toosoon":0,"cond_shown":"Congruent","ratio_trial":100,"L_num":7,"L_den":14,"R_num":15,"R_den":25,"correct_side":2,"subjID":"juansebastiánmera24 ","gender":"0","school":"4","age":"9"},{"start_time":1552308730194,"click_time":1552308731538,"finger_time":1552308731158,"fix_duration":853.9025114081763,"trial":16,"RT":964,"MT":380,"sideResp":1,"stimulus":[],"xmouse":[768,768,768,768,768,768,768,768,768,768,768,768,768,768,768,768,768,768,768,768,768,768,768,768,768,768,768,768,768,768,768,768,768,768,768,768,768,768,768,768,768,768,768,768,768,768,764,761,734,680,611,533,463,374,347,334,330,330,330,331,333,335,339,352,367,389,414,437],"ymouse":[663,663,663,659,658,658,658,658,658,658,658,658,658,658,658,658,658,658,658,658,658,658,658,657,657,657,657,657,657,657,657,657,657,657,657,657,657,657,657,657,657,657,657,657,657,657,657,657,649,616,578,533,489,399,358,314,271,225,151,121,107,98,92,86,86,86,85,82],"timestamp_mouse":[11,32,45,65,84,106,126,144,164,184,206,226,245,265,285,306,326,344,366,384,405,425,446,466,486,505,526,545,565,585,605,625,646,665,684,705,724,746,765,784,805,826,846,864,885,906,924,945,964,984,1004,1025,1045,1065,1084,1105,1125,1144,1165,1184,1205,1224,1245,1265,1284,1304,1324,1344],"xSR":741.5,"ySR":573.95,"xT1":424.9,"yT1":0,"xT2":1058.1,"yT2":0,"toosoon":0,"cond_shown":"Incongruent","ratio_trial":100,"L_num":6,"L_den":12,"R_num":3,"R_den":5,"correct_side":2,"subjID":"juansebastiánmera24 ","gender":"0","school":"4","age":"9"},{"start_time":1552308737845,"click_time":1552308739699,"finger_time":1552308739338,"fix_duration":1465.5264825019308,"trial":17,"RT":1493,"MT":361,"sideResp":1,"stimulus":[],"xmouse":[799,799,799,799,799,799,799,799,799,799,799,799,799,799,799,799,799,799,799,799,799,799,799,799,799,799,799,799,799,799,799,799,799,800,800,801,801,801,801,801,801,801,801,801,801,801,801,801,802,802,802,803,803,803,803,803,803,803,803,803,803,803,803,803,803,803,803,803,803,803,801,788,772,754,703,626,487,442,391,343,317,311,311,313,316,322,344,358,374,395,418,436,470],"ymouse":[623,623,623,623,623,623,623,623,623,623,623,623,623,624,625,625,625,625,625,625,625,625,625,625,625,625,625,625,625,625,625,625,625,625,626,626,626,626,626,626,626,626,626,626,625,624,620,612,609,608,607,606,606,606,608,610,611,611,611,611,611,611,611,611,611,611,611,611,611,611,611,603,594,581,546,503,419,385,316,235,190,173,158,154,150,146,136,131,127,120,114,109,91],"timestamp_mouse":[14,36,53,73,95,114,134,154,174,195,214,233,253,275,295,313,333,355,375,394,413,435,453,474,495,514,534,554,574,593,615,634,654,673,694,713,734,755,775,794,814,834,854,875,894,913,933,953,974,994,1013,1033,1055,1073,1094,1113,1133,1155,1173,1194,1215,1235,1254,1273,1293,1313,1334,1354,1374,1393,1414,1434,1454,1473,1493,1513,1533,1553,1573,1593,1614,1634,1655,1674,1694,1714,1733,1753,1775,1794,1814,1834,1854],"xSR":741.5,"ySR":573.95,"xT1":424.9,"yT1":0,"xT2":1058.1,"yT2":0,"toosoon":0,"cond_shown":"Incongruent","ratio_trial":300,"L_num":4,"L_den":20,"R_num":2,"R_den":4,"correct_side":2,"subjID":"juansebastiánmera24 ","gender":"0","school":"4","age":"9"},{"start_time":1552308743403,"click_time":1552308745438,"finger_time":1552308744818,"fix_duration":1197.1963723048339,"trial":18,"RT":1415,"MT":620,"sideResp":1,"stimulus":[],"xmouse":[812,812,812,812,812,812,812,812,812,812,812,812,812,812,812,812,812,812,812,812,812,811,811,810,810,809,808,807,806,806,805,805,805,805,805,805,805,805,805,805,805,805,805,804,804,803,802,802,802,802,802,802,802,801,800,799,799,798,798,795,794,793,792,791,791,791,791,790,787,782,753,716,680,652,651,650,650,650,650,648,643,637,626,620,614,603,599,593,587,582,571,565,560,559,558,554,550,544,539,534,520,516,510],"ymouse":[642,642,642,642,642,642,642,642,642,642,642,642,642,642,642,642,642,642,642,642,641,641,641,641,641,641,641,642,644,644,645,645,645,645,645,645,645,645,645,645,645,645,645,648,652,659,660,661,662,662,662,662,662,662,662,660,658,658,658,658,658,659,659,659,659,659,659,659,657,645,593,541,508,488,487,485,483,481,478,467,429,407,376,356,337,293,272,251,231,214,188,180,175,173,169,160,152,142,134,127,108,103,94],"timestamp_mouse":[1,15,36,55,75,97,116,137,156,177,195,215,236,256,275,295,316,335,356,375,395,417,435,456,475,495,516,535,555,577,596,617,637,656,676,696,716,736,757,775,796,815,835,855,875,897,915,935,956,975,996,1017,1035,1056,1075,1097,1115,1135,1155,1177,1196,1215,1235,1255,1277,1296,1317,1335,1356,1375,1395,1415,1436,1455,1476,1495,1516,1535,1555,1575,1595,1615,1635,1655,1675,1696,1715,1736,1756,1776,1795,1816,1836,1857,1876,1897,1916,1935,1955,2000,2002,2015,2035],"xSR":741.5,"ySR":573.95,"xT1":424.9,"yT1":0,"xT2":1058.1,"yT2":0,"toosoon":0,"cond_shown":"Congruent","ratio_trial":300,"L_num":9,"L_den":10,"R_num":3,"R_den":5,"correct_side":1,"subjID":"juansebastiánmera24 ","gender":"0","school":"4","age":"9"},{"start_time":1552308749272,"click_time":1552308750838,"finger_time":1552308750198,"fix_duration":311.50530696322954,"trial":19,"RT":926,"MT":640,"sideResp":1,"stimulus":[],"xmouse":[771,771,771,771,771,771,771,771,771,771,771,771,771,771,771,771,771,771,771,771,771,771,771,771,771,771,771,771,771,771,771,772,775,778,779,780,780,780,780,780,780,780,781,781,780,776,708,559,411,267,146,27,0,0,0,0,0,0,0,1,8,42,142,158,161,176,187,192,193,193,195,214,277,310,330,351,366,415,448],"ymouse":[623,623,623,623,623,623,623,623,623,623,623,623,623,623,623,623,623,623,623,623,623,623,623,623,623,623,623,623,623,623,623,624,625,627,627,627,627,627,627,627,627,627,627,623,616,603,487,301,145,3,0,0,0,0,0,0,0,0,0,1,4,13,24,24,24,21,17,14,14,13,13,13,18,22,25,30,32,40,45],"timestamp_mouse":[10,27,47,67,88,107,127,147,166,186,206,227,246,267,288,307,327,347,368,388,406,426,446,466,487,506,527,546,567,588,607,627,646,667,686,708,726,746,766,788,806,826,846,867,887,907,926,946,967,986,1007,1027,1046,1067,1086,1106,1126,1147,1167,1186,1206,1227,1246,1266,1287,1307,1326,1346,1366,1387,1406,1427,1446,1467,1488,1506,1527,1546,1566],"xSR":741.5,"ySR":573.95,"xT1":424.9,"yT1":0,"xT2":1058.1,"yT2":0,"toosoon":0,"cond_shown":"Congruent","ratio_trial":200,"L_num":7,"L_den":21,"R_num":2,"R_den":15,"correct_side":1,"subjID":"juansebastiánmera24 ","gender":"0","school":"4","age":"9"},{"start_time":1552308751870,"click_time":1552308752678,"finger_time":1552308752279,"fix_duration":250,"trial":20,"RT":409,"MT":399,"sideResp":1,"stimulus":[],"xmouse":[794,794,794,794,795,796,796,796,796,796,796,796,796,796,796,796,796,797,793,776,741,697,555,494,456,424,409,398,398,397,397,397,397,397,398,403,406,414,418,424,430],"ymouse":[648,648,648,648,648,647,647,647,647,647,647,647,647,647,647,647,647,647,634,609,555,478,254,170,111,19,0,0,0,0,0,0,0,0,0,0,1,3,4,5,8],"timestamp_mouse":[10,43,48,68,89,109,130,150,169,189,208,230,249,270,289,310,329,349,368,389,409,428,448,468,488,508,530,550,568,588,609,629,649,668,688,708,728,749,769,788,808],"xSR":741.5,"ySR":573.95,"xT1":424.9,"yT1":0,"xT2":1058.1,"yT2":0,"toosoon":0,"cond_shown":"Incongruent","ratio_trial":200,"L_num":9,"L_den":15,"R_num":8,"R_den":10,"correct_side":2,"subjID":"juansebastiánmera24 ","gender":"0","school":"4","age":"9"},{"start_time":1552308755169,"click_time":1552308757539,"finger_time":1552308756938,"fix_duration":828.4595492069399,"trial":21,"RT":1769,"MT":601,"sideResp":1,"stimulus":[],"xmouse":[791,792,794,794,795,795,796,798,798,798,798,799,800,801,801,801,801,801,801,801,801,801,801,801,801,801,801,801,801,801,801,801,801,801,801,801,801,801,801,801,801,801,801,801,801,801,801,801,801,801,801,801,801,801,801,801,801,801,801,801,801,801,801,801,801,801,801,801,801,801,801,801,801,801,801,801,801,801,801,801,801,801,801,801,801,801,801,794,783,770,756,740,704,686,668,650,629,592,562,539,525,520,519,520,524,529,534,537,537,537,536,535,531,529,523,510,494,467,440],"ymouse":[601,601,601,601,601,601,601,601,601,601,601,602,603,608,609,609,609,609,609,609,609,609,609,609,609,609,609,609,609,609,609,609,609,609,609,609,609,609,609,609,609,609,609,609,609,609,609,609,609,609,609,609,609,609,609,609,609,609,609,609,609,609,609,609,609,609,609,609,609,609,609,609,609,609,609,609,609,609,609,609,609,609,609,609,609,609,609,590,565,544,522,501,461,439,418,397,371,318,263,219,188,173,158,157,154,152,150,148,146,145,144,143,138,136,133,126,117,106,89],"timestamp_mouse":[10,30,52,69,90,110,131,149,169,190,209,229,249,269,289,311,329,349,370,391,410,429,450,471,489,510,529,550,570,589,610,630,650,670,691,709,729,751,769,789,810,830,851,869,891,910,930,950,971,991,1010,1030,1050,1069,1090,1111,1130,1151,1171,1191,1210,1229,1249,1271,1290,1311,1330,1349,1370,1390,1411,1429,1449,1471,1489,1509,1530,1551,1570,1589,1609,1629,1650,1671,1690,1711,1730,1750,1769,1789,1810,1829,1850,1869,1889,1909,1929,1949,1969,1990,2010,2029,2050,2069,2090,2110,2131,2149,2170,2190,2211,2230,2250,2269,2289,2309,2330,2349,2370],"xSR":741.5,"ySR":573.95,"xT1":424.9,"yT1":0,"xT2":1058.1,"yT2":0,"toosoon":0,"cond_shown":"Incongruent","ratio_trial":200,"L_num":3,"L_den":10,"R_num":1,"R_den":2,"correct_side":2,"subjID":"juansebastiánmera24 ","gender":"0","school":"4","age":"9"},{"start_time":1552308761673,"click_time":1552308763122,"finger_time":1552308762658,"fix_duration":852.4119663114917,"trial":22,"RT":985,"MT":464,"sideResp":2,"stimulus":[],"xmouse":[809,809,809,809,809,809,809,809,809,809,809,809,809,809,809,809,809,809,809,809,809,809,809,809,809,809,809,809,809,809,809,809,809,809,809,809,809,809,809,809,809,809,809,809,809,809,809,812,829,851,860,869,883,889,885,882,877,872,862,858,857,853,852,852,853,859,871,887,946,971,992,1028,1068],"ymouse":[647,647,647,647,647,647,647,647,647,647,647,647,647,647,647,647,647,647,647,647,647,647,647,647,647,647,647,647,647,647,647,647,647,647,647,647,647,647,647,647,647,647,647,647,647,647,647,644,633,619,596,576,548,496,466,439,413,379,335,313,308,297,295,295,293,292,289,282,230,192,154,95,45],"timestamp_mouse":[10,42,45,66,87,107,125,146,165,185,206,226,245,266,286,307,327,346,366,386,405,427,446,467,485,506,525,547,566,587,607,627,646,666,685,707,727,746,766,786,806,826,846,867,887,907,926,946,965,985,1006,1026,1046,1065,1085,1105,1126,1146,1165,1185,1206,1227,1247,1266,1286,1306,1327,1347,1365,1387,1406,1427,1447],"xSR":741.5,"ySR":573.95,"xT1":424.9,"yT1":0,"xT2":1058.1,"yT2":0,"toosoon":0,"cond_shown":"Incongruent","ratio_trial":100,"L_num":6,"L_den":10,"R_num":13,"R_den":26,"correct_side":1,"subjID":"juansebastiánmera24 ","gender":"0","school":"4","age":"9"},{"start_time":1552308765366,"click_time":1552308766700,"finger_time":1552308766298,"fix_duration":845.326450988083,"trial":23,"RT":932,"MT":402,"sideResp":1,"stimulus":[],"xmouse":[827,827,827,827,827,827,827,827,827,827,827,827,827,827,827,827,827,827,827,827,827,827,827,826,825,823,822,821,819,819,819,818,818,818,818,818,818,818,818,818,818,818,816,791,771,747,712,638,569,473,448,430,417,410,408,408,408,408,408,412,421,435,450,464,494,501,505],"ymouse":[614,614,614,614,614,614,614,614,614,614,614,614,614,614,614,614,614,614,614,614,614,614,615,615,615,615,616,616,617,617,617,617,617,617,617,617,617,617,617,617,617,617,617,612,611,608,599,574,535,438,391,338,251,204,174,172,171,171,171,169,168,164,159,150,122,108,97],"timestamp_mouse":[13,44,53,73,92,112,133,152,172,193,212,232,253,274,293,314,334,352,374,392,412,432,454,473,492,512,533,552,573,593,614,633,653,673,693,714,733,752,773,793,813,832,853,873,893,912,932,953,973,992,1012,1032,1053,1073,1094,1114,1132,1153,1174,1192,1213,1232,1253,1273,1294,1313,1334],"xSR":741.5,"ySR":573.95,"xT1":424.9,"yT1":0,"xT2":1058.1,"yT2":0,"toosoon":0,"cond_shown":"Congruent","ratio_trial":200,"L_num":20,"L_den":25,"R_num":9,"R_den":15,"correct_side":1,"subjID":"juansebastiánmera24 ","gender":"0","school":"4","age":"9"},{"start_time":1552308768982,"click_time":1552308770899,"finger_time":1552308770540,"fix_duration":1182.2307917615376,"trial":24,"RT":1558,"MT":359,"sideResp":2,"stimulus":[],"xmouse":[765,765,765,765,765,765,765,765,765,765,765,765,765,765,765,765,765,765,765,765,765,765,765,765,765,765,765,765,765,765,765,765,765,765,765,765,765,765,765,765,765,765,765,765,765,765,765,765,765,765,765,765,765,765,765,765,765,765,765,765,765,765,765,765,765,765,765,765,765,765,765,765,765,765,766,777,805,847,943,970,983,985,989,1007,1016,1024,1029,1034,1043,1049,1058,1075,1086,1099,1104,1109],"ymouse":[606,606,606,606,606,606,606,606,606,606,606,606,606,606,606,606,606,606,606,606,606,606,606,606,606,606,606,606,606,606,606,606,606,606,606,606,606,606,606,606,606,606,606,606,606,606,606,606,606,606,606,606,606,606,606,606,606,606,606,606,606,606,606,606,606,606,606,606,606,606,606,606,606,606,605,602,594,570,431,371,326,306,288,254,243,233,226,218,202,193,183,165,149,115,100,84],"timestamp_mouse":[17,42,56,77,97,118,138,157,178,198,217,237,256,276,298,317,338,356,378,397,416,437,456,477,497,517,536,557,577,598,618,638,657,676,696,718,737,757,776,796,817,838,858,877,898,916,936,957,976,998,1018,1037,1058,1077,1097,1117,1138,1158,1177,1198,1217,1236,1256,1278,1298,1317,1338,1357,1377,1397,1416,1437,1458,1477,1496,1517,1536,1558,1577,1597,1617,1636,1656,1677,1696,1718,1737,1757,1776,1798,1816,1837,1856,1876,1896,1917],"xSR":741.5,"ySR":573.95,"xT1":424.9,"yT1":0,"xT2":1058.1,"yT2":0,"toosoon":0,"cond_shown":"Congruent","ratio_trial":100,"L_num":4,"L_den":8,"R_num":6,"R_den":10,"correct_side":2,"subjID":"juansebastiánmera24 ","gender":"0","school":"4","age":"9"},{"start_time":1552308772894,"click_time":1552308773618,"finger_time":1552308773519,"fix_duration":853.8677898905866,"trial":25,"RT":625,"MT":99,"sideResp":2,"stimulus":[],"xmouse":[831,831,831,831,831,831,831,831,831,831,831,831,831,831,831,831,831,831,831,831,831,831,830,830,830,830,830,830,830,829,835,868,920,1010,1049,1060,1064],"ymouse":[655,655,655,655,655,655,655,655,655,655,655,655,655,655,655,655,655,655,655,655,655,655,655,655,655,655,655,655,655,643,590,502,404,237,137,101,77],"timestamp_mouse":[12,28,44,64,84,105,126,145,165,185,204,224,246,264,284,306,326,344,364,384,406,426,444,464,485,506,526,545,564,584,605,625,646,664,685,704,724],"xSR":741.5,"ySR":573.95,"xT1":424.9,"yT1":0,"xT2":1058.1,"yT2":0,"toosoon":0,"cond_shown":"Congruent","ratio_trial":200,"L_num":1,"L_den":2,"R_num":21,"R_den":30,"correct_side":2,"subjID":"juansebastiánmera24 ","gender":"0","school":"4","age":"9"},{"start_time":1552308774991,"click_time":1552308777339,"finger_time":1552308777138,"fix_duration":250,"trial":26,"RT":2147,"MT":201,"sideResp":1,"stimulus":[],"xmouse":[767,767,767,767,767,767,767,767,767,768,768,768,768,769,772,775,779,787,791,791,791,791,791,791,791,792,792,793,795,796,796,796,796,796,796,796,796,796,796,796,796,796,796,796,796,796,796,796,796,796,796,796,796,796,796,796,796,796,796,796,796,796,796,796,796,796,796,796,796,796,796,796,796,796,796,796,796,796,796,796,796,796,796,796,796,796,796,796,796,796,796,796,796,796,796,796,795,795,795,795,795,795,795,793,791,784,773,741,710,626,595,571,545,513,501,493,482,474],"ymouse":[629,629,629,629,629,629,629,629,629,629,629,629,629,629,627,627,625,621,619,619,619,619,619,619,619,619,619,618,618,618,618,618,618,618,618,618,618,618,618,618,618,618,618,618,618,618,618,618,618,618,618,618,618,618,618,618,618,618,618,618,618,618,618,618,618,618,618,618,618,618,618,618,618,618,618,618,618,618,618,618,618,618,618,618,618,618,618,618,618,618,618,618,618,618,618,617,616,616,616,616,616,616,616,615,613,601,583,506,443,309,267,231,188,146,130,119,101,90],"timestamp_mouse":[10,28,47,68,88,108,128,149,167,188,207,229,247,268,287,309,327,348,368,388,408,429,449,467,488,509,528,548,567,589,607,628,649,667,687,709,728,747,768,787,808,829,847,868,888,909,929,948,969,989,1009,1028,1048,1068,1089,1109,1128,1147,1169,1188,1207,1227,1247,1268,1287,1309,1329,1347,1368,1388,1408,1429,1447,1467,1487,1509,1528,1547,1568,1589,1608,1628,1647,1669,1688,1708,1728,1749,1768,1787,1807,1829,1849,1869,1887,1908,1929,1948,1968,1987,2009,2029,2047,2067,2087,2108,2128,2147,2168,2187,2209,2227,2248,2269,2287,2307,2328,2347],"xSR":741.5,"ySR":573.95,"xT1":424.9,"yT1":0,"xT2":1058.1,"yT2":0,"toosoon":0,"cond_shown":"Congruent","ratio_trial":200,"L_num":6,"L_den":15,"R_num":3,"R_den":15,"correct_side":1,"subjID":"juansebastiánmera24 ","gender":"0","school":"4","age":"9"},{"start_time":1552308779528,"click_time":1552308780278,"finger_time":1552308780138,"fix_duration":627.1267482711862,"trial":27,"RT":610,"MT":140,"sideResp":2,"stimulus":[],"xmouse":[765,765,765,765,763,762,759,758,758,758,760,763,766,768,769,772,775,777,779,781,783,784,787,790,795,799,804,806,806,808,814,836,894,930,971,1020,1063,1121],"ymouse":[636,636,636,636,636,637,639,641,641,641,642,643,643,643,643,643,643,643,643,643,643,643,642,641,637,634,628,609,597,574,555,502,394,328,266,190,118,35],"timestamp_mouse":[11,31,52,70,90,111,130,151,170,190,210,230,250,270,290,311,332,350,371,390,411,431,450,470,490,510,531,550,571,590,610,631,650,670,692,711,730,750],"xSR":741.5,"ySR":573.95,"xT1":424.9,"yT1":0,"xT2":1058.1,"yT2":0,"toosoon":0,"cond_shown":"Incongruent","ratio_trial":300,"L_num":7,"L_den":10,"R_num":8,"R_den":20,"correct_side":1,"subjID":"juansebastiánmera24 ","gender":"0","school":"4","age":"9"},{"start_time":1552308782208,"click_time":1552308782819,"finger_time":1552308782479,"fix_duration":526.169155292438,"trial":28,"RT":271,"MT":340,"sideResp":1,"stimulus":[],"xmouse":[817,816,816,816,816,816,816,816,816,816,813,812,805,780,774,764,753,740,715,702,688,676,668,654,644,636,620,601,553,527,500],"ymouse":[598,598,598,598,598,598,598,598,598,598,597,592,580,541,527,505,474,430,340,297,264,237,219,193,185,179,165,152,121,109,98],"timestamp_mouse":[10,31,53,70,92,111,132,151,171,191,211,231,250,271,290,311,332,351,371,390,410,430,451,471,491,510,531,551,571,590,610],"xSR":741.5,"ySR":573.95,"xT1":424.9,"yT1":0,"xT2":1058.1,"yT2":0,"toosoon":0,"cond_shown":"Congruent","ratio_trial":300,"L_num":8,"L_den":16,"R_num":1,"R_den":5,"correct_side":1,"subjID":"juansebastiánmera24 ","gender":"0","school":"4","age":"9"},{"start_time":1552308784989,"click_time":1552308785939,"finger_time":1552308785220,"fix_duration":928.6495461450214,"trial":29,"RT":231,"MT":719,"sideResp":1,"stimulus":[],"xmouse":[759,759,759,759,759,758,756,755,751,748,743,738,734,723,718,684,665,644,619,605,595,595,595,595,595,595,595,595,594,594,589,584,577,569,562,560,556,553,550,548,548,548,548,548,547,538,527,515],"ymouse":[607,608,609,609,609,609,609,609,608,604,592,581,566,529,513,403,335,259,167,70,0,0,0,0,0,0,0,0,0,0,0,3,16,36,51,53,55,55,55,55,55,55,55,55,55,55,55,55],"timestamp_mouse":[23,39,50,71,90,109,129,150,170,191,209,231,250,271,290,310,329,350,370,390,409,429,450,470,491,510,529,550,569,590,610,631,650,670,693,710,731,749,771,791,811,830,851,870,889,909,930,949],"xSR":741.5,"ySR":573.95,"xT1":424.9,"yT1":0,"xT2":1058.1,"yT2":0,"toosoon":0,"cond_shown":"Incongruent","ratio_trial":200,"L_num":7,"L_den":10,"R_num":8,"R_den":16,"correct_side":1,"subjID":"juansebastiánmera24 ","gender":"0","school":"4","age":"9"},{"start_time":1552308788750,"click_time":1552308790339,"finger_time":1552308790238,"fix_duration":250,"trial":30,"RT":1488,"MT":101,"sideResp":2,"stimulus":[],"xmouse":[838,837,836,836,835,834,834,831,830,830,830,830,830,829,828,827,826,828,829,830,831,831,830,829,829,829,829,829,829,829,830,830,829,828,825,822,821,819,818,818,818,817,816,815,814,814,814,814,814,812,812,812,810,808,808,808,808,808,808,808,808,808,808,808,808,808,807,806,806,805,805,805,805,813,831,871,918,1006,1054,1086],"ymouse":[639,639,639,639,639,639,639,640,640,641,641,641,641,641,641,640,640,639,639,639,638,625,601,598,597,597,597,597,597,597,598,601,609,612,618,620,622,623,624,624,624,624,624,624,624,624,624,624,624,625,625,626,626,627,627,627,627,627,627,627,627,627,627,627,627,627,627,626,626,624,624,622,614,598,568,501,438,298,200,94],"timestamp_mouse":[12,34,49,68,88,110,128,148,169,190,209,228,249,269,288,309,328,349,368,390,409,429,448,469,489,508,529,550,568,590,608,630,648,668,688,709,729,748,769,789,808,829,849,869,890,909,929,949,969,989,1008,1029,1048,1069,1089,1109,1128,1148,1170,1190,1208,1229,1250,1270,1289,1309,1330,1348,1368,1389,1409,1429,1448,1469,1488,1510,1529,1548,1568,1589],"xSR":741.5,"ySR":573.95,"xT1":424.9,"yT1":0,"xT2":1058.1,"yT2":0,"toosoon":0,"cond_shown":"Congruent","ratio_trial":300,"L_num":3,"L_den":6,"R_num":2,"R_den":10,"correct_side":1,"subjID":"juansebastiánmera24 ","gender":"0","school":"4","age":"9"},{"start_time":1552308792108,"click_time":1552308793959,"finger_time":1552308793679,"fix_duration":508.133071548188,"trial":31,"RT":1571,"MT":280,"sideResp":1,"stimulus":[],"xmouse":[803,803,803,803,803,803,803,803,803,803,803,803,803,803,803,803,803,803,803,800,796,792,788,782,775,774,774,772,772,772,772,772,772,774,782,788,795,801,806,808,809,809,809,810,810,810,810,810,810,810,810,810,810,810,810,810,810,810,810,810,810,810,810,810,810,810,810,810,810,810,810,810,810,810,804,798,788,776,760,712,684,645,617,600,586,576,572,564,554,545,529,525,520],"ymouse":[626,626,626,626,626,626,626,626,626,626,626,626,627,627,627,627,627,627,627,627,626,626,626,626,627,627,627,626,626,625,625,623,623,623,622,622,622,622,622,623,623,623,623,624,624,624,624,624,624,624,624,624,624,624,624,624,624,624,624,624,624,624,624,624,624,624,624,624,624,624,624,624,624,624,619,612,601,585,563,462,377,288,226,193,168,152,147,140,129,116,83,69,53],"timestamp_mouse":[15,38,50,71,91,110,130,151,170,191,211,232,252,271,290,311,331,351,371,391,410,431,451,472,491,512,530,551,570,592,610,632,651,671,691,711,730,751,770,790,810,832,850,872,892,910,932,950,972,990,1010,1030,1051,1071,1091,1110,1130,1150,1172,1190,1212,1232,1251,1271,1292,1311,1331,1351,1372,1390,1411,1431,1451,1470,1492,1511,1530,1552,1571,1592,1610,1631,1651,1670,1691,1710,1730,1750,1771,1791,1810,1832,1851],"xSR":741.5,"ySR":573.95,"xT1":424.9,"yT1":0,"xT2":1058.1,"yT2":0,"toosoon":0,"cond_shown":"Congruent","ratio_trial":100,"L_num":6,"L_den":20,"R_num":5,"R_den":25,"correct_side":1,"subjID":"juansebastiánmera24 ","gender":"0","school":"4","age":"9"},{"start_time":1552308796807,"click_time":1552308798598,"finger_time":1552308798238,"fix_duration":1487.1310541831365,"trial":32,"RT":1431,"MT":360,"sideResp":2,"stimulus":[],"xmouse":[803,803,803,802,802,801,800,800,800,800,800,800,800,800,800,800,800,800,800,800,800,800,800,800,800,800,800,800,800,800,800,800,800,800,800,800,800,800,800,800,800,800,800,800,800,800,800,800,800,800,800,800,800,800,800,800,800,800,800,800,800,800,800,800,800,800,800,800,800,800,796,796,809,835,867,921,949,959,969,979,1001,1019,1041,1067,1100,1118,1123,1124,1124,1125],"ymouse":[600,600,600,601,601,602,603,603,603,603,603,603,603,603,603,603,603,603,603,603,603,603,603,603,603,603,603,603,603,603,603,603,603,603,603,603,603,603,603,603,603,604,604,604,604,604,604,604,604,604,604,604,604,604,604,604,604,604,604,604,604,604,604,604,604,604,604,604,604,603,581,551,489,425,372,307,273,258,247,238,226,216,204,188,165,147,133,111,100,94],"timestamp_mouse":[11,44,51,71,91,111,132,152,171,191,212,231,251,272,293,311,332,353,372,393,412,433,452,473,491,512,532,552,572,592,612,631,652,672,691,713,732,752,772,792,813,832,851,872,893,912,931,953,972,992,1012,1033,1052,1072,1091,1112,1132,1152,1173,1191,1213,1232,1252,1273,1293,1311,1332,1353,1372,1391,1412,1431,1453,1472,1493,1511,1533,1552,1572,1592,1611,1631,1653,1672,1691,1712,1731,1752,1772,1791],"xSR":741.5,"ySR":573.95,"xT1":424.9,"yT1":0,"xT2":1058.1,"yT2":0,"toosoon":0,"cond_shown":"Congruent","ratio_trial":200,"L_num":13,"L_den":26,"R_num":14,"R_den":20,"correct_side":2,"subjID":"juansebastiánmera24 ","gender":"0","school":"4","age":"9"},{"start_time":1552308800633,"click_time":1552308802438,"finger_time":1552308801940,"fix_duration":612.8947315205704,"trial":33,"RT":1307,"MT":498,"sideResp":1,"stimulus":[],"xmouse":[791,791,791,791,791,791,791,791,791,791,791,791,791,791,791,793,795,796,797,800,801,801,801,801,801,801,801,801,801,801,801,801,801,801,801,801,801,801,801,801,801,801,801,801,801,801,801,801,801,801,801,801,801,801,801,801,801,801,801,801,796,789,784,779,765,753,733,711,689,678,655,640,623,605,575,563,549,529,499,446,433,426,420,416,415,415,415,416,417,420,443],"ymouse":[597,597,597,597,597,597,597,597,597,597,597,597,597,599,600,600,601,601,601,601,601,601,601,601,601,601,601,601,601,601,601,601,601,601,601,601,601,601,601,601,601,601,601,601,601,601,601,601,601,601,601,601,601,601,601,601,601,601,601,601,601,601,601,599,574,551,517,475,434,405,359,346,335,323,298,288,275,253,220,175,163,151,135,117,76,66,57,52,51,50,56],"timestamp_mouse":[10,27,45,66,86,106,127,145,165,185,205,226,245,267,285,307,325,346,366,385,405,427,447,465,485,507,526,547,565,586,607,625,646,667,686,706,725,745,766,786,806,826,847,867,887,905,927,947,966,986,1005,1026,1046,1067,1087,1107,1126,1147,1167,1187,1205,1225,1245,1267,1286,1307,1326,1347,1366,1386,1405,1426,1445,1465,1486,1506,1525,1545,1565,1586,1605,1626,1646,1666,1686,1705,1725,1747,1766,1786,1805],"xSR":741.5,"ySR":573.95,"xT1":424.9,"yT1":0,"xT2":1058.1,"yT2":0,"toosoon":0,"cond_shown":"Incongruent","ratio_trial":100,"L_num":13,"L_den":26,"R_num":12,"R_den":20,"correct_side":2,"subjID":"juansebastiánmera24 ","gender":"0","school":"4","age":"9"},{"start_time":1552308805821,"click_time":1552308808299,"finger_time":1552308808038,"fix_duration":1081.5818872612988,"trial":34,"RT":2217,"MT":261,"sideResp":2,"stimulus":[],"xmouse":[774,774,774,774,774,774,774,774,774,774,774,774,774,774,774,774,774,774,774,774,774,774,774,774,774,774,774,774,774,774,774,774,774,774,774,774,774,774,774,774,774,774,774,774,774,774,774,774,774,774,774,774,774,774,774,774,774,774,774,774,774,774,774,774,774,774,774,774,774,774,774,774,774,774,774,774,774,774,774,774,774,774,774,774,774,774,774,774,774,774,774,774,774,774,774,774,774,772,770,768,768,768,768,768,768,768,768,774,786,797,795,795,794,794,794,803,816,832,851,866,893,931,1043,1132],"ymouse":[614,614,614,614,614,614,614,614,614,614,614,614,614,614,614,614,614,614,614,614,614,614,614,614,614,614,614,614,614,614,614,614,614,614,614,614,614,614,614,614,614,614,614,614,614,614,614,614,614,614,614,614,614,614,614,614,614,614,614,614,614,614,614,614,614,614,614,614,614,614,614,614,614,614,614,614,614,614,614,614,614,614,614,614,614,614,614,614,614,614,614,614,614,614,614,614,614,614,614,613,613,613,613,613,613,613,613,606,595,579,567,567,565,553,533,465,419,369,326,291,246,194,82,6],"timestamp_mouse":[17,43,58,79,97,118,139,158,178,198,217,239,259,278,298,319,338,357,379,398,417,437,458,478,498,518,539,558,579,598,618,638,659,679,698,718,738,759,778,798,818,838,858,877,898,917,938,959,978,998,1018,1039,1057,1079,1097,1119,1137,1158,1179,1197,1219,1239,1258,1278,1299,1317,1337,1357,1378,1399,1418,1437,1458,1478,1498,1518,1539,1557,1578,1597,1618,1637,1659,1679,1699,1718,1738,1757,1778,1798,1818,1838,1859,1878,1898,1917,1937,1958,1979,1997,2018,2038,2058,2078,2098,2119,2138,2158,2178,2199,2217,2238,2257,2277,2297,2317,2338,2359,2377,2397,2417,2439,2458,2478],"xSR":741.5,"ySR":573.95,"xT1":424.9,"yT1":0,"xT2":1058.1,"yT2":0,"toosoon":0,"cond_shown":"Incongruent","ratio_trial":100,"L_num":10,"L_den":25,"R_num":9,"R_den":18,"correct_side":2,"subjID":"juansebastiánmera24 ","gender":"0","school":"4","age":"9"},{"start_time":1552308810907,"click_time":1552308812179,"finger_time":1552308811740,"fix_duration":647.1241124536394,"trial":35,"RT":833,"MT":439,"sideResp":2,"stimulus":[],"xmouse":[775,775,775,777,778,779,785,788,790,790,790,790,790,790,790,790,790,790,790,790,790,790,790,790,790,790,790,790,790,790,789,789,788,788,788,788,788,786,786,785,785,812,852,907,953,997,1015,1024,1023,1017,1014,1013,1011,1011,1011,1015,1015,1020,1024,1027,1032,1037,1054,1062],"ymouse":[627,627,627,626,624,623,616,614,613,613,613,613,613,613,613,613,613,613,613,613,613,613,613,613,613,613,613,613,613,614,616,618,619,619,619,619,620,619,615,610,602,570,540,500,461,407,368,292,249,211,178,152,104,85,79,70,63,53,52,50,50,49,49,49],"timestamp_mouse":[13,41,53,72,91,111,132,153,172,193,213,232,251,273,292,312,331,352,371,393,413,432,453,473,491,512,531,553,571,592,611,633,653,672,693,712,731,753,771,792,812,833,852,872,891,912,931,953,972,992,1012,1031,1051,1072,1091,1111,1131,1151,1172,1191,1211,1232,1252,1272],"xSR":741.5,"ySR":573.95,"xT1":424.9,"yT1":0,"xT2":1058.1,"yT2":0,"toosoon":0,"cond_shown":"Incongruent","ratio_trial":300,"L_num":8,"L_den":10,"R_num":14,"R_den":28,"correct_side":1,"subjID":"juansebastiánmera24 ","gender":"0","school":"4","age":"9"},{"start_time":1552308814486,"click_time":1552308816319,"finger_time":1552308815858,"fix_duration":1246.5759532176653,"trial":36,"RT":1372,"MT":461,"sideResp":1,"stimulus":[],"xmouse":[782,782,782,782,782,782,782,782,782,782,782,782,782,782,782,782,782,782,782,782,782,782,782,782,782,782,782,782,782,782,782,782,782,782,782,782,782,782,782,782,782,782,782,782,782,782,782,782,782,782,782,782,782,782,782,782,782,782,782,782,782,782,782,779,774,763,759,752,733,719,699,670,649,615,583,569,560,556,551,549,547,544,540,526,512,507,506,502,491,481,474,468],"ymouse":[647,647,647,647,647,647,647,647,647,647,647,647,647,647,647,647,647,647,647,647,647,647,647,647,647,647,647,647,647,647,647,647,647,647,647,647,647,647,647,647,647,647,647,647,647,647,647,647,647,647,647,647,647,647,647,646,646,646,646,646,646,646,646,645,641,626,611,588,516,467,409,346,288,246,224,215,210,207,204,203,202,200,196,183,169,163,159,151,136,120,106,89],"timestamp_mouse":[12,47,53,74,92,113,133,152,172,192,214,232,252,274,294,312,332,354,374,394,414,432,453,474,494,512,533,553,573,594,613,632,654,673,692,712,733,754,774,793,812,832,852,874,893,914,933,953,972,993,1013,1033,1053,1074,1094,1113,1133,1153,1172,1194,1214,1233,1254,1272,1293,1312,1333,1353,1372,1393,1412,1433,1453,1473,1494,1513,1533,1552,1572,1592,1613,1633,1652,1672,1694,1713,1733,1752,1772,1792,1814,1833],"xSR":741.5,"ySR":573.95,"xT1":424.9,"yT1":0,"xT2":1058.1,"yT2":0,"toosoon":0,"cond_shown":"Congruent","ratio_trial":200,"L_num":14,"L_den":28,"R_num":6,"R_den":20,"correct_side":1,"subjID":"juansebastiánmera24 ","gender":"0","school":"4","age":"9"},{"start_time":1552308818092,"click_time":1552308820240,"finger_time":1552308819460,"fix_duration":691.634380802594,"trial":37,"RT":1368,"MT":780,"sideResp":1,"stimulus":[],"xmouse":[780,780,780,780,780,780,780,780,780,780,780,780,780,780,780,779,779,779,778,778,778,778,778,778,778,778,778,778,777,777,775,774,773,771,768,768,768,768,768,768,768,768,768,768,768,768,768,768,768,768,768,768,768,768,768,768,768,768,768,768,768,768,768,768,765,761,753,746,722,718,717,717,717,717,716,714,711,703,677,667,655,643,629,562,538,512,482,442,347,297,252,220,207,207,207,209,217,226,233,257,275,294,304,314,347,369,399,446],"ymouse":[632,632,632,632,632,632,632,632,632,632,632,632,632,632,632,632,632,632,633,633,633,633,633,633,633,633,633,633,634,634,636,638,640,643,646,646,646,646,646,646,646,646,646,646,646,646,646,646,646,646,646,646,646,646,646,646,646,646,646,646,646,646,646,647,644,639,631,625,609,606,606,605,605,605,603,602,598,591,570,562,551,536,515,411,364,300,242,175,44,0,0,0,0,0,0,0,3,5,8,15,19,21,23,23,23,23,22,22],"timestamp_mouse":[10,41,46,67,87,107,127,146,167,188,208,228,248,267,286,307,327,346,367,386,407,428,448,467,487,506,528,548,566,586,607,627,647,667,686,706,728,747,766,788,808,827,847,867,888,908,928,948,966,987,1008,1026,1047,1066,1088,1106,1127,1146,1166,1188,1206,1227,1247,1266,1288,1306,1327,1346,1368,1386,1407,1426,1447,1466,1488,1507,1527,1547,1567,1586,1606,1626,1648,1667,1687,1707,1728,1747,1767,1788,1806,1827,1847,1868,1887,1907,1927,1948,1968,1987,2007,2026,2046,2066,2087,2106,2127,2148],"xSR":741.5,"ySR":573.95,"xT1":424.9,"yT1":0,"xT2":1058.1,"yT2":0,"toosoon":0,"cond_shown":"Incongruent","ratio_trial":300,"L_num":1,"L_den":2,"R_num":2,"R_den":10,"correct_side":1,"subjID":"juansebastiánmera24 ","gender":"0","school":"4","age":"9"},{"start_time":1552308824004,"click_time":1552308825939,"finger_time":1552308825479,"fix_duration":363.6767931095576,"trial":38,"RT":1475,"MT":460,"sideResp":2,"stimulus":[],"xmouse":[817,817,817,817,816,813,813,813,813,813,813,813,813,813,813,813,813,813,813,813,813,813,813,813,813,813,813,813,813,813,813,813,813,813,813,813,813,813,813,813,813,813,813,813,813,813,813,813,813,813,813,813,813,813,813,813,813,813,813,813,813,813,813,813,813,813,813,813,813,813,813,812,812,849,897,943,967,975,983,997,1012,1022,1027,1022,1018,1016,1015,1015,1015,1015,1015,1015,1015,1020,1032,1048,1070],"ymouse":[637,637,637,637,638,639,639,639,639,639,639,639,639,639,639,639,639,639,639,639,639,639,639,639,639,639,639,639,639,639,639,639,639,639,639,639,639,639,639,639,639,639,639,639,639,639,639,639,639,639,639,639,639,639,639,639,639,639,639,639,639,639,639,639,639,639,639,639,639,639,639,637,633,575,534,495,471,450,369,287,208,142,96,52,46,45,44,44,44,44,44,44,44,47,52,55,58],"timestamp_mouse":[15,47,55,75,95,115,134,155,175,195,214,234,256,275,294,314,335,356,375,395,416,435,454,476,495,516,535,555,574,595,615,636,655,676,694,716,735,756,776,794,816,835,855,875,895,914,934,955,974,995,1016,1035,1054,1076,1095,1115,1136,1154,1174,1195,1215,1234,1254,1275,1296,1314,1335,1354,1376,1395,1415,1434,1455,1475,1495,1514,1535,1555,1575,1594,1615,1635,1656,1675,1695,1715,1735,1754,1775,1794,1815,1835,1856,1875,1894,1916,1935],"xSR":741.5,"ySR":573.95,"xT1":424.9,"yT1":0,"xT2":1058.1,"yT2":0,"toosoon":0,"cond_shown":"Congruent","ratio_trial":100,"L_num":9,"L_den":15,"R_num":8,"R_den":16,"correct_side":1,"subjID":"juansebastiánmera24 ","gender":"0","school":"4","age":"9"},{"start_time":1552308827561,"click_time":1552308830059,"finger_time":1552308827879,"fix_duration":519.8877727125046,"trial":39,"RT":318,"MT":2180,"sideResp":1,"stimulus":[],"xmouse":[759,759,759,759,759,759,759,759,759,759,759,759,759,759,759,759,756,755,755,755,755,755,755,755,755,755,755,755,755,755,755,755,755,755,755,755,755,756,762,770,775,789,793,795,795,796,797,797,797,797,797,797,797,797,798,798,798,798,798,798,798,799,799,799,800,800,801,802,803,804,805,807,807,807,807,807,807,806,806,806,806,805,805,805,805,805,805,805,805,805,805,805,805,805,805,805,805,805,805,805,805,805,805,803,800,797,794,785,778,773,768,765,760,758,754,745,725,691,673,659,644,616,548,521,495,488],"ymouse":[599,599,599,599,599,599,599,599,599,599,599,599,599,597,592,586,565,555,547,540,534,526,525,523,521,519,519,517,516,516,516,515,515,515,515,515,515,516,524,535,543,565,572,575,577,580,580,580,580,580,581,581,581,581,581,581,581,581,581,581,581,580,580,580,580,580,580,580,581,584,585,590,593,595,598,599,601,604,605,605,605,606,606,606,606,606,606,606,606,606,606,606,606,606,606,606,606,606,606,606,606,607,607,607,606,603,601,594,587,581,577,572,562,553,533,507,455,384,354,328,304,272,193,159,106,83],"timestamp_mouse":[1,18,38,59,78,98,119,138,159,178,197,219,237,258,278,298,318,338,358,379,398,418,437,458,478,497,517,538,558,577,597,618,638,658,679,698,718,738,759,778,798,818,838,858,878,899,917,938,957,979,998,1018,1038,1057,1077,1097,1118,1139,1158,1177,1197,1217,1238,1259,1279,1297,1317,1338,1359,1377,1398,1418,1437,1458,1477,1498,1518,1538,1559,1577,1597,1619,1639,1658,1679,1698,1719,1738,1757,1777,1797,1817,1837,1857,1878,1899,1918,1939,1957,1978,1998,2018,2037,2058,2078,2098,2118,2137,2157,2177,2198,2217,2237,2258,2278,2298,2318,2338,2358,2379,2398,2418,2437,2458,2478,2498],"xSR":741.5,"ySR":573.95,"xT1":424.9,"yT1":0,"xT2":1058.1,"yT2":0,"toosoon":0,"cond_shown":"Congruent","ratio_trial":300,"L_num":8,"L_den":16,"R_num":1,"R_den":5,"correct_side":1,"subjID":"juansebastiánmera24 ","gender":"0","school":"4","age":"9"},{"start_time":1552308833050,"click_time":1552308836100,"finger_time":1552308835879,"fix_duration":348.35695968895476,"trial":40,"RT":2829,"MT":221,"sideResp":2,"stimulus":[],"xmouse":[813,813,813,813,813,813,813,813,813,813,813,813,813,813,813,813,813,813,813,813,813,813,813,813,813,813,813,813,813,813,813,813,813,813,813,813,813,813,813,813,813,813,813,813,813,813,813,813,813,813,813,813,813,813,813,813,813,813,813,813,813,813,813,813,813,813,813,813,813,813,813,813,813,813,813,813,813,813,813,813,813,813,813,813,813,813,813,813,813,813,813,813,813,813,813,813,813,813,813,813,813,813,813,813,813,813,813,813,813,813,813,813,813,813,813,813,813,813,813,813,813,813,813,813,813,813,813,813,813,813,813,813,813,813,813,813,813,813,813,814,814,807,820,852,893,953,1020,1104,1110,1111,1111,1112,1117],"ymouse":[638,638,638,638,638,638,638,638,638,638,638,638,638,638,638,638,638,638,638,638,638,638,638,638,638,638,638,638,638,638,638,638,638,638,638,638,638,638,638,638,638,638,638,638,638,638,638,638,638,638,638,638,638,638,638,638,638,638,638,638,638,638,638,638,638,638,638,638,638,638,638,638,638,638,638,638,638,638,638,638,638,638,638,638,638,638,638,638,638,638,638,638,638,638,638,638,638,638,638,638,638,638,638,638,638,638,638,638,638,638,638,638,638,638,638,638,638,638,638,638,638,638,638,638,638,638,638,638,638,638,638,638,638,638,638,638,638,638,638,636,585,459,163,18,0,0,0,0,0,0,0,0,8],"timestamp_mouse":[9,43,49,70,90,109,129,148,169,190,209,229,249,268,290,310,329,348,368,389,409,429,448,469,490,510,529,548,569,589,608,630,650,670,688,708,730,750,770,788,809,828,850,870,889,908,929,948,969,989,1011,1028,1048,1068,1089,1108,1128,1148,1169,1188,1208,1228,1248,1269,1289,1309,1330,1350,1368,1390,1410,1428,1449,1469,1489,1509,1529,1548,1569,1588,1609,1629,1650,1668,1689,1710,1729,1749,1769,1789,1809,1829,1849,1869,1889,1909,1928,1949,1970,1990,2009,2029,2050,2068,2088,2110,2129,2149,2169,2189,2210,2229,2249,2270,2288,2309,2329,2349,2370,2390,2410,2428,2449,2469,2490,2508,2529,2548,2570,2590,2608,2630,2649,2670,2690,2709,2728,2749,2770,2788,2809,2829,2848,2868,2888,2909,2929,2948,2970,2989,3009,3029,3050],"xSR":741.5,"ySR":573.95,"xT1":424.9,"yT1":0,"xT2":1058.1,"yT2":0,"toosoon":0,"cond_shown":"Incongruent","ratio_trial":200,"L_num":1,"L_den":3,"R_num":2,"R_den":15,"correct_side":1,"subjID":"juansebastiánmera24 ","gender":"0","school":"4","age":"9"},{"start_time":1552308839903,"click_time":1552308841659,"finger_time":1552308840918,"fix_duration":742.4628054558655,"trial":41,"RT":1015,"MT":741,"sideResp":2,"stimulus":[],"xmouse":[802,802,802,802,802,802,802,802,802,802,802,802,802,802,801,800,800,800,800,800,800,800,800,800,800,799,799,799,799,799,799,799,799,799,799,799,799,799,799,799,799,799,799,799,799,799,799,803,813,824,844,844,844,844,844,844,844,844,844,844,844,869,903,948,992,1072,1103,1148,1192,1222,1240,1240,1235,1231,1228,1220,1215,1212,1207,1201,1199,1199,1199,1199,1199,1190,1169,1147],"ymouse":[605,605,605,605,605,605,605,606,606,606,606,606,606,606,606,607,607,607,607,607,607,607,607,607,607,607,607,607,607,607,607,607,607,607,607,607,607,607,607,607,607,607,607,607,607,607,605,601,590,581,570,570,570,570,570,570,570,570,570,570,570,555,536,511,480,418,380,327,276,239,196,174,157,139,120,90,80,75,72,70,69,69,69,69,69,69,65,58],"timestamp_mouse":[23,49,55,76,96,115,136,156,176,197,215,236,256,277,297,316,336,355,375,396,416,436,456,475,495,516,536,556,575,597,617,636,657,677,696,716,736,756,776,796,816,836,856,876,896,916,936,956,977,996,1015,1036,1056,1076,1096,1117,1137,1156,1176,1197,1215,1236,1256,1276,1295,1315,1335,1356,1376,1396,1415,1436,1456,1476,1496,1515,1535,1555,1575,1597,1616,1636,1655,1675,1695,1716,1735,1756],"xSR":741.5,"ySR":573.95,"xT1":424.9,"yT1":0,"xT2":1058.1,"yT2":0,"toosoon":0,"cond_shown":"Congruent","ratio_trial":100,"L_num":4,"L_den":10,"R_num":15,"R_den":30,"correct_side":2,"subjID":"juansebastiánmera24 ","gender":"0","school":"4","age":"9"},{"start_time":1552308843222,"click_time":1552308844919,"finger_time":1552308843638,"fix_duration":681.4918644513211,"trial":42,"RT":416,"MT":1281,"sideResp":1,"stimulus":[],"xmouse":[781,781,781,781,780,780,780,780,780,780,779,779,778,778,777,777,776,784,790,801,819,826,830,835,840,850,853,856,860,863,876,882,885,885,885,885,884,878,868,845,835,828,822,817,802,790,784,782,780,780,780,780,780,780,780,795,818,849,887,943,953,960,969,987,1005,1012,1018,1021,1024,1025,1025,1025,1025,1022,993,969,927,893,864,824,689,619,557,519,475],"ymouse":[617,617,617,617,618,618,618,618,618,618,621,624,625,629,631,632,632,615,605,584,542,527,521,518,516,516,516,516,514,510,491,483,477,474,473,473,473,479,491,518,530,542,554,565,592,613,622,628,630,631,631,631,631,631,630,609,583,541,479,337,274,228,206,185,161,153,145,141,136,134,134,134,134,143,177,198,222,234,239,239,203,175,147,128,98],"timestamp_mouse":[17,40,57,77,96,118,138,156,178,197,216,238,257,276,297,316,338,357,377,396,416,437,457,477,497,518,537,557,577,597,616,638,656,678,697,718,736,758,777,797,816,836,856,877,897,918,936,957,977,998,1018,1038,1057,1077,1096,1118,1136,1156,1177,1197,1216,1237,1258,1278,1296,1317,1337,1357,1377,1397,1416,1437,1457,1478,1497,1516,1537,1556,1577,1597,1616,1637,1657,1678,1697],"xSR":741.5,"ySR":573.95,"xT1":424.9,"yT1":0,"xT2":1058.1,"yT2":0,"toosoon":0,"cond_shown":"Incongruent","ratio_trial":200,"L_num":4,"L_den":5,"R_num":6,"R_den":10,"correct_side":1,"subjID":"juansebastiánmera24 ","gender":"0","school":"4","age":"9"},{"start_time":1552308848342,"click_time":1552308849820,"finger_time":1552308848478,"fix_duration":1200.1191569717141,"trial":43,"RT":136,"MT":1342,"sideResp":1,"stimulus":[],"xmouse":[750,749,749,749,749,746,740,733,724,717,717,717,717,717,717,717,717,717,717,717,717,717,717,717,717,717,717,717,719,750,756,757,757,757,757,757,757,757,757,759,759,760,760,760,752,727,681,614,550,485,480,481,481,481,476,476,476,476,476,491,516,529,538,538,538,535,534,526,522,514,512,508,505,502],"ymouse":[626,626,626,626,626,627,631,640,651,659,659,659,659,659,659,659,659,659,659,659,659,659,659,659,659,659,659,659,659,659,659,659,659,659,659,659,659,659,659,658,656,648,639,631,615,599,570,531,478,294,240,217,197,184,173,172,172,172,172,172,172,171,165,163,156,145,141,129,125,119,117,111,106,97],"timestamp_mouse":[18,42,57,76,97,116,136,157,177,197,216,237,257,278,297,318,337,356,377,396,417,437,457,477,498,518,536,557,576,596,616,638,656,677,698,718,737,757,778,797,816,837,856,877,896,918,937,956,976,996,1016,1036,1057,1077,1096,1118,1138,1157,1176,1196,1216,1236,1257,1278,1296,1316,1336,1357,1376,1396,1417,1437,1457,1478],"xSR":741.5,"ySR":573.95,"xT1":424.9,"yT1":0,"xT2":1058.1,"yT2":0,"toosoon":0,"cond_shown":"Incongruent","ratio_trial":200,"L_num":9,"L_den":15,"R_num":8,"R_den":10,"correct_side":2,"subjID":"juansebastiánmera24 ","gender":"0","school":"4","age":"9"},{"start_time":1552308853359,"click_time":1552308855239,"finger_time":1552308854860,"fix_duration":999.1393894246155,"trial":44,"RT":1501,"MT":379,"sideResp":1,"stimulus":[],"xmouse":[794,794,794,794,793,791,790,789,789,788,786,786,786,786,786,786,786,786,785,794,802,802,802,802,802,802,802,802,802,802,802,802,802,802,802,802,802,802,802,802,802,802,801,800,798,798,798,798,798,798,798,798,798,797,796,796,796,796,796,796,796,796,796,796,796,796,796,796,795,794,790,786,780,769,749,724,710,695,673,641,529,465,421,381,362,338,334,329,333,349,370,372,374,405,438],"ymouse":[631,631,631,631,633,634,634,635,637,637,638,639,639,639,639,639,639,639,640,644,649,649,649,649,649,649,649,649,649,649,649,649,649,649,649,649,649,649,649,649,649,649,649,649,648,648,648,648,648,648,648,648,648,648,648,648,648,648,648,648,648,648,648,648,648,648,648,648,648,648,647,646,646,643,637,625,617,604,578,529,384,306,238,153,107,23,4,0,0,0,0,0,1,25,50],"timestamp_mouse":[10,37,40,61,81,101,119,139,160,180,199,219,239,260,280,299,319,341,359,379,400,420,439,460,480,501,520,540,560,579,599,620,640,660,681,700,721,739,761,780,799,821,839,860,879,900,920,941,959,979,1001,1020,1039,1060,1081,1100,1120,1141,1161,1180,1199,1221,1239,1259,1281,1299,1320,1339,1359,1380,1399,1419,1440,1459,1480,1501,1520,1541,1560,1579,1599,1621,1640,1660,1680,1700,1719,1740,1759,1780,1799,1819,1840,1860,1880],"xSR":741.5,"ySR":573.95,"xT1":424.9,"yT1":0,"xT2":1058.1,"yT2":0,"toosoon":0,"cond_shown":"Incongruent","ratio_trial":300,"L_num":1,"L_den":2,"R_num":2,"R_den":10,"correct_side":1,"subjID":"juansebastiánmera24 ","gender":"0","school":"4","age":"9"},{"start_time":1552308856731,"click_time":1552308858659,"finger_time":1552308857438,"fix_duration":250,"trial":45,"RT":707,"MT":1221,"sideResp":1,"stimulus":[],"xmouse":[809,809,809,809,809,809,809,809,809,809,809,808,806,802,798,793,775,767,764,762,762,762,760,759,755,752,750,750,750,750,750,749,749,753,762,788,858,891,909,920,922,924,925,927,928,928,928,928,928,928,927,919,912,899,892,881,850,832,806,788,761,699,641,598,544,493,407,387,376,376,376,385,391,392,392,392,393,398,402,405,408,409,411,412,414,414,414,414,414,414,414,414,414,414,415,419,427],"ymouse":[601,601,601,601,601,601,601,600,600,600,600,600,600,601,603,605,615,621,623,624,624,624,624,624,622,618,615,615,615,614,614,614,624,638,651,684,744,768,782,790,790,790,790,788,787,785,781,778,774,769,764,750,742,726,718,707,687,676,662,651,640,605,565,528,477,406,237,159,78,0,0,0,0,0,0,0,0,3,6,10,13,16,27,36,43,49,55,58,60,61,62,62,62,63,63,64,65],"timestamp_mouse":[9,28,48,67,89,109,128,149,168,188,208,227,249,267,288,308,328,347,368,389,407,427,448,468,488,508,527,549,568,587,607,627,648,667,687,707,727,747,768,788,809,827,848,867,887,908,928,948,969,989,1008,1027,1048,1067,1088,1108,1127,1147,1167,1187,1209,1228,1247,1268,1288,1308,1328,1348,1368,1389,1409,1427,1448,1468,1488,1508,1527,1547,1568,1588,1607,1628,1647,1667,1687,1708,1727,1748,1769,1789,1808,1828,1848,1868,1889,1908,1928],"xSR":741.5,"ySR":573.95,"xT1":424.9,"yT1":0,"xT2":1058.1,"yT2":0,"toosoon":0,"cond_shown":"Congruent","ratio_trial":300,"L_num":8,"L_den":16,"R_num":1,"R_den":5,"correct_side":1,"subjID":"juansebastiánmera24 ","gender":"0","school":"4","age":"9"},{"start_time":1552308860470,"click_time":1552308861979,"finger_time":1552308861659,"fix_duration":391.2709819773964,"trial":46,"RT":1189,"MT":320,"sideResp":2,"stimulus":[],"xmouse":[771,772,772,772,772,772,772,772,772,772,772,772,772,773,773,773,774,775,775,776,776,776,777,777,777,779,779,779,779,779,779,779,779,779,779,779,779,779,779,779,779,779,779,779,779,779,779,779,779,779,779,779,779,779,780,784,788,794,801,840,883,933,994,1042,1125,1141,1154,1161,1167,1170,1172,1172,1171,1164,1161,1146],"ymouse":[616,616,616,616,616,616,616,616,616,616,616,616,616,616,616,616,616,617,617,617,617,618,618,618,618,619,619,619,619,619,619,619,619,619,619,619,619,619,619,619,619,619,619,619,619,619,619,619,619,619,619,619,619,619,619,614,607,595,577,513,464,414,357,305,201,177,155,143,130,120,101,91,78,58,52,25],"timestamp_mouse":[12,29,49,69,88,109,128,149,169,189,209,229,249,270,288,309,328,348,369,388,408,430,450,469,489,509,530,548,569,589,609,628,650,669,688,708,730,750,769,788,808,828,850,870,888,908,930,950,970,989,1009,1029,1049,1069,1089,1109,1128,1149,1169,1189,1209,1229,1249,1270,1289,1308,1329,1350,1369,1389,1409,1428,1449,1469,1488,1508],"xSR":741.5,"ySR":573.95,"xT1":424.9,"yT1":0,"xT2":1058.1,"yT2":0,"toosoon":0,"cond_shown":"Incongruent","ratio_trial":300,"L_num":13,"L_den":26,"R_num":12,"R_den":15,"correct_side":2,"subjID":"juansebastiánmera24 ","gender":"0","school":"4","age":"9"},{"start_time":1552308863734,"click_time":1552308865399,"finger_time":1552308864578,"fix_duration":454.60904357407514,"trial":47,"RT":844,"MT":821,"sideResp":2,"stimulus":[],"xmouse":[772,772,772,772,772,772,772,772,772,772,774,775,775,776,776,776,776,776,776,776,776,776,776,776,776,776,776,776,776,776,776,776,776,776,776,777,778,779,779,781,783,813,853,858,858,858,858,858,858,858,858,858,858,858,858,858,858,858,858,858,858,858,858,859,861,863,869,886,898,920,937,953,974,980,986,991,997,1004,1008,1017,1025,1035,1056,1064],"ymouse":[581,581,581,581,581,581,581,581,581,581,581,580,579,579,579,579,579,579,579,579,579,579,579,579,579,579,579,579,579,579,579,579,579,579,579,579,579,579,579,579,578,575,569,567,567,567,567,567,567,567,567,567,567,567,567,567,567,567,567,567,567,567,567,567,566,564,558,543,530,489,434,370,212,163,134,111,97,87,85,81,77,71,58,55],"timestamp_mouse":[9,24,45,64,85,106,125,145,166,184,204,225,245,265,285,305,325,345,366,385,406,424,445,464,486,504,524,545,564,586,605,624,645,665,686,704,726,745,766,784,804,825,844,864,885,906,925,945,966,986,1004,1025,1045,1065,1086,1104,1125,1144,1165,1184,1204,1225,1246,1266,1285,1305,1325,1344,1366,1384,1405,1425,1446,1464,1485,1505,1524,1544,1564,1584,1605,1625,1646,1664],"xSR":741.5,"ySR":573.95,"xT1":424.9,"yT1":0,"xT2":1058.1,"yT2":0,"toosoon":0,"cond_shown":"Incongruent","ratio_trial":300,"L_num":13,"L_den":26,"R_num":12,"R_den":15,"correct_side":2,"subjID":"juansebastiánmera24 ","gender":"0","school":"4","age":"9"},{"start_time":1552308866871,"click_time":1552308868079,"finger_time":1552308867579,"fix_duration":289.9725871479294,"trial":48,"RT":708,"MT":500,"sideResp":1,"stimulus":[],"xmouse":[777,777,777,777,777,777,777,777,777,777,777,777,777,777,777,777,777,779,779,779,779,779,779,779,779,779,779,779,779,779,779,779,779,775,769,750,737,719,700,681,645,630,618,612,607,602,601,601,601,601,599,598,596,592,590,578,570,561,551,541,518],"ymouse":[616,616,616,616,616,616,616,616,616,616,616,616,616,616,616,616,615,613,613,613,613,613,613,613,613,613,613,613,613,613,613,613,610,606,597,548,504,451,398,357,285,257,231,220,210,189,182,173,167,163,149,140,130,117,107,85,76,67,61,55,48],"timestamp_mouse":[18,35,47,67,88,108,127,148,168,188,209,227,248,268,288,308,327,348,368,389,408,427,449,469,487,507,527,549,568,588,608,628,647,668,687,708,727,749,768,789,808,828,847,869,888,908,927,949,967,989,1009,1029,1048,1068,1088,1108,1127,1148,1167,1188,1208],"xSR":741.5,"ySR":573.95,"xT1":424.9,"yT1":0,"xT2":1058.1,"yT2":0,"toosoon":0,"cond_shown":"Incongruent","ratio_trial":300,"L_num":1,"L_den":2,"R_num":3,"R_den":15,"correct_side":1,"subjID":"juansebastiánmera24 ","gender":"0","school":"4","age":"9"},{"start_time":1552308869638,"click_time":1552308870799,"finger_time":1552308870479,"fix_duration":697.686740179293,"trial":49,"RT":841,"MT":320,"sideResp":2,"stimulus":[],"xmouse":[782,782,782,783,783,783,783,783,783,783,784,784,784,784,784,784,784,784,784,784,784,784,784,784,784,784,784,784,784,784,784,784,784,784,784,785,785,788,795,799,802,808,828,847,875,908,941,990,1005,1015,1023,1035,1073,1092,1108,1118,1123,1127,1128],"ymouse":[654,654,654,654,654,654,654,654,654,654,654,654,654,654,654,654,654,654,654,652,652,652,651,651,651,651,651,651,651,651,651,651,651,651,651,650,649,644,632,621,616,607,572,536,481,420,362,275,250,235,224,211,192,179,160,142,125,103,94],"timestamp_mouse":[10,20,41,60,81,100,120,140,161,182,201,221,241,262,282,301,322,341,360,382,400,421,441,461,482,500,521,541,562,580,602,622,641,660,681,701,721,740,760,781,801,821,841,861,881,901,921,940,960,981,1001,1021,1041,1062,1081,1101,1121,1141,1160],"xSR":741.5,"ySR":573.95,"xT1":424.9,"yT1":0,"xT2":1058.1,"yT2":0,"toosoon":0,"cond_shown":"Congruent","ratio_trial":300,"L_num":3,"L_den":6,"R_num":4,"R_den":5,"correct_side":2,"subjID":"juansebastiánmera24 ","gender":"0","school":"4","age":"9"},{"start_time":1552308878539,"click_time":1552308880979,"finger_time":1552308879979,"fix_duration":579.7209179065377,"trial":50,"RT":1440,"MT":1000,"sideResp":2,"stimulus":[],"xmouse":[773,773,773,772,771,771,771,771,771,771,771,770,770,770,770,770,770,770,770,770,770,771,771,772,772,772,775,776,780,781,781,781,781,781,781,782,783,784,784,785,786,788,789,792,793,793,793,793,793,793,793,793,793,793,793,793,793,793,793,793,793,793,793,793,791,791,791,791,793,798,807,824,843,913,940,946,946,944,938,938,938,943,949,994,998,1001,1004,1007,1019,1027,1037,1047,1053,1060,1060,1061,1063,1068,1071,1072,1074,1075,1075,1080,1084,1089,1092,1094,1095,1096,1096,1096,1097,1097,1097,1097,1097,1097,1097,1096,1096,1096,1096],"ymouse":[660,660,660,662,663,663,663,663,663,663,663,663,663,662,660,660,660,660,660,660,658,657,655,654,654,654,651,650,645,644,644,644,644,642,640,640,639,639,638,638,638,638,639,644,646,646,646,646,648,651,652,653,653,653,653,653,653,653,654,654,655,655,655,655,653,650,648,646,641,636,632,621,603,461,402,376,358,348,336,330,320,307,295,259,251,246,241,235,221,213,203,193,182,155,149,146,143,140,136,134,131,130,130,128,125,121,119,118,116,116,116,116,116,116,115,115,114,113,112,109,107,104,96],"timestamp_mouse":[1,20,40,60,80,100,119,139,160,179,200,221,240,259,280,299,320,340,360,380,401,420,440,459,480,499,520,539,559,580,600,619,641,660,681,699,720,741,760,781,800,819,840,859,879,900,920,940,960,979,1000,1019,1040,1059,1080,1100,1120,1140,1159,1179,1200,1220,1241,1259,1281,1299,1321,1340,1360,1383,1401,1420,1440,1460,1479,1500,1520,1540,1560,1579,1601,1619,1640,1660,1680,1700,1720,1740,1760,1779,1800,1819,1840,1860,1880,1899,1920,1940,1960,1979,2000,2020,2039,2059,2080,2100,2121,2140,2159,2179,2200,2220,2240,2260,2280,2300,2320,2340,2360,2380,2401,2420,2440],"xSR":741.5,"ySR":573.95,"xT1":424.9,"yT1":0,"xT2":1058.1,"yT2":0,"toosoon":0,"cond_shown":"Congruent","ratio_trial":100,"L_num":7,"L_den":14,"R_num":9,"R_den":15,"correct_side":2,"subjID":"juansebastiánmera24 ","gender":"0","school":"4","age":"9"},{"start_time":1552308883245,"click_time":1552308884559,"finger_time":1552308883320,"fix_duration":764.8602625616788,"trial":51,"RT":75,"MT":1239,"sideResp":2,"stimulus":[],"xmouse":[836,838,838,843,844,845,847,850,851,852,853,853,854,854,854,854,854,855,855,855,856,856,856,857,857,857,857,857,857,857,857,857,857,857,857,857,857,857,852,848,846,845,845,845,845,845,845,851,885,914,944,966,980,995,1001,1007,1013,1025,1030,1036,1040,1042,1044,1049,1059,1073],"ymouse":[618,617,617,613,612,611,609,606,605,604,603,603,602,602,602,602,602,601,601,601,600,600,600,599,599,599,599,599,599,599,599,599,599,599,599,599,599,599,599,599,599,599,599,599,599,598,595,568,450,373,308,259,229,191,175,168,161,134,126,117,109,107,106,104,102,98],"timestamp_mouse":[16,38,54,75,94,114,134,153,173,193,214,233,255,275,293,313,333,354,375,394,413,433,454,474,494,513,533,553,574,595,615,634,655,673,694,715,734,754,774,794,814,835,854,874,894,914,934,954,973,994,1014,1033,1054,1074,1094,1114,1134,1155,1173,1194,1215,1233,1254,1274,1294,1313],"xSR":741.5,"ySR":573.95,"xT1":424.9,"yT1":0,"xT2":1058.1,"yT2":0,"toosoon":0,"cond_shown":"Congruent","ratio_trial":100,"L_num":2,"L_den":5,"R_num":6,"R_den":12,"correct_side":2,"subjID":"juansebastiánmera24 ","gender":"0","school":"4","age":"9"},{"start_time":1552308886433,"click_time":1552308888359,"finger_time":1552308887819,"fix_duration":1033.2121813033182,"trial":52,"RT":1386,"MT":540,"sideResp":2,"stimulus":[],"xmouse":[823,823,823,823,823,823,823,823,823,823,823,823,823,823,823,824,824,824,824,824,825,826,826,827,827,828,828,828,828,828,828,828,828,828,828,828,828,828,828,828,828,828,828,828,828,828,828,828,828,828,828,828,828,828,828,828,828,828,828,828,828,828,828,828,829,830,831,833,840,893,932,950,960,962,961,960,960,966,977,1016,1033,1047,1061,1080,1155,1186,1223,1248,1264,1270,1271,1270,1269,1264,1232,1171,1143],"ymouse":[599,599,599,599,599,599,599,599,599,599,599,599,599,599,599,598,598,598,598,598,598,597,597,596,596,594,594,594,594,594,594,594,594,594,594,594,594,594,594,594,594,594,594,594,594,594,594,594,594,594,594,594,594,594,594,594,594,594,594,594,594,594,594,593,587,585,583,580,576,563,549,534,517,500,476,468,456,430,405,338,313,291,267,235,104,56,4,0,0,0,0,0,0,1,11,37,51],"timestamp_mouse":[19,37,46,66,86,106,126,147,167,185,206,225,245,267,285,306,326,347,366,386,406,427,445,466,485,506,526,547,567,585,606,627,647,666,686,705,725,745,766,786,806,827,846,865,886,907,926,945,967,986,1006,1026,1045,1066,1085,1106,1125,1147,1167,1187,1206,1226,1246,1265,1285,1306,1325,1347,1366,1386,1405,1426,1446,1465,1485,1507,1526,1546,1566,1585,1605,1626,1646,1666,1686,1706,1726,1746,1766,1786,1805,1826,1846,1866,1886,1905,1925],"xSR":741.5,"ySR":573.95,"xT1":424.9,"yT1":0,"xT2":1058.1,"yT2":0,"toosoon":0,"cond_shown":"Incongruent","ratio_trial":300,"L_num":4,"L_den":20,"R_num":2,"R_den":4,"correct_side":2,"subjID":"juansebastiánmera24 ","gender":"0","school":"4","age":"9"},{"start_time":1552308890579,"click_time":1552308891639,"finger_time":1552308891298,"fix_duration":1139.4156110432748,"trial":53,"RT":719,"MT":341,"sideResp":2,"stimulus":[],"xmouse":[794,794,794,794,794,794,794,794,794,794,794,794,794,794,794,794,794,794,794,794,794,794,794,794,794,794,794,794,794,794,794,794,794,794,799,808,860,904,980,1004,1020,1031,1044,1078,1093,1104,1110,1114,1116,1116,1117,1120,1120,1121],"ymouse":[637,637,637,637,637,637,637,637,637,637,637,637,637,637,637,637,637,637,637,637,637,637,637,637,637,637,637,637,637,637,637,637,637,637,612,589,489,434,363,345,334,322,309,269,249,222,207,193,171,158,142,121,106,98],"timestamp_mouse":[1,19,41,59,81,100,120,141,160,179,200,220,239,260,280,301,320,340,360,379,400,419,440,460,479,500,521