[{"start_time":1552309812116,"click_time":1552309813418,"finger_time":1552309812817,"fix_duration":293.46890650857307,"trial":0,"RT":701,"MT":601,"sideResp":1,"stimulus":"img/750/equaldotsize/R/2_Ratio_750_L_6_R_8.png","xmouse":[795,795,795,795,795,795,795,795,795,795,795,795,795,795,795,795,795,795,795,795,795,795,795,795,795,795,795,795,795,795,795,795,795,792,781,741,718,692,667,638,547,499,464,441,416,398,395,395,393,392,392,393,394,396,401,408,411,413,418,420,421,421,421,421,421,431],"ymouse":[537,537,537,537,537,537,537,537,537,537,537,537,537,537,537,537,537,537,537,537,537,537,537,537,537,537,537,537,537,537,537,537,537,537,529,500,484,469,454,432,379,352,327,310,288,260,250,245,241,235,221,212,202,188,162,120,93,65,40,21,5,5,5,5,5,15],"timestamp_mouse":[9,38,43,62,82,102,122,142,161,181,202,222,243,261,281,301,322,341,362,382,402,422,443,462,481,502,521,541,562,582,602,622,642,662,681,701,721,743,762,783,801,822,841,862,882,901,922,941,962,981,1002,1021,1042,1062,1083,1103,1121,1141,1163,1182,1201,1221,1243,1262,1281,1302],"xSR":741.5,"ySR":501.8,"xT1":424.9,"yT1":0,"xT2":1058.1,"yT2":0,"toosoon":0,"cond_shown":"equaldotsize","ratio_trial":750,"smaller_num":"6","larger_num":"8","correct_side":2,"subjID":"jOSEjUANUrreaGalvan25","gender":"0","age":"9","school":"4","test":{"fix_dur":[250,1500],"timestim":300,"targets_dim":[100,100],"targets_relative_coord":[0.3,0.7],"size_stim":[880,420],"start_dim":[100,100],"size_start":[300,300],"size_fix":60,"samplingrate":20,"img_types":["equaldotsize","equaldotanddens","randomdotsizeEA"],"ratios":[250,500,750,900],"rep_conds":9,"nTrials":120,"trials_to_rest":500,"Trials_order":[78,117,67,59,69,115,10,22,63,113,6,31,30,45,32,26,42,108,35,83,47,49,46,110,105,103,41,102,24,79,20,70,11,52,23,1,112,62,61,5,68,21,25,7,77,8,89,73,27,55,43,96,48,91,93,95,65,58,51,54,118,40,28,53,57,2,9,98,4,15,85,119,72,84,81,44,74,87,3,34,12,106,82,104,90,86,18,38,109,76,111,100,80,56,88,0,101,107,36,97,116,60,33,19,14,37,92,99,17,94,75,39,114,13,50,66,16,71,29,64],"cond_shown":["equaldotsize","equaldotsize","equaldotanddens","randomdotsizeEA","equaldotsize","equaldotanddens","equaldotanddens","equaldotanddens","equaldotsize","randomdotsizeEA","equaldotsize","equaldotanddens","equaldotsize","equaldotsize","randomdotsizeEA","randomdotsizeEA","equaldotsize","equaldotsize","randomdotsizeEA","randomdotsizeEA","randomdotsizeEA","equaldotanddens","equaldotanddens","randomdotsizeEA","equaldotsize","equaldotanddens","randomdotsizeEA","equaldotsize","equaldotsize","equaldotanddens","randomdotsizeEA","equaldotanddens","randomdotsizeEA","equaldotanddens","randomdotsizeEA","equaldotanddens","equaldotanddens","randomdotsizeEA","equaldotanddens","randomdotsizeEA","randomdotsizeEA","equaldotsize","equaldotanddens","equaldotanddens","randomdotsizeEA","randomdotsizeEA","randomdotsizeEA","equaldotanddens","equaldotsize","equaldotanddens","equaldotanddens","equaldotsize","equaldotsize","equaldotanddens","equaldotsize","randomdotsizeEA","randomdotsizeEA","equaldotanddens","equaldotsize","equaldotsize","equaldotanddens","equaldotanddens","equaldotanddens","randomdotsizeEA","equaldotsize","randomdotsizeEA","equaldotsize","randomdotsizeEA","equaldotanddens","equaldotsize","equaldotanddens","randomdotsizeEA","equaldotsize","equaldotsize","equaldotsize","randomdotsizeEA","randomdotsizeEA","equaldotsize","equaldotsize","equaldotanddens","equaldotsize","equaldotanddens","equaldotanddens","randomdotsizeEA","equaldotsize","randomdotsizeEA","equaldotsize","randomdotsizeEA","equaldotanddens","equaldotanddens","equaldotsize","equaldotanddens","randomdotsizeEA","randomdotsizeEA","equaldotanddens","equaldotsize","randomdotsizeEA","randomdotsizeEA","equaldotsize","equaldotanddens","randomdotsizeEA","equaldotsize","equaldotsize","equaldotanddens","randomdotsizeEA","equaldotanddens","randomdotsizeEA","equaldotsize","randomdotsizeEA","equaldotanddens","equaldotsize","equaldotsize","equaldotsize","equaldotanddens","randomdotsizeEA","equaldotsize","equaldotanddens","randomdotsizeEA","randomdotsizeEA","equaldotanddens"],"ratio_trial":[750,900,750,900,900,750,900,900,500,500,750,750,750,900,750,250,750,250,900,900,900,250,900,250,900,750,500,750,250,750,750,900,900,500,900,250,500,250,250,500,750,900,250,750,500,750,500,250,500,750,750,250,250,750,900,900,500,900,500,750,900,500,500,500,900,250,900,250,500,500,250,900,250,250,900,750,250,500,500,900,250,900,900,750,750,250,750,250,250,500,500,500,750,750,500,250,500,900,250,250,750,250,900,750,250,250,750,500,500,900,500,500,750,250,250,750,500,900,500,500],"smaller_num":["6","18","12","18","18","3","9","9","3","5","15","12","12","9","6","3","6","6","9","18","9","3","18","3","18","3","6","15","3","15","6","9","18","2","9","2","2","2","1","1","3","18","6","3","6","18","2","2","10","15","6","6","3","15","9","18","1","18","5","15","9","4","2","2","18","2","18","5","9","9","3","9","4","2","18","3","5","6","2","18","2","9","9","6","15","6","3","3","2","2","4","4","3","6","2","3","5","9","6","2","6","2","18","15","3","2","12","6","2","18","10","5","15","3","3","6","1","18","9","2"],"larger_num":["8","20","16","20","20","4","10","10","6","10","20","16","16","10","8","12","8","24","10","20","10","12","20","12","20","4","12","20","12","20","8","10","20","4","10","8","4","8","4","2","4","20","24","4","12","24","4","8","20","20","8","24","12","20","10","20","2","20","10","20","10","8","4","4","20","8","20","20","18","18","12","10","16","8","20","4","20","12","4","20","8","10","10","8","20","24","4","12","8","4","8","8","4","8","4","12","10","10","24","8","8","8","20","20","12","8","16","12","4","20","20","10","20","12","12","8","2","20","18","4"],"correct_side":[2,2,2,1,1,1,1,2,2,1,2,2,2,2,1,1,1,1,2,1,1,1,1,1,1,2,1,2,2,1,1,2,1,2,2,1,1,1,2,2,1,1,2,1,1,1,2,1,2,2,1,2,2,2,2,2,2,1,1,1,1,1,2,1,1,1,2,2,2,2,2,2,2,1,1,2,2,1,2,1,2,2,1,1,1,1,1,2,1,1,1,1,2,1,2,2,1,2,1,1,1,1,1,1,1,1,2,1,1,1,2,2,2,2,1,1,2,2,2,2],"img_shown":["img/750/equaldotsize/R/2_Ratio_750_L_6_R_8.png","img/900/equaldotsize/R/13_Ratio_900_L_18_R_20.png","img/750/equaldotanddens/R/11_Ratio_750_L_12_R_16.png","img/900/randomdotsizeEA/L/2_Ratio_900_L_20_R_18.png","img/900/equaldotsize/L/4_Ratio_900_L_20_R_18.png","img/750/equaldotanddens/L/9_Ratio_750_L_4_R_3.png","img/900/equaldotanddens/L/1_Ratio_900_L_10_R_9.png","img/900/equaldotanddens/R/3_Ratio_900_L_9_R_10.png","img/500/equaldotsize/R/2_Ratio_500_L_3_R_6.png","img/500/randomdotsizeEA/L/7_Ratio_500_L_10_R_5.png","img/750/equaldotsize/R/4_Ratio_750_L_15_R_20.png","img/750/equaldotanddens/R/11_Ratio_750_L_12_R_16.png","img/750/equaldotsize/R/11_Ratio_750_L_12_R_16.png","img/900/equaldotsize/R/15_Ratio_900_L_9_R_10.png","img/750/randomdotsizeEA/L/14_Ratio_750_L_8_R_6.png","img/250/randomdotsizeEA/L/15_Ratio_250_L_12_R_3.png","img/750/equaldotsize/L/13_Ratio_750_L_8_R_6.png","img/250/equaldotsize/L/5_Ratio_250_L_24_R_6.png","img/900/randomdotsizeEA/R/5_Ratio_900_L_9_R_10.png","img/900/randomdotsizeEA/L/10_Ratio_900_L_20_R_18.png","img/900/randomdotsizeEA/L/1_Ratio_900_L_10_R_9.png","img/250/equaldotanddens/L/15_Ratio_250_L_12_R_3.png","img/900/equaldotanddens/L/4_Ratio_900_L_20_R_18.png","img/250/randomdotsizeEA/L/14_Ratio_250_L_12_R_3.png","img/900/equaldotsize/L/4_Ratio_900_L_20_R_18.png","img/750/equaldotanddens/R/12_Ratio_750_L_3_R_4.png","img/500/randomdotsizeEA/L/11_Ratio_500_L_12_R_6.png","img/750/equaldotsize/R/3_Ratio_750_L_15_R_20.png","img/250/equaldotsize/R/11_Ratio_250_L_3_R_12.png","img/750/equaldotanddens/L/1_Ratio_750_L_20_R_15.png","img/750/randomdotsizeEA/L/14_Ratio_750_L_8_R_6.png","img/900/equaldotanddens/R/15_Ratio_900_L_9_R_10.png","img/900/randomdotsizeEA/L/2_Ratio_900_L_20_R_18.png","img/500/equaldotanddens/R/9_Ratio_500_L_2_R_4.png","img/900/randomdotsizeEA/R/3_Ratio_900_L_9_R_10.png","img/250/equaldotanddens/L/3_Ratio_250_L_8_R_2.png","img/500/equaldotanddens/L/10_Ratio_500_L_4_R_2.png","img/250/randomdotsizeEA/L/1_Ratio_250_L_8_R_2.png","img/250/equaldotanddens/R/8_Ratio_250_L_1_R_4.png","img/500/randomdotsizeEA/R/15_Ratio_500_L_1_R_2.png","img/750/randomdotsizeEA/L/9_Ratio_750_L_4_R_3.png","img/900/equaldotsize/L/8_Ratio_900_L_20_R_18.png","img/250/equaldotanddens/R/6_Ratio_250_L_6_R_24.png","img/750/equaldotanddens/L/9_Ratio_750_L_4_R_3.png","img/500/randomdotsizeEA/L/11_Ratio_500_L_12_R_6.png","img/750/randomdotsizeEA/L/6_Ratio_750_L_24_R_18.png","img/500/randomdotsizeEA/R/9_Ratio_500_L_2_R_4.png","img/250/equaldotanddens/L/1_Ratio_250_L_8_R_2.png","img/500/equaldotsize/R/3_Ratio_500_L_10_R_20.png","img/750/equaldotanddens/R/4_Ratio_750_L_15_R_20.png","img/750/equaldotanddens/L/14_Ratio_750_L_8_R_6.png","img/250/equaldotsize/R/6_Ratio_250_L_6_R_24.png","img/250/equaldotsize/R/9_Ratio_250_L_3_R_12.png","img/750/equaldotanddens/R/3_Ratio_750_L_15_R_20.png","img/900/equaldotsize/R/5_Ratio_900_L_9_R_10.png","img/900/randomdotsizeEA/R/11_Ratio_900_L_18_R_20.png","img/500/randomdotsizeEA/R/12_Ratio_500_L_1_R_2.png","img/900/equaldotanddens/L/8_Ratio_900_L_20_R_18.png","img/500/equaldotsize/L/7_Ratio_500_L_10_R_5.png","img/750/equaldotsize/L/1_Ratio_750_L_20_R_15.png","img/900/equaldotanddens/L/1_Ratio_900_L_10_R_9.png","img/500/equaldotanddens/L/8_Ratio_500_L_8_R_4.png","img/500/equaldotanddens/R/9_Ratio_500_L_2_R_4.png","img/500/randomdotsizeEA/L/10_Ratio_500_L_4_R_2.png","img/900/equaldotsize/L/10_Ratio_900_L_20_R_18.png","img/250/randomdotsizeEA/L/1_Ratio_250_L_8_R_2.png","img/900/equaldotsize/R/12_Ratio_900_L_18_R_20.png","img/250/randomdotsizeEA/R/12_Ratio_250_L_5_R_20.png","img/500/equaldotanddens/R/1_Ratio_500_L_9_R_18.png","img/500/equaldotsize/R/6_Ratio_500_L_9_R_18.png","img/250/equaldotanddens/R/4_Ratio_250_L_3_R_12.png","img/900/randomdotsizeEA/R/15_Ratio_900_L_9_R_10.png","img/250/equaldotsize/R/10_Ratio_250_L_4_R_16.png","img/250/equaldotsize/L/1_Ratio_250_L_8_R_2.png","img/900/equaldotsize/L/8_Ratio_900_L_20_R_18.png","img/750/randomdotsizeEA/R/12_Ratio_750_L_3_R_4.png","img/250/randomdotsizeEA/R/12_Ratio_250_L_5_R_20.png","img/500/equaldotsize/L/13_Ratio_500_L_12_R_6.png","img/500/equaldotsize/R/9_Ratio_500_L_2_R_4.png","img/900/equaldotanddens/L/8_Ratio_900_L_20_R_18.png","img/250/equaldotsize/R/13_Ratio_250_L_2_R_8.png","img/900/equaldotanddens/R/15_Ratio_900_L_9_R_10.png","img/900/equaldotanddens/L/1_Ratio_900_L_10_R_9.png","img/750/randomdotsizeEA/L/13_Ratio_750_L_8_R_6.png","img/750/equaldotsize/L/1_Ratio_750_L_20_R_15.png","img/250/randomdotsizeEA/L/5_Ratio_250_L_24_R_6.png","img/750/equaldotsize/L/9_Ratio_750_L_4_R_3.png","img/250/randomdotsizeEA/R/4_Ratio_250_L_3_R_12.png","img/250/equaldotanddens/L/3_Ratio_250_L_8_R_2.png","img/500/equaldotanddens/L/10_Ratio_500_L_4_R_2.png","img/500/equaldotsize/L/8_Ratio_500_L_8_R_4.png","img/500/equaldotanddens/L/8_Ratio_500_L_8_R_4.png","img/750/randomdotsizeEA/R/7_Ratio_750_L_3_R_4.png","img/750/randomdotsizeEA/L/14_Ratio_750_L_8_R_6.png","img/500/equaldotanddens/R/9_Ratio_500_L_2_R_4.png","img/250/equaldotsize/R/4_Ratio_250_L_3_R_12.png","img/500/randomdotsizeEA/L/7_Ratio_500_L_10_R_5.png","img/900/randomdotsizeEA/R/5_Ratio_900_L_9_R_10.png","img/250/equaldotsize/L/5_Ratio_250_L_24_R_6.png","img/250/equaldotanddens/L/3_Ratio_250_L_8_R_2.png","img/750/randomdotsizeEA/L/13_Ratio_750_L_8_R_6.png","img/250/equaldotsize/L/1_Ratio_250_L_8_R_2.png","img/900/equaldotsize/L/8_Ratio_900_L_20_R_18.png","img/750/equaldotanddens/L/1_Ratio_750_L_20_R_15.png","img/250/randomdotsizeEA/L/15_Ratio_250_L_12_R_3.png","img/250/equaldotanddens/L/7_Ratio_250_L_8_R_2.png","img/750/randomdotsizeEA/R/11_Ratio_750_L_12_R_16.png","img/500/equaldotsize/L/11_Ratio_500_L_12_R_6.png","img/500/randomdotsizeEA/L/10_Ratio_500_L_4_R_2.png","img/900/equaldotanddens/L/4_Ratio_900_L_20_R_18.png","img/500/equaldotsize/R/3_Ratio_500_L_10_R_20.png","img/500/equaldotsize/R/14_Ratio_500_L_5_R_10.png","img/750/equaldotsize/R/4_Ratio_750_L_15_R_20.png","img/250/equaldotanddens/R/9_Ratio_250_L_3_R_12.png","img/250/randomdotsizeEA/L/14_Ratio_250_L_12_R_3.png","img/750/equaldotsize/L/13_Ratio_750_L_8_R_6.png","img/500/equaldotanddens/R/15_Ratio_500_L_1_R_2.png","img/900/randomdotsizeEA/R/12_Ratio_900_L_18_R_20.png","img/500/randomdotsizeEA/R/1_Ratio_500_L_9_R_18.png","img/500/equaldotanddens/R/9_Ratio_500_L_2_R_4.png"],"Rat0":[["12_Ratio_0_L_9_R_0.png","13_Ratio_0_L_6_R_0.png","5_Ratio_0_L_2_R_0.png","6_Ratio_0_L_4_R_0.png","8_Ratio_0_L_6_R_0.png"],["1_Ratio_0_L_0_R_17.png","10_Ratio_0_L_0_R_22.png","11_Ratio_0_L_0_R_1.png","14_Ratio_0_L_0_R_24.png","15_Ratio_0_L_0_R_4.png","2_Ratio_0_L_0_R_5.png","3_Ratio_0_L_0_R_17.png","4_Ratio_0_L_0_R_7.png","7_Ratio_0_L_0_R_19.png","9_Ratio_0_L_0_R_15.png"]],"Rat250":[["1_Ratio_250_L_8_R_2.png","14_Ratio_250_L_12_R_3.png","15_Ratio_250_L_12_R_3.png","2_Ratio_250_L_16_R_4.png","3_Ratio_250_L_8_R_2.png","5_Ratio_250_L_24_R_6.png","7_Ratio_250_L_8_R_2.png"],["10_Ratio_250_L_4_R_16.png","11_Ratio_250_L_3_R_12.png","12_Ratio_250_L_5_R_20.png","13_Ratio_250_L_2_R_8.png","4_Ratio_250_L_3_R_12.png","6_Ratio_250_L_6_R_24.png","8_Ratio_250_L_1_R_4.png","9_Ratio_250_L_3_R_12.png"]],"Rat500":[["10_Ratio_500_L_4_R_2.png","11_Ratio_500_L_12_R_6.png","13_Ratio_500_L_12_R_6.png","4_Ratio_500_L_18_R_9.png","5_Ratio_500_L_4_R_2.png","7_Ratio_500_L_10_R_5.png","8_Ratio_500_L_8_R_4.png"],["1_Ratio_500_L_9_R_18.png","12_Ratio_500_L_1_R_2.png","14_Ratio_500_L_5_R_10.png","15_Ratio_500_L_1_R_2.png","2_Ratio_500_L_3_R_6.png","3_Ratio_500_L_10_R_20.png","6_Ratio_500_L_9_R_18.png","9_Ratio_500_L_2_R_4.png"]],"Rat750":[["1_Ratio_750_L_20_R_15.png","10_Ratio_750_L_4_R_3.png","13_Ratio_750_L_8_R_6.png","14_Ratio_750_L_8_R_6.png","6_Ratio_750_L_24_R_18.png","8_Ratio_750_L_4_R_3.png","9_Ratio_750_L_4_R_3.png"],["11_Ratio_750_L_12_R_16.png","12_Ratio_750_L_3_R_4.png","15_Ratio_750_L_9_R_12.png","2_Ratio_750_L_6_R_8.png","3_Ratio_750_L_15_R_20.png","4_Ratio_750_L_15_R_20.png","5_Ratio_750_L_15_R_20.png","7_Ratio_750_L_3_R_4.png"]],"Rat900":[["1_Ratio_900_L_10_R_9.png","10_Ratio_900_L_20_R_18.png","2_Ratio_900_L_20_R_18.png","4_Ratio_900_L_20_R_18.png","8_Ratio_900_L_20_R_18.png"],["11_Ratio_900_L_18_R_20.png","12_Ratio_900_L_18_R_20.png","13_Ratio_900_L_18_R_20.png","14_Ratio_900_L_18_R_20.png","15_Ratio_900_L_9_R_10.png","3_Ratio_900_L_9_R_10.png","5_Ratio_900_L_9_R_10.png","6_Ratio_900_L_9_R_10.png","7_Ratio_900_L_9_R_10.png","9_Ratio_900_L_18_R_20.png"]],"Rat1000":[["10_Ratio_1000_L_16_R_16.png","11_Ratio_1000_L_6_R_6.png","12_Ratio_1000_L_14_R_14.png","13_Ratio_1000_L_20_R_20.png","15_Ratio_1000_L_15_R_15.png","2_Ratio_1000_L_17_R_17.png","4_Ratio_1000_L_9_R_9.png","5_Ratio_1000_L_6_R_6.png","6_Ratio_1000_L_19_R_19.png","8_Ratio_1000_L_14_R_14.png","9_Ratio_1000_L_25_R_25.png"],["1_Ratio_1000_L_1_R_1.png","14_Ratio_1000_L_17_R_17.png","3_Ratio_1000_L_17_R_17.png","7_Ratio_1000_L_6_R_6.png"]]}},{"start_time":1552309816589,"click_time":1552309818098,"finger_time":1552309817617,"fix_duration":250,"trial":1,"RT":1028,"MT":481,"sideResp":2,"stimulus":"img/900/equaldotsize/R/13_Ratio_900_L_18_R_20.png","xmouse":[804,804,804,804,804,804,804,804,804,804,804,804,804,804,804,804,804,804,804,804,804,804,804,804,804,804,804,804,804,804,804,804,804,804,804,804,804,804,804,804,804,804,804,804,804,804,804,790,771,756,747,745,748,751,753,754,755,761,774,792,818,853,918,946,975,1003,1036,1047,1051,1055,1060,1069,1094,1109,1123,1134],"ymouse":[550,550,550,550,550,550,550,550,550,550,550,550,550,550,550,550,550,550,550,550,550,550,550,550,550,550,550,550,550,550,550,550,550,550,550,550,550,550,550,550,550,550,550,550,550,550,550,535,516,492,470,451,423,415,413,412,411,406,399,386,372,352,302,275,249,237,216,209,205,201,193,180,146,126,107,92],"timestamp_mouse":[8,30,56,69,90,109,129,149,169,189,208,230,248,269,289,309,329,348,369,389,408,428,448,468,488,509,529,550,569,588,609,628,648,669,689,709,728,749,769,788,809,829,849,869,888,909,928,950,969,989,1008,1028,1049,1068,1088,1108,1128,1148,1169,1188,1208,1228,1248,1270,1289,1309,1329,1348,1368,1388,1408,1429,1448,1468,1489,1508],"xSR":741.5,"ySR":469.95,"xT1":424.9,"yT1":0,"xT2":1058.1,"yT2":0,"toosoon":0,"cond_shown":"equaldotsize","ratio_trial":900,"smaller_num":"18","larger_num":"20","correct_side":2,"subjID":"jOSEjUANUrreaGalvan25","gender":"0","age":"9","school":"4"},{"start_time":1552309820190,"click_time":1552309821338,"finger_time":1552309821237,"fix_duration":250,"trial":2,"RT":1047,"MT":101,"sideResp":2,"stimulus":"img/750/equaldotanddens/R/11_Ratio_750_L_12_R_16.png","xmouse":[787,787,787,787,787,787,787,787,787,787,786,785,784,784,784,784,784,784,784,784,784,784,784,784,784,784,784,784,784,784,784,784,784,784,784,784,784,784,784,784,784,784,784,784,784,784,784,784,784,784,784,789,839,879,912,947,999,1075],"ymouse":[503,503,503,503,503,503,503,503,503,503,502,501,501,501,501,501,501,501,501,501,501,501,501,501,501,501,501,501,501,501,501,501,501,501,501,501,501,501,501,501,501,501,501,501,501,501,501,501,501,501,499,486,385,325,264,206,125,49],"timestamp_mouse":[9,27,58,67,89,109,127,147,168,188,207,229,247,268,288,307,327,347,368,389,407,429,447,468,488,508,527,547,568,588,607,627,649,669,688,708,727,748,768,788,809,827,847,868,888,908,929,948,968,988,1007,1028,1047,1068,1088,1107,1128,1148],"xSR":741.5,"ySR":469.95,"xT1":424.9,"yT1":0,"xT2":1058.1,"yT2":0,"toosoon":0,"cond_shown":"equaldotanddens","ratio_trial":750,"smaller_num":"12","larger_num":"16","correct_side":2,"subjID":"jOSEjUANUrreaGalvan25","gender":"0","age":"9","school":"4"},{"start_time":1552309824132,"click_time":1552309825558,"finger_time":1552309825158,"fix_duration":1472.7367428512912,"trial":3,"RT":1026,"MT":400,"sideResp":2,"stimulus":"img/900/randomdotsizeEA/L/2_Ratio_900_L_20_R_18.png","xmouse":[755,755,755,755,757,757,757,757,757,757,757,757,757,757,757,757,757,757,757,757,757,757,757,757,757,757,757,757,757,757,757,757,757,757,757,757,757,757,757,757,757,757,757,757,757,757,757,757,757,758,770,801,852,933,1025,1191,1251,1251,1251,1251,1251,1251,1251,1251,1251,1251,1251,1251,1251,1251,1175,1148],"ymouse":[533,533,533,533,533,533,533,533,533,533,533,533,533,533,533,533,533,533,533,533,533,533,533,533,533,533,533,533,533,533,533,533,533,533,533,533,533,533,533,533,533,533,533,533,533,533,533,533,533,528,481,408,330,243,161,44,4,4,4,4,4,4,4,4,4,4,4,4,4,4,8,25],"timestamp_mouse":[8,26,45,66,87,106,125,147,165,185,206,227,246,266,285,305,326,346,365,385,405,425,446,466,485,506,526,546,566,586,606,626,646,667,686,705,725,746,767,786,805,825,845,866,886,905,925,947,966,986,1005,1026,1045,1065,1087,1107,1125,1145,1165,1186,1207,1225,1245,1265,1285,1305,1325,1346,1365,1385,1407,1425],"xSR":741.5,"ySR":469.95,"xT1":424.9,"yT1":0,"xT2":1058.1,"yT2":0,"toosoon":0,"cond_shown":"randomdotsizeEA","ratio_trial":900,"smaller_num":"18","larger_num":"20","correct_side":1,"subjID":"jOSEjUANUrreaGalvan25","gender":"0","age":"9","school":"4"},{"start_time":1552309833874,"click_time":1552309835018,"finger_time":1552309834278,"fix_duration":614.1344599504145,"trial":4,"RT":404,"MT":740,"sideResp":1,"stimulus":"img/900/equaldotsize/L/4_Ratio_900_L_20_R_18.png","xmouse":[774,774,774,774,774,774,774,774,774,774,774,774,774,774,774,774,774,774,771,762,726,707,695,690,684,682,680,677,672,668,666,666,663,656,647,647,647,646,643,634,628,618,607,594,572,563,557,557,554,545,540,537,537,537,537,532,525,520],"ymouse":[537,537,537,537,537,537,537,537,537,537,537,537,537,537,537,537,537,537,530,515,471,449,432,424,407,397,389,379,368,358,344,335,317,295,257,244,241,238,234,215,201,183,167,149,110,93,77,70,65,52,46,43,43,43,43,42,41,41],"timestamp_mouse":[8,25,44,65,84,104,124,144,165,185,204,225,244,265,285,304,324,345,364,384,404,425,445,465,484,504,525,544,565,585,604,625,645,665,685,704,724,745,765,785,804,824,845,865,885,904,924,945,964,985,1004,1024,1044,1065,1084,1104,1124,1144],"xSR":741.5,"ySR":469.95,"xT1":424.9,"yT1":0,"xT2":1058.1,"yT2":0,"toosoon":0,"cond_shown":"equaldotsize","ratio_trial":900,"smaller_num":"18","larger_num":"20","correct_side":1,"subjID":"jOSEjUANUrreaGalvan25","gender":"0","age":"9","school":"4"},{"start_time":1552309838677,"click_time":1552309840538,"finger_time":1552309839738,"fix_duration":1297.7589342876392,"trial":5,"RT":1061,"MT":800,"sideResp":2,"stimulus":"img/750/equaldotanddens/L/9_Ratio_750_L_4_R_3.png","xmouse":[764,764,764,764,764,764,764,764,764,764,764,764,764,764,764,764,764,764,764,764,765,766,767,767,768,768,768,768,768,768,768,768,768,768,768,768,768,768,768,768,768,768,768,768,768,768,768,768,768,767,763,759,753,744,740,731,723,714,704,695,683,679,676,671,668,668,668,668,668,677,726,768,836,887,931,998,1024,1044,1056,1066,1078,1082,1088,1089,1090,1090,1084,1077,1075,1077,1087,1093,1102,1110],"ymouse":[540,540,540,540,540,540,540,540,540,540,540,540,540,540,540,540,540,540,540,540,540,537,535,534,533,532,532,532,531,531,531,531,531,531,531,531,531,531,531,531,531,531,531,531,531,531,531,531,531,522,509,496,484,464,455,441,430,416,396,373,333,311,292,271,267,265,265,265,264,270,299,324,357,378,394,407,407,397,385,364,324,308,290,287,284,264,242,217,197,186,165,149,116,90],"timestamp_mouse":[11,21,43,61,81,102,122,141,161,181,202,221,241,263,282,301,322,342,362,381,401,421,441,461,482,502,521,542,562,581,603,621,641,662,681,702,721,741,762,783,801,822,841,861,881,902,922,941,961,982,1001,1022,1042,1061,1081,1101,1122,1141,1161,1181,1202,1221,1241,1261,1282,1301,1321,1341,1362,1382,1401,1421,1441,1462,1482,1501,1522,1541,1561,1582,1601,1621,1641,1661,1681,1701,1722,1742,1761,1782,1802,1821,1841,1861],"xSR":741.5,"ySR":469.95,"xT1":424.9,"yT1":0,"xT2":1058.1,"yT2":0,"toosoon":0,"cond_shown":"equaldotanddens","ratio_trial":750,"smaller_num":"3","larger_num":"4","correct_side":1,"subjID":"jOSEjUANUrreaGalvan25","gender":"0","age":"9","school":"4"},{"start_time":1552309843294,"click_time":1552309844698,"finger_time":1552309843758,"fix_duration":1314.6926764772934,"trial":6,"RT":464,"MT":940,"sideResp":1,"stimulus":"img/900/equaldotanddens/L/1_Ratio_900_L_10_R_9.png","xmouse":[758,758,758,758,758,758,758,758,758,758,758,758,758,758,758,758,758,758,758,758,758,758,758,754,741,732,723,714,703,665,615,615,615,615,615,615,615,615,615,615,615,615,615,615,615,366,370,375,376,376,376,376,376,376,376,376,376,376,376,376,376,376,379,381,393,398,401,403,404,412,425],"ymouse":[476,476,476,476,476,476,476,476,476,476,476,476,476,476,476,476,476,476,476,476,476,476,473,464,438,421,399,370,325,177,16,16,16,16,16,16,16,16,16,16,16,16,16,16,16,17,40,49,51,51,51,51,51,51,51,51,51,51,51,51,51,51,51,51,51,51,51,51,51,52,57],"timestamp_mouse":[9,34,44,65,85,105,125,145,164,185,205,224,244,264,284,305,324,344,364,384,405,424,445,464,485,504,524,545,564,585,604,625,645,665,685,704,724,744,765,785,805,823,844,865,884,904,924,944,964,985,1004,1024,1044,1065,1085,1103,1124,1145,1164,1185,1205,1224,1244,1264,1284,1304,1324,1344,1365,1385,1404],"xSR":741.5,"ySR":469.95,"xT1":424.9,"yT1":0,"xT2":1058.1,"yT2":0,"toosoon":0,"cond_shown":"equaldotanddens","ratio_trial":900,"smaller_num":"9","larger_num":"10","correct_side":1,"subjID":"jOSEjUANUrreaGalvan25","gender":"0","age":"9","school":"4"},{"start_time":1552309846630,"click_time":1552309848279,"finger_time":1552309847498,"fix_duration":250,"trial":7,"RT":868,"MT":781,"sideResp":2,"stimulus":"img/900/equaldotanddens/R/3_Ratio_900_L_9_R_10.png","xmouse":[804,804,804,804,804,804,804,804,804,804,804,804,804,804,804,804,804,804,804,804,804,804,804,804,804,804,804,804,804,804,804,804,804,804,804,804,804,804,804,804,804,804,804,804,807,809,810,811,813,815,819,824,829,840,848,855,861,866,883,891,904,915,932,953,959,968,975,983,999,1007,1015,1024,1027,1031,1033,1037,1041,1046,1052,1054,1057,1062,1067],"ymouse":[507,507,507,507,507,507,507,507,507,507,507,507,507,507,507,507,507,507,507,507,507,507,507,507,507,507,507,507,507,507,507,507,507,507,507,507,507,507,507,507,507,504,497,448,430,415,406,404,398,394,390,384,380,371,364,358,353,348,331,324,311,298,276,249,239,228,219,208,187,178,167,154,151,146,144,139,134,127,115,111,106,100,94],"timestamp_mouse":[9,39,49,69,88,109,129,148,169,188,207,229,249,269,288,308,328,349,369,388,408,429,449,469,488,509,528,549,569,589,609,629,649,669,688,709,729,749,768,788,808,828,849,868,889,908,928,949,969,988,1008,1028,1049,1069,1089,1108,1128,1149,1168,1188,1208,1228,1249,1268,1288,1309,1328,1348,1368,1389,1408,1429,1448,1468,1488,1508,1528,1548,1568,1588,1608,1628,1649],"xSR":741.5,"ySR":469.95,"xT1":424.9,"yT1":0,"xT2":1058.1,"yT2":0,"toosoon":0,"cond_shown":"equaldotanddens","ratio_trial":900,"smaller_num":"9","larger_num":"10","correct_side":2,"subjID":"jOSEjUANUrreaGalvan25","gender":"0","age":"9","school":"4"},{"start_time":1552309852501,"click_time":1552309855278,"finger_time":1552309854018,"fix_duration":561.4385114746411,"trial":8,"RT":1517,"MT":1260,"sideResp":1,"stimulus":"img/500/equaldotsize/R/2_Ratio_500_L_3_R_6.png","xmouse":[807,807,807,807,807,807,807,807,807,807,807,807,807,807,807,807,807,807,807,807,807,807,807,807,807,807,807,807,807,807,807,807,807,807,807,807,807,807,807,807,807,807,807,807,807,807,807,807,807,807,807,807,807,807,807,807,807,807,807,807,807,807,807,807,807,807,807,807,807,807,807,807,807,806,796,774,753,726,700,660,632,601,568,533,501,445,442,442,442,442,442,442,442,442,441,438,438,438,438,438,439,441,441,442,444,448,450,453,455,457,461,462,462,462,462,462,462,462,462,462,462,462,462,462,464,464,464,464,464,464,464,464,464,464,464,464,465,468,473],"ymouse":[497,497,497,497,497,497,497,497,497,497,497,497,497,497,497,497,497,497,497,497,497,497,497,497,497,497,497,497,497,497,497,497,497,497,497,497,497,497,497,497,497,497,497,497,497,497,497,497,497,497,497,497,497,497,497,497,497,497,497,497,497,497,497,497,497,497,497,497,497,497,497,497,497,498,488,463,441,418,395,362,345,328,314,299,286,269,267,267,267,267,267,267,267,267,266,256,249,244,241,239,234,231,229,226,222,207,199,192,185,177,163,157,152,146,132,130,128,127,126,124,122,121,120,118,114,112,111,111,111,111,111,111,111,111,111,111,110,100,85],"timestamp_mouse":[17,37,60,78,97,117,138,159,177,198,218,238,258,278,298,317,337,357,378,398,417,438,458,478,498,517,537,557,578,597,617,637,658,678,697,718,738,758,778,798,817,837,857,877,897,918,937,958,977,998,1017,1038,1058,1077,1097,1118,1138,1157,1178,1198,1217,1237,1258,1278,1298,1318,1338,1358,1378,1397,1417,1438,1457,1478,1498,1517,1538,1557,1578,1599,1617,1637,1658,1677,1697,1717,1737,1758,1778,1798,1817,1837,1858,1877,1897,1918,1937,1957,1977,1997,2017,2037,2057,2077,2098,2118,2137,2157,2178,2197,2217,2237,2257,2277,2298,2317,2337,2357,2378,2398,2417,2437,2457,2477,2498,2517,2537,2557,2577,2598,2618,2637,2657,2677,2698,2717,2737,2758,2777],"xSR":741.5,"ySR":469.95,"xT1":424.9,"yT1":0,"xT2":1058.1,"yT2":0,"toosoon":0,"cond_shown":"equaldotsize","ratio_trial":500,"smaller_num":"3","larger_num":"6","correct_side":2,"subjID":"jOSEjUANUrreaGalvan25","gender":"0","age":"9","school":"4"},{"start_time":1552309857291,"click_time":1552309858939,"finger_time":1552309858279,"fix_duration":250,"trial":9,"RT":988,"MT":660,"sideResp":2,"stimulus":"img/500/randomdotsizeEA/L/7_Ratio_500_L_10_R_5.png","xmouse":[790,790,790,790,790,790,790,790,790,790,790,790,790,790,790,790,790,790,790,790,790,790,790,790,790,790,790,790,790,790,790,790,790,790,790,790,790,790,790,790,790,790,790,790,790,790,790,797,814,841,875,938,952,958,961,961,961,961,961,961,961,962,973,979,997,1009,1023,1026,1029,1032,1036,1048,1055,1065,1070,1076,1084,1085,1086,1087,1088,1089,1090],"ymouse":[530,530,530,530,530,530,530,530,530,530,530,530,530,530,530,530,530,530,530,530,530,530,530,530,530,530,530,530,530,530,530,530,530,530,530,530,530,530,530,530,530,530,530,530,530,530,530,517,486,426,370,282,263,257,253,253,253,253,253,253,253,251,237,230,207,196,184,181,179,177,174,164,158,147,137,127,114,111,109,108,107,102,99],"timestamp_mouse":[8,38,47,67,87,107,128,147,167,187,207,227,248,268,287,307,327,348,367,389,408,428,447,467,487,508,527,548,568,588,608,627,648,668,688,707,727,747,767,787,807,827,847,867,887,907,928,947,968,988,1008,1028,1047,1068,1087,1108,1127,1147,1167,1187,1207,1228,1248,1267,1288,1308,1327,1348,1367,1387,1407,1427,1448,1467,1487,1507,1527,1548,1567,1587,1608,1628,1647],"xSR":741.5,"ySR":469.95,"xT1":424.9,"yT1":0,"xT2":1058.1,"yT2":0,"toosoon":0,"cond_shown":"randomdotsizeEA","ratio_trial":500,"smaller_num":"5","larger_num":"10","correct_side":1,"subjID":"jOSEjUANUrreaGalvan25","gender":"0","age":"9","school":"4"},{"start_time":1552309862194,"click_time":1552309863838,"finger_time":1552309863119,"fix_duration":1053.3120229348772,"trial":10,"RT":925,"MT":719,"sideResp":1,"stimulus":"img/750/equaldotsize/R/4_Ratio_750_L_15_R_20.png","xmouse":[809,809,809,809,809,809,809,809,809,809,809,809,809,809,809,809,809,809,809,809,809,809,809,809,809,809,809,808,802,795,788,775,770,769,768,766,765,765,765,765,764,762,758,755,751,745,732,730,726,724,722,718,711,706,703,699,695,681,674,667,659,637,625,615,606,597,587,582,579,575,572,567,556,551,544,538,527,526,526,525,525,525,524],"ymouse":[527,527,527,527,527,527,527,527,527,527,527,527,527,527,527,527,527,527,527,527,527,527,527,527,527,527,527,528,526,520,514,504,500,499,498,497,496,496,496,495,495,493,487,482,479,471,455,452,446,442,439,434,423,415,407,399,392,367,359,347,335,309,297,284,272,263,245,235,229,220,213,203,177,161,146,130,107,103,101,100,98,97,97],"timestamp_mouse":[8,24,44,65,85,105,124,144,165,185,204,225,244,265,284,304,324,344,365,385,405,425,445,465,485,505,524,545,564,584,605,625,644,665,685,704,724,745,765,785,804,824,844,864,886,905,925,944,965,984,1005,1024,1044,1065,1084,1104,1124,1144,1164,1185,1204,1225,1244,1264,1284,1304,1325,1344,1365,1384,1404,1424,1444,1465,1485,1504,1525,1544,1564,1584,1604,1625,1644],"xSR":741.5,"ySR":469.95,"xT1":424.9,"yT1":0,"xT2":1058.1,"yT2":0,"toosoon":0,"cond_shown":"equaldotsize","ratio_trial":750,"smaller_num":"15","larger_num":"20","correct_side":2,"subjID":"jOSEjUANUrreaGalvan25","gender":"0","age":"9","school":"4"},{"start_time":1552309865920,"click_time":1552309877060,"finger_time":1552309876678,"fix_duration":700.2514475242699,"trial":11,"RT":10758,"MT":382,"sideResp":2,"stimulus":"img/750/equaldotanddens/R/11_Ratio_750_L_12_R_16.png","xmouse":[802,802,802,802,802,802,802,802,802,802,802,802,802,802,802,802,802,802,802,802,802,802,802,802,802,802,802,802,802,802,802,802,802,802,802,802,802,802,802,802,802,802,802,802,802,802,802,802,802,802,802,802,802,802,802,802,802,802,802,802,802,802,802,802,802,802,802,802,802,802,802,802,802,802,802,802,802,802,802,802,802,802,802,802,802,802,802,802,802,802,802,802,802,802,802,802,802,802,802,802,802,802,802,802,802,802,802,802,802,802,802,802,802,802,802,802,802,802,802,802,802,802,802,802,802,802,802,802,802,802,802,802,802,802,802,802,802,802,802,802,802,802,802,802,802,802,802,802,802,802,802,802,802,802,802,802,802,802,802,802,802,802,802,802,802,802,802,802,802,802,802,802,802,802,802,802,802,802,802,802,802,802,802,802,802,802,802,802,802,802,802,802,802,802,802,802,802,802,802,802,802,802,802,802,802,802,802,802,802,802,802,802,802,802,802,802,802,802,802,802,802,802,802,802,802,802,802,802,802,802,802,802,802,802,802,802,802,802,802,802,802,802,802,802,802,802,802,802,802,802,802,802,802,802,802,802,802,802,802,802,802,802,802,802,802,802,802,802,802,802,802,802,802,802,802,802,802,802,802,802,802,802,802,802,802,802,802,802,802,802,802,802,802,802,802,802,802,802,802,802,802,802,802,802,802,802,802,802,802,802,802,802,802,802,802,802,802,802,802,802,802,802,802,802,802,802,802,802,802,802,802,802,802,802,802,802,802,802,802,802,802,802,802,802,802,802,802,802,802,802,802,802,802,802,802,802,802,802,802,802,802,802,802,802,802,802,802,802,802,802,802,802,802,802,802,802,802,802,802,802,802,802,802,802,802,802,802,802,802,802,802,802,802,802,802,802,802,802,802,802,802,802,802,802,802,802,802,802,802,802,802,802,802,802,802,802,802,802,802,802,802,802,802,802,802,802,802,802,802,802,802,802,802,802,802,802,802,802,802,802,802,802,802,802,802,802,802,802,802,802,802,802,802,802,802,802,802,802,802,802,802,802,802,802,802,802,802,802,802,802,802,802,802,802,802,802,802,802,802,802,802,802,802,802,802,802,802,802,802,802,802,802,802,802,802,802,802,802,802,802,802,802,802,802,802,802,802,802,802,802,802,802,802,802,802,802,802,802,802,802,802,802,802,804,819,824,824,824,824,824,824,824,824,824,824,824,824,856,913,952,983,1047,1055,1055,1055,1055,1055,1055,1055,1055,1055,1055,1055,1055,1055,1071,1071],"ymouse":[517,517,517,517,517,517,517,517,517,517,517,517,517,517,517,517,517,517,517,517,517,517,517,517,517,517,517,517,517,517,517,517,517,517,517,517,517,517,517,517,517,517,517,517,517,517,517,517,517,517,517,517,517,517,517,517,517,517,517,517,517,517,517,517,517,517,517,517,517,517,517,517,517,517,517,517,517,517,517,517,517,517,517,517,517,517,517,517,517,517,517,517,517,517,517,517,517,517,517,517,517,517,517,517,517,517,517,517,517,517,517,517,517,517,517,517,517,517,517,517,517,517,517,517,517,517,517,517,517,517,517,517,517,517,517,517,517,517,517,517,517,517,517,517,517,517,517,517,517,517,517,517,517,517,517,517,517,517,517,517,517,517,517,517,517,517,517,517,517,517,517,517,517,517,517,517,517,517,517,517,517,517,517,517,517,517,517,517,517,517,517,517,517,517,517,517,517,517,517,517,517,517,517,517,517,517,517,517,517,517,517,517,517,517,517,517,517,517,517,517,517,517,517,517,517,517,517,517,517,517,517,517,517,517,517,517,517,517,517,517,517,517,517,517,517,517,517,517,517,517,517,517,517,517,517,517,517,517,517,517,517,517,517,517,517,517,517,517,517,517,517,517,517,517,517,517,517,517,517,517,517,517,517,517,517,517,517,517,517,517,517,517,517,517,517,517,517,517,517,517,517,517,517,517,517,517,517,517,517,517,517,517,517,517,517,517,517,517,517,517,517,517,517,517,517,517,517,517,517,517,517,517,517,517,517,517,517,517,517,517,517,517,517,517,517,517,517,517,517,517,517,517,517,517,517,517,517,517,517,517,517,517,517,517,517,517,517,517,517,517,517,517,517,517,517,517,517,517,517,517,517,517,517,517,517,517,517,517,517,517,517,517,517,517,517,517,517,517,517,517,517,517,517,517,517,517,517,517,517,517,517,517,517,517,517,517,517,517,517,517,517,517,517,517,517,517,517,517,517,517,517,517,517,517,517,517,517,517,517,517,517,517,517,517,517,517,517,517,517,517,517,517,517,517,517,517,517,517,517,517,517,517,517,517,517,517,517,517,517,517,517,517,517,517,517,517,517,517,517,517,517,517,517,517,517,517,517,517,517,517,517,517,517,517,517,517,517,517,517,517,517,517,517,517,517,517,517,517,517,517,517,517,517,517,517,517,517,517,517,517,517,517,517,518,518,525,529,529,529,529,529,529,529,529,529,529,529,498,421,366,326,124,58,58,58,58,58,58,58,58,58,58,58,58,58,0,20],"timestamp_mouse":[29,38,59,79,98,118,138,158,178,198,218,238,258,278,299,318,338,359,379,398,419,439,459,479,498,519,538,559,578,598,618,638,659,679,698,719,738,759,779,799,819,838,858,878,898,918,938,959,979,998,1018,1038,1059,1079,1099,1118,1144,1159,1179,1199,1219,1238,1259,1278,1299,1318,1338,1358,1378,1398,1419,1439,1459,1479,1499,1518,1538,1559,1579,1598,1618,1638,1658,1679,1698,1718,1739,1758,1778,1799,1819,1839,1858,1879,1898,1919,1939,1959,1979,1998,2018,2038,2058,2079,2098,2118,2138,2158,2179,2199,2218,2239,2259,2278,2299,2318,2339,2358,2379,2398,2418,2438,2459,2479,2499,2518,2539,2559,2579,2599,2618,2639,2659,2679,2698,2718,2739,2758,2778,2799,2818,2839,2858,2878,2898,2918,2939,2958,2978,2999,3018,3039,3058,3079,3098,3118,3138,3159,3179,3198,3219,3239,3258,3279,3298,3318,3339,3358,3379,3399,3418,3439,3458,3479,3499,3518,3539,3559,3579,3599,3618,3639,3658,3679,3698,3718,3739,3758,3779,3798,3818,3839,3859,3879,3898,3918,3939,3958,3979,3998,4018,4039,4059,4079,4099,4118,4138,4158,4179,4199,4218,4238,4259,4278,4299,4318,4339,4359,4379,4398,4418,4439,4458,4478,4499,4519,4538,4558,4579,4598,4618,4638,4659,4678,4699,4718,4739,4759,4779,4798,4818,4838,4858,4879,4898,4918,4938,4958,4979,4999,5019,5039,5059,5079,5099,5118,5138,5159,5179,5198,5219,5238,5259,5279,5299,5318,5339,5359,5379,5398,5418,5439,5458,5479,5498,5519,5538,5559,5578,5598,5618,5639,5659,5678,5698,5718,5739,5759,5779,5799,5819,5839,5858,5878,5899,5919,5940,5959,5979,5998,6019,6038,6059,6078,6099,6118,6138,6159,6179,6198,6219,6239,6259,6278,6299,6319,6339,6359,6378,6399,6419,6438,6459,6478,6499,6519,6539,6559,6579,6599,6619,6639,6659,6679,6698,6719,6738,6759,6779,6799,6820,6839,6859,6879,6898,6919,6938,6959,6979,6998,7018,7039,7059,7079,7099,7118,7138,7159,7179,7199,7219,7239,7258,7278,7298,7318,7338,7358,7379,7398,7418,7439,7459,7479,7498,7518,7539,7558,7579,7598,7618,7639,7659,7678,7698,7718,7739,7759,7779,7799,7818,7838,7859,7879,7900,7918,7939,7958,7978,7999,8019,8039,8058,8078,8098,8118,8139,8158,8179,8198,8218,8238,8259,8279,8298,8319,8339,8358,8379,8399,8418,8439,8459,8479,8499,8519,8539,8558,8578,8599,8618,8639,8658,8678,8699,8719,8738,8759,8778,8799,8818,8839,8859,8879,8899,8932,8939,8958,8978,8999,9018,9039,9059,9080,9099,9118,9139,9159,9178,9198,9218,9239,9258,9278,9299,9318,9339,9359,9378,9399,9418,9438,9459,9479,9498,9518,9539,9559,9579,9599,9618,9639,9658,9678,9699,9719,9739,9760,9779,9799,9818,9838,9859,9878,9898,9919,9938,9959,9978,9999,10018,10039,10058,10078,10099,10118,10139,10158,10179,10199,10219,10239,10258,10277,10298,10318,10339,10359,10378,10398,10418,10438,10459,10478,10498,10518,10538,10558,10578,10599,10618,10638,10658,10678,10699,10719,10739,10758,10778,10798,10819,10838,10858,10879,10898,10919,10939,10959,10979,10999,11018,11038,11058,11078,11098,11118,11140],"xSR":741.5,"ySR":469.95,"xT1":424.9,"yT1":0,"xT2":1058.1,"yT2":0,"toosoon":0,"cond_shown":"equaldotanddens","ratio_trial":750,"smaller_num":"12","larger_num":"16","correct_side":2,"subjID":"jOSEjUANUrreaGalvan25","gender":"0","age":"9","school":"4"},{"start_time":1552309878514,"click_time":1552309879360,"finger_time":1552309878859,"fix_duration":332.0955612631973,"trial":12,"RT":345,"MT":501,"sideResp":2,"stimulus":"img/750/equaldotsize/R/11_Ratio_750_L_12_R_16.png","xmouse":[749,749,749,749,749,749,749,749,749,749,749,749,749,749,752,754,757,768,776,780,785,791,799,822,830,845,861,917,949,976,997,1016,1043,1054,1055,1055,1055,1055,1056,1057,1057,1059,1075],"ymouse":[493,493,493,493,493,493,493,493,493,493,493,493,493,490,485,482,476,453,439,432,421,410,401,374,366,351,331,265,229,201,178,155,121,108,106,106,106,106,104,104,103,100,70],"timestamp_mouse":[8,32,45,64,85,105,124,144,165,185,205,224,244,264,284,305,325,345,364,384,405,425,445,464,485,505,525,546,564,585,604,625,645,665,685,704,724,744,765,784,805,824,845],"xSR":741.5,"ySR":469.95,"xT1":424.9,"yT1":0,"xT2":1058.1,"yT2":0,"toosoon":0,"cond_shown":"equaldotsize","ratio_trial":750,"smaller_num":"12","larger_num":"16","correct_side":2,"subjID":"jOSEjUANUrreaGalvan25","gender":"0","age":"9","school":"4"},{"start_time":1552309880975,"click_time":1552309882118,"finger_time":1552309881318,"fix_duration":593.9392743968302,"trial":13,"RT":343,"MT":800,"sideResp":1,"stimulus":"img/900/equaldotsize/R/15_Ratio_900_L_9_R_10.png","xmouse":[777,777,777,777,777,777,777,777,777,777,777,777,777,777,777,777,779,780,778,766,746,739,733,723,706,662,647,637,630,624,623,623,623,623,623,623,623,622,617,614,602,597,593,588,585,566,561,557,552,545,538,536,535,535,535,531,527,524],"ymouse":[486,486,486,486,486,486,486,486,486,486,486,486,486,486,487,485,479,467,420,371,302,284,264,240,198,102,72,53,40,32,30,30,30,30,30,30,30,30,30,30,29,28,27,25,23,12,10,9,8,7,7,7,7,7,7,7,7,7],"timestamp_mouse":[8,24,44,63,84,104,124,143,163,184,204,224,243,264,283,303,323,343,364,383,404,423,443,463,484,503,523,543,563,584,603,624,643,663,683,703,723,744,764,784,803,824,843,863,883,903,924,943,963,983,1004,1023,1043,1063,1084,1103,1123,1142],"xSR":741.5,"ySR":469.95,"xT1":424.9,"yT1":0,"xT2":1058.1,"yT2":0,"toosoon":0,"cond_shown":"equaldotsize","ratio_trial":900,"smaller_num":"9","larger_num":"10","correct_side":2,"subjID":"jOSEjUANUrreaGalvan25","gender":"0","age":"9","school":"4"},{"start_time":1552309884280,"click_time":1552309885338,"finger_time":1552309884758,"fix_duration":1321.1879855098537,"trial":14,"RT":478,"MT":580,"sideResp":2,"stimulus":"img/750/randomdotsizeEA/L/14_Ratio_750_L_8_R_6.png","xmouse":[832,832,832,832,832,832,831,831,831,831,831,831,831,831,831,831,831,831,831,831,831,831,834,844,897,930,966,1000,1024,1046,1051,1052,1053,1055,1060,1062,1064,1066,1068,1068,1068,1068,1068,1068,1068,1068,1068,1068,1068,1068,1070,1073,1076],"ymouse":[527,527,527,527,527,527,527,527,527,527,527,527,527,527,527,527,527,527,527,527,523,515,497,471,365,304,247,200,169,144,140,138,136,134,129,125,122,121,118,117,117,117,117,117,117,117,117,117,117,117,114,106,98],"timestamp_mouse":[18,39,58,79,98,118,138,158,179,199,218,239,259,278,299,319,338,358,379,398,418,438,458,478,499,518,538,559,579,597,618,638,658,679,699,718,738,759,778,798,819,838,859,878,899,919,938,959,979,999,1019,1038,1058],"xSR":741.5,"ySR":469.95,"xT1":424.9,"yT1":0,"xT2":1058.1,"yT2":0,"toosoon":0,"cond_shown":"randomdotsizeEA","ratio_trial":750,"smaller_num":"6","larger_num":"8","correct_side":1,"subjID":"jOSEjUANUrreaGalvan25","gender":"0","age":"9","school":"4"},{"start_time":1552309890531,"click_time":1552309936699,"finger_time":1552309936398,"fix_duration":250,"trial":15,"RT":45867,"MT":301,"sideResp":2,"stimulus":"img/250/randomdotsizeEA/L/15_Ratio_250_L_12_R_3.png","xmouse":[783,783,783,783,783,783,783,783,783,783,783,783,783,783,783,783,783,783,783,783,783,783,783,783,783,783,783,783,783,783,783,783,783,783,783,783,783,783,783,783,783,783,783,783,783,783,783,783,783,783,783,783,783,783,783,783,783,783,783,783,783,783,783,783,783,783,783,783,783,783,783,783,783,783,783,783,783,783,783,783,783,783,783,783,783,783,783,783,783,783,783,783,783,783,783,783,783,783,783,783,783,783,783,783,783,783,783,783,783,783,783,783,783,783,783,783,783,783,783,783,783,783,783,783,783,783,783,783,783,783,783,783,783,783,783,783,783,783,783,783,783,783,783,783,783,783,783,783,783,783,783,783,783,783,783,783,783,783,783,783,783,783,783,783,783,783,783,783,783,783,783,783,783,783,783,783,783,783,783,783,783,783,783,783,783,783,783,783,783,783,783,783,783,783,783,783,783,783,783,783,783,783,783,783,783,783,783,783,783,783,783,783,783,783,783,783,783,783,783,783,783,783,783,783,783,783,783,783,783,783,783,783,783,783,783,783,783,783,783,783,783,783,783,783,783,783,783,783,783,783,783,783,783,783,783,783,783,783,783,783,783,783,783,783,783,783,783,783,783,783,783,783,783,783,783,783,783,783,783,783,783,783,783,783,783,783,783,783,783,783,783,783,783,783,783,783,783,783,783,783,783,783,783,783,783,783,783,783,783,783,783,783,783,783,783,783,783,783,783,783,783,783,783,783,783,783,783,783,783,783,783,783,783,783,783,783,783,783,783,783,783,783,783,783,783,783,783,783,783,783,783,783,783,783,783,783,783,783,783,783,783,783,783,783,783,783,783,783,783,783,783,783,783,783,783,783,783,783,783,783,783,783,783,783,783,783,783,783,783,783,783,783,783,783,783,783,783,783,783,783,783,783,783,783,783,783,783,783,783,783,783,783,783,783,783,783,783,783,783,783,783,783,783,783,783,783,783,783,783,783,783,783,783,783,783,783,783,783,783,783,783,783,783,783,783,783,783,783,783,783,783,783,783,783,783,783,783,783,783,783,783,783,783,783,783,783,783,783,783,783,783,783,783,783,783,783,783,783,783,783,783,783,783,783,783,783,783,783,783,783,783,783,783,783,783,783,783,783,783,783,783,783,783,783,783,783,783,783,783,783,783,783,783,783,783,783,783,783,783,783,783,783,783,783,783,783,783,783,783,783,783,783,783,783,783,783,783,783,783,783,783,783,783,783,783,783,783,783,783,783,783,783,783,783,783,783,783,783,783,783,783,783,783,783,783,783,783,783,783,783,783,783,783,783,783,783,783,783,783,783,783,783,783,783,783,783,783,783,783,783,783,783,783,783,783,783,783,783,783,783,783,783,783,783,783,783,783,783,783,783,783,783,783,783,783,783,783,783,783,783,783,783,783,783,783,783,783,783,783,783,783,783,783,783,783,783,783,783,783,783,783,783,783,783,783,783,783,783,783,783,783,783,783,783,783,783,783,783,783,783,783,783,783,783,783,783,783,783,783,783,783,783,783,783,783,783,783,783,783,783,783,783,783,783,783,783,783,783,783,783,783,783,783,783,783,783,783,783,783,783,783,783,783,783,783,783,783,783,783,783,783,783,783,783,783,783,783,783,783,783,783,783,783,783,783,783,783,783,783,783,783,783,783,783,783,783,783,783,783,783,783,783,783,783,783,783,783,783,783,783,783,783,783,783,783,783,783,783,783,783,783,783,783,783,783,783,783,783,783,783,783,783,783,783,783,783,783,783,783,783,783,783,783,783,783,783,783,783,783,783,783,783,783,783,783,783,783,783,783,783,783,783,783,783,783,783,783,783,783,783,783,783,783,783,783,783,783,783,783,783,783,783,783,783,783,783,783,783,783,783,783,783,783,783,783,783,783,783,783,783,783,783,783,783,783,783,783,783,783,783,783,783,783,783,783,783,783,783,783,783,783,783,783,783,783,783,783,783,783,783,783,783,783,783,783,783,783,783,783,783,783,783,783,783,783,783,783,783,783,783,783,783,783,783,783,783,783,783,783,783,783,783,783,783,783,783,783,783,783,783,783,783,783,783,783,783,783,783,783,783,783,783,783,783,783,783,783,783,783,783,783,783,783,783,783,783,783,783,783,783,783,783,783,783,783,783,783,783,783,783,783,783,783,783,783,783,783,783,783,783,783,783,783,783,783,783,783,783,783,783,783,783,783,783,783,783,783,783,783,783,783,783,783,783,783,783,783,783,783,783,783,783,783,783,783,783,783,783,783,783,783,783,783,783,783,783,783,783,783,783,783,783,783,783,783,783,783,783,783,783,783,783,783,783,783,783,783,783,783,783,783,783,783,783,783,783,783,783,783,783,783,783,783,783,783,783,783,783,783,783,783,783,783,783,783,783,783,783,783,783,783,783,783,783,783,783,783,783,783,783,783,783,783,783,783,783,783,783,783,783,783,783,783,783,783,783,783,783,783,783,783,783,783,783,783,783,783,783,783,783,783,783,783,783,783,783,783,783,783,783,783,783,783,783,783,783,783,783,783,783,783,783,783,783,783,783,783,783,783,783,783,783,783,783,783,783,783,783,783,783,783,783,783,783,783,783,783,783,783,783,783,783,783,783,783,783,783,783,783,783,783,783,783,783,783,783,783,783,783,783,783,783,783,783,783,783,783,783,783,783,783,783,783,783,783,783,783,783,783,783,783,783,783,783,783,783,783,783,783,783,783,783,783,783,783,783,783,783,783,783,783,783,783,783,783,783,783,783,783,783,783,783,783,783,783,783,783,783,783,783,783,783,783,783,783,783,783,783,783,783,783,783,783,783,783,783,783,783,783,783,783,783,783,783,783,783,783,783,783,783,783,783,783,783,783,783,783,783,783,783,783,783,783,783,783,783,783,783,783,783,783,783,783,783,783,783,783,783,783,783,783,783,783,783,783,783,783,783,783,783,783,783,783,783,783,783,783,783,783,783,783,783,783,783,783,783,783,783,783,783,783,783,783,783,783,783,783,783,783,783,783,783,783,783,783,783,783,783,783,783,783,783,783,783,783,783,783,783,783,783,783,783,783,783,783,783,783,783,783,783,783,783,783,783,783,783,783,783,783,783,783,783,783,783,783,783,783,783,783,783,783,783,783,783,783,783,783,783,783,783,783,783,783,783,783,783,783,783,783,783,783,783,783,783,783,783,783,783,783,783,783,783,783,783,783,783,783,783,783,783,783,783,783,783,783,783,783,783,783,783,783,783,783,783,783,783,783,783,783,783,783,783,783,783,783,783,783,783,783,783,783,783,783,783,783,783,783,783,783,783,783,783,783,783,783,783,783,783,783,783,783,783,783,783,783,783,783,783,783,783,783,783,783,783,783,783,783,783,783,783,783,783,783,783,783,783,783,783,783,783,783,783,783,783,783,783,783,783,783,783,783,783,783,783,783,783,783,783,783,783,783,783,783,783,783,783,783,783,783,783,783,783,783,783,783,783,783,783,783,783,783,783,783,783,783,783,783,783,783,783,783,783,783,783,783,783,783,783,783,783,783,783,783,783,783,783,783,783,783,783,783,783,783,783,783,783,783,783,783,783,783,783,783,783,783,783,783,783,783,783,783,783,783,783,783,783,783,783,783,783,783,783,783,783,783,783,783,783,783,783,783,783,783,783,783,783,783,783,783,783,783,783,783,783,783,783,783,783,783,783,783,783,783,783,783,783,783,783,783,783,783,783,783,783,783,783,783,783,783,783,783,783,783,783,783,783,783,783,783,783,783,783,783,783,783,783,783,783,783,783,783,783,783,783,783,783,783,783,783,783,783,783,783,783,783,783,783,783,783,783,783,783,783,783,783,783,783,783,783,783,783,783,783,783,783,783,783,783,783,783,783,783,783,783,783,783,783,783,783,783,783,783,783,783,783,783,783,783,783,783,783,783,783,783,783,783,783,783,783,783,783,783,783,783,783,783,783,783,783,783,783,783,783,783,783,783,783,783,783,783,783,783,783,783,783,783,783,783,783,783,783,783,783,783,783,783,783,783,783,783,783,783,783,783,783,783,783,783,783,783,783,783,783,783,783,783,783,783,783,783,783,783,783,783,783,783,783,783,783,783,783,783,783,783,783,783,783,783,783,783,783,783,783,783,783,783,783,783,783,783,783,783,783,783,783,783,783,783,783,783,783,783,783,783,783,783,783,783,783,783,783,783,783,783,783,783,783,783,783,783,783,783,783,783,783,783,783,783,783,783,783,783,783,783,783,783,783,783,783,783,783,783,783,783,783,783,783,783,783,783,783,783,783,783,783,783,783,783,783,783,783,783,783,783,783,783,783,783,783,783,783,783,783,783,783,783,783,783,783,783,783,783,783,783,783,783,783,783,783,783,783,783,783,783,783,783,783,783,783,783,783,783,783,783,783,783,783,783,783,783,783,783,783,783,783,783,783,783,783,783,783,783,783,783,783,783,783,783,783,783,783,783,783,783,783,783,783,783,783,783,783,783,783,783,783,783,783,783,783,783,783,783,783,783,783,783,783,783,783,783,783,783,783,783,783,783,783,783,783,783,783,783,783,783,783,783,783,783,783,783,783,783,783,783,783,783,783,783,783,783,783,783,783,783,783,783,783,783,783,783,783,783,783,783,783,783,783,783,783,783,783,783,783,783,783,783,783,783,783,783,783,783,783,783,783,783,783,783,783,783,783,783,783,783,783,783,783,783,783,783,783,783,783,783,783,783,783,783,783,783,783,783,783,783,783,783,783,783,783,783,783,783,783,783,783,783,783,783,783,783,783,783,783,783,783,783,783,783,783,783,783,783,783,783,783,783,783,783,783,783,783,783,783,783,783,783,783,783,783,783,783,783,783,783,783,783,783,783,783,783,783,783,783,783,783,783,783,783,783,783,783,783,783,783,783,783,783,783,783,783,783,783,783,783,783,783,783,783,783,783,783,783,783,783,783,783,783,783,783,783,783,783,783,783,783,783,783,783,783,783,783,783,783,783,783,783,783,783,783,783,783,783,783,783,783,783,783,783,783,783,783,783,783,783,783,783,783,783,783,783,783,783,783,783,783,783,783,783,783,783,783,783,783,783,783,783,783,783,783,783,783,783,783,783,783,783,783,783,783,783,783,783,783,783,783,783,783,783,783,783,783,783,783,783,783,783,783,783,783,783,789,791,808,816,825,831,831,831,831,831,831,831,831,831,834,841,850,875,910,924,939,953,965,996,1027,1044,1056,1063,1068],"ymouse":[497,497,497,497,497,497,497,497,497,497,497,497,497,497,497,497,497,497,497,497,497,497,497,497,497,497,497,497,497,497,497,497,497,497,497,497,497,497,497,497,497,497,497,497,497,497,497,497,497,497,497,497,497,497,497,497,497,497,497,497,497,497,497,497,497,497,497,497,497,497,497,497,497,497,497,497,497,497,497,497,497,497,497,497,497,497,497,497,497,497,497,497,497,497,497,497,497,497,497,497,497,497,497,497,497,497,497,497,497,497,497,497,497,497,497,497,497,497,497,497,497,497,497,497,497,497,497,497,497,497,497,497,497,497,497,497,497,497,497,497,497,497,497,497,497,497,497,497,497,497,497,497,497,497,497,497,497,497,497,497,497,497,497,497,497,497,497,497,497,497,497,497,497,497,497,497,497,497,497,497,497,497,497,497,497,497,497,497,497,497,497,497,497,497,497,497,497,497,497,497,497,497,497,497,497,497,497,497,497,497,497,497,497,497,497,497,497,497,497,497,497,497,497,497,497,497,497,497,497,497,497,497,497,497,497,497,497,497,497,497,497,497,497,497,497,497,497,497,497,497,497,497,497,497,497,497,497,497,497,497,497,497,497,497,497,497,497,497,497,497,497,497,497,497,497,497,497,497,497,497,497,497,497,497,497,497,497,497,497,497,497,497,497,497,497,497,497,497,497,497,497,497,497,497,497,497,497,497,497,497,497,497,497,497,497,497,497,497,497,497,497,497,497,497,497,497,497,497,497,497,497,497,497,497,497,497,497,497,497,497,497,497,497,497,497,497,497,497,497,497,497,497,497,497,497,497,497,497,497,497,497,497,497,497,497,497,497,497,497,497,497,497,497,497,497,497,497,497,497,497,497,497,497,497,497,497,497,497,497,497,497,497,497,497,497,497,497,497,497,497,497,497,497,497,497,497,497,497,497,497,497,497,497,497,497,497,497,497,497,497,497,497,497,497,497,497,497,497,497,497,497,497,497,497,497,497,497,497,497,497,497,497,497,497,497,497,497,497,497,497,497,497,497,497,497,497,497,497,497,497,497,497,497,497,497,497,497,497,497,497,497,497,497,497,497,497,497,497,497,497,497,497,497,497,497,497,497,497,497,497,497,497,497,497,497,497,497,497,497,497,497,497,497,497,497,497,497,497,497,497,497,497,497,497,497,497,497,497,497,497,497,497,497,497,497,497,497,497,497,497,497,497,497,497,497,497,497,497,497,497,497,497,497,497,497,497,497,497,497,497,497,497,497,497,497,497,497,497,497,497,497,497,497,497,497,497,497,497,497,497,497,497,497,497,497,497,497,497,497,497,497,497,497,497,497,497,497,497,497,497,497,497,497,497,497,497,497,497,497,497,497,497,497,497,497,497,497,497,497,497,497,497,497,497,497,497,497,497,497,497,497,497,497,497,497,497,497,497,497,497,497,497,497,497,497,497,497,497,497,497,497,497,497,497,497,497,497,497,497,497,497,497,497,497,497,497,497,497,497,497,497,497,497,497,497,497,497,497,497,497,497,497,497,497,497,497,497,497,497,497,497,497,497,497,497,497,497,497,497,497,497,497,497,497,497,497,497,497,497,497,497,497,497,497,497,497,497,497,497,497,497,497,497,497,497,497,497,497,497,497,497,497,497,497,497,497,497,497,497,497,497,497,497,497,497,497,497,497,497,497,497,497,497,497,497,497,497,497,497,497,497,497,497,497,497,497,497,497,497,497,497,497,497,497,497,497,497,497,497,497,497,497,497,497,497,497,497,497,497,497,497,497,497,497,497,497,497,497,497,497,497,497,497,497,497,497,497,497,497,497,497,497,497,497,497,497,497,497,497,497,497,497,497,497,497,497,497,497,497,497,497,497,497,497,497,497,497,497,497,497,497,497,497,497,497,497,497,497,497,497,497,497,497,497,497,497,497,497,497,497,497,497,497,497,497,497,497,497,497,497,497,497,497,497,497,497,497,497,497,497,497,497,497,497,497,497,497,497,497,497,497,497,497,497,497,497,497,497,497,497,497,497,497,497,497,497,497,497,497,497,497,497,497,497,497,497,497,497,497,497,497,497,497,497,497,497,497,497,497,497,497,497,497,497,497,497,497,497,497,497,497,497,497,497,497,497,497,497,497,497,497,497,497,497,497,497,497,497,497,497,497,497,497,497,497,497,497,497,497,497,497,497,497,497,497,497,497,497,497,497,497,497,497,497,497,497,497,497,497,497,497,497,497,497,497,497,497,497,497,497,497,497,497,497,497,497,497,497,497,497,497,497,497,497,497,497,497,497,497,497,497,497,497,497,497,497,497,497,497,497,497,497,497,497,497,497,497,497,497,497,497,497,497,497,497,497,497,497,497,497,497,497,497,497,497,497,497,497,497,497,497,497,497,497,497,497,497,497,497,497,497,497,497,497,497,497,497,497,497,497,497,497,497,497,497,497,497,497,497,497,497,497,497,497,497,497,497,497,497,497,497,497,497,497,497,497,497,497,497,497,497,497,497,497,497,497,497,497,497,497,497,497,497,497,497,497,497,497,497,497,497,497,497,497,497,497,497,497,497,497,497,497,497,497,497,497,497,497,497,497,497,497,497,497,497,497,497,497,497,497,497,497,497,497,497,497,497,497,497,497,497,497,497,497,497,497,497,497,497,497,497,497,497,497,497,497,497,497,497,497,497,497,497,497,497,497,497,497,497,497,497,497,497,497,497,497,497,497,497,497,497,497,497,497,497,497,497,497,497,497,497,497,497,497,497,497,497,497,497,497,497,497,497,497,497,497,497,497,497,497,497,497,497,497,497,497,497,497,497,497,497,497,497,497,497,497,497,497,497,497,497,497,497,497,497,497,497,497,497,497,497,497,497,497,497,497,497,497,497,497,497,497,497,497,497,497,497,497,497,497,497,497,497,497,497,497,497,497,497,497,497,497,497,497,497,497,497,497,497,497,497,497,497,497,497,497,497,497,497,497,497,497,497,497,497,497,497,497,497,497,497,497,497,497,497,497,497,497,497,497,497,497,497,497,497,497,497,497,497,497,497,497,497,497,497,497,497,497,497,497,497,497,497,497,497,497,497,497,497,497,497,497,497,497,497,497,497,497,497,497,497,497,497,497,497,497,497,497,497,497,497,497,497,497,497,497,497,497,497,497,497,497,497,497,497,497,497,497,497,497,497,497,497,497,497,497,497,497,497,497,497,497,497,497,497,497,497,497,497,497,497,497,497,497,497,497,497,497,497,497,497,497,497,497,497,497,497,497,497,497,497,497,497,497,497,497,497,497,497,497,497,497,497,497,497,497,497,497,497,497,497,497,497,497,497,497,497,497,497,497,497,497,497,497,497,497,497,497,497,497,497,497,497,497,497,497,497,497,497,497,497,497,497,497,497,497,497,497,497,497,497,497,497,497,497,497,497,497,497,497,497,497,497,497,497,497,497,497,497,497,497,497,497,497,497,497,497,497,497,497,497,497,497,497,497,497,497,497,497,497,497,497,497,497,497,497,497,497,497,497,497,497,497,497,497,497,497,497,497,497,497,497,497,497,497,497,497,497,497,497,497,497,497,497,497,497,497,497,497,497,497,497,497,497,497,497,497,497,497,497,497,497,497,497,497,497,497,497,497,497,497,497,497,497,497,497,497,497,497,497,497,497,497,497,497,497,497,497,497,497,497,497,497,497,497,497,497,497,497,497,497,497,497,497,497,497,497,497,497,497,497,497,497,497,497,497,497,497,497,497,497,497,497,497,497,497,497,497,497,497,497,497,497,497,497,497,497,497,497,497,497,497,497,497,497,497,497,497,497,497,497,497,497,497,497,497,497,497,497,497,497,497,497,497,497,497,497,497,497,497,497,497,497,497,497,497,497,497,497,497,497,497,497,497,497,497,497,497,497,497,497,497,497,497,497,497,497,497,497,497,497,497,497,497,497,497,497,497,497,497,497,497,497,497,497,497,497,497,497,497,497,497,497,497,497,497,497,497,497,497,497,497,497,497,497,497,497,497,497,497,497,497,497,497,497,497,497,497,497,497,497,497,497,497,497,497,497,497,497,497,497,497,497,497,497,497,497,497,497,497,497,497,497,497,497,497,497,497,497,497,497,497,497,497,497,497,497,497,497,497,497,497,497,497,497,497,497,497,497,497,497,497,497,497,497,497,497,497,497,497,497,497,497,497,497,497,497,497,497,497,497,497,497,497,497,497,497,497,497,497,497,497,497,497,497,497,497,497,497,497,497,497,497,497,497,497,497,497,497,497,497,497,497,497,497,497,497,497,497,497,497,497,497,497,497,497,497,497,497,497,497,497,497,497,497,497,497,497,497,497,497,497,497,497,497,497,497,497,497,497,497,497,497,497,497,497,497,497,497,497,497,497,497,497,497,497,497,497,497,497,497,497,497,497,497,497,497,497,497,497,497,497,497,497,497,497,497,497,497,497,497,497,497,497,497,497,497,497,497,497,497,497,497,497,497,497,497,497,497,497,497,497,497,497,497,497,497,497,497,497,497,497,497,497,497,497,497,497,497,497,497,497,497,497,497,497,497,497,497,497,497,497,497,497,497,497,497,497,497,497,497,497,497,497,497,497,497,497,497,497,497,497,497,497,497,497,497,497,497,497,497,497,497,497,497,497,497,497,497,497,497,497,497,497,497,497,497,497,497,497,497,497,497,497,497,497,497,497,497,497,497,497,497,497,497,497,497,497,497,497,497,497,497,497,497,497,497,497,497,497,497,497,497,497,497,497,497,497,497,497,497,497,497,497,497,497,497,497,497,497,497,497,497,497,497,497,497,497,497,497,497,497,497,497,497,497,497,497,497,497,497,497,497,497,497,497,497,497,497,497,497,497,497,497,497,497,497,497,497,497,497,497,497,497,497,497,497,497,497,497,497,497,497,497,497,497,497,497,497,497,497,497,497,497,497,497,497,497,497,497,497,497,497,497,497,497,497,497,497,497,497,497,497,497,497,497,497,497,497,497,497,497,497,497,497,497,497,497,497,497,497,497,497,497,497,497,497,497,497,497,497,497,497,497,497,497,497,497,497,497,497,497,497,497,497,497,497,497,497,497,497,497,497,497,497,497,497,497,497,497,497,497,497,497,497,497,497,497,497,497,497,497,497,497,497,497,497,497,497,497,497,497,497,497,497,497,497,497,497,497,495,495,503,503,494,479,473,472,472,472,472,472,471,468,463,455,447,435,419,408,392,374,361,306,253,215,179,150,98],"timestamp_mouse":[8,27,59,68,87,108,128,147,168,187,207,227,248,267,287,307,327,348,367,387,407,427,448,467,487,508,528,547,566,588,608,627,647,667,687,708,728,747,767,787,808,828,848,868,888,908,928,948,967,987,1007,1027,1047,1067,1088,1107,1128,1149,1167,1187,1208,1228,1247,1268,1288,1308,1328,1347,1368,1387,1408,1427,1448,1468,1488,1507,1528,1547,1568,1587,1608,1628,1647,1668,1687,1708,1727,1747,1768,1788,1807,1828,1847,1868,1887,1907,1928,1947,1968,1988,2008,2027,2048,2068,2087,2108,2128,2148,2168,2187,2208,2227,2247,2267,2288,2308,2328,2347,2367,2388,2408,2428,2447,2467,2488,2508,2528,2548,2568,2588,2608,2628,2648,2668,2688,2707,2727,2748,2767,2787,2808,2827,2847,2868,2888,2907,2928,2948,2969,2988,3007,3028,3047,3067,3088,3107,3127,3149,3167,3188,3208,3227,3248,3267,3287,3308,3329,3348,3368,3388,3408,3428,3447,3467,3487,3507,3527,3548,3567,3588,3608,3628,3648,3667,3688,3707,3728,3747,3767,3787,3807,3828,3847,3869,3887,3908,3927,3947,3967,3988,4007,4027,4048,4067,4087,4108,4129,4148,4168,4188,4208,4228,4248,4268,4288,4308,4327,4348,4367,4387,4408,4428,4447,4468,4488,4507,4527,4548,4567,4588,4608,4627,4647,4667,4688,4707,4728,4748,4768,4788,4807,4828,4847,4867,4888,4907,4928,4947,4967,4987,5008,5028,5048,5067,5087,5107,5128,5147,5167,5188,5207,5227,5248,5267,5287,5307,5328,5348,5367,5388,5407,5429,5448,5468,5487,5507,5527,5547,5568,5587,5609,5628,5648,5667,5688,5707,5727,5747,5768,5788,5807,5828,5847,5868,5888,5907,5927,5948,5967,5987,6007,6028,6047,6068,6087,6107,6128,6147,6167,6188,6208,6228,6247,6267,6287,6307,6328,6347,6367,6388,6408,6428,6448,6467,6488,6507,6527,6548,6567,6588,6608,6628,6648,6668,6688,6707,6728,6748,6767,6788,6808,6827,6848,6868,6888,6908,6927,6947,6968,6988,7007,7028,7048,7067,7088,7108,7127,7148,7168,7188,7208,7228,7248,7268,7287,7307,7329,7348,7368,7388,7408,7427,7447,7468,7488,7507,7528,7547,7567,7587,7607,7628,7647,7667,7687,7707,7728,7748,7767,7787,7808,7828,7848,7868,7887,7908,7928,7948,7968,7987,8007,8028,8048,8068,8087,8108,8127,8148,8167,8188,8208,8227,8248,8267,8288,8307,8327,8348,8368,8388,8408,8428,8448,8468,8487,8509,8528,8547,8568,8588,8607,8627,8647,8667,8687,8708,8728,8748,8768,8787,8808,8828,8848,8868,8888,8908,8928,8947,8968,8987,9007,9028,9047,9067,9087,9108,9127,9148,9167,9188,9207,9228,9248,9268,9287,9308,9327,9348,9367,9388,9408,9427,9448,9467,9487,9508,9528,9547,9568,9588,9609,9628,9648,9667,9688,9708,9727,9748,9767,9789,9808,9828,9848,9867,9887,9907,9927,9948,9968,9987,10007,10028,10047,10067,10088,10108,10128,10149,10167,10188,10208,10227,10248,10267,10288,10307,10328,10348,10367,10388,10408,10427,10447,10468,10488,10507,10527,10547,10567,10587,10607,10628,10648,10668,10688,10707,10728,10748,10768,10788,10807,10827,10849,10867,10888,10908,10928,10949,10968,10988,11007,11028,11048,11067,11087,11108,11127,11149,11168,11187,11207,11229,11248,11267,11287,11307,11328,11348,11367,11387,11407,11427,11448,11468,11487,11507,11528,11547,11567,11587,11607,11628,11648,11668,11688,11708,11727,11748,11768,11787,11809,11827,11848,11868,11887,11908,11927,11948,11967,11987,12007,12027,12047,12067,12088,12107,12127,12147,12167,12187,12207,12227,12247,12267,12288,12307,12327,12347,12368,12387,12407,12427,12447,12468,12487,12507,12527,12547,12568,12587,12608,12627,12648,12668,12687,12707,12727,12747,12767,12787,12808,12828,12847,12868,12887,12907,12928,12947,12967,12987,13007,13027,13048,13067,13087,13108,13127,13148,13168,13187,13207,13228,13248,13267,13287,13308,13328,13347,13368,13387,13408,13427,13448,13468,13487,13507,13527,13548,13568,13588,13608,13628,13647,13668,13687,13707,13728,13748,13768,13787,13807,13828,13848,13868,13888,13908,13927,13948,13967,13988,14007,14028,14047,14067,14087,14107,14127,14148,14168,14188,14207,14228,14248,14269,14288,14308,14328,14348,14368,14387,14407,14427,14448,14468,14487,14507,14527,14547,14568,14587,14607,14627,14647,14668,14688,14707,14728,14748,14768,14787,14808,14828,14847,14868,14888,14908,14927,14948,14967,14988,15007,15027,15048,15068,15087,15107,15127,15148,15168,15187,15208,15228,15248,15268,15287,15308,15328,15348,15369,15387,15408,15428,15448,15468,15487,15508,15528,15547,15568,15588,15607,15628,15648,15668,15688,15707,15728,15748,15767,15787,15807,15827,15847,15868,15887,15908,15927,15948,15968,15988,16008,16028,16047,16068,16087,16108,16128,16148,16167,16187,16208,16228,16248,16268,16288,16308,16328,16348,16367,16388,16408,16428,16448,16467,16487,16507,16527,16548,16568,16588,16608,16628,16647,16668,16687,16707,16727,16748,16768,16787,16808,16828,16847,16867,16888,16907,16928,16947,16967,16987,17007,17028,17047,17067,17088,17108,17128,17147,17167,17188,17208,17227,17248,17267,17288,17307,17328,17347,17368,17387,17408,17429,17448,17467,17488,17508,17528,17547,17567,17588,17607,17627,17648,17667,17688,17708,17727,17748,17768,17788,17807,17828,17848,17867,17888,17908,17928,17948,17968,17987,18008,18028,18047,18068,18087,18107,18128,18149,18168,18187,18208,18228,18248,18268,18287,18307,18328,18349,18368,18388,18408,18428,18447,18468,18488,18507,18527,18548,18567,18587,18608,18628,18648,18667,18687,18708,18728,18748,18768,18787,18808,18828,18847,18868,18888,18908,18928,18947,18968,18988,19007,19028,19047,19068,19088,19107,19128,19148,19167,19187,19207,19228,19248,19267,19289,19308,19328,19347,19368,19387,19408,19428,19448,19468,19488,19507,19527,19548,19567,19587,19607,19627,19648,19668,19688,19707,19728,19748,19768,19787,19808,19827,19847,19868,19887,19907,19928,19948,19967,19987,20007,20027,20047,20068,20087,20107,20127,20148,20168,20187,20208,20228,20248,20268,20288,20308,20328,20348,20367,20387,20407,20428,20448,20468,20487,20507,20527,20547,20567,20587,20607,20627,20648,20668,20687,20708,20727,20747,20767,20787,20807,20827,20848,20868,20889,20908,20927,20947,20968,20987,21007,21028,21047,21068,21087,21107,21128,21147,21168,21188,21207,21227,21247,21267,21287,21307,21328,21347,21368,21388,21407,21427,21448,21468,21488,21507,21528,21548,21568,21587,21607,21627,21647,21668,21688,21708,21727,21748,21767,21787,21807,21828,21848,21868,21888,21908,21927,21948,21967,21988,22008,22028,22047,22068,22087,22107,22127,22147,22168,22187,22208,22227,22248,22267,22287,22307,22328,22347,22368,22388,22407,22428,22448,22468,22488,22507,22527,22548,22568,22587,22607,22628,22648,22668,22687,22707,22728,22748,22768,22787,22807,22827,22848,22868,22887,22907,22927,22948,22968,22988,23007,23028,23047,23067,23088,23107,23128,23148,23167,23187,23207,23228,23248,23267,23288,23308,23327,23347,23367,23388,23408,23427,23448,23467,23487,23508,23527,23548,23568,23587,23608,23627,23647,23667,23688,23707,23728,23748,23768,23787,23807,23828,23848,23868,23888,23907,23928,23948,23968,23988,24007,24027,24047,24067,24088,24108,24128,24148,24168,24188,24207,24227,24248,24268,24287,24307,24328,24347,24368,24388,24408,24428,24448,24467,24488,24507,24528,24548,24567,24587,24607,24628,24648,24667,24687,24707,24728,24747,24768,24788,24808,24828,24848,24867,24888,24908,24927,24948,24967,24988,25008,25028,25047,25068,25088,25108,25128,25148,25167,25188,25208,25227,25248,25268,25287,25308,25328,25348,25367,25388,25407,25428,25448,25467,25487,25507,25527,25547,25567,25587,25607,25628,25647,25667,25688,25708,25727,25747,25767,25788,25808,25828,25847,25868,25888,25907,25927,25948,25967,25987,26008,26028,26047,26068,26088,26107,26127,26148,26167,26187,26207,26228,26248,26267,26287,26307,26328,26347,26367,26388,26407,26427,26448,26467,26488,26509,26528,26547,26568,26587,26607,26628,26648,26667,26688,26707,26728,26748,26768,26788,26807,26828,26848,26869,26889,26907,26928,26948,26967,26987,27007,27028,27048,27067,27087,27108,27128,27147,27167,27188,27207,27228,27247,27268,27287,27307,27328,27348,27368,27387,27407,27428,27447,27468,27488,27507,27527,27549,27567,27588,27607,27628,27648,27667,27687,27707,27728,27747,27768,27787,27807,27828,27848,27868,27887,27907,27927,27948,27968,27988,28007,28028,28047,28067,28087,28108,28129,28148,28168,28188,28208,28227,28248,28268,28288,28307,28328,28347,28368,28387,28408,28428,28448,28468,28487,28507,28528,28548,28568,28588,28607,28627,28648,28668,28688,28707,28727,28747,28768,28789,28808,28827,28847,28868,28887,28907,28927,28948,28968,28987,29007,29027,29047,29067,29087,29107,29128,29147,29167,29187,29207,29228,29247,29267,29287,29308,29327,29347,29367,29389,29408,29428,29448,29467,29487,29508,29527,29547,29567,29587,29607,29628,29647,29667,29687,29708,29727,29747,29768,29788,29807,29827,29847,29867,29887,29908,29927,29947,29968,29987,30008,30027,30047,30069,30088,30108,30127,30147,30167,30188,30207,30227,30247,30267,30288,30308,30327,30347,30367,30387,30408,30427,30447,30467,30488,30507,30527,30548,30568,30587,30607,30627,30647,30668,30687,30707,30727,30747,30768,30788,30808,30827,30847,30868,30888,30907,30927,30948,30967,30988,31007,31028,31047,31066,31088,31107,31128,31147,31167,31187,31207,31228,31247,31267,31287,31307,31327,31348,31368,31387,31408,31428,31447,31467,31487,31508,31527,31547,31568,31587,31608,31629,31648,31668,31688,31707,31727,31748,31767,31788,31808,31828,31847,31868,31888,31907,31928,31947,31969,31988,32007,32028,32047,32068,32088,32107,32128,32148,32168,32188,32207,32227,32248,32267,32287,32308,32328,32347,32368,32387,32407,32428,32448,32467,32488,32508,32527,32548,32568,32587,32608,32627,32647,32668,32687,32708,32728,32747,32768,32788,32807,32828,32847,32867,32887,32907,32927,32948,32968,32987,33008,33028,33048,33067,33087,33108,33127,33148,33168,33187,33207,33227,33248,33268,33287,33308,33327,33347,33368,33388,33408,33427,33448,33467,33487,33508,33528,33547,33568,33587,33608,33627,33648,33668,33688,33707,33727,33748,33767,33788,33808,33827,33848,33867,33888,33907,33928,33948,33968,33987,34007,34028,34048,34067,34087,34108,34128,34149,34167,34188,34207,34228,34248,34267,34287,34307,34328,34348,34368,34388,34407,34428,34447,34468,34488,34507,34527,34547,34567,34587,34608,34627,34648,34667,34688,34707,34728,34748,34768,34788,34807,34827,34848,34868,34887,34908,34928,34948,34968,34988,35008,35028,35047,35067,35087,35107,35127,35148,35168,35188,35209,35227,35248,35267,35287,35307,35328,35347,35368,35387,35408,35428,35448,35467,35488,35507,35528,35547,35568,35587,35608,35627,35648,35667,35688,35707,35728,35747,35768,35787,35808,35827,35847,35868,35887,35908,35927,35948,35968,35988,36007,36028,36048,36067,36088,36108,36127,36148,36168,36189,36208,36227,36248,36267,36287,36308,36328,36348,36368,36387,36408,36427,36448,36468,36488,36507,36527,36548,36567,36587,36607,36627,36648,36667,36688,36707,36727,36748,36767,36788,36807,36827,36847,36868,36888,36907,36927,36947,36967,36988,37007,37027,37047,37068,37088,37108,37127,37147,37167,37189,37208,37228,37248,37267,37288,37307,37327,37347,37367,37387,37407,37427,37448,37467,37487,37508,37527,37548,37567,37587,37607,37627,37647,37667,37687,37708,37728,37747,37767,37787,37807,37827,37847,37868,37887,37908,37928,37948,37968,37988,38007,38028,38047,38067,38087,38107,38127,38147,38167,38187,38207,38228,38247,38267,38287,38307,38327,38348,38368,38387,38408,38427,38448,38468,38487,38508,38528,38548,38567,38588,38607,38628,38647,38668,38687,38707,38727,38747,38768,38787,38807,38828,38847,38867,38887,38908,38927,38947,38967,38987,39007,39028,39047,39067,39087,39107,39128,39148,39168,39187,39208,39228,39247,39267,39287,39307,39327,39347,39367,39387,39407,39429,39447,39467,39488,39507,39527,39547,39568,39587,39608,39627,39647,39667,39687,39708,39727,39747,39767,39787,39807,39828,39847,39867,39887,39907,39928,39947,39968,39987,40007,40027,40047,40067,40087,40107,40128,40148,40168,40187,40208,40227,40247,40267,40288,40309,40328,40347,40367,40387,40408,40428,40448,40467,40487,40507,40528,40547,40568,40587,40608,40629,40648,40667,40688,40708,40728,40747,40768,40787,40808,40829,40848,40868,40888,40908,40929,40948,40967,40988,41007,41028,41047,41068,41088,41107,41128,41148,41168,41188,41208,41228,41248,41268,41289,41307,41328,41348,41368,41388,41407,41427,41447,41467,41488,41507,41527,41548,41567,41588,41608,41628,41647,41668,41687,41707,41727,41747,41768,41787,41808,41828,41847,41868,41887,41908,41927,41948,41968,41988,42008,42028,42048,42068,42087,42107,42128,42149,42168,42188,42207,42228,42248,42267,42287,42308,42328,42348,42368,42388,42407,42428,42448,42468,42488,42507,42528,42548,42568,42587,42608,42627,42648,42668,42688,42708,42728,42748,42768,42787,42807,42828,42847,42868,42888,42907,42928,42948,42967,42987,43007,43028,43048,43069,43089,43108,43128,43148,43167,43187,43208,43228,43248,43268,43287,43307,43327,43348,43368,43387,43408,43428,43447,43467,43487,43508,43528,43547,43567,43587,43607,43628,43647,43668,43687,43708,43727,43748,43768,43788,43808,43828,43848,43868,43888,43908,43929,43947,43968,43987,44008,44028,44047,44068,44088,44108,44128,44147,44168,44188,44208,44228,44247,44268,44287,44308,44328,44347,44368,44388,44407,44427,44447,44468,44487,44508,44527,44548,44567,44588,44608,44627,44647,44668,44687,44708,44728,44747,44769,44788,44808,44828,44848,44868,44887,44908,44928,44947,44968,44988,45007,45028,45047,45068,45087,45108,45127,45148,45167,45187,45208,45228,45247,45268,45288,45307,45328,45347,45368,45388,45407,45427,45447,45468,45488,45507,45528,45548,45568,45587,45608,45628,45647,45667,45688,45708,45728,45747,45768,45788,45808,45828,45848,45867,45887,45908,45927,45947,45967,45988,46007,46027,46048,46067,46087,46107,46127,46147,46167],"xSR":741.5,"ySR":469.95,"xT1":424.9,"yT1":0,"xT2":1058.1,"yT2":0,"toosoon":0,"cond_shown":"randomdotsizeEA","ratio_trial":250,"smaller_num":"3","larger_num":"12","correct_side":1,"subjID":"jOSEjUANUrreaGalvan25","gender":"0","age":"9","school":"4"},{"start_time":1552309938460,"click_time":1552309939578,"finger_time":1552309938939,"fix_duration":940.3598297693985,"trial":16,"RT":479,"MT":639,"sideResp":1,"stimulus":"img/750/equaldotsize/L/13_Ratio_750_L_8_R_6.png","xmouse":[812,810,810,808,808,807,806,806,806,806,806,806,806,806,806,806,804,801,799,797,797,797,795,788,782,771,744,721,702,685,674,657,648,636,627,622,618,601,596,590,574,561,563,563,558,548,548,548,548,548,548,548,548,548,548,484],"ymouse":[480,482,484,487,488,490,493,493,493,493,493,493,493,493,493,493,491,483,480,479,478,476,472,465,461,454,432,404,382,362,346,324,317,308,301,297,293,253,224,180,97,44,19,13,5,1,1,1,1,1,1,1,1,1,1,2],"timestamp_mouse":[18,38,58,78,99,119,138,158,178,198,219,240,258,279,299,318,338,359,378,398,418,439,458,479,499,518,540,558,578,598,618,639,658,679,698,718,739,758,778,798,818,838,858,878,898,919,938,958,978,998,1019,1038,1058,1079,1098,1118],"xSR":741.5,"ySR":469.95,"xT1":424.9,"yT1":0,"xT2":1058.1,"yT2":0,"toosoon":0,"cond_shown":"equaldotsize","ratio_trial":750,"smaller_num":"6","larger_num":"8","correct_side":1,"subjID":"jOSEjUANUrreaGalvan25","gender":"0","age":"9","school":"4"},{"start_time":1552309942238,"click_time":1552309942978,"finger_time":1552309942638,"fix_duration":297.3475179208597,"trial":17,"RT":400,"MT":340,"sideResp":2,"stimulus":"img/250/equaldotsize/L/5_Ratio_250_L_24_R_6.png","xmouse":[802,802,802,802,802,802,802,802,802,802,802,802,802,802,802,802,803,805,811,814,819,823,829,837,859,870,881,895,917,952,967,983,1010,1040,1076,1086,1090,1091],"ymouse":[554,554,554,554,554,554,554,554,554,554,554,554,554,554,554,549,545,534,491,474,457,445,433,416,388,375,365,354,336,309,295,274,222,173,137,120,106,86],"timestamp_mouse":[11,23,40,61,81,100,120,140,160,180,200,220,240,260,281,300,320,341,361,380,400,421,440,460,480,501,521,540,561,580,600,620,641,661,680,700,720,740],"xSR":741.5,"ySR":469.95,"xT1":424.9,"yT1":0,"xT2":1058.1,"yT2":0,"toosoon":0,"cond_shown":"equaldotsize","ratio_trial":250,"smaller_num":"6","larger_num":"24","correct_side":1,"subjID":"jOSEjUANUrreaGalvan25","gender":"0","age":"9","school":"4"},{"start_time":1552309944236,"click_time":1552309945219,"finger_time":1552309944418,"fix_duration":396.98905097778936,"trial":18,"RT":182,"MT":801,"sideResp":1,"stimulus":"img/900/randomdotsizeEA/R/5_Ratio_900_L_9_R_10.png","xmouse":[770,770,771,771,771,771,771,771,768,758,748,735,722,710,688,671,654,632,618,599,588,583,581,575,564,557,551,547,541,523,516,511,507,505,501,498,495,495,495,495,495,497,500,500,498,496,495,494,494,491],"ymouse":[497,493,490,489,486,485,483,479,474,464,457,452,446,440,430,422,418,411,406,393,386,382,381,380,374,368,357,345,328,292,280,270,264,259,247,240,236,235,235,232,226,211,197,182,160,143,119,106,101,93],"timestamp_mouse":[2,22,45,63,82,103,123,142,163,182,202,222,242,262,282,303,322,342,362,382,402,422,443,462,482,503,522,543,562,582,602,622,642,662,682,702,722,742,763,783,802,823,842,863,882,904,922,942,963,982],"xSR":741.5,"ySR":469.95,"xT1":424.9,"yT1":0,"xT2":1058.1,"yT2":0,"toosoon":0,"cond_shown":"randomdotsizeEA","ratio_trial":900,"smaller_num":"9","larger_num":"10","correct_side":2,"subjID":"jOSEjUANUrreaGalvan25","gender":"0","age":"9","school":"4"},{"start_time":1552309946591,"click_time":1552309948438,"finger_time":1552309947718,"fix_duration":250,"trial":19,"RT":1127,"MT":720,"sideResp":2,"stimulus":"img/900/randomdotsizeEA/L/10_Ratio_900_L_20_R_18.png","xmouse":[751,751,751,751,751,751,751,751,751,751,751,751,751,751,751,751,751,751,751,751,751,751,751,752,752,753,753,753,752,752,752,752,752,752,752,752,752,752,752,752,752,752,752,752,752,752,752,752,752,752,752,756,765,773,792,818,901,964,995,1019,1041,1063,1103,1115,1118,1119,1118,1105,1090,1069,1048,1020,1011,1002,998,997,996,996,1000,1006,1017,1038,1040,1042,1042,1042,1042,1042,1043,1043,1047,1053,1066],"ymouse":[521,521,521,521,521,521,521,521,521,521,521,521,521,521,521,521,521,521,521,521,521,521,521,521,521,521,521,520,519,519,519,518,518,518,518,518,518,518,518,518,518,518,518,518,518,518,518,518,518,518,518,516,513,510,500,485,426,375,337,304,273,248,225,221,220,219,206,194,182,166,148,107,91,77,71,69,68,68,67,66,64,61,60,60,59,59,59,59,59,59,59,58,57],"timestamp_mouse":[8,27,55,68,87,108,127,148,167,188,208,227,248,268,288,307,328,347,367,387,408,427,447,468,487,508,528,548,568,588,607,627,648,667,688,708,727,747,767,787,807,827,848,867,888,907,927,947,967,987,1007,1027,1047,1067,1087,1107,1127,1147,1168,1188,1207,1228,1247,1267,1288,1307,1329,1346,1367,1388,1407,1427,1447,1467,1488,1507,1528,1547,1567,1587,1607,1627,1647,1667,1687,1708,1727,1747,1767,1787,1807,1828,1847],"xSR":741.5,"ySR":469.95,"xT1":424.9,"yT1":0,"xT2":1058.1,"yT2":0,"toosoon":0,"cond_shown":"randomdotsizeEA","ratio_trial":900,"smaller_num":"18","larger_num":"20","correct_side":1,"subjID":"jOSEjUANUrreaGalvan25","gender":"0","age":"9","school":"4"},{"start_time":1552309952956,"click_time":1552309953738,"finger_time":1552309953338,"fix_duration":1056.7865951895694,"trial":20,"RT":382,"MT":400,"sideResp":1,"stimulus":"img/900/randomdotsizeEA/L/1_Ratio_900_L_10_R_9.png","xmouse":[791,790,789,788,786,786,786,786,785,784,783,780,778,775,771,768,763,756,750,724,709,696,682,668,652,648,647,647,645,638,632,621,610,600,583,564,549,533,513,478],"ymouse":[543,542,540,539,538,538,538,537,536,535,533,525,519,515,510,507,504,500,494,467,452,434,406,372,286,243,207,198,192,181,177,172,167,162,154,146,141,133,119,86],"timestamp_mouse":[2,23,45,63,82,102,122,143,162,183,202,223,243,263,282,302,323,343,362,382,402,423,442,463,482,503,522,543,563,582,602,622,642,662,682,702,723,742,763,782],"xSR":741.5,"ySR":469.95,"xT1":424.9,"yT1":0,"xT2":1058.1,"yT2":0,"toosoon":0,"cond_shown":"randomdotsizeEA","ratio_trial":900,"smaller_num":"9","larger_num":"10","correct_side":1,"subjID":"jOSEjUANUrreaGalvan25","gender":"0","age":"9","school":"4"},{"start_time":1552309955616,"click_time":1552309956519,"finger_time":1552309955998,"fix_duration":937.4330292018623,"trial":21,"RT":382,"MT":521,"sideResp":2,"stimulus":"img/250/equaldotanddens/L/15_Ratio_250_L_12_R_3.png","xmouse":[789,787,786,786,786,786,786,785,785,785,785,785,785,784,784,785,794,802,811,821,827,877,890,890,890,890,890,890,890,890,890,890,890,890,890,890,890,890,890,890,1008,1010,1027,1039,1058,1080],"ymouse":[544,542,541,541,541,540,539,538,538,538,538,538,536,533,530,524,508,490,470,447,422,232,4,4,4,4,4,4,4,4,4,4,4,4,4,4,4,4,4,4,0,2,5,8,11,17],"timestamp_mouse":[2,22,51,62,83,103,122,143,162,183,204,223,243,262,282,303,322,342,363,382,402,422,442,462,482,502,522,543,562,582,603,623,642,662,682,703,723,742,763,782,803,822,843,862,882,903],"xSR":741.5,"ySR":469.95,"xT1":424.9,"yT1":0,"xT2":1058.1,"yT2":0,"toosoon":0,"cond_shown":"equaldotanddens","ratio_trial":250,"smaller_num":"3","larger_num":"12","correct_side":1,"subjID":"jOSEjUANUrreaGalvan25","gender":"0","age":"9","school":"4"},{"start_time":1552309958191,"click_time":1552309959078,"finger_time":1552309958539,"fix_duration":250,"trial":22,"RT":348,"MT":539,"sideResp":1,"stimulus":"img/900/equaldotanddens/L/4_Ratio_900_L_20_R_18.png","xmouse":[815,815,815,821,822,822,822,822,822,822,822,822,822,822,822,822,822,789,728,673,613,535,514,456,444,431,420,408,384,374,369,367,367,370,373,374,376,380,393,399,405,409,413,422,427],"ymouse":[487,487,487,482,481,481,481,481,481,481,481,481,481,481,481,481,481,427,371,327,287,241,229,201,188,170,153,136,107,98,92,90,89,87,87,87,86,85,82,81,79,77,76,73,71],"timestamp_mouse":[8,37,47,67,88,108,129,148,168,188,207,228,248,268,287,308,327,348,367,387,407,427,448,467,488,508,527,549,567,587,608,628,647,667,687,708,727,747,767,787,808,827,847,868,887],"xSR":741.5,"ySR":469.95,"xT1":424.9,"yT1":0,"xT2":1058.1,"yT2":0,"toosoon":0,"cond_shown":"equaldotanddens","ratio_trial":900,"smaller_num":"18","larger_num":"20","correct_side":1,"subjID":"jOSEjUANUrreaGalvan25","gender":"0","age":"9","school":"4"},{"start_time":1552309960751,"click_time":1552309961718,"finger_time":1552309960998,"fix_duration":250,"trial":23,"RT":247,"MT":720,"sideResp":1,"stimulus":"img/250/randomdotsizeEA/L/14_Ratio_250_L_12_R_3.png","xmouse":[780,780,780,780,780,780,780,780,779,777,772,764,751,734,708,664,636,613,598,589,564,548,530,509,502,495,492,489,487,487,486,486,486,486,486,486,486,484,482,480,479,479,479,478,478,476,475,473,472],"ymouse":[516,516,516,516,516,516,516,516,516,514,504,487,467,445,415,366,339,318,304,295,275,267,261,251,247,241,239,233,230,226,217,207,201,197,190,174,165,160,154,151,147,147,147,143,138,124,113,103,96],"timestamp_mouse":[8,35,47,68,87,108,128,147,167,187,207,228,247,268,287,308,327,347,367,388,407,428,448,467,487,507,527,547,567,587,607,627,647,668,687,707,727,747,767,787,807,827,848,868,887,907,927,948,967],"xSR":741.5,"ySR":469.95,"xT1":424.9,"yT1":0,"xT2":1058.1,"yT2":0,"toosoon":0,"cond_shown":"randomdotsizeEA","ratio_trial":250,"smaller_num":"3","larger_num":"12","correct_side":1,"subjID":"jOSEjUANUrreaGalvan25","gender":"0","age":"9","school":"4"},{"start_time":1552309963851,"click_time":1552309964718,"finger_time":1552309964018,"fix_duration":730.771312803174,"trial":24,"RT":167,"MT":700,"sideResp":1,"stimulus":"img/900/equaldotsize/L/4_Ratio_900_L_20_R_18.png","xmouse":[777,768,764,761,759,755,748,743,736,729,709,698,684,672,662,641,629,605,589,573,555,524,514,508,504,494,488,486,482,478,469,469,467,467,467,467,467,467,467,469,470,469,465,463],"ymouse":[513,508,503,500,498,495,490,486,481,475,456,446,432,419,406,384,373,355,342,329,310,271,257,249,240,224,214,209,202,194,179,175,172,170,168,167,163,159,154,144,128,118,107,97],"timestamp_mouse":[22,34,48,67,88,107,127,147,167,187,207,227,247,268,287,309,327,347,367,388,408,427,447,467,487,509,527,547,567,587,607,627,648,668,687,708,727,747,768,787,808,827,847,867],"xSR":741.5,"ySR":469.95,"xT1":424.9,"yT1":0,"xT2":1058.1,"yT2":0,"toosoon":0,"cond_shown":"equaldotsize","ratio_trial":900,"smaller_num":"18","larger_num":"20","correct_side":1,"subjID":"jOSEjUANUrreaGalvan25","gender":"0","age":"9","school":"4"},{"start_time":1552309970747,"click_time":1552309971478,"finger_time":1552309971158,"fix_duration":1165.7072859360712,"trial":25,"RT":411,"MT":320,"sideResp":1,"stimulus":"img/750/equaldotanddens/R/12_Ratio_750_L_3_R_4.png","xmouse":[776,776,776,776,776,776,776,776,776,776,776,776,776,776,776,776,775,766,754,745,733,706,691,675,653,631,605,594,587,582,578,570,560,544,536,527,517],"ymouse":[506,506,506,506,506,506,506,506,506,506,506,506,506,506,506,506,505,502,498,494,489,473,459,442,416,390,354,335,319,305,293,258,209,142,74,42,20],"timestamp_mouse":[13,31,59,72,91,111,131,152,171,191,212,233,251,271,293,311,331,352,371,392,411,432,451,471,491,511,531,551,571,592,611,632,651,672,691,712,731],"xSR":741.5,"ySR":469.95,"xT1":424.9,"yT1":0,"xT2":1058.1,"yT2":0,"toosoon":0,"cond_shown":"equaldotanddens","ratio_trial":750,"smaller_num":"3","larger_num":"4","correct_side":2,"subjID":"jOSEjUANUrreaGalvan25","gender":"0","age":"9","school":"4"},{"start_time":1552309977079,"click_time":1552309978258,"finger_time":1552309977219,"fix_duration":1280.9096825040797,"trial":26,"RT":140,"MT":1039,"sideResp":2,"stimulus":"img/500/randomdotsizeEA/L/11_Ratio_500_L_12_R_6.png","xmouse":[793,793,793,792,792,794,798,808,816,829,836,836,836,836,836,836,838,841,841,844,848,850,854,857,860,867,871,876,882,886,894,899,903,907,911,919,927,935,947,954,962,965,968,970,972,975,979,981,986,990,999,1003,1009,1017,1026,1043,1053,1070,1080],"ymouse":[518,518,518,510,497,481,459,426,400,366,349,348,348,348,347,336,328,316,313,302,289,283,277,270,266,257,253,249,244,240,231,225,220,215,210,202,197,192,187,184,178,175,170,168,166,161,156,156,150,145,134,129,123,119,115,110,107,101,96],"timestamp_mouse":[19,40,59,79,100,119,140,159,180,199,219,239,259,279,300,319,339,359,380,400,419,440,459,479,500,519,539,559,579,599,619,639,660,679,699,719,740,760,780,800,819,839,859,879,901,919,939,960,980,999,1020,1039,1060,1080,1100,1119,1140,1159,1179],"xSR":741.5,"ySR":469.95,"xT1":424.9,"yT1":0,"xT2":1058.1,"yT2":0,"toosoon":0,"cond_shown":"randomdotsizeEA","ratio_trial":500,"smaller_num":"6","larger_num":"12","correct_side":1,"subjID":"jOSEjUANUrreaGalvan25","gender":"0","age":"9","school":"4"},{"start_time":1552309979591,"click_time":1552309981738,"finger_time":1552309980298,"fix_duration":250,"trial":27,"RT":707,"MT":1440,"sideResp":1,"stimulus":"img/750/equaldotsize/R/3_Ratio_750_L_15_R_20.png","xmouse":[804,804,804,804,804,804,804,804,804,804,804,804,804,804,804,804,804,804,804,803,801,796,793,790,787,784,782,780,778,777,776,771,762,751,742,732,705,691,674,658,623,606,591,586,581,576,574,571,569,566,561,558,553,551,547,540,538,537,537,536,533,532,531,531,530,527,526,524,522,521,514,506,500,495,492,488,486,485,483,481,480,478,476,474,474,472,471,470,468,467,463,461,458,455,454,454,453,453,452,452,452,449,449,449,449,449,449,449],"ymouse":[553,553,553,553,553,553,553,553,553,553,553,553,553,553,553,553,553,553,553,553,553,551,549,548,547,546,545,544,543,542,542,540,537,533,529,524,509,501,491,479,454,442,429,424,420,413,411,407,405,398,386,379,370,363,357,349,347,346,345,344,341,340,338,337,334,327,323,319,314,311,300,289,281,274,270,261,257,253,249,245,242,236,232,229,225,221,219,216,211,205,177,171,157,150,143,143,137,134,132,130,129,122,118,116,112,106,102,98],"timestamp_mouse":[9,28,47,68,87,107,127,147,168,188,207,228,247,267,287,308,328,347,368,388,407,427,447,467,488,507,527,548,567,587,607,627,647,668,687,707,727,747,767,789,807,827,847,868,888,908,927,947,967,987,1007,1027,1048,1068,1087,1107,1127,1147,1168,1188,1207,1227,1247,1267,1288,1307,1327,1348,1367,1387,1407,1427,1447,1468,1487,1507,1527,1547,1568,1588,1607,1627,1647,1667,1688,1707,1727,1748,1767,1787,1809,1827,1847,1868,1888,1908,1927,1947,1968,1987,2007,2027,2047,2068,2087,2108,2127,2147],"xSR":741.5,"ySR":469.95,"xT1":424.9,"yT1":0,"xT2":1058.1,"yT2":0,"toosoon":0,"cond_shown":"equaldotsize","ratio_trial":750,"smaller_num":"15","larger_num":"20","correct_side":2,"subjID":"jOSEjUANUrreaGalvan25","gender":"0","age":"9","school":"4"},{"start_time":1552309984111,"click_time":1552309986118,"finger_time":1552309985218,"fix_duration":371.3865204499176,"trial":28,"RT":1107,"MT":900,"sideResp":2,"stimulus":"img/250/equaldotsize/R/11_Ratio_250_L_3_R_12.png","xmouse":[791,791,791,791,791,791,791,791,791,791,791,791,791,791,791,791,791,791,791,791,791,791,791,791,791,791,791,791,791,791,791,791,791,791,791,791,791,791,791,791,791,791,791,791,791,791,791,791,791,791,791,791,791,791,791,791,791,791,791,791,791,791,791,791,789,776,765,759,757,757,757,757,757,757,757,757,757,757,760,780,787,799,803,812,819,824,827,829,832,837,849,857,866,878,897,924,940,963,987,1011,1063],"ymouse":[507,507,507,507,507,507,507,507,507,507,507,507,507,507,507,507,507,507,507,507,507,507,507,507,507,507,507,507,507,507,507,507,507,507,507,507,507,507,507,507,507,507,507,507,507,507,507,507,507,505,501,495,488,477,471,459,454,451,449,448,447,447,447,446,443,432,423,417,415,414,414,414,414,414,414,414,414,414,413,406,403,398,395,391,386,381,379,375,370,362,340,330,317,304,283,249,224,189,147,100,14],"timestamp_mouse":[8,40,47,68,87,108,128,147,167,188,207,227,247,267,287,307,327,347,367,387,407,427,447,467,488,508,528,548,569,588,608,626,648,668,687,708,727,748,767,788,808,827,848,868,888,908,928,947,967,988,1007,1027,1048,1068,1087,1107,1128,1147,1167,1188,1207,1227,1247,1267,1287,1308,1327,1348,1368,1388,1407,1428,1448,1467,1488,1507,1527,1548,1567,1588,1607,1628,1647,1667,1688,1707,1727,1747,1767,1788,1807,1827,1848,1867,1888,1908,1927,1948,1968,1987,2007],"xSR":741.5,"ySR":469.95,"xT1":424.9,"yT1":0,"xT2":1058.1,"yT2":0,"toosoon":0,"cond_shown":"equaldotsize","ratio_trial":250,"smaller_num":"3","larger_num":"12","correct_side":2,"subjID":"jOSEjUANUrreaGalvan25","gender":"0","age":"9","school":"4"},{"start_time":1552309987938,"click_time":1552309989299,"finger_time":1552309988618,"fix_duration":517.6891330049914,"trial":29,"RT":680,"MT":681,"sideResp":1,"stimulus":"img/750/equaldotanddens/L/1_Ratio_750_L_20_R_15.png","xmouse":[770,770,770,770,770,770,770,770,770,770,770,770,770,770,770,770,770,770,770,770,770,770,770,770,770,770,770,770,770,770,770,770,767,754,715,698,679,663,648,611,606,591,583,577,563,558,549,542,534,513,493,488,472,461,437,429,424,423,423,423,423,423,423,423,423,423,423,424,425],"ymouse":[511,511,511,511,511,511,511,511,511,511,511,511,511,511,511,511,511,511,511,511,511,511,511,511,511,511,511,511,511,511,511,511,511,496,450,432,416,402,391,366,362,351,342,332,312,302,288,275,261,229,202,194,171,155,122,113,107,104,100,90,85,83,82,80,80,79,77,75,73],"timestamp_mouse":[9,20,44,60,81,101,121,141,160,180,200,221,240,260,281,300,321,341,361,382,400,420,440,461,482,501,521,540,560,582,601,620,641,661,680,700,720,740,760,781,800,820,840,861,880,900,921,941,960,980,1000,1021,1041,1060,1080,1100,1120,1140,1160,1181,1200,1220,1241,1260,1280,1301,1320,1341,1361],"xSR":741.5,"ySR":469.95,"xT1":424.9,"yT1":0,"xT2":1058.1,"yT2":0,"toosoon":0,"cond_shown":"equaldotanddens","ratio_trial":750,"smaller_num":"15","larger_num":"20","correct_side":1,"subjID":"jOSEjUANUrreaGalvan25","gender":"0","age":"9","school":"4"},{"start_time":1552309991011,"click_time":1552309993058,"finger_time":1552309992019,"fix_duration":250,"trial":30,"RT":1008,"MT":1039,"sideResp":1,"stimulus":"img/750/randomdotsizeEA/L/14_Ratio_750_L_8_R_6.png","xmouse":[827,827,827,827,827,827,827,827,827,827,827,827,827,827,827,827,827,827,827,827,827,827,827,827,827,827,827,827,827,827,827,827,827,827,827,827,827,827,822,817,810,795,790,785,784,776,772,768,761,752,740,739,739,739,739,739,739,739,739,739,739,739,739,739,739,739,739,739,739,739,739,732,719,698,665,562,531,510,498,489,480,479,477,473,469,469,469,469,469,469,469,470,471,472,474,476,476,477,477,478,486,490,493],"ymouse":[525,525,525,525,525,525,525,525,525,525,525,525,525,525,525,525,525,525,525,525,525,525,525,525,525,525,525,525,525,525,525,525,525,525,525,525,525,525,522,518,513,502,497,493,491,487,486,484,482,479,476,476,476,476,476,476,476,476,476,476,476,476,476,476,476,476,476,476,476,476,476,473,466,454,427,315,280,254,236,223,205,198,189,180,172,158,158,158,158,158,156,153,151,148,144,138,137,136,136,132,114,103,90],"timestamp_mouse":[10,37,48,68,87,108,127,147,168,187,207,228,248,268,289,308,327,348,367,387,407,427,448,467,487,507,528,548,568,587,607,627,647,667,688,707,728,747,768,787,807,827,847,867,888,908,928,947,967,987,1008,1027,1048,1067,1088,1108,1128,1147,1167,1188,1207,1228,1248,1267,1287,1308,1327,1348,1367,1388,1407,1427,1448,1468,1488,1509,1527,1547,1567,1588,1608,1627,1647,1667,1688,1709,1727,1747,1768,1787,1808,1827,1848,1868,1887,1909,1927,1947,1968,1987,2008,2027,2047],"xSR":741.5,"ySR":469.95,"xT1":424.9,"yT1":0,"xT2":1058.1,"yT2":0,"toosoon":0,"cond_shown":"randomdotsizeEA","ratio_trial":750,"smaller_num":"6","larger_num":"8","correct_side":1,"subjID":"jOSEjUANUrreaGalvan25","gender":"0","age":"9","school":"4"},{"start_time":1552309995160,"click_time":1552309996538,"finger_time":1552309996018,"fix_duration":861.8119679079683,"trial":31,"RT":858,"MT":520,"sideResp":2,"stimulus":"img/900/equaldotanddens/R/15_Ratio_900_L_9_R_10.png","xmouse":[799,799,799,799,799,799,799,799,799,799,799,799,799,799,799,799,799,799,799,799,799,799,799,799,799,799,799,799,799,799,799,799,799,799,799,799,799,799,799,802,814,830,852,885,904,908,917,918,920,922,922,923,927,941,958,963,981,995,1027,1045,1059,1069,1074,1080,1082,1084,1085,1086,1087],"ymouse":[511,511,511,511,511,511,511,511,511,511,511,511,511,511,511,511,511,511,511,511,511,511,511,511,511,511,511,511,511,511,511,511,511,511,511,511,511,511,511,508,494,470,441,379,342,333,314,309,303,300,297,292,281,251,229,220,195,180,167,164,162,160,156,144,135,123,114,107,96],"timestamp_mouse":[19,38,58,78,99,118,140,159,179,199,219,238,259,278,298,319,338,359,379,398,419,438,458,479,498,518,539,558,579,598,619,639,658,678,699,719,738,758,779,798,818,839,858,878,898,918,938,958,978,998,1019,1039,1058,1078,1098,1118,1138,1159,1178,1198,1218,1239,1259,1278,1298,1318,1339,1358,1378],"xSR":741.5,"ySR":469.95,"xT1":424.9,"yT1":0,"xT2":1058.1,"yT2":0,"toosoon":0,"cond_shown":"equaldotanddens","ratio_trial":900,"smaller_num":"9","larger_num":"10","correct_side":2,"subjID":"jOSEjUANUrreaGalvan25","gender":"0","age":"9","school":"4"},{"start_time":1552309999699,"click_time":1552310001518,"finger_time":1552310001278,"fix_duration":720.0052402257816,"trial":32,"RT":1579,"MT":240,"sideResp":1,"stimulus":"img/900/randomdotsizeEA/L/2_Ratio_900_L_20_R_18.png","xmouse":[765,765,765,765,765,765,765,765,765,765,765,765,765,765,765,765,765,765,765,765,765,765,765,765,765,765,765,765,765,765,765,765,765,765,765,765,765,765,765,765,765,765,765,765,765,765,765,765,765,765,765,765,765,765,765,765,765,765,765,765,765,765,765,765,765,765,765,765,765,765,765,765,765,765,765,765,758,742,718,682,646,573,540,500,471,453,443,435,433,433,430],"ymouse":[537,537,537,537,537,537,537,537,537,537,537,537,537,537,537,537,537,537,537,537,537,537,537,537,537,537,537,537,537,537,537,537,537,537,537,537,537,537,537,537,537,537,537,537,537,537,537,537,537,537,537,537,537,537,537,537,537,537,537,537,537,537,537,537,537,537,537,537,537,537,537,537,537,537,537,536,526,503,473,437,401,313,275,227,186,156,135,109,104,101,95],"timestamp_mouse":[19,40,59,79,99,119,139,161,181,200,220,239,259,279,300,320,339,360,379,400,420,440,459,479,500,519,540,560,579,600,619,639,659,680,700,719,740,760,780,799,819,839,860,879,899,919,940,960,980,999,1019,1039,1061,1080,1100,1119,1139,1159,1180,1200,1220,1240,1259,1280,1301,1319,1339,1361,1379,1400,1419,1439,1459,1480,1499,1519,1540,1559,1579,1599,1619,1640,1659,1680,1700,1720,1739,1759,1779,1799,1819],"xSR":741.5,"ySR":469.95,"xT1":424.9,"yT1":0,"xT2":1058.1,"yT2":0,"toosoon":0,"cond_shown":"randomdotsizeEA","ratio_trial":900,"smaller_num":"18","larger_num":"20","correct_side":1,"subjID":"jOSEjUANUrreaGalvan25","gender":"0","age":"9","school":"4"},{"start_time":1552310003916,"click_time":1552310005339,"finger_time":1552310004758,"fix_duration":1455.5916140776537,"trial":33,"RT":842,"MT":581,"sideResp":2,"stimulus":"img/500/equaldotanddens/R/9_Ratio_500_L_2_R_4.png","xmouse":[830,830,830,830,830,830,830,830,830,830,830,830,830,830,830,830,830,830,830,830,830,830,830,830,830,830,830,830,830,830,830,830,830,830,830,830,830,830,830,830,830,830,830,836,851,862,872,893,903,910,916,918,932,942,950,962,968,971,972,973,974,977,986,990,997,1004,1012,1029,1039,1047,1056,1064],"ymouse":[483,483,483,483,483,483,483,483,483,483,483,483,483,483,483,483,483,483,483,483,483,483,483,483,483,483,483,483,483,483,483,483,483,483,483,483,483,483,483,483,483,483,468,435,376,340,307,270,256,248,241,233,202,180,158,130,117,110,108,106,104,102,101,101,100,100,99,97,95,93,89,84],"timestamp_mouse":[8,22,42,62,82,103,122,144,163,182,203,223,243,263,283,302,322,342,363,383,402,422,443,463,482,503,523,542,562,583,603,622,642,663,683,703,724,742,763,783,803,822,842,863,882,902,922,942,962,982,1002,1023,1042,1062,1083,1102,1122,1142,1162,1182,1203,1223,1242,1262,1282,1302,1323,1342,1362,1383,1402,1422],"xSR":741.5,"ySR":469.95,"xT1":424.9,"yT1":0,"xT2":1058.1,"yT2":0,"toosoon":0,"cond_shown":"equaldotanddens","ratio_trial":500,"smaller_num":"2","larger_num":"4","correct_side":2,"subjID":"jOSEjUANUrreaGalvan25","gender":"0","age":"9","school":"4"},{"start_time":1552310006903,"click_time":1552310007939,"finger_time":1552310007278,"fix_duration":544.8939565960707,"trial":34,"RT":375,"MT":661,"sideResp":1,"stimulus":"img/900/randomdotsizeEA/R/3_Ratio_900_L_9_R_10.png","xmouse":[793,793,793,793,793,793,793,793,793,793,793,793,791,786,777,770,762,753,736,728,720,709,688,673,664,656,645,628,621,616,611,605,586,570,555,538,523,506,502,502,502,502,501,500,500,500,500,500,500,500,499,497],"ymouse":[526,526,526,526,526,526,526,526,526,526,526,526,525,518,503,494,483,471,452,443,436,427,409,393,380,367,351,320,307,298,290,280,256,235,220,210,203,193,190,190,190,190,186,172,161,153,146,137,135,128,112,98],"timestamp_mouse":[15,38,56,75,95,115,135,156,176,195,216,236,255,276,295,316,336,355,375,395,416,436,455,475,495,516,535,555,575,595,615,636,655,675,695,716,736,756,775,796,815,836,856,875,895,915,935,955,975,995,1016,1036],"xSR":741.5,"ySR":469.95,"xT1":424.9,"yT1":0,"xT2":1058.1,"yT2":0,"toosoon":0,"cond_shown":"randomdotsizeEA","ratio_trial":900,"smaller_num":"9","larger_num":"10","correct_side":2,"subjID":"jOSEjUANUrreaGalvan25","gender":"0","age":"9","school":"4"},{"start_time":1552310013000,"click_time":1552310014759,"finger_time":1552310013899,"fix_duration":1199.453632716908,"trial":35,"RT":899,"MT":860,"sideResp":1,"stimulus":"img/250/equaldotanddens/L/3_Ratio_250_L_8_R_2.png","xmouse":[753,753,753,753,753,753,753,753,753,753,753,753,753,753,753,753,753,753,753,753,753,753,753,753,753,753,753,753,753,753,753,753,753,753,753,753,753,753,753,753,753,753,753,753,740,727,682,656,640,640,639,639,639,638,638,636,634,631,618,611,604,598,598,598,598,598,597,595,591,591,591,590,589,582,580,577,572,562,540,530,525,523,522,520,519,518,518,517],"ymouse":[550,550,550,550,550,550,550,550,550,550,550,550,550,550,550,550,550,550,550,550,550,550,550,550,550,550,550,550,550,550,550,550,550,550,550,550,550,550,550,550,550,550,550,550,543,535,508,494,485,485,485,485,485,484,477,466,452,429,379,358,341,325,313,296,292,286,282,276,259,247,240,233,226,215,207,199,180,163,135,123,113,109,107,104,102,101,100,98],"timestamp_mouse":[18,40,59,79,99,119,139,158,179,199,218,239,259,278,298,318,338,358,378,399,418,439,459,478,498,518,539,559,579,599,618,638,658,679,698,718,739,758,779,799,819,839,858,878,899,918,939,959,979,998,1018,1039,1058,1078,1098,1118,1139,1159,1179,1198,1218,1239,1258,1278,1299,1318,1338,1358,1378,1399,1418,1438,1459,1478,1499,1519,1538,1559,1579,1599,1619,1638,1660,1678,1700,1719,1739,1759],"xSR":741.5,"ySR":469.95,"xT1":424.9,"yT1":0,"xT2":1058.1,"yT2":0,"toosoon":0,"cond_shown":"equaldotanddens","ratio_trial":250,"smaller_num":"2","larger_num":"8","correct_side":1,"subjID":"jOSEjUANUrreaGalvan25","gender":"0","age":"9","school":"4"},{"start_time":1552310022650,"click_time":1552310024518,"finger_time":1552310024138,"fix_duration":250,"trial":36,"RT":1488,"MT":380,"sideResp":2,"stimulus":"img/500/equaldotanddens/L/10_Ratio_500_L_4_R_2.png","xmouse":[816,816,816,816,816,816,816,816,816,816,816,816,816,816,816,816,816,816,816,816,816,816,816,816,816,816,816,816,816,816,816,816,816,817,817,817,817,817,817,817,817,817,817,817,817,817,817,817,817,817,817,817,815,813,811,808,805,802,800,799,798,798,798,798,798,798,798,798,798,798,798,798,798,794,787,780,779,803,829,839,846,853,867,879,879,879,879,879,879,879,879,879,879,1074],"ymouse":[499,499,499,49