[{"start_time":1552308658967,"click_time":1552308668444,"finger_time":1552308658983,"fix_duration":1220.5674230971972,"trial":0,"RT":16,"MT":9461,"sideResp":1,"stimulus":[],"xmouse":[786,786,786,786,786,786,786,786,786,786,786,786,786,786,786,786,786,786,786,786,786,786,786,786,786,786,786,786,786,786,786,786,786,786,786,786,786,786,786,786,786,786,786,786,786,786,781,772,770,769,767,766,765,765,765,765,765,765,765,765,765,765,765,764,764,764,764,764,764,764,764,764,764,764,764,764,764,764,764,764,764,764,764,764,764,764,764,764,764,764,764,764,764,764,765,765,765,765,765,766,767,770,772,773,773,774,774,774,775,775,775,775,775,775,775,775,775,775,775,775,775,775,775,775,775,775,775,775,775,775,775,775,775,775,775,775,775,775,775,775,775,775,775,775,775,775,775,775,775,775,775,775,775,775,775,775,775,775,775,775,775,775,775,775,775,775,775,775,775,775,775,775,775,775,775,775,775,775,775,775,775,775,775,775,775,775,775,775,775,775,775,775,775,775,775,775,775,775,775,775,775,775,775,775,775,775,775,775,775,775,775,775,775,775,775,775,775,775,775,775,775,775,775,775,775,775,775,775,775,775,775,775,775,775,775,775,775,775,775,775,775,775,775,775,775,775,775,775,775,775,775,775,775,775,775,775,775,775,775,775,775,775,775,775,775,775,775,775,775,775,775,775,775,775,775,775,775,775,775,775,775,775,775,775,775,775,775,775,775,775,775,775,775,775,775,775,775,775,775,775,775,775,775,775,775,775,775,775,775,775,775,775,775,775,775,775,775,775,775,775,775,775,775,775,775,775,775,775,775,775,775,775,775,775,775,775,775,775,775,775,775,775,775,775,775,775,775,775,775,775,775,775,775,775,775,775,775,775,775,775,775,775,775,775,775,775,775,775,775,775,775,775,775,775,775,775,775,775,775,775,775,775,775,775,775,775,775,775,775,775,775,775,775,775,775,775,775,775,775,775,775,775,775,775,775,775,775,775,775,776,776,791,824,861,871,879,884,886,886,885,883,873,863,851,849,848,848,848,848,848,848,848,847,844,844,843,843,843,843,843,845,847,848,848,848,848,848,848,848,848,848,848,848,842,825,801,760,712,616,576,524,500,488,483,483,483,482,482,482,482,482,483,483,485],"ymouse":[558,558,558,558,558,558,558,558,558,558,558,558,558,558,558,558,558,558,558,558,558,558,558,558,558,558,558,558,558,558,558,558,558,558,558,558,558,558,558,558,558,558,558,558,558,562,568,583,588,592,595,598,599,599,599,599,599,599,599,599,599,599,599,601,602,602,602,602,602,602,602,602,602,602,602,602,602,602,602,602,602,602,602,602,602,602,602,602,602,602,602,602,602,602,603,603,604,604,604,604,604,604,605,605,605,605,605,605,604,603,603,603,603,603,603,603,602,601,600,600,600,600,600,600,600,600,600,600,600,600,600,600,600,600,600,600,600,600,600,600,600,600,600,600,600,600,600,600,600,600,600,600,600,600,600,600,600,600,600,600,600,600,600,600,600,600,600,600,600,600,600,600,600,600,600,600,600,600,600,600,600,600,600,600,600,600,600,600,600,600,600,600,600,600,600,600,600,600,600,600,600,600,600,600,600,600,600,600,600,600,600,600,600,600,600,600,600,600,600,600,600,600,600,600,600,600,600,600,600,600,600,600,600,600,600,600,600,600,600,600,600,600,600,600,600,600,600,600,600,600,600,600,600,600,600,600,600,600,600,600,600,600,600,600,600,600,600,600,600,600,600,600,600,600,600,600,600,600,600,600,600,600,600,600,600,600,600,600,600,600,600,600,600,600,600,600,600,600,600,600,600,600,600,600,600,600,600,600,600,600,600,600,600,600,600,600,600,600,600,600,600,600,600,600,600,600,600,600,600,600,600,600,600,600,600,600,600,600,600,600,600,600,600,600,600,600,600,600,600,600,600,600,600,600,600,600,600,600,600,600,600,600,600,600,600,600,600,600,600,600,600,600,600,600,600,600,600,600,600,600,600,600,600,600,600,600,600,600,600,600,600,600,600,600,600,600,600,600,600,600,600,600,600,600,600,600,600,600,600,599,593,547,415,315,298,285,276,268,256,253,253,252,252,252,252,252,252,252,252,252,252,252,252,254,254,255,256,257,258,258,258,258,258,258,258,258,258,258,258,258,258,258,258,258,252,243,231,210,171,156,134,128,124,122,121,121,119,119,119,118,116,110,107,98],"timestamp_mouse":[16,35,55,76,96,116,135,156,176,196,215,236,256,276,295,316,336,355,376,397,416,435,455,476,495,516,536,555,575,595,615,635,656,677,695,715,735,755,776,796,815,837,855,876,895,915,935,957,976,996,1016,1037,1056,1075,1097,1116,1136,1156,1176,1195,1216,1236,1255,1276,1295,1316,1336,1355,1376,1396,1416,1437,1456,1476,1495,1516,1535,1557,1576,1597,1617,1635,1656,1675,1695,1716,1735,1755,1775,1796,1816,1837,1856,1876,1896,1915,1935,1956,1975,1996,2015,2036,2055,2075,2097,2116,2135,2155,2175,2195,2216,2236,2255,2276,2295,2315,2335,2356,2376,2397,2416,2436,2457,2476,2496,2515,2535,2555,2575,2597,2616,2635,2656,2677,2696,2715,2737,2755,2775,2797,2817,2836,2856,2875,2895,2916,2936,2955,2977,2996,3016,3035,3056,3076,3096,3115,3136,3156,3175,3195,3215,3237,3255,3276,3295,3316,3337,3356,3376,3395,3416,3435,3457,3475,3495,3516,3535,3556,3575,3596,3615,3635,3656,3675,3696,3717,3735,3755,3776,3796,3816,3835,3856,3876,3895,3915,3936,3956,3975,3995,4016,4035,4057,4076,4096,4116,4136,4156,4175,4195,4216,4235,4255,4276,4296,4316,4337,4357,4376,4395,4416,4437,4455,4475,4496,4516,4535,4556,4575,4596,4615,4635,4656,4676,4695,4716,4735,4756,4776,4796,4816,4836,4855,4876,4896,4916,4936,4955,4976,4996,5016,5036,5056,5075,5097,5116,5135,5156,5176,5195,5215,5237,5255,5275,5295,5315,5336,5355,5376,5397,5417,5436,5455,5475,5496,5516,5535,5556,5576,5597,5616,5635,5656,5677,5697,5716,5736,5755,5776,5795,5815,5835,5856,5877,5895,5915,5935,5955,5975,5995,6015,6036,6055,6076,6096,6116,6136,6155,6176,6197,6217,6236,6257,6276,6296,6315,6337,6356,6377,6395,6415,6436,6455,6476,6495,6517,6537,6556,6575,6596,6616,6635,6657,6677,6697,6716,6736,6756,6776,6797,6817,6836,6855,6876,6895,6917,6935,6956,6976,6996,7016,7035,7057,7075,7096,7116,7136,7155,7177,7197,7216,7235,7255,7276,7296,7316,7336,7357,7377,7396,7416,7436,7456,7475,7497,7516,7537,7556,7576,7595,7616,7635,7656,7676,7696,7715,7735,7755,7777,7797,7817,7836,7855,7876,7896,7917,7936,7956,7975,7996,8015,8035,8056,8075,8097,8115,8135,8156,8176,8195,8216,8235,8255,8275,8295,8315,8335,8356,8375,8395,8416,8436,8456,8476,8495,8515,8536,8557,8576,8595,8616,8635,8655,8676,8695,8715,8736,8756,8776,8797,8816,8835,8855,8875,8897,8915,8936,8956,8976,8996,9016,9036,9055,9075,9095,9115,9135,9156,9175,9196,9215,9237,9256,9277,9295,9316,9336,9355,9376,9396,9416,9436,9455,9476],"xSR":741.5,"ySR":501.8,"xT1":424.9,"yT1":0,"xT2":1058.1,"yT2":0,"toosoon":0,"cond_shown":"Congruent","ratio_trial":200,"L_num":1,"L_den":2,"R_num":21,"R_den":30,"correct_side":2,"subjID":"juansebastianurrea25","gender":"0","age":"9","school":"4","test":{"fix_dur":[250,1500],"timestim":1000,"targets_dim":[100,100],"targets_relative_coord":[0.3,0.7],"size_stim":[880,420],"start_dim":[100,100],"size_start":[300,300],"size_fix":60,"samplingrate":20,"img_types":["Congruent","Incongruent"],"ratios":[100,200,300],"rep_conds":19,"nTrials":120,"trials_to_rest":500,"Trials_order":[32,98,114,27,100,75,82,119,46,74,85,44,97,110,36,38,63,67,18,39,111,113,45,22,57,31,70,29,77,20,51,60,11,24,9,25,76,69,59,80,88,72,26,116,6,107,102,19,2,16,65,81,52,108,96,71,53,91,117,62,73,105,43,42,37,99,28,34,49,83,35,55,109,118,10,90,13,47,30,8,106,50,66,64,15,115,95,40,41,3,33,56,21,7,54,4,94,61,12,48,112,84,104,92,78,58,23,1,87,14,89,17,68,79,103,5,0,86,93,101],"cond_shown":["Congruent","Congruent","Congruent","Incongruent","Congruent","Incongruent","Congruent","Incongruent","Congruent","Congruent","Incongruent","Congruent","Incongruent","Congruent","Congruent","Congruent","Incongruent","Incongruent","Congruent","Incongruent","Incongruent","Incongruent","Incongruent","Congruent","Incongruent","Incongruent","Congruent","Incongruent","Incongruent","Congruent","Incongruent","Congruent","Incongruent","Congruent","Incongruent","Incongruent","Congruent","Incongruent","Incongruent","Congruent","Congruent","Congruent","Congruent","Congruent","Congruent","Incongruent","Congruent","Incongruent","Congruent","Congruent","Incongruent","Incongruent","Congruent","Congruent","Congruent","Incongruent","Incongruent","Incongruent","Incongruent","Congruent","Incongruent","Incongruent","Incongruent","Congruent","Incongruent","Incongruent","Congruent","Congruent","Incongruent","Incongruent","Incongruent","Incongruent","Incongruent","Congruent","Congruent","Congruent","Incongruent","Incongruent","Congruent","Congruent","Congruent","Congruent","Congruent","Congruent","Incongruent","Incongruent","Incongruent","Congruent","Incongruent","Incongruent","Incongruent","Congruent","Incongruent","Incongruent","Congruent","Congruent","Congruent","Incongruent","Congruent","Congruent","Congruent","Congruent","Congruent","Congruent","Congruent","Congruent","Incongruent","Incongruent","Incongruent","Congruent","Incongruent","Incongruent","Congruent","Incongruent","Incongruent","Incongruent","Congruent","Congruent","Incongruent","Incongruent"],"ratio_trial":[200,200,100,200,300,200,300,300,300,200,100,200,100,200,100,200,200,100,100,200,200,300,200,300,200,100,300,300,300,200,200,100,300,100,200,100,300,200,300,200,300,100,200,200,100,300,100,100,200,300,300,200,300,100,100,300,300,100,200,200,100,200,100,100,100,200,300,300,100,300,300,100,100,300,300,100,100,300,100,200,300,200,100,300,200,100,300,300,300,200,200,200,200,100,100,300,300,100,100,100,300,100,200,200,100,300,300,100,200,200,300,300,200,100,100,300,100,200,200,300],"left_num":[1,7,8,4,1,11,4,7,1,20,6,16,13,6,8,6,9,12,2,7,7,13,11,20,6,8,1,13,1,7,6,11,13,9,1,6,8,4,8,16,1,10,7,16,3,1,1,12,5,2,4,4,20,3,3,4,1,9,7,6,3,7,3,9,6,7,11,1,8,4,1,9,12,1,11,4,12,4,15,16,20,6,9,5,1,8,4,3,1,4,6,8,7,10,4,5,1,13,12,11,2,10,8,6,1,1,8,6,9,9,4,13,11,9,13,13,7,16,7,8],"right_num":[21,2,2,1,11,3,2,8,19,9,11,12,6,7,2,11,8,9,11,4,12,12,3,14,3,1,6,12,3,18,3,4,12,8,2,13,10,14,14,12,8,3,18,9,2,2,18,2,14,12,2,14,5,4,4,8,2,13,4,11,11,12,7,8,7,4,2,11,6,2,3,20,2,3,4,15,9,8,13,9,13,7,8,6,2,6,8,4,3,6,3,7,8,8,15,7,19,6,13,6,12,3,2,11,18,6,9,7,8,13,8,12,3,20,12,12,15,12,4,14],"left_den":[2,21,16,30,5,20,5,10,3,25,10,20,26,12,16,20,15,24,5,15,10,26,20,25,20,20,5,26,2,15,20,22,26,15,3,10,15,6,10,20,30,25,15,30,6,2,2,30,10,10,20,6,25,20,20,5,2,15,15,20,5,10,9,15,10,15,22,5,16,20,2,10,30,5,22,10,24,5,25,30,25,12,15,25,3,16,5,6,2,5,20,15,10,25,10,25,3,26,30,22,10,25,15,20,2,5,10,10,15,30,5,26,22,10,26,26,14,20,15,10],"right_den":[30,15,5,3,22,4,4,20,30,15,22,20,10,10,5,22,10,15,22,6,24,15,4,28,6,2,12,15,15,27,6,10,15,16,15,26,12,30,28,20,24,10,27,27,5,10,30,4,20,24,4,30,10,16,16,16,10,26,6,22,22,24,30,16,14,6,10,22,10,4,15,25,4,6,20,30,15,16,26,27,26,10,16,12,15,10,16,5,15,10,6,21,16,16,30,14,30,10,26,15,24,10,6,22,30,12,18,14,10,26,16,15,10,25,20,15,25,20,6,28],"correct_side":[2,1,1,2,2,2,1,1,2,1,1,1,2,2,1,2,2,2,2,2,1,2,2,1,2,2,2,2,1,2,2,1,2,1,1,1,2,1,1,1,2,1,2,1,1,1,2,2,2,2,2,1,1,2,2,1,1,1,2,2,1,1,1,1,1,2,1,2,2,2,1,1,2,2,1,2,2,1,1,1,1,2,1,2,1,2,1,2,1,1,2,1,1,2,2,2,2,2,2,1,2,1,1,2,2,2,1,1,2,2,1,2,1,1,2,2,2,1,2,1],"img_shown":["img2/200/Congruent/R/C_Dist_200_LN_1_LD_2_RN_21_RD_30_1.png","img2/200/Congruent/L/C_Dist_200_LN_7_LD_21_RN_2_RD_15_0.png","img2/100/Congruent/L/C_Dist_100_LN_8_LD_16_RN_2_RD_5_0.png","img2/200/Incongruent/R/I_Dist_200_LN_4_LD_30_RN_1_RD_3_1.png","img2/300/Congruent/R/C_Dist_300_LN_1_LD_5_RN_11_RD_22_1.png","img2/200/Incongruent/R/I_Dist_200_LN_11_LD_20_RN_3_RD_4_1.png","img2/300/Congruent/L/C_Dist_300_LN_4_LD_5_RN_2_RD_4_0.png","img2/300/Incongruent/L/I_Dist_300_LN_7_LD_10_RN_8_RD_20_0.png","img2/300/Congruent/R/C_Dist_300_LN_1_LD_3_RN_19_RD_30_1.png","img2/200/Congruent/L/C_Dist_200_LN_20_LD_25_RN_9_RD_15_0.png","img2/100/Incongruent/L/I_Dist_100_LN_6_LD_10_RN_11_RD_22_0.png","img2/200/Congruent/L/C_Dist_200_LN_16_LD_20_RN_12_RD_20_0.png","img2/100/Incongruent/R/I_Dist_100_LN_13_LD_26_RN_6_RD_10_1.png","img2/200/Congruent/R/C_Dist_200_LN_6_LD_12_RN_7_RD_10_1.png","img2/100/Congruent/L/C_Dist_100_LN_8_LD_16_RN_2_RD_5_0.png","img2/200/Congruent/R/C_Dist_200_LN_6_LD_20_RN_11_RD_22_1.png","img2/200/Incongruent/R/I_Dist_200_LN_9_LD_15_RN_8_RD_10_1.png","img2/100/Incongruent/R/I_Dist_100_LN_12_LD_24_RN_9_RD_15_1.png","img2/100/Congruent/R/C_Dist_100_LN_2_LD_5_RN_11_RD_22_1.png","img2/200/Incongruent/R/I_Dist_200_LN_7_LD_15_RN_4_RD_6_1.png","img2/200/Incongruent/L/I_Dist_200_LN_7_LD_10_RN_12_RD_24_0.png","img2/300/Incongruent/R/I_Dist_300_LN_13_LD_26_RN_12_RD_15_1.png","img2/200/Incongruent/R/I_Dist_200_LN_11_LD_20_RN_3_RD_4_1.png","img2/300/Congruent/L/C_Dist_300_LN_20_LD_25_RN_14_RD_28_0.png","img2/200/Incongruent/R/I_Dist_200_LN_6_LD_20_RN_3_RD_6_1.png","img2/100/Incongruent/R/I_Dist_100_LN_8_LD_20_RN_1_RD_2_1.png","img2/300/Congruent/R/C_Dist_300_LN_1_LD_5_RN_6_RD_12_1.png","img2/300/Incongruent/R/I_Dist_300_LN_13_LD_26_RN_12_RD_15_1.png","img2/300/Incongruent/L/I_Dist_300_LN_1_LD_2_RN_3_RD_15_0.png","img2/200/Congruent/R/C_Dist_200_LN_7_LD_15_RN_18_RD_27_1.png","img2/200/Incongruent/R/I_Dist_200_LN_6_LD_20_RN_3_RD_6_1.png","img2/100/Congruent/L/C_Dist_100_LN_11_LD_22_RN_4_RD_10_0.png","img2/300/Incongruent/R/I_Dist_300_LN_13_LD_26_RN_12_RD_15_1.png","img2/100/Congruent/L/C_Dist_100_LN_9_LD_15_RN_8_RD_16_0.png","img2/200/Incongruent/L/I_Dist_200_LN_1_LD_3_RN_2_RD_15_0.png","img2/100/Incongruent/L/I_Dist_100_LN_6_LD_10_RN_13_RD_26_0.png","img2/300/Congruent/R/C_Dist_300_LN_8_LD_15_RN_10_RD_12_1.png","img2/200/Incongruent/L/I_Dist_200_LN_4_LD_6_RN_14_RD_30_0.png","img2/300/Incongruent/L/I_Dist_300_LN_8_LD_10_RN_14_RD_28_0.png","img2/200/Congruent/L/C_Dist_200_LN_16_LD_20_RN_12_RD_20_0.png","img2/300/Congruent/R/C_Dist_300_LN_1_LD_30_RN_8_RD_24_1.png","img2/100/Congruent/L/C_Dist_100_LN_10_LD_25_RN_3_RD_10_0.png","img2/200/Congruent/R/C_Dist_200_LN_7_LD_15_RN_18_RD_27_1.png","img2/200/Congruent/L/C_Dist_200_LN_16_LD_30_RN_9_RD_27_0.png","img2/100/Congruent/L/C_Dist_100_LN_3_LD_6_RN_2_RD_5_0.png","img2/300/Incongruent/L/I_Dist_300_LN_1_LD_2_RN_2_RD_10_0.png","img2/100/Congruent/R/C_Dist_100_LN_1_LD_2_RN_18_RD_30_1.png","img2/100/Incongruent/R/I_Dist_100_LN_12_LD_30_RN_2_RD_4_1.png","img2/200/Congruent/R/C_Dist_200_LN_5_LD_10_RN_14_RD_20_1.png","img2/300/Congruent/R/C_Dist_300_LN_2_LD_10_RN_12_RD_24_1.png","img2/300/Incongruent/R/I_Dist_300_LN_4_LD_20_RN_2_RD_4_1.png","img2/200/Incongruent/L/I_Dist_200_LN_4_LD_6_RN_14_RD_30_0.png","img2/300/Congruent/L/C_Dist_300_LN_20_LD_25_RN_5_RD_10_0.png","img2/100/Congruent/R/C_Dist_100_LN_3_LD_20_RN_4_RD_16_1.png","img2/100/Congruent/R/C_Dist_100_LN_3_LD_20_RN_4_RD_16_1.png","img2/300/Incongruent/L/I_Dist_300_LN_4_LD_5_RN_8_RD_16_0.png","img2/300/Incongruent/L/I_Dist_300_LN_1_LD_2_RN_2_RD_10_0.png","img2/100/Incongruent/L/I_Dist_100_LN_9_LD_15_RN_13_RD_26_0.png","img2/200/Incongruent/R/I_Dist_200_LN_7_LD_15_RN_4_RD_6_1.png","img2/200/Congruent/R/C_Dist_200_LN_6_LD_20_RN_11_RD_22_1.png","img2/100/Incongruent/L/I_Dist_100_LN_3_LD_5_RN_11_RD_22_0.png","img2/200/Incongruent/L/I_Dist_200_LN_7_LD_10_RN_12_RD_24_0.png","img2/100/Incongruent/L/I_Dist_100_LN_3_LD_9_RN_7_RD_30_0.png","img2/100/Congruent/L/C_Dist_100_LN_9_LD_15_RN_8_RD_16_0.png","img2/100/Incongruent/L/I_Dist_100_LN_6_LD_10_RN_7_RD_14_0.png","img2/200/Incongruent/R/I_Dist_200_LN_7_LD_15_RN_4_RD_6_1.png","img2/300/Congruent/L/C_Dist_300_LN_11_LD_22_RN_2_RD_10_0.png","img2/300/Congruent/R/C_Dist_300_LN_1_LD_5_RN_11_RD_22_1.png","img2/100/Incongruent/R/I_Dist_100_LN_8_LD_16_RN_6_RD_10_1.png","img2/300/Incongruent/R/I_Dist_300_LN_4_LD_20_RN_2_RD_4_1.png","img2/300/Incongruent/L/I_Dist_300_LN_1_LD_2_RN_3_RD_15_0.png","img2/100/Incongruent/L/I_Dist_100_LN_9_LD_10_RN_20_RD_25_0.png","img2/100/Incongruent/R/I_Dist_100_LN_12_LD_30_RN_2_RD_4_1.png","img2/300/Congruent/R/C_Dist_300_LN_1_LD_5_RN_3_RD_6_1.png","img2/300/Congruent/L/C_Dist_300_LN_11_LD_22_RN_4_RD_20_0.png","img2/100/Congruent/R/C_Dist_100_LN_4_LD_10_RN_15_RD_30_1.png","img2/100/Incongruent/R/I_Dist_100_LN_12_LD_24_RN_9_RD_15_1.png","img2/300/Incongruent/L/I_Dist_300_LN_4_LD_5_RN_8_RD_16_0.png","img2/100/Congruent/L/C_Dist_100_LN_15_LD_25_RN_13_RD_26_0.png","img2/200/Congruent/L/C_Dist_200_LN_16_LD_30_RN_9_RD_27_0.png","img2/300/Congruent/L/C_Dist_300_LN_20_LD_25_RN_13_RD_26_0.png","img2/200/Congruent/R/C_Dist_200_LN_6_LD_12_RN_7_RD_10_1.png","img2/100/Congruent/L/C_Dist_100_LN_9_LD_15_RN_8_RD_16_0.png","img2/300/Congruent/R/C_Dist_300_LN_5_LD_25_RN_6_RD_12_1.png","img2/200/Incongruent/L/I_Dist_200_LN_1_LD_3_RN_2_RD_15_0.png","img2/100/Incongruent/R/I_Dist_100_LN_8_LD_16_RN_6_RD_10_1.png","img2/300/Incongruent/L/I_Dist_300_LN_4_LD_5_RN_8_RD_16_0.png","img2/300/Congruent/R/C_Dist_300_LN_3_LD_6_RN_4_RD_5_1.png","img2/300/Incongruent/L/I_Dist_300_LN_1_LD_2_RN_3_RD_15_0.png","img2/200/Incongruent/L/I_Dist_200_LN_4_LD_5_RN_6_RD_10_0.png","img2/200/Incongruent/R/I_Dist_200_LN_6_LD_20_RN_3_RD_6_1.png","img2/200/Congruent/L/C_Dist_200_LN_8_LD_15_RN_7_RD_21_0.png","img2/200/Incongruent/L/I_Dist_200_LN_7_LD_10_RN_8_RD_16_0.png","img2/100/Incongruent/R/I_Dist_100_LN_10_LD_25_RN_8_RD_16_1.png","img2/100/Congruent/R/C_Dist_100_LN_4_LD_10_RN_15_RD_30_1.png","img2/300/Congruent/R/C_Dist_300_LN_5_LD_25_RN_7_RD_14_1.png","img2/300/Congruent/R/C_Dist_300_LN_1_LD_3_RN_19_RD_30_1.png","img2/100/Incongruent/R/I_Dist_100_LN_13_LD_26_RN_6_RD_10_1.png","img2/100/Congruent/R/C_Dist_100_LN_12_LD_30_RN_13_RD_26_1.png","img2/100/Congruent/L/C_Dist_100_LN_11_LD_22_RN_6_RD_15_0.png","img2/300/Congruent/R/C_Dist_300_LN_2_LD_10_RN_12_RD_24_1.png","img2/100/Congruent/L/C_Dist_100_LN_10_LD_25_RN_3_RD_10_0.png","img2/200/Congruent/L/C_Dist_200_LN_8_LD_15_RN_2_RD_6_0.png","img2/200/Congruent/R/C_Dist_200_LN_6_LD_20_RN_11_RD_22_1.png","img2/100/Congruent/R/C_Dist_100_LN_1_LD_2_RN_18_RD_30_1.png","img2/300/Congruent/R/C_Dist_300_LN_1_LD_5_RN_6_RD_12_1.png","img2/300/Incongruent/L/I_Dist_300_LN_8_LD_10_RN_9_RD_18_0.png","img2/100/Incongruent/L/I_Dist_100_LN_6_LD_10_RN_7_RD_14_0.png","img2/200/Incongruent/R/I_Dist_200_LN_9_LD_15_RN_8_RD_10_1.png","img2/200/Congruent/R/C_Dist_200_LN_9_LD_30_RN_13_RD_26_1.png","img2/300/Incongruent/L/I_Dist_300_LN_4_LD_5_RN_8_RD_16_0.png","img2/300/Incongruent/R/I_Dist_300_LN_13_LD_26_RN_12_RD_15_1.png","img2/200/Congruent/L/C_Dist_200_LN_11_LD_22_RN_3_RD_10_0.png","img2/100/Incongruent/L/I_Dist_100_LN_9_LD_10_RN_20_RD_25_0.png","img2/100/Incongruent/R/I_Dist_100_LN_13_LD_26_RN_12_RD_20_1.png","img2/300/Incongruent/R/I_Dist_300_LN_13_LD_26_RN_12_RD_15_1.png","img2/100/Congruent/R/C_Dist_100_LN_7_LD_14_RN_15_RD_25_1.png","img2/200/Congruent/L/C_Dist_200_LN_16_LD_20_RN_12_RD_20_0.png","img2/200/Incongruent/R/I_Dist_200_LN_7_LD_15_RN_4_RD_6_1.png","img2/300/Incongruent/L/I_Dist_300_LN_8_LD_10_RN_14_RD_28_0.png"],"dist100_C":[["C_Dist_100_LN_10_LD_25_RN_3_RD_10_0.png","C_Dist_100_LN_11_LD_22_RN_4_RD_10_0.png","C_Dist_100_LN_11_LD_22_RN_6_RD_15_0.png","C_Dist_100_LN_15_LD_25_RN_13_RD_26_0.png","C_Dist_100_LN_3_LD_6_RN_2_RD_5_0.png","C_Dist_100_LN_6_LD_20_RN_5_RD_25_0.png","C_Dist_100_LN_8_LD_16_RN_2_RD_5_0.png","C_Dist_100_LN_9_LD_15_RN_8_RD_16_0.png"],["C_Dist_100_LN_1_LD_2_RN_18_RD_30_1.png","C_Dist_100_LN_1_LD_2_RN_3_RD_5_1.png","C_Dist_100_LN_12_LD_30_RN_13_RD_26_1.png","C_Dist_100_LN_2_LD_5_RN_11_RD_22_1.png","C_Dist_100_LN_2_LD_5_RN_6_RD_12_1.png","C_Dist_100_LN_3_LD_20_RN_4_RD_16_1.png","C_Dist_100_LN_4_LD_10_RN_15_RD_30_1.png","C_Dist_100_LN_4_LD_8_RN_6_RD_10_1.png","C_Dist_100_LN_6_LD_12_RN_15_RD_25_1.png","C_Dist_100_LN_7_LD_14_RN_15_RD_25_1.png","C_Dist_100_LN_7_LD_14_RN_9_RD_15_1.png"]],"dist100_I":[["I_Dist_100_LN_1_LD_2_RN_8_RD_20_0.png","I_Dist_100_LN_2_LD_4_RN_6_RD_15_0.png","I_Dist_100_LN_2_LD_4_RN_8_RD_20_0.png","I_Dist_100_LN_3_LD_5_RN_11_RD_22_0.png","I_Dist_100_LN_3_LD_5_RN_8_RD_16_0.png","I_Dist_100_LN_3_LD_6_RN_4_RD_10_0.png","I_Dist_100_LN_3_LD_9_RN_7_RD_30_0.png","I_Dist_100_LN_4_LD_8_RN_8_RD_20_0.png","I_Dist_100_LN_6_LD_10_RN_11_RD_22_0.png","I_Dist_100_LN_6_LD_10_RN_13_RD_26_0.png","I_Dist_100_LN_6_LD_10_RN_7_RD_14_0.png","I_Dist_100_LN_9_LD_10_RN_20_RD_25_0.png","I_Dist_100_LN_9_LD_15_RN_13_RD_26_0.png","I_Dist_100_LN_9_LD_15_RN_14_RD_28_0.png"],["I_Dist_100_LN_10_LD_25_RN_8_RD_16_1.png","I_Dist_100_LN_10_LD_25_RN_9_RD_18_1.png","I_Dist_100_LN_11_LD_22_RN_9_RD_15_1.png","I_Dist_100_LN_12_LD_24_RN_9_RD_15_1.png","I_Dist_100_LN_12_LD_30_RN_2_RD_4_1.png","I_Dist_100_LN_13_LD_26_RN_12_RD_20_1.png","I_Dist_100_LN_13_LD_26_RN_6_RD_10_1.png","I_Dist_100_LN_17_LD_30_RN_10_RD_15_1.png","I_Dist_100_LN_6_LD_12_RN_3_RD_5_1.png","I_Dist_100_LN_8_LD_16_RN_6_RD_10_1.png","I_Dist_100_LN_8_LD_20_RN_1_RD_2_1.png","I_Dist_100_LN_9_LD_18_RN_6_RD_10_1.png"]],"dist100_S":[["E_Dist_100_LN_2_LD_12_RN_2_RD_30_0.png","E_Dist_100_LN_6_LD_10_RN_6_RD_12_0.png"],["E_Dist_100_LN_6_LD_12_RN_6_RD_10_1.png"]],"dist200_C":[["C_Dist_200_LN_11_LD_22_RN_3_RD_10_0.png","C_Dist_200_LN_12_LD_15_RN_6_RD_10_0.png","C_Dist_200_LN_12_LD_20_RN_6_RD_15_0.png","C_Dist_200_LN_14_LD_28_RN_6_RD_20_0.png","C_Dist_200_LN_15_LD_25_RN_4_RD_10_0.png","C_Dist_200_LN_16_LD_20_RN_12_RD_20_0.png","C_Dist_200_LN_16_LD_30_RN_9_RD_27_0.png","C_Dist_200_LN_20_LD_25_RN_9_RD_15_0.png","C_Dist_200_LN_21_LD_30_RN_2_RD_4_0.png","C_Dist_200_LN_4_LD_10_RN_3_RD_15_0.png","C_Dist_200_LN_4_LD_8_RN_3_RD_10_0.png","C_Dist_200_LN_6_LD_15_RN_3_RD_15_0.png","C_Dist_200_LN_7_LD_21_RN_2_RD_15_0.png","C_Dist_200_LN_8_LD_15_RN_2_RD_6_0.png","C_Dist_200_LN_8_LD_15_RN_3_RD_9_0.png","C_Dist_200_LN_8_LD_15_RN_7_RD_21_0.png","C_Dist_200_LN_9_LD_20_RN_4_RD_16_0.png"],["C_Dist_200_LN_1_LD_2_RN_21_RD_30_1.png","C_Dist_200_LN_13_LD_26_RN_14_RD_20_1.png","C_Dist_200_LN_3_LD_10_RN_11_RD_22_1.png","C_Dist_200_LN_3_LD_10_RN_14_RD_28_1.png","C_Dist_200_LN_3_LD_10_RN_7_RD_14_1.png","C_Dist_200_LN_3_LD_12_RN_9_RD_20_1.png","C_Dist_200_LN_3_LD_6_RN_14_RD_20_1.png","C_Dist_200_LN_5_LD_10_RN_14_RD_20_1.png","C_Dist_200_LN_6_LD_12_RN_7_RD_10_1.png","C_Dist_200_LN_6_LD_20_RN_11_RD_22_1.png","C_Dist_200_LN_7_LD_15_RN_18_RD_27_1.png","C_Dist_200_LN_9_LD_30_RN_13_RD_26_1.png"]],"dist200_I":[["I_Dist_200_LN_1_LD_2_RN_3_RD_10_0.png","I_Dist_200_LN_1_LD_3_RN_2_RD_15_0.png","I_Dist_200_LN_3_LD_4_RN_11_RD_20_0.png","I_Dist_200_LN_4_LD_5_RN_6_RD_10_0.png","I_Dist_200_LN_4_LD_6_RN_14_RD_30_0.png","I_Dist_200_LN_7_LD_10_RN_12_RD_24_0.png","I_Dist_200_LN_7_LD_10_RN_14_RD_28_0.png","I_Dist_200_LN_7_LD_10_RN_8_RD_16_0.png"],["I_Dist_200_LN_11_LD_20_RN_3_RD_4_1.png","I_Dist_200_LN_14_LD_30_RN_12_RD_18_1.png","I_Dist_200_LN_14_LD_30_RN_6_RD_9_1.png","I_Dist_200_LN_3_LD_10_RN_1_RD_2_1.png","I_Dist_200_LN_4_LD_30_RN_1_RD_3_1.png","I_Dist_200_LN_6_LD_20_RN_3_RD_6_1.png","I_Dist_200_LN_7_LD_15_RN_4_RD_6_1.png","I_Dist_200_LN_7_LD_15_RN_6_RD_9_1.png","I_Dist_200_LN_9_LD_15_RN_8_RD_10_1.png"]],"dist200_S":[["E_Dist_200_LN_3_LD_6_RN_3_RD_10_0.png"],["E_Dist_200_LN_3_LD_10_RN_3_RD_6_1.png"]],"dist300_C":[["C_Dist_300_LN_11_LD_22_RN_1_RD_5_0.png","C_Dist_300_LN_11_LD_22_RN_2_RD_10_0.png","C_Dist_300_LN_11_LD_22_RN_4_RD_20_0.png","C_Dist_300_LN_12_LD_24_RN_2_RD_10_0.png","C_Dist_300_LN_18_LD_20_RN_9_RD_15_0.png","C_Dist_300_LN_20_LD_25_RN_13_RD_26_0.png","C_Dist_300_LN_20_LD_25_RN_14_RD_28_0.png","C_Dist_300_LN_20_LD_25_RN_5_RD_10_0.png","C_Dist_300_LN_20_LD_25_RN_8_RD_16_0.png","C_Dist_300_LN_20_LD_25_RN_9_RD_18_0.png","C_Dist_300_LN_24_LD_30_RN_2_RD_4_0.png","C_Dist_300_LN_24_LD_30_RN_8_RD_16_0.png","C_Dist_300_LN_3_LD_6_RN_2_RD_10_0.png","C_Dist_300_LN_4_LD_10_RN_1_RD_10_0.png","C_Dist_300_LN_4_LD_5_RN_2_RD_4_0.png","C_Dist_300_LN_8_LD_16_RN_1_RD_5_0.png","C_Dist_300_LN_9_LD_10_RN_3_RD_5_0.png"],["C_Dist_300_LN_1_LD_20_RN_7_RD_20_1.png","C_Dist_300_LN_1_LD_3_RN_19_RD_30_1.png","C_Dist_300_LN_1_LD_30_RN_8_RD_24_1.png","C_Dist_300_LN_1_LD_5_RN_11_RD_22_1.png","C_Dist_300_LN_1_LD_5_RN_3_RD_6_1.png","C_Dist_300_LN_1_LD_5_RN_6_RD_12_1.png","C_Dist_300_LN_2_LD_10_RN_12_RD_24_1.png","C_Dist_300_LN_2_LD_20_RN_10_RD_25_1.png","C_Dist_300_LN_3_LD_12_RN_11_RD_20_1.png","C_Dist_300_LN_3_LD_6_RN_4_RD_5_1.png","C_Dist_300_LN_4_LD_20_RN_13_RD_26_1.png","C_Dist_300_LN_5_LD_25_RN_6_RD_12_1.png","C_Dist_300_LN_5_LD_25_RN_7_RD_14_1.png","C_Dist_300_LN_7_LD_14_RN_20_RD_25_1.png","C_Dist_300_LN_8_LD_15_RN_10_RD_12_1.png"]],"dist300_I":[["I_Dist_300_LN_1_LD_2_RN_2_RD_10_0.png","I_Dist_300_LN_1_LD_2_RN_3_RD_15_0.png","I_Dist_300_LN_2_LD_4_RN_6_RD_30_0.png","I_Dist_300_LN_3_LD_6_RN_4_RD_20_0.png","I_Dist_300_LN_4_LD_5_RN_6_RD_12_0.png","I_Dist_300_LN_4_LD_5_RN_8_RD_16_0.png","I_Dist_300_LN_7_LD_10_RN_8_RD_20_0.png","I_Dist_300_LN_8_LD_10_RN_14_RD_28_0.png","I_Dist_300_LN_8_LD_10_RN_9_RD_18_0.png"],["I_Dist_300_LN_13_LD_26_RN_12_RD_15_1.png","I_Dist_300_LN_4_LD_20_RN_2_RD_4_1.png"]],"dist300_S":[["E_Dist_300_LN_9_LD_12_RN_9_RD_20_0.png"],["E_Dist_300_LN_18_LD_30_RN_18_RD_20_1.png","E_Dist_300_LN_3_LD_10_RN_3_RD_5_1.png","E_Dist_300_LN_9_LD_20_RN_9_RD_12_1.png"]],"dist500_C":[["C_Dist_500_LN_10_LD_13_RN_7_RD_26_0.png","C_Dist_500_LN_10_LD_15_RN_4_RD_24_0.png","C_Dist_500_LN_12_LD_16_RN_3_RD_12_0.png","C_Dist_500_LN_12_LD_18_RN_4_RD_24_0.png","C_Dist_500_LN_15_LD_18_RN_5_RD_15_0.png","C_Dist_500_LN_15_LD_20_RN_1_RD_4_0.png","C_Dist_500_LN_18_LD_27_RN_1_RD_6_0.png","C_Dist_500_LN_20_LD_24_RN_1_RD_3_0.png","C_Dist_500_LN_20_LD_24_RN_3_RD_9_0.png","C_Dist_500_LN_20_LD_24_RN_7_RD_21_0.png","C_Dist_500_LN_20_LD_28_RN_3_RD_14_0.png","C_Dist_500_LN_21_LD_28_RN_6_RD_24_0.png","C_Dist_500_LN_22_LD_28_RN_2_RD_7_0.png","C_Dist_500_LN_25_LD_30_RN_9_RD_27_0.png","C_Dist_500_LN_4_LD_6_RN_1_RD_6_0.png","C_Dist_500_LN_5_LD_6_RN_2_RD_6_0.png","C_Dist_500_LN_6_LD_9_RN_1_RD_6_0.png","C_Dist_500_LN_7_LD_10_RN_1_RD_5_0.png","C_Dist_500_LN_8_LD_12_RN_1_RD_6_0.png","C_Dist_500_LN_8_LD_12_RN_4_RD_24_0.png"],["C_Dist_500_LN_1_LD_4_RN_12_RD_16_1.png","C_Dist_500_LN_1_LD_4_RN_9_RD_12_1.png","C_Dist_500_LN_1_LD_9_RN_11_RD_18_1.png","C_Dist_500_LN_10_LD_24_RN_22_RD_24_1.png","C_Dist_500_LN_2_LD_12_RN_10_RD_15_1.png","C_Dist_500_LN_2_LD_12_RN_12_RD_18_1.png","C_Dist_500_LN_2_LD_12_RN_4_RD_6_1.png","C_Dist_500_LN_2_LD_24_RN_7_RD_12_1.png","C_Dist_500_LN_2_LD_5_RN_18_RD_20_1.png","C_Dist_500_LN_2_LD_5_RN_9_RD_10_1.png","C_Dist_500_LN_2_LD_8_RN_12_RD_16_1.png","C_Dist_500_LN_2_LD_8_RN_21_RD_28_1.png","C_Dist_500_LN_3_LD_10_RN_4_RD_5_1.png","C_Dist_500_LN_3_LD_12_RN_15_RD_20_1.png","C_Dist_500_LN_3_LD_30_RN_6_RD_10_1.png","C_Dist_500_LN_3_LD_8_RN_14_RD_16_1.png","C_Dist_500_LN_4_LD_16_RN_15_RD_20_1.png","C_Dist_500_LN_4_LD_24_RN_12_RD_18_1.png","C_Dist_500_LN_5_LD_14_RN_6_RD_7_1.png","C_Dist_500_LN_7_LD_21_RN_20_RD_24_1.png","C_Dist_500_LN_7_LD_28_RN_12_RD_16_1.png","C_Dist_500_LN_7_LD_28_RN_9_RD_12_1.png","C_Dist_500_LN_9_LD_27_RN_20_RD_24_1.png"]],"dist500_I":[["I_Dist_500_LN_2_LD_3_RN_4_RD_24_0.png","I_Dist_500_LN_5_LD_6_RN_6_RD_18_0.png","I_Dist_500_LN_7_LD_8_RN_9_RD_24_0.png"],["I_Dist_500_LN_7_LD_21_RN_5_RD_6_1.png"]],"dist500_S":[["E_Dist_500_LN_6_LD_8_RN_6_RD_24_0.png"],["E_Dist_500_LN_2_LD_12_RN_2_RD_3_1.png","E_Dist_500_LN_6_LD_24_RN_6_RD_8_1.png"]]}},{"start_time":1552308671816,"click_time":1552308676923,"finger_time":1552308674563,"fix_duration":250,"trial":1,"RT":2747,"MT":2360,"sideResp":1,"stimulus":[],"xmouse":[786,786,786,786,786,786,786,786,786,786,786,786,786,786,786,786,786,786,786,786,786,786,786,786,786,786,786,786,786,786,786,786,786,786,786,786,786,786,786,786,786,786,786,786,786,786,786,786,786,786,786,786,786,786,786,786,786,786,786,786,786,786,786,786,786,786,786,786,786,786,786,786,786,786,786,786,786,786,786,786,786,786,786,786,786,786,786,786,786,786,786,786,786,786,786,786,786,786,786,786,786,786,786,786,786,786,786,786,786,786,786,786,786,786,786,786,786,786,786,786,786,786,786,786,786,786,786,786,786,786,786,786,786,786,786,786,786,777,771,762,756,750,738,733,729,726,720,717,712,706,696,684,663,657,655,655,655,655,655,655,655,655,658,664,669,679,696,718,718,718,718,718,718,718,718,718,718,739,739,739,739,739,742,745,748,749,749,753,753,755,756,759,759,759,759,758,757,757,757,759,760,760,760,760,760,761,763,765,765,765,765,765,765,765,765,765,765,765,765,765,765,765,756,737,689,669,586,513,498,487,480,474,465,429,396,380,359,354,352,352,352,352,355,359,363,371,379,391,398,400,403,407,410,415,420,429],"ymouse":[599,599,599,599,599,599,599,599,599,599,599,599,599,599,599,599,599,599,599,599,599,599,599,599,599,599,599,599,599,599,599,599,599,599,599,599,599,599,599,599,599,599,599,599,599,599,599,599,599,599,599,599,599,599,599,599,599,599,599,599,599,599,599,599,599,599,599,599,599,599,599,599,599,599,599,599,599,599,599,599,599,599,599,599,599,599,599,599,599,599,599,599,599,599,599,599,599,599,599,599,599,599,599,599,599,599,599,599,599,599,599,599,599,599,599,599,599,599,599,599,599,599,599,599,599,599,599,599,599,599,599,599,599,599,599,598,595,558,524,496,476,463,436,427,420,415,403,392,376,358,332,308,275,268,267,267,267,267,267,268,276,292,334,375,431,510,636,814,814,814,814,814,814,814,814,814,814,860,844,829,817,807,783,771,759,750,747,734,733,730,726,724,714,708,702,698,692,683,677,673,670,668,668,668,668,664,659,650,644,642,640,639,639,639,639,639,639,639,639,639,639,638,621,583,498,461,344,248,235,233,235,237,238,218,185,162,131,121,116,113,111,109,99,89,76,58,45,32,29,29,29,29,29,30,32,40],"timestamp_mouse":[8,26,58,66,87,108,128,147,167,187,208,227,247,267,287,308,327,346,367,386,406,428,447,467,487,506,527,546,567,588,607,627,646,666,688,707,726,747,767,786,807,826,846,868,887,907,926,947,966,986,1007,1027,1047,1066,1086,1108,1128,1147,1167,1187,1206,1226,1248,1267,1287,1307,1327,1346,1366,1387,1406,1428,1448,1467,1487,1506,1527,1546,1568,1587,1607,1626,1647,1667,1686,1708,1728,1748,1767,1787,1807,1826,1847,1866,1887,1906,1927,1947,1967,1987,2007,2027,2048,2067,2087,2107,2126,2146,2167,2187,2206,2227,2247,2267,2287,2307,2326,2346,2367,2388,2406,2426,2447,2467,2486,2507,2527,2546,2567,2586,2607,2627,2647,2668,2687,2707,2726,2747,2767,2786,2806,2826,2847,2867,2887,2906,2927,2946,2967,2987,3006,3027,3047,3066,3086,3107,3126,3147,3168,3187,3207,3227,3246,3266,3286,3307,3327,3346,3367,3386,3406,3427,3446,3467,3486,3507,3526,3546,3566,3586,3607,3626,3646,3667,3687,3708,3727,3747,3766,3787,3806,3826,3846,3866,3886,3906,3926,3946,3966,3987,4006,4028,4048,4067,4086,4107,4127,4146,4166,4186,4207,4227,4246,4268,4287,4307,4326,4346,4367,4386,4406,4426,4446,4467,4486,4506,4526,4547,4567,4586,4606,4626,4646,4666,4686,4706,4727,4746,4766,4787,4806,4826,4846,4868,4886,4907,4927,4946,4966,4987,5006,5028,5046,5066,5086,5107],"xSR":741.5,"ySR":573.95,"xT1":424.9,"yT1":0,"xT2":1058.1,"yT2":0,"toosoon":0,"cond_shown":"Congruent","ratio_trial":200,"L_num":7,"L_den":21,"R_num":2,"R_den":15,"correct_side":1,"subjID":"juansebastianurrea25","gender":"0","school":"4","age":"9"},{"start_time":1552308678424,"click_time":1552308682682,"finger_time":1552308680262,"fix_duration":401.488018597831,"trial":2,"RT":1838,"MT":2420,"sideResp":1,"stimulus":[],"xmouse":[803,803,803,803,803,803,803,803,803,803,803,803,803,803,803,803,803,803,803,802,802,802,802,802,802,802,802,802,802,802,802,802,802,802,802,802,802,802,801,801,801,801,801,801,801,801,801,801,801,801,801,801,801,801,801,801,801,801,801,801,801,801,801,801,801,801,801,801,801,801,801,800,800,798,798,798,798,798,798,797,797,797,797,797,796,796,793,791,786,778,766,726,668,630,593,559,519,513,511,511,511,511,511,511,511,511,511,511,511,511,511,511,511,511,511,511,517,527,545,577,612,708,786,819,839,846,848,848,848,848,848,848,848,848,844,839,833,832,831,830,830,830,830,830,830,830,815,791,758,741,734,730,730,730,730,730,730,730,730,730,733,741,746,750,754,755,756,756,756,756,756,756,756,756,756,756,756,756,756,756,756,756,756,756,756,756,757,757,757,757,757,757,757,757,755,750,735,684,654,625,599,593,575,572,569,563,556,546,541,537,534,525,518],"ymouse":[608,608,608,608,608,608,608,608,608,608,608,608,608,608,608,608,608,608,608,608,608,608,608,608,608,608,608,608,608,608,608,608,608,608,608,608,608,608,608,608,608,608,608,608,608,608,608,608,608,608,608,608,608,608,608,608,608,608,608,608,608,608,608,608,608,608,608,608,608,608,608,608,608,608,608,608,608,608,608,609,609,610,610,610,610,610,610,609,603,591,575,504,412,343,281,218,145,130,125,123,123,123,123,123,123,123,123,123,123,123,123,123,123,123,123,123,136,156,189,242,306,464,581,639,678,698,717,719,719,719,719,719,719,719,708,692,673,665,662,661,660,660,660,660,660,658,645,631,617,608,605,603,603,603,603,603,603,603,603,602,603,610,614,617,619,619,619,619,619,619,619,619,619,619,619,619,619,619,619,619,619,619,619,619,619,619,619,619,619,619,619,619,619,619,618,614,598,539,499,458,407,394,340,319,295,271,240,171,135,111,90,63,54],"timestamp_mouse":[18,42,58,78,99,118,138,158,180,199,218,239,259,278,299,319,339,359,378,398,420,438,459,479,500,519,539,558,579,598,619,639,658,678,698,720,740,758,778,798,820,838,858,879,898,918,938,958,978,999,1018,1040,1058,1078,1098,1118,1139,1159,1180,1200,1220,1239,1259,1279,1298,1319,1338,1358,1380,1398,1418,1438,1459,1479,1499,1520,1538,1558,1580,1598,1619,1638,1660,1678,1699,1718,1739,1758,1778,1798,1818,1838,1858,1879,1898,1919,1938,1958,1979,1998,2019,2038,2059,2079,2098,2119,2138,2159,2178,2198,2218,2239,2259,2278,2299,2318,2339,2358,2379,2398,2418,2438,2460,2478,2499,2519,2538,2559,2578,2598,2618,2640,2659,2678,2698,2719,2738,2758,2779,2798,2819,2839,2858,2879,2898,2918,2939,2958,2979,2999,3020,3039,3058,3078,3099,3119,3138,3158,3179,3200,3220,3239,3258,3278,3300,3318,3338,3359,3380,3399,3419,3438,3459,3479,3500,3518,3538,3559,3579,3599,3618,3640,3659,3679,3698,3718,3739,3758,3778,3799,3819,3839,3858,3879,3898,3918,3938,3958,3979,3998,4019,4038,4058,4079,4098,4119,4139,4158,4179,4199,4219,4238,4258],"xSR":741.5,"ySR":573.95,"xT1":424.9,"yT1":0,"xT2":1058.1,"yT2":0,"toosoon":0,"cond_shown":"Congruent","ratio_trial":100,"L_num":8,"L_den":16,"R_num":2,"R_den":5,"correct_side":1,"subjID":"juansebastianurrea25","gender":"0","school":"4","age":"9"},{"start_time":1552308684333,"click_time":1552308686603,"finger_time":1552308685682,"fix_duration":250,"trial":3,"RT":1349,"MT":921,"sideResp":2,"stimulus":[],"xmouse":[773,773,773,773,773,773,773,774,774,774,774,774,774,774,774,774,774,774,774,774,774,774,774,774,774,774,774,774,774,774,774,774,774,774,774,774,774,774,774,774,774,774,774,774,774,774,774,774,774,774,774,774,774,774,774,774,774,774,774,774,774,774,774,774,774,774,777,793,819,856,904,940,1000,1017,1029,1046,1055,1069,1071,1072,1072,1072,1072,1072,1071,1068,1060,1026,1005,980,957,915,795,731,658,617,596,577,577,577,580,586,599,610,615,627,645,699,743,811,891,969,1118,1155],"ymouse":[593,593,593,593,593,593,593,593,593,593,593,593,593,593,593,593,593,593,593,593,593,593,593,593,593,593,593,593,593,593,593,593,593,593,593,593,593,593,593,593,593,593,593,593,593,593,593,593,593,593,593,593,593,593,593,593,593,593,593,593,593,593,593,593,593,593,591,572,552,518,479,444,386,366,351,336,330,321,315,304,295,279,256,248,243,239,238,235,235,242,252,271,331,369,414,441,457,483,495,510,525,547,591,611,615,614,594,508,441,353,269,200,102,79],"timestamp_mouse":[9,37,49,70,89,110,130,150,170,189,210,231,250,270,290,310,331,350,369,389,410,429,449,470,489,509,530,549,570,590,611,630,650,671,689,710,730,751,769,789,810,831,850,870,890,910,930,949,969,989,1010,1030,1050,1069,1089,1109,1130,1149,1170,1190,1210,1230,1251,1269,1291,1309,1329,1349,1370,1389,1409,1429,1449,1469,1490,1509,1530,1550,1569,1590,1610,1629,1649,1669,1689,1710,1729,1749,1770,1791,1810,1829,1849,1869,1889,1910,1929,1949,1969,1989,2009,2029,2051,2070,2089,2110,2129,2149,2169,2189,2209,2229,2249,2270],"xSR":741.5,"ySR":573.95,"xT1":424.9,"yT1":0,"xT2":1058.1,"yT2":0,"toosoon":0,"cond_shown":"Incongruent","ratio_trial":200,"L_num":4,"L_den":30,"R_num":1,"R_den":3,"correct_side":2,"subjID":"juansebastianurrea25","gender":"0","school":"4","age":"9"},{"start_time":1552308690131,"click_time":1552308692184,"finger_time":1552308690842,"fix_duration":1448.4443178600131,"trial":4,"RT":711,"MT":1342,"sideResp":1,"stimulus":[],"xmouse":[808,808,808,808,808,808,808,808,808,808,808,808,808,808,808,808,808,808,808,808,808,808,808,808,808,808,808,808,808,808,808,808,808,808,808,808,808,808,808,808,808,808,808,808,808,808,808,808,808,808,808,808,808,808,808,808,808,808,808,808,808,808,808,808,808,808,808,808,808,808,808,806,800,795,789,783,776,766,750,738,725,712,703,693,677,666,647,625,617,606,599,589,579,567,563,560,558,557,555,552,546,540,523],"ymouse":[578,578,578,578,578,578,578,578,578,578,578,578,578,578,578,578,578,578,578,578,578,578,578,578,578,578,578,578,578,578,578,578,577,575,574,573,573,573,573,573,573,573,573,573,573,573,573,573,573,573,573,573,573,573,573,573,573,573,573,573,573,573,573,573,573,573,573,573,573,573,573,564,541,526,509,487,462,417,305,221,136,49,0,0,0,0,0,0,4,9,14,22,31,35,36,37,37,38,38,38,38,38,40],"timestamp_mouse":[12,32,52,71,91,112,132,152,171,192,212,232,252,271,291,313,333,352,371,392,412,433,452,471,492,513,532,552,572,592,611,632,653,671,692,711,731,752,772,792,811,832,853,871,891,912,932,951,973,991,1012,1031,1052,1072,1091,1113,1132,1152,1171,1191,1211,1233,1252,1271,1292,1311,1331,1353,1371,1391,1412,1432,1452,1471,1491,1513,1532,1552,1571,1591,1612,1631,1651,1672,1693,1712,1733,1751,1773,1792,1813,1831,1851,1872,1891,1911,1932,1951,1972,1991,2011,2032,2053],"xSR":741.5,"ySR":573.95,"xT1":424.9,"yT1":0,"xT2":1058.1,"yT2":0,"toosoon":0,"cond_shown":"Congruent","ratio_trial":300,"L_num":1,"L_den":5,"R_num":11,"R_den":22,"correct_side":2,"subjID":"juansebastianurrea25","gender":"0","school":"4","age":"9"},{"start_time":1552308695113,"click_time":1552308699404,"finger_time":1552308697502,"fix_duration":1188.9016991898834,"trial":5,"RT":2389,"MT":1902,"sideResp":2,"stimulus":[],"xmouse":[803,803,803,803,803,803,803,803,803,803,803,803,803,803,803,803,803,803,803,803,802,801,800,799,798,798,798,798,798,798,798,798,798,798,798,798,798,798,798,798,798,798,798,798,798,798,798,798,798,798,798,798,798,798,798,798,798,798,798,798,798,798,798,798,798,798,798,798,798,798,798,798,798,798,798,798,798,798,798,798,798,798,798,798,798,798,798,798,798,798,798,798,798,798,798,798,798,797,797,797,797,797,797,797,797,797,797,797,797,797,797,797,797,797,797,797,801,807,815,828,833,840,842,843,844,844,844,844,844,844,844,844,844,844,844,844,844,844,844,844,842,839,835,832,825,821,818,815,813,811,809,807,806,804,800,800,798,793,787,764,733,713,693,676,644,631,617,604,592,576,570,569,569,568,568,568,568,568,568,578,592,617,649,683,717,751,766,781,797,812,821,829,845,869,925,948,973,990,1007,1018,1037,1044,1049,1051,1049,1049,1049,1050,1053,1059,1060,1061,1061,1064,1070],"ymouse":[614,614,614,614,614,614,614,614,614,614,614,614,614,614,614,615,615,616,617,619,621,622,624,625,626,626,626,626,626,626,626,626,626,626,626,626,626,626,626,626,626,626,626,626,626,626,626,626,626,626,626,626,626,626,626,626,626,626,626,626,626,626,626,626,626,626,626,626,626,626,626,626,626,626,626,626,626,626,626,626,626,626,626,626,626,626,626,626,626,626,626,626,626,626,626,626,626,627,627,627,627,627,627,627,627,627,627,627,627,627,627,627,627,627,627,627,617,603,586,554,544,534,528,526,520,520,520,520,520,520,520,520,520,520,520,520,520,520,520,520,521,526,530,534,544,549,552,555,557,559,561,563,566,568,570,570,570,568,558,505,436,388,342,304,244,223,202,186,173,157,152,151,151,150,150,150,150,150,150,163,186,219,259,306,350,387,392,393,392,383,377,369,357,343,317,303,289,277,262,249,217,204,192,182,156,143,134,129,123,117,115,113,111,108,99],"timestamp_mouse":[11,36,50,69,89,110,129,150,169,190,210,229,249,269,289,309,329,349,370,389,409,429,449,469,489,509,529,549,570,590,609,630,650,670,690,710,729,749,770,790,810,831,849,870,890,909,931,950,970,990,1010,1029,1050,1069,1090,1109,1130,1150,1171,1190,1209,1230,1249,1269,1290,1309,1329,1350,1370,1391,1409,1429,1449,1469,1490,1511,1530,1549,1570,1590,1609,1630,1650,1670,1689,1710,1729,1750,1770,1790,1810,1831,1851,1870,1889,1909,1929,1950,1969,1990,2010,2031,2050,2071,2090,2110,2129,2150,2170,2190,2209,2229,2249,2269,2290,2309,2330,2350,2369,2389,2410,2430,2449,2470,2489,2509,2529,2550,2570,2589,2609,2630,2650,2669,2690,2709,2729,2749,2770,2790,2809,2829,2850,2870,2889,2909,2930,2949,2969,2989,3009,3029,3049,3070,3089,3109,3129,3150,3169,3191,3209,3229,3249,3269,3290,3309,3329,3349,3369,3389,3411,3431,3449,3469,3489,3511,3529,3550,3569,3591,3609,3630,3649,3669,3690,3709,3729,3749,3770,3790,3809,3829,3849,3869,3889,3909,3931,3950,3969,3989,4011,4029,4049,4069,4091,4109,4129,4149,4169,4191,4209,4229,4249,4270,4290],"xSR":741.5,"ySR":573.95,"xT1":424.9,"yT1":0,"xT2":1058.1,"yT2":0,"toosoon":0,"cond_shown":"Incongruent","ratio_trial":200,"L_num":11,"L_den":20,"R_num":3,"R_den":4,"correct_side":2,"subjID":"juansebastianurrea25","gender":"0","school":"4","age":"9"},{"start_time":1552308702289,"click_time":1552308704043,"finger_time":1552308703703,"fix_duration":964.3295285661139,"trial":6,"RT":1414,"MT":340,"sideResp":1,"stimulus":[],"xmouse":[793,793,793,793,793,793,793,793,793,793,793,793,793,794,794,794,794,794,794,794,794,794,794,794,794,794,794,794,794,794,794,794,794,794,794,794,794,794,794,794,794,794,794,794,794,794,794,794,794,794,794,794,794,794,794,794,794,794,794,794,794,794,794,795,795,795,795,795,794,784,774,741,723,699,668,640,586,559,520,493,479,461,457,453,451,447,434,427],"ymouse":[626,626,626,626,626,626,626,626,626,626,626,626,626,626,626,626,626,626,626,626,626,626,626,626,626,626,626,626,626,626,626,626,626,626,626,626,626,626,626,626,626,626,626,626,626,626,626,626,626,626,626,626,626,626,626,626,626,626,626,626,626,626,626,626,626,626,626,621,612,588,549,434,369,295,220,143,9,0,0,0,0,0,0,0,0,0,0,4],"timestamp_mouse":[14,43,54,74,95,114,134,153,173,194,214,235,255,275,293,313,335,353,374,394,414,433,453,473,495,513,533,554,575,593,614,635,655,673,693,714,733,754,774,794,813,833,855,875,894,914,934,953,974,993,1014,1035,1053,1073,1095,1115,1133,1153,1175,1194,1214,1234,1254,1275,1294,1314,1333,1353,1373,1393,1414,1434,1454,1474,1494,1513,1535,1553,1573,1594,1614,1634,1653,1674,1694,1714,1733,1753],"xSR":741.5,"ySR":573.95,"xT1":424.9,"yT1":0,"xT2":1058.1,"yT2":0,"toosoon":0,"cond_shown":"Congruent","ratio_trial":300,"L_num":4,"L_den":5,"R_num":2,"R_den":4,"correct_side":1,"subjID":"juansebastianurrea25","gender":"0","school":"4","age":"9"},{"start_time":1552308719574,"click_time":1552308722324,"finger_time":1552308721762,"fix_duration":250,"trial":7,"RT":2188,"MT":562,"sideResp":1,"stimulus":[],"xmouse":[776,776,776,776,776,776,776,776,776,776,776,776,776,776,776,776,776,776,776,776,776,776,776,776,776,776,776,776,776,776,776,776,776,776,776,776,776,776,776,776,776,776,776,776,776,776,776,776,776,776,776,776,776,776,776,776,776,776,776,776,776,776,776,776,776,776,776,776,776,776,776,776,776,776,776,776,776,776,776,776,776,776,776,776,776,776,776,776,776,776,776,776,776,776,776,776,776,776,776,776,776,776,776,776,776,778,779,785,787,789,789,789,789,778,745,724,700,683,670,645,633,619,608,599,580,577,577,577,575,568,563,557,551,547,541,538,533,524],"ymouse":[660,660,660,660,660,660,660,660,660,660,660,660,660,660,660,660,660,660,660,660,660,660,660,660,660,660,660,660,660,660,660,660,660,660,660,660,660,660,660,660,660,660,660,660,660,660,660,660,660,660,660,660,660,660,660,660,660,660,660,660,660,660,660,660,660,660,660,660,660,660,660,660,660,660,660,660,660,660,660,660,660,660,660,660,660,660,660,660,660,660,660,660,660,660,660,660,660,660,660,660,660,660,660,660,660,659,650,634,611,536,486,440,394,337,203,152,99,70,43,0,0,0,0,0,0,0,0,0,0,3,5,8,8,8,8,8,8,8],"timestamp_mouse":[10,29,50,70,89,109,129,148,168,192,209,228,248,268,289,308,330,350,369,389,409,430,450,469,490,509,529,548,569,588,608,629,648,668,689,709,728,749,769,788,809,830,848,868,888,910,930,949,969,988,1008,1028,1050,1069,1088,1109,1129,1149,1168,1189,1210,1229,1249,1268,1289,1309,1329,1349,1370,1389,1408,1430,1450,1469,1488,1508,1528,1549,1568,1588,1609,1629,1648,1668,1689,1708,1729,1748,1769,1789,1809,1828,1848,1869,1889,1909,1929,1948,1968,1989,2008,2028,2049,2069,2088,2108,2129,2149,2169,2188,2208,2229,2249,2269,2289,2308,2329,2349,2368,2390,2409,2429,2448,2469,2488,2508,2529,2549,2568,2589,2609,2629,2648,2669,2688,2708,2728,2749],"xSR":741.5,"ySR":573.95,"xT1":424.9,"yT1":0,"xT2":1058.1,"yT2":0,"toosoon":0,"cond_shown":"Incongruent","ratio_trial":300,"L_num":7,"L_den":10,"R_num":8,"R_den":20,"correct_side":1,"subjID":"juansebastianurrea25","gender":"0","school":"4","age":"9"},{"start_time":1552308730495,"click_time":1552308732542,"finger_time":1552308731822,"fix_duration":250,"trial":8,"RT":1327,"MT":720,"sideResp":2,"stimulus":[],"xmouse":[765,765,765,765,765,765,765,765,765,765,765,765,765,765,765,765,765,765,765,765,765,765,765,765,765,765,765,765,765,765,765,765,765,765,765,765,765,765,765,765,765,765,765,765,765,765,765,765,765,765,765,765,765,765,765,765,765,765,765,765,765,765,765,765,768,786,872,969,1101,1366,1442,1475,1481,1477,1469,1463,1463,1461,1461,1449,1436,1424,1416,1410,1371,1348,1326,1306,1293,1277,1273,1267,1257,1239,1197,1182,1181,1181,1180,1174,1167,1161,1157],"ymouse":[652,652,652,652,652,652,652,652,652,652,652,652,652,652,652,652,652,652,652,652,652,652,652,652,652,652,652,652,652,652,652,652,652,652,652,652,652,652,652,652,652,652,652,652,652,652,652,652,652,652,652,652,652,652,652,652,652,652,652,652,652,652,652,652,645,618,488,348,179,0,0,0,0,0,0,0,0,0,0,0,0,0,0,1,10,13,18,25,28,29,29,29,29,29,29,30,31,31,31,31,31,31,31],"timestamp_mouse":[9,36,47,69,88,108,127,147,168,188,207,227,247,267,289,307,327,347,367,387,407,427,448,468,489,508,528,547,569,589,607,627,647,669,687,707,728,748,768,789,807,828,847,868,887,907,927,949,967,987,1007,1028,1047,1067,1088,1107,1128,1148,1168,1189,1208,1227,1248,1269,1287,1308,1327,1347,1367,1388,1407,1427,1447,1468,1487,1507,1527,1547,1567,1589,1608,1628,1647,1667,1688,1708,1727,1748,1769,1789,1807,1828,1849,1868,1888,1908,1928,1948,1967,1988,2007,2027,2047],"xSR":741.5,"ySR":573.95,"xT1":424.9,"yT1":0,"xT2":1058.1,"yT2":0,"toosoon":0,"cond_shown":"Congruent","ratio_trial":300,"L_num":1,"L_den":3,"R_num":19,"R_den":30,"correct_side":2,"subjID":"juansebastianurrea25","gender":"0","school":"4","age":"9"},{"start_time":1552308735753,"click_time":1552308737404,"finger_time":1552308737102,"fix_duration":308.4642761607692,"trial":9,"RT":1349,"MT":302,"sideResp":1,"stimulus":[],"xmouse":[786,786,786,786,786,786,786,786,786,786,786,786,786,786,786,786,786,786,786,786,786,786,786,786,786,785,785,785,785,785,785,785,785,785,785,785,785,785,785,785,785,785,785,785,785,784,784,784,784,784,784,784,784,784,781,779,776,775,775,775,775,775,773,771,768,765,758,739,731,723,718,710,692,679,670,664,659,637,611,569,549,535,510],"ymouse":[613,613,613,613,613,613,613,613,613,613,613,613,613,613,613,613,613,613,613,613,613,613,613,613,614,616,616,616,616,616,616,616,616,617,617,617,617,617,617,617,617,617,617,618,619,620,620,620,620,620,620,620,620,620,620,619,618,617,617,617,617,617,616,615,613,610,602,573,554,526,494,419,309,265,237,217,200,175,161,136,124,114,97],"timestamp_mouse":[10,29,60,70,91,110,129,151,169,190,210,230,251,270,290,310,330,350,370,390,409,430,449,470,490,510,529,549,571,590,610,630,651,671,690,710,730,751,770,790,809,830,849,869,889,910,931,949,970,990,1010,1030,1049,1069,1089,1109,1130,1150,1170,1190,1210,1229,1249,1269,1290,1309,1330,1349,1369,1390,1410,1429,1450,1469,1491,1510,1530,1549,1569,1589,1609,1629,1650],"xSR":741.5,"ySR":573.95,"xT1":424.9,"yT1":0,"xT2":1058.1,"yT2":0,"toosoon":0,"cond_shown":"Congruent","ratio_trial":200,"L_num":20,"L_den":25,"R_num":9,"R_den":15,"correct_side":1,"subjID":"juansebastianurrea25","gender":"0","school":"4","age":"9"},{"start_time":1552308739808,"click_time":1552308742163,"finger_time":1552308741342,"fix_duration":1024.3756352732023,"trial":10,"RT":1534,"MT":821,"sideResp":1,"stimulus":[],"xmouse":[756,756,756,756,756,756,756,756,756,756,756,756,756,756,756,756,756,756,756,756,756,756,756,756,756,756,756,756,756,756,756,756,756,756,756,756,756,756,756,756,756,756,756,756,756,756,756,756,756,756,756,756,756,756,756,756,756,756,756,756,756,756,756,756,756,756,756,756,756,758,764,771,783,795,827,839,847,851,852,852,852,852,850,834,777,721,694,673,660,652,650,649,649,649,649,646,646,646,646,646,645,640,631,613,565,552,539,530,524,506,495,477,465,455,443,444,454,461],"ymouse":[605,605,605,605,605,605,605,605,605,605,605,605,605,605,605,605,605,605,605,605,605,605,605,605,605,605,605,605,605,605,605,605,605,605,605,605,605,605,605,605,605,606,606,606,606,606,607,607,608,608,609,610,610,611,612,612,613,613,613,613,613,613,613,613,613,613,613,613,613,612,609,606,603,600,590,586,583,583,581,581,581,581,580,576,557,549,546,546,546,552,558,563,570,577,583,593,595,595,595,595,595,589,573,548,480,458,434,410,384,315,281,247,219,199,144,129,113,97],"timestamp_mouse":[14,40,55,74,94,115,134,154,174,195,214,234,255,274,294,316,336,355,375,395,415,435,455,475,495,516,534,555,574,595,614,634,654,676,695,714,734,755,774,795,814,835,856,876,894,915,934,955,974,995,1015,1035,1054,1075,1094,1115,1135,1154,1175,1195,1215,1235,1256,1274,1295,1315,1334,1355,1374,1394,1414,1434,1454,1475,1495,1515,1534,1554,1574,1595,1615,1635,1655,1675,1694,1714,1735,1754,1774,1796,1814,1835,1854,1876,1895,1916,1935,1955,1976,1994,2014,2035,2054,2074,2096,2116,2134,2154,2174,2194,2214,2234,2254,2275,2295,2314,2335,2355],"xSR":741.5,"ySR":573.95,"xT1":424.9,"yT1":0,"xT2":1058.1,"yT2":0,"toosoon":0,"cond_shown":"Incongruent","ratio_trial":100,"L_num":6,"L_den":10,"R_num":11,"R_den":22,"correct_side":1,"subjID":"juansebastianurrea25","gender":"0","school":"4","age":"9"},{"start_time":1552308746273,"click_time":1552308748083,"finger_time":1552308747603,"fix_duration":250,"trial":11,"RT":1330,"MT":480,"sideResp":1,"stimulus":[],"xmouse":[797,797,797,797,797,797,797,797,797,797,797,797,797,797,797,797,797,797,797,797,797,797,797,798,798,798,798,798,798,798,798,798,798,798,798,798,799,799,799,799,799,799,799,799,799,799,799,799,799,799,799,799,799,799,799,799,799,798,796,796,795,795,795,793,791,789,785,783,783,789,796,801,802,792,777,766,755,743,738,727,714,697,650,620,582,548,517,465,444,432,426],"ymouse":[597,597,597,597,597,597,597,597,597,597,597,597,597,597,597,597,597,597,597,597,597,597,597,598,598,598,598,598,598,598,598,598,598,598,598,599,600,600,600,600,600,600,600,600,600,601,601,601,601,601,601,601,601,601,601,601,601,600,598,598,597,597,597,596,593,585,573,535,517,490,469,450,406,381,357,335,318,300,296,289,283,276,249,228,211,186,165,127,112,102,96],"timestamp_mouse":[10,42,50,70,90,110,130,151,170,189,210,230,251,270,290,309,331,351,369,389,410,431,450,469,490,511,529,550,571,589,609,629,650,670,689,709,730,750,770,791,810,829,851,870,890,911,930,949,970,990,1011,1029,1049,1069,1091,1110,1130,1149,1171,1190,1210,1230,1250,1269,1289,1309,1330,1349,1370,1389,1410,1429,1449,1469,1489,1509,1530,1549,1570,1590,1609,1630,1649,1669,1691,1710,1730,1749,1770,1789,1810],"xSR":741.5,"ySR":573.95,"xT1":424.9,"yT1":0,"xT2":1058.1,"yT2":0,"toosoon":0,"cond_shown":"Congruent","ratio_trial":200,"L_num":16,"L_den":20,"R_num":12,"R_den":20,"correct_side":1,"subjID":"juansebastianurrea25","gender":"0","school":"4","age":"9"},{"start_time":1552308750373,"click_time":1552308753743,"finger_time":1552308750903,"fix_duration":709.0373832888143,"trial":12,"RT":530,"MT":2840,"sideResp":1,"stimulus":[],"xmouse":[797,797,797,797,797,797,797,797,797,797,798,798,798,798,798,798,798,798,798,798,798,798,798,798,798,797,795,791,788,788,786,785,785,785,785,785,785,785,785,785,785,785,785,785,785,785,784,783,783,782,782,782,782,782,782,782,782,782,783,784,784,784,784,784,784,784,785,785,785,785,785,784,782,782,780,780,780,779,779,779,779,778,778,777,777,777,777,777,777,777,777,777,777,777,777,776,776,776,776,776,776,776,776,776,776,776,776,776,776,776,776,776,776,776,776,776,776,776,776,776,776,776,776,776,776,776,776,776,776,776,776,776,776,776,776,776,776,776,776,776,776,776,776,775,774,773,773,773,772,772,772,770,741,712,675,644,620,595,551,531,506,486,460,436,433,431,431,433,445],"ymouse":[612,612,612,612,612,612,612,612,612,612,612,614,615,619,620,621,623,625,626,627,629,632,636,649,659,670,681,706,720,732,745,765,779,780,780,780,780,780,780,780,780,780,780,780,780,780,781,781,775,769,763,756,747,741,739,736,735,729,725,721,716,710,703,694,691,686,683,674,670,666,661,657,654,653,651,651,651,650,650,649,648,647,646,644,644,643,643,643,643,643,643,643,643,643,643,643,643,643,643,643,643,643,643,643,643,643,643,643,643,643,643,643,643,643,643,643,643,643,643,643,643,643,643,643,643,643,643,643,643,643,643,643,643,643,643,643,643,643,643,643,643,643,643,643,643,643,643,643,640,632,617,597,537,502,457,421,383,348,286,262,237,231,208,167,149,131,118,109,97],"timestamp_mouse":[9,41,49,69,89,109,130,149,170,190,209,231,249,270,289,309,329,350,369,390,410,431,450,469,489,511,530,551,570,589,610,630,650,669,689,709,730,749,769,789,810,829,850,869,889,910,929,950,969,990,1009,1029,1050,1069,1089,1110,1130,1150,1169,1189,1210,1230,1249,1270,1290,1311,1330,1349,1369,1391,1411,1430,1450,1470,1489,1510,1530,1550,1570,1590,1609,1630,1650,1669,1689,1710,1730,1750,1769,1790,1809,1830,1849,1871,1890,1910,1929,1950,1970,1991,2010,2029,2050,2071,2089,2110,2129,2150,2169,2189,2210,2230,2250,2270,2289,2310,2331,2350,2369,2390,2410,2431,2451,2469,2490,2510,2531,2550,2569,2590,2611,2630,2651,2669,2691,2710,2729,2749,2769,2789,2811,2830,2850,2870,2890,2910,2930,2951,2969,2990,3009,3030,3050,3069,3089,3110,3130,3150,3169,3191,3209,3229,3250,3270,3290,3310,3330,3350,3369],"xSR":741.5,"ySR":573.95,"xT1":424.9,"yT1":0,"xT2":1058.1,"yT2":0,"toosoon":0,"cond_shown":"Incongruent","ratio_trial":100,"L_num":13,"L_den":26,"R_num":6,"R_den":10,"correct_side":2,"subjID":"juansebastianurrea25","gender":"0","school":"4","age":"9"},{"start_time":1552308756163,"click_time":1552308757863,"finger_time":1552308757482,"fix_duration":780.3870775624014,"trial":13,"RT":1319,"MT":381,"sideResp":2,"stimulus":[],"xmouse":[798,798,798,798,798,798,798,798,798,798,798,798,798,798,798,798,798,798,798,798,798,798,798,798,798,798,798,798,798,798,798,798,798,798,798,798,798,798,798,798,798,798,798,798,798,798,798,798,798,798,798,798,798,798,799,799,799,799,799,799,799,800,806,820,834,854,882,923,983,1014,1025,1031,1035,1040,1041,1043,1045,1047,1054,1054,1059,1060,1063,1070,1088],"ymouse":[638,638,638,638,638,638,638,638,638,638,638,638,638,638,638,638,638,638,638,638,638,638,638,638,638,638,638,638,638,638,638,638,638,638,638,638,638,638,638,638,638,638,638,638,638,638,638,638,638,638,638,638,638,636,635,635,635,635,635,635,635,634,628,618,607,593,577,551,507,471,452,436,421,396,385,371,356,338,268,252,196,168,144,118,73],"timestamp_mouse":[20,41,59,80,100,121,141,159,179,199,220,239,259,281,300,319,339,360,380,400,421,439,459,481,500,519,539,559,579,599,621,639,660,680,699,721,739,760,781,799,821,840,859,880,899,919,940,960,980,1000,1019,1040,1059,1079,1099,1120,1140,1161,1181,1200,1219,1239,1259,1280,1299,1319,1339,1360,1379,1400,1420,1439,1459,1480,1499,1520,1540,1559,1581,1599,1620,1640,1660,1679,1699],"xSR":741.5,"ySR":573.95,"xT1":424.9,"yT1":0,"xT2":1058.1,"yT2":0,"toosoon":0,"cond_shown":"Congruent","ratio_trial":200,"L_num":6,"L_den":12,"R_num":7,"R_den":10,"correct_side":2,"subjID":"juansebastianurrea25","gender":"0","school":"4","age":"9"},{"start_time":1552308760598,"click_time":1552308762464,"finger_time":1552308762102,"fix_duration":1172.8080874453365,"trial":14,"RT":1504,"MT":362,"sideResp":1,"stimulus":[],"xmouse":[800,800,798,796,796,795,795,794,794,794,794,794,794,794,794,794,794,794,794,793,793,793,792,792,792,792,792,792,791,791,791,790,790,789,789,789,789,789,789,789,789,789,789,789,789,789,789,789,789,789,789,789,789,789,789,789,789,789,789,789,789,789,789,789,789,789,789,789,789,789,789,789,786,778,768,757,735,714,654,623,592,567,540,498,485,474,468,467,467,467,467,467,466,465],"ymouse":[609,609,611,614,615,615,616,617,617,617,617,617,617,617,617,617,617,617,617,618,618,618,619,619,620,620,620,620,620,621,621,621,621,622,622,622,622,622,622,622,622,622,622,622,622,622,622,622,622,622,622,622,622,622,622,622,622,622,622,622,622,622,622,622,622,622,622,622,622,622,622,622,622,605,587,567,527,490,372,300,224,153,83,0,0,0,0,0,0,0,0,0,0,9],"timestamp_mouse":[21,38,44,64,84,104,125,145,165,185,204,224,245,264,284,305,326,344,365,384,404,424,445,464,485,505,524,545,565,584,606,626,644,665,684,706,725,745,765,785,805,825,844,866,886,905,925,944,964,984,1005,1024,1045,1065,1085,1104,1125,1145,1165,1184,1205,1225,1244,1264,1284,1306,1325,1345,1364,1384,1405,1424,1444,1464,1485,1504,1524,1545,1565,1584,1605,1624,1644,1665,1684,1704,1724,1746,1765,1784,1804,1824,1844,1865],"xSR":741.5,"ySR":573.95,"xT1":424.9,"yT1":0,"xT2":1058.1,"yT2":0,"toosoon":0,"cond_shown":"Congruent","ratio_trial":100,"L_num":8,"L_den":16,"R_num":2,"R_den":5,"correct_side":1,"subjID":"juansebastianurrea25","gender":"0","school":"4","age":"9"},{"start_time":1552308763648,"click_time":1552308765684,"finger_time":1552308765003,"fix_duration":404.1225383965795,"trial":15,"RT":1355,"MT":681,"sideResp":2,"stimulus":[],"xmouse":[779,779,779,779,779,779,779,779,779,779,779,779,779,779,779,780,780,780,780,780,781,781,781,781,781,781,781,781,781,781,781,781,781,781,781,781,781,781,781,781,781,781,781,781,781,781,781,781,781,781,781,781,781,781,781,781,781,781,781,781,781,781,781,781,781,785,792,799,806,816,834,843,859,872,889,910,918,925,934,944,956,964,978,987,997,1014,1019,1024,1028,1031,1037,1039,1040,1041,1041,1044,1047,1053,1058,1063,1069,1072],"ymouse":[576,576,576,576,576,576,576,576,576,576,576,576,576,576,576,576,576,576,576,576,577,577,577,577,578,579,579,579,579,580,580,580,580,580,580,580,581,581,581,582,582,582,582,582,582,582,582,582,582,582,582,582,582,582,582,582,582,582,582,582,582,582,582,582,582,580,574,569,563,556,544,538,524,512,496,456,430,396,363,330,282,261,236,224,213,198,193,188,185,183,179,177,176,175,173,164,153,142,131,118,103,97],"timestamp_mouse":[14,39,55,74,95,114,135,154,174,194,215,235,256,274,295,314,335,354,375,394,414,434,454,474,495,515,535,554,576,595,614,634,655,675,694,714,735,754,774,795,814,834,855,874,894,914,935,954,976,995,1016,1036,1055,1075,1094,1114,1134,1154,1175,1195,1214,1236,1255,1275,1294,1314,1334,1355,1374,1394,1414,1436,1454,1475,1494,1514,1534,1554,1574,1594,1614,1634,1654,1674,1694,1714,1734,1755,1774,1794,1814,1834,1854,1874,1895,1916,1934,1954,1974,1994,2014,2035],"xSR":741.5,"ySR":573.95,"xT1":424.9,"yT1":0,"xT2":1058.1,"yT2":0,"toosoon":0,"cond_shown":"Congruent","ratio_trial":200,"L_num":6,"L_den":20,"R_num":11,"R_den":22,"correct_side":2,"subjID":"juansebastianurrea25","gender":"0","school":"4","age":"9"},{"start_time":1552308768411,"click_time":1552308769344,"finger_time":1552308768862,"fix_duration":1128.4853156775646,"trial":16,"RT":451,"MT":482,"sideResp":2,"stimulus":[],"xmouse":[825,825,825,825,825,825,825,825,825,825,825,825,825,825,825,825,825,825,825,826,829,838,851,908,929,951,982,1043,1076,1103,1132,1158,1181,1211,1216,1218,1218,1218,1218,1218,1218,1218,1218,1212,1200,1183,1142],"ymouse":[633,633,633,633,633,633,633,633,633,633,633,633,633,633,633,633,633,632,631,628,625,618,607,563,539,506,464,370,321,273,223,170,114,18,0,0,0,0,0,0,0,0,0,2,11,24,58],"timestamp_mouse":[18,32,52,72,92,113,131,151,172,192,211,231,252,272,291,311,331,351,371,392,411,432,451,472,491,511,531,554,571,591,611,631,652,672,691,711,732,752,771,793,813,832,852,871,891,911,933],"xSR":741.5,"ySR":573.95,"xT1":424.9,"yT1":0,"xT2":1058.1,"yT2":0,"toosoon":0,"cond_shown":"Incongruent","ratio_trial":200,"L_num":9,"L_den":15,"R_num":8,"R_den":10,"correct_side":2,"subjID":"juansebastianurrea25","gender":"0","school":"4","age":"9"},{"start_time":1552308772325,"click_time":1552308774362,"finger_time":1552308773742,"fix_duration":1441.7800900870993,"trial":17,"RT":1417,"MT":620,"sideResp":2,"stimulus":[],"xmouse":[786,786,786,786,786,786,786,786,786,786,786,786,786,786,786,786,786,786,786,786,786,787,787,787,787,787,787,787,787,787,787,787,787,787,787,787,787,787,787,787,787,787,787,787,787,787,787,787,787,787,787,787,787,787,787,787,787,787,787,787,787,788,789,790,791,793,797,807,814,822,829,840,864,877,895,908,920,941,952,961,970,975,986,989,994,997,1003,1014,1018,1021,1024,1027,1033,1042,1050,1058,1062,1064,1066,1066,1068,1070],"ymouse":[612,612,612,612,612,612,612,612,612,612,612,612,612,612,612,612,612,612,612,612,612,612,612,612,612,612,611,611,611,611,610,610,610,610,610,610,610,610,610,610,610,610,610,610,610,610,610,610,610,610,610,610,610,610,610,610,610,610,610,610,610,610,608,607,606,604,600,592,584,575,567,554,525,506,475,451,427,376,350,328,306,287,247,229,205,190,178,164,161,157,154,149,141,131,123,114,110,108,105,103,101,98],"timestamp_mouse":[18,40,57,78,97,119,139,158,177,198,217,238,258,277,297,317,337,358,377,398,417,438,457,477,497,518,537,557,577,597,618,637,657,677,698,717,737,757,778,797,817,837,859,877,898,918,937,957,978,997,1017,1038,1058,1077,1098,1118,1138,1158,1178,1197,1217,1238,1257,1278,1297,1319,1338,1357,1377,1397,1417,1439,1458,1478,1498,1518,1537,1557,1577,1597,1617,1638,1657,1677,1698,1717,1738,1757,1777,1798,1818,1838,1858,1878,1897,1918,1938,1957,1977,1998,2018,2037],"xSR":741.5,"ySR":573.95,"xT1":424.9,"yT1":0,"xT2":1058.1,"yT2":0,"toosoon":0,"cond_shown":"Incongruent","ratio_trial":100,"L_num":12,"L_den":24,"R_num":9,"R_den":15,"correct_side":2,"subjID":"juansebastianurrea25","gender":"0","school":"4","age":"9"},{"start_time":1552308776817,"click_time":1552308779263,"finger_time":1552308778322,"fix_duration":1133.194404039789,"trial":18,"RT":1505,"MT":941,"sideResp":2,"stimulus":[],"xmouse":[797,797,797,797,797,797,797,797,797,797,797,797,797,797,797,797,797,797,797,797,797,797,797,797,797,797,797,797,797,797,797,797,797,797,797,797,797,797,797,797,797,797,797,797,797,797,797,797,797,797,797,797,797,797,797,797,797,797,797,797,797,797,797,797,797,797,797,797,797,797,797,798,799,805,814,825,837,844,854,857,857,857,857,857,860,864,870,876,892,898,906,914,922,933,955,969,981,992,1006,1016,1021,1024,1029,1030,1034,1034,1034,1034,1033,1033,1034,1036,1037,1040,1045,1049,1052,1053,1055,1055,1056,1058,1059],"ymouse":[597,597,597,597,597,597,597,597,597,597,597,597,597,597,597,597,597,597,597,597,597,597,597,597,597,597,597,597,597,597,597,597,597,597,597,597,597,597,597,597,597,597,597,597,597,597,597,597,597,597,597,597,597,597,597,597,597,597,597,597,597,597,597,597,597,597,597,597,597,597,597,597,597,593,585,573,557,541,510,473,458,446,431,401,386,370,354,341,314,304,294,283,271,256,228,213,200,189,176,166,162,159,155,152,147,143,140,136,124,119,114,109,105,99,87,82,79,77,76,75,74,73,72],"timestamp_mouse":[9,25,46,67,85,105,125,146,165,185,206,225,245,267,286,306,326,345,365,387,405,426,445,465,485,507,525,546,566,586,605,626,645,665,685,705,727,746,765,787,807,825,846,865,886,905,925,946,967,986,1005,1026,1046,1066,1085,1106,1127,1145,1166,1186,1205,1225,1245,1265,1285,1305,1325,1347,1365,1386,1407,1426,1445,1466,1485,1505,1525,1547,1565,1586,1605,1625,1646,1666,1685,1705,1725,1745,1766,1786,1805,1826,1846,1865,1886,1906,1926,1945,1965,1985,2005,2026,2045,2065,2086,2106,2125,2145,2166,2185,2206,2225,2245,2265,2285,2305,2326,2346,2367,2385,2407,2425,2445],"xSR":741.5,"ySR":573.95,"xT1":424.9,"yT1":0,"xT2":1058.1,"yT2":0,"toosoon":0,"cond_shown":"Congruent","ratio_trial":100,"L_num":2,"L_den":5,"R_num":11,"R_den":22,"correct_side":2,"subjID":"juansebastianurrea25","gender":"0","school":"4","age":"9"},{"start_time":1552308781248,"click_time":1552308783502,"finger_time":1552308782902,"fix_duration":905.9619926202843,"trial":19,"RT":1654,"MT":600,"sideResp":2,"stimulus":[],"xmouse":[744,744,744,744,744,744,744,744,744,744,744,744,744,744,744,744,744,744,744,744,744,744,744,744,744,744,744,744,744,744,744,745,745,746,746,746,746,746,746,746,746,746,746,746,746,746,746,746,746,746,746,746,746,746,746,746,746,746,746,746,746,746,746,746,747,749,749,749,749,749,749,749,749,749,749,749,749,749,753,757,765,781,842,864,946,1009,1063,1107,1175,1215,1259,1279,1288,1279,1246,1227,1214,1203,1200,1195,1191,1187,1183,1183,1182,1182,1182,1181,1178,1173,1169,1162,1149],"ymouse":[643,642,642,642,642,640,640,638,637,637,637,637,635,635,635,633,632,631,631,631,631,631,631,631,631,629,629,629,629,629,629,628,628,627,627,627,627,627,627,627,627,627,627,627,627,627,627,627,627,627,627,627,627,627,627,627,627,627,627,627,627,627,627,627,627,626,626,626,626,626,626,626,626,626,626,626,626,626,626,626,624,614,567,551,493,450,413,372,285,251,222,204,171,151,116,90,66,28,12,0,0,0,0,0,0,0,0,0,0,7,12,22,35],"timestamp_mouse":[14,35,55,75,94,115,134,156,175,195,215,234,254,276,295,316,336,355,374,395,414,435,455,474,494,515,534,555,575,595,614,635,656,675,694,715,735,755,775,796,816,836,856,875,894,914,934,955,974,994,1014,1035,1054,1074,1094,1115,1134,1154,1175,1195,1215,1234,1255,1275,1294,1316,1334,1354,1374,1396,1416,1435,1454,1475,1494,1514,1535,1555,1574,1595,1615,1636,1654,1674,1695,1715,1734,1754,1774,1795,1815,1835,1854,1874,1894,1915,1934,1955,1974,1994,2014,2034,2054,2074,2094,2115,2134,2154,2174,2194,2215,2234,2254],"xSR":741.5,"ySR":573.95,"xT1":424.9,"yT1":0,"xT2":1058.1,"yT2":0,"toosoon":0,"cond_shown":"Incongruent","ratio_trial":200,"L_num":7,"L_den":15,"R_num":4,"R_den":6,"correct_side":2,"subjID":"juansebastianurrea25","gender":"0","school":"4","age":"9"},{"start_time":1552308787341,"click_time":1552308789322,"finger_time":1552308788662,"fix_duration":537.1970241398138,"trial":20,"RT":1321,"MT":660,"sideResp":1,"stimulus":[],"xmouse":[830,830,830,830,830,830,830,830,830,830,830,830,830,829,829,829,829,829,829,829,829,829,829,829,829,829,829,829,829,829,829,829,829,829,829,829,829,829,829,829,829,829,829,829,829,829,829,829,829,829,829,829,829,829,829,829,829,829,829,829,829,828,822,819,803,792,782,771,749,721,710,704,699,693,657,647,647,660,664,665,662,657,647,636,620,608,602,586,576,566,566,565,564,563,556,548,544,538,532,515],"ymouse":[627,627,627,627,627,627,627,627,627,627,627,627,627,627,627,627,627,627,627,627,627,627,627,627,627,627,627,627,627,627,627,627,627,627,627,627,627,627,627,627,627,627,627,627,627,627,627,626,620,620,620,620,620,620,620,620,620,620,620,620,620,617,614,612,592,576,534,484,427,378,354,324,288,229,37,0,0,0,0,0,0,0,0,0,4,6,7,8,10,12,12,13,13,15,16,19,21,24,25,29],"timestamp_mouse":[8,22,43,62,82,101,122,141,161,183,202,222,241,262,281,302,322,342,361,382,402,422,441,462,481,501,521,542,561,582,601,621,642,662,682,702,722,742,762,782,801,821,842,861,881,901,921,942,962,982,1001,1021,1043,1062,1081,1102,1121,1141,1161,1181,1201,1221,1241,1261,1281,1301,1321,1342,1361,1382,1401,1422,1442,1462,1481,1502,1521,1541,1561,1582,1603,1622,1641,1661,1681,1702,1722,1742,1761,1782,1801,1821,1841,1862,1881,1901,1921,1941,1961,1981],"xSR":741.5,"ySR":573.95,"xT1":424.9,"yT1":0,"xT2":1058.1,"yT2":0,"toosoon":0,"cond_shown":"Incongruent","ratio_trial":200,"L_num":7,"L_den":10,"R_num":12,"R_den":24,"correct_side":1,"subjID":"juansebastianurrea25","gender":"0","school":"4","age":"9"},{"start_time":1552308790693,"click_time":1552308792622,"finger_time":1552308791983,"fix_duration":250,"trial":21,"RT":1290,"MT":639,"sideResp":2,"stimulus":[],"xmouse":[764,765,765,768,769,770,771,771,771,771,771,771,771,771,771,771,771,771,771,771,771,771,771,771,771,771,772,772,772,772,772,772,772,772,772,772,772,772,772,772,772,772,772,772,772,772,772,772,772,772,772,772,772,772,772,772,772,772,772,772,773,795,816,840,863,890,927,935,942,945,952,973,983,993,999,1004,1010,1023,1034,1048,1062,1078,1083,1089,1094,1099,1104,1106,1108,1110,1111,1116,1118,1119,1119,1120,1120],"ymouse":[651,651,651,651,651,651,651,651,651,651,651,651,651,651,651,651,651,651,651,651,651,651,651,651,651,651,652,652,652,652,652,652,652,653,654,655,655,655,655,655,657,657,657,658,658,658,658,658,659,659,659,659,659,659,659,659,659,659,659,660,660,658,652,644,633,620,602,595,583,565,541,480,454,421,392,365,322,290,269,249,231,202,185,169,160,154,150,148,144,141,137,122,117,111,107,100,89],"timestamp_mouse":[9,44,50,69,90,110,130,149,169,189,210,229,250,269,290,309,330,349,369,389,409,430,449,471,490,509,529,549,570,590,609,629,649,669,689,709,730,750,771,789,810,829,850,869,890,909,931,950,970,989,1009,1029,1050,1070,1090,1110,1131,1149,1169,1191,1210,1230,1249,1269,1290,1311,1330,1350,1369,1389,1409,1429,1449,1470,1490,1509,1529,1550,1569,1591,1610,1629,1649,1669,1689,1709,1729,1750,1769,1790,1809,1831,1849,1869,1889,1910,1929],"xSR":741.5,"ySR":573.95,"xT1":424.9,"yT1":0,"xT2":1058.1,"yT2":0,"toosoon":0,"cond_shown":"Incongruent","ratio_trial":300,"L_num":13,"L_den":26,"R_num":12,"R_den":15,"correct_side":2,"subjID":"juansebastianurrea25","gender":"0","school":"4","age":"9"},{"start_time":1552308795198,"click_time":1552308797462,"finger_time":1552308796542,"fix_duration":1453.3352353645425,"trial":22,"RT":1344,"MT":920,"sideResp":2,"stimulus":[],"xmouse":[777,777,777,777,777,777,777,777,777,777,777,777,777,777,777,777,777,777,777,777,777,777,777,777,777,777,777,777,777,777,777,777,777,777,777,777,777,777,777,777,777,777,777,777,777,777,777,777,777,777,777,777,777,777,777,777,777,777,777,777,777,777,778,784,794,807,828,895,937,1008,1054,1098,1187,1238,1292,1321,1345,1354,1360,1364,1364,1362,1347,1341,1334,1328,1324,1309,1291,1271,1247,1236,1227,1226,1225,1222,1208,1201,1199,1198,1196,1192,1183,1180,1175,1173,1173,1173,1173,1173,1171,1166,1160,1155],"ymouse":[631,631,631,631,631,631,631,634,635,638,640,642,643,643,643,643,643,643,643,643,643,643,643,643,643,643,643,643,643,643,643,643,643,643,643,643,643,643,643,643,643,643,643,643,643,643,643,643,643,643,643,643,643,643,643,643,643,643,643,643,643,643,645,645,645,645,641,617,601,572,535,493,397,352,308,277,225,196,164,134,106,72,35,24,16,13,12,11,11,11,11,11,11,11,10,10,6,4,3,3,3,3,3,3,3,3,3,3,3,3,3,3,3,3],"timestamp_mouse":[11,25,46,64,84,105,125,144,165,185,205,224,245,264,285,305,324,345,364,384,405,424,446,465,485,504,525,545,564,585,605,625,645,664,685,706,724,744,765,785,806,825,844,865,885,905,926,945,965,985,1004,1025,1045,1064,1084,1105,1125,1145,1165,1184,1206,1224,1244,1264,1285,1305,1324,1344,1364,1384,1404,1425,1445,1465,1485,1504,1525,1544,1565,1584,1605,1625,1645,1664,1686,1704,1724,1745,1764,1784,1804,1824,1845,1865,1885,1905,1926,1945,1964,1984,2006,2026,2045,2064,2084,2104,2124,2144,2164,2184,2205,2224,2244,2264],"xSR":741.5,"ySR":573.95,"xT1":424.9,"yT1":0,"xT2":1058.1,"yT2":0,"toosoon":0,"cond_shown":"Incongruent","ratio_trial":200,"L_num":11,"L_den":20,"R_num":3,"R_den":4,"correct_side":2,"subjID":"juansebastianurrea25","gender":"0","school":"4","age":"9"},{"start_time":1552308799747,"click_time":1552308801543,"finger_time":1552308800962,"fix_duration":782.381129343122,"trial":23,"RT":1215,"MT":581,"sideResp":1,"stimulus":[],"xmouse":[814,814,814,814,814,814,812,810,808,807,807,807,807,807,807,807,806,806,806,805,805,805,805,805,805,805,805,805,805,805,805,805,805,805,805,805,805,805,805,805,805,805,804,804,802,802,802,801,801,799,798,798,798,798,798,797,797,795,792,782,771,759,746,732,697,681,671,661,656,655,657,665,672,682,693,693,688,677,667,648,632,626,618,611,592,581,570,557,540,521],"ymouse":[636,636,636,636,636,635,634,632,630,629,629,629,629,629,629,629,627,626,624,623,623,623,623,623,623,623,623,623,623,623,623,623,623,623,622,622,622,622,622,622,622,622,621,620,617,617,617,616,615,613,610,608,604,603,600,599,597,595,592,583,568,555,540,523,485,466,447,430,412,380,350,324,299,264,202,171,136,95,67,18,0,0,0,0,0,0,0,0,3,9],"timestamp_mouse":[16,35,57,75,95,115,135,155,176,196,215,235,256,276,296,316,336,355,375,397,416,436,456,475,496,515,535,556,575,596,615,635,656,676,696,715,736,756,776,795,815,835,856,876,895,915,935,956,976,999,1015,1035,1055,1075,1095,1115,1135,1156,1175,1195,1215,1235,1255,1275,1295,1315,1336,1356,1375,1396,1416,1435,1455,1475,1495,1515,1535,1555,1576,1595,1616,1636,1655,1676,1696,1715,1735,1755,1775,1795],"xSR":741.5,"ySR":573.95,"xT1":424.9,"yT1":0,"xT2":1058.1,"yT2":0,"toosoon":0,"cond_shown":"Congruent","ratio_trial":300,"L_num":20,"L_den":25,"R_num":14,"R_den":28,"correct_side":1,"subjID":"juansebastianurrea25","gender":"0","school":"4","age":"9"},{"start_time":1552308806491,"click_time":1552308808462,"finger_time":1552308807102,"fix_duration":847.0622610599743,"trial":24,"RT":611,"MT":1360,"sideResp":2,"stimulus":[],"xmouse":[793,793,793,793,793,793,793,793,793,793,793,793,793,793,793,793,793,793,793,793,793,793,793,793,793,793,793,793,790,787,782,779,775,766,761,754,744,732,706,691,678,666,660,656,653,653,652,652,652,652,652,653,662,698,716,728,740,748,761,761,763,766,769,777,783,790,798,807,831,860,882,925,990,1134,1186,1215,1230,1237,1238,1236,1225,1218,1209,1196,1188,1180,1172,1166,1159,1159,1159,1159,1159,1155,1146,1135,1126,1118,1101],"ymouse":[644,644,644,644,644,644,644,644,644,644,644,644,644,644,644,644,644,644,644,644,644,644,644,644,644,644,644,636,617,599,568,549,531,499,486,473,461,449,425,411,397,380,370,355,348,345,344,344,344,347,367,391,431,553,613,664,700,723,743,743,744,744,744,744,744,744,742,738,718,693,677,653,623,578,564,552,539,524,483,459,412,383,357,318,300,282,265,249,216,201,186,178,173,162,154,142,127,112,84],"timestamp_mouse":[12,39,52,71,92,112,131,151,172,191,212,231,252,272,292,313,331,352,372,391,411,431,451,471,492,511,531,551,571,592,611,632,652,672,691,711,731,751,771,792,813,833,851,871,891,912,932,951,972,991,1011,1033,1051,1072,1091,1111,1131,1152,1172,1191,1211,1232,1251,1272,1291,1311,1331,1352,1371,1391,1411,1431,1452,1471,1492,1512,1531,1552,1571,1592,1612,1632,1652,1671,1691,1711,1731,1752,1771,1791,1811,1831,1851,1871,1891,1911,1932,1952,1971],"xSR":741.5,"ySR":573.95,"xT1":424.9,"yT1":0,"xT2":1058.1,"yT2":0,"toosoon":0,"cond_shown":"Incongruent","ratio_trial":200,"L_num":6,"L_den":20,"R_num":3,"R_den":6,"correct_side":2,"subjID":"juansebastianurrea25","gender":"0","school":"4","age":"9"},{"start_time":1552308812574,"click_time":1552308815782,"finger_time":1552308814723,"fix_duration":1489.5969600203252,"trial":25,"RT":2149,"MT":1059,"sideResp":1,"stimulus":[],"xmouse":[791,791,791,791,791,791,791,791,791,791,791,791,791,791,791,791,791,791,791,791,791,791,791,791,791,791,791,791,791,791,791,791,791,791,791,791,791,791,791,791,791,791,791,791,791,791,791,791,791,791,791,791,791,791,791,791,791,791,791,791,791,791,791,791,791,791,791,791,791,791,791,791,791,791,791,791,791,791,791,791,791,791,791,791,791,791,791,791,791,791,791,791,791,791,791,791,791,791,791,791,791,791,791,791,791,790,780,768,757,748,738,737,736,735,732,721,715,707,701,692,690,686,685,684,683,680,680,679,679,679,675,672,667,660,652,640,634,629,626,623,620,619,617,616,614,610,607,605,602,598,588,581,569,548,536,523,518,514,511,507,504],"ymouse":[625,625,625,625,625,625,625,625,625,625,625,625,625,625,625,625,625,625,625,625,625,625,625,625,625,625,625,625,625,625,625,625,625,625,625,625,625,625,625,625,625,625,625,625,625,625,625,625,625,625,625,625,625,625,625,625,625,625,625,625,625,625,625,625,625,625,625,625,625,625,625,625,625,625,625,625,625,625,625,625,625,625,625,625,625,625,625,625,625,625,625,625,625,625,625,625,625,625,625,625,625,625,625,625,621,597,575,548,523,503,478,473,470,468,453,419,397,378,362,345,340,335,334,332,330,328,326,325,325,325,321,317,310,303,294,280,272,265,261,257,250,248,244,242,237,228,225,220,215,208,193,183,172,157,145,132,124,118,113,108,95],"timestamp_mouse":[9,40,48,68,89,108,129,149,169,189,209,228,249,270,290,310,329,349,369,388,408,429,448,468,489,508,530,549,570,589,608,628,649,668,689,710,730,748,769,788,809,829,850,869,889,908,929,949,969,989,1008,1029,1049,1070,1089,1108,1130,1149,1168,1189,1208,1230,1249,1268,1289,1309,1328,1348,1368,1389,1410,1429,1449,1469,1488,1509,1529,1548,1569,1590,1609,1630,1650,1669,1689,1708,1728,1748,1769,1789,1808,1829,1848,1868,1888,1908,1929,1948,1968,1989,2008,2028,2048,2069,2088,2109,2128,2149,2168,2188,2209,2229,2248,2270,2289,2308,2328,2350,2368,2390,2408,2428,2449,2468,2488,2509,2528,2548,2570,2589,2608,2628,2648,2668,2688,2709,2728,2749,2769,2788,2808,2828,2848,2869,2888,2909,2928,2949,2969,2988,3008,3028,3048,3068,3088,3108,3128,3149,3169,3189,3208],"xSR":741.5,"ySR":573.95,"xT1":424.9,"yT1":0,"xT2":1058.1,"yT2":0,"toosoon":0,"cond_shown":"Incongruent","ratio_trial":100,"L_num":8,"L_den":20,"R_num":1,"R_den":2,"correct_side":2,"subjID":"juansebastianurrea25","gender":"0","school":"4","age":"9"},{"start_time":1552308827456,"click_time":1552308829464,"finger_time":1552308828803,"fix_duration":250,"trial":26,"RT":1347,"MT":661,"sideResp":2,"stimulus":[],"xmouse":[814,814,814,814,814,814,814,814,814,814,814,814,814,814,814,814,814,814,814,814,814,814,814,814,814,814,814,814,814,814,814,814,814,814,814,814,814,814,814,814,814,814,813,810,807,806,805,805,805,804,804,803,802,801,801,801,801,801,801,801,801,801,801,801,802,805,807,830,848,871,899,926,961,996,1012,1027,1043,1056,1103,1124,1145,1162,1187,1195,1209,1218,1222,1222,1222,1221,1219,1212,1208,1192,1185,1178,1173,1167,1163,1161,1156],"ymouse":[608,608,608,608,608,608,608,608,608,608,608,608,608,608,608,608,608,609,609,609,609,609,609,609,609,609,609,609,609,609,609,609,609,609,609,609,609,609,609,609,609,609,609,609,609,609,609,609,609,609,609,610,611,612,613,613,613,613,613,613,612,611,602,602,600,596,592,567,550,526,496,460,410,363,346,328,306,284,211,176,142,108,40,19,0,0,0,0,0,0,2,9,12,26,29,33,37,42,43,44,44],"timestamp_mouse":[8,36,47,68,87,107,127,147,167,188,207,227,248,267,287,307,328,347,368,387,408,427,447,467,488,507,528,547,567,587,608,627,648,668,688,708,728,748,767,787,808,828,847,867,887,907,928,948,967,988,1007,1027,1047,1067,1088,1107,1128,1148,1168,1188,1206,1228,1247,1267,1288,1307,1327,1347,1367,1388,1407,1427,1447,1467,1487,1507,1527,1548,1567,1587,1607,1627,1647,1667,1686,1707,1727,1747,1768,1787,1807,1826,1847,1867,1887,1907,1928,1949,1967,1987,2008],"xSR":741.5,"ySR":573.95,"xT1":424.9,"yT1":0,"xT2":1058.1,"yT2":0,"toosoon":0,"cond_shown":"Congruent","ratio_trial":300,"L_num":1,"L_den":5,"R_num":6,"R_den":12,"correct_side":2,"subjID":"juansebastianurrea25","gender":"0","school":"4","age":"9"},{"start_time":1552308834884,"click_time":1552308837024,"finger_time":1552308835663,"fix_duration":1397.1008468290465,"trial":27,"RT":779,"MT":1361,"sideResp":2,"stimulus":[],"xmouse":[770,770,771,771,771,771,771,771,771,771,771,771,771,771,771,771,771,771,771,771,772,773,775,776,777,778,779,781,782,782,783,783,783,783,784,784,785,786,786,786,786,785,779,771,765,760,752,743,737,733,728,724,714,707,696,685,671,642,618,600,584,570,553,549,547,546,546,546,550,566,587,628,774,864,957,1047,1115,1185,1196,1209,1219,1232,1258,1274,1284,1291,1293,1295,1295,1295,1290,1280,1248,1238,1232,1228,1224,1217,1217,1214,1209,1194,1172,1163,1159,1157,1157,1147],"ymouse":[602,602,602,601,601,601,601,601,601,601,601,601,601,601,601,601,601,601,601,600,599,596,592,590,589,587,587,585,584,583,583,583,582,580,580,579,578,577,574,568,555,538,488,462,434,411,393,372,361,356,351,346,339,336,330,324,317,298,280,267,251,233,201,187,178,171,170,170,175,193,215,255,371,437,501,554,583,575,560,538,513,493,461,450,444,439,436,415,399,379,355,320,233,195,149,119,90,11,0,0,0,0,0,0,0,0,0,7],"timestamp_mouse":[1,19,39,58,79,100,119,140,160,179,199,218,240,260,279,299,319,339,360,379,400,419,439,460,480,499,519,539,560,579,598,619,639,659,679,699,719,739,759,779,799,820,840,859,879,899,920,939,959,979,1000,1019,1039,1059,1079,1099,1120,1140,1160,1179,1200,1220,1239,1259,1279,1299,1320,1339,1360,1379,1400,1420,1439,1460,1479,1499,1518,1539,1559,1579,1599,1620,1640,1658,1680,1700,1720,1739,1760,1779,1800,1820,1839,1859,1880,1898,1919,1940,1959,1979,1999,2018,2040,2059,2079,2100,2118,2140],"xSR":741.5,"ySR":573.95,"xT1":424.9,"yT1":0,"xT2":1058.1,"yT2":0,"toosoon":0,"cond_shown":"Incongruent","ratio_trial":300,"L_num":13,"L_den":26,"R_num":12,"R_den":15,"correct_side":2,"subjID":"juansebastianurrea25","gender":"0","school":"4","age":"9"},{"start_time":1552308839845,"click_time":1552308842503,"finger_time":1552308841244,"fix_duration":599.7729840247699,"trial":28,"RT":1399,"MT":1259,"sideResp":1,"stimulus":[],"xmouse":[810,810,810,810,810,810,810,810,810,810,810,810,810,808,804,801,800,799,799,799,799,798,796,795,791,789,787,787,787,787,787,787,787,787,787,787,787,787,787,787,787,787,787,787,787,787,787,787,787,787,787,787,787,787,787,787,787,787,787,787,787,787,788,788,789,790,790,793,794,799,802,804,805,808,812,815,816,816,817,817,817,816,808,798,762,736,676,640,604,541,499,455,417,387,346,338,338,339,343,347,347,347,347,347,347,347,349,350,354,372,380,385,387,388,388,388,388,390,390,391,392,392,392,396,404,410,412,414,415,417,420,424,429],"ymouse":[616,616,615,614,614,614,614,614,614,614,614,614,613,613,614,614,614,614,614,614,614,614,614,614,613,612,611,611,611,611,611,611,611,611,611,611,611,611,611,611,611,611,611,611,611,611,611,611,611,611,611,611,611,611,611,611,611,611,611,611,608,608,606,605,602,599,596,587,583,571,563,558,550,541,525,520,514,511,510,510,510,510,508,504,488,472,434,399,363,256,198,133,64,0,0,0,0,0,0,0,0,0,0,0,0,0,1,3,6,14,19,23,24,25,25,25,25,25,25,25,25,25,25,26,30,33,35,35,35,35,36,37,39],"timestamp_mouse":[18,39,58,78,98,118,139,158,178,198,218,239,258,279,298,319,338,357,379,399,418,438,458,478,498,518,539,558,578,599,619,638,658,679,697,718,739,759,778,798,818,839,859,877,898,919,939,959,979,998,1019,1038,1058,1078,1099,1119,1138,1159,1179,1199,1218,1239,1258,1278,1298,1319,1339,1358,1378,1399,1418,1438,1458,1478,1498,1518,1538,1558,1579,1599,1619,1637,1657,1678,1698,1718,1739,1758,1778,1798,1818,1838,1858,1879,1898,1918,1937,1958,1978,1999,2019,2038,2059,2078,2099,2118,2139,2158,2179,2198,2218,2238,2259,2279,2298,2319,2339,2359,2378,2399,2418,2438,2459,2480,2498,2518,2538,2559,2578,2597,2617,2638,2658],"xSR":741.5,"ySR":573.95,"xT1":424.9,"yT1":0,"xT2":1058.1,"yT2":0,"toosoon":0,"cond_shown":"Incongruent","ratio_trial":300,"L_num":1,"L_den":2,"R_num":3,"R_den":15,"correct_side":1,"subjID":"juansebastianurrea25","gender":"0","school":"4","age":"9"},{"start_time":1552308847475,"click_time":1552308849244,"finger_time":1552308848903,"fix_duration":250,"trial":29,"RT":1428,"MT":341,"sideResp":2,"stimulus":[],"xmouse":[782,782,782,781,781,781,781,781,781,781,781,781,781,781,781,780,780,778,778,778,778,778,778,778,778,778,778,778,778,778,778,778,778,778,778,778,778,778,778,778,778,778,778,778,778,778,778,778,778,778,778,778,778,778,778,778,778,778,778,778,778,778,778,788,794,801,807,811,814,819,826,842,874,919,934,946,957,965,980,987,994,998,1003,1007,1012,1018,1028,1042,1067],"ymouse":[647,647,647,647,647,647,647,647,647,647,647,647,647,647,647,647,647,647,647,647,647,647,647,647,647,647,647,647,647,647,647,647,647,647,647,647,647,647,647,647,647,647,647,647,647,647,647,647,647,647,647,647,647,647,647,647,647,647,647,647,647,647,647,647,643,639,632,623,615,589,574,555,529,488,462,433,397,357,291,266,243,221,186,137,119,102,89,83,77],"timestamp_mouse":[9,43,48,69,88,109,129,148,169,189,209,229,248,269,288,308,328,348,369,388,408,429,449,468,488,509,529,547,569,589,609,628,649,669,688,708,729,749,768,789,809,829,848,868,888,909,929,948,969,989,1009,1028,1048,1068,1089,1109,1129,1149,1168,1189,1208,1229,1249,1269,1289,1309,1328,1348,1368,1388,1408,1428,1448,1469,1488,1507,1529,1548,1569,1588,1608,1629,1649,1670,1688,1707,1728,1748,1769],"xSR":741.5,"ySR":573.95,"xT1":424.9,"yT1":0,"xT2":1058.1,"yT2":0,"toosoon":0,"cond_shown":"Congruent","ratio_trial":200,"L_num":7,"L_den":15,"R_num":18,"R_den":27,"correct_side":2,"subjID":"juansebastianurrea25","gender":"0","school":"4","age":"9"},{"start_time":1552308851982,"click_time":1552308855083,"finger_time":1552308854623,"fix_duration":1476.5423841456532,"trial":30,"RT":2641,"MT":460,"sideResp":1,"stimulus":[],"xmouse":[810,810,810,810,810,810,810,810,810,810,810,810,810,810,810,810,810,810,810,810,810,810,810,810,810,810,810,810,810,810,810,810,810,810,810,810,810,810,810,810,810,810,810,810,810,810,810,810,810,810,810,810,810,810,810,810,810,810,810,810,810,810,810,810,810,810,810,810,810,810,810,810,810,810,810,810,810,810,810,810,810,810,810,810,810,810,810,810,810,810,810,810,810,810,810,810,810,810,810,810,810,810,810,810,810,810,810,810,810,810,810,810,808,807,806,804,803,802,802,802,802,802,802,802,802,801,799,795,787,772,760,746,732,717,674,660,651,643,635,616,609,602,599,599,600,592,578,558,534,475,453,441,437,437,437,431],"ymouse":[619,619,619,619,619,619,619,619,619,619,619,619,619,619,619,619,619,619,619,619,619,619,619,619,619,619,619,619,619,619,619,619,619,619,619,619,619,619,619,619,619,619,619,619,619,619,619,619,619,619,619,619,619,619,619,619,619,619,619,619,619,619,619,619,619,619,619,619,619,619,619,619,619,619,619,619,619,619,619,619,619,619,619,619,619,619,619,619,619,619,619,619,619,619,619,619,619,619,619,619,619,619,619,619,619,619,619,619,619,619,618,618,618,618,617,617,617,617,617,617,617,617,617,617,617,617,617,615,614,607,598,589,579,566,516,488,464,437,407,327,295,253,226,201,166,112,77,39,5,0,0,0,0,0,0,5],"timestamp_mouse":[8,30,42,61,82,100,122,142,162,181,201,221,241,262,281,302,322,341,361,381,402,421,440,461,482,502,522,542,562,582,602,621,642,661,681,702,722,741,762,782,802,821,840,862,882,901,922,942,961,982,1001,1022,1040,1062,1081,1101,1121,1141,1160,1182,1202,1221,1241,1261,1281,1302,1321,1341,1361,1381,1401,1422,1442,1461,1481,1501,1521,1541,1562,1582,1601,1622,1642,1662,1681,1700,1722,1742,1761,1781,1801,1822,1842,1862,1881,1901,1922,1942,1961,1982,2001,2021,2042,2062,2081,2101,2121,2141,2161,2181,2202,2222,2241,2261,2280,2302,2321,2342,2361,2382,2402,2420,2442,2462,2482,2501,2521,2542,2561,2582,2602,2621,2641,2662,2681,2702,2721,2741,2761,2781,2801,2822,2841,2861,2881,2901,2921,2941,2961,2981,3001,3021,3042,3061,3081,3101],"xSR":741.5,"ySR":573.95,"xT1":424.9,"yT1":0,"xT2":1058.1,"yT2":0,"toosoon":0,"cond_shown":"Incongruent","ratio_trial":200,"L_num":6,"L_den":20,"R_num":3,"R_den":6,"correct_side":2,"subjID":"juansebastianurrea25","gender":"0","school":"4","age":"9"},{"start_time":1552308860219,"click_time":1552308862323,"finger_time":1552308861883,"fix_duration":1334.8832162101269,"trial":31,"RT":1664,"MT":440,"sideResp":2,"stimulus":[],"xmouse":[810,810,810,810,810,810,810,810,810,810,810,810,810,810,810,810,810,810,810,810,810,810,810,810,810,810,810,810,810,810,810,810,810,810,810,810,810,810,810,810,810,810,810,810,810,810,810,810,810,810,810,810,810,810,810,810,810,810,810,810,810,810,810,810,810,810,810,810,810,810,810,810,810,810,810,810,810,810,810,810,811,816,826,864,886,903,919,935,946,979,981,986,990,1019,1029,1040,1048,1056,1065,1074,1082,1090,1095,1099,1100,1100],"ymouse":[631,631,631,631,631,631,631,631,631,631,631,631,631,631,631,631,631,631,631,631,631,631,631,631,631,631,631,631,631,631,631,631,631,631,631,631,631,631,631,631,631,631,631,631,631,631,631,631,631,631,631,631,631,631,631,631,631,631,631,631,631,631,631,631,631,631,631,631,631,631,631,631,631,631,631,631,631,631,631,629,627,622,614,593,583,574,564,552,539,494,468,445,412,306,277,253,235,220,191,172,162,147,133,111,102,95],"timestamp_mouse":[8,24,43,64,84,105,124,145,165,184,205,224,245,265,284,304,325,344,365,385,404,425,444,464,485,504,523,545,565,584,604,624,644,664,684,704,725,745,764,785,804,825,845,864,884,904,924,945,965,984,1005,1024,1044,1064,1084,1105,1124,1143,1165,1185,1205,1224,1245,1264,1284,1305,1324,1345,1363,1385,1405,1425,1444,1465,1485,1505,1525,1544,1563,1584,1604,1625,1644,1664,1684,1704,1724,1744,1764,1784,1804,1824,1844,1864,1884,1904,1924,1944,1964,1985,2004,2024,2044,2065,2085,2104],"xSR":741.5,"ySR":573.95,"xT1":424.9,"yT1":0,"xT2":1058.1,"yT2":0,"toosoon":0,"cond_shown":"Congruent","ratio_trial":100,"L_num":11,"L_den":22,"R_num":4,"R_den":10,"correct_side":1,"subjID":"juansebastianurrea25","gender":"0","school":"4","age":"9"},{"start_time":1552308866135,"click_time":1552308867485,"finger_time":1552308867004,"fix_duration":250,"trial":32,"RT":869,"MT":481,"sideResp":2,"stimulus":[],"xmouse":[788,788,788,788,788,788,788,788,788,788,788,788,788,788,788,788,788,788,788,788,788,788,788,788,788,788,788,788,788,788,788,788,788,788,789,789,790,790,790,791,792,795,798,802,807,813,821,829,852,868,884,911,931,965,986,1006,1022,1041,1069,1084,1091,1098,1106,1111,1112,1112,1110,1102],"ymouse":[631,631,631,631,631,631,631,631,631,631,631,631,631,631,631,631,631,631,631,631,631,631,631,631,631,631,631,631,631,631,631,631,631,631,631,631,630,629,625,618,608,590,579,566,555,545,531,518,491,477,463,439,421,383,353,325,302,279,231,206,188,171,156,136,130,122,110,75],"timestamp_mouse":[11,31,50,68,89,109,128,148,168,188,209,229,249,268,289,308,329,347,369,388,409,428,448,468,489,509,529,549,568,589,608,629,649,668,689,709,728,749,768,789,808,828,848,869,888,909,928,948,968,988,1008,1028,1049,1069,1087,1109,1128,1148,1168,1189,1208,1229,1248,1269,1288,1309,1328,1349],"xSR":741.5,"ySR":573.95,"xT1":424.9,"yT1":0,"xT2":1058.1,"yT2":0,"toosoon":0,"cond_shown":"Incongruent","ratio_trial":300,"L_num":13,"L_den":26,"R_num":12,"R_den":15,"correct_side":2,"subjID":"juansebastianurrea25","gender":"0","school":"4","age":"9"},{"start_time":1552308869306,"click_time":1552308870843,"finger_time":1552308870324,"fix_duration":361.919915862869,"trial":33,"RT":1018,"MT":519,"sideResp":2,"stimulus":[],"xmouse":[803,803,803,803,803,803,803,803,803,803,803,803,803,803,803,803,803,803,803,803,803,803,803,803,803,803,803,803,803,803,803,803,803,803,803,803,803,803,803,803,803,803,803,803,803,803,803,803,806,819,858,888,909,924,946,955,961,969,976,985,993,999,1003,1005,1005,1005,1006,1009,1012,1019,1030,1036,1041,1047,1056,1058,1060],"ymouse":[605,605,605,605,605,605,605,605,605,605,605,605,605,605,605,605,605,605,605,605,605,605,605,605,605,605,605,605,605,605,605,605,605,605,605,605,605,605,605,605,605,605,605,605,605,605,605,606,608,611,618,619,617,609,578,560,544,521,498,452,419,397,378,366,337,325,310,298,286,264,244,229,213,193,146,123,99],"timestamp_mouse":[20,45,57,78,96,118,138,158,178,197,217,238,258,278,298,317,338,357,378,397,417,437,457,478,498,518,538,558,578,598,618,638,657,677,697,716,738,758,777,797,817,837,857,878,898,917,938,957,977,996,1018,1037,1058,1077,1098,1117,1137,1157,1177,1197,1218,1237,1257,1277,1298,1318,1337,1357,1378,1397,1418,1437,1458,1477,1498,1517,1537],"xSR":741.5,"ySR":573.95,"xT1":424.9,"yT1":0,"xT2":1058.1,"yT2":0,"toosoon":0,"cond_shown":"Congruent","ratio_trial":100,"L_num":9,"L_den":15,"R_num":8,"R_den":16,"correct_side":1,"subjID":"juansebastianurrea25","gender":"0","school":"4","age":"9"},{"start_time":1552308872457,"click_time":1552308874723,"finger_time":1552308874343,"fix_duration":451.24489310933893,"trial":34,"RT":1886,"MT":380,"sideResp":2,"stimulus":[],"xmouse":[766,766,766,766,766,766,766,766,766,766,766,766,766,766,766,766,766,766,766,766,766,766,766,766,766,766,766,766,766,766,766,766,766,766,766,766,766,766,766,766,766,766,766,766,766,766,766,766,766,766,766,766,766,766,766,766,766,766,766,766,766,766,766,766,766,766,766,766,766,766,766,766,766,766,766,766,766,766,766,766,766,766,766,766,766,766,767,775,786,793,796,797,799,823,849,880,916,943,1001,1042,1081,1127,1173,1238,1252,1256,1254,1220,1199,1175,1162,1162,1160,1151],"ymouse":[639,639,639,639,639,639,639,639,639,639,639,639,639,639,639,639,639,639,639,639,639,639,639,639,639,639,639,639,639,639,639,639,639,639,639,639,639,639,639,639,639,639,639,639,639,639,639,639,639,639,639,639,639,639,639,639,639,639,639,639,639,639,639,639,639,639,639,639,639,639,639,639,639,639,639,639,639,639,639,639,639,639,639,639,639,639,638,638,638,638,637,636,634,616,596,570,539,513,450,401,358,319,265,169,115,62,9,0,0,0,0,0,0,6],"timestamp_mouse":[8,37,46,66,86,106,126,146,166,187,207,226,246,267,287,306,326,346,366,387,406,427,446,466,487,505,527,546,567,587,606,626,646,667,687,707,727,746,766,786,806,827,847,867,887,906,927,947,966,987,1007,1026,1046,1066,1087,1106,1127,1147,1167,1187,1206,1226,1247,1267,1287,1306,1327,1346,1367,1386,1407,1426,1446,1466,1486,1506,1526,1546,1567,1586,1606,1626,1647,1666,1687,1706,1727,1747,1766,1786,1806,1826,1846,1867,1886,1906,1926,1946,1966,1987,2006,2027,2046,2066,2086,2106,2127,2148,2166,2187,2206,2226,2247,2266],"xSR":741.5,"ySR":573.95,"xT1":424.9,"yT1":0,"xT2":1058.1,"yT2":0,"toosoon":0,"cond_shown":"Incongruent","ratio_trial":200,"L_num":1,"L_den":3,"R_num":2,"R_den":15,"correct_side":1,"subjID":"juansebastianurrea25","gender":"0","school":"4","age":"9"},{"start_time":1552308888104,"click_time":1552308890263,"finger_time":1552308889684,"fix_duration":959.6397600599133,"trial":35,"RT":1580,"MT":579,"sideResp":1,"stimulus":[],"xmouse":[824,824,824,824,824,824,824,824,824,822,819,814,804,804,804,804,804,804,804,804,804,804,804,804,804,804,804,804,804,804,804,804,804,804,804,804,804,804,804,804,804,804,804,804,804,804,804,804,804,804,804,804,804,804,804,804,804,804,804,804,804,804,804,804,804,804,804,804,804,804,804,804,802,800,797,793,788,768,751,731,707,685,628,615,607,597,584,557,537,518,505,500,493,492,492,492,493,494,494,494,495,495,495,495,495,495,495,495,495],"ymouse":[671,671,671,671,671,671,671,671,671,671,671,672,673,673,673,673,673,673,673,673,673,673,673,673,673,673,673,673,673,673,673,673,673,673,673,673,673,673,673,673,673,673,673,673,673,673,673,673,673,673,673,673,673,673,673,673,673,673,673,673,673,673,673,673,673,673,673,673,673,673,673,673,671,665,657,647,635,606,585,564,538,513,424,392,365,342,315,269,249,227,208,190,148,137,127,121,117,113,112,112,111,111,111,111,111,110,105,101,91],"timestamp_mouse":[1,19,39,60,79,99,119,139,160,180,200,219,239,260,279,301,320,340,360,379,401,420,440,460,479,500,521,540,559,580,600,620,640,660,680,699,720,739,759,780,799,820,839,859,879,900,920,940,960,980,999,1021,1040,1060,1080,1100,1119,1139,1160,1179,1199,1219,1240,1259,1279,1300,1319,1340,1360,1379,1399,1420,1440,1460,1479,1500,1520,1539,1559,1580,1599,1619,1639,1659,1679,1699,1719,1740,1759,1780,1799,1820,1840,1859,1879,1899,1919,1939,1959,1980,2000,2020,2040,2060,2080,2099,2120,2139,2159],"xSR":741.5,"ySR":573.95,"xT1":424.9,"yT1":0,"xT2":1058.1,"yT2":0,"toosoon":0,"cond_shown":"Incongruent","ratio_trial":100,"L_num":6,"L_den":10,"R_num":13,"R_den":26,"correct_side":1,"subjID":"juansebastianurrea25","gender":"0","school":"4","age":"9"},{"start_time":1552308896236,"click_time":1552308912744,"finger_time":1552308896623,"fix_duration":250,"trial":36,"RT":387,"MT":16121,"sideResp":1,"stimulus":[],"xmouse":[785,785,785,785,785,785,785,785,785,785,785,785,785,785,785,784,783,782,782,781,779,772,761,750,736,724,704,701,701,701,701,692,689,686,684,682,671,666,662,661,661,661,660,665,671,682,726,754,777,794,804,808,808,809,809,809,809,809,808,806,803,792,790,787,787,786,785,785,785,785,785,785,785,785,785,785,785,785,785,785,785,785,785,785,785,785,785,785,785,785,785,785,785,785,788,791,794,795,795,796,799,815,821,822,822,822,822,822,822,822,822,822,822,822,822,822,822,822,822,822,822,822,822,822,822,822,822,822,822,822,822,822,822,822,822,822,822,822,822,822,822,822,822,822,822,822,822,822,822,822,822,822,822,822,822,822,822,822,822,822,822,822,822,822,822,822,822,822,822,822,822,822,822,822,822,822,822,822,822,822,822,822,822,822,822,822,822,822,822,822,822,822,822,822,822,822,822,822,822,822,822,822,822,822,822,822,822,822,822,822,822,822,822,822,822,822,822,822,822,822,822,822,822,822,822,822,822,822,822,822,822,822,822,822,822,822,822,822,822,822,822,822,822,822,822,822,822,822,822,822,822,822,822,822,822,822,822,822,822,822,822,822,822,822,822,822,822,822,822,822,822,822,822,822,822,822,822,822,822,822,822,822,822,822,822,822,822,822,822,822,822,822,822,822,822,822,822,822,822,822,822,822,822,822,822,822,822,822,822,822,822,822,822,822,824,826,826,826,826,826,826,826,826,826,826,826,826,826,805,794,743,722,702,702,702,702,702,719,734,756,765,769,770,770,770,770,770,770,768,760,757,756,756,756,757,760,762,762,764,768,771,772,772,772,774,774,774,774,774,775,775,775,775,775,776,777,778,782,785,786,786,786,785,785,785,785,785,785,785,785,785,783,778,780,781,781,781,781,781,781,781,781,781,781,781,781,781,781,781,781,781,781,781,781,781,781,781,781,781,781,781,781,781,781,781,781,781,781,781,781,781,781,781,781,781,781,781,781,781,781,781,781,781,781,781,781,781,781,781,781,781,781,781,781,781,781,781,781,781,781,781,781,781,781,781,781,781,781,781,781,781,781,781,781,781,781,781,781,781,781,781,781,781,781,781,781,781,781,781,781,781,781,781,781,781,781,781,781,781,781,781,781,781,781,781,781,781,781,781,781,781,781,781,781,781,781,781,781,781,781,781,781,781,781,781,781,781,781,781,781,781,781,781,781,781,781,781,781,781,781,781,781,781,781,781,781,781,781,781,781,781,781,781,781,781,781,781,781,781,781,781,781,781,781,781,781,781,781,781,781,781,781,781,781,781,781,781,781,781,781,781,781,781,781,781,781,781,781,781,781,781,781,781,781,781,781,781,781,781,781,781,781,781,781,781,781,781,781,781,781,781,781,781,781,781,781,781,781,781,781,781,781,781,781,781,781,781,781,781,781,781,781,781,781,781,781,781,781,781,781,781,781,781,781,781,781,781,781,781,781,781,781,781,781,781,781,781,781,781,781,781,781,781,781,781,781,781,781,781,781,781,781,781,781,781,781,781,781,781,781,781,781,781,781,781,781,781,781,781,781,781,781,781,781,781,781,781,781,781,781,781,781,781,781,781,781,781,781,781,781,781,781,781,781,781,781,781,781,781,781,781,781,781,781,781,781,781,781,781,781,781,781,781,781,781,781,781,781,781,781,781,781,781,781,781,781,781,781,781,781,781,781,781,781,781,781,781,781,781,781,781,781,781,781,781,781,781,781,781,781,781,781,781,781,781,781,781,781,781,781,781,781,781,781,781,781,784,853,951,959,960,960,956,922,855,685,571,467,318,279,246,223,213,205,205,205,208,210,213,219,229,247,266,294,305,320,336,355,380,383,383,383,383,389,405,437],"ymouse":[579,579,579,579,579,579,579,579,579,579,579,579,579,579,579,579,577,576,575,572,568,550,528,510,490,469,436,431,431,431,430,430,430,430,430,430,430,430,430,429,429,429,432,440,450,464,503,518,533,541,546,547,547,548,548,552,561,565,569,571,574,584,588,593,595,600,604,604,604,604,604,604,604,604,604,604,604,604,604,604,604,604,604,604,604,604,604,604,604,604,604,604,604,604,605,604,600,600,598,598,598,612,619,619,619,619,619,619,619,619,619,619,619,619,619,619,619,619,619,619,619,619,619,619,619,619,619,619,619,619,619,619,619,619,619,619,619,619,619,619,619,619,619,619,619,619,619,619,619,619,619,619,619,619,619,619,619,619,619,619,619,619,619,619,619,619,619,619,619,619,619,619,619,619,619,619,619,619,619,619,619,619,619,619,619,619,619,619,619,619,619,619,619,619,619,619,619,619,619,619,619,619,619,619,619,619,619,619,619,619,619,619,619,619,619,619,619,619,619,619,619,619,619,619,619,619,619,619,619,619,619,619,619,619,619,619,619,619,619,619,619,619,619,619,619,619,619,619,619,619,619,619,619,619,619,619,619,619,619,619,619,619,619,619,619,619,619,619,619,619,619,619,619,619,619,619,619,619,619,619,619,619,619,619,619,619,619,619,619,619,619,619,619,619,619,619,619,619,619,619,619,619,619,619,619,619,619,619,619,619,619,619,619,610,596,584,580,580,580,580,580,580,580,580,580,580,580,580,579,579,584,550,500,499,498,497,495,486,483,480,478,478,478,478,478,478,478,478,478,478,478,479,498,511,528,547,562,592,619,638,657,678,710,719,722,722,722,722,722,722,722,721,715,711,705,699,693,681,668,662,655,648,640,640,640,640,640,640,640,640,640,640,643,649,654,655,655,655,655,655,655,655,655,655,655,655,655,655,655,655,655,655,655,655,655,655,655,655,655,655,655,655,655,655,655,655,655,655,655,655,655,655,655,655,655,655,655,655,655,655,655,655,655,655,655,655,655,655,655,655,655,655,655,655,655,655,655,655,655,655,655,655,655,655,655,655,655,655,655,655,655,655,655,655,655,655,655,655,655,655,655,655,655,655,655,655,655,655,655,655,655,655,655,655,655,655,655,655,655,655,655,655,655,655,655,655,655,655,655,655,655,655,655,655,655,655,655,655,655,655,655,655,655,655,655,655,655,655,655,655,655,655,655,655,655,655,655,655,655,655,655,655,655,655,655,655,655,655,655,655,655,655,655,655,655,655,655,655,655,655,655,655,655,655,655,655,655,655,655,655,655,655,655,655,655,655,655,655,655,655,655,655,655,655,655,655,655,655,655,655,655,655,655,655,655,655,655,655,655,655,655,655,655,655,655,655,655,655,655,655,655,655,655,655,655,655,655,655,655,655,655,655,655,655,655,655,655,655,655,655,655,655,655,655,655,655,655,655,655,655,655,655,655,655,655,655,655,655,655,655,655,655,655,655,655,655,655,655,655,655,655,655,655,655,655,655,655,655,655,655,655,655,655,655,655,655,655,655,655,655,655,655,655,655,655,6