[{"start_time":1552074093203,"click_time":1552074094720,"finger_time":1552074094200,"fix_duration":738.8058056063636,"trial":0,"RT":997,"MT":520,"sideResp":2,"stimulus":"img/250/equaldotanddens/R/4_Ratio_250_L_3_R_12.png","xmouse":[784,784,784,784,784,784,784,784,784,784,784,784,784,784,784,784,784,784,784,784,784,784,784,784,784,784,784,784,784,784,784,784,784,784,784,784,784,784,784,784,784,784,784,784,788,794,799,805,815,826,851,879,896,912,917,923,926,928,935,943,951,957,962,968,978,982,985,988,991,994,995,1004,1010,1035,1058,1084,1123],"ymouse":[547,547,547,547,547,547,547,547,547,547,547,547,547,547,547,547,547,547,547,547,547,547,547,547,547,547,547,547,547,547,547,547,547,547,547,547,547,547,547,547,547,547,547,547,544,540,535,531,522,510,478,416,346,303,295,290,287,284,275,270,266,262,259,255,247,244,243,241,239,236,235,227,219,180,145,102,50],"timestamp_mouse":[1,18,47,58,77,98,118,138,158,179,198,218,237,258,277,298,318,338,357,378,399,418,438,458,479,497,517,538,557,577,598,619,637,658,677,698,717,737,758,779,798,818,837,857,878,897,918,939,957,978,997,1018,1037,1058,1077,1098,1118,1138,1158,1178,1198,1217,1238,1258,1278,1297,1317,1338,1358,1377,1398,1418,1437,1458,1478,1499,1517],"xSR":741.5,"ySR":501.8,"xT1":424.9,"yT1":0,"xT2":1058.1,"yT2":0,"toosoon":0,"cond_shown":"equaldotanddens","ratio_trial":250,"smaller_num":"3","larger_num":"12","correct_side":2,"subjID":"JulianaGaspar29","gender":"1","age":"8","school":"4","test":{"fix_dur":[250,1500],"timestim":300,"targets_dim":[100,100],"targets_relative_coord":[0.3,0.7],"size_stim":[880,420],"start_dim":[100,100],"size_start":[300,300],"size_fix":60,"samplingrate":20,"img_types":["equaldotsize","equaldotanddens","randomdotsizeEA"],"ratios":[250,500,750,900],"rep_conds":9,"nTrials":120,"trials_to_rest":500,"Trials_order":[1,99,70,7,14,59,44,66,110,67,81,78,76,92,27,100,91,20,2,94,33,51,105,107,71,10,29,65,3,86,4,0,12,72,30,13,118,98,26,46,35,36,11,8,87,6,93,109,54,52,113,88,75,5,22,34,48,96,28,63,18,55,50,97,53,37,83,108,61,31,73,47,15,23,9,111,57,115,62,116,80,16,104,117,101,39,43,25,56,49,21,85,32,103,41,19,60,38,82,119,89,114,69,112,40,79,58,102,24,17,74,42,95,45,84,68,77,64,90,106],"cond_shown":["equaldotanddens","equaldotsize","equaldotanddens","equaldotanddens","randomdotsizeEA","randomdotsizeEA","randomdotsizeEA","equaldotsize","randomdotsizeEA","equaldotanddens","equaldotsize","equaldotsize","equaldotanddens","randomdotsizeEA","equaldotsize","equaldotanddens","equaldotanddens","randomdotsizeEA","randomdotsizeEA","equaldotanddens","equaldotsize","equaldotsize","equaldotsize","randomdotsizeEA","randomdotsizeEA","equaldotanddens","randomdotsizeEA","randomdotsizeEA","equaldotsize","randomdotsizeEA","equaldotanddens","equaldotsize","equaldotsize","equaldotsize","equaldotsize","equaldotanddens","equaldotanddens","randomdotsizeEA","randomdotsizeEA","equaldotanddens","randomdotsizeEA","equaldotsize","randomdotsizeEA","randomdotsizeEA","equaldotsize","equaldotsize","equaldotsize","equaldotanddens","equaldotsize","equaldotanddens","randomdotsizeEA","equaldotanddens","equaldotsize","randomdotsizeEA","equaldotanddens","equaldotanddens","equaldotsize","equaldotsize","equaldotanddens","equaldotsize","equaldotsize","equaldotanddens","randomdotsizeEA","equaldotanddens","randomdotsizeEA","equaldotanddens","randomdotsizeEA","equaldotsize","equaldotanddens","equaldotanddens","equaldotanddens","randomdotsizeEA","equaldotsize","randomdotsizeEA","equaldotsize","equaldotsize","equaldotsize","equaldotanddens","randomdotsizeEA","randomdotsizeEA","randomdotsizeEA","equaldotanddens","randomdotsizeEA","equaldotsize","randomdotsizeEA","equaldotsize","equaldotanddens","equaldotanddens","randomdotsizeEA","equaldotanddens","equaldotsize","equaldotanddens","randomdotsizeEA","equaldotanddens","randomdotsizeEA","equaldotanddens","equaldotsize","randomdotsizeEA","equaldotanddens","randomdotsizeEA","randomdotsizeEA","equaldotsize","equaldotsize","equaldotanddens","equaldotanddens","equaldotanddens","equaldotanddens","equaldotsize","equaldotsize","randomdotsizeEA","randomdotsizeEA","equaldotsize","randomdotsizeEA","equaldotsize","equaldotsize","randomdotsizeEA","randomdotsizeEA","equaldotanddens","equaldotsize","equaldotanddens"],"ratio_trial":[250,500,900,750,250,900,750,750,250,750,900,750,500,750,500,500,750,750,250,900,900,500,900,900,900,900,500,500,500,250,500,250,250,250,750,250,900,250,250,900,900,250,900,750,500,750,900,250,750,500,500,500,500,500,900,900,250,250,500,500,750,750,250,250,500,250,900,250,250,750,250,900,500,900,900,500,900,750,250,750,750,500,750,900,500,500,750,250,750,250,900,250,750,750,500,750,250,250,900,900,500,750,900,500,500,750,900,750,250,500,250,750,900,900,250,750,500,500,750,900],"smaller_num":["3","5","18","6","3","18","3","15","3","6","18","15","5","15","2","5","3","15","2","18","18","2","9","9","9","9","9","2","6","3","5","2","3","3","3","3","18","3","2","9","18","3","9","6","6","3","18","6","3","3","10","10","9","9","18","18","3","2","1","10","6","3","3","3","2","2","9","3","2","3","2","18","2","18","9","2","18","12","3","6","12","9","3","18","6","2","3","3","15","6","9","5","3","3","2","3","3","3","18","18","9","15","18","1","2","15","18","3","3","5","3","6","18","18","5","3","5","6","18","18"],"larger_num":["12","10","20","8","12","20","4","20","12","8","20","20","10","20","4","10","4","20","8","20","20","4","10","10","10","10","18","4","12","12","10","8","12","12","4","12","20","12","8","10","20","12","10","8","12","4","20","24","4","6","20","20","18","18","20","20","12","8","2","20","8","4","12","12","4","8","10","12","8","4","8","20","4","20","10","4","20","16","12","8","16","18","4","20","12","4","4","12","20","24","10","20","4","4","4","4","12","12","20","20","18","20","20","2","4","20","20","4","12","10","12","8","20","20","20","4","10","12","24","20"],"correct_side":[2,1,1,1,2,1,1,2,2,1,1,1,1,2,2,2,2,2,1,2,2,2,2,2,2,2,2,1,1,2,2,1,2,2,1,1,1,1,1,2,1,2,1,1,1,1,1,1,2,2,2,2,2,2,2,1,2,1,2,2,1,1,1,1,1,1,2,1,2,2,1,1,1,1,2,1,1,2,1,1,2,1,2,1,1,1,2,2,2,1,2,2,1,1,2,2,2,1,1,2,2,2,2,2,2,2,2,2,2,1,1,1,2,1,2,2,1,1,1,1],"img_shown":["img/250/equaldotanddens/R/4_Ratio_250_L_3_R_12.png","img/500/equaldotsize/L/7_Ratio_500_L_10_R_5.png","img/900/equaldotanddens/L/10_Ratio_900_L_20_R_18.png","img/750/equaldotanddens/L/13_Ratio_750_L_8_R_6.png","img/250/randomdotsizeEA/R/4_Ratio_250_L_3_R_12.png","img/900/randomdotsizeEA/L/8_Ratio_900_L_20_R_18.png","img/750/randomdotsizeEA/L/9_Ratio_750_L_4_R_3.png","img/750/equaldotsize/R/3_Ratio_750_L_15_R_20.png","img/250/randomdotsizeEA/R/11_Ratio_250_L_3_R_12.png","img/750/equaldotanddens/L/13_Ratio_750_L_8_R_6.png","img/900/equaldotsize/L/8_Ratio_900_L_20_R_18.png","img/750/equaldotsize/L/1_Ratio_750_L_20_R_15.png","img/500/equaldotanddens/L/7_Ratio_500_L_10_R_5.png","img/750/randomdotsizeEA/R/3_Ratio_750_L_15_R_20.png","img/500/equaldotsize/R/9_Ratio_500_L_2_R_4.png","img/500/equaldotanddens/R/14_Ratio_500_L_5_R_10.png","img/750/equaldotanddens/R/12_Ratio_750_L_3_R_4.png","img/750/randomdotsizeEA/R/5_Ratio_750_L_15_R_20.png","img/250/randomdotsizeEA/L/1_Ratio_250_L_8_R_2.png","img/900/equaldotanddens/R/14_Ratio_900_L_18_R_20.png","img/900/equaldotsize/R/11_Ratio_900_L_18_R_20.png","img/500/equaldotsize/R/9_Ratio_500_L_2_R_4.png","img/900/equaldotsize/R/5_Ratio_900_L_9_R_10.png","img/900/randomdotsizeEA/R/6_Ratio_900_L_9_R_10.png","img/900/randomdotsizeEA/R/15_Ratio_900_L_9_R_10.png","img/900/equaldotanddens/R/7_Ratio_900_L_9_R_10.png","img/500/randomdotsizeEA/R/1_Ratio_500_L_9_R_18.png","img/500/randomdotsizeEA/L/10_Ratio_500_L_4_R_2.png","img/500/equaldotsize/L/13_Ratio_500_L_12_R_6.png","img/250/randomdotsizeEA/R/11_Ratio_250_L_3_R_12.png","img/500/equaldotanddens/R/14_Ratio_500_L_5_R_10.png","img/250/equaldotsize/L/3_Ratio_250_L_8_R_2.png","img/250/equaldotsize/R/9_Ratio_250_L_3_R_12.png","img/250/equaldotsize/R/9_Ratio_250_L_3_R_12.png","img/750/equaldotsize/L/9_Ratio_750_L_4_R_3.png","img/250/equaldotanddens/L/14_Ratio_250_L_12_R_3.png","img/900/equaldotanddens/L/8_Ratio_900_L_20_R_18.png","img/250/randomdotsizeEA/L/14_Ratio_250_L_12_R_3.png","img/250/randomdotsizeEA/L/3_Ratio_250_L_8_R_2.png","img/900/equaldotanddens/R/3_Ratio_900_L_9_R_10.png","img/900/randomdotsizeEA/L/2_Ratio_900_L_20_R_18.png","img/250/equaldotsize/R/11_Ratio_250_L_3_R_12.png","img/900/randomdotsizeEA/L/1_Ratio_900_L_10_R_9.png","img/750/randomdotsizeEA/L/13_Ratio_750_L_8_R_6.png","img/500/equaldotsize/L/13_Ratio_500_L_12_R_6.png","img/750/equaldotsize/L/10_Ratio_750_L_4_R_3.png","img/900/equaldotsize/L/10_Ratio_900_L_20_R_18.png","img/250/equaldotanddens/L/5_Ratio_250_L_24_R_6.png","img/750/equaldotsize/R/12_Ratio_750_L_3_R_4.png","img/500/equaldotanddens/R/2_Ratio_500_L_3_R_6.png","img/500/randomdotsizeEA/R/3_Ratio_500_L_10_R_20.png","img/500/equaldotanddens/R/3_Ratio_500_L_10_R_20.png","img/500/equaldotsize/R/1_Ratio_500_L_9_R_18.png","img/500/randomdotsizeEA/R/6_Ratio_500_L_9_R_18.png","img/900/equaldotanddens/R/12_Ratio_900_L_18_R_20.png","img/900/equaldotanddens/L/4_Ratio_900_L_20_R_18.png","img/250/equaldotsize/R/9_Ratio_250_L_3_R_12.png","img/250/equaldotsize/L/3_Ratio_250_L_8_R_2.png","img/500/equaldotanddens/R/12_Ratio_500_L_1_R_2.png","img/500/equaldotsize/R/3_Ratio_500_L_10_R_20.png","img/750/equaldotsize/L/13_Ratio_750_L_8_R_6.png","img/750/equaldotanddens/L/10_Ratio_750_L_4_R_3.png","img/250/randomdotsizeEA/L/14_Ratio_250_L_12_R_3.png","img/250/equaldotanddens/L/14_Ratio_250_L_12_R_3.png","img/500/randomdotsizeEA/L/5_Ratio_500_L_4_R_2.png","img/250/equaldotanddens/L/7_Ratio_250_L_8_R_2.png","img/900/randomdotsizeEA/R/7_Ratio_900_L_9_R_10.png","img/250/equaldotsize/L/14_Ratio_250_L_12_R_3.png","img/250/equaldotanddens/R/13_Ratio_250_L_2_R_8.png","img/750/equaldotanddens/R/12_Ratio_750_L_3_R_4.png","img/250/equaldotanddens/L/3_Ratio_250_L_8_R_2.png","img/900/randomdotsizeEA/L/4_Ratio_900_L_20_R_18.png","img/500/equaldotsize/L/10_Ratio_500_L_4_R_2.png","img/900/randomdotsizeEA/L/10_Ratio_900_L_20_R_18.png","img/900/equaldotsize/R/15_Ratio_900_L_9_R_10.png","img/500/equaldotsize/L/10_Ratio_500_L_4_R_2.png","img/900/equaldotsize/L/2_Ratio_900_L_20_R_18.png","img/750/equaldotanddens/R/11_Ratio_750_L_12_R_16.png","img/250/randomdotsizeEA/L/14_Ratio_250_L_12_R_3.png","img/750/randomdotsizeEA/L/14_Ratio_750_L_8_R_6.png","img/750/randomdotsizeEA/R/11_Ratio_750_L_12_R_16.png","img/500/equaldotanddens/L/4_Ratio_500_L_18_R_9.png","img/750/randomdotsizeEA/R/7_Ratio_750_L_3_R_4.png","img/900/equaldotsize/L/10_Ratio_900_L_20_R_18.png","img/500/randomdotsizeEA/L/13_Ratio_500_L_12_R_6.png","img/500/equaldotsize/L/5_Ratio_500_L_4_R_2.png","img/750/equaldotanddens/R/7_Ratio_750_L_3_R_4.png","img/250/equaldotanddens/R/9_Ratio_250_L_3_R_12.png","img/750/randomdotsizeEA/R/4_Ratio_750_L_15_R_20.png","img/250/equaldotanddens/L/5_Ratio_250_L_24_R_6.png","img/900/equaldotsize/R/3_Ratio_900_L_9_R_10.png","img/250/equaldotanddens/R/12_Ratio_250_L_5_R_20.png","img/750/randomdotsizeEA/L/10_Ratio_750_L_4_R_3.png","img/750/equaldotanddens/L/9_Ratio_750_L_4_R_3.png","img/500/randomdotsizeEA/R/9_Ratio_500_L_2_R_4.png","img/750/equaldotanddens/R/7_Ratio_750_L_3_R_4.png","img/250/equaldotsize/R/4_Ratio_250_L_3_R_12.png","img/250/randomdotsizeEA/L/15_Ratio_250_L_12_R_3.png","img/900/equaldotanddens/L/4_Ratio_900_L_20_R_18.png","img/900/randomdotsizeEA/R/9_Ratio_900_L_18_R_20.png","img/500/randomdotsizeEA/R/6_Ratio_500_L_9_R_18.png","img/750/equaldotsize/R/4_Ratio_750_L_15_R_20.png","img/900/equaldotsize/R/12_Ratio_900_L_18_R_20.png","img/500/equaldotanddens/R/12_Ratio_500_L_1_R_2.png","img/500/equaldotanddens/R/9_Ratio_500_L_2_R_4.png","img/750/equaldotanddens/R/4_Ratio_750_L_15_R_20.png","img/900/equaldotanddens/R/13_Ratio_900_L_18_R_20.png","img/750/equaldotsize/R/12_Ratio_750_L_3_R_4.png","img/250/equaldotsize/R/4_Ratio_250_L_3_R_12.png","img/500/randomdotsizeEA/L/7_Ratio_500_L_10_R_5.png","img/250/randomdotsizeEA/L/14_Ratio_250_L_12_R_3.png","img/750/equaldotsize/L/13_Ratio_750_L_8_R_6.png","img/900/randomdotsizeEA/R/12_Ratio_900_L_18_R_20.png","img/900/equaldotsize/L/10_Ratio_900_L_20_R_18.png","img/250/equaldotsize/R/12_Ratio_250_L_5_R_20.png","img/750/randomdotsizeEA/R/12_Ratio_750_L_3_R_4.png","img/500/randomdotsizeEA/L/7_Ratio_500_L_10_R_5.png","img/500/equaldotanddens/L/11_Ratio_500_L_12_R_6.png","img/750/equaldotsize/L/6_Ratio_750_L_24_R_18.png","img/900/equaldotanddens/L/2_Ratio_900_L_20_R_18.png"],"Rat0":[["12_Ratio_0_L_9_R_0.png","13_Ratio_0_L_6_R_0.png","5_Ratio_0_L_2_R_0.png","6_Ratio_0_L_4_R_0.png","8_Ratio_0_L_6_R_0.png"],["1_Ratio_0_L_0_R_17.png","10_Ratio_0_L_0_R_22.png","11_Ratio_0_L_0_R_1.png","14_Ratio_0_L_0_R_24.png","15_Ratio_0_L_0_R_4.png","2_Ratio_0_L_0_R_5.png","3_Ratio_0_L_0_R_17.png","4_Ratio_0_L_0_R_7.png","7_Ratio_0_L_0_R_19.png","9_Ratio_0_L_0_R_15.png"]],"Rat250":[["1_Ratio_250_L_8_R_2.png","14_Ratio_250_L_12_R_3.png","15_Ratio_250_L_12_R_3.png","2_Ratio_250_L_16_R_4.png","3_Ratio_250_L_8_R_2.png","5_Ratio_250_L_24_R_6.png","7_Ratio_250_L_8_R_2.png"],["10_Ratio_250_L_4_R_16.png","11_Ratio_250_L_3_R_12.png","12_Ratio_250_L_5_R_20.png","13_Ratio_250_L_2_R_8.png","4_Ratio_250_L_3_R_12.png","6_Ratio_250_L_6_R_24.png","8_Ratio_250_L_1_R_4.png","9_Ratio_250_L_3_R_12.png"]],"Rat500":[["10_Ratio_500_L_4_R_2.png","11_Ratio_500_L_12_R_6.png","13_Ratio_500_L_12_R_6.png","4_Ratio_500_L_18_R_9.png","5_Ratio_500_L_4_R_2.png","7_Ratio_500_L_10_R_5.png","8_Ratio_500_L_8_R_4.png"],["1_Ratio_500_L_9_R_18.png","12_Ratio_500_L_1_R_2.png","14_Ratio_500_L_5_R_10.png","15_Ratio_500_L_1_R_2.png","2_Ratio_500_L_3_R_6.png","3_Ratio_500_L_10_R_20.png","6_Ratio_500_L_9_R_18.png","9_Ratio_500_L_2_R_4.png"]],"Rat750":[["1_Ratio_750_L_20_R_15.png","10_Ratio_750_L_4_R_3.png","13_Ratio_750_L_8_R_6.png","14_Ratio_750_L_8_R_6.png","6_Ratio_750_L_24_R_18.png","8_Ratio_750_L_4_R_3.png","9_Ratio_750_L_4_R_3.png"],["11_Ratio_750_L_12_R_16.png","12_Ratio_750_L_3_R_4.png","15_Ratio_750_L_9_R_12.png","2_Ratio_750_L_6_R_8.png","3_Ratio_750_L_15_R_20.png","4_Ratio_750_L_15_R_20.png","5_Ratio_750_L_15_R_20.png","7_Ratio_750_L_3_R_4.png"]],"Rat900":[["1_Ratio_900_L_10_R_9.png","10_Ratio_900_L_20_R_18.png","2_Ratio_900_L_20_R_18.png","4_Ratio_900_L_20_R_18.png","8_Ratio_900_L_20_R_18.png"],["11_Ratio_900_L_18_R_20.png","12_Ratio_900_L_18_R_20.png","13_Ratio_900_L_18_R_20.png","14_Ratio_900_L_18_R_20.png","15_Ratio_900_L_9_R_10.png","3_Ratio_900_L_9_R_10.png","5_Ratio_900_L_9_R_10.png","6_Ratio_900_L_9_R_10.png","7_Ratio_900_L_9_R_10.png","9_Ratio_900_L_18_R_20.png"]],"Rat1000":[["10_Ratio_1000_L_16_R_16.png","11_Ratio_1000_L_6_R_6.png","12_Ratio_1000_L_14_R_14.png","13_Ratio_1000_L_20_R_20.png","15_Ratio_1000_L_15_R_15.png","2_Ratio_1000_L_17_R_17.png","4_Ratio_1000_L_9_R_9.png","5_Ratio_1000_L_6_R_6.png","6_Ratio_1000_L_19_R_19.png","8_Ratio_1000_L_14_R_14.png","9_Ratio_1000_L_25_R_25.png"],["1_Ratio_1000_L_1_R_1.png","14_Ratio_1000_L_17_R_17.png","3_Ratio_1000_L_17_R_17.png","7_Ratio_1000_L_6_R_6.png"]]}},{"start_time":1552074096313,"click_time":1552074097402,"finger_time":1552074096900,"fix_duration":530.5634230540142,"trial":1,"RT":587,"MT":502,"sideResp":1,"stimulus":"img/500/equaldotsize/L/7_Ratio_500_L_10_R_5.png","xmouse":[768,768,768,768,768,768,768,768,768,768,768,768,768,768,768,768,768,768,768,768,767,767,767,767,767,767,767,765,762,755,749,737,715,660,644,635,634,634,634,632,629,619,589,567,560,559,559,559,559,557,552,542,537,529,523],"ymouse":[505,505,505,505,505,505,505,505,505,505,505,505,505,505,505,505,505,505,505,505,504,503,503,502,502,500,498,488,478,460,435,400,349,254,233,223,222,222,222,220,211,191,145,122,118,118,118,118,118,117,115,107,102,92,82],"timestamp_mouse":[11,30,47,67,88,109,128,149,168,187,209,228,247,267,287,307,328,348,367,387,407,428,448,467,487,508,529,548,568,587,609,627,647,667,688,709,728,748,767,787,808,828,849,867,888,908,927,947,967,987,1007,1029,1047,1067,1088],"xSR":741.5,"ySR":469.95,"xT1":424.9,"yT1":0,"xT2":1058.1,"yT2":0,"toosoon":0,"cond_shown":"equaldotsize","ratio_trial":500,"smaller_num":"5","larger_num":"10","correct_side":1,"subjID":"JulianaGaspar29","gender":"1","age":"8","school":"4"},{"start_time":1552074099150,"click_time":1552074100281,"finger_time":1552074100001,"fix_duration":806.7760484994654,"trial":2,"RT":851,"MT":280,"sideResp":1,"stimulus":"img/900/equaldotanddens/L/10_Ratio_900_L_20_R_18.png","xmouse":[787,787,787,787,787,787,787,787,787,787,787,787,787,787,787,787,787,787,787,787,787,787,787,787,787,787,787,787,787,787,787,787,787,787,787,787,787,787,786,786,780,767,758,747,729,706,661,643,623,604,588,563,556,549,538,526,518],"ymouse":[520,520,520,520,520,520,520,520,520,520,520,520,520,520,520,520,520,520,520,520,520,520,520,520,520,520,520,520,520,520,520,520,520,520,520,520,520,520,517,516,506,484,469,449,419,372,269,226,190,156,133,98,86,70,49,29,12],"timestamp_mouse":[19,41,50,71,90,110,130,151,171,191,211,231,251,271,290,311,332,351,371,391,412,431,450,471,491,511,530,551,570,591,610,630,651,670,690,710,732,751,770,791,811,830,851,872,891,912,930,951,971,990,1010,1031,1052,1071,1090,1110,1130],"xSR":741.5,"ySR":469.95,"xT1":424.9,"yT1":0,"xT2":1058.1,"yT2":0,"toosoon":0,"cond_shown":"equaldotanddens","ratio_trial":900,"smaller_num":"18","larger_num":"20","correct_side":1,"subjID":"JulianaGaspar29","gender":"1","age":"8","school":"4"},{"start_time":1552074102603,"click_time":1552074103641,"finger_time":1552074103180,"fix_duration":1440.179077183193,"trial":3,"RT":577,"MT":461,"sideResp":1,"stimulus":"img/750/equaldotanddens/L/13_Ratio_750_L_8_R_6.png","xmouse":[776,776,776,776,776,776,776,776,776,776,776,776,776,776,776,776,776,776,776,776,776,776,776,776,776,777,776,771,754,733,710,688,666,650,621,601,592,586,584,584,582,578,570,548,533,518,513,508,499,492,486,477],"ymouse":[510,510,510,510,510,510,510,510,510,510,510,510,510,510,510,510,510,510,510,510,510,510,510,510,510,509,503,494,460,430,402,371,344,327,298,281,275,271,270,270,268,262,247,217,197,172,162,151,129,117,107,94],"timestamp_mouse":[18,37,58,77,97,119,139,157,177,199,218,237,258,279,299,319,337,358,378,398,418,437,458,478,499,518,538,557,577,598,619,638,657,678,698,718,737,757,778,798,817,838,858,879,897,918,937,958,978,998,1018,1038],"xSR":741.5,"ySR":469.95,"xT1":424.9,"yT1":0,"xT2":1058.1,"yT2":0,"toosoon":0,"cond_shown":"equaldotanddens","ratio_trial":750,"smaller_num":"6","larger_num":"8","correct_side":1,"subjID":"JulianaGaspar29","gender":"1","age":"8","school":"4"},{"start_time":1552074105786,"click_time":1552074108601,"finger_time":1552074107801,"fix_duration":683.0565395629868,"trial":4,"RT":2015,"MT":800,"sideResp":2,"stimulus":"img/250/randomdotsizeEA/R/4_Ratio_250_L_3_R_12.png","xmouse":[788,788,788,788,788,788,788,788,788,788,788,788,788,788,788,788,788,788,788,788,788,788,788,788,788,788,788,788,788,788,788,788,788,788,788,788,788,788,788,788,788,788,788,788,788,788,788,788,788,788,788,788,788,788,788,788,788,788,788,788,788,788,788,788,788,788,788,788,788,788,788,788,788,788,788,788,788,788,788,788,788,788,788,788,788,788,788,788,788,788,788,788,788,788,788,789,792,795,798,801,812,820,826,833,839,843,844,847,850,855,868,877,886,900,928,974,996,1016,1034,1047,1057,1066,1082,1101,1127,1149,1159,1168,1173,1174,1174,1174,1174,1174,1174,1168,1159,1154,1146,1138,1125],"ymouse":[508,508,508,508,508,508,508,508,508,508,508,508,508,508,508,508,508,508,508,508,508,508,508,508,508,508,508,508,508,508,508,508,508,508,508,507,506,506,506,506,506,506,506,506,506,506,506,506,506,506,506,506,506,506,506,506,506,506,506,506,506,506,506,506,506,506,506,506,506,506,506,506,506,506,506,506,506,506,506,506,506,506,506,506,506,506,506,506,506,506,506,506,506,505,504,500,496,490,484,475,450,432,413,395,375,360,355,348,342,336,318,303,286,266,227,193,183,177,172,167,163,162,162,160,157,154,150,147,144,143,143,143,143,143,141,136,128,123,113,102,77],"timestamp_mouse":[15,45,54,75,95,115,134,154,175,194,214,236,255,275,295,315,334,354,375,395,415,435,455,475,496,515,535,554,575,595,615,636,654,676,695,715,735,755,775,794,815,835,854,876,894,915,935,954,975,995,1015,1034,1054,1075,1095,1115,1136,1155,1175,1195,1214,1235,1255,1275,1294,1315,1335,1354,1376,1395,1414,1435,1454,1475,1495,1515,1536,1555,1574,1594,1614,1634,1654,1676,1694,1715,1734,1756,1775,1794,1815,1836,1855,1876,1895,1914,1935,1954,1975,1995,2015,2035,2055,2075,2096,2117,2135,2154,2175,2196,2215,2234,2255,2274,2295,2314,2335,2354,2374,2395,2414,2434,2455,2474,2496,2515,2535,2556,2575,2595,2614,2635,2655,2675,2694,2714,2736,2755,2775,2796,2815],"xSR":741.5,"ySR":469.95,"xT1":424.9,"yT1":0,"xT2":1058.1,"yT2":0,"toosoon":0,"cond_shown":"randomdotsizeEA","ratio_trial":250,"smaller_num":"3","larger_num":"12","correct_side":2,"subjID":"JulianaGaspar29","gender":"1","age":"8","school":"4"},{"start_time":1552074110151,"click_time":1552074111540,"finger_time":1552074110981,"fix_duration":250,"trial":5,"RT":830,"MT":559,"sideResp":2,"stimulus":"img/900/randomdotsizeEA/L/8_Ratio_900_L_20_R_18.png","xmouse":[786,786,786,786,787,791,794,796,796,796,796,796,796,796,796,797,797,797,801,803,803,803,803,803,803,803,803,803,803,803,803,803,803,803,803,803,803,803,803,811,823,858,952,1023,1051,1068,1076,1083,1085,1086,1091,1098,1108,1142,1149,1165,1174,1180,1182,1183,1186,1188,1188,1188,1188,1187,1183,1173,1163,1155],"ymouse":[520,520,520,520,519,515,513,511,509,509,509,509,509,509,509,509,509,509,509,509,509,509,509,509,509,509,509,509,509,509,509,509,509,509,509,509,509,509,509,504,499,478,417,356,326,304,291,279,273,269,264,256,247,209,199,177,164,153,150,145,135,124,106,101,97,92,88,76,68,61],"timestamp_mouse":[10,30,49,70,89,109,129,149,170,189,210,229,250,271,289,310,330,350,369,390,410,429,449,470,489,509,531,549,570,589,609,631,649,669,690,710,729,749,769,790,809,830,849,870,889,910,930,949,969,989,1010,1029,1050,1069,1089,1109,1129,1150,1169,1190,1210,1229,1250,1269,1289,1311,1330,1350,1369,1389],"xSR":741.5,"ySR":469.95,"xT1":424.9,"yT1":0,"xT2":1058.1,"yT2":0,"toosoon":0,"cond_shown":"randomdotsizeEA","ratio_trial":900,"smaller_num":"18","larger_num":"20","correct_side":1,"subjID":"JulianaGaspar29","gender":"1","age":"8","school":"4"},{"start_time":1552074113767,"click_time":1552074115041,"finger_time":1552074114501,"fix_duration":1044.3055210544521,"trial":6,"RT":734,"MT":540,"sideResp":1,"stimulus":"img/750/randomdotsizeEA/L/9_Ratio_750_L_4_R_3.png","xmouse":[783,783,783,783,783,783,784,785,787,787,788,788,788,788,788,788,788,788,788,788,788,788,788,788,788,788,788,788,791,793,797,801,802,805,808,814,822,831,831,830,826,815,802,793,780,771,762,746,741,739,735,731,715,707,693,679,663,635,624,615,596,587,525,493],"ymouse":[502,502,502,502,502,502,502,502,502,502,503,503,503,503,503,503,503,503,503,503,503,503,503,503,503,503,503,503,503,503,503,501,499,496,490,477,456,421,408,398,389,372,360,352,341,329,318,295,289,283,277,267,229,211,189,169,150,117,106,99,88,85,74,71],"timestamp_mouse":[14,35,54,73,94,114,134,154,174,194,213,234,253,273,293,314,334,354,373,394,414,434,453,474,494,513,533,554,573,593,613,635,654,673,693,714,734,754,774,793,813,835,854,874,894,914,935,954,973,993,1013,1034,1054,1073,1093,1115,1133,1154,1174,1194,1215,1234,1253,1273],"xSR":741.5,"ySR":469.95,"xT1":424.9,"yT1":0,"xT2":1058.1,"yT2":0,"toosoon":0,"cond_shown":"randomdotsizeEA","ratio_trial":750,"smaller_num":"3","larger_num":"4","correct_side":1,"subjID":"JulianaGaspar29","gender":"1","age":"8","school":"4"},{"start_time":1552074116093,"click_time":1552074117300,"finger_time":1552074117161,"fix_duration":250,"trial":7,"RT":1068,"MT":139,"sideResp":2,"stimulus":"img/750/equaldotsize/R/3_Ratio_750_L_15_R_20.png","xmouse":[786,786,786,786,786,786,786,786,786,786,786,786,786,786,786,786,786,786,786,786,786,786,786,786,786,786,786,786,786,786,786,786,786,786,786,786,786,786,786,786,786,786,788,789,793,796,798,798,798,800,802,818,831,852,916,942,1090,1122,1138,1143,1146],"ymouse":[558,557,557,556,556,556,556,556,556,556,556,556,556,556,556,556,555,555,553,553,553,552,551,551,551,550,550,550,550,550,550,550,548,546,545,545,545,545,545,545,545,545,544,541,532,527,521,521,521,519,516,499,485,464,407,380,223,170,130,107,92],"timestamp_mouse":[8,27,48,67,87,108,129,149,167,187,207,227,247,267,287,308,329,348,367,388,407,428,448,468,487,507,528,549,567,588,607,628,648,668,688,709,728,747,768,787,807,828,848,868,888,908,927,948,967,987,1009,1028,1048,1068,1087,1109,1128,1147,1167,1188,1207],"xSR":741.5,"ySR":469.95,"xT1":424.9,"yT1":0,"xT2":1058.1,"yT2":0,"toosoon":0,"cond_shown":"equaldotsize","ratio_trial":750,"smaller_num":"15","larger_num":"20","correct_side":2,"subjID":"JulianaGaspar29","gender":"1","age":"8","school":"4"},{"start_time":1552074119442,"click_time":1552074120740,"finger_time":1552074120241,"fix_duration":961.4601825963194,"trial":8,"RT":799,"MT":499,"sideResp":2,"stimulus":"img/250/randomdotsizeEA/R/11_Ratio_250_L_3_R_12.png","xmouse":[783,783,783,783,783,783,783,783,783,783,783,783,783,783,783,783,783,783,783,783,783,783,783,783,783,783,783,783,783,783,784,784,784,784,784,784,784,786,797,806,820,831,842,854,885,911,928,948,1009,1031,1042,1046,1048,1056,1058,1072,1085,1097,1108,1110,1111,1113,1115,1124,1131],"ymouse":[497,497,497,497,497,497,497,497,497,497,497,497,497,497,497,497,497,497,497,497,497,497,497,497,497,497,497,497,497,497,497,497,497,497,496,495,493,489,478,468,456,446,436,426,406,391,381,367,320,304,292,286,281,266,263,239,213,183,144,132,125,122,119,108,94],"timestamp_mouse":[18,44,58,79,100,118,139,159,178,198,219,238,259,279,299,318,340,359,379,399,418,438,458,478,498,519,539,559,579,599,619,638,659,678,700,719,739,760,779,799,819,839,858,879,898,919,940,958,979,999,1019,1039,1060,1079,1098,1118,1138,1158,1178,1199,1220,1239,1259,1278,1298],"xSR":741.5,"ySR":469.95,"xT1":424.9,"yT1":0,"xT2":1058.1,"yT2":0,"toosoon":0,"cond_shown":"randomdotsizeEA","ratio_trial":250,"smaller_num":"3","larger_num":"12","correct_side":2,"subjID":"JulianaGaspar29","gender":"1","age":"8","school":"4"},{"start_time":1552074123267,"click_time":1552074124202,"finger_time":1552074124121,"fix_duration":984.3734076373689,"trial":9,"RT":854,"MT":81,"sideResp":1,"stimulus":"img/750/equaldotanddens/L/13_Ratio_750_L_8_R_6.png","xmouse":[770,770,770,771,771,771,771,771,771,771,771,771,771,771,771,771,771,771,771,771,771,771,771,771,771,771,771,771,771,771,771,771,771,771,771,771,771,771,771,771,771,762,737,627,572,532,514],"ymouse":[499,499,498,498,498,498,498,498,498,498,498,498,498,498,498,498,498,498,498,498,498,498,498,498,498,498,498,498,498,498,498,498,498,498,498,498,498,498,498,497,494,476,439,259,183,128,99],"timestamp_mouse":[14,36,54,73,94,113,133,154,174,194,215,235,253,274,295,313,335,353,373,393,414,434,453,473,494,514,534,555,574,594,614,633,654,673,694,713,733,753,773,795,814,834,854,873,893,913,934],"xSR":741.5,"ySR":469.95,"xT1":424.9,"yT1":0,"xT2":1058.1,"yT2":0,"toosoon":0,"cond_shown":"equaldotanddens","ratio_trial":750,"smaller_num":"6","larger_num":"8","correct_side":1,"subjID":"JulianaGaspar29","gender":"1","age":"8","school":"4"},{"start_time":1552074126183,"click_time":1552074127160,"finger_time":1552074126740,"fix_duration":761.5523650788731,"trial":10,"RT":557,"MT":420,"sideResp":2,"stimulus":"img/900/equaldotsize/L/8_Ratio_900_L_20_R_18.png","xmouse":[759,759,759,759,759,759,759,759,759,759,759,759,759,759,759,759,759,759,759,759,759,761,762,764,768,772,788,827,853,873,886,894,906,911,916,927,948,977,993,1003,1010,1014,1018,1022,1025,1036,1046,1056,1059],"ymouse":[504,504,504,504,504,504,504,504,504,504,504,504,504,504,504,504,504,504,504,504,504,502,501,500,498,494,486,461,440,420,405,390,365,356,343,325,292,243,214,193,180,172,163,157,153,137,124,101,97],"timestamp_mouse":[17,48,58,78,97,117,137,157,177,197,217,237,257,277,297,317,338,357,377,397,417,437,457,477,498,519,538,557,578,598,618,638,657,677,697,718,738,757,777,797,817,837,857,877,898,918,938,958,977],"xSR":741.5,"ySR":469.95,"xT1":424.9,"yT1":0,"xT2":1058.1,"yT2":0,"toosoon":0,"cond_shown":"equaldotsize","ratio_trial":900,"smaller_num":"18","larger_num":"20","correct_side":1,"subjID":"JulianaGaspar29","gender":"1","age":"8","school":"4"},{"start_time":1552074128971,"click_time":1552074130242,"finger_time":1552074129841,"fix_duration":428.50639239346697,"trial":11,"RT":870,"MT":401,"sideResp":1,"stimulus":"img/750/equaldotsize/L/1_Ratio_750_L_20_R_15.png","xmouse":[769,769,769,769,769,770,770,770,770,770,771,771,771,771,771,771,771,771,771,771,771,771,771,771,771,771,771,771,771,771,771,771,771,771,771,771,771,771,771,771,771,771,771,769,760,750,736,715,696,670,664,662,662,662,662,659,653,644,615,595,573,554,543,524],"ymouse":[486,486,486,486,486,486,485,485,485,485,484,484,484,484,484,484,484,484,484,484,484,484,484,484,484,484,484,484,484,484,484,484,484,484,484,484,484,484,484,484,484,482,481,460,429,404,376,344,316,280,273,271,271,271,270,263,249,228,168,136,107,87,75,64],"timestamp_mouse":[10,37,49,69,90,110,130,150,171,190,210,230,251,270,290,309,330,351,370,389,410,430,450,470,489,511,530,549,569,589,610,630,651,670,689,710,729,751,769,789,809,829,850,870,889,910,930,950,970,989,1009,1029,1050,1070,1091,1109,1129,1151,1170,1189,1209,1230,1250,1270],"xSR":741.5,"ySR":469.95,"xT1":424.9,"yT1":0,"xT2":1058.1,"yT2":0,"toosoon":0,"cond_shown":"equaldotsize","ratio_trial":750,"smaller_num":"15","larger_num":"20","correct_side":1,"subjID":"JulianaGaspar29","gender":"1","age":"8","school":"4"},{"start_time":1552074135672,"click_time":1552074137221,"finger_time":1552074136860,"fix_duration":250,"trial":12,"RT":1188,"MT":361,"sideResp":2,"stimulus":"img/500/equaldotanddens/L/7_Ratio_500_L_10_R_5.png","xmouse":[811,811,811,811,811,811,811,811,811,811,811,811,811,811,811,811,811,811,811,811,811,811,811,811,811,811,811,811,811,811,811,811,811,811,811,811,811,811,811,811,811,811,811,811,811,811,811,811,811,811,811,811,811,811,811,811,811,814,835,940,1017,1097,1166,1210,1236,1237,1236,1235,1235,1238,1238,1238,1236,1232,1217,1202,1175,1157],"ymouse":[523,523,523,523,523,523,523,523,523,523,523,523,523,523,523,523,523,523,523,523,523,523,523,523,523,523,523,523,523,523,523,523,523,523,523,523,523,523,523,523,523,523,523,523,523,523,523,523,523,523,523,523,523,523,523,523,523,523,509,442,388,322,253,197,129,105,80,72,67,50,41,30,19,13,5,4,5,7],"timestamp_mouse":[12,37,48,69,89,108,130,149,169,190,208,229,249,269,290,308,328,349,369,388,410,428,448,470,488,508,529,548,569,588,610,630,649,669,688,710,728,749,769,788,809,828,848,869,888,909,928,948,968,990,1009,1029,1049,1070,1089,1110,1129,1148,1168,1188,1209,1228,1248,1269,1289,1308,1329,1349,1368,1389,1409,1429,1450,1468,1489,1509,1528,1548],"xSR":741.5,"ySR":469.95,"xT1":424.9,"yT1":0,"xT2":1058.1,"yT2":0,"toosoon":0,"cond_shown":"equaldotanddens","ratio_trial":500,"smaller_num":"5","larger_num":"10","correct_side":1,"subjID":"JulianaGaspar29","gender":"1","age":"8","school":"4"},{"start_time":1552074138887,"click_time":1552074140101,"finger_time":1552074139921,"fix_duration":442.7866524946872,"trial":13,"RT":1034,"MT":180,"sideResp":2,"stimulus":"img/750/randomdotsizeEA/R/3_Ratio_750_L_15_R_20.png","xmouse":[786,786,786,786,786,786,786,786,786,786,786,786,786,786,786,786,786,786,786,786,786,786,786,786,786,786,786,786,786,786,786,786,786,786,786,786,786,786,786,786,786,786,786,786,786,786,789,791,794,808,818,831,845,864,928,976,1005,1030,1064,1077,1088],"ymouse":[510,510,510,510,510,510,510,510,510,510,510,510,510,510,510,510,510,510,510,510,510,510,510,510,510,510,510,510,510,510,510,510,510,510,510,510,510,510,510,510,510,510,510,510,510,510,509,507,504,487,476,462,446,427,353,285,241,199,123,102,81],"timestamp_mouse":[13,38,53,73,94,113,134,155,173,194,215,235,254,274,294,314,334,354,374,393,414,434,453,473,493,513,534,554,574,594,615,633,653,673,695,713,734,754,774,794,814,833,853,874,894,914,934,954,974,994,1015,1034,1054,1074,1093,1114,1133,1154,1175,1193,1214],"xSR":741.5,"ySR":469.95,"xT1":424.9,"yT1":0,"xT2":1058.1,"yT2":0,"toosoon":0,"cond_shown":"randomdotsizeEA","ratio_trial":750,"smaller_num":"15","larger_num":"20","correct_side":2,"subjID":"JulianaGaspar29","gender":"1","age":"8","school":"4"},{"start_time":1552074141999,"click_time":1552074143161,"finger_time":1552074142760,"fix_duration":816.0990702134227,"trial":14,"RT":761,"MT":401,"sideResp":2,"stimulus":"img/500/equaldotsize/R/9_Ratio_500_L_2_R_4.png","xmouse":[783,783,783,783,783,783,783,783,783,783,783,783,783,783,783,783,783,783,783,783,783,783,783,783,783,783,783,783,783,783,783,785,786,789,794,799,809,822,843,865,876,889,906,924,952,961,967,974,978,986,992,999,1007,1015,1035,1041,1048,1055,1059],"ymouse":[509,509,509,509,509,509,509,509,509,509,509,509,509,509,509,509,509,509,509,509,509,509,509,509,509,509,509,509,509,509,509,509,509,508,506,502,493,482,464,440,426,407,381,351,300,279,264,246,236,219,209,195,178,160,122,107,96,89,84],"timestamp_mouse":[9,22,43,61,82,101,121,142,162,183,202,222,241,263,281,302,321,342,361,382,401,422,441,461,482,501,521,541,562,581,602,623,642,661,682,702,721,741,761,781,801,821,842,862,882,902,922,942,962,981,1002,1022,1042,1062,1082,1101,1122,1141,1161],"xSR":741.5,"ySR":469.95,"xT1":424.9,"yT1":0,"xT2":1058.1,"yT2":0,"toosoon":0,"cond_shown":"equaldotsize","ratio_trial":500,"smaller_num":"2","larger_num":"4","correct_side":2,"subjID":"JulianaGaspar29","gender":"1","age":"8","school":"4"},{"start_time":1552074144408,"click_time":1552074145241,"finger_time":1552074145040,"fix_duration":426.09438889063324,"trial":15,"RT":632,"MT":201,"sideResp":2,"stimulus":"img/500/equaldotanddens/R/14_Ratio_500_L_5_R_10.png","xmouse":[767,767,767,767,767,767,767,767,767,767,767,767,767,767,767,767,767,767,767,767,767,767,767,767,768,769,772,775,788,799,818,842,868,931,952,970,993,1006,1037,1058,1088,1115],"ymouse":[543,543,543,543,543,543,543,543,543,543,543,543,543,543,543,543,543,543,543,543,543,543,542,541,540,539,536,533,523,515,501,481,453,389,362,339,297,270,200,156,103,55],"timestamp_mouse":[13,36,52,74,94,112,133,154,173,193,212,232,252,274,292,312,332,352,372,393,413,432,453,473,493,512,533,553,572,593,612,632,653,673,694,713,732,752,772,792,812,832],"xSR":741.5,"ySR":469.95,"xT1":424.9,"yT1":0,"xT2":1058.1,"yT2":0,"toosoon":0,"cond_shown":"equaldotanddens","ratio_trial":500,"smaller_num":"5","larger_num":"10","correct_side":2,"subjID":"JulianaGaspar29","gender":"1","age":"8","school":"4"},{"start_time":1552074146609,"click_time":1552074147381,"finger_time":1552074147141,"fix_duration":266.7492505687792,"trial":16,"RT":532,"MT":240,"sideResp":2,"stimulus":"img/750/equaldotanddens/R/12_Ratio_750_L_3_R_4.png","xmouse":[776,776,776,776,776,776,776,776,776,776,776,776,776,776,776,776,776,776,776,776,776,776,776,784,806,826,849,870,903,925,950,984,1017,1054,1107,1115,1121,1123,1124],"ymouse":[501,501,501,501,501,501,501,501,501,501,501,501,501,501,501,501,501,501,501,501,501,501,501,497,487,473,455,437,394,364,330,290,248,202,127,115,105,102,99],"timestamp_mouse":[11,38,53,71,92,111,131,152,171,191,213,232,252,272,292,312,332,351,372,391,411,433,452,471,492,512,532,552,572,592,613,633,652,673,691,712,732,751,772],"xSR":741.5,"ySR":469.95,"xT1":424.9,"yT1":0,"xT2":1058.1,"yT2":0,"toosoon":0,"cond_shown":"equaldotanddens","ratio_trial":750,"smaller_num":"3","larger_num":"4","correct_side":2,"subjID":"JulianaGaspar29","gender":"1","age":"8","school":"4"},{"start_time":1552074148639,"click_time":1552074149582,"finger_time":1552074149382,"fix_duration":276.5256087720201,"trial":17,"RT":743,"MT":200,"sideResp":2,"stimulus":"img/750/randomdotsizeEA/R/5_Ratio_750_L_15_R_20.png","xmouse":[772,772,772,772,772,772,772,772,772,772,772,772,772,772,772,772,772,772,772,772,772,772,772,773,774,775,775,776,776,777,778,780,784,791,798,810,824,862,887,911,940,972,1000,1037,1047,1060,1072,1102],"ymouse":[511,511,511,511,511,511,511,511,511,511,511,511,511,511,511,511,511,511,511,511,511,511,511,511,511,510,510,510,510,508,508,507,504,499,494,485,471,439,417,390,351,304,259,192,173,150,128,75],"timestamp_mouse":[10,22,41,61,82,101,121,141,162,183,202,222,241,262,282,302,321,341,362,381,403,422,441,462,481,502,522,541,562,583,602,622,642,662,682,702,721,742,762,783,803,821,841,861,881,901,922,943],"xSR":741.5,"ySR":469.95,"xT1":424.9,"yT1":0,"xT2":1058.1,"yT2":0,"toosoon":0,"cond_shown":"randomdotsizeEA","ratio_trial":750,"smaller_num":"15","larger_num":"20","correct_side":2,"subjID":"JulianaGaspar29","gender":"1","age":"8","school":"4"},{"start_time":1552074151090,"click_time":1552074152240,"finger_time":1552074151840,"fix_duration":386.5238897867932,"trial":18,"RT":750,"MT":400,"sideResp":1,"stimulus":"img/250/randomdotsizeEA/L/1_Ratio_250_L_8_R_2.png","xmouse":[803,803,803,803,803,804,805,805,805,805,805,805,805,805,805,805,805,805,806,806,807,807,807,808,808,808,808,808,810,810,810,810,810,807,806,795,788,779,769,754,729,715,703,687,669,637,626,616,612,610,608,606,601,596,586,556,537,511],"ymouse":[534,534,534,534,533,529,527,526,526,526,526,526,526,526,526,526,526,526,525,524,523,522,522,522,522,522,521,521,517,517,517,517,516,514,512,489,473,453,428,381,313,280,261,232,208,166,155,146,143,142,140,139,136,132,125,106,95,80],"timestamp_mouse":[26,36,51,70,91,110,131,151,170,190,210,231,250,271,290,310,332,350,370,390,411,430,450,471,490,511,530,550,570,590,610,632,651,671,691,711,731,750,771,791,811,830,851,870,890,910,931,950,971,991,1010,1030,1050,1071,1090,1110,1131,1150],"xSR":741.5,"ySR":469.95,"xT1":424.9,"yT1":0,"xT2":1058.1,"yT2":0,"toosoon":0,"cond_shown":"randomdotsizeEA","ratio_trial":250,"smaller_num":"2","larger_num":"8","correct_side":1,"subjID":"JulianaGaspar29","gender":"1","age":"8","school":"4"},{"start_time":1552074153373,"click_time":1552074154740,"finger_time":1552074154280,"fix_duration":250,"trial":19,"RT":907,"MT":460,"sideResp":2,"stimulus":"img/900/equaldotanddens/R/14_Ratio_900_L_18_R_20.png","xmouse":[823,823,823,823,823,823,823,823,823,823,823,823,823,823,823,823,823,823,823,823,823,823,823,823,823,823,823,823,823,823,823,823,823,823,823,823,823,823,823,823,823,823,825,830,841,854,881,892,902,911,920,933,940,945,950,956,965,970,978,988,997,1015,1027,1035,1042,1051,1078,1099,1126],"ymouse":[531,531,531,531,531,531,531,531,531,531,531,531,531,531,531,531,531,531,531,531,531,531,531,531,531,531,531,531,531,531,531,531,531,531,531,531,531,531,531,531,531,531,531,527,524,516,496,485,471,454,435,399,383,366,352,330,300,284,263,238,216,183,165,155,147,138,117,103,85],"timestamp_mouse":[10,41,49,69,88,107,128,148,168,187,207,228,249,268,287,307,328,348,367,388,408,427,448,469,488,508,527,547,567,588,607,628,647,669,688,708,727,749,769,787,807,827,848,868,889,907,928,948,969,987,1007,1028,1047,1067,1089,1109,1128,1147,1167,1187,1207,1229,1247,1268,1289,1309,1327,1348,1367],"xSR":741.5,"ySR":469.95,"xT1":424.9,"yT1":0,"xT2":1058.1,"yT2":0,"toosoon":0,"cond_shown":"equaldotanddens","ratio_trial":900,"smaller_num":"18","larger_num":"20","correct_side":2,"subjID":"JulianaGaspar29","gender":"1","age":"8","school":"4"},{"start_time":1552074157773,"click_time":1552074159360,"finger_time":1552074158622,"fix_duration":590.5122328683179,"trial":20,"RT":849,"MT":738,"sideResp":2,"stimulus":"img/900/equaldotsize/R/11_Ratio_900_L_18_R_20.png","xmouse":[817,817,817,817,817,817,817,817,817,817,817,817,817,817,817,817,817,817,817,817,817,817,817,817,817,817,817,817,817,817,817,817,817,817,817,817,817,817,817,818,820,824,852,870,890,909,939,950,964,976,990,1014,1042,1054,1065,1073,1086,1091,1097,1103,1108,1111,1111,1111,1111,1111,1111,1111,1111,1111,1111,1111,1111,1111,1111,1111,1111,1111,1111,1111],"ymouse":[515,515,515,515,515,515,515,515,515,515,515,515,515,515,515,515,515,515,515,515,515,515,515,515,515,515,515,515,515,515,515,515,515,515,515,515,515,515,515,514,512,508,485,470,452,433,396,383,368,353,334,302,255,237,217,202,177,168,158,144,129,116,108,106,105,104,103,103,103,103,103,103,102,101,100,100,100,100,100,99],"timestamp_mouse":[18,29,48,68,87,108,129,147,168,187,207,229,247,268,288,308,327,348,369,387,407,427,447,467,488,508,527,547,567,587,608,627,648,669,687,709,728,749,769,787,807,829,848,868,887,927,930,947,968,987,1007,1027,1047,1067,1087,1107,1129,1148,1169,1189,1209,1230,1247,1268,1287,1309,1328,1347,1368,1388,1408,1427,1447,1467,1488,1509,1527,1549,1568,1587],"xSR":741.5,"ySR":469.95,"xT1":424.9,"yT1":0,"xT2":1058.1,"yT2":0,"toosoon":0,"cond_shown":"equaldotsize","ratio_trial":900,"smaller_num":"18","larger_num":"20","correct_side":2,"subjID":"JulianaGaspar29","gender":"1","age":"8","school":"4"},{"start_time":1552074160534,"click_time":1552074161881,"finger_time":1552074161620,"fix_duration":250,"trial":21,"RT":1086,"MT":261,"sideResp":2,"stimulus":"img/500/equaldotsize/R/9_Ratio_500_L_2_R_4.png","xmouse":[771,771,771,771,771,771,771,771,771,771,771,772,772,772,772,772,772,772,772,772,772,772,772,772,772,772,772,772,772,772,772,772,772,772,772,772,772,772,772,772,774,775,776,776,776,776,776,777,777,780,790,794,815,832,885,916,937,951,961,979,988,997,1012,1024,1047,1055,1058,1060],"ymouse":[545,544,543,543,543,543,543,543,543,543,543,542,542,542,542,542,542,542,542,542,542,542,542,542,542,542,542,542,542,542,542,542,542,542,542,542,542,542,542,541,539,538,537,537,537,537,537,536,535,534,526,524,508,490,395,323,252,200,167,126,111,100,85,75,55,49,46,46],"timestamp_mouse":[13,33,46,67,86,106,126,147,166,186,207,227,246,267,288,306,326,346,366,386,407,427,446,466,488,506,526,548,567,586,606,626,646,666,687,706,726,748,767,786,807,827,847,867,887,907,928,948,967,986,1006,1026,1046,1066,1086,1107,1127,1146,1167,1187,1207,1227,1247,1267,1286,1306,1326,1347],"xSR":741.5,"ySR":469.95,"xT1":424.9,"yT1":0,"xT2":1058.1,"yT2":0,"toosoon":0,"cond_shown":"equaldotsize","ratio_trial":500,"smaller_num":"2","larger_num":"4","correct_side":2,"subjID":"JulianaGaspar29","gender":"1","age":"8","school":"4"},{"start_time":1552074164380,"click_time":1552074165522,"finger_time":1552074165181,"fix_duration":1357.0950365759163,"trial":22,"RT":801,"MT":341,"sideResp":2,"stimulus":"img/900/equaldotsize/R/5_Ratio_900_L_9_R_10.png","xmouse":[789,789,789,789,789,789,789,789,789,789,789,789,789,789,789,789,789,789,789,789,789,789,789,789,789,789,789,789,789,789,790,795,799,800,801,803,806,810,823,831,849,877,949,993,1036,1063,1085,1142,1157,1166,1168,1168,1168,1167,1165,1163,1157,1151],"ymouse":[510,510,510,510,510,510,510,510,510,510,510,510,510,510,510,510,510,510,510,510,510,510,510,510,510,510,510,510,510,510,510,509,506,505,504,503,500,497,483,473,460,440,388,357,329,306,285,220,194,169,158,149,139,134,131,119,104,89],"timestamp_mouse":[9,20,42,60,80,100,120,140,162,180,201,220,241,262,281,300,320,341,360,380,401,421,441,461,480,500,521,541,561,581,601,621,641,660,681,701,721,741,761,781,801,820,841,860,881,901,920,941,960,980,1000,1020,1041,1061,1081,1100,1121,1141],"xSR":741.5,"ySR":469.95,"xT1":424.9,"yT1":0,"xT2":1058.1,"yT2":0,"toosoon":0,"cond_shown":"equaldotsize","ratio_trial":900,"smaller_num":"9","larger_num":"10","correct_side":2,"subjID":"JulianaGaspar29","gender":"1","age":"8","school":"4"},{"start_time":1552074168113,"click_time":1552074169441,"finger_time":1552074169102,"fix_duration":250,"trial":23,"RT":989,"MT":339,"sideResp":1,"stimulus":"img/900/randomdotsizeEA/R/6_Ratio_900_L_9_R_10.png","xmouse":[801,801,801,801,801,801,801,801,801,801,801,801,801,801,801,801,801,801,801,801,801,801,801,801,801,801,801,801,801,801,801,801,801,801,801,801,801,801,801,801,801,801,801,801,801,801,798,793,786,770,754,725,711,700,691,681,664,655,643,631,611,586,575,564,556,542,503],"ymouse":[533,533,533,533,533,533,533,533,533,533,533,533,533,533,533,533,533,533,533,533,533,533,533,533,533,533,533,533,533,533,533,533,533,533,533,533,533,533,533,533,533,533,533,533,533,530,513,495,475,443,415,357,332,311,294,277,248,230,213,197,174,146,137,129,123,114,96],"timestamp_mouse":[10,27,48,67,88,107,129,147,169,187,207,227,247,267,288,308,328,347,367,387,407,427,448,469,487,508,528,547,568,588,608,628,648,669,687,708,727,747,768,787,807,827,847,868,888,908,927,947,967,989,1007,1027,1047,1067,1087,1108,1127,1147,1168,1188,1207,1228,1247,1269,1287,1308,1327],"xSR":741.5,"ySR":469.95,"xT1":424.9,"yT1":0,"xT2":1058.1,"yT2":0,"toosoon":0,"cond_shown":"randomdotsizeEA","ratio_trial":900,"smaller_num":"9","larger_num":"10","correct_side":2,"subjID":"JulianaGaspar29","gender":"1","age":"8","school":"4"},{"start_time":1552074170413,"click_time":1552074171441,"finger_time":1552074171020,"fix_duration":250,"trial":24,"RT":607,"MT":421,"sideResp":2,"stimulus":"img/900/randomdotsizeEA/R/15_Ratio_900_L_9_R_10.png","xmouse":[789,789,789,789,789,789,789,789,789,789,789,789,789,789,789,789,789,789,789,789,789,789,789,789,789,789,792,799,811,829,849,882,898,909,917,922,940,949,957,968,980,995,1001,1005,1006,1014,1025,1031,1037,1048,1055,1065],"ymouse":[520,520,520,520,520,520,520,520,520,520,520,520,520,520,520,520,520,520,520,520,520,520,520,520,520,520,518,510,498,483,466,429,410,393,379,368,337,321,309,291,270,239,223,210,207,189,164,153,137,119,102,80],"timestamp_mouse":[7,40,48,67,87,108,127,147,168,189,208,227,249,268,288,307,329,348,369,388,408,428,447,467,488,507,527,548,568,588,607,628,647,667,688,707,727,747,769,788,807,828,848,867,888,907,928,948,969,988,1008,1028],"xSR":741.5,"ySR":469.95,"xT1":424.9,"yT1":0,"xT2":1058.1,"yT2":0,"toosoon":0,"cond_shown":"randomdotsizeEA","ratio_trial":900,"smaller_num":"9","larger_num":"10","correct_side":2,"subjID":"JulianaGaspar29","gender":"1","age":"8","school":"4"},{"start_time":1552074173832,"click_time":1552074175800,"finger_time":1552074175320,"fix_duration":250,"trial":25,"RT":1488,"MT":480,"sideResp":2,"stimulus":"img/900/equaldotanddens/R/7_Ratio_900_L_9_R_10.png","xmouse":[783,783,783,783,783,783,783,783,783,783,783,783,783,783,783,783,783,783,783,783,783,783,783,783,783,783,783,783,783,783,783,783,783,783,783,783,783,783,783,783,783,783,783,783,783,783,783,783,783,783,783,783,783,783,783,783,783,783,783,783,783,783,783,783,783,783,783,783,783,783,780,769,759,749,737,719,716,717,727,749,791,875,891,903,919,935,978,1019,1051,1072,1088,1101,1103,1105,1108,1110,1110,1110,1110],"ymouse":[537,537,537,537,537,537,537,537,537,537,537,537,537,537,537,537,537,537,537,537,537,537,537,537,537,537,537,537,537,537,537,537,537,537,537,537,537,537,537,537,537,537,537,537,537,537,537,537,537,537,537,537,537,537,537,537,537,537,537,537,537,537,537,537,537,537,537,537,537,535,532,516,502,485,462,421,411,403,392,372,343,286,276,267,254,243,217,196,183,175,165,157,154,149,144,129,119,108,98],"timestamp_mouse":[10,41,49,69,88,109,129,150,169,189,209,228,249,269,288,308,329,349,369,388,409,429,448,469,489,510,529,549,569,589,608,629,649,668,690,709,730,749,769,788,809,829,848,869,889,909,929,949,969,989,1008,1028,1049,1069,1090,1110,1129,1148,1169,1189,1210,1230,1249,1269,1288,1309,1329,1349,1369,1390,1409,1428,1449,1469,1488,1510,1528,1548,1569,1590,1609,1628,1649,1669,1690,1708,1728,1749,1770,1790,1808,1829,1848,1868,1889,1910,1928,1949,1968],"xSR":741.5,"ySR":469.95,"xT1":424.9,"yT1":0,"xT2":1058.1,"yT2":0,"toosoon":0,"cond_shown":"equaldotanddens","ratio_trial":900,"smaller_num":"9","larger_num":"10","correct_side":2,"subjID":"JulianaGaspar29","gender":"1","age":"8","school":"4"},{"start_time":1552074178068,"click_time":1552074179361,"finger_time":1552074178601,"fix_duration":1347.0628608646693,"trial":26,"RT":533,"MT":760,"sideResp":2,"stimulus":"img/500/randomdotsizeEA/R/1_Ratio_500_L_9_R_18.png","xmouse":[781,781,781,781,781,781,781,781,781,781,781,781,781,781,781,781,781,781,781,781,781,781,781,781,791,815,850,889,905,914,915,916,917,920,926,930,935,945,954,985,1008,1037,1076,1122,1189,1204,1209,1218,1218,1218,1218,1218,1218,1218,1218,1218,1218,1218,1218,1218,1218,1218,1218,1125,1123],"ymouse":[521,521,521,521,521,521,521,521,521,521,521,521,521,521,521,521,521,521,521,521,521,521,521,521,521,520,515,513,513,513,512,511,508,503,495,486,476,461,448,408,378,334,272,207,90,46,35,6,6,6,6,6,6,6,6,6,6,6,6,6,6,6,6,0,2],"timestamp_mouse":[13,40,52,72,93,114,132,152,172,193,212,232,252,273,294,313,333,352,373,392,413,434,454,473,492,512,533,553,572,592,612,633,653,674,693,713,733,752,772,793,812,833,852,873,892,912,933,953,972,993,1012,1032,1053,1073,1093,1112,1133,1153,1173,1192,1213,1232,1254,1273,1293],"xSR":741.5,"ySR":469.95,"xT1":424.9,"yT1":0,"xT2":1058.1,"yT2":0,"toosoon":0,"cond_shown":"randomdotsizeEA","ratio_trial":500,"smaller_num":"9","larger_num":"18","correct_side":2,"subjID":"JulianaGaspar29","gender":"1","age":"8","school":"4"},{"start_time":1552074181869,"click_time":1552074183181,"finger_time":1552074182961,"fix_duration":1127.7659265273546,"trial":27,"RT":1092,"MT":220,"sideResp":1,"stimulus":"img/500/randomdotsizeEA/L/10_Ratio_500_L_4_R_2.png","xmouse":[782,782,782,782,782,782,782,782,782,782,782,782,782,782,782,782,782,782,782,782,782,782,782,782,782,782,782,782,782,782,782,782,782,782,782,782,782,782,782,782,782,782,782,782,782,782,782,782,782,783,785,789,791,796,803,803,802,798,794,782,770,751,722,684,581,518],"ymouse":[509,509,509,509,509,509,509,509,509,509,509,509,509,509,509,509,509,509,509,509,509,509,509,509,509,509,509,509,509,509,509,509,509,509,509,509,509,509,509,509,509,509,509,509,509,509,509,509,509,509,508,505,500,489,440,393,369,354,340,317,297,267,226,178,87,54],"timestamp_mouse":[14,33,51,72,92,112,132,151,172,191,211,232,253,271,292,313,331,351,372,393,413,432,452,471,491,511,532,552,571,592,612,632,652,672,691,713,732,751,773,792,812,832,851,871,892,911,932,952,972,991,1012,1032,1051,1071,1092,1112,1132,1151,1172,1193,1212,1233,1253,1272,1292,1311],"xSR":741.5,"ySR":469.95,"xT1":424.9,"yT1":0,"xT2":1058.1,"yT2":0,"toosoon":0,"cond_shown":"randomdotsizeEA","ratio_trial":500,"smaller_num":"2","larger_num":"4","correct_side":1,"subjID":"JulianaGaspar29","gender":"1","age":"8","school":"4"},{"start_time":1552074185108,"click_time":1552074185980,"finger_time":1552074185700,"fix_duration":805.5179134733479,"trial":28,"RT":592,"MT":280,"sideResp":1,"stimulus":"img/500/equaldotsize/L/13_Ratio_500_L_12_R_6.png","xmouse":[813,813,813,813,813,813,813,813,813,813,813,813,813,813,813,813,813,812,811,812,813,815,818,823,825,828,830,832,839,844,849,849,850,849,842,831,814,773,740,700,653,608,545,503],"ymouse":[513,513,513,513,513,513,513,513,513,513,513,513,513,513,513,513,513,514,514,512,511,510,507,502,501,499,498,496,490,484,475,472,449,441,433,421,408,366,321,266,203,154,95,65],"timestamp_mouse":[14,39,54,72,93,113,132,154,173,192,212,234,254,273,292,312,333,352,373,393,412,433,453,472,492,514,532,552,573,592,613,632,655,672,693,712,733,755,772,792,813,833,852,872],"xSR":741.5,"ySR":469.95,"xT1":424.9,"yT1":0,"xT2":1058.1,"yT2":0,"toosoon":0,"cond_shown":"equaldotsize","ratio_trial":500,"smaller_num":"6","larger_num":"12","correct_side":1,"subjID":"JulianaGaspar29","gender":"1","age":"8","school":"4"},{"start_time":1552074187968,"click_time":1552074188822,"finger_time":1552074188580,"fix_duration":885.9718801990875,"trial":29,"RT":612,"MT":242,"sideResp":2,"stimulus":"img/250/randomdotsizeEA/R/11_Ratio_250_L_3_R_12.png","xmouse":[784,784,784,784,784,784,784,784,784,784,784,784,784,784,784,784,784,784,784,784,784,784,784,784,784,784,784,785,785,787,807,829,858,887,910,940,952,971,983,992,1017,1039,1060],"ymouse":[521,521,521,521,521,521,521,521,521,521,521,521,521,521,521,521,521,521,521,521,521,521,521,521,521,521,521,517,511,502,462,430,384,333,289,225,199,166,146,128,93,65,40],"timestamp_mouse":[13,42,52,72,93,112,132,153,174,192,212,234,253,273,293,312,334,353,373,392,412,432,454,473,493,512,533,552,573,592,612,633,653,673,693,713,732,752,773,794,813,832,853],"xSR":741.5,"ySR":469.95,"xT1":424.9,"yT1":0,"xT2":1058.1,"yT2":0,"toosoon":0,"cond_shown":"randomdotsizeEA","ratio_trial":250,"smaller_num":"3","larger_num":"12","correct_side":2,"subjID":"JulianaGaspar29","gender":"1","age":"8","school":"4"},{"start_time":1552074190641,"click_time":1552074191482,"finger_time":1552074191181,"fix_duration":738.821335384427,"trial":30,"RT":540,"MT":301,"sideResp":2,"stimulus":"img/500/equaldotanddens/R/14_Ratio_500_L_5_R_10.png","xmouse":[767,767,768,770,770,772,772,772,772,773,774,774,774,774,775,776,776,777,777,777,777,779,779,781,784,788,795,816,834,862,901,937,991,1010,1021,1030,1038,1043,1050,1055,1062,1072,1092],"ymouse":[509,509,509,509,509,509,509,509,509,509,510,510,510,510,510,510,510,510,510,510,510,510,510,510,508,504,497,466,444,409,366,323,253,220,202,189,179,173,161,153,143,130,95],"timestamp_mouse":[1,20,40,60,79,100,119,139,160,181,199,221,240,260,280,299,320,340,360,380,399,420,440,460,479,499,521,540,559,580,599,619,640,661,680,701,720,740,759,779,799,819,840],"xSR":741.5,"ySR":469.95,"xT1":424.9,"yT1":0,"xT2":1058.1,"yT2":0,"toosoon":0,"cond_shown":"equaldotanddens","ratio_trial":500,"smaller_num":"5","larger_num":"10","correct_side":2,"subjID":"JulianaGaspar29","gender":"1","age":"8","school":"4"},{"start_time":1552074192866,"click_time":1552074194000,"finger_time":1552074193542,"fix_duration":544.2062097824227,"trial":31,"RT":676,"MT":458,"sideResp":1,"stimulus":"img/250/equaldotsize/L/3_Ratio_250_L_8_R_2.png","xmouse":[790,790,790,790,790,790,790,790,790,790,790,790,790,790,790,790,790,790,790,790,790,790,790,790,790,790,790,790,790,790,786,780,769,753,730,705,658,642,632,625,622,621,618,616,612,601,593,585,577,568,555,542,537,532,530,526,524],"ymouse":[539,539,539,539,539,539,539,539,539,539,539,539,539,539,539,539,539,539,539,539,539,540,540,540,540,540,540,540,540,538,522,503,477,439,388,331,237,210,194,186,181,179,177,175,172,162,153,143,135,124,109,96,90,86,83,80,79],"timestamp_mouse":[15,35,54,74,95,115,134,154,175,194,215,235,256,275,295,315,334,354,375,395,414,434,456,475,495,515,535,556,574,594,615,634,654,676,695,714,735,754,776,794,814,834,854,874,894,915,934,955,974,995,1014,1034,1054,1074,1094,1114,1134],"xSR":741.5,"ySR":469.95,"xT1":424.9,"yT1":0,"xT2":1058.1,"yT2":0,"toosoon":0,"cond_shown":"equaldotsize","ratio_trial":250,"smaller_num":"2","larger_num":"8","correct_side":1,"subjID":"JulianaGaspar29","gender":"1","age":"8","school":"4"},{"start_time":1552074195942,"click_time":1552074196821,"finger_time":1552074196500,"fix_duration":1279.7021217854249,"trial":32,"RT":558,"MT":321,"sideResp":2,"stimulus":"img/250/equaldotsize/R/9_Ratio_250_L_3_R_12.png","xmouse":[798,798,798,798,798,798,798,798,798,798,798,798,798,798,799,799,799,799,799,799,799,804,806,808,808,808,812,822,854,871,886,898,911,954,981,1010,1029,1033,1034,1034,1034,1034,1037,1066,1104],"ymouse":[519,519,519,519,519,518,517,516,516,516,516,516,516,516,515,515,514,513,512,512,512,511,511,511,511,509,503,495,465,443,422,399,376,299,242,192,156,147,144,144,144,144,141,111,80],"timestamp_mouse":[1,18,41,58,78,99,119,139,159,179,199,218,239,259,279,299,319,339,358,379,399,419,439,458,479,500,519,538,558,578,598,618,638,659,680,699,718,738,758,778,799,818,839,859,878],"xSR":741.5,"ySR":469.95,"xT1":424.9,"yT1":0,"xT2":1058.1,"yT2":0,"toosoon":0,"cond_shown":"equaldotsize","ratio_trial":250,"smaller_num":"3","larger_num":"12","correct_side":2,"subjID":"JulianaGaspar29","gender":"1","age":"8","school":"4"},{"start_time":1552074198894,"click_time":1552074199901,"finger_time":1552074199420,"fix_duration":1132.500579406781,"trial":33,"RT":526,"MT":481,"sideResp":2,"stimulus":"img/250/equaldotsize/R/9_Ratio_250_L_3_R_12.png","xmouse":[788,788,788,788,788,788,788,788,788,788,788,788,788,788,788,788,788,788,788,788,788,789,793,800,810,829,882,906,931,961,1012,1032,1050,1061,1071,1089,1095,1098,1098,1099,1099,1099,1099,1099,1099,1099,1099,1100,1102,1104,1104],"ymouse":[504,504,504,504,504,504,504,504,504,504,504,504,504,504,504,504,504,504,504,504,504,502,498,494,486,475,428,401,367,324,249,227,208,198,189,176,170,167,166,164,163,163,163,163,163,163,163,154,139,119,97],"timestamp_mouse":[9,26,47,67,88,106,128,146,168,187,206,226,246,268,287,306,327,347,366,387,408,427,447,466,488,506,526,546,566,586,607,627,647,667,686,708,726,747,768,787,807,827,846,867,886,908,926,947,967,986,1007],"xSR":741.5,"ySR":469.95,"xT1":424.9,"yT1":0,"xT2":1058.1,"yT2":0,"toosoon":0,"cond_shown":"equaldotsize","ratio_trial":250,"smaller_num":"3","larger_num":"12","correct_side":2,"subjID":"JulianaGaspar29","gender":"1","age":"8","school":"4"},{"start_time":1552074202326,"click_time":1552074208040,"finger_time":1552074203720,"fix_duration":1141.6868897915656,"trial":34,"RT":1394,"MT":4320,"sideResp":1,"stimulus":"img/750/equaldotsize/L/9_Ratio_750_L_4_R_3.png","xmouse":[770,770,770,770,770,770,770,770,770,770,770,770,770,770,770,770,770,770,770,770,770,770,770,770,770,770,770,770,770,770,770,770,770,770,770,770,770,770,770,770,770,771,771,771,771,771,771,771,771,771,771,771,771,771,771,771,771,771,771,771,771,771,771,771,771,771,771,772,772,774,774,776,776,776,776,776,776,776,776,776,776,776,776,776,776,776,776,776,776,776,776,776,776,776,776,776,776,776,776,776,776,776,776,776,776,776,777,779,782,788,790,791,791,791,792,792,793,795,797,800,802,802,802,802,804,804,807,809,810,810,810,810,810,810,810,810,810,810,810,810,810,810,810,810,810,810,810,810,810,810,810,810,810,810,810,810,810,810,810,810,810,810,810,810,810,810,810,810,810,810,810,810,811,815,827,827,827,827,827,827,827,827,827,827,827,827,827,827,827,827,827,827,827,827,827,827,827,827,827,827,827,827,827,827,827,827,827,827,827,827,827,827,827,827,827,827,827,827,827,827,827,827,827,827,827,827,828,828,828,828,828,828,828,828,828,828,828,828,828,829,828,827,819,802,751,708,638,565,489,421,303,290,287,287,287,287,287,287,287,287,287,291,299,312,336,346,355,364,374,388,388,388,388,388,388,388,388,388,388,388,394,403,413,422,431,441],"ymouse":[501,501,501,501,501,501,501,501,501,501,501,501,501,501,501,501,501,501,501,501,501,501,501,501,501,501,501,501,501,501,501,501,501,501,501,501,501,501,501,501,501,501,499,495,495,495,495,495,495,495,495,495,495,495,495,495,495,495,495,495,495,495,495,495,495,495,492,486,478,452,436,418,400,367,328,318,312,309,309,309,309,309,309,309,309,309,309,309,309,309,309,309,309,309,309,309,309,309,309,309,309,309,309,309,309,309,309,309,309,308,308,308,308,308,308,310,312,317,319,322,324,325,325,325,326,326,326,326,326,326,326,326,326,326,326,326,326,326,326,326,326,326,326,326,326,326,326,326,326,326,326,326,326,326,326,326,326,326,326,326,326,326,326,326,326,326,326,326,326,326,326,326,326,327,338,338,338,338,338,338,338,338,338,338,338,338,338,338,338,338,338,338,338,338,338,338,338,338,338,338,338,338,338,338,338,338,338,338,338,338,338,338,338,338,338,338,338,338,338,338,338,338,338,338,338,338,338,338,338,338,338,338,338,338,338,338,338,338,338,337,328,328,328,328,326,314,296,275,253,234,201,194,193,193,193,193,193,193,193,191,187,184,178,171,159,155,153,152,149,146,146,146,146,146,146,146,146,146,146,146,142,134,123,112,102,90],"timestamp_mouse":[14,40,55,75,95,116,135,154,174,195,215,234,256,274,295,315,334,355,375,403,415,435,455,476,494,516,536,555,575,596,614,635,656,675,696,716,734,755,775,794,814,834,856,874,895,914,935,956,976,996,1014,1035,1055,1075,1096,1115,1134,1155,1176,1195,1214,1235,1256,1274,1295,1314,1334,1355,1374,1394,1415,1435,1456,1475,1494,1514,1535,1555,1574,1594,1615,1634,1655,1676,1694,1715,1734,1754,1775,1795,1815,1834,1854,1875,1894,1915,1935,1954,1976,1996,2016,2035,2055,2075,2095,2114,2135,2154,2174,2194,2215,2234,2254,2275,2294,2315,2335,2355,2375,2394,2415,2434,2455,2474,2495,2514,2534,2555,2575,2594,2615,2634,2655,2675,2694,2715,2736,2755,2774,2794,2815,2835,2855,2874,2894,2914,2935,2955,2974,2995,3015,3036,3055,3075,3095,3115,3135,3155,3175,3194,3215,3235,3255,3275,3295,3315,3334,3354,3374,3395,3415,3435,3454,3474,3494,3516,3535,3555,3574,3594,3615,3635,3654,3674,3695,3715,3734,3755,3776,3796,3816,3835,3855,3874,3894,3914,3934,3954,3976,3994,4014,4034,4054,4075,4094,4114,4135,4155,4175,4195,4215,4235,4255,4275,4295,4315,4335,4354,4376,4394,4415,4435,4455,4474,4496,4515,4535,4555,4574,4595,4615,4634,4654,4674,4695,4714,4734,4755,4775,4794,4815,4835,4855,4874,4894,4914,4934,4955,4974,4994,5014,5034,5054,5074,5096,5114,5134,5154,5174,5194,5214,5234,5254,5274,5294,5314,5335,5355,5374,5395,5415,5434,5454,5475,5494,5514,5534,5555,5574,5594,5614,5634,5655,5678,5695,5714],"xSR":741.5,"ySR":469.95,"xT1":424.9,"yT1":0,"xT2":1058.1,"yT2":0,"toosoon":0,"cond_shown":"equaldotsize","ratio_trial":750,"smaller_num":"3","larger_num":"4","correct_side":1,"subjID":"JulianaGaspar29","gender":"1","age":"8","school":"4"},{"start_time":1552074211952,"click_time":1552074213241,"finger_time":1552074212620,"fix_duration":609.756816776977,"trial":35,"RT":668,"MT":621,"sideResp":1,"stimulus":"img/250/equaldotanddens/L/14_Ratio_250_L_12_R_3.png","xmouse":[780,780,780,780,780,780,780,780,780,780,780,780,780,780,780,780,780,780,780,780,780,780,780,780,780,780,780,780,780,781,780,774,765,750,711,688,666,659,654,646,643,640,634,628,606,590,580,580,580,580,580,424,411,404,396,394,391,391,391,394,397,403,413,424,447],"ymouse":[549,549,549,549,549,549,549,549,549,549,549,549,549,549,549,549,549,549,549,549,549,549,549,549,549,549,549,549,549,543,529,508,483,439,340,289,234,215,198,165,146,123,97,70,26,9,3,3,3,3,3,3,11,15,22,26,29,31,32,37,39,43,45,46,49],"timestamp_mouse":[10,30,49,70,88,108,130,149,168,188,208,229,248,269,289,309,328,349,369,390,409,428,448,468,488,509,529,548,568,588,608,628,648,668,688,708,728,749,769,789,808,828,848,869,889,910,928,949,968,989,1008,1029,1049,1068,1088,1109,1128,1149,1168,1188,1208,1229,1250,1268,1289],"xSR":741.5,"ySR":469.95,"xT1":424.9,"yT1":0,"xT2":1058.1,"yT2":0,"toosoon":0,"cond_shown":"equaldotanddens","ratio_trial":250,"smaller_num":"3","larger_num":"12","correct_side":1,"subjID":"JulianaGaspar29","gender":"1","age":"8","school":"4"},{"start_time":1552074214533,"click_time":1552074215741,"finger_time":1552074215340,"fix_duration":250,"trial":36,"RT":807,"MT":401,"sideResp":1,"stimulus":"img/900/equaldotanddens/L/8_Ratio_900_L_20_R_18.png","xmouse":[785,785,783,782,781,780,779,779,779,779,778,778,778,778,778,778,778,778,778,778,778,778,778,778,778,778,778,778,778,778,779,783,787,790,794,799,803,806,809,810,805,800,793,784,772,731,665,626,590,571,561,555,554,554,554,553,552,549,540,531,515],"ymouse":[535,535,527,525,523,521,520,520,520,519,518,517,517,517,517,517,517,517,517,517,517,517,517,517,517,517,517,517,517,517,517,518,519,519,519,515,510,503,487,475,450,437,425,413,400,365,307,263,216,184,163,144,141,140,139,134,126,119,100,89,71],"timestamp_mouse":[17,28,48,67,88,107,127,148,168,189,207,228,248,267,288,308,327,348,367,387,409,428,448,469,488,507,528,547,567,588,607,627,648,667,688,707,728,748,768,787,807,827,847,869,887,907,927,948,968,987,1007,1027,1047,1067,1087,1107,1128,1147,1167,1188,1208],"xSR":741.5,"ySR":469.95,"xT1":424.9,"yT1":0,"xT2":1058.1,"yT2":0,"toosoon":0,"cond_shown":"equaldotanddens","ratio_trial":900,"smaller_num":"18","larger_num":"20","correct_side":1,"subjID":"JulianaGaspar29","gender":"1","age":"8","school":"4"},{"start_time":1552074217392,"click_time":1552074218321,"finger_time":1552074218160,"fix_duration":510.4299495153388,"trial":37,"RT":768,"MT":161,"sideResp":1,"stimulus":"img/250/randomdotsizeEA/L/14_Ratio_250_L_12_R_3.png","xmouse":[804,804,804,804,804,804,804,804,804,804,804,804,804,804,804,804,805,805,804,803,802,801,800,799,799,799,799,798,796,794,793,791,791,791,791,791,789,787,776,767,752,729,634,583,534,503,484],"ymouse":[520,520,520,520,520,520,520,520,520,520,520,520,520,520,520,520,520,519,516,514,511,509,506,505,504,503,502,501,499,497,496,494,494,494,494,494,489,486,459,439,411,374,256,201,151,107,77],"timestamp_mouse":[9,40,49,69,89,109,129,148,170,190,209,228,248,268,290,309,328,349,368,388,410,429,449,468,488,509,528,548,568,590,609,630,648,669,689,709,729,748,768,789,809,829,850,868,888,909,928],"xSR":741.5,"ySR":469.95,"xT1":424.9,"yT1":0,"xT2":1058.1,"yT2":0,"toosoon":0,"cond_shown":"randomdotsizeEA","ratio_trial":250,"smaller_num":"3","larger_num":"12","correct_side":1,"subjID":"JulianaGaspar29","gender":"1","age":"8","school":"4"},{"start_time":1552074220300,"click_time":1552074221161,"finger_time":1552074220981,"fix_duration":1057.7400218907926,"trial":38,"RT":681,"MT":180,"sideResp":1,"stimulus":"img/250/randomdotsizeEA/L/3_Ratio_250_L_8_R_2.png","xmouse":[786,786,786,784,784,784,784,784,784,784,784,784,784,784,784,784,784,784,784,784,784,784,784,784,784,784,784,784,784,780,776,772,769,757,747,728,722,699,657,628,597,556,512,449],"ymouse":[512,512,512,512,512,512,512,512,512,512,512,512,512,512,512,512,512,512,512,512,512,512,512,512,512,512,512,512,512,511,507,503,498,481,466,433,423,385,317,285,253,218,173,87],"timestamp_mouse":[9,20,41,61,82,100,120,140,162,180,201,221,241,261,281,300,321,341,360,381,402,420,441,462,482,500,520,542,560,580,600,622,641,660,681,700,721,740,760,780,800,820,841,861],"xSR":741.5,"ySR":469.95,"xT1":424.9,"yT1":0,"xT2":1058.1,"yT2":0,"toosoon":0,"cond_shown":"randomdotsizeEA","ratio_trial":250,"smaller_num":"2","larger_num":"8","correct_side":1,"subjID":"JulianaGaspar29","gender":"1","age":"8","school":"4"},{"start_time":1552074222955,"click_time":1552074224720,"finger_time":1552074223680,"fix_duration":651.8149762288905,"trial":39,"RT":725,"MT":1040,"sideResp":2,"stimulus":"img/900/equaldotanddens/R/3_Ratio_900_L_9_R_10.png","xmouse":[773,773,773,773,773,773,773,773,773,773,773,773,773,773,773,773,773,773,773,773,773,773,773,773,773,773,773,773,773,773,773,776,778,782,788,810,826,842,859,872,886,892,899,904,912,927,933,937,940,941,941,942,950,980,1050,1196,1244,1259,1265,1265,1258,1256,1256,1256,1256,1256,1255,1251,1246,1243,1241,1239,1239,1239,1238,1234,1233,1232,1230,1225,1202,1184,1180,1180,1180,1179,1175,1167,1158],"ymouse":[513,513,513,513,513,513,513,513,513,513,513,513,513,513,513,513,513,513,513,513,513,513,513,513,513,513,513,513,513,513,513,510,508,505,501,482,467,451,433,414,390,379,366,357,345,318,301,285,273,265,261,259,250,241,224,185,156,141,127,121,118,118,118,118,118,118,118,118,118,118,117,116,116,115,114,110,109,109,107,102,87,76,73,73,73,73,73,71,68],"timestamp_mouse":[10,39,45,66,86,106,125,145,166,185,206,226,245,266,286,306,326,345,366,386,407,427,446,465,486,506,526,546,565,586,605,625,645,667,685,705,725,746,766,787,806,825,845,865,887,906,925,945,965,985,1006,1025,1045,1065,1086,1105,1125,1145,1165,1186,1206,1226,1245,1265,1286,1306,1325,1345,1365,1385,1406,1425,1445,1465,1485,1506,1525,1545,1566,1586,1606,1625,1645,1666,1686,1706,1725,1746,1765],"xSR":741.5,"ySR":469.95,"xT1":424.9,"yT1":0,"xT2":1058.1,"yT2":0,"toosoon":0,"cond_shown":"equaldotanddens","ratio_trial":900,"smaller_num":"9","larger_num":"10","correct_side":2,"subjID":"JulianaGaspar29","gender":"1","age":"8","school":"4"},{"start_time":1552074226974,"click_time":1552074227920,"finger_time":1552074227521,"fix_duration":1251.4286140161678,"trial":40,"RT":547,"MT":399,"sideResp":1,"stimulus":"img/900/randomdotsizeEA/L/2_Ratio_900_L_20_R_18.png","xmouse":[771,771,771,771,771,771,771,771,771,771,771,771,771,771,772,773,773,774,775,776,779,781,784,788,794,822,841,855,870,883,900,903,903,903,903,901,895,880,860,837,774,750,722,689,607,563,531,510],"ymouse":[530,530,530,530,530,530,530,530,530,530,530,530,530,530,530,529,528,527,526,526,524,523,521,519,515,497,483,472,458,444,411,403,398,395,394,393,391,389,386,381,354,331,287,226,99,54,28,15],"timestamp_mouse":[15,39,46,66,87,106,127,146,166,187,206,227,247,266,287,306,326,346,366,386,406,426,447,467,487,506,527,547,567,587,607,626,646,667,688,706,726,747,767,786,806,826,847,867,888,906,926,946],"xSR":741.5,"ySR":469.95,"xT1":424.9,"yT1":0,"xT2":1058.1,"yT2":0,"toosoon":0,"cond_shown":"randomdotsizeEA","ratio_trial":900,"smaller_num":"18","larger_num":"20","correct_side":1,"subjID":"JulianaGaspar29","gender":"1","age":"8","school":"4"},{"start_time":1552074229560,"click_time":1552074230901,"finger_time":1552074230080,"fix_duration":637.9649943903137,"trial":41,"RT":520,"MT":821,"sideResp":2,"stimulus":"img/250/equaldotsize/R/11_Ratio_250_L_3_R_12.png","xmouse":[755,755,755,755,755,755,755,755,755,755,755,755,755,755,755,755,755,755,755,757,758,761,766,775,790,809,857,875,895,920,931,945,948,951,953,953,956,960,965,975,992,1001,1005,1014,1023,1030,1039,1041,1041,1042,1042,1043,1045,1046,1049,1054,1064,1067,1067,1067,1067,1068,1068,1069,1070,1071,1073,1073],"ymouse":[492,492,492,492,492,492,492,492,492,492,492,492,492,492,492,492,492,492,492,492,492,492,490,487,481,472,445,428,405,356,320,244,220,206,202,201,199,196,192,184,176,173,172,170,167,165,161,159,158,157,155,149,145,138,132,122,110,107,107,107,107,106,106,106,105,104,102,99],"timestamp_mouse":[10,37,41,61,81,101,121,140,160,180,201,221,240,260,280,301,320,340,360,381,400,422,440,461,481,500,520,541,560,580,600,621,640,660,681,700,721,741,762,780,800,821,840,860,880,900,920,940,961,980,1000,1020,1040,1060,1081,1101,1120,1141,1161,1181,1200,1220,1241,1260,1280,1301,1320,1341],"xSR":741.5,"ySR":469.95,"xT1":424.9,"yT1":0,"xT2":1058.1,"yT2":0,"toosoon":0,"cond_shown":"equaldotsize","ratio_trial":250,"smaller_num":"3","larger_num":"12","correct_side":2,"subjID":"JulianaGaspar29","gender":"1","age":"8","school":"4"},{"start_time":1552074234000,"click_time":1552074235200,"finger_time":1552074234660,"fix_duration":758.3302520027053,"trial":42,"RT":660,"MT":540,"sideResp":1,"stimulus":"img/900/randomdotsizeEA/L/1_Ratio_900_L_10_R_9.png","xmouse":[821,821,821,821,821,821,821,821,821,821,821,821,821,821,821,821,821,821,821,821,821,816,808,803,803,803,803,803,803,803,803,804,807,807,812,813,815,817,817,817,803,791,772,752,701,678,650,619,592,566,564,564,564,564,564,564,564,563,559,540,449],"ymouse":[506,506,506,506,506,506,506,506,506,506,506,506,506,506,506,506,506,506,506,506,506,497,483,475,475,475,475,475,475,475,475,473,470,466,435,425,414,404,396,388,365,353,340,324,271,238,195,153,119,84,81,81,81,81,81,81,81,79,79,74,48],"timestamp_mouse":[10,35,42,60,80,101,122,142,161,180,201,220,240,261,281,300,320,340,362,380,400,420,440,462,482,501,521,541,561,580,600,621,640,660,682,701,720,740,760,780,800,821,841,861,882,900,921,941,961,981,1000,1020,1040,1062,1081,1100,1120,1140,1160,1181,1200],"xSR":741.5,"ySR":469.95,"xT1":424.9,"yT1":0,"xT2":1058.1,"yT2":0,"toosoon":0,"cond_shown":"randomdotsizeEA","ratio_trial":900,"smaller_num":"9","larger_num":"10","correct_side":1,"subjID":"JulianaGaspar29","gender":"1","age":"8","school":"4"},{"start_time":1552074237209,"click_time":1552074238461,"finger_time":1552074237820,"fix_duration":826.2367430229298,"trial":43,"RT":611,"MT":641,"sideResp":1,"stimulus":"img/750/randomdotsizeEA/L/13_Ratio_750_L_8_R_6.png","xmouse":[821,821,821,821,821,821,821,821,821,821,821,821,821,821,821,821,821,821,821,821,821,821,821,821,821,821,821,821,816,809,801,789,778,751,696,662,641,624,612,595,590,584,577,573,572,572,573,575,577,578,573,565,555,551,551,551,551,551,551,547,539,526,504],"ymouse":[535,535,535,535,535,535,535,535,535,535,535,535,535,535,535,535,535,535,535,535,535,535,535,535,535,530,524,517,484,470,459,443,428,405,366,347,333,322,312,291,281,272,257,250,244,239,230,215,198,163,144,121,103,95,95,95,95,95,94,91,87,81,71],"timestamp_mouse":[28,42,51,71,91,113,132,152,172,191,212,232,252,272,291,312,332,351,372,392,411,432,452,472,493,511,532,551,573,591,611,631,653,671,692,711,732,752,771,792,811,831,852,873,892,912,931,952,971,991,1011,1031,1051,1072,1092,1111,1133,1152,1172,1191,1211,1232,1252],"xSR":741.5,"ySR":469.95,"xT1":424.9,"yT1":0,"xT2":1058.1,"yT2":0,"toosoon":0,"cond_shown":"randomdotsizeEA","ratio_trial":750,"smaller_num":"6","larger_num":"8","correct_side":1,"subjID":"JulianaGaspar29","gender":"1","age":"8","school":"4"},{"start_time":1552074242327,"click_time":1552074243620,"finger_time":1552074242840,"fix_duration":404.3360865268388,"trial":44,"RT":513,"MT":780,"sideResp":1,"stimulus":"img/500/equaldotsize/L/13_Ratio_500_L_12_R_6.png","xmouse":[771,771,771,771,771,771,771,771,771,772,772,772,772,773,775,775,775,776,776,777,779,782,785,794,799,801,801,798,775,756,727,680,612,532,386,386,386,386,386,386,386,386,386,386,386,386,386,386,386,386,386,386,386,386,390,400,406,408,409,410,410,410,410,417,426],"ymouse":[516,516,516,516,516,516,516,516,516,516,514,513,512,512,511,511,511,511,511,510,509,507,504,490,471,455,439,420,378,355,318,271,213,144,3,3,3,3,3,3,3,3,3,3,3,3,3,3,3,3,3,3,3,3,14,23,27,29,31,32,32,32,32,37,41],"timestamp_mouse":[13,36,53,74,93,114,134,153,173,193,213,233,254,274,294,313,333,354,373,393,413,434,453,474,494,513,533,554,573,593,613,633,653,674,694,714,735,755,774,795,814,834,854,874,894,913,933,953,974,993,1013,1033,1055,1073,1095,1113,1134,1153,1173,1193,1213,1233,1254,1274,1293],"xSR":741.5,"ySR":469.95,"xT1":424.9,"yT1":0,"xT2":1058.1,"yT2":0,"toosoon":0,"cond_shown":"equaldotsize","ratio_trial":500,"smaller_num":"6","larger_num":"12","correct_side":1,"subjID":"JulianaGaspar29","gender":"1","age":"8","school":"4"},{"start_time":1552074245291,"click_time":1552074246521,"finger_time":1552074245940,"fix_duration":250,"trial":45,"RT":649,"MT":581,"sideResp":1,"stimulus":"img/750/equaldotsize/L/10_Ratio_750_L_4_R_3.png","xmouse":[779,779,779,779,779,779,779,779,779,779,779,779,779,779,779,779,779,779,779,779,778,778,778,778,778,778,778,778,778,778,781,785,792,805,805,812,823,826,830,830,830,814,802,787,771,740,700,684,668,655,639,598,583,575,572,572,572,571,567,557,539,495],"ymouse":[503,503,503,503,503,503,503,503,503,503,503,503,503,503,503,503,503,503,503,501,501,501,501,501,501,501,501,501,501,500,492,482,469,433,433,416,392,383,370,361,351,322,307,291,275,250,211,194,174,153,127,67,47,35,30,29,29,29,29,29,27,13],"timestamp_mouse":[10,30,49,71,90,110,130,149,170,190,210,230,251,269,289,309,329,349,369,389,410,430,449,469,491,510,529,550,571,589,610,629,649,682,690,709,729,749,770,789,810,829,850,870,890,909,929,949,970,989,1009,1029,1049,1069,1089,1109,1129,1149,1170,1190,1211,1230],"xSR":741.5,"ySR":469.95,"xT1":424.9,"yT1":0,"xT2":1058.1,"yT2":0,"toosoon":0,"cond_shown":"equaldotsize","ratio_trial":750,"smaller_num":"3","larger_num":"4","correct_side":1,"subjID":"JulianaGaspar29","gender":"1","age":"8","school":"4"},{"start_time":1552074250105,"click_time":1552074251360,"finger_time":1552074250760,"fix_duration":442.12793265557946,"trial":46,"RT":655,"MT":600,"sideResp":1,"stimulus":"img/900/equaldotsize/L/10_Ratio_900_L_20_R_18.png","xmouse":[809,809,809,809,809,809,809,809,809,809,809,809,809,809,809,809,809,809,809,809,809,809,809,809,809,809,809,809,809,809,809,800,781,739,679,550,499,464,444,432,418,412,403,398,393,387,387,387,387,389,390,391,392,394,396,399,404,406,408,411,414,422,425],"ymouse":[483,483,483,483,483,483,483,483,483,483,483,483,483,483,483,483,483,483,483,483,483,483,483,483,483,483,483,483,483,483,483,479,464,434,391,309,277,249,229,212,182,167,150,138,125,110,107,103,98,95,92,91,91,90,89,88,86,86,84,84,83,82,81],"timestamp_mouse":[15,36,56,77,96,115,136,157,175,195,216,235,256,276,295,315,337,355,375,395,416,437,456,476,496,515,535,555,575,596,615,636,655,675,695,716,735,756,775,796,816,837,856,875,895,916,935,955,975,996,1016,1036,1055,1076,1095,1115,1135,1155,1175,1195,1215,1236,1255],"xSR":741.5,"ySR":469.95,"xT1":424.9,"yT1":0,"xT2":1058.1,"yT2":0,"toosoon":0,"cond_shown":"equaldotsize","ratio_trial":900,"smaller_num":"18","larger_num":"20","correct_side":1,"subjID":"JulianaGaspar29","gender":"1","age":"8","school":"4"},{"start_time":1552074253815,"click_time":1552074254820,"finger_time":1552074254341,"fix_duration":1132.3561146444154,"trial":47,"RT":526,"MT":479,"sideResp":1,"stimulus":"img/250/equaldotanddens/L/5_Ratio_250_L_24_R_6.png","xmouse":[759,759,759,759,759,759,759,759,759,759,759,759,759,759,759,759,759,759,759,759,759,759,759,759,759,755,732,704,669,625,525,488,467,452,442,430,426,423,423,422,422,422,422,422,422,422,422,422,423,423,426],"ymouse":[529,529,529,529,529,529,529,529,529,529,529,529,529,529,529,529,529,529,529,529,529,529,529,529,529,528,509,489,465,433,349,303,265,234,203,126,109,101,98,98,98,98,98,98,98,98,97,97,95,95,93],"timestamp_mouse":[14,27,49,65,86,105,126,145,165,185,206,227,246,266,285,305,326,346,365,385,405,426,446,467,486,505,526,546,565,586,607,626,645,666,686,707,726,745,766,785,806,826,847,866,887,907,926,946,965,986,1005],"xSR":741.5,"ySR":469.95,"xT1":424.9,"yT1":0,"xT2":1058.1,"yT2":0,"toosoon":0,"cond_shown":"equaldotanddens","ratio_trial":250,"smaller_num":"6","larger_num":"24","correct_side":1,"subjID":"JulianaGaspar29","gender":"1","age":"8","school":"4"},{"start_time":1552074257221,"click_time":1552074258681,"finger_time":1552074258122,"fix_duration":1179.726588111302,"trial":48,"RT":901,"MT":559,"sideResp":2,"stimulus":"img/750/equaldotsize/R/12_Ratio_750_L_3_R_4.png","xmouse":[765,765,765,765,765,765,765,765,765,765,765,765,765,765,765,765,765,765,765,765,765,765,765,765,765,765,765,765,765,765,765,765,765,765,765,767,769,772,773,775,778,792,803,827,840,853,879,894,906,914,917,921,924,937,948,956,959,961,962,964,968,988,1006,1014,1020,1021,1022,1022,1022,1023,1027,1044,1055,1068],"ymouse":[522,522,522,522,522,522,522,522,522,522,522,522,522,522,522,522,522,522,522,522,522,522,522,522,522,522,522,522,522,522,522,522,522,522,522,521,519,518,517,517,515,509,502,484,470,450,413,393,376,361,350,324,309,277,255,235,222,207,205,203,199,189,178,171,164,161,154,151,150,148,142,118,103,85],"timestamp_mouse":[9,20,40,59,80,100,119,140,159,179,199,220,240,259,279,299,320,339,361,380,401,419,440,459,481,500,520,541,561,580,600,620,639,661,680,700,719,739,760,780,799,819,840,859,879,901,919,939,959,979,999,1020,1040,1059,1079,1100,1119,1139,1160,1179,1199,1219,1240,1259,1279,1299,1320,1340,1359,1380,1399,1420,1439,1460],"xSR":741.5,"ySR":469.95,"xT1":424.9,"yT1":0,"xT2":1058.1,"yT2":0,"toosoon":0,"cond_shown":"equaldotsize","ratio_trial":750,"smaller_num":"3","larger_num":"4","correct_side":2,"subjID":"JulianaGaspar29","gender":"1","age":"8","school":"4"},{"start_time":1552074260000,"click_time":1552074261081,"finger_time":1552074260601,"fix_duration":458.67495680175665,"trial":49,"RT":601,"MT":480,"sideResp":2,"stimulus":"img/500/equaldotanddens/R/2_Ratio_500_L_3_R_6.png","xmouse":[795,795,795,795,795,795,795,795,795,795,795,795,795,795,795,795,795,795,795,795,795,795,795,795,795,797,799,815,826,840,857,873,911,937,958,982,1010,1025,1037,1040,1041,1042,1049,1052,1055,1057,1058,1060,1060,1061,1062,1065,1068,1077,1079],"ymouse":[519,519,519,519,519,519,519,519,519,519,519,519,519,519,519,519,519,519,519,519,519,519,519,519,519,516,514,497,486,471,452,433,381,324,276,224,181,154,132,128,126,124,118,116,113,110,109,106,106,105,105,105,104,100,98],"timestamp_mouse":[10,20,40,61,82,100,120,140,160,181,200,220,240,261,282,300,321,340,360,381,401,421,440,461,480,501,521,541,560,581,601,620,641,660,681,700,720,741,760,780,801,820,842,860,880,900,922,941,960,981,1001,1021,1041,1060,1080],"xSR":741.5,"ySR":469.95,"xT1":424.9,"yT1":0,"xT2":1058.1,"yT2":0,"toosoon":0,"cond_shown":"equaldotanddens","ratio_trial":500,"smaller_num":"3","larger_num":"6","correct_side":2,"subjID":"JulianaGaspar29","gender":"1","age":"8","school":"4"},{"start_time":1552074263793,"click_time":1552074264942,"finger_time":1552074264441,"fix_duration":250,"trial":50,"RT":648,"MT":501,"sideResp":2,"stimulus":"img/500/randomdotsizeEA/R/3_Ratio_500_L_10_R_20.png","xmouse":[803,803,803,803,803,803,803,803,803,803,803,803,803,803,803,803,803,803,803,803,803,803,803,803,803,803,803,803,803,803,803,820,868,1017,1083,1132,1158,1171,1190,1203,1227,1241,1254,1273,1279,1281,1281,1281,1281,1281,1279,1266,1253,1219,1201,1185,1170,1154],"ymouse":[514,514,514,514,514,514,514,514,514,514,514,514,514,514,514,514,514,514,514,514,514,514,514,514,514,514,514,514,514,514,514,514,514,483,459,435,416,398,355,317,245,196,150,84,65,52,46,43,41,40,38,32,27,20,17,17,17,17],"timestamp_mouse":[10,35,47,69,88,107,129,147,168,189,207,228,247,269,288,307,328,348,368,387,409,428,448,467,487,507,529,547,567,588,607,628,648,668,688,708,728,748,767,787,807,828,847,868,887,907,927,947,968,987,1007,1027,1047,1067,1087,1107,1127,1148],"xSR":741.5,"ySR":469.95,"xT1":424.9,"yT1":0,"xT2":1058.1,"yT2":0,"toosoon":0,"cond_shown":"randomdotsizeEA","ratio_trial":500,"smaller_num":"10","larger_num":"20","correct_side":2,"subjID":"JulianaGaspar29","gender":"1","age":"8","school":"4"},{"start_time":1552074266192,"click_time":1552074267280,"finger_time":1552074266760,"fix_duration":250,"trial":51,"RT":568,"MT":520,"sideResp":2,"stimulus":"img/500/equaldotanddens/R/3_Ratio_500_L_10_R_20.png","xmouse":[795,795,795,795,795,795,795,795,795,795,795,795,795,795,793,792,792,792,792,792,792,792,792,792,792,793,798,815,895,944,1009,1042,1075,1126,1138,1147,1151,1156,1161,1163,1173,1177,1180,1184,1184,1184,1184,1184,1184,1179,1173,1170,1167,1160,1157],"ymouse":[490,490,490,490,490,490,490,490,490,490,490,490,490,490,490,490,490,490,490,490,490,490,490,490,490,490,486,476,410,364,303,265,220,148,134,122,115,110,104,100,87,79,72,56,52,51,51,51,50,47,46,45,44,43,42],"timestamp_mouse":[13,36,48,70,89,109,128,148,168,189,209,228,248,270,288,308,330,350,368,388,409,429,448,468,488,509,528,548,568,588,608,628,648,668,688,708,728,750,769,788,808,828,849,869,888,908,928,950,968,988,1008,1029,1049,1069,1088],"xSR":741.5,"ySR":469.95,"xT1":424.9,"yT1":0,"xT2":1058.1,"yT2":0,"toosoon":0,"cond_shown":"equaldotanddens","ratio_trial":500,"smaller_num":"10","larger_num":"20","correct_side":2,"subjID":"JulianaGaspar29","gender":"1","age":"8","school":"4"},{"start_time":1552074268592,"click_time":1552074269661,"finger_time":1552074269221,"fix_duration":250,"trial":52,"RT":629,"MT":440,"sideResp":2,"stimulus":"img/500/equaldotsize/R/1_Ratio_500_L_9_R_18.png","xmouse":[770,770,770,770,770,770,770,770,770,770,770,770,770,770,770,770,770,770,770,770,770,770,770,770,770,770,772,777,781,810,830,858,890,940,965,990,1012,1030,1053,1067,1077,1086,1090,1101,1103,1104,1105,1105,1105,1105,1105,1105,1104,1102],"ymouse":[533,533,533,533,533,533,533,533,533,533,533,533,533,533,533,533,533,533,533,533,533,533,533,533,533,533,532,530,527,509,496,476,447,390,359,325,295,269,240,223,208,194,183,158,148,142,138,134,128,127,123,117,108,88],"timestamp_mouse":[9,29,48,68,89,108,128,148,168,188,209,229,249,268,288,309,328,349,368,390,409,429,449,468,490,509,528,549,568,589,608,629,649,670,688,708,729,749,769,788,809,829,849,870,888,908,928,948,970,988,1008,1028,1048,1069],"xSR":741.5,"ySR":469.95,"xT1":424.9,"yT1":0,"xT2":1058.1,"yT2":0,"toosoon":0,"cond_shown":"equaldotsize","ratio_trial":500,"smaller_num":"9","larger_num":"18","correct_side":2,"subjID":"JulianaGaspar29","gender":"1","age":"8","school":"4"},{"start_time":1552074271487,"click_time":1552074273142,"finger_time":1552074272021,"fix_duration":845.551296416125,"trial":53,"RT":534,"MT":1121,"sideResp":2,"stimulus":"img/500/randomdotsizeEA/R/6_Ratio_500_L_9_R_18.png","xmouse":[815,815,815,815,815,815,815,815,815,815,815,815,815,815,815,815,815,815,815,815,815,815,815,818,832,839,846,851,855,859,860,862,864,869,874,881,891,905,925,987,1036,1098,1164,1229,1335,1364,1364,1364,1364,1364,1364,1364,1364,1364,1364,1364,1364,1364,1364,1364,1364,1364,1364,1256,1239,1236,1231,1225,1218,1200,1191,1182,1181,1179,1178,1178,1178,1178,1176,1167,1161,1159,1154],"ymouse":[493,493,493,493,493,493,493,493,493,493,493,493,493,493,493,493,493,493,493,493,493,493,492,489,476,470,465,461,458,453,452,450,447,442,437,431,423,412,398,357,321,270,217,161,45,4,4,4,4,4,4,4,4,4,4,4,4,4,4,4,4,4,4,5,12,13,16,18,21,28,32,37,37,39,39,39,39,40,42,47,51,52,54],"timestamp_mouse":[13,42,53,73,94,113,133,153,173,194,215,234,254,273,293,314,335,353,375,395,413,434,454,474,494,513,534,554,573,593,614,633,655,674,693,714,733,754,773,793,813,834,853,873,893,913,933,953,973,994,1013,1033,1053,1073,1094,1113,1135,1153,1173,1193,1214,1233,1254,1273,1294,1313,1334,1353,1374,1393,1414,1433,1454,1473,1494,1514,1534,1554,1573,1594,1614,1633,1655],"xSR":741.5,"ySR":469.95,"xT1":424.9,"yT1":0,"xT2":1058.1,"yT2":0,"toosoon":0,"cond_shown":"randomdotsizeEA","ratio_trial":500,"smaller_num":"9","larger_num":"18","correct_side":2,"subjID":"JulianaGaspar29","gender":"1","age":"8","school":"4"},{"start_time":1552074277082,"click_time":1552074277941,"finger_time":1552074277680,"fix_duration":1240.3242790465717,"trial":54,"RT":598,"MT":261,"sideResp":2,"stimulus":"img/900/equaldotanddens/R/12_Ratio_900_L_18_R_20.png","xmouse":[781,781,781,781,781,781,781,781,781,781,781,781,781,781,781,781,781,781,781,781,781,781,781,781,782,785,790,804,824,893,947,976,997,1016,1035,1040,1044,1047,1051,1056,1059,1061,1062],"ymouse":[538,538,538,538,538,538,538,538,538,538,538,538,538,538,538,538,538,538,538,538,538,538,538,538,536,532,526,509,486,396,324,283,252,225,189,178,164,151,141,121,112,103,97],"timestamp_mouse":[19,39,59,80,98,118,138,158,178,198,219,239,258,278,299,318,338,358,378,400,419,438,459,479,498,518,538,559,578,598,618,638,658,678,699,718,739,758,778,799,818,838,859],"xSR":741.5,"ySR":469.95,"xT1":424.9,"yT1":0,"xT2":1058.1,"yT2":0,"toosoon":0,"cond_shown":"equaldotanddens","ratio_trial":900,"smaller_num":"18","larger_num":"20","correct_side":2,"subjID":"JulianaGaspar29","gender":"1","age":"8","school":"4"},{"start_time":1552074278972,"click_time":1552074279782,"finger_time":1552074279520,"fix_duration":250,"trial":55,"RT":548,"MT":262,"sideResp":2,"stimulus":"img/900/equaldotanddens/L/4_Ratio_900_L_20_R_18.png","xmouse":[795,795,795,795,795,795,795,795,795,795,795,795,795,795,795,795,795,795,795,795,795,795,797,799,803,806,831,851,874,895,949,976,995,1006,1020,1027,1040,1048,1054,1064,1085],"ymouse":[527,526,526,526,526,526,526,526,526,526,526,526,526,526,526,526,526,526,526,526,526,526,526,525,520,517,489,466,439,408,335,295,265,245,218,204,171,153,139,119,74],"timestamp_mouse":[8,34,48,69,89,109,129,149,169,188,209,229,249,269,288,309,329,350,369,389,410,430,449,469,489,508,528,548,569,589,610,628,648,669,689,708,730,749,768,788,810],"xSR":741.5,"ySR":469.95,"xT1":424.9,"yT1":0,"xT2":1058.1,"yT2":0,"toosoon":0,"cond_shown":"equaldotanddens","ratio_trial":900,"smaller_num":"18","larger_num":"20","correct_side":1,"subjID":"JulianaGaspar29","gender":"1","age":"8","school":"4"},{"start_time":1552074280952,"click_time":1552074282081,"finger_time":1552074281561,"fix_duration":250,"trial":56,"RT":609,"MT":520,"sideResp":2,"stimulus":"img/250/equaldotsize/R/9_Ratio_250_L_3_R_12.png","xmouse":[759,764,768,770,770,770,770,770,770,770,771,774,775,777,780,781,782,784,784,784,784,784,784,784,785,787,788,798,805,811,819,830,852,869,893,902,931,962,971,981,990,1000,1010,1015,1015,1016,1017,1022,1026,1032,1037,1040,1047,1050,1055,1057,1060],"ymouse":[532,533,534,534,534,534,534,534,534,534,534,534,533,531,529,528,527,524,524,524,524,524,524,524,523,520,519,505,492,476,458,431,374,336,274,251,180,125,106,90,75,57,39,33,33,31,31,29,29,29,29,29,33,34,35,36,36],"timestamp_mouse":[19,39,48,70,88,108,128,148,168,188,208,230,249,269,288,308,328,349,368,388,409,430,449,469,488,508,529,550,568,589,609,628,649,669,688,709,729,749,769,788,809,828,849,868,888,909,929,948,969,988,1008,1028,1048,1068,1088,1109,1129],"xSR":741.5,"ySR":469.95,"xT1":424.9,"yT1":0,"xT2":1058.1,"yT2":0,"toosoon":0,"cond_shown":"equaldotsize","ratio_trial":250,"smaller_num":"3","larger_num":"12","correct_side":2,"subjID":"JulianaGaspar29","gender":"1","age":"8","school":"4"},{"start_time":1552074284595,"click_time":1552074286140,"finger_time":1552074285600,"fix_duration":1293.7940899184691,"trial":57,"RT":1005,"MT":540,"sideResp":1,"stimulus":"img/250/equaldotsize/L/3_Ratio_250_L_8_R_2.png","xmouse":[788,788,788,788,788,788,788,788,788,788,788,788,788,788,788,788,788,788,788,788,788,788,788,788,788,788,788,788,788,788,788,788,788,788,788,788,788,788,788,788,788,788,788,788,788,788,788,788,788,784,769,752,742,731,720,704,695,689,683,677,661,652,634,623,611,585,567,548,530,515,492,483,479,478,476,474,470,467],"ymouse":[500,500,500,500,500,500,500,500,500,500,500,500,500,500,500,500,500,500,500,500,500,500,500,500,500,500,500,500,500,500,500,500,500,500,500,500,500,500,500,500,500,500,500,500,500,500,500,500,500,492,469,437,416,395,372,328,307,291,277,264,236,221,197,185,174,152,141,130,122,119,112,109,107,107,105,104,100,97],"timestamp_mouse":[12,39,45,65,86,105,127,146,165,185,206,227,246,266,285,305,325,346,365,386,407,426,446,465,486,505,527,546,565,585,606,626,646,665,686,707,725,747,766,786,805,826,846,866,887,905,925,946,965,985,1005,1025,1045,1065,1086,1106,1125,1145,1166,1185,1207,1225,1245,1265,1286,1306,1325,1346,1366,1385,1405,1425,1445,1465,1485,1506,1525,1545],"xSR":741.5,"ySR":469.95,"xT1":424.9,"yT1":0,"xT2":1058.1,"yT2":0,"toosoon":0,"cond_shown":"equaldotsize","ratio_trial":250,"smaller_num":"2","larger_num":"8","correct_side":1,"subjID":"JulianaGaspar29","gender":"1","age":"8","school":"4"},{"start_time":1552074288053,"click_time":1552074289061,"finger_time":1552074288681,"fix_duration":1051.3625099914539,"trial":58,"RT":628,"MT":380,"sideResp":2,"stimulus":"img/500/equaldotanddens/R/12_Ratio_500_L_1_R_2.png","xmouse":[802,802,802,802,802,802,802,802,802,802,802,802,802,802,802,802,802,802,802,802,802,802,802,802,803,805,807,810,816,823,841,866,898,966,1005,1040,1057,1078,1096,1103,1107,1108,1108,1108,1110,1111,1114,1117,1118,1119,1121],"ymouse":[505,505,505,505,505,505,505,505,505,505,505,505,505,505,505,505,505,505,505,505,505,505,505,505,505,506,507,510,516,517,518,518,515,494,474,445,418,368,300,270,245,217,201,178,168,157,142,124,117,108,97],"timestamp_mouse":[9,35,48,67,89,107,128,147,169,188,207,228,248,269,289,307,328,348,368,388,408,427,448,468,487,507,528,548,567,587,608,628,647,667,687,707,729,747,768,787,809,827,848,867,887,907,927,949,967,987,1008],"xSR":741.5,"ySR":469.95,"xT1":424.9,"yT1":0,"xT2":1058.1,"yT2":0,"toosoon":0,"cond_shown":"equaldotanddens","ratio_trial":500,"smaller_num":"1","larger_num":"2","correct_side":2,"subjID":"JulianaGaspar29","gender":"1","age":"8","school":"4"},{"start_time":1552074290253,"click_time":1552074291020,"finger_time":1552074290741,"fix_duration":250,"trial":59,"RT":488,"MT":279,"sideResp":2,"stimulus":"img/500/equaldotsize/R/3_Ratio_500_L_10_R_20.png","xmouse":[765,765,765,765,765,765,765,765,765,765,765,765,765,765,765,765,765,765,765,765,765,771,777,831,864,892,917,930,955,973,993,1013,1036,1075,1086,1096,1112,1120,1137],"ymouse":[513,513,513,513,513,513,513,513,513,513,513,513,513,513,513,513,513,513,513,513,513,513,513,498,484,464,439,421,379,347,308,271,234,174,155,140,115,100,68],"timestamp_mouse":[8,27,48,67,87,108,128,148,167,188,207,227,248,268,289,308,327,347,369,388,407,427,447,467,488,508,529,547,567,588,607,628,647,667,687,708,727,747,767],"xSR":741.5,"ySR":469.95,"xT1":424.9,"yT1":0,"xT2":1058.1,"yT2":0,"toosoon":0,"cond_shown":"equaldotsize","ratio_trial":500,"smaller_num":"10","larger_num":"20","correct_side":2,"subjID":"JulianaGaspar29","gender":"1","age":"8","school":"4"},{"start_time":1552074292800,"click_time":1552074294002,"finger_time":1552074293420,"fix_duration":1078.9613448207126,"trial":60,"RT":620,"MT":582,"sideResp":1,"stimulus":"img/750/equaldotsize/L/13_Ratio_750_L_8_R_6.png","xmouse":[772,772,772,772,772,772,772,772,772,772,772,772,772,772,773,774,775,776,778,779,780,782,783,784,785,787,791,791,792,792,792,792,791,786,777,766,730,711,691,680,666,648,611,599,587,577,557,553,553,553,553,553,553,553,553,553,553,553,553,553,453],"ymouse":[532,532,532,532,532,532,532,532,532,532,532,532,532,532,530,529,527,525,522,520,519,516,514,513,511,509,503,498,495,489,482,468,457,441,419,394,328,296,259,238,214,184,120,97,74,51,13,5,5,5,5,5,5,5,5,5,5,5,5,5,2],"timestamp_mouse":[10,22,41,60,81,100,122,141,162,182,201,221,240,262,281,301,322,341,360,381,400,420,441,462,481,501,520,541,560,581,600,620,640,660,680,700,721,741,761,781,800,820,840,861,880,900,921,941,960,980,1000,1022,1041,1060,1080,1100,1121,1140,1160,1180,1202],"xSR":741.5,"ySR":469.95,"xT1":424.9,"yT1":0,"xT2":1058.1,"yT2":0,"toosoon":0,"cond_shown":"equaldotsize","ratio_trial":750,"smaller_num":"6","larger_num":"8","correct_side":1,"subjID":"JulianaGaspar29","gender":"1","age":"8","school":"4"},{"start_time":1552074295568,"click_time":1552074297182,"finger_time":1552074296040,"fix_duration":825.191808644286,"trial":61,"RT":472,"MT":1142,"sideResp":1,"stimulus":"img/750/equaldotanddens/L/10_Ratio_750_L_4_R_3.png","xmouse":[799,800,800,800,800,800,800,800,800,800,800,800,800,800,800,800,800,800,801,804,808,814,822,837,842,844,847,852,854,858,862,865,870,873,875,876,878,882,884,885,885,885,885,885,885,883,880,858,800,748,683,608,479,427,384,355,331,298,290,287,287,287,287,287,287,287,287,287,287,287,287,287,287,287,367,376,387,395,410,419,425],"ymouse":[533,531,531,531,531,531,531,531,531,531,531,531,531,531,531,531,531,531,528,522,515,504,489,457,445,439,432,419,414,408,402,396,384,379,373,369,365,356,349,347,345,345,344,344,344,344,344,340,328,320,312,296,240,203,168,138,106,53,30,15,3,3,3,3,3,3,3,3,3,3,3,3,3,3,18,26,33,36,40,44,47],"timestamp_mouse":[28,37,52,72,92,112,132,152,172,192,212,232,252,272,292,313,333,352,373,392,412,432,452,472,493,512,533,554,572,592,614,633,653,672,693,713,734,754,772,792,813,832,852,873,893,912,933,952,972,992,1013,1033,1054,1072,1093,1112,1132,1153,1172,1192,1212,1232,1254,1272,1292,1312,1332,1354,1372,1392,1413,1432,1453,1472,1492,1512,1533,1553,1573,1592,1614],"xSR":741.5,"ySR":469.95,"xT1":424.9,"yT1":0,"xT2":1058.1,"yT2":0,"toosoon":0,"cond_shown":"equaldotanddens","ratio_trial":750,"smaller_num":"3","larger_num":"4","correct_side":1,"subjID":"JulianaGaspar29","gender":"1","age":"8","school":"4"},{"start_time":1552074299489,"click_time":1552074300521,"finger_time":1552074300060,"fix_duration":1187.8970849586265,"trial":62,"RT":571,"MT":461,"sideResp":1,"stimulus":"img/250/randomdotsizeEA/L/14_Ratio_250_L_12_R_3.png","xmouse":[788,787,787,787,787,787,787,787,787,787,787,787,787,787,787,787,787,787,787,787,787,787,787,787,787,787,787,785,775,771,754,740,707,691,676,664,653,645,629,620,602,593,574,570,565,563,561,556,549,536,528,518],"ymouse":[519,521,524,524,524,524,524,524,524,524,524,524,524,524,524,524,524,524,524,524,524,524,524,524,524,519,512,482,456,447,420,405,376,364,353,341,328,316,284,263,231,215,190,184,177,172,167,150,132,104,91,78],"timestamp_mouse":[13,35,51,71,92,113,131,152,173,192,212,233,252,272,291,312,332,352,371,391,413,433,452,473,492,511,532,551,571,591,611,632,653,671,691,712,731,751,771,791,812,831,852,871,893,911,931,952,972,991,1012,1032],"xSR":741.5,"ySR":469.95,"xT1":424.9,"yT1":0,"xT2":1058.1,"yT2":0,"toosoon":0,"cond_shown":"randomdotsizeEA","ratio_trial":250,"smaller_num":"3","larger_num":"12","correct_side":1,"subjID":"JulianaGaspar29","gender":"1","age":"8","school":"4"},{"start_time":1552074302978,"click_time":1552074303980,"finger_time":1552074303581,"fix_duration":1454.542948630635,"trial":63,"RT":603,"MT":399,"sideResp":1,"stimulus":"img/250/equaldotanddens/L/14_Ratio_250_L_12_R_3.png","xmouse":[801,801,801,801,801,801,801,801,801,801,801,801,801,801,801,801,801,801,801,801,801,801,801,801,801,800,797,790,770,756,742,726,711,697,672,648,630,604,584,572,564,559,554,548,544,539,532,528,525,525,524],"ymouse":[527,527,527,527,527,527,527,527,527,527,527,527,527,527,527,527,527,527,527,527,527,527,527,527,527,527,527,521,497,477,456,433,412,392,343,294,267,234,205,189,176,165,155,133,121,111,99,92,86,85,85],"timestamp_mouse":[12,22,45,64,83,102,123,142,163,184,203,223,244,262,283,302,322,343,363,382,403,422,443,462,482,502,523,543,562,582,603,622,643,663,683,702,723,742,762,783,802,823,843,863,884,903,924,942,962,982,1002],"xSR":741.5,"ySR":469.95,"xT1":424.9,"yT1":0,"xT2":1058.1,"yT2":0,"toosoon":0,"cond_shown":"equaldotanddens","ratio_trial":250,"smaller_num":"3","larger_num":"12","correct_side":1,"subjID":"JulianaGaspar29","gender":"1","age":"8","school":"4"},{"start_time":1552074304932,"click_time":1552074306221,"finger_time":1552074305820,"fix_duration":250,"trial":64,"RT":888,"MT":401,"sideResp":1,"stimulus":"img/500/randomdotsizeEA/L/5_Ratio_500_L_4_R_2.png","xmouse":[810,810,810,810,810,810,810,810,810,810,810,810,809,809,809,809,809,809,809,809,809,809,809,809,809,809,809,809,809,809,809,809,809,809,809,809,809,809,808,806,803,790,782,772,760,719,704,688,672,659,636,629,614,598,579,557,539,534,529,526,522,512,511,508,506],"ymouse":[543,543,543,543,543,543,543,543,543,544,544,544,544,544,544,544,543,543,543,543,543,543,543,543,543,543,543,543,543,543,543,543,543,543,543,543,543,543,540,534,528,507,491,474,455,385,358,336,317,304,285,279,266,251,235,214,189,181,169,158,143,115,108,101,95],"timestamp_mouse":[8,28,49,69,89,109,129,148,169,190,209,229,248,268,289,308,329,348,370,390,409,428,449,468,489,508,529,550,569,589,609,629,649,669,690,708,729,748,768,788,809,828,849,869,888,910,928,948,968,989,1010,1028,1049,1068,1088,1108,1128,1149,1170,1189,1208,1228,1248,1268,1289],"xSR":741.5,"ySR":469.95,"xT1":424.9,"yT1":0,"xT2":1058.1,"yT2":0,"toosoon":0,"cond_shown":"randomdotsizeEA","ratio_trial":500,"smaller_num":"2","larger_num":"4","correct_side":1,"subjID":"JulianaGaspar29","gender":"1","age":"8","school":"4"},{"start_time":1552074308834,"click_time":1552074309640,"finger_time":1552074309480,"fix_duration":371.3524213871079,"trial":65,"RT":646,"MT":160,"sideResp":1,"stimulus":"img/250/equaldotanddens/L/7_Ratio_250_L_8_R_2.png","xmouse":[812,812,812,812,812,812,812,812,812,812,812,812,812,812,812,812,812,812,812,812,812,812,816,819,821,822,825,826,827,827,827,817,801,780,759,727,649,602,568,532,491],"ymouse":[557,557,557,557,557,557,557,557,557,557,557,557,557,557,557,557,557,557,557,557,557,556,551,547,543,540,529,522,514,509,502,474,448,413,376,320,213,149,102,55,9],"timestamp_mouse":[11,26,48,78,87,107,126,146,166,186,206,226,247,266,286,307,326,347,368,386,407,426,446,466,487,506,526,547,566,587,606,627,646,666,687,707,726,746,766,787,806],"xSR":741.5,"ySR":469.95,"xT1":424.9,"yT1":0,"xT2":1058.1,"yT2":0,"toosoon":0,"cond_shown":"equaldotanddens","ratio_trial":250,"smaller_num":"2","larger_num":"8","correct_side":1,"subjID":"JulianaGaspar29","gender":"1","age":"8","school":"4"},{"start_time":1552074312162,"click_time":1552074313540,"finger_time":1552074312981,"fix_duration":1440.2585611203713,"trial":66,"RT":819,"MT":559,"sideResp":1,"stimulus":"img/900/randomdotsizeEA/R/7_Ratio_900_L_9_R_10.png","xmouse":[800,800,800,800,800,800,800,800,800,800,800,800,800,800,800,800,800,800,800,800,800,800,800,800,800,800,800,800,800,800,800,800,800,800,800,800,801,801,801,797,765,752,740,734,729,729,729,728,727,720,662,625,589,560,533,528,528,528,528,528,528,528,528,528,528,527,526,522,513],"ymouse":[531,531,531,531,531,531,531,531,531,531,531,531,531,531,531,531,531,531,531,531,531,531,531,531,531,531,531,531,531,531,531,531,531,531,531,531,530,525,510,491,439,419,403,394,386,385,384,382,379,369,294,248,208,173,133,123,119,117,116,116,116,116,116,116,116,115,112,105,94],"timestamp_mouse":[34,38,58,79,99,118,138,160,179,198,218,239,258,278,299,319,338,358,378,399,420,438,458,478,498,518,540,558,579,598,620,638,658,679,699,718,738,758,779,798,819,839,859,879,900,918,939,959,978,998,1018,1038,1059,1079,1099,1118,1139,1159,1179,1199,1219,1239,1259,1280,1298,1318,1339,1359,1378],"xSR":741.5,"ySR":469.95,"xT1":424.9,"yT1":0,"xT2":1058.1,"yT2":0,"toosoon":0,"cond_shown":"randomdotsizeEA","ratio_trial":900,"smaller_num":"9","larger_num":"10","correct_side":2,"subjID":"JulianaGaspar29","gender":"1","age":"8","school":"4"},{"start_time":1552074315501,"click_time":1552074316241,"finger_time":1552074316080,"fix_duration":719.3337122986617,"trial":67,"RT":579,"MT":161,"sideResp":1,"stimulus":"img/250/equaldotsize/L/14_Ratio_250_L_12_R_3.png","xmouse":[806,806,806,806,806,806,806,806,806,806,806,806,806,806,806,806,806,806,806,806,806,806,806,806,806,806,803,801,786,771,753,728,696,643,567,534,510,493],"ymouse":[512,512,512,512,512,512,512,512,512,512,512,512,512,512,512,512,512,512,512,512,512,512,512,512,512,512,510,507,485,469,449,420,380,304,192,148,118,96],"timestamp_mouse":[10,20,43,60,80,100,121,140,159,181,199,220,240,261,281,299,319,340,359,381,399,419,440,461,480,499,520,539,561,579,599,619,639,660,680,699,720,740],"xSR":741.5,"ySR":469.95,"xT1":424.9,"yT1":0,"xT2":1058.1,"yT2":0,"toosoon