[{"start_time":1552073521510,"click_time":1552073524759,"finger_time":1552073521520,"fix_duration":847.8180572372706,"trial":0,"RT":10,"MT":3239,"sideResp":2,"stimulus":[],"xmouse":[689,700,710,717,721,723,724,724,725,727,727,727,727,731,735,741,749,756,771,778,792,802,805,809,809,809,810,810,810,810,810,810,810,810,810,810,810,810,809,808,806,803,801,800,800,800,800,800,800,800,800,800,800,800,800,800,800,800,800,800,800,800,800,800,800,800,800,800,800,800,800,800,800,800,800,800,800,800,800,800,800,800,800,800,800,799,799,799,798,798,798,798,798,798,798,798,798,798,798,798,798,798,798,798,798,798,798,798,800,807,816,829,842,864,872,874,875,875,875,875,875,875,875,875,883,902,928,967,1060,1074,1078,1078,1078,1078,1078,1079,1079,1080,1083,1084,1084,1084,1084,1083,1082,1080,1079,1075,1049,1042,1039,1039,1039,1040,1042,1043,1046,1049,1067,1075,1082,1086,1092],"ymouse":[687,681,672,661,652,647,644,640,638,636,636,636,636,636,636,636,632,627,607,588,558,536,522,508,507,507,506,506,506,506,506,506,506,506,506,506,506,506,506,506,506,507,509,510,510,510,510,510,510,510,510,510,510,510,510,510,510,510,510,510,510,510,510,510,510,510,510,510,510,510,510,510,510,510,510,510,510,510,510,510,510,510,510,510,510,510,510,510,510,510,510,510,510,510,510,510,510,510,510,510,510,510,510,510,510,510,510,508,494,480,465,448,426,398,387,385,383,383,383,383,383,383,383,383,377,368,357,340,302,294,291,290,290,290,290,289,286,282,272,266,261,253,243,228,222,217,214,206,173,163,157,153,147,140,137,133,131,127,118,116,111,106,97],"timestamp_mouse":[10,27,49,67,87,108,128,149,167,187,208,228,247,267,287,307,328,347,367,387,408,427,447,468,488,508,527,547,568,588,608,628,647,668,688,707,728,746,768,787,808,827,848,867,888,908,928,947,967,987,1008,1027,1048,1068,1087,1107,1127,1148,1168,1187,1208,1228,1247,1267,1287,1307,1328,1347,1368,1388,1407,1427,1447,1468,1487,1507,1527,1546,1568,1587,1608,1626,1647,1667,1686,1708,1727,1747,1767,1787,1807,1827,1847,1868,1887,1907,1927,1947,1968,1988,2008,2027,2047,2068,2088,2106,2128,2147,2167,2187,2207,2228,2246,2267,2287,2307,2328,2348,2367,2388,2408,2428,2448,2466,2488,2507,2528,2548,2567,2587,2608,2628,2647,2666,2687,2707,2727,2747,2767,2788,2807,2828,2848,2868,2886,2908,2927,2946,2967,2988,3006,3027,3046,3067,3088,3107,3128,3148,3167,3186,3207,3228,3248],"xSR":741.5,"ySR":500.5,"xT1":424.9,"yT1":0,"xT2":1058.1,"yT2":0,"toosoon":0,"cond_shown":"Incongruent","ratio_trial":300,"L_num":4,"L_den":5,"R_num":6,"R_den":12,"correct_side":1,"subjID":"Juliana Gaspar Mendez 29","gender":"1","age":"8","school":"4","test":{"fix_dur":[250,1500],"timestim":1000,"targets_dim":[100,100],"targets_relative_coord":[0.3,0.7],"size_stim":[880,420],"start_dim":[100,100],"size_start":[300,300],"size_fix":60,"samplingrate":20,"img_types":["Congruent","Incongruent"],"ratios":[100,200,300],"rep_conds":19,"nTrials":120,"trials_to_rest":500,"Trials_order":[83,91,51,107,16,18,46,23,11,56,74,34,9,35,22,101,119,94,19,85,55,63,59,66,37,36,117,76,68,112,15,108,20,27,57,6,110,5,75,17,8,7,105,67,30,40,73,100,44,81,54,72,104,43,49,103,89,109,65,78,98,45,25,86,96,33,10,70,50,42,97,77,14,62,88,79,111,41,47,24,106,87,38,26,99,114,12,60,32,84,28,52,93,118,0,3,61,82,58,2,71,64,95,48,113,116,80,31,29,1,102,92,13,39,21,69,115,53,90,4],"cond_shown":["Incongruent","Incongruent","Incongruent","Incongruent","Congruent","Congruent","Congruent","Incongruent","Incongruent","Congruent","Congruent","Congruent","Incongruent","Incongruent","Congruent","Incongruent","Incongruent","Congruent","Incongruent","Incongruent","Incongruent","Incongruent","Incongruent","Congruent","Incongruent","Congruent","Incongruent","Congruent","Congruent","Congruent","Incongruent","Congruent","Congruent","Incongruent","Incongruent","Congruent","Congruent","Incongruent","Incongruent","Incongruent","Congruent","Incongruent","Incongruent","Incongruent","Congruent","Congruent","Incongruent","Congruent","Congruent","Incongruent","Congruent","Congruent","Congruent","Incongruent","Incongruent","Incongruent","Incongruent","Incongruent","Incongruent","Congruent","Congruent","Incongruent","Incongruent","Congruent","Congruent","Incongruent","Congruent","Congruent","Congruent","Congruent","Incongruent","Incongruent","Congruent","Congruent","Congruent","Incongruent","Incongruent","Incongruent","Incongruent","Congruent","Congruent","Incongruent","Congruent","Congruent","Incongruent","Congruent","Congruent","Congruent","Congruent","Congruent","Congruent","Congruent","Incongruent","Congruent","Congruent","Incongruent","Incongruent","Congruent","Congruent","Congruent","Incongruent","Congruent","Incongruent","Congruent","Incongruent","Congruent","Congruent","Incongruent","Incongruent","Incongruent","Congruent","Congruent","Incongruent","Incongruent","Incongruent","Incongruent","Incongruent","Incongruent","Congruent","Congruent"],"ratio_trial":[300,100,200,300,300,100,300,300,300,200,200,300,200,300,300,300,300,300,100,100,100,200,300,100,100,100,200,300,200,300,200,100,200,200,200,100,200,300,200,300,200,100,200,100,100,300,100,300,200,200,100,100,200,100,100,100,300,100,300,100,200,200,100,200,100,200,300,300,200,100,100,300,200,200,300,100,200,300,300,100,300,200,200,200,200,100,100,100,200,100,300,300,200,300,100,200,100,300,300,200,300,300,300,100,300,200,200,100,300,100,100,200,100,200,200,200,100,300,100,300],"left_num":[4,2,9,4,1,9,12,4,4,3,7,18,1,3,5,2,4,1,11,6,11,1,13,2,9,4,3,20,6,4,4,8,3,9,4,2,5,4,14,13,14,9,7,3,15,20,1,3,16,7,11,11,8,11,4,8,13,1,8,7,15,14,6,9,6,9,11,8,8,15,11,3,12,3,8,12,4,13,13,2,1,6,12,8,11,2,3,1,3,8,4,20,11,4,15,7,6,1,1,11,4,1,13,1,13,3,6,6,1,4,6,14,8,14,7,1,10,4,11,8],"right_num":[6,8,8,8,8,8,2,2,2,7,2,9,3,4,7,6,2,8,9,7,9,3,12,6,13,6,1,8,3,13,6,2,11,8,14,11,14,2,6,12,6,6,6,11,13,13,8,2,9,14,4,6,7,9,8,1,12,8,14,9,4,12,13,13,5,8,2,10,3,13,9,4,6,14,10,2,1,12,12,11,7,3,6,3,3,11,4,3,9,2,2,5,3,13,13,14,7,6,11,3,2,8,12,3,12,14,7,13,3,8,5,6,6,12,6,3,8,2,6,1],"left_den":[5,4,15,5,30,15,24,20,20,10,21,20,2,6,25,4,20,30,22,10,22,2,26,5,15,8,10,25,15,20,5,16,10,15,6,5,10,20,30,26,28,18,15,5,25,25,2,6,30,10,22,22,15,22,8,20,26,2,10,14,25,30,10,30,20,15,22,15,15,25,22,6,15,10,15,30,30,26,26,5,20,20,20,15,20,5,20,2,12,16,5,25,20,20,25,10,10,5,5,22,20,30,26,2,26,6,12,10,2,8,20,28,16,30,15,2,25,20,22,16],"right_den":[12,20,10,16,24,16,10,4,4,14,15,15,10,20,14,30,4,24,15,14,15,10,15,12,26,10,2,16,15,26,10,5,22,10,30,22,20,4,9,15,20,10,9,22,26,26,20,10,27,28,10,15,21,15,20,2,15,20,28,15,10,18,26,26,25,10,10,12,9,26,15,20,10,28,12,4,3,15,15,22,20,6,15,9,4,22,16,5,20,5,4,10,4,26,26,28,14,12,22,10,4,24,15,5,15,20,10,26,15,20,25,20,10,18,9,10,16,4,15,5],"correct_side":[1,1,2,1,2,1,1,2,2,2,1,1,1,1,2,1,2,2,2,1,2,1,2,2,1,2,2,1,1,2,1,1,2,2,1,2,2,2,2,2,1,2,2,1,1,1,1,1,1,1,1,1,1,2,1,2,2,1,1,2,1,2,1,2,1,2,1,2,1,1,2,1,1,2,2,2,2,2,2,2,2,2,1,1,2,2,2,2,2,1,1,1,2,2,1,1,1,2,2,1,2,2,2,2,2,2,2,1,1,1,1,1,2,2,2,1,2,2,1,1],"img_shown":["img2/300/Incongruent/L/I_Dist_300_LN_4_LD_5_RN_6_RD_12_0.png","img2/100/Incongruent/L/I_Dist_100_LN_2_LD_4_RN_8_RD_20_0.png","img2/200/Incongruent/R/I_Dist_200_LN_9_LD_15_RN_8_RD_10_1.png","img2/300/Incongruent/L/I_Dist_300_LN_4_LD_5_RN_8_RD_16_0.png","img2/300/Congruent/R/C_Dist_300_LN_1_LD_30_RN_8_RD_24_1.png","img2/100/Congruent/L/C_Dist_100_LN_9_LD_15_RN_8_RD_16_0.png","img2/300/Congruent/L/C_Dist_300_LN_12_LD_24_RN_2_RD_10_0.png","img2/300/Incongruent/R/I_Dist_300_LN_4_LD_20_RN_2_RD_4_1.png","img2/300/Incongruent/R/I_Dist_300_LN_4_LD_20_RN_2_RD_4_1.png","img2/200/Congruent/R/C_Dist_200_LN_3_LD_10_RN_7_RD_14_1.png","img2/200/Congruent/L/C_Dist_200_LN_7_LD_21_RN_2_RD_15_0.png","img2/300/Congruent/L/C_Dist_300_LN_18_LD_20_RN_9_RD_15_0.png","img2/200/Incongruent/L/I_Dist_200_LN_1_LD_2_RN_3_RD_10_0.png","img2/300/Incongruent/L/I_Dist_300_LN_3_LD_6_RN_4_RD_20_0.png","img2/300/Congruent/R/C_Dist_300_LN_5_LD_25_RN_7_RD_14_1.png","img2/300/Incongruent/L/I_Dist_300_LN_2_LD_4_RN_6_RD_30_0.png","img2/300/Incongruent/R/I_Dist_300_LN_4_LD_20_RN_2_RD_4_1.png","img2/300/Congruent/R/C_Dist_300_LN_1_LD_30_RN_8_RD_24_1.png","img2/100/Incongruent/R/I_Dist_100_LN_11_LD_22_RN_9_RD_15_1.png","img2/100/Incongruent/L/I_Dist_100_LN_6_LD_10_RN_7_RD_14_0.png","img2/100/Incongruent/R/I_Dist_100_LN_11_LD_22_RN_9_RD_15_1.png","img2/200/Incongruent/L/I_Dist_200_LN_1_LD_2_RN_3_RD_10_0.png","img2/300/Incongruent/R/I_Dist_300_LN_13_LD_26_RN_12_RD_15_1.png","img2/100/Congruent/R/C_Dist_100_LN_2_LD_5_RN_6_RD_12_1.png","img2/100/Incongruent/L/I_Dist_100_LN_9_LD_15_RN_13_RD_26_0.png","img2/100/Congruent/R/C_Dist_100_LN_4_LD_8_RN_6_RD_10_1.png","img2/200/Incongruent/R/I_Dist_200_LN_3_LD_10_RN_1_RD_2_1.png","img2/300/Congruent/L/C_Dist_300_LN_20_LD_25_RN_8_RD_16_0.png","img2/200/Congruent/L/C_Dist_200_LN_6_LD_15_RN_3_RD_15_0.png","img2/300/Congruent/R/C_Dist_300_LN_4_LD_20_RN_13_RD_26_1.png","img2/200/Incongruent/L/I_Dist_200_LN_4_LD_5_RN_6_RD_10_0.png","img2/100/Congruent/L/C_Dist_100_LN_8_LD_16_RN_2_RD_5_0.png","img2/200/Congruent/R/C_Dist_200_LN_3_LD_10_RN_11_RD_22_1.png","img2/200/Incongruent/R/I_Dist_200_LN_9_LD_15_RN_8_RD_10_1.png","img2/200/Incongruent/L/I_Dist_200_LN_4_LD_6_RN_14_RD_30_0.png","img2/100/Congruent/R/C_Dist_100_LN_2_LD_5_RN_11_RD_22_1.png","img2/200/Congruent/R/C_Dist_200_LN_5_LD_10_RN_14_RD_20_1.png","img2/300/Incongruent/R/I_Dist_300_LN_4_LD_20_RN_2_RD_4_1.png","img2/200/Incongruent/R/I_Dist_200_LN_14_LD_30_RN_6_RD_9_1.png","img2/300/Incongruent/R/I_Dist_300_LN_13_LD_26_RN_12_RD_15_1.png","img2/200/Congruent/L/C_Dist_200_LN_14_LD_28_RN_6_RD_20_0.png","img2/100/Incongruent/R/I_Dist_100_LN_9_LD_18_RN_6_RD_10_1.png","img2/200/Incongruent/R/I_Dist_200_LN_7_LD_15_RN_6_RD_9_1.png","img2/100/Incongruent/L/I_Dist_100_LN_3_LD_5_RN_11_RD_22_0.png","img2/100/Congruent/L/C_Dist_100_LN_15_LD_25_RN_13_RD_26_0.png","img2/300/Congruent/L/C_Dist_300_LN_20_LD_25_RN_13_RD_26_0.png","img2/100/Incongruent/L/I_Dist_100_LN_1_LD_2_RN_8_RD_20_0.png","img2/300/Congruent/L/C_Dist_300_LN_3_LD_6_RN_2_RD_10_0.png","img2/200/Congruent/L/C_Dist_200_LN_16_LD_30_RN_9_RD_27_0.png","img2/200/Incongruent/L/I_Dist_200_LN_7_LD_10_RN_14_RD_28_0.png","img2/100/Congruent/L/C_Dist_100_LN_11_LD_22_RN_4_RD_10_0.png","img2/100/Congruent/L/C_Dist_100_LN_11_LD_22_RN_6_RD_15_0.png","img2/200/Congruent/L/C_Dist_200_LN_8_LD_15_RN_7_RD_21_0.png","img2/100/Incongruent/R/I_Dist_100_LN_11_LD_22_RN_9_RD_15_1.png","img2/100/Incongruent/L/I_Dist_100_LN_4_LD_8_RN_8_RD_20_0.png","img2/100/Incongruent/R/I_Dist_100_LN_8_LD_20_RN_1_RD_2_1.png","img2/300/Incongruent/R/I_Dist_300_LN_13_LD_26_RN_12_RD_15_1.png","img2/100/Incongruent/L/I_Dist_100_LN_1_LD_2_RN_8_RD_20_0.png","img2/300/Incongruent/L/I_Dist_300_LN_8_LD_10_RN_14_RD_28_0.png","img2/100/Congruent/R/C_Dist_100_LN_7_LD_14_RN_9_RD_15_1.png","img2/200/Congruent/L/C_Dist_200_LN_15_LD_25_RN_4_RD_10_0.png","img2/200/Incongruent/R/I_Dist_200_LN_14_LD_30_RN_12_RD_18_1.png","img2/100/Incongruent/L/I_Dist_100_LN_6_LD_10_RN_13_RD_26_0.png","img2/200/Congruent/R/C_Dist_200_LN_9_LD_30_RN_13_RD_26_1.png","img2/100/Congruent/L/C_Dist_100_LN_6_LD_20_RN_5_RD_25_0.png","img2/200/Incongruent/R/I_Dist_200_LN_9_LD_15_RN_8_RD_10_1.png","img2/300/Congruent/L/C_Dist_300_LN_11_LD_22_RN_2_RD_10_0.png","img2/300/Congruent/R/C_Dist_300_LN_8_LD_15_RN_10_RD_12_1.png","img2/200/Congruent/L/C_Dist_200_LN_8_LD_15_RN_3_RD_9_0.png","img2/100/Congruent/L/C_Dist_100_LN_15_LD_25_RN_13_RD_26_0.png","img2/100/Incongruent/R/I_Dist_100_LN_11_LD_22_RN_9_RD_15_1.png","img2/300/Incongruent/L/I_Dist_300_LN_3_LD_6_RN_4_RD_20_0.png","img2/200/Congruent/L/C_Dist_200_LN_12_LD_15_RN_6_RD_10_0.png","img2/200/Congruent/R/C_Dist_200_LN_3_LD_10_RN_14_RD_28_1.png","img2/300/Congruent/R/C_Dist_300_LN_8_LD_15_RN_10_RD_12_1.png","img2/100/Incongruent/R/I_Dist_100_LN_12_LD_30_RN_2_RD_4_1.png","img2/200/Incongruent/R/I_Dist_200_LN_4_LD_30_RN_1_RD_3_1.png","img2/300/Incongruent/R/I_Dist_300_LN_13_LD_26_RN_12_RD_15_1.png","img2/300/Incongruent/R/I_Dist_300_LN_13_LD_26_RN_12_RD_15_1.png","img2/100/Congruent/R/C_Dist_100_LN_2_LD_5_RN_11_RD_22_1.png","img2/300/Congruent/R/C_Dist_300_LN_1_LD_20_RN_7_RD_20_1.png","img2/200/Incongruent/R/I_Dist_200_LN_6_LD_20_RN_3_RD_6_1.png","img2/200/Congruent/L/C_Dist_200_LN_12_LD_20_RN_6_RD_15_0.png","img2/200/Congruent/L/C_Dist_200_LN_8_LD_15_RN_3_RD_9_0.png","img2/200/Incongruent/R/I_Dist_200_LN_11_LD_20_RN_3_RD_4_1.png","img2/100/Congruent/R/C_Dist_100_LN_2_LD_5_RN_11_RD_22_1.png","img2/100/Congruent/R/C_Dist_100_LN_3_LD_20_RN_4_RD_16_1.png","img2/100/Congruent/R/C_Dist_100_LN_1_LD_2_RN_3_RD_5_1.png","img2/200/Congruent/R/C_Dist_200_LN_3_LD_12_RN_9_RD_20_1.png","img2/100/Congruent/L/C_Dist_100_LN_8_LD_16_RN_2_RD_5_0.png","img2/300/Congruent/L/C_Dist_300_LN_4_LD_5_RN_2_RD_4_0.png","img2/300/Congruent/L/C_Dist_300_LN_20_LD_25_RN_5_RD_10_0.png","img2/200/Incongruent/R/I_Dist_200_LN_11_LD_20_RN_3_RD_4_1.png","img2/300/Congruent/R/C_Dist_300_LN_4_LD_20_RN_13_RD_26_1.png","img2/100/Congruent/L/C_Dist_100_LN_15_LD_25_RN_13_RD_26_0.png","img2/200/Incongruent/L/I_Dist_200_LN_7_LD_10_RN_14_RD_28_0.png","img2/100/Incongruent/L/I_Dist_100_LN_6_LD_10_RN_7_RD_14_0.png","img2/300/Congruent/R/C_Dist_300_LN_1_LD_5_RN_6_RD_12_1.png","img2/300/Congruent/R/C_Dist_300_LN_1_LD_5_RN_11_RD_22_1.png","img2/200/Congruent/L/C_Dist_200_LN_11_LD_22_RN_3_RD_10_0.png","img2/300/Incongruent/R/I_Dist_300_LN_4_LD_20_RN_2_RD_4_1.png","img2/300/Congruent/R/C_Dist_300_LN_1_LD_30_RN_8_RD_24_1.png","img2/300/Incongruent/R/I_Dist_300_LN_13_LD_26_RN_12_RD_15_1.png","img2/100/Congruent/R/C_Dist_100_LN_1_LD_2_RN_3_RD_5_1.png","img2/300/Incongruent/R/I_Dist_300_LN_13_LD_26_RN_12_RD_15_1.png","img2/200/Congruent/R/C_Dist_200_LN_3_LD_6_RN_14_RD_20_1.png","img2/200/Congruent/R/C_Dist_200_LN_6_LD_12_RN_7_RD_10_1.png","img2/100/Incongruent/L/I_Dist_100_LN_6_LD_10_RN_13_RD_26_0.png","img2/300/Incongruent/L/I_Dist_300_LN_1_LD_2_RN_3_RD_15_0.png","img2/100/Incongruent/L/I_Dist_100_LN_4_LD_8_RN_8_RD_20_0.png","img2/100/Congruent/L/C_Dist_100_LN_6_LD_20_RN_5_RD_25_0.png","img2/200/Congruent/L/C_Dist_200_LN_14_LD_28_RN_6_RD_20_0.png","img2/100/Incongruent/R/I_Dist_100_LN_8_LD_16_RN_6_RD_10_1.png","img2/200/Incongruent/R/I_Dist_200_LN_14_LD_30_RN_12_RD_18_1.png","img2/200/Incongruent/R/I_Dist_200_LN_7_LD_15_RN_6_RD_9_1.png","img2/200/Incongruent/L/I_Dist_200_LN_1_LD_2_RN_3_RD_10_0.png","img2/100/Incongruent/R/I_Dist_100_LN_10_LD_25_RN_8_RD_16_1.png","img2/300/Incongruent/R/I_Dist_300_LN_4_LD_20_RN_2_RD_4_1.png","img2/100/Congruent/L/C_Dist_100_LN_11_LD_22_RN_6_RD_15_0.png","img2/300/Congruent/L/C_Dist_300_LN_8_LD_16_RN_1_RD_5_0.png"],"dist100_C":[["C_Dist_100_LN_10_LD_25_RN_3_RD_10_0.png","C_Dist_100_LN_11_LD_22_RN_4_RD_10_0.png","C_Dist_100_LN_11_LD_22_RN_6_RD_15_0.png","C_Dist_100_LN_15_LD_25_RN_13_RD_26_0.png","C_Dist_100_LN_3_LD_6_RN_2_RD_5_0.png","C_Dist_100_LN_6_LD_20_RN_5_RD_25_0.png","C_Dist_100_LN_8_LD_16_RN_2_RD_5_0.png","C_Dist_100_LN_9_LD_15_RN_8_RD_16_0.png"],["C_Dist_100_LN_1_LD_2_RN_18_RD_30_1.png","C_Dist_100_LN_1_LD_2_RN_3_RD_5_1.png","C_Dist_100_LN_12_LD_30_RN_13_RD_26_1.png","C_Dist_100_LN_2_LD_5_RN_11_RD_22_1.png","C_Dist_100_LN_2_LD_5_RN_6_RD_12_1.png","C_Dist_100_LN_3_LD_20_RN_4_RD_16_1.png","C_Dist_100_LN_4_LD_10_RN_15_RD_30_1.png","C_Dist_100_LN_4_LD_8_RN_6_RD_10_1.png","C_Dist_100_LN_6_LD_12_RN_15_RD_25_1.png","C_Dist_100_LN_7_LD_14_RN_15_RD_25_1.png","C_Dist_100_LN_7_LD_14_RN_9_RD_15_1.png"]],"dist100_I":[["I_Dist_100_LN_1_LD_2_RN_8_RD_20_0.png","I_Dist_100_LN_2_LD_4_RN_6_RD_15_0.png","I_Dist_100_LN_2_LD_4_RN_8_RD_20_0.png","I_Dist_100_LN_3_LD_5_RN_11_RD_22_0.png","I_Dist_100_LN_3_LD_5_RN_8_RD_16_0.png","I_Dist_100_LN_3_LD_6_RN_4_RD_10_0.png","I_Dist_100_LN_3_LD_9_RN_7_RD_30_0.png","I_Dist_100_LN_4_LD_8_RN_8_RD_20_0.png","I_Dist_100_LN_6_LD_10_RN_11_RD_22_0.png","I_Dist_100_LN_6_LD_10_RN_13_RD_26_0.png","I_Dist_100_LN_6_LD_10_RN_7_RD_14_0.png","I_Dist_100_LN_9_LD_10_RN_20_RD_25_0.png","I_Dist_100_LN_9_LD_15_RN_13_RD_26_0.png","I_Dist_100_LN_9_LD_15_RN_14_RD_28_0.png"],["I_Dist_100_LN_10_LD_25_RN_8_RD_16_1.png","I_Dist_100_LN_10_LD_25_RN_9_RD_18_1.png","I_Dist_100_LN_11_LD_22_RN_9_RD_15_1.png","I_Dist_100_LN_12_LD_24_RN_9_RD_15_1.png","I_Dist_100_LN_12_LD_30_RN_2_RD_4_1.png","I_Dist_100_LN_13_LD_26_RN_12_RD_20_1.png","I_Dist_100_LN_13_LD_26_RN_6_RD_10_1.png","I_Dist_100_LN_17_LD_30_RN_10_RD_15_1.png","I_Dist_100_LN_6_LD_12_RN_3_RD_5_1.png","I_Dist_100_LN_8_LD_16_RN_6_RD_10_1.png","I_Dist_100_LN_8_LD_20_RN_1_RD_2_1.png","I_Dist_100_LN_9_LD_18_RN_6_RD_10_1.png"]],"dist100_S":[["E_Dist_100_LN_2_LD_12_RN_2_RD_30_0.png","E_Dist_100_LN_6_LD_10_RN_6_RD_12_0.png"],["E_Dist_100_LN_6_LD_12_RN_6_RD_10_1.png"]],"dist200_C":[["C_Dist_200_LN_11_LD_22_RN_3_RD_10_0.png","C_Dist_200_LN_12_LD_15_RN_6_RD_10_0.png","C_Dist_200_LN_12_LD_20_RN_6_RD_15_0.png","C_Dist_200_LN_14_LD_28_RN_6_RD_20_0.png","C_Dist_200_LN_15_LD_25_RN_4_RD_10_0.png","C_Dist_200_LN_16_LD_20_RN_12_RD_20_0.png","C_Dist_200_LN_16_LD_30_RN_9_RD_27_0.png","C_Dist_200_LN_20_LD_25_RN_9_RD_15_0.png","C_Dist_200_LN_21_LD_30_RN_2_RD_4_0.png","C_Dist_200_LN_4_LD_10_RN_3_RD_15_0.png","C_Dist_200_LN_4_LD_8_RN_3_RD_10_0.png","C_Dist_200_LN_6_LD_15_RN_3_RD_15_0.png","C_Dist_200_LN_7_LD_21_RN_2_RD_15_0.png","C_Dist_200_LN_8_LD_15_RN_2_RD_6_0.png","C_Dist_200_LN_8_LD_15_RN_3_RD_9_0.png","C_Dist_200_LN_8_LD_15_RN_7_RD_21_0.png","C_Dist_200_LN_9_LD_20_RN_4_RD_16_0.png"],["C_Dist_200_LN_1_LD_2_RN_21_RD_30_1.png","C_Dist_200_LN_13_LD_26_RN_14_RD_20_1.png","C_Dist_200_LN_3_LD_10_RN_11_RD_22_1.png","C_Dist_200_LN_3_LD_10_RN_14_RD_28_1.png","C_Dist_200_LN_3_LD_10_RN_7_RD_14_1.png","C_Dist_200_LN_3_LD_12_RN_9_RD_20_1.png","C_Dist_200_LN_3_LD_6_RN_14_RD_20_1.png","C_Dist_200_LN_5_LD_10_RN_14_RD_20_1.png","C_Dist_200_LN_6_LD_12_RN_7_RD_10_1.png","C_Dist_200_LN_6_LD_20_RN_11_RD_22_1.png","C_Dist_200_LN_7_LD_15_RN_18_RD_27_1.png","C_Dist_200_LN_9_LD_30_RN_13_RD_26_1.png"]],"dist200_I":[["I_Dist_200_LN_1_LD_2_RN_3_RD_10_0.png","I_Dist_200_LN_1_LD_3_RN_2_RD_15_0.png","I_Dist_200_LN_3_LD_4_RN_11_RD_20_0.png","I_Dist_200_LN_4_LD_5_RN_6_RD_10_0.png","I_Dist_200_LN_4_LD_6_RN_14_RD_30_0.png","I_Dist_200_LN_7_LD_10_RN_12_RD_24_0.png","I_Dist_200_LN_7_LD_10_RN_14_RD_28_0.png","I_Dist_200_LN_7_LD_10_RN_8_RD_16_0.png"],["I_Dist_200_LN_11_LD_20_RN_3_RD_4_1.png","I_Dist_200_LN_14_LD_30_RN_12_RD_18_1.png","I_Dist_200_LN_14_LD_30_RN_6_RD_9_1.png","I_Dist_200_LN_3_LD_10_RN_1_RD_2_1.png","I_Dist_200_LN_4_LD_30_RN_1_RD_3_1.png","I_Dist_200_LN_6_LD_20_RN_3_RD_6_1.png","I_Dist_200_LN_7_LD_15_RN_4_RD_6_1.png","I_Dist_200_LN_7_LD_15_RN_6_RD_9_1.png","I_Dist_200_LN_9_LD_15_RN_8_RD_10_1.png"]],"dist200_S":[["E_Dist_200_LN_3_LD_6_RN_3_RD_10_0.png"],["E_Dist_200_LN_3_LD_10_RN_3_RD_6_1.png"]],"dist300_C":[["C_Dist_300_LN_11_LD_22_RN_1_RD_5_0.png","C_Dist_300_LN_11_LD_22_RN_2_RD_10_0.png","C_Dist_300_LN_11_LD_22_RN_4_RD_20_0.png","C_Dist_300_LN_12_LD_24_RN_2_RD_10_0.png","C_Dist_300_LN_18_LD_20_RN_9_RD_15_0.png","C_Dist_300_LN_20_LD_25_RN_13_RD_26_0.png","C_Dist_300_LN_20_LD_25_RN_14_RD_28_0.png","C_Dist_300_LN_20_LD_25_RN_5_RD_10_0.png","C_Dist_300_LN_20_LD_25_RN_8_RD_16_0.png","C_Dist_300_LN_20_LD_25_RN_9_RD_18_0.png","C_Dist_300_LN_24_LD_30_RN_2_RD_4_0.png","C_Dist_300_LN_24_LD_30_RN_8_RD_16_0.png","C_Dist_300_LN_3_LD_6_RN_2_RD_10_0.png","C_Dist_300_LN_4_LD_10_RN_1_RD_10_0.png","C_Dist_300_LN_4_LD_5_RN_2_RD_4_0.png","C_Dist_300_LN_8_LD_16_RN_1_RD_5_0.png","C_Dist_300_LN_9_LD_10_RN_3_RD_5_0.png"],["C_Dist_300_LN_1_LD_20_RN_7_RD_20_1.png","C_Dist_300_LN_1_LD_3_RN_19_RD_30_1.png","C_Dist_300_LN_1_LD_30_RN_8_RD_24_1.png","C_Dist_300_LN_1_LD_5_RN_11_RD_22_1.png","C_Dist_300_LN_1_LD_5_RN_3_RD_6_1.png","C_Dist_300_LN_1_LD_5_RN_6_RD_12_1.png","C_Dist_300_LN_2_LD_10_RN_12_RD_24_1.png","C_Dist_300_LN_2_LD_20_RN_10_RD_25_1.png","C_Dist_300_LN_3_LD_12_RN_11_RD_20_1.png","C_Dist_300_LN_3_LD_6_RN_4_RD_5_1.png","C_Dist_300_LN_4_LD_20_RN_13_RD_26_1.png","C_Dist_300_LN_5_LD_25_RN_6_RD_12_1.png","C_Dist_300_LN_5_LD_25_RN_7_RD_14_1.png","C_Dist_300_LN_7_LD_14_RN_20_RD_25_1.png","C_Dist_300_LN_8_LD_15_RN_10_RD_12_1.png"]],"dist300_I":[["I_Dist_300_LN_1_LD_2_RN_2_RD_10_0.png","I_Dist_300_LN_1_LD_2_RN_3_RD_15_0.png","I_Dist_300_LN_2_LD_4_RN_6_RD_30_0.png","I_Dist_300_LN_3_LD_6_RN_4_RD_20_0.png","I_Dist_300_LN_4_LD_5_RN_6_RD_12_0.png","I_Dist_300_LN_4_LD_5_RN_8_RD_16_0.png","I_Dist_300_LN_7_LD_10_RN_8_RD_20_0.png","I_Dist_300_LN_8_LD_10_RN_14_RD_28_0.png","I_Dist_300_LN_8_LD_10_RN_9_RD_18_0.png"],["I_Dist_300_LN_13_LD_26_RN_12_RD_15_1.png","I_Dist_300_LN_4_LD_20_RN_2_RD_4_1.png"]],"dist300_S":[["E_Dist_300_LN_9_LD_12_RN_9_RD_20_0.png"],["E_Dist_300_LN_18_LD_30_RN_18_RD_20_1.png","E_Dist_300_LN_3_LD_10_RN_3_RD_5_1.png","E_Dist_300_LN_9_LD_20_RN_9_RD_12_1.png"]],"dist500_C":[["C_Dist_500_LN_10_LD_13_RN_7_RD_26_0.png","C_Dist_500_LN_10_LD_15_RN_4_RD_24_0.png","C_Dist_500_LN_12_LD_16_RN_3_RD_12_0.png","C_Dist_500_LN_12_LD_18_RN_4_RD_24_0.png","C_Dist_500_LN_15_LD_18_RN_5_RD_15_0.png","C_Dist_500_LN_15_LD_20_RN_1_RD_4_0.png","C_Dist_500_LN_18_LD_27_RN_1_RD_6_0.png","C_Dist_500_LN_20_LD_24_RN_1_RD_3_0.png","C_Dist_500_LN_20_LD_24_RN_3_RD_9_0.png","C_Dist_500_LN_20_LD_24_RN_7_RD_21_0.png","C_Dist_500_LN_20_LD_28_RN_3_RD_14_0.png","C_Dist_500_LN_21_LD_28_RN_6_RD_24_0.png","C_Dist_500_LN_22_LD_28_RN_2_RD_7_0.png","C_Dist_500_LN_25_LD_30_RN_9_RD_27_0.png","C_Dist_500_LN_4_LD_6_RN_1_RD_6_0.png","C_Dist_500_LN_5_LD_6_RN_2_RD_6_0.png","C_Dist_500_LN_6_LD_9_RN_1_RD_6_0.png","C_Dist_500_LN_7_LD_10_RN_1_RD_5_0.png","C_Dist_500_LN_8_LD_12_RN_1_RD_6_0.png","C_Dist_500_LN_8_LD_12_RN_4_RD_24_0.png"],["C_Dist_500_LN_1_LD_4_RN_12_RD_16_1.png","C_Dist_500_LN_1_LD_4_RN_9_RD_12_1.png","C_Dist_500_LN_1_LD_9_RN_11_RD_18_1.png","C_Dist_500_LN_10_LD_24_RN_22_RD_24_1.png","C_Dist_500_LN_2_LD_12_RN_10_RD_15_1.png","C_Dist_500_LN_2_LD_12_RN_12_RD_18_1.png","C_Dist_500_LN_2_LD_12_RN_4_RD_6_1.png","C_Dist_500_LN_2_LD_24_RN_7_RD_12_1.png","C_Dist_500_LN_2_LD_5_RN_18_RD_20_1.png","C_Dist_500_LN_2_LD_5_RN_9_RD_10_1.png","C_Dist_500_LN_2_LD_8_RN_12_RD_16_1.png","C_Dist_500_LN_2_LD_8_RN_21_RD_28_1.png","C_Dist_500_LN_3_LD_10_RN_4_RD_5_1.png","C_Dist_500_LN_3_LD_12_RN_15_RD_20_1.png","C_Dist_500_LN_3_LD_30_RN_6_RD_10_1.png","C_Dist_500_LN_3_LD_8_RN_14_RD_16_1.png","C_Dist_500_LN_4_LD_16_RN_15_RD_20_1.png","C_Dist_500_LN_4_LD_24_RN_12_RD_18_1.png","C_Dist_500_LN_5_LD_14_RN_6_RD_7_1.png","C_Dist_500_LN_7_LD_21_RN_20_RD_24_1.png","C_Dist_500_LN_7_LD_28_RN_12_RD_16_1.png","C_Dist_500_LN_7_LD_28_RN_9_RD_12_1.png","C_Dist_500_LN_9_LD_27_RN_20_RD_24_1.png"]],"dist500_I":[["I_Dist_500_LN_2_LD_3_RN_4_RD_24_0.png","I_Dist_500_LN_5_LD_6_RN_6_RD_18_0.png","I_Dist_500_LN_7_LD_8_RN_9_RD_24_0.png"],["I_Dist_500_LN_7_LD_21_RN_5_RD_6_1.png"]],"dist500_S":[["E_Dist_500_LN_6_LD_8_RN_6_RD_24_0.png"],["E_Dist_500_LN_2_LD_12_RN_2_RD_3_1.png","E_Dist_500_LN_6_LD_24_RN_6_RD_8_1.png"]]}},{"start_time":1552073526109,"click_time":1552073528579,"finger_time":1552073528477,"fix_duration":250,"trial":1,"RT":2368,"MT":102,"sideResp":2,"stimulus":[],"xmouse":[806,806,806,806,806,806,806,806,806,806,806,806,806,806,806,806,806,806,806,806,806,806,806,806,806,806,806,806,806,806,806,806,806,806,806,806,806,806,806,806,806,807,807,807,807,807,807,807,807,807,807,807,807,807,807,807,807,807,807,807,807,807,807,807,807,807,807,807,807,807,807,807,807,807,807,807,807,807,807,807,807,807,807,807,807,807,807,807,807,807,807,807,807,807,807,808,808,808,808,808,808,808,808,808,808,808,808,808,808,808,809,809,809,811,813,815,818,830,845,897,926,958,997,1069],"ymouse":[546,546,546,546,546,546,546,546,546,546,546,546,546,546,546,546,546,546,546,546,546,546,546,546,546,546,546,546,546,546,546,546,546,546,546,544,542,541,537,534,532,531,531,531,531,531,531,531,531,531,531,531,531,531,531,531,531,531,531,531,531,531,531,531,531,531,531,531,531,531,531,531,531,531,531,531,531,531,531,531,531,531,531,531,531,531,531,531,531,531,531,531,531,531,528,527,526,526,526,526,526,526,526,526,526,526,526,526,526,526,525,525,525,522,520,516,511,495,473,400,359,293,199,45],"timestamp_mouse":[10,47,48,68,89,107,128,149,169,188,207,227,249,268,288,308,328,348,369,388,409,429,447,468,489,507,529,547,568,588,609,628,649,668,689,708,729,749,768,788,809,828,848,868,888,909,928,948,968,988,1008,1028,1048,1068,1089,1107,1129,1149,1168,1189,1208,1229,1248,1268,1289,1309,1329,1349,1368,1388,1409,1428,1449,1468,1488,1509,1528,1549,1569,1589,1608,1629,1648,1669,1689,1709,1728,1748,1767,1789,1809,1828,1848,1869,1889,1908,1928,1948,1968,1989,2009,2027,2049,2068,2089,2108,2129,2149,2169,2189,2208,2228,2249,2268,2288,2308,2329,2348,2368,2389,2409,2429,2449,2469],"xSR":741.5,"ySR":469.95,"xT1":424.9,"yT1":0,"xT2":1058.1,"yT2":0,"toosoon":0,"cond_shown":"Incongruent","ratio_trial":100,"L_num":2,"L_den":4,"R_num":8,"R_den":20,"correct_side":1,"subjID":"Juliana Gaspar Mendez 29","gender":"1","school":"4","age":"8"},{"start_time":1552073531542,"click_time":1552073533597,"finger_time":1552073531586,"fix_duration":1424.3387233091532,"trial":2,"RT":44,"MT":2011,"sideResp":2,"stimulus":[],"xmouse":[746,739,737,737,737,738,744,762,770,773,774,774,774,774,774,774,774,774,774,774,774,774,774,774,774,774,774,774,774,774,774,773,775,789,796,799,800,800,800,800,800,800,799,794,791,787,779,763,757,755,754,754,754,756,766,786,811,846,854,856,856,856,855,852,849,844,837,826,825,825,825,825,832,835,839,846,856,890,925,970,1006,1037,1073,1083,1086,1090,1092,1102,1104,1109,1112,1117,1131,1135,1140,1143,1144,1144,1143,1139,1135,1132,1125],"ymouse":[492,487,487,487,487,487,487,496,501,503,504,504,504,504,504,504,504,504,504,504,504,504,504,504,504,504,504,504,504,504,506,508,525,540,549,552,552,552,552,552,552,549,543,534,529,523,515,506,503,503,503,503,503,505,509,516,524,540,542,542,542,542,541,536,533,528,523,516,515,515,515,514,503,498,492,485,477,449,418,385,359,336,303,285,277,269,263,244,237,228,217,206,172,165,154,144,136,125,121,115,111,108,98],"timestamp_mouse":[25,44,55,76,95,116,135,156,175,195,215,235,256,276,296,316,335,356,375,395,416,436,456,476,496,516,537,556,574,595,616,635,655,675,696,715,734,756,776,795,815,835,855,875,895,916,935,955,976,995,1015,1036,1055,1075,1096,1115,1135,1155,1175,1195,1215,1235,1255,1276,1295,1316,1335,1354,1375,1396,1415,1436,1454,1476,1494,1515,1536,1555,1575,1595,1614,1635,1655,1674,1695,1715,1735,1755,1775,1795,1816,1835,1854,1876,1896,1916,1936,1955,1975,1996,2016,2036,2055],"xSR":741.5,"ySR":469.95,"xT1":424.9,"yT1":0,"xT2":1058.1,"yT2":0,"toosoon":0,"cond_shown":"Incongruent","ratio_trial":200,"L_num":9,"L_den":15,"R_num":8,"R_den":10,"correct_side":2,"subjID":"Juliana Gaspar Mendez 29","gender":"1","school":"4","age":"8"},{"start_time":1552073534829,"click_time":1552073537019,"finger_time":1552073536397,"fix_duration":250,"trial":3,"RT":1568,"MT":622,"sideResp":1,"stimulus":[],"xmouse":[772,772,772,769,768,768,767,767,766,766,766,766,766,765,763,762,760,759,754,754,754,754,754,754,754,754,754,754,754,754,754,754,754,754,754,754,754,754,754,754,754,754,754,754,754,754,754,754,754,754,754,754,754,754,754,754,754,754,754,754,754,754,754,754,754,754,754,754,754,754,754,754,754,754,754,753,753,750,742,732,732,732,732,732,732,732,732,732,732,732,732,732,732,539,496,476,473,472,472,472,472,471,471,471,471,473,478,492,498,504],"ymouse":[525,525,525,526,526,526,526,526,526,526,526,526,526,527,527,527,527,527,527,527,527,527,527,527,527,527,527,527,527,527,527,527,527,527,527,527,527,527,527,527,527,527,527,527,527,527,527,527,527,527,527,527,527,527,527,527,527,527,527,527,527,527,527,527,527,527,527,527,527,527,527,527,527,527,527,523,511,487,422,188,37,37,37,37,37,37,37,37,37,37,37,37,37,72,113,130,135,135,135,135,135,136,136,136,136,136,129,111,101,90],"timestamp_mouse":[11,39,48,68,88,108,128,149,168,189,209,228,249,268,288,308,328,349,368,388,409,428,448,469,489,509,529,548,568,588,609,628,649,668,689,709,729,748,768,788,809,828,849,868,889,909,929,948,968,988,1008,1029,1048,1068,1089,1108,1128,1148,1168,1188,1209,1229,1248,1269,1289,1308,1328,1349,1368,1389,1408,1429,1448,1468,1488,1509,1528,1548,1568,1589,1608,1628,1648,1669,1689,1707,1729,1748,1769,1789,1808,1828,1847,1868,1888,1908,1929,1948,1968,1989,2008,2028,2047,2069,2089,2108,2129,2149,2169,2189],"xSR":741.5,"ySR":469.95,"xT1":424.9,"yT1":0,"xT2":1058.1,"yT2":0,"toosoon":0,"cond_shown":"Incongruent","ratio_trial":300,"L_num":4,"L_den":5,"R_num":8,"R_den":16,"correct_side":1,"subjID":"Juliana Gaspar Mendez 29","gender":"1","school":"4","age":"8"},{"start_time":1552073539129,"click_time":1552073541177,"finger_time":1552073540618,"fix_duration":250,"trial":4,"RT":1489,"MT":559,"sideResp":2,"stimulus":[],"xmouse":[785,785,785,785,785,785,785,785,785,785,785,785,785,785,785,785,785,785,785,785,785,785,785,785,785,785,785,785,785,785,786,787,787,788,788,788,788,788,788,788,788,788,788,788,788,788,788,788,788,788,788,788,788,788,788,788,788,788,788,788,788,788,788,788,788,788,788,788,789,795,798,800,805,811,831,848,871,892,907,915,918,921,929,941,968,976,980,983,984,993,1004,1011,1020,1024,1032,1035,1038,1041,1044,1056,1059,1063,1067],"ymouse":[523,523,523,523,523,523,523,523,523,523,523,523,523,523,523,523,523,523,523,523,523,523,523,523,523,523,523,523,523,523,523,522,521,520,520,520,520,520,520,520,520,520,520,520,520,520,520,520,520,520,520,520,520,520,520,520,520,520,520,520,520,520,520,520,520,520,520,519,519,509,504,497,486,474,438,410,370,331,301,286,281,274,264,246,210,200,196,193,191,184,178,173,167,165,157,153,148,145,140,125,117,108,98],"timestamp_mouse":[12,39,47,67,89,108,127,149,168,189,208,228,248,269,289,308,328,349,368,389,407,429,449,469,488,509,529,549,572,588,608,628,649,668,689,707,728,748,768,789,808,829,849,869,888,909,929,949,968,988,1009,1029,1048,1068,1088,1108,1129,1147,1168,1189,1208,1227,1248,1269,1288,1309,1328,1349,1369,1388,1409,1429,1448,1468,1489,1509,1528,1549,1568,1588,1609,1628,1648,1669,1688,1709,1728,1749,1769,1788,1808,1828,1849,1868,1888,1909,1928,1948,1968,1989,2009,2028,2048],"xSR":741.5,"ySR":469.95,"xT1":424.9,"yT1":0,"xT2":1058.1,"yT2":0,"toosoon":0,"cond_shown":"Congruent","ratio_trial":300,"L_num":1,"L_den":30,"R_num":8,"R_den":24,"correct_side":2,"subjID":"Juliana Gaspar Mendez 29","gender":"1","school":"4","age":"8"},{"start_time":1552073542994,"click_time":1552073544557,"finger_time":1552073544017,"fix_duration":434.6963866830121,"trial":5,"RT":1023,"MT":540,"sideResp":1,"stimulus":[],"xmouse":[785,785,785,785,785,785,785,785,785,785,785,785,785,785,785,785,785,784,784,784,784,784,784,784,784,784,784,784,784,784,784,784,784,784,784,784,784,784,784,784,784,784,784,784,784,784,784,783,781,779,777,764,745,721,689,652,610,607,606,604,604,604,602,598,594,589,582,582,582,582,582,582,580,577,570,553,532,527,522],"ymouse":[550,550,550,550,550,550,550,550,550,550,550,550,550,549,548,546,543,542,542,541,541,541,541,541,541,541,541,541,541,540,540,540,540,540,540,540,540,540,540,540,540,540,540,540,540,538,536,532,525,517,499,437,369,285,190,111,47,44,43,39,39,39,37,31,24,17,9,9,9,9,9,9,9,9,16,25,34,34,35],"timestamp_mouse":[11,39,43,62,84,102,123,143,163,183,202,223,244,263,284,304,322,344,364,383,403,423,442,464,484,503,522,543,564,584,603,623,643,663,684,703,723,744,764,784,804,824,843,863,884,903,923,944,963,983,1003,1023,1043,1063,1084,1103,1124,1144,1163,1183,1202,1223,1243,1263,1284,1304,1324,1343,1363,1382,1404,1423,1443,1464,1484,1503,1524,1542,1563],"xSR":741.5,"ySR":469.95,"xT1":424.9,"yT1":0,"xT2":1058.1,"yT2":0,"toosoon":0,"cond_shown":"Congruent","ratio_trial":100,"L_num":9,"L_den":15,"R_num":8,"R_den":16,"correct_side":1,"subjID":"Juliana Gaspar Mendez 29","gender":"1","school":"4","age":"8"},{"start_time":1552073547785,"click_time":1552073548757,"finger_time":1552073548636,"fix_duration":1365.0333000308337,"trial":6,"RT":851,"MT":121,"sideResp":1,"stimulus":[],"xmouse":[773,773,773,773,773,773,773,773,773,773,773,773,773,773,773,773,773,773,773,773,773,773,773,773,773,773,773,773,773,773,773,773,773,773,773,773,773,773,773,773,770,764,703,687,644,624,601,540,500],"ymouse":[521,521,521,521,521,521,521,521,521,521,521,521,521,521,521,521,521,521,521,521,521,521,521,521,521,521,521,521,521,521,521,521,521,521,521,521,521,521,521,521,508,494,374,350,277,229,180,62,14],"timestamp_mouse":[12,35,52,71,93,112,131,153,173,193,212,233,252,273,293,312,332,352,372,392,412,432,453,473,493,513,533,553,572,592,613,633,652,673,693,712,733,752,772,792,813,832,851,872,893,913,932,953,971],"xSR":741.5,"ySR":469.95,"xT1":424.9,"yT1":0,"xT2":1058.1,"yT2":0,"toosoon":0,"cond_shown":"Congruent","ratio_trial":300,"L_num":12,"L_den":24,"R_num":2,"R_den":10,"correct_side":1,"subjID":"Juliana Gaspar Mendez 29","gender":"1","school":"4","age":"8"},{"start_time":1552073553646,"click_time":1552073555539,"finger_time":1552073555177,"fix_duration":1285.2486243611547,"trial":7,"RT":1531,"MT":362,"sideResp":2,"stimulus":[],"xmouse":[775,775,775,775,775,775,775,775,775,775,775,775,775,775,775,775,775,775,775,775,775,775,775,775,775,775,775,775,775,775,775,775,775,775,775,775,775,775,775,775,775,775,775,775,775,775,775,776,778,789,796,802,805,807,807,807,807,807,807,807,807,807,807,807,807,807,807,807,807,807,807,807,807,808,813,837,859,915,983,1062,1167,1178,1180,1180,1180,1180,1180,1180,1180,1180,1180,1178,1172,1162,1149],"ymouse":[512,512,512,512,512,512,512,512,512,512,512,512,512,512,512,512,512,512,512,512,512,512,512,512,512,512,512,512,512,512,512,512,512,512,512,512,512,512,510,510,510,510,510,510,510,510,510,510,510,509,508,507,506,505,505,505,505,505,505,505,505,505,505,505,505,505,505,505,505,505,505,505,505,502,498,473,447,363,265,171,66,52,47,45,44,44,44,43,43,41,41,40,40,40,40],"timestamp_mouse":[10,42,52,72,90,112,132,152,171,191,212,232,251,272,291,310,332,351,372,391,412,431,451,471,492,511,532,552,571,591,611,631,650,672,691,711,731,751,772,791,810,831,852,872,892,912,932,950,972,991,1011,1032,1051,1072,1091,1112,1131,1151,1171,1191,1212,1232,1252,1272,1290,1311,1332,1350,1371,1392,1411,1432,1450,1471,1491,1512,1531,1551,1572,1591,1611,1631,1652,1671,1692,1711,1732,1751,1771,1792,1811,1831,1851,1871,1892],"xSR":741.5,"ySR":469.95,"xT1":424.9,"yT1":0,"xT2":1058.1,"yT2":0,"toosoon":0,"cond_shown":"Incongruent","ratio_trial":300,"L_num":4,"L_den":20,"R_num":2,"R_den":4,"correct_side":2,"subjID":"Juliana Gaspar Mendez 29","gender":"1","school":"4","age":"8"},{"start_time":1552073557030,"click_time":1552073558498,"finger_time":1552073558397,"fix_duration":250,"trial":8,"RT":1367,"MT":101,"sideResp":2,"stimulus":[],"xmouse":[801,801,801,801,801,801,801,801,800,799,799,799,799,799,799,798,798,798,798,798,798,798,798,798,798,798,798,798,798,797,797,797,797,797,797,797,797,797,797,797,797,797,797,797,797,797,797,797,797,797,798,800,802,803,806,806,809,813,814,815,816,818,819,820,820,822,831,839,853,871,895,991,1051,1126],"ymouse":[539,539,539,539,539,539,539,539,539,539,539,539,539,539,539,538,538,538,538,538,538,537,537,537,536,536,536,536,536,536,536,536,536,536,536,536,536,536,536,536,536,536,536,536,536,536,536,536,536,534,534,532,530,529,527,526,525,522,521,520,519,516,515,513,512,511,502,492,476,454,422,286,189,83],"timestamp_mouse":[9,26,47,67,88,107,126,148,168,187,208,228,246,267,287,307,327,347,368,387,407,427,447,467,486,508,526,548,567,587,608,628,648,667,688,707,728,748,767,787,807,827,847,867,888,908,927,948,968,987,1007,1027,1047,1067,1087,1108,1128,1148,1168,1188,1207,1227,1247,1268,1287,1307,1327,1348,1367,1388,1407,1427,1448,1467],"xSR":741.5,"ySR":469.95,"xT1":424.9,"yT1":0,"xT2":1058.1,"yT2":0,"toosoon":0,"cond_shown":"Incongruent","ratio_trial":300,"L_num":4,"L_den":20,"R_num":2,"R_den":4,"correct_side":2,"subjID":"Juliana Gaspar Mendez 29","gender":"1","school":"4","age":"8"},{"start_time":1552073561039,"click_time":1552073562537,"finger_time":1552073562417,"fix_duration":661.1600064343655,"trial":9,"RT":1378,"MT":120,"sideResp":2,"stimulus":[],"xmouse":[792,792,792,792,792,792,792,792,792,792,792,792,792,792,792,792,792,792,792,792,792,792,792,792,792,792,792,792,792,792,792,792,792,792,792,792,792,792,792,792,792,792,792,792,792,792,792,792,792,792,792,792,792,795,796,801,803,803,803,803,803,803,803,803,803,805,809,817,832,852,906,946,994,1043,1081],"ymouse":[508,508,508,508,508,508,508,508,508,508,508,508,508,508,508,508,508,508,508,508,508,508,508,508,508,508,508,508,508,508,508,508,508,508,508,508,508,508,508,508,508,508,508,508,508,508,508,508,508,508,508,508,508,504,503,496,495,495,495,495,495,495,495,495,495,492,485,478,465,447,388,330,247,172,91],"timestamp_mouse":[18,38,59,78,98,118,139,159,178,198,218,238,259,278,299,318,339,358,377,399,418,438,459,479,499,518,539,559,578,599,617,638,659,678,698,718,739,758,778,799,818,839,858,879,898,919,938,959,979,998,1018,1038,1059,1078,1099,1118,1138,1159,1177,1199,1218,1237,1259,1277,1299,1318,1338,1359,1378,1399,1419,1438,1458,1478,1498],"xSR":741.5,"ySR":469.95,"xT1":424.9,"yT1":0,"xT2":1058.1,"yT2":0,"toosoon":0,"cond_shown":"Congruent","ratio_trial":200,"L_num":3,"L_den":10,"R_num":7,"R_den":14,"correct_side":2,"subjID":"Juliana Gaspar Mendez 29","gender":"1","school":"4","age":"8"},{"start_time":1552073564150,"click_time":1552073566057,"finger_time":1552073565538,"fix_duration":250,"trial":10,"RT":1388,"MT":519,"sideResp":2,"stimulus":[],"xmouse":[760,760,760,760,760,760,760,760,760,760,760,760,760,760,760,760,760,760,760,760,760,760,760,760,760,760,760,760,760,760,760,760,760,760,760,760,760,760,760,760,760,760,760,760,760,760,760,760,760,760,760,760,760,760,760,760,760,760,760,761,762,762,762,762,763,765,784,801,830,851,902,937,964,976,982,984,984,984,984,984,984,988,990,990,992,994,1000,1003,1006,1014,1020,1039,1049,1060,1075,1088],"ymouse":[533,533,533,533,533,533,533,533,533,533,533,533,533,533,533,533,533,533,533,533,533,533,533,533,533,533,533,533,533,533,533,533,533,533,533,533,533,533,533,533,533,533,533,533,533,533,533,533,533,533,533,533,533,533,533,533,533,533,533,533,533,533,533,533,532,531,520,511,492,474,430,385,347,319,305,297,297,297,297,297,296,284,266,248,233,223,207,202,197,188,178,154,142,128,113,97],"timestamp_mouse":[11,43,47,67,87,108,128,148,168,187,208,228,248,266,288,308,328,347,367,388,407,427,447,468,488,508,528,548,568,586,606,628,648,667,687,708,727,748,768,788,808,828,848,868,888,907,928,948,967,988,1007,1027,1047,1068,1088,1108,1127,1147,1168,1188,1208,1226,1247,1267,1287,1307,1327,1347,1367,1388,1408,1427,1448,1468,1487,1509,1527,1547,1567,1587,1608,1627,1648,1667,1688,1706,1726,1747,1767,1787,1808,1827,1846,1867,1887,1907],"xSR":741.5,"ySR":469.95,"xT1":424.9,"yT1":0,"xT2":1058.1,"yT2":0,"toosoon":0,"cond_shown":"Congruent","ratio_trial":200,"L_num":7,"L_den":21,"R_num":2,"R_den":15,"correct_side":1,"subjID":"Juliana Gaspar Mendez 29","gender":"1","school":"4","age":"8"},{"start_time":1552073568265,"click_time":1552073570017,"finger_time":1552073569477,"fix_duration":1166.153440699173,"trial":11,"RT":1212,"MT":540,"sideResp":1,"stimulus":[],"xmouse":[788,788,788,788,788,788,788,788,788,788,788,788,788,788,788,788,788,788,788,788,788,788,788,788,788,788,788,788,788,788,788,788,788,788,788,788,788,788,788,788,788,788,788,789,789,789,789,789,789,789,789,789,789,789,789,786,782,776,769,757,736,724,714,700,682,649,638,629,624,621,621,621,622,624,624,623,616,608,590,583,554,549,549,549,548,535,525,513],"ymouse":[520,520,520,520,520,520,520,520,520,520,520,520,520,520,520,520,520,520,520,520,520,520,520,520,520,520,520,520,520,520,520,520,520,520,520,520,520,520,520,520,520,520,520,520,520,520,520,520,520,520,520,520,520,520,520,518,515,512,507,498,477,462,450,430,406,356,337,318,303,292,271,260,245,225,200,145,121,96,65,57,30,28,27,27,27,36,42,48],"timestamp_mouse":[15,41,53,72,91,113,131,153,172,192,213,232,252,273,292,312,332,353,372,392,413,432,452,473,493,512,532,553,573,593,613,632,651,673,693,712,733,751,773,793,812,833,853,872,893,911,933,953,972,992,1013,1032,1051,1071,1093,1112,1133,1153,1172,1192,1212,1233,1253,1273,1293,1313,1332,1352,1373,1393,1412,1432,1452,1472,1492,1512,1532,1552,1573,1592,1613,1632,1652,1672,1693,1713,1733,1752],"xSR":741.5,"ySR":469.95,"xT1":424.9,"yT1":0,"xT2":1058.1,"yT2":0,"toosoon":0,"cond_shown":"Congruent","ratio_trial":300,"L_num":18,"L_den":20,"R_num":9,"R_den":15,"correct_side":1,"subjID":"Juliana Gaspar Mendez 29","gender":"1","school":"4","age":"8"},{"start_time":1552073571619,"click_time":1552073574357,"finger_time":1552073574198,"fix_duration":319.3398706783517,"trial":12,"RT":2579,"MT":159,"sideResp":1,"stimulus":[],"xmouse":[799,799,799,799,799,799,799,799,799,799,799,799,799,799,799,799,799,799,799,799,799,799,799,799,799,799,799,799,799,799,799,799,799,799,799,799,799,799,799,799,799,799,799,799,799,799,799,799,799,799,799,799,799,799,799,799,799,799,799,799,799,799,799,799,799,799,799,799,799,799,799,799,799,799,799,799,799,799,799,799,799,799,799,799,799,799,799,799,799,799,799,799,799,799,799,799,799,799,799,799,799,799,799,799,799,799,799,799,799,799,799,799,800,804,805,806,806,806,806,806,806,806,806,806,806,806,804,801,773,748,720,689,624,583,534,483,431],"ymouse":[507,507,507,507,507,507,507,507,507,507,507,507,507,507,507,507,507,507,507,507,507,507,507,507,507,507,507,507,507,507,507,507,507,507,507,507,507,507,507,507,507,507,507,507,507,507,507,507,507,507,507,507,507,507,507,507,507,507,507,507,507,507,507,507,507,507,507,507,507,507,507,507,507,507,507,507,507,507,507,507,507,507,507,507,507,507,507,507,507,507,507,507,507,507,507,507,507,507,507,507,507,507,507,507,507,507,507,508,508,508,508,508,508,507,506,505,505,505,505,505,505,505,505,505,505,505,503,499,465,436,401,366,291,243,191,144,98],"timestamp_mouse":[19,43,58,77,99,119,138,158,178,198,218,238,259,278,298,318,338,358,379,397,419,439,459,479,498,519,538,558,579,598,619,638,659,678,698,719,738,758,779,799,819,839,859,880,899,918,938,958,979,998,1019,1038,1059,1079,1099,1119,1138,1159,1179,1199,1218,1239,1259,1279,1298,1319,1338,1358,1379,1399,1419,1439,1458,1478,1498,1519,1539,1557,1579,1599,1618,1637,1658,1678,1699,1719,1738,1759,1779,1799,1818,1838,1859,1878,1898,1919,1939,1959,1979,1998,2018,2039,2058,2078,2099,2118,2139,2159,2179,2199,2218,2239,2258,2279,2298,2319,2338,2358,2377,2398,2418,2439,2459,2478,2499,2518,2538,2558,2579,2599,2618,2639,2659,2678,2698,2718,2738],"xSR":741.5,"ySR":469.95,"xT1":424.9,"yT1":0,"xT2":1058.1,"yT2":0,"toosoon":0,"cond_shown":"Incongruent","ratio_trial":200,"L_num":1,"L_den":2,"R_num":3,"R_den":10,"correct_side":1,"subjID":"Juliana Gaspar Mendez 29","gender":"1","school":"4","age":"8"},{"start_time":1552073578281,"click_time":1552073579478,"finger_time":1552073579218,"fix_duration":1163.5824083156178,"trial":13,"RT":937,"MT":260,"sideResp":1,"stimulus":[],"xmouse":[786,786,786,786,786,786,786,786,786,786,786,786,786,786,786,786,786,786,786,786,786,786,786,786,786,786,786,786,786,786,786,786,786,786,786,786,786,786,786,786,786,786,786,786,779,754,741,729,715,699,682,638,619,595,574,527,508,491,477,465],"ymouse":[526,526,526,526,526,526,526,526,526,526,526,526,526,526,526,526,526,526,526,526,526,526,526,526,526,526,526,526,526,526,526,526,526,526,526,526,526,526,526,526,526,526,525,522,511,477,461,445,425,402,380,327,300,268,237,175,152,132,112,92],"timestamp_mouse":[16,36,57,77,97,115,136,156,176,195,216,237,257,277,295,316,337,357,376,397,416,436,457,477,497,516,536,557,577,597,615,637,657,677,696,716,737,757,775,796,816,836,857,877,896,916,937,957,977,997,1016,1036,1057,1076,1097,1116,1136,1156,1177,1196],"xSR":741.5,"ySR":469.95,"xT1":424.9,"yT1":0,"xT2":1058.1,"yT2":0,"toosoon":0,"cond_shown":"Incongruent","ratio_trial":300,"L_num":3,"L_den":6,"R_num":4,"R_den":20,"correct_side":1,"subjID":"Juliana Gaspar Mendez 29","gender":"1","school":"4","age":"8"},{"start_time":1552073583466,"click_time":1552073584817,"finger_time":1552073584317,"fix_duration":547.6899347593356,"trial":14,"RT":851,"MT":500,"sideResp":2,"stimulus":[],"xmouse":[767,767,767,767,767,767,767,767,767,767,767,767,767,767,767,767,767,767,767,767,767,767,767,767,767,767,767,767,767,767,767,767,767,767,767,767,767,772,777,784,795,811,853,862,867,871,875,895,910,921,927,932,954,975,996,1004,1007,1011,1017,1028,1040,1053,1091,1099,1106,1108,1110,1111],"ymouse":[514,514,514,514,514,514,514,514,514,514,514,514,514,514,514,514,514,514,514,514,514,514,514,514,514,514,514,514,514,514,514,514,514,514,514,514,514,514,510,506,499,489,453,440,427,413,399,361,338,315,292,271,239,233,225,221,219,213,207,201,194,184,146,131,116,107,101,99],"timestamp_mouse":[11,43,51,71,91,112,132,152,172,192,212,231,251,272,291,312,332,351,371,391,412,432,451,472,492,511,530,552,571,592,612,632,652,671,692,711,731,751,772,791,812,832,851,872,891,911,932,951,972,991,1011,1032,1051,1070,1091,1111,1132,1151,1172,1191,1211,1231,1251,1272,1292,1311,1331,1351],"xSR":741.5,"ySR":469.95,"xT1":424.9,"yT1":0,"xT2":1058.1,"yT2":0,"toosoon":0,"cond_shown":"Congruent","ratio_trial":300,"L_num":5,"L_den":25,"R_num":7,"R_den":14,"correct_side":2,"subjID":"Juliana Gaspar Mendez 29","gender":"1","school":"4","age":"8"},{"start_time":1552073586551,"click_time":1552073588097,"finger_time":1552073587398,"fix_duration":250,"trial":15,"RT":847,"MT":699,"sideResp":1,"stimulus":[],"xmouse":[774,774,774,774,774,774,774,774,774,774,774,774,774,774,774,774,774,774,774,774,774,774,774,774,774,774,774,774,774,774,774,774,774,774,774,774,774,774,774,774,766,759,738,702,594,533,466,371,325,325,325,325,325,325,325,325,325,325,325,325,325,333,349,388,394,394,394,394,394,394,394,394,394,396,401,408,416,433],"ymouse":[506,506,506,506,506,506,506,506,506,506,506,506,506,506,506,506,506,506,506,506,506,506,506,506,506,506,506,506,506,506,506,506,506,506,506,506,506,506,506,506,495,486,460,419,291,218,150,43,2,2,2,2,2,2,2,2,2,2,2,2,2,5,14,32,35,35,35,35,35,35,35,35,35,35,35,38,42,48],"timestamp_mouse":[15,37,46,66,87,107,127,147,166,186,207,227,247,266,287,305,327,347,366,387,407,426,446,466,487,507,527,546,566,586,606,627,646,667,686,707,727,747,767,787,806,826,847,867,886,906,927,947,967,986,1007,1026,1046,1067,1086,1107,1127,1147,1167,1186,1206,1227,1247,1267,1286,1306,1327,1346,1367,1387,1407,1426,1446,1467,1486,1506,1527,1546],"xSR":741.5,"ySR":469.95,"xT1":424.9,"yT1":0,"xT2":1058.1,"yT2":0,"toosoon":0,"cond_shown":"Incongruent","ratio_trial":300,"L_num":2,"L_den":4,"R_num":6,"R_den":30,"correct_side":1,"subjID":"Juliana Gaspar Mendez 29","gender":"1","school":"4","age":"8"},{"start_time":1552073592625,"click_time":1552073593677,"finger_time":1552073593337,"fix_duration":1285.1593394495753,"trial":16,"RT":712,"MT":340,"sideResp":2,"stimulus":[],"xmouse":[784,784,784,784,784,784,784,784,784,784,784,784,784,784,784,784,784,784,784,784,784,784,784,784,784,784,784,784,784,784,786,789,797,807,817,837,845,854,861,869,888,897,912,925,940,974,989,1004,1014,1021,1039,1055,1064],"ymouse":[511,511,511,511,511,511,511,511,511,511,511,511,511,511,511,511,511,511,511,511,511,511,511,511,511,511,511,511,511,511,511,509,501,490,479,450,431,406,379,352,293,274,256,240,222,183,168,155,147,137,112,91,77],"timestamp_mouse":[13,43,52,72,92,112,133,152,172,193,212,232,253,273,292,312,333,353,373,392,413,432,452,473,493,512,532,552,573,592,612,632,653,673,692,712,732,752,772,793,812,832,852,873,893,912,941,952,972,992,1014,1031,1052],"xSR":741.5,"ySR":469.95,"xT1":424.9,"yT1":0,"xT2":1058.1,"yT2":0,"toosoon":0,"cond_shown":"Incongruent","ratio_trial":300,"L_num":4,"L_den":20,"R_num":2,"R_den":4,"correct_side":2,"subjID":"Juliana Gaspar Mendez 29","gender":"1","school":"4","age":"8"},{"start_time":1552073600076,"click_time":1552073601337,"finger_time":1552073600798,"fix_duration":1356.4162617094262,"trial":17,"RT":722,"MT":539,"sideResp":2,"stimulus":[],"xmouse":[783,783,783,783,783,783,783,783,783,783,783,783,783,783,783,783,783,783,783,783,783,783,783,783,783,783,783,783,783,783,783,783,783,788,810,839,880,922,1017,1053,1078,1091,1096,1097,1097,1097,1098,1098,1100,1100,1098,1096,1093,1093,1091,1090,1090,1090,1090,1090,1091,1092,1094,1095],"ymouse":[522,522,522,522,522,522,522,522,522,522,522,522,522,522,522,522,522,522,522,522,522,522,522,522,522,522,522,522,522,522,522,522,522,522,518,506,488,462,382,332,287,250,231,220,217,217,216,214,207,197,190,184,178,172,153,147,144,141,138,133,128,120,110,99],"timestamp_mouse":[9,32,42,61,81,101,122,141,162,181,201,222,242,261,282,301,322,341,361,381,402,421,442,461,481,501,522,541,561,581,602,621,642,662,681,701,722,742,763,781,801,821,842,862,881,902,921,942,961,981,1001,1021,1042,1061,1081,1101,1122,1141,1161,1181,1201,1222,1242,1261],"xSR":741.5,"ySR":469.95,"xT1":424.9,"yT1":0,"xT2":1058.1,"yT2":0,"toosoon":0,"cond_shown":"Congruent","ratio_trial":300,"L_num":1,"L_den":30,"R_num":8,"R_den":24,"correct_side":2,"subjID":"Juliana Gaspar Mendez 29","gender":"1","school":"4","age":"8"},{"start_time":1552073603897,"click_time":1552073605418,"finger_time":1552073604938,"fix_duration":1477.7499624655889,"trial":18,"RT":1041,"MT":480,"sideResp":2,"stimulus":[],"xmouse":[797,797,797,797,797,797,797,797,797,797,797,797,797,797,797,797,797,797,797,797,797,797,797,797,797,797,797,797,797,797,797,797,798,799,800,801,801,802,802,802,802,803,803,805,805,805,806,807,813,819,828,837,854,885,903,928,955,983,1007,1037,1043,1048,1052,1055,1061,1066,1067,1069,1071,1071,1071,1071,1071,1071,1072,1080,1091],"ymouse":[521,521,521,521,521,521,521,521,521,521,521,521,521,521,521,521,521,521,521,521,521,521,521,521,521,521,521,521,521,521,521,521,521,521,521,521,521,520,520,520,520,520,520,519,519,519,518,517,514,509,501,494,480,456,443,424,401,373,351,319,307,301,294,288,271,260,250,242,232,215,209,207,195,163,142,116,90],"timestamp_mouse":[10,20,44,60,80,100,121,141,161,180,201,219,240,261,280,301,320,340,361,380,401,420,440,461,480,501,521,540,560,581,601,621,640,660,681,701,720,740,760,780,800,820,841,860,881,901,920,940,960,981,1000,1021,1041,1060,1080,1101,1120,1140,1160,1180,1201,1220,1240,1260,1280,1300,1320,1341,1360,1380,1400,1420,1441,1461,1480,1500,1521],"xSR":741.5,"ySR":469.95,"xT1":424.9,"yT1":0,"xT2":1058.1,"yT2":0,"toosoon":0,"cond_shown":"Incongruent","ratio_trial":100,"L_num":11,"L_den":22,"R_num":9,"R_den":15,"correct_side":2,"subjID":"Juliana Gaspar Mendez 29","gender":"1","school":"4","age":"8"},{"start_time":1552073607899,"click_time":1552073609338,"finger_time":1552073608659,"fix_duration":1498.1156398161713,"trial":19,"RT":760,"MT":679,"sideResp":1,"stimulus":[],"xmouse":[783,783,783,783,783,783,783,783,783,783,783,783,783,783,783,783,783,783,783,783,783,783,783,783,783,784,784,784,786,786,787,788,789,790,790,791,791,791,784,780,768,759,745,714,698,685,672,660,645,621,616,609,608,608,607,605,602,598,589,587,586,586,584,580,564,558,553,549,547,541,535,527,517],"ymouse":[530,530,530,530,530,530,530,530,530,529,529,529,529,529,529,529,529,529,529,529,529,529,529,529,529,527,525,524,520,518,513,510,507,502,499,494,487,480,464,454,435,420,405,369,346,323,297,266,234,180,171,149,139,129,108,95,82,70,51,48,48,48,48,54,67,70,71,73,73,73,73,72,68],"timestamp_mouse":[1,19,39,58,78,99,118,139,158,178,199,219,238,259,278,298,318,338,358,379,399,418,438,458,478,499,518,538,560,577,598,619,638,659,678,699,719,739,760,777,798,818,838,859,878,899,919,938,960,979,998,1019,1039,1058,1078,1098,1118,1138,1160,1177,1198,1218,1239,1258,1278,1298,1318,1338,1357,1378,1398,1419,1439],"xSR":741.5,"ySR":469.95,"xT1":424.9,"yT1":0,"xT2":1058.1,"yT2":0,"toosoon":0,"cond_shown":"Incongruent","ratio_trial":100,"L_num":6,"L_den":10,"R_num":7,"R_den":14,"correct_side":1,"subjID":"Juliana Gaspar Mendez 29","gender":"1","school":"4","age":"8"},{"start_time":1552073612650,"click_time":1552073613838,"finger_time":1552073613477,"fix_duration":710.2368355479482,"trial":20,"RT":827,"MT":361,"sideResp":2,"stimulus":[],"xmouse":[782,781,779,778,777,777,777,777,777,777,777,777,777,777,777,777,777,777,777,777,777,777,777,777,777,777,777,777,777,777,777,777,777,777,777,777,777,778,781,791,797,860,894,924,950,967,983,986,987,989,994,996,1001,1005,1011,1018,1036,1046,1058,1067],"ymouse":[509,509,509,509,508,508,508,508,508,508,508,508,508,508,508,508,508,508,508,508,508,508,508,508,508,508,508,508,508,508,508,508,508,507,507,507,506,505,501,487,480,412,376,349,329,316,304,302,299,293,282,276,269,264,256,243,198,161,120,80],"timestamp_mouse":[10,35,47,67,87,107,127,148,166,188,207,227,248,267,288,308,327,348,367,388,407,428,447,467,487,506,528,548,567,587,608,627,647,667,687,708,727,748,767,787,808,827,847,867,887,907,928,947,968,987,1007,1027,1048,1067,1088,1107,1127,1147,1167,1188],"xSR":741.5,"ySR":469.95,"xT1":424.9,"yT1":0,"xT2":1058.1,"yT2":0,"toosoon":0,"cond_shown":"Incongruent","ratio_trial":100,"L_num":11,"L_den":22,"R_num":9,"R_den":15,"correct_side":2,"subjID":"Juliana Gaspar Mendez 29","gender":"1","school":"4","age":"8"},{"start_time":1552073617080,"click_time":1552073618317,"finger_time":1552073617937,"fix_duration":1480.79167815126,"trial":21,"RT":857,"MT":380,"sideResp":1,"stimulus":[],"xmouse":[778,778,778,778,778,778,778,778,778,778,778,778,778,778,778,778,778,778,778,778,778,778,778,778,778,778,778,779,780,781,782,783,783,784,784,785,785,786,786,787,787,787,787,781,771,715,691,675,660,642,637,630,620,569,569,543,539,537,536,533,526,518],"ymouse":[500,500,500,500,500,500,500,500,500,500,500,500,500,500,500,500,500,500,500,500,500,500,500,500,500,500,500,500,500,500,500,499,499,499,498,498,497,495,493,487,482,471,457,439,417,340,315,298,282,256,241,223,202,124,124,87,79,75,72,68,61,54],"timestamp_mouse":[35,37,58,78,98,118,136,157,178,198,218,238,257,277,297,317,338,358,378,397,418,438,457,477,498,517,537,558,577,598,617,638,658,678,698,718,738,758,778,798,817,838,857,878,899,917,938,957,977,999,1017,1037,1087,1090,1097,1117,1137,1158,1177,1197,1217,1237],"xSR":741.5,"ySR":469.95,"xT1":424.9,"yT1":0,"xT2":1058.1,"yT2":0,"toosoon":0,"cond_shown":"Incongruent","ratio_trial":200,"L_num":1,"L_den":2,"R_num":3,"R_den":10,"correct_side":1,"subjID":"Juliana Gaspar Mendez 29","gender":"1","school":"4","age":"8"},{"start_time":1552073619692,"click_time":1552073621317,"finger_time":1552073620858,"fix_duration":393.561382761946,"trial":22,"RT":1166,"MT":459,"sideResp":2,"stimulus":[],"xmouse":[800,800,800,800,800,800,800,800,800,800,800,800,800,800,800,800,800,800,800,800,800,800,800,800,800,800,800,800,800,800,800,800,800,800,800,800,800,800,800,800,800,800,800,800,800,800,800,801,802,804,808,811,813,816,818,825,828,834,842,853,884,904,925,941,956,977,983,992,1001,1008,1021,1023,1026,1029,1030,1034,1035,1039,1047,1058,1084,1097],"ymouse":[545,544,544,543,542,541,539,539,539,539,539,539,539,539,539,539,539,539,539,539,539,539,539,539,538,537,537,537,537,537,537,537,537,537,537,537,537,537,537,537,537,537,537,537,536,533,530,529,525,522,518,516,515,514,513,508,506,502,498,490,468,452,434,418,399,350,327,304,284,267,239,229,220,211,207,196,192,182,169,150,107,84],"timestamp_mouse":[16,39,46,66,86,105,124,146,165,185,206,225,244,266,285,304,324,346,366,386,406,425,446,466,486,505,525,546,565,585,605,625,646,666,686,706,725,745,766,786,807,826,845,866,885,905,926,946,965,986,1005,1026,1045,1065,1086,1105,1125,1145,1166,1186,1205,1225,1246,1266,1286,1305,1325,1345,1366,1385,1405,1425,1446,1466,1486,1505,1526,1545,1565,1586,1605,1625],"xSR":741.5,"ySR":469.95,"xT1":424.9,"yT1":0,"xT2":1058.1,"yT2":0,"toosoon":0,"cond_shown":"Incongruent","ratio_trial":300,"L_num":13,"L_den":26,"R_num":12,"R_den":15,"correct_side":2,"subjID":"Juliana Gaspar Mendez 29","gender":"1","school":"4","age":"8"},{"start_time":1552073624508,"click_time":1552073625699,"finger_time":1552073625417,"fix_duration":789.1117061056076,"trial":23,"RT":909,"MT":282,"sideResp":1,"stimulus":[],"xmouse":[791,791,791,791,791,791,791,791,791,791,791,791,791,791,791,791,791,791,791,791,791,791,791,791,791,791,791,791,791,791,791,791,791,791,791,791,791,791,791,791,791,791,787,783,773,737,712,685,664,623,588,569,555,544,530,528,528,527,525,519],"ymouse":[514,514,514,514,514,514,514,514,514,514,514,514,514,514,514,514,514,514,514,514,514,514,514,514,514,514,514,514,514,514,514,514,514,514,514,514,514,514,514,514,514,514,512,509,498,446,404,356,312,213,148,114,90,71,50,46,45,42,38,29],"timestamp_mouse":[20,45,48,70,89,109,130,149,169,190,210,230,250,269,289,310,329,350,369,389,410,429,450,470,489,509,529,550,569,590,610,630,650,670,689,710,729,750,770,790,810,829,849,870,889,909,929,949,969,991,1009,1029,1049,1070,1090,1109,1130,1149,1170,1191],"xSR":741.5,"ySR":469.95,"xT1":424.9,"yT1":0,"xT2":1058.1,"yT2":0,"toosoon":0,"cond_shown":"Congruent","ratio_trial":100,"L_num":2,"L_den":5,"R_num":6,"R_den":12,"correct_side":2,"subjID":"Juliana Gaspar Mendez 29","gender":"1","school":"4","age":"8"},{"start_time":1552073627959,"click_time":1552073629778,"finger_time":1552073629438,"fix_duration":740.4877683817045,"trial":24,"RT":1479,"MT":340,"sideResp":1,"stimulus":[],"xmouse":[782,782,782,782,782,782,782,782,782,782,782,782,782,782,782,782,782,782,782,782,782,782,782,782,782,782,782,782,782,782,782,782,782,782,782,782,783,785,786,788,788,788,789,789,789,789,789,789,789,789,789,789,789,789,789,789,789,789,789,789,789,789,789,789,789,789,789,789,789,789,789,789,789,784,767,733,655,588,579,575,574,573,573,572,570,568,564,547,537,525,513],"ymouse":[514,514,514,514,514,514,514,514,514,514,514,514,514,514,514,514,514,514,514,514,514,514,514,514,514,514,514,514,514,514,514,514,514,514,514,513,512,509,507,504,503,502,501,501,501,501,501,501,501,501,501,501,501,501,501,501,501,501,501,501,501,501,501,501,501,501,501,501,501,501,501,501,492,469,414,338,222,135,118,109,106,104,104,102,100,99,95,83,78,73,68],"timestamp_mouse":[18,42,59,78,99,119,139,157,178,199,218,239,259,278,299,318,338,359,379,399,419,439,458,478,499,518,538,559,578,598,619,639,659,678,698,718,738,758,778,799,819,838,858,878,899,918,939,958,978,998,1018,1038,1059,1079,1099,1119,1139,1159,1178,1198,1219,1238,1258,1279,1298,1319,1338,1359,1379,1399,1419,1439,1458,1479,1498,1518,1539,1559,1579,1598,1619,1638,1659,1679,1699,1718,1739,1758,1778,1798,1819],"xSR":741.5,"ySR":469.95,"xT1":424.9,"yT1":0,"xT2":1058.1,"yT2":0,"toosoon":0,"cond_shown":"Incongruent","ratio_trial":100,"L_num":9,"L_den":15,"R_num":13,"R_den":26,"correct_side":1,"subjID":"Juliana Gaspar Mendez 29","gender":"1","school":"4","age":"8"},{"start_time":1552073632344,"click_time":1552073634037,"finger_time":1552073633757,"fix_duration":1326.3693637452027,"trial":25,"RT":1413,"MT":280,"sideResp":2,"stimulus":[],"xmouse":[802,802,802,802,802,802,802,802,802,802,802,802,802,802,802,802,802,802,802,802,802,802,802,802,802,802,802,802,802,802,802,802,802,802,802,802,802,802,802,802,802,802,802,802,802,802,802,802,803,803,803,803,803,803,803,803,803,803,803,803,803,803,803,803,805,806,811,816,821,837,846,852,861,871,903,930,965,1001,1028,1043,1046,1047,1049,1053,1060],"ymouse":[515,515,515,515,515,515,515,515,515,515,515,515,515,515,515,515,515,515,515,515,515,515,515,515,515,515,515,515,515,515,515,515,515,515,515,515,515,515,515,515,515,515,515,515,515,515,515,515,515,515,515,515,515,515,515,515,515,515,515,515,515,515,515,515,511,511,507,503,497,477,468,458,447,435,389,342,278,219,183,161,157,144,128,105,66],"timestamp_mouse":[14,37,54,73,94,113,133,153,173,194,214,233,254,273,294,313,333,353,373,393,413,434,454,474,494,514,533,554,573,594,613,634,654,673,694,714,734,753,772,792,814,834,854,874,894,919,933,954,973,994,1013,1034,1053,1074,1092,1114,1134,1153,1174,1194,1214,1233,1253,1274,1293,1313,1333,1353,1374,1393,1413,1433,1453,1473,1493,1513,1534,1553,1574,1594,1613,1633,1654,1674,1693],"xSR":741.5,"ySR":469.95,"xT1":424.9,"yT1":0,"xT2":1058.1,"yT2":0,"toosoon":0,"cond_shown":"Congruent","ratio_trial":100,"L_num":4,"L_den":8,"R_num":6,"R_den":10,"correct_side":2,"subjID":"Juliana Gaspar Mendez 29","gender":"1","school":"4","age":"8"},{"start_time":1552073636001,"click_time":1552073637618,"finger_time":1552073637337,"fix_duration":682.1071936258041,"trial":26,"RT":1336,"MT":281,"sideResp":2,"stimulus":[],"xmouse":[786,786,786,786,786,786,786,786,786,786,786,786,786,786,786,786,786,786,786,786,786,786,786,786,786,786,786,786,786,786,786,786,786,786,786,786,786,786,786,786,786,786,786,786,786,786,786,786,786,786,779,758,758,757,757,757,757,757,757,757,757,757,757,761,771,792,854,880,906,934,957,1008,1036,1055,1063,1067,1076,1079,1081,1083,1086],"ymouse":[524,521,521,517,515,515,514,514,514,514,514,514,514,514,514,514,514,514,514,514,514,514,514,514,514,514,514,514,514,514,514,514,514,514,514,514,514,514,514,514,514,514,514,514,514,514,514,514,513,512,509,503,503,503,503,503,503,503,503,503,503,503,503,501,497,490,463,447,426,399,372,306,260,224,197,178,146,132,117,100,79],"timestamp_mouse":[17,52,56,76,97,116,137,156,177,197,217,237,256,277,296,317,336,356,376,397,416,437,457,477,497,516,537,557,576,596,616,637,657,677,696,716,736,757,777,796,817,836,857,877,896,916,937,957,976,996,1017,1036,1057,1076,1096,1116,1137,1157,1175,1197,1216,1236,1257,1276,1296,1316,1336,1357,1376,1396,1416,1436,1456,1476,1497,1516,1536,1556,1576,1597,1617],"xSR":741.5,"ySR":469.95,"xT1":424.9,"yT1":0,"xT2":1058.1,"yT2":0,"toosoon":0,"cond_shown":"Incongruent","ratio_trial":200,"L_num":3,"L_den":10,"R_num":1,"R_den":2,"correct_side":2,"subjID":"Juliana Gaspar Mendez 29","gender":"1","school":"4","age":"8"},{"start_time":1552073639645,"click_time":1552073640697,"finger_time":1552073640478,"fix_duration":825.3836819756673,"trial":27,"RT":833,"MT":219,"sideResp":1,"stimulus":[],"xmouse":[784,784,784,784,784,784,784,784,784,784,784,784,784,784,784,784,784,784,784,784,784,784,784,784,784,784,784,784,784,784,784,784,784,784,784,784,784,784,782,779,765,753,743,733,707,687,658,601,569,521,510,501,496],"ymouse":[526,525,525,525,525,525,525,525,525,525,525,525,525,524,523,522,522,521,520,519,519,519,519,519,519,519,519,519,519,519,519,519,518,517,514,513,512,509,503,495,472,458,445,433,396,369,332,264,218,145,122,101,86],"timestamp_mouse":[12,46,52,73,92,112,132,153,172,193,213,232,253,273,293,313,332,353,373,393,412,432,453,473,493,512,533,553,572,592,612,633,652,673,692,713,732,753,772,792,813,833,852,872,893,912,933,952,972,992,1012,1033,1052],"xSR":741.5,"ySR":469.95,"xT1":424.9,"yT1":0,"xT2":1058.1,"yT2":0,"toosoon":0,"cond_shown":"Congruent","ratio_trial":300,"L_num":20,"L_den":25,"R_num":8,"R_den":16,"correct_side":1,"subjID":"Juliana Gaspar Mendez 29","gender":"1","school":"4","age":"8"},{"start_time":1552073643086,"click_time":1552073645138,"finger_time":1552073644598,"fix_duration":828.5863030682432,"trial":28,"RT":1512,"MT":540,"sideResp":1,"stimulus":[],"xmouse":[789,789,789,789,789,789,789,789,789,789,789,789,789,789,789,789,789,789,789,789,789,789,789,789,789,789,789,789,789,789,789,789,789,789,789,789,789,789,789,789,789,789,789,789,789,789,789,789,789,789,790,794,799,808,810,813,815,819,820,820,820,820,820,820,820,820,820,820,820,820,821,821,821,816,806,788,765,716,701,691,686,682,669,650,636,620,608,602,594,590,586,579,573,558,557,555,551,545,519,505,496,489,486],"ymouse":[518,518,518,518,518,518,518,518,518,518,518,518,518,518,518,518,518,518,518,518,518,518,518,518,518,518,518,518,518,518,518,518,518,518,518,518,518,518,518,518,518,518,518,518,518,518,518,518,518,518,518,516,514,509,508,507,506,502,502,502,502,502,502,502,502,502,502,502,502,502,501,500,497,485,475,463,448,415,402,390,378,364,326,292,266,239,216,197,162,150,140,130,124,119,119,119,119,120,121,117,110,103,95],"timestamp_mouse":[11,40,50,71,91,112,131,151,171,192,212,232,252,271,291,311,331,351,371,392,410,432,451,472,492,511,532,552,571,592,611,632,652,672,690,712,732,752,771,792,811,832,851,872,892,912,932,952,971,992,1013,1032,1051,1072,1091,1112,1131,1152,1171,1191,1212,1231,1252,1272,1291,1312,1331,1351,1371,1391,1412,1432,1451,1471,1491,1512,1531,1553,1571,1592,1611,1631,1653,1672,1692,1711,1731,1752,1771,1791,1811,1831,1851,1872,1891,1911,1932,1952,1972,1991,2011,2032,2052],"xSR":741.5,"ySR":469.95,"xT1":424.9,"yT1":0,"xT2":1058.1,"yT2":0,"toosoon":0,"cond_shown":"Congruent","ratio_trial":200,"L_num":6,"L_den":15,"R_num":3,"R_den":15,"correct_side":1,"subjID":"Juliana Gaspar Mendez 29","gender":"1","school":"4","age":"8"},{"start_time":1552073647696,"click_time":1552073648658,"finger_time":1552073648418,"fix_duration":1337.5389393944051,"trial":29,"RT":722,"MT":240,"sideResp":2,"stimulus":[],"xmouse":[781,781,781,781,781,781,781,781,781,781,781,781,781,781,781,781,781,781,781,781,781,783,783,783,784,784,784,785,785,786,788,789,792,798,805,815,833,848,870,884,894,906,920,977,1005,1030,1052,1066,1080],"ymouse":[529,529,529,529,529,529,529,529,529,529,529,529,529,529,529,529,529,529,529,529,529,529,528,526,525,525,524,523,522,520,518,516,512,502,492,480,463,445,407,384,359,332,306,228,196,166,140,117,83],"timestamp_mouse":[11,22,42,61,81,102,122,141,161,181,202,221,241,261,281,301,322,342,361,381,402,421,441,461,481,502,522,541,561,581,601,622,642,661,682,702,722,742,761,781,801,821,841,861,881,901,922,941,961],"xSR":741.5,"ySR":469.95,"xT1":424.9,"yT1":0,"xT2":1058.1,"yT2":0,"toosoon":0,"cond_shown":"Congruent","ratio_trial":300,"L_num":4,"L_den":20,"R_num":13,"R_den":26,"correct_side":2,"subjID":"Juliana Gaspar Mendez 29","gender":"1","school":"4","age":"8"},{"start_time":1552073650595,"click_time":1552073651577,"finger_time":1552073651377,"fix_duration":735.3428148138792,"trial":30,"RT":782,"MT":200,"sideResp":1,"stimulus":[],"xmouse":[781,781,781,781,781,781,781,781,781,781,781,781,781,781,781,781,781,781,781,781,781,781,781,782,782,782,782,783,784,784,785,785,785,785,784,782,781,779,775,754,738,717,694,666,650,614,588,566,527,515],"ymouse":[516,516,516,516,516,516,516,516,516,516,516,516,516,516,516,516,516,516,516,516,516,516,516,516,515,515,515,515,514,514,513,512,511,508,504,501,498,493,480,438,412,383,356,314,288,224,184,155,109,96],"timestamp_mouse":[10,34,42,63,82,102,122,142,162,182,202,222,242,262,282,302,321,342,363,382,403,422,442,463,482,503,522,542,562,583,603,623,643,663,682,703,723,742,762,782,802,822,842,863,882,901,922,942,963,982],"xSR":741.5,"ySR":469.95,"xT1":424.9,"yT1":0,"xT2":1058.1,"yT2":0,"toosoon":0,"cond_shown":"Incongruent","ratio_trial":200,"L_num":4,"L_den":5,"R_num":6,"R_den":10,"correct_side":1,"subjID":"Juliana Gaspar Mendez 29","gender":"1","school":"4","age":"8"},{"start_time":1552073654036,"click_time":1552073655338,"finger_time":1552073654877,"fix_duration":1216.4487251756857,"trial":31,"RT":841,"MT":461,"sideResp":2,"stimulus":[],"xmouse":[785,785,785,785,785,785,785,785,785,785,785,785,785,785,785,785,785,785,785,785,785,785,785,785,785,785,785,785,785,785,785,785,785,786,789,790,791,798,801,806,813,822,857,888,914,936,960,999,1014,1024,1032,1039,1052,1059,1064,1070,1075,1086,1090,1091,1092,1092,1092,1092,1092,1092],"ymouse":[524,524,524,524,524,524,524,524,524,524,524,524,524,524,524,524,524,524,524,524,524,524,524,524,524,524,524,524,524,524,524,524,524,523,520,518,517,511,507,500,492,481,447,418,396,376,354,309,287,268,251,235,207,194,184,169,156,129,118,110,106,105,105,105,103,98],"timestamp_mouse":[10,22,41,61,81,101,121,141,162,181,202,222,242,262,281,302,322,340,362,381,402,421,442,463,482,502,522,541,561,582,602,621,642,661,682,701,722,741,761,781,802,822,841,861,881,902,922,941,962,981,1002,1021,1041,1061,1081,1101,1122,1141,1163,1181,1201,1222,1241,1261,1281,1302],"xSR":741.5,"ySR":469.95,"xT1":424.9,"yT1":0,"xT2":1058.1,"yT2":0,"toosoon":0,"cond_shown":"Congruent","ratio_trial":100,"L_num":8,"L_den":16,"R_num":2,"R_den":5,"correct_side":1,"subjID":"Juliana Gaspar Mendez 29","gender":"1","school":"4","age":"8"},{"start_time":1552073658793,"click_time":1552073660297,"finger_time":1552073659938,"fix_duration":335.97659855697725,"trial":32,"RT":1145,"MT":359,"sideResp":2,"stimulus":[],"xmouse":[782,782,782,782,782,782,782,782,782,782,782,782,782,782,782,782,782,782,782,782,782,782,782,782,782,782,782,782,782,782,783,783,783,783,783,782,782,782,782,782,782,782,782,782,782,782,782,782,782,782,782,782,782,782,791,799,809,823,843,862,895,917,929,941,953,980,994,1010,1028,1063,1080,1093,1110,1116,1122,1129],"ymouse":[538,538,538,538,538,538,538,538,538,538,538,538,538,538,538,538,538,538,538,538,538,538,538,538,538,538,538,538,538,538,537,537,536,535,534,533,533,533,533,533,533,533,533,533,533,533,533,533,533,533,533,533,532,525,509,496,481,464,440,415,365,330,306,286,267,237,224,212,199,174,160,147,124,111,101,85],"timestamp_mouse":[10,39,45,65,85,105,124,144,164,185,204,224,244,264,285,305,325,344,364,385,404,424,444,464,485,505,525,545,564,585,604,625,645,664,684,705,724,744,765,784,805,825,844,865,884,905,924,945,965,985,1004,1024,1045,1065,1085,1104,1125,1145,1165,1186,1204,1224,1244,1265,1284,1304,1325,1344,1364,1385,1404,1424,1445,1465,1484,1504],"xSR":741.5,"ySR":469.95,"xT1":424.9,"yT1":0,"xT2":1058.1,"yT2":0,"toosoon":0,"cond_shown":"Congruent","ratio_trial":200,"L_num":3,"L_den":10,"R_num":11,"R_den":22,"correct_side":2,"subjID":"Juliana Gaspar Mendez 29","gender":"1","school":"4","age":"8"},{"start_time":1552073662304,"click_time":1552073664617,"finger_time":1552073663797,"fix_duration":285.94434424645834,"trial":33,"RT":1493,"MT":820,"sideResp":2,"stimulus":[],"xmouse":[760,760,760,760,760,760,760,760,760,760,760,760,760,760,760,760,760,760,760,761,761,761,761,761,761,761,761,761,762,762,763,763,763,763,763,763,763,763,763,763,763,763,763,763,763,763,763,763,763,763,763,763,763,763,763,763,763,763,763,763,763,763,763,764,764,764,764,765,767,775,780,786,797,814,852,875,927,985,1024,1056,1061,1063,1065,1066,1068,1068,1068,1068,1068,1068,1064,1060,1055,1052,1046,1044,1042,1039,1038,1035,1034,1034,1034,1034,1033,1033,1033,1033,1033,1033,1034,1035,1041,1047,1058,1062],"ymouse":[538,538,538,538,538,538,538,538,538,538,538,538,538,538,538,538,538,538,538,537,536,536,535,535,535,535,535,535,533,532,530,530,530,530,530,530,530,530,530,530,530,530,530,530,530,530,530,530,530,530,530,530,530,530,530,530,529,528,528,528,527,527,527,526,526,526,525,524,523,519,516,513,507,501,482,472,450,428,416,395,387,378,368,356,313,293,269,242,215,162,142,128,119,113,101,98,94,90,88,83,80,74,68,59,52,52,52,52,52,52,51,51,50,49,48,48],"timestamp_mouse":[13,39,53,73,93,113,133,153,174,193,213,234,254,272,294,314,333,353,374,393,413,433,454,473,493,513,533,553,574,593,613,634,653,674,694,713,733,753,773,794,813,833,853,873,893,914,933,953,974,993,1013,1033,1054,1073,1093,1113,1133,1153,1173,1194,1213,1233,1254,1274,1293,1313,1333,1353,1373,1393,1414,1433,1453,1474,1493,1514,1533,1553,1573,1594,1613,1633,1653,1673,1693,1713,1733,1753,1774,1793,1814,1833,1853,1873,1893,1914,1934,1953,1974,1993,2014,2033,2054,2073,2093,2114,2133,2153,2174,2193,2214,2234,2253,2273,2294,2312],"xSR":741.5,"ySR":469.95,"xT1":424.9,"yT1":0,"xT2":1058.1,"yT2":0,"toosoon":0,"cond_shown":"Incongruent","ratio_trial":200,"L_num":9,"L_den":15,"R_num":8,"R_den":10,"correct_side":2,"subjID":"Juliana Gaspar Mendez 29","gender":"1","school":"4","age":"8"},{"start_time":1552073666878,"click_time":1552073668318,"finger_time":1552073668158,"fix_duration":998.7986040693478,"trial":34,"RT":1280,"MT":160,"sideResp":1,"stimulus":[],"xmouse":[784,784,784,784,784,784,784,784,784,784,784,784,784,784,784,784,784,784,784,784,784,784,784,784,784,784,784,784,784,784,784,784,784,784,784,784,784,784,784,784,784,784,783,783,783,783,783,783,783,783,783,783,783,783,783,783,783,783,783,783,783,783,776,767,755,726,710,688,660,626,530,504],"ymouse":[520,520,520,520,520,520,520,520,520,520,520,520,520,520,520,520,520,520,520,520,519,518,518,518,518,518,518,518,518,518,518,518,518,518,518,518,517,517,516,515,514,514,512,512,511,509,508,507,507,506,506,506,506,506,505,505,505,503,502,501,497,494,479,463,445,398,358,304,244,176,37,4],"timestamp_mouse":[21,39,59,79,99,119,140,159,180,199,219,239,260,280,300,320,339,360,379,400,420,440,460,480,500,520,539,560,579,600,620,639,659,679,700,719,740,760,779,800,820,840,859,880,899,920,939,959,980,999,1020,1040,1059,1079,1100,1119,1140,1159,1179,1199,1220,1240,1260,1280,1300,1320,1339,1359,1380,1400,1421,1439],"xSR":741.5,"ySR":469.95,"xT1":424.9,"yT1":0,"xT2":1058.1,"yT2":0,"toosoon":0,"cond_shown":"Incongruent","ratio_trial":200,"L_num":4,"L_den":6,"R_num":14,"R_den":30,"correct_side":1,"subjID":"Juliana Gaspar Mendez 29","gender":"1","school":"4","age":"8"},{"start_time":1552073670031,"click_time":1552073672018,"finger_time":1552073671517,"fix_duration":250,"trial":35,"RT":1486,"MT":501,"sideResp":2,"stimulus":[],"xmouse":[753,753,753,753,753,753,753,753,753,753,753,753,753,753,753,754,754,755,755,755,755,755,755,755,755,755,755,755,755,755,755,755,755,755,755,755,755,755,755,755,755,755,755,755,755,755,755,755,755,755,755,755,755,755,755,756,757,757,757,757,757,757,759,760,771,778,784,789,793,802,806,813,826,837,889,911,934,951,961,971,978,984,990,996,1007,1011,1014,1015,1018,1020,1020,1020,1021,1021,1027,1033,1042,1052,1064,1090],"ymouse":[533,533,533,533,533,532,532,532,532,532,532,532,532,532,532,531,530,530,530,530,530,530,530,530,530,530,530,530,530,530,530,530,530,530,530,530,530,530,530,530,530,530,530,530,530,530,530,530,530,530,530,530,530,530,529,529,528,527,527,527,527,527,525,525,521,517,516,514,512,505,502,496,487,478,437,420,403,386,372,344,330,313,299,286,258,247,237,228,219,207,203,200,197,195,184,174,162,147,131,99],"timestamp_mouse":[13,36,46,67,87,119,126,146,167,187,207,227,246,267,285,306,327,346,367,386,406,426,447,466,487,506,527,546,566,586,606,627,647,666,687,707,726,747,767,786,807,827,847,866,886,906,927,947,966,987,1006,1027,1047,1067,1086,1107,1127,1147,1167,1187,1207,1227,1246,1266,1286,1307,1327,1346,1366,1386,1407,1426,1447,1467,1486,1507,1526,1547,1567,1587,1605,1626,1647,1667,1685,1706,1727,1746,1766,1786,1806,1827,1846,1866,1886,1906,1926,1946,1967,1986],"xSR":741.5,"ySR":469.95,"xT1":424.9,"yT1":0,"xT2":1058.1,"yT2":0,"toosoon":0,"cond_shown":"Congruent","ratio_trial":100,"L_num":2,"L_den":5,"R_num":11,"R_den":22,"correct_side":2,"subjID":"Juliana Gaspar Mendez 29","gender":"1","school":"4","age":"8"},{"start_time":1552073675093,"click_time":1552073676977,"finger_time":1552073676358,"fix_duration":293.73799639777144,"trial":36,"RT":1265,"MT":619,"sideResp":2,"stimulus":[],"xmouse":[817,817,817,817,817,817,817,817,817,817,817,817,817,817,817,817,817,817,817,817,817,817,817,817,817,817,817,817,817,817,817,817,817,817,817,817,817,817,817,817,817,817,817,817,817,817,817,817,817,817,817,817,817,817,817,817,817,817,820,825,830,839,841,843,847,852,869,887,911,977,1034,1126,1158,1182,1193,1198,1199,1199,1199,1199,1199,1199,1199,1199,1199,1195,1185,1178,1173,1163,1161,1160,1160,1159,1157],"ymouse":[514,514,514,514,514,514,514,514,514,514,514,514,514,514,514,514,514,514,514,514,514,514,514,514,514,514,514,514,514,514,514,514,514,514,514,514,514,514,514,514,514,514,514,514,514,514,514,514,514,514,514,514,514,514,514,514,514,514,505,497,491,482,481,479,477,473,456,438,412,344,290,176,129,87,57,38,22,19,19,18,17,17,17,16,16,16,19,22,23,25,25,25,25,25,25],"timestamp_mouse":[16,41,45,64,85,104,125,144,165,184,205,224,245,265,284,305,324,344,364,383,405,424,445,465,484,504,525,545,563,585,604,624,644,664,685,704,724,744,764,785,804,823,844,864,885,905,924,944,965,985,1004,1025,1045,1065,1084,1105,1125,1144,1165,1185,1205,1224,1244,1265,1285,1305,1325,1344,1365,1385,1404,1425,1443,1464,1485,1504,1526,1544,1564,1585,1604,1625,1644,1665,1684,1704,1726,1743,1765,1784,1804,1825,1845,1864,1884],"xSR":741.5,"ySR":469.95,"xT1":424.9,"yT1":0,"xT2":1058.1,"yT2":0,"toosoon":0,"cond_shown":"Congruent","ratio_trial":200,"L_num":5,"L_den":10,"R_num":14,"R_den":20,"correct_side":2,"subjID":"Juliana Gaspar Mendez 29","gender":"1","school":"4","age":"8"},{"start_time":1552073680171,"click_time":1552073681798,"finger_time":1552073681018,"fix_duration":250,"trial":37,"RT":847,"MT":780,"sideResp":2,"stimulus":[],"xmouse":[822,818,818,813,813,813,813,813,813,813,813,813,813,813,813,813,813,813,813,813,813,813,813,813,813,813,813,813,813,813,813,813,813,813,813,812,813,815,822,827,833,839,851,869,878,885,890,893,897,903,911,919,935,959,972,982,993,1001,1013,1018,1024,1027,1030,1033,1035,1038,1042,1047,1051,1052,1052,1052,1052,1052,1054,1056,1057,1057,1057,1057,1057,1059],"ymouse":[537,537,537,535,535,535,535,535,535,535,535,535,535,535,535,535,535,535,535,535,535,535,535,535,535,535,535,535,535,535,535,535,535,535,535,534,532,529,519,513,505,497,482,458,445,434,425,419,409,400,385,370,344,307,286,267,248,231,201,188,175,167,154,133,120,102,84,67,52,50,50,49,49,49,49,49,49,49,49,49,49,49],"timestamp_mouse":[9,36,47,66,87,107,126,146,167,187,207,226,247,266,286,307,327,347,366,386,407,427,446,467,486,507,526,547,567,587,606,625,646,667,686,707,727,747,766,786,806,826,847,866,886,906,926,946,966,985,1006,1026,1046,1066,1086,1107,1127,1147,1166,1186,1207,1227,1246,1266,1286,1306,1326,1347,1366,1386,1406,1427,1447,1466,1486,1506,1526,1545,1567,1587,1606,1627],"xSR":741.5,"ySR":469.95,"xT1":424.9,"yT1":0,"xT2":1058.1,"yT2":0,"toosoon":0,"cond_shown":"Incongruent","ratio_trial":300,"L_num":4,"L_den":20,"R_num":2,"R_den":4,"correct_side":2,"subjID":"Juliana Gaspar Mendez 29","gender":"1","school":"4","age":"8"},{"start_time":1552073684677,"click_time":1552073686537,"finger_time":1552073685857,"fix_duration":438.11826288807987,"trial":38,"RT":1180,"MT":680,"sideResp":2,"stimulus":[],"xmouse":[784,782,782,782,782,782,782,782,782,782,782,782,782,782,782,782,783,783,784,784,784,784,784,784,784,784,786,786,786,786,786,786,786,786,786,787,787,787,788,789,789,790,790,790,790,790,790,790,790,790,790,791,792,795,799,803,815,823,835,853,860,866,874,882,901,907,918,925,940,946,951,955,959,968,974,975,977,981,991,994,998,1001,1006,1011,1026,1038,1047,1054,1065,1068,1069,1070,1070,1071],"ymouse":[530,531,531,531,531,531,531,531,531,531,531,531,531,531,531,531,531,531,531,531,531,531,531,531,531,531,530,530,530,530,530,530,530,530,530,530,530,530,530,529,529,527,527,527,527,527,527,527,527,527,527,527,526,523,519,515,504,493,478,455,446,437,427,416,388,375,357,345,323,315,306,299,292,279,271,266,258,249,234,230,223,218,209,198,173,151,136,125,108,104,102,100,100,99],"timestamp_mouse":[1,34,40,60,80,101,120,140,160,180,200,221,241,260,280,301,321,340,360,381,401,420,441,460,481,500,521,541,560,581,600,621,640,661,680,701,720,740,760,780,799,820,841,861,881,900,921,940,960,981,1000,1020,1040,1061,1081,1100,1120,1141,1161,1180,1200,1219,1241,1262,1280,1300,1320,1341,1362,1380,1401,1420,1440,1461,1480,1500,1521,1540,1561,1580,1600,1620,1641,1660,1681,1701,1721,1739,1761,1780,1801,1821,1840,1860],"xSR":741.5,"ySR":469.95,"xT1":424.9,"yT1":0,"xT2":1058.1,"yT2":0,"toosoon":0,"cond_shown":"Incongruent","ratio_trial":200,"L_num":14,"L_den":30,"R_num":6,"R_den":9,"correct_side":2,"subjID":"Juliana Gaspar Mendez 29","gender":"1","school":"4","age":"8"},{"start_time":1552073687730,"click_time":1552073689817,"finger_time":1552073689097,"fix_duration":250,"trial":39,"RT":1367,"MT":720,"sideResp":2,"stimulus":[],"xmouse":[770,770,770,770,770,770,770,770,770,770,770,770,770,770,770,770,770,770,770,770,770,770,770,773,776,776,776,776,776,776,776,776,776,776,776,776,777,777,777,777,777,777,777,777,777,777,777,777,777,777,777,777,777,777,777,777,777,777,777,777,777,778,783,788,792,800,817,822,827,829,832,833,833,833,833,833,833,836,845,863,885,941,949,955,957,959,963,968,974,976,979,986,992,1000,1014,1026,1040,1046,1052,1059,1077,1113,1126,1136,1146],"ymouse":[517,517,517,517,517,517,517,517,517,517,517,517,517,517,517,517,517,517,517,517,517,517,517,517,517,517,517,517,517,517,517,517,517,517,517,517,517,517,517,517,517,517,517,517,517,517,517,517,517,517,517,517,517,517,517,517,517,517,517,517,517,516,512,507,503,496,480,475,468,464,461,459,459,459,459,459,458,454,445,427,403,322,310,303,301,299,295,289,277,266,253,244,239,233,224,212,196,185,177,168,158,140,131,115,89],"timestamp_mouse":[9,32,48,67,86,107,127,147,168,187,207,228,247,268,287,307,328,348,366,387,407,428,448,468,487,508,527,547,568,588,607,627,647,667,687,707,727,748,767,787,807,827,847,868,888,907,927,948,967,987,1007,1026,1047,1068,1088,1107,1127,1147,1168,1188,1208,1227,1248,1268,1286,1307,1327,1346,1367,1387,1408,1428,1447,1467,1487,1507,1527,1547,1567,1588,1608,1627,1647,1667,1687,1708,1728,1747,1768,1788,1806,1827,1847,1867,1888,1907,1926,1948,1968,1987,2008,2027,2047,2067,2086],"xSR":741.5,"ySR":469.95,"xT1":424.9,"yT1":0,"xT2":1058.1,"yT2":0,"toosoon":0,"cond_shown":"Incongruent","ratio_trial":300,"L_num":13,"L_den":26,"R_num":12,"R_den":15,"correct_side":2,"subjID":"Juliana Gaspar Mendez 29","gender":"1","school":"4","age":"8"},{"start_time":1552073691169,"click_time":1552073693158,"finger_time":1552073692618,"fix_duration":250,"trial":40,"RT":1449,"MT":540,"sideResp":1,"stimulus":[],"xmouse":[797,797,797,796,796,796,796,795,794,792,791,791,791,791,791,791,791,791,791,791,791,791,791,791,791,791,791,791,791,791,791,791,791,791,791,791,791,791,791,791,791,791,791,791,791,791,791,791,792,793,794,795,797,799,805,806,807,808,808,808,808,808,808,808,808,808,808,808,808,808,804,800,792,781,749,727,706,689,678,676,676,676,675,669,641,623,603,583,557,534,527,525,525,525,525,525,525,525,523,500],"ymouse":[540,539,539,539,538,538,538,537,534,530,528,528,528,527,527,527,527,527,527,527,527,527,527,527,527,527,527,527,527,527,527,527,527,527,527,527,527,527,527,527,527,527,527,526,526,526,526,526,526,526,525,525,524,523,519,518,517,517,517,517,517,517,517,517,517,517,517,517,515,507,496,479,457,431,358,318,281,259,247,246,246,245,245,242,227,217,204,191,171,151,144,142,142,142,142,142,141,139,128,92],"timestamp_mouse":[18,43,48,68,89,108,129,149,168,188,209,228,248,268,288,309,329,349,369,388,409,428,449,468,488,508,528,548,569,588,608,628,649,668,689,708,729,749,767,788,808,829,848,868,889,908,928,948,969,989,1009,1029,1049,1069,1088,1109,1129,1149,1168,1189,1208,1229,1248,1268,1289,1309,1328,1350,1369,1388,1409,1428,1449,1468,1489,1508,1528,1549,1569,1588,1609,1628,1649,1668,1688,1708,1728,1749,1769,1789,1808,1828,1848,1868,1888,1908,1929,1949,1969,1989],"xSR":741.5,"ySR":469.95,"xT1":424.9,"yT1":0,"xT2":1058.1,"yT2":0,"toosoon":0,"cond_shown":"Congruent","ratio_trial":200,"L_num":14,"L_den":28,"R_num":6,"R_den":20,"correct_side":1,"subjID":"Juliana Gaspar Mendez 29","gender":"1","school":"4","age":"8"},{"start_time":1552073695278,"click_time":1552073697118,"finger_time":1552073696518,"fix_duration":919.3149270053095,"trial":41,"RT":1240,"MT":600,"sideResp":2,"stimulus":[],"xmouse":[795,795,795,795,795,795,795,795,795,795,795,795,795,795,795,795,795,795,795,795,795,795,795,795,795,795,795,795,795,795,795,795,795,795,795,795,795,795,795,795,795,795,795,795,795,795,795,795,795,795,795,795,795,795,795,795,795,800,805,823,839,852,866,880,911,930,947,963,973,986,989,991,993,995,998,998,998,998,997,999,1008,1011,1013,1018,1029,1034,1039,1043,1046,1054,1058,1061],"ymouse":[512,512,512,512,512,512,512,512,512,512,512,512,512,512,512,512,512,512,512,512,512,512,512,512,512,512,512,512,512,512,512,512,512,512,512,512,512,512,512,512,512,512,512,512,512,512,512,512,512,512,512,512,512,512,512,512,512,511,509,500,488,477,463,446,409,388,368,350,340,326,320,316,310,301,273,256,236,217,199,170,153,148,140,131,111,104,98,94,90,81,77,74],"timestamp_mouse":[19,45,60,79,100,120,139,160,179,200,219,240,259,280,299,319,339,359,379,400,419,440,459,480,499,520,539,560,579,600,620,639,659,679,700,719,740,760,779,800,820,840,860,879,900,919,939,960,979,1000,1019,1040,1059,1080,1100,1119,1140,1160,1180,1200,1220,1240,1259,1280,1299,1319,1339,1360,1379,1399,1419,1440,1458,1479,1500,1519,1539,1560,1579,1599,1620,1638,1659,1680,1699,1719,1739,1759,1779,1799,1820,1840],"xSR":741.5,"ySR":469.95,"xT1":424.9,"yT1":0,"xT2":1058.1,"yT2":0,"toosoon":0,"cond_shown":"Incongruent","ratio_trial":100,"L_num":9,"L_den":18,"R_num":6,"R_den":10,"correct_side":2,"subjID":"Juliana Gaspar Mendez 29","gender":"1","school":"4","age":"8"},{"start_time":1552073699411,"click_time":1552073701017,"finger_time":1552073700598,"fix_duration":1172.545438105325,"trial":42,"RT":1187,"MT":419,"sideResp":2,"stimulus":[],"xmouse":[773,773,773,773,773,773,773,773,773,773,773,773,773,773,773,773,773,774,774,774,775,775,776,777,777,778,778,778,778,778,778,778,778,778,780,782,784,786,787,790,790,791,791,791,792,793,793,793,794,794,795,795,797,802,805,809,812,816,828,841,854,871,887,916,926,932,939,946,959,965,972,978,986,997,1004,1011,1020,1029,1048,1053,1060],"ymouse":[537,537,537,537,537,537,537,537,537,537,537,537,537,537,537,537,537,537,537,537,537,537,536,535,535,535,535,535,535,535,535,535,535,535,534,533,533,532,531,529,528,528,528,527,526,526,526,526,525,524,523,522,518,510,504,498,493,487,474,467,459,449,437,398,381,367,350,334,311,296,279,264,244,222,210,195,178,160,122,103,85],"timestamp_mouse":[15,39,46,67,86,107,127,146,167,187,206,227,246,266,286,306,327,345,367,386,406,427,447,466,487,506,526,546,567,586,606,626,646,666,686,706,726,747,766,786,806,826,847,866,887,907,926,947,965,986,1006,1027,1046,1066,1087,1107,1126,1146,1167,1187,1207,1226,1247,1266,1286,1306,1327,1346,1367,1385,1407,1427,1447,1466,1487,1506,1526,1546,1566,1586,1606],"xSR":741.5,"ySR":469.95,"xT1":424.9,"yT1":0,"xT2":1058.1,"yT2":0,"toosoon":0,"cond_shown":"Incongruent","ratio_trial":200,"L_num":7,"L_den":15,"R_num":6,"R_den":9,"correct_side":2,"subjID":"Juliana Gaspar Mendez 29","gender":"1","school":"4","age":"8"},{"start_time":1552073703910,"click_time":1552073705137,"finger_time":1552073704817,"fix_duration":250,"trial":43,"RT":907,"MT":320,"sideResp":1,"stimulus":[],"xmouse":[793,793,793,793,793,793,793,793,793,793,793,793,793,793,793,793,793,793,793,793,793,793,793,793,793,793,793,793,793,793,793,793,793,793,793,793,793,793,792,788,785,780,774,748,728,717,708,697,694,688,675,656,632,571,544,532,524,519,508,496,477],"ymouse":[536,536,536,536,536,536,536,536,536,536,536,536,536,536,536,536,536,536,536,536,536,536,536,536,536,536,536,536,536,536,536,536,536,536,536,536,536,536,536,531,526,519,513,493,476,466,455,427,406,378,336,295,250,178,146,132,125,121,113,104,93],"timestamp_mouse":[10,48,67,87,106,128,148,168,188,208,227,247,268,288,307,327,347,367,388,407,428,447,468,487,507,528,547,567,588,608,627,648,668,687,707,727,747,768,788,808,828,848,867,888,907,928,947,969,988,1007,1027,1046,1068,1087,1108,1127,1147,1167,1187,1207,1227],"xSR":741.5,"ySR":469.95,"xT1":424.9,"yT1":0,"xT2":1058.1,"yT2":0,"toosoon":0,"cond_shown":"Incongruent","ratio_trial":100,"L_num":3,"L_den":5,"R_num":11,"R_den":22,"correct_side":1,"subjID":"Juliana Gaspar Mendez 29","gender":"1","school":"4","age":"8"},{"start_time":1552073706471,"click_time":1552073708317,"finger_time":1552073707918,"fix_duration":250,"trial":44,"RT":1447,"MT":399,"sideResp":1,"stimulus":[],"xmouse":[780,780,780,780,780,780,780,780,780,780,780,780,780,780,780,780,780,780,780,780,780,780,780,780,780,780,780,780,780,780,780,780,780,780,780,780,780,780,780,780,780,780,780,780,780,780,780,780,780,780,780,780,780,780,780,780,780,780,780,780,780,780,780,780,780,780,780,780,778,774,769,751,740,727,713,696,642,617,589,568,551,525,520,515,512,509,506,504,503,502,499,490,485],"ymouse":[520,520,520,520,520,520,520,520,520,520,520,520,520,520,520,520,520,520,520,520,520,520,520,520,520,520,520,520,520,520,520,520,520,520,520,520,520,520,520,520,520,520,520,520,520,520,520,520,520,520,520,520,520,520,520,520,520,520,520,520,520,520,520,520,520,520,520,517,512,505,497,473,459,443,427,406,342,315,288,270,256,225,210,195,182,172,156,149,142,136,128,106,96],"timestamp_mouse":[11,42,46,66,86,106,127,147,166,187,206,227,246,267,287,307,327,346,367,387,407,427,447,466,487,507,527,546,567,587,606,625,646,666,687,706,727,747,766,787,807,826,847,866,886,907,926,947,966,987,1006,1026,1046,1066,1087,1106,1125,1147,1167,1186,1207,1226,1246,1267,1285,1307,1326,1346,1366,1387,1407,1426,1447,1466,1486,1507,1526,1546,1566,1587,1606,1626,1645,1666,1687,1706,1726,1746,1766,1786,1807,1826,1846],"xSR":741.5,"ySR":469.95,"xT1":424.9,"yT1":0,"xT2":1058.1,"yT2":0,"toosoon":0,"cond_shown":"Congruent","ratio_trial":100,"L_num":15,"L_den":25,"R_num":13,"R_den":26,"correct_side":1,"subjID":"Juliana Gaspar Mendez 29","gender":"1","school":"4","age":"8"},{"start_time":1552073709671,"click_time":1552073711417,"finger_time":1552073710977,"fix_duration":250,"trial":45,"RT":1306,"MT":440,"sideResp":1,"stimulus":[],"xmouse":[796,796,796,796,796,796,796,796,796,796,796,796,796,796,796,796,796,796,796,796,796,796,796,796,796,796,796,796,796,796,796,796,796,796,796,796,796,796,796,796,796,796,796,796,796,796,796,796,796,796,796,796,796,796,796,796,796,796,797,798,798,798,799,802,804,807,815,815,815,813,809,798,791,787,779,774,762,753,734,709,686,624,591,584,563,549,508,491],"ymouse":[529,529,529,529,529,529,529,529,529,529,529,529,529,529,529,529,529,529,529,529,529,529,529,529,529,529,529,529,529,529,529,529,529,529,529,529,529,529,529,529,529,529,529,529,529,529,529,529,529,529,529,529,529,529,529,529,529,529,527,523,520,511,503,490,477,458,419,405,389,375,359,336,326,318,310,304,293,285,271,252,234,193,169,162,145,133,109,99],"timestamp_mouse":[10,35,47,66,86,107,127,146,166,187,207,226,246,266,287,305,326,347,366,387,405,427,446,467,487,506,526,546,567,586,607,627,646,667,687,707,726,746,767,787,807,826,847,867,887,907,927,947,967,986,1006,1026,1047,1067,1087,1106,1126,1146,1166,1186,1207,1226,1247,1266,1287,1306,1327,1347,1366,1386,1407,1428,1446,1466,1487,1506,1527,1545,1567,1587,1606,1627,1646,1666,1687,1706,1727,1746],"xSR":741.5,"ySR":469.95,"xT1":424.9,"yT1":0,"xT2":1058.1,"yT2":0,"toosoon":0,"cond_shown":"Congruent","ratio_trial":300,"L_num":20,"L_den":25,"R_num":13,"R_den":26,"correct_side":1,"subjID":"Juliana Gaspar Mendez 29","gender":"1","school":"4","age":"8"},{"start_time":1552073713478,"click_time":1552073715358,"finger_time":1552073714198,"fix_duration":977.4809592809875,"trial":46,"RT":720,"MT":1160,"sideResp":1,"stimulus":[],"xmouse":[787,787,787,787,787,787,787,787,787,787,787,787,787,787,787,787,787,787,787,787,787,787,787,787,787,787,787,787,787,787,789,792,805,818,829,838,846,855,859,863,868,876,885,887,887,888,894,899,901,905,906,908,913,915,917,918,919,919,919,919,919,919,919,918,915,914,912,909,903,897,887,863,838,821,807,788,764,701,663,612,566,525,449,429,414,401,393,375,366,359,356,356,379,403,426],"ymouse":[526,526,526,526,526,526,526,526,526,526,526,526,526,526,526,526,526,526,526,526,526,526,526,526,526,526,526,526,526,526,526,523,510,500,490,481,473,458,446,432,415,401,377,372,367,363,345,335,328,323,320,315,308,305,302,300,299,299,299,299,299,299,299,299,299,299,299,299,301,304,306,313,320,326,331,333,333,329,324,311,298,286,257,242,228,213,198,161,147,136,127,117,92,82,76],"timestamp_mouse":[1,20,40,60,79,100,119,139,160,180,199,220,240,259,280,300,320,340,360,379,399,420,440,459,479,500,519,539,560,579,599,619,639,659,679,700,720,739,759,779,800,819,838,860,880,900,921,939,960,979,999,1019,1039,1059,1079,1100,1120,1139,1160,1180,1200,1220,1239,1260,1279,1299,1319,1339,1360,1380,1400,1421,1440,1460,1478,1500,1519,1540,1559,1578,1600,1620,1639,1660,1680,1699,1719,1740,1759,1779,1800,1820,1839,1858,1880],"xSR":741.5,"ySR":469.95,"xT1":424.9,"yT1":0,"xT2":1058.1,"yT2":0,"toosoon":0,"cond_shown":"Incongruent","ratio_trial":100,"L_num":1,"L_den":2,"R_num":8,"R_den":20,"correct_side":1,"subjID":"Juliana Gaspar Mendez 29","gender":"1","school":"4","age":"8"},{"start_time":1552073719371,"click_time":1552073721458,"finger_time":1552073721178,"fix_duration":1469.6662790911691,"trial":47,"RT":1807,"MT":280,"sideResp":1,"stimulus":[],"xmouse":[780,780,780,780,780,780,780,780,780,780,780,780,780,780,780,780,780,780,780,780,780,780,780,780,780,781,781,783,783,784,784,785,786,786,787,787,787,787,787,787,787,787,787,787,787,787,787,787,787,787,787,787,787,787,787,787,787,787,787,787,787,787,787,787,787,787,787,787,787,787,787,787,787,788,790,791,792,793,794,794,794,794,794,794,794,794,794,794,794,791,783,774,745,718,704,689,673,656,614,593,567,545,497,478,457],"ymouse":[515,515,515,515,515,515,515,515,515,515,515,515,515,515,515,515,515,515,515,515,515,515,515,515,515,515,514,510,508,506,505,504,502,500,499,499,499,498,498,498,498,498,498,498,498,498,498,498,498,498,498,498,498,498,498,498,498,498,498,498,498,498,498,498,498,498,498,498,498,498,498,498,498,495,491,487,483,477,476,476,476,476,476,476,476,476,476,476,474,472,467,464,451,436,423,403,381,350,276,244,208,177,119,100,78],"timestamp_mouse":[9,38,46,66,87,107,128,146,166,187,206,226,246,267,287,307,327,346,367,387,407,425,447,467,487,506,527,547,567,587,606,627,646,667,686,707,727,746,767,786,806,826,846,867,887,907,926,947,966,986,1007,1026,1046,1066,1087,1107,1126,1146,1167,1186,1207,1226,1247,1267,1286,1307,1327,1346,1366,1386,1407,1425,1446,1465,1486,1507,1526,1547,1566,1586,1607,1627,1646,1667,1686,1706,1727,1747,1766,1787,1807,1826,1847,1866,1886,1906,1925,1946,1965,1986,2006,2027,2048,2066,2087],"xSR":741.5,"ySR":469.95,"xT1":424.9,"yT1":0,"xT2":1058.1,"yT2":0,"toosoon":0,"cond_shown":"Congruent","ratio_trial":300,"L_num":3,"L_den":6,"R_num":2,"R_den":10,"correct_side":1,"subjID":"Juliana Gaspar Mendez 29","gender":"1","school":"4","age":"8"},{"start_time":1552073723753,"click_time":1552073725038,"finger_time":1552073724937,"fix_duration":1114.5580830957576,"trial":48,"RT":1184,"MT":101,"sideResp":1,"stimulus":[],"xmouse":[791,791,791,791,791,791,791,791,791,791,791,791,791,791,791,791,791,791,791,791,791,791,791,791,791,791,791,791,791,791,791,791,791,791,791,791,791,791,791,791,791,791,791,791,791,791,791,791,791,791,791,791,791,791,791,791,789,782,771,713,662,604,550,514,483],"ymouse":[515,516,516,517,517,517,517,517,517,517,517,517,517,517,517,517,517,517,517,517,517,517,517,517,517,517,517,517,517,517,517,517,517,517,517,517,517,517,517,517,517,517,517,517,517,517,517,517,517,517,517,517,517,517,517,517,517,506,486,392,319,240,171,130,83],"timestamp_mouse":[12,26,48,64,85,105,125,145,164,184,204,225,243,264,285,304,325,345,365,384,405,425,445,465,484,505,524,544,565,585,605,625,644,665,685,704,725,745,765,785,805,824,845,864,885,905,925,944,965,984,1004,1025,1045,1064,1085,1104,1123,1145,1165,1184,1204,1224,1245,1264,1285],"xSR":741.5,"ySR":469.95,"xT1":424.9,"yT1":0,"xT2":1058.1,"yT2":0,"toosoon":0,"cond_shown":"Congruent","ratio_trial":200,"L_num":16,"L_den":30,"R_num":9,"R_den":27,"correct_side":1,"subjID":"Juliana Gaspar Mendez 29","gender":"1","school":"4","age":"8"},{"start_time":1552073727048,"click_time":1552073728138,"finger_time":1552073727818,"fix_duration":489.92927521627917,"trial":49,"RT":770,"MT":320,"sideResp":1,"stimulus":[],"xmouse":[798,798,798,798,798,798,798,798,798,798,798,798,798,798,798,798,798,798,798,798,798,798,798,798,798,798,798,798,798,798,798,798,798,796,794,790,779,770,752,735,681,640,603,577,558,540,535,534,533,531,531,530,529,528,524],"ymouse":[503,503,503,503,503,503,503,503,503,503,503,503,503,503,503,503,503,503,503,503,503,503,503,503,503,503,503,503,503,503,503,503,503,503,503,502,493,487,468,446,352,280,214,171,139,98,85,82,80,77,75,72,66,60,54],"timestamp_mouse":[14,37,49,69,90,109,130,150,169,189,210,230,249,268,289,309,329,350,370,389,409,430,449,470,490,510,530,550,570,589,609,630,648,669,689,710,729,750,770,790,810,829,849,870,890,909,929,949,969,990,1009,1029,1050,1069,1090],"xSR":741.5,"ySR":469.95,"xT1":424.9,"yT1":0,"xT2":1058.1,"yT2":0,"toosoon":0,"cond_shown":"Incongruent","ratio_trial":200,"L_num":7,"L_den":10,"R_num":14,"R_den":28,"correct_side":1,"subjID":"Juliana Gaspar Mendez 29","gender":"1","school":"4","age":"8"},{"start_time":1552073729870,"click_time":1552073731998,"finger_time":1552073731637,"fix_duration":531.829783281196,"trial":50,"RT":1767,"MT":361,"sideResp":1,"stimulus":[],"xmouse":[795,795,795,795,795,795,795,795,795,795,795,795,795,795,795,795,795,795,795,795,795,795,795,795,795,795,795,795,795,795,795,795,795,795,795,795,795,795,795,795,795,795,795,795,795,795,795,795,795,795,795,795,795,795,795,795,795,795,795,795,795,795,795,795,795,795,795,795,795,795,795,795,795,795,795,795,795,795,795,795,795,795,795,795,795,795,789,775,742,657,617,590,579,571,563,563,563,563,563,558,554,542,536,522,498,487,478],"ymouse":[520,520,520,520,520,520,520,520,520,520,520,520,520,520,520,520,520,520,520,520,520,520,520,520,520,520,520,520,520,520,520,520,520,520,520,520,520,520,520,520,520,520,520,520,520,520,520,520,520,520,520,520,520,520,520,520,520,520,520,520,520,520,520,520,520,520,520,520,520,520,520,520,520,520,520,520,520,520,520,520,520,520,520,520,520,520,510,485,426,313,263,224,203,189,172,172,172,172,172,168,164,152,147,133,111,102,94],"timestamp_mouse":[9,41,47,67,87,107,128,146,167,188,208,228,247,267,288,308,327,348,367,388,407,428,448,467,488,508,528,547,567,588,608,627,648,668,687,708,727,747,767,787,808,827,848,868,887,906,928,948,968,987,1007,1027,1048,1068,1088,1107,1128,1148,1167,1187,1207,1226,1248,1268,1288,1307,1327,1348,1367,1387,1408,1427,1447,1467,1488,1507,1527,1548,1567,1587,1607,1627,1648,1668,1687,1707,1727,1747,1767,1787,1807,1828,1847,1867,1888,1908,1927,1947,1967,1987,2009,2029,2048,2066,2087,2107,2128],"xSR":741.5,"ySR":469.95,"xT1":424.9,"yT1":0,"xT2":1058.1,"yT2":0,"toosoon":0,"cond_shown":"Congruent","ratio_trial":100,"L_num":11,"L_den":22,"R_num":4,"R_den":10,"correct_side":1,"subjID":"Juliana Gaspar Mendez 29","gender":"1","school":"4","age":"8"},{"start_time":1552073733481,"click_time":1552073734858,"finger_time":1552073734557,"fix_duration":442.1185717224475,"trial":51,"RT":1076,"MT":301,"sideResp":2,"stimulus":[],"xmouse":[813,813,813,813,813,813,813,812,811,810,808,808,807,807,807,807,807,807,807,807,807,807,807,807,807,807,807,807,807,807,807,807,807,807,807,807,807,807,807,807,807,807,807,807,807,807,807,808,815,819,822,827,833,846,856,867,877,889,907,913,920,930,947,1001,1017,1029,1037,1046,1060],"ymouse":[519,519,519,519,519,519,519,519,520,520,520,520,520,520,520,520,521,521,521,521,521,521,521,521,521,521,521,521,521,521,521,521,521,521,521,521,521,521,521,521,521,521,521,521,521,521,519,518,508,503,499,493,487,474,464,449,435,419,384,369,353,332,306,216,176,139,112,90,61],"timestamp_mouse":[17,37,56,76,97,116,136,156,176,197,217,236,256,276,296,316,337,357,377,397,416,437,457,477,496,517,536,557,575,597,617,637,656,677,696,717,737,757,777,797,817,837,856,877,897,917,936,956,976,996,1017,1037,1056,1076,1096,1116,1136,1157,1176,1197,1217,1235,1256,1276,1297,1316,1337,1356,1377],"xSR":741.5,"ySR":469.95,"xT1":424.9,"yT1":0,"xT2":1058.1,"yT2":0,"toosoon":0,"cond_shown":"Congruent","ratio_trial":100,"L_num":11,"L_den":22,"R_num":6,"R_den":15,"correct_side":1,"subjID":"Juliana Gaspar Mendez 29","gender":"1","school":"4","age":"8"},{"start_time":1552073736692,"click_time":1552073738598,"finger_time":1552073737877,"fix_duration":493.5502895715337,"trial":52,"RT":1185,"MT":721,"sideResp":1,"stimulus":[],"xmouse":[796,796,796,796,796,796,796,796,796,796,796,796,796,796,796,796,796,796,796,796,796,796,796,796,796,796,796,796,796,796,796,796,796,796,796,796,796,796,796,796,796,796,796,796,796,796,796,796,796,796,796,796,796,796,795,787,779,768,761,748,739,729,713,677,664,655,647,639,613,589,545,483,451,417,411,410,409,407,396,386,377,375,375,375,380,381,381,381,381,381,381,382,386,394,420,438],"ymouse":[517,517,517,517,517,517,517,517,517,517,517,517,517,517,517,517,517,517,517,517,517,517,517,517,517,517,517,517,517,517,517,517,517,517,517,517,517,517,517,517,517,517,517,517,517,517,517,517,517,517,517,517,517,517,517,510,503,494,485,460,438,416,390,348,337,328,319,308,269,237,188,132,104,76,72,70,69,67,57,51,43,41,41,40,34,32,32,32,32,32,32,32,33,38,56,70],"timestamp_mouse":[10,25,46,65,85,106,126,145,165,186,206,226,245,266,285,306,325,345,366,386,406,426,446,465,485,505,526,546,564,586,606,626,645,665,686,706,726,745,765,785,806,825,844,866,885,906,925,944,966,986,1005,1025,1045,1064,1086,1106,1125,1146,1166,1185,1205,1224,1245,1267,1285,1305,1326,1346,1366,1385,1405,1425,1446,1467,1485,1506,1525,1545,1567,1585,1605,1625,1645,1666,1686,1705,1726,1744,1766,1786,1805,1826,1846,1866,1885,1906],"xSR":741.5,"ySR":469.95,"xT1":424.9,"yT1":0,"xT2":1058.1,"yT2":0,"toosoon":0,"cond_shown":"Congruent","ratio_trial":200,"L_num":8,"L_den":15,"R_num":7,"R_den":21,"correct_side":1,"subjID":"Juliana Gaspar Mendez 29","gender":"1","school":"4","age":"8"},{"start_time":1552073740458,"click_time":1552073741577,"finger_time":1552073741397,"fix_duration":1059.6656209706223,"trial":53,"RT":939,"MT":180,"sideResp":2,"st