[{"start_time":1552069335757,"click_time":1552069344027,"finger_time":1552069335767,"fix_duration":1146.2563269066989,"trial":0,"RT":10,"MT":8260,"sideResp":1,"stimulus":"img/500/equaldotsize/L/4_Ratio_500_L_18_R_9.png","xmouse":[809,809,809,809,809,809,809,809,809,809,809,809,811,813,814,815,816,817,817,817,818,818,819,820,820,820,820,821,821,821,821,821,821,821,821,821,821,821,821,821,821,821,821,816,814,810,808,805,799,794,786,782,779,777,776,776,776,776,776,777,778,780,780,780,780,780,780,780,780,780,780,780,780,780,780,780,780,780,780,780,780,780,780,780,780,780,780,780,780,780,780,780,780,780,780,780,780,780,780,780,780,780,780,780,780,780,780,780,780,780,780,780,780,780,780,780,780,780,780,780,780,780,780,780,780,780,780,780,780,780,780,780,780,780,780,780,780,780,780,780,780,780,780,780,780,780,780,780,780,780,780,780,780,780,780,780,780,780,780,780,780,780,780,780,780,780,780,780,780,780,780,780,780,780,780,780,780,780,780,780,780,778,777,777,777,777,777,777,777,777,777,777,777,777,777,777,777,777,777,777,777,777,777,777,777,777,777,777,777,777,777,777,777,777,777,777,777,777,777,777,777,777,777,777,777,777,777,777,777,777,777,777,777,777,777,777,777,777,777,777,777,777,777,777,777,777,777,777,777,777,777,777,777,777,777,777,777,777,777,777,777,777,777,777,777,777,777,777,777,777,777,777,777,777,777,777,777,777,776,774,772,770,769,767,767,767,767,766,766,766,766,766,766,766,765,765,764,761,758,758,758,757,755,755,755,755,754,752,745,745,745,744,744,744,744,744,744,744,741,738,735,732,729,722,721,721,720,720,720,720,720,720,720,720,720,720,720,720,720,720,720,720,719,714,712,711,711,711,711,711,711,711,711,711,711,711,711,711,711,710,710,711,714,718,721,721,722,724,728,731,735,739,742,744,758,767,772,786,791,797,800,810,823,837,844,853,862,871,872,873,878,889,904,926,935,942,943,943,946,947,947,948,942,915,879,832,784,724,608,568,558,534,529,507],"ymouse":[533,533,533,533,533,533,533,533,533,533,533,533,532,531,531,530,529,527,527,527,525,524,521,519,518,518,517,517,516,516,516,516,516,516,516,516,516,516,516,516,516,516,516,522,524,530,534,538,549,558,570,574,581,587,590,591,593,593,593,593,593,593,593,593,593,593,593,594,597,599,601,604,605,606,606,606,606,606,606,606,606,606,606,606,606,606,606,606,606,606,606,606,606,606,606,606,606,606,606,606,606,606,606,606,606,606,606,606,606,606,606,606,606,606,606,606,606,606,606,606,606,606,606,606,606,606,606,606,606,606,606,606,606,606,606,606,606,606,606,606,606,606,606,606,606,606,606,606,606,606,606,606,606,606,606,606,606,606,606,606,606,606,606,606,606,606,606,606,606,606,606,606,606,606,606,606,606,606,606,606,606,609,609,609,609,609,609,609,609,609,609,609,609,609,609,609,609,609,609,609,609,609,609,609,609,609,609,609,609,609,609,609,609,609,609,609,609,609,609,609,609,609,609,609,609,609,609,609,609,609,609,609,609,609,609,609,609,609,609,609,609,609,609,609,609,609,609,609,609,609,609,609,609,609,609,609,609,609,609,609,609,609,609,609,609,609,609,609,609,609,609,609,609,609,609,609,609,609,610,611,612,613,613,614,614,614,614,614,614,614,614,614,614,614,614,614,614,614,614,614,614,614,613,613,613,613,613,613,613,613,613,613,613,613,613,613,613,612,606,600,594,588,583,574,572,572,572,572,572,572,572,572,572,572,572,572,572,572,572,572,572,572,572,573,574,574,574,574,574,574,574,574,574,574,574,574,574,574,574,573,568,561,546,533,521,519,510,500,489,482,478,471,467,465,454,448,444,434,429,423,421,414,405,397,394,391,388,384,384,383,381,374,363,348,341,336,336,335,333,332,326,312,286,249,217,181,152,123,83,72,69,65,65,63],"timestamp_mouse":[10,29,51,70,90,110,131,151,171,190,210,229,251,269,290,309,329,350,371,390,410,431,450,469,489,509,530,550,570,590,609,630,651,670,689,710,730,750,770,790,810,829,849,869,891,911,930,950,970,990,1010,1030,1050,1070,1090,1110,1130,1149,1169,1190,1210,1230,1250,1270,1290,1310,1330,1350,1371,1390,1410,1431,1450,1469,1490,1510,1530,1551,1570,1590,1610,1630,1650,1669,1690,1710,1730,1751,1770,1790,1811,1831,1849,1870,1891,1910,1930,1950,1970,1990,2010,2031,2051,2070,2090,2110,2131,2150,2170,2190,2210,2230,2250,2270,2290,2310,2330,2351,2370,2391,2410,2430,2450,2471,2490,2510,2531,2550,2570,2590,2610,2630,2650,2670,2690,2711,2730,2751,2770,2790,2809,2830,2850,2870,2890,2910,2930,2950,2971,2989,3009,3030,3050,3070,3090,3110,3130,3149,3170,3190,3210,3230,3251,3269,3289,3310,3330,3350,3369,3390,3410,3430,3450,3470,3490,3510,3530,3550,3569,3590,3611,3630,3649,3671,3690,3710,3730,3750,3770,3790,3810,3830,3849,3870,3890,3910,3931,3950,3971,3990,4011,4030,4050,4070,4090,4110,4130,4150,4170,4191,4210,4231,4251,4270,4290,4310,4330,4350,4369,4389,4410,4430,4449,4470,4490,4510,4530,4551,4570,4590,4611,4630,4649,4670,4690,4710,4729,4750,4770,4789,4811,4830,4850,4870,4889,4909,4930,4950,4970,4991,5011,5030,5049,5070,5090,5110,5131,5150,5170,5190,5210,5230,5250,5269,5290,5309,5329,5350,5370,5390,5409,5430,5450,5470,5490,5511,5531,5551,5570,5591,5610,5630,5650,5670,5690,5710,5729,5750,5770,5790,5809,5830,5849,5870,5890,5910,5930,5950,5970,5991,6010,6030,6050,6070,6091,6110,6130,6150,6169,6191,6211,6230,6250,6270,6290,6310,6330,6350,6370,6389,6410,6431,6450,6470,6490,6510,6530,6550,6570,6591,6610,6630,6650,6670,6689,6709,6730,6749,6769,6789,6810,6830,6850,6870,6891,6910,6930,6950,6970,6991,7010,7031,7050,7069,7089,7110,7130,7150,7170,7190,7210,7230,7250,7270,7290,7310,7330,7350,7370,7391,7410,7430,7450,7470,7490,7510,7530,7551,7570,7590,7610,7630,7649,7669,7691,7710,7730,7750,7770,7790,7810,7830,7850,7870,7890,7909,7930,7950,7970,7990,8010,8030,8050,8070,8090,8111,8130,8149,8170,8189,8211,8230,8250,8270],"xSR":741.5,"ySR":501.8,"xT1":424.9,"yT1":0,"xT2":1058.1,"yT2":0,"toosoon":0,"cond_shown":"equaldotsize","ratio_trial":500,"smaller_num":"9","larger_num":"18","correct_side":1,"subjID":"julianaMoraMora","gender":"1","age":"8","school":"4","test":{"fix_dur":[250,1500],"timestim":300,"targets_dim":[100,100],"targets_relative_coord":[0.3,0.7],"size_stim":[880,420],"start_dim":[100,100],"size_start":[300,300],"size_fix":60,"samplingrate":20,"img_types":["equaldotsize","equaldotanddens","randomdotsizeEA"],"ratios":[250,500,750,900],"rep_conds":9,"nTrials":120,"trials_to_rest":500,"Trials_order":[15,56,30,36,0,99,67,6,81,97,53,10,111,27,115,29,93,64,40,46,1,105,17,19,82,94,71,16,88,91,116,103,32,90,38,112,42,70,80,33,48,18,3,106,7,49,21,41,9,85,83,26,69,63,108,78,59,104,107,58,114,24,68,101,75,117,73,11,14,35,43,2,86,54,118,57,8,12,72,45,44,55,51,79,65,74,87,22,98,96,39,102,95,4,109,77,37,20,34,76,92,31,13,62,47,100,60,119,66,25,23,28,61,113,89,110,52,50,5,84],"cond_shown":["equaldotsize","randomdotsizeEA","equaldotsize","equaldotsize","equaldotsize","equaldotsize","equaldotanddens","equaldotsize","equaldotsize","equaldotanddens","randomdotsizeEA","equaldotanddens","equaldotsize","equaldotsize","equaldotanddens","randomdotsizeEA","equaldotsize","equaldotanddens","equaldotanddens","equaldotanddens","equaldotanddens","equaldotsize","randomdotsizeEA","equaldotanddens","equaldotanddens","equaldotanddens","randomdotsizeEA","equaldotanddens","equaldotanddens","equaldotanddens","randomdotsizeEA","equaldotanddens","randomdotsizeEA","equaldotsize","randomdotsizeEA","equaldotanddens","equaldotsize","equaldotanddens","randomdotsizeEA","equaldotsize","equaldotsize","equaldotsize","equaldotsize","equaldotanddens","equaldotanddens","equaldotanddens","equaldotsize","randomdotsizeEA","equaldotsize","equaldotanddens","randomdotsizeEA","randomdotsizeEA","equaldotsize","equaldotsize","equaldotsize","equaldotsize","randomdotsizeEA","randomdotsizeEA","randomdotsizeEA","equaldotanddens","equaldotsize","equaldotsize","randomdotsizeEA","randomdotsizeEA","equaldotsize","equaldotsize","equaldotanddens","randomdotsizeEA","randomdotsizeEA","randomdotsizeEA","equaldotanddens","randomdotsizeEA","randomdotsizeEA","equaldotsize","equaldotanddens","equaldotsize","randomdotsizeEA","equaldotsize","equaldotsize","equaldotsize","randomdotsizeEA","equaldotanddens","equaldotsize","equaldotanddens","randomdotsizeEA","randomdotsizeEA","equaldotsize","equaldotanddens","randomdotsizeEA","equaldotsize","equaldotsize","equaldotsize","randomdotsizeEA","equaldotanddens","equaldotanddens","randomdotsizeEA","equaldotanddens","randomdotsizeEA","equaldotanddens","equaldotanddens","randomdotsizeEA","equaldotanddens","equaldotanddens","randomdotsizeEA","randomdotsizeEA","equaldotanddens","equaldotsize","randomdotsizeEA","equaldotsize","equaldotanddens","randomdotsizeEA","equaldotanddens","equaldotanddens","randomdotsizeEA","randomdotsizeEA","randomdotsizeEA","equaldotanddens","randomdotsizeEA","randomdotsizeEA","equaldotsize"],"ratio_trial":[500,750,750,250,250,500,750,750,900,250,500,900,500,500,750,500,900,500,500,900,250,900,500,750,900,900,900,500,500,750,750,750,750,750,250,500,750,900,750,900,250,750,500,900,750,250,900,500,900,250,900,250,900,500,250,750,900,750,900,900,750,250,750,500,500,900,250,900,250,900,750,250,250,750,900,900,750,250,250,900,750,750,500,750,500,250,500,900,250,250,500,750,900,500,250,500,250,750,900,500,750,750,250,250,900,500,250,900,750,250,900,500,250,500,500,250,500,250,500,250],"smaller_num":["9","3","6","1","2","5","6","3","9","6","9","9","6","5","3","1","9","1","4","9","1","18","10","12","18","18","18","9","10","15","15","9","12","15","3","9","15","18","3","18","6","15","2","18","15","3","9","2","18","4","18","2","18","9","1","6","18","12","18","9","15","3","3","9","2","18","3","18","3","18","12","2","2","6","18","9","9","2","2","9","3","3","6","15","1","1","9","9","4","2","4","6","9","4","4","2","2","3","18","5","3","15","2","3","18","2","3","18","18","2","18","9","6","9","9","2","9","2","6","2"],"larger_num":["18","4","8","4","8","10","8","4","10","24","18","10","12","10","4","2","10","2","8","10","4","20","20","16","20","20","20","18","20","20","20","12","16","20","12","18","20","20","4","20","24","20","4","20","20","12","10","4","20","16","20","8","20","18","4","8","20","16","20","10","20","12","4","18","4","20","12","20","12","20","16","8","8","8","20","10","12","8","8","10","4","4","12","20","2","4","18","10","16","8","8","8","10","8","16","4","8","4","20","10","4","20","8","12","20","4","12","20","24","8","20","18","24","18","18","8","18","8","12","8"],"correct_side":[1,1,1,2,2,2,1,1,2,2,2,1,1,2,2,2,1,2,1,2,2,2,2,2,2,1,1,2,2,2,1,2,2,2,2,1,2,1,2,2,2,1,2,2,2,2,2,1,2,2,1,1,2,2,2,1,1,2,1,2,2,2,2,2,2,1,1,1,2,1,2,2,1,1,1,2,2,1,1,2,1,1,1,2,2,2,2,2,2,1,1,2,2,1,1,1,1,1,2,2,2,1,2,1,2,1,1,2,1,1,1,2,1,2,1,1,2,1,1,1],"img_shown":["img/500/equaldotsize/L/4_Ratio_500_L_18_R_9.png","img/750/randomdotsizeEA/L/9_Ratio_750_L_4_R_3.png","img/750/equaldotsize/L/14_Ratio_750_L_8_R_6.png","img/250/equaldotsize/R/8_Ratio_250_L_1_R_4.png","img/250/equaldotsize/R/13_Ratio_250_L_2_R_8.png","img/500/equaldotsize/R/14_Ratio_500_L_5_R_10.png","img/750/equaldotanddens/L/14_Ratio_750_L_8_R_6.png","img/750/equaldotsize/L/8_Ratio_750_L_4_R_3.png","img/900/equaldotsize/R/3_Ratio_900_L_9_R_10.png","img/250/equaldotanddens/R/6_Ratio_250_L_6_R_24.png","img/500/randomdotsizeEA/R/6_Ratio_500_L_9_R_18.png","img/900/equaldotanddens/L/1_Ratio_900_L_10_R_9.png","img/500/equaldotsize/L/11_Ratio_500_L_12_R_6.png","img/500/equaldotsize/R/14_Ratio_500_L_5_R_10.png","img/750/equaldotanddens/R/7_Ratio_750_L_3_R_4.png","img/500/randomdotsizeEA/R/12_Ratio_500_L_1_R_2.png","img/900/equaldotsize/L/1_Ratio_900_L_10_R_9.png","img/500/equaldotanddens/R/15_Ratio_500_L_1_R_2.png","img/500/equaldotanddens/L/8_Ratio_500_L_8_R_4.png","img/900/equaldotanddens/R/3_Ratio_900_L_9_R_10.png","img/250/equaldotanddens/R/8_Ratio_250_L_1_R_4.png","img/900/equaldotsize/R/13_Ratio_900_L_18_R_20.png","img/500/randomdotsizeEA/R/3_Ratio_500_L_10_R_20.png","img/750/equaldotanddens/R/11_Ratio_750_L_12_R_16.png","img/900/equaldotanddens/R/13_Ratio_900_L_18_R_20.png","img/900/equaldotanddens/L/10_Ratio_900_L_20_R_18.png","img/900/randomdotsizeEA/L/8_Ratio_900_L_20_R_18.png","img/500/equaldotanddens/R/1_Ratio_500_L_9_R_18.png","img/500/equaldotanddens/R/3_Ratio_500_L_10_R_20.png","img/750/equaldotanddens/R/5_Ratio_750_L_15_R_20.png","img/750/randomdotsizeEA/L/1_Ratio_750_L_20_R_15.png","img/750/equaldotanddens/R/15_Ratio_750_L_9_R_12.png","img/750/randomdotsizeEA/R/11_Ratio_750_L_12_R_16.png","img/750/equaldotsize/R/3_Ratio_750_L_15_R_20.png","img/250/randomdotsizeEA/R/9_Ratio_250_L_3_R_12.png","img/500/equaldotanddens/L/4_Ratio_500_L_18_R_9.png","img/750/equaldotsize/R/3_Ratio_750_L_15_R_20.png","img/900/equaldotanddens/L/8_Ratio_900_L_20_R_18.png","img/750/randomdotsizeEA/R/7_Ratio_750_L_3_R_4.png","img/900/equaldotsize/R/14_Ratio_900_L_18_R_20.png","img/250/equaldotsize/R/6_Ratio_250_L_6_R_24.png","img/750/equaldotsize/L/1_Ratio_750_L_20_R_15.png","img/500/equaldotsize/R/9_Ratio_500_L_2_R_4.png","img/900/equaldotanddens/R/12_Ratio_900_L_18_R_20.png","img/750/equaldotanddens/R/5_Ratio_750_L_15_R_20.png","img/250/equaldotanddens/R/9_Ratio_250_L_3_R_12.png","img/900/equaldotsize/R/5_Ratio_900_L_9_R_10.png","img/500/randomdotsizeEA/L/10_Ratio_500_L_4_R_2.png","img/900/equaldotsize/R/11_Ratio_900_L_18_R_20.png","img/250/equaldotanddens/R/10_Ratio_250_L_4_R_16.png","img/900/randomdotsizeEA/L/2_Ratio_900_L_20_R_18.png","img/250/randomdotsizeEA/L/1_Ratio_250_L_8_R_2.png","img/900/equaldotsize/R/9_Ratio_900_L_18_R_20.png","img/500/equaldotsize/R/6_Ratio_500_L_9_R_18.png","img/250/equaldotsize/R/8_Ratio_250_L_1_R_4.png","img/750/equaldotsize/L/13_Ratio_750_L_8_R_6.png","img/900/randomdotsizeEA/L/2_Ratio_900_L_20_R_18.png","img/750/randomdotsizeEA/R/11_Ratio_750_L_12_R_16.png","img/900/randomdotsizeEA/L/4_Ratio_900_L_20_R_18.png","img/900/equaldotanddens/R/6_Ratio_900_L_9_R_10.png","img/750/equaldotsize/R/4_Ratio_750_L_15_R_20.png","img/250/equaldotsize/R/9_Ratio_250_L_3_R_12.png","img/750/randomdotsizeEA/R/12_Ratio_750_L_3_R_4.png","img/500/randomdotsizeEA/R/1_Ratio_500_L_9_R_18.png","img/500/equaldotsize/R/9_Ratio_500_L_2_R_4.png","img/900/equaldotsize/L/4_Ratio_900_L_20_R_18.png","img/250/equaldotanddens/L/14_Ratio_250_L_12_R_3.png","img/900/randomdotsizeEA/L/2_Ratio_900_L_20_R_18.png","img/250/randomdotsizeEA/R/9_Ratio_250_L_3_R_12.png","img/900/randomdotsizeEA/L/8_Ratio_900_L_20_R_18.png","img/750/equaldotanddens/R/11_Ratio_750_L_12_R_16.png","img/250/randomdotsizeEA/R/13_Ratio_250_L_2_R_8.png","img/250/randomdotsizeEA/L/7_Ratio_250_L_8_R_2.png","img/750/equaldotsize/L/14_Ratio_750_L_8_R_6.png","img/900/equaldotanddens/L/10_Ratio_900_L_20_R_18.png","img/900/equaldotsize/R/5_Ratio_900_L_9_R_10.png","img/750/randomdotsizeEA/R/15_Ratio_750_L_9_R_12.png","img/250/equaldotsize/L/3_Ratio_250_L_8_R_2.png","img/250/equaldotsize/L/3_Ratio_250_L_8_R_2.png","img/900/equaldotsize/R/7_Ratio_900_L_9_R_10.png","img/750/randomdotsizeEA/L/9_Ratio_750_L_4_R_3.png","img/750/equaldotanddens/L/10_Ratio_750_L_4_R_3.png","img/500/equaldotsize/L/11_Ratio_500_L_12_R_6.png","img/750/equaldotanddens/R/5_Ratio_750_L_15_R_20.png","img/500/randomdotsizeEA/R/15_Ratio_500_L_1_R_2.png","img/250/randomdotsizeEA/R/8_Ratio_250_L_1_R_4.png","img/500/equaldotsize/R/6_Ratio_500_L_9_R_18.png","img/900/equaldotanddens/R/7_Ratio_900_L_9_R_10.png","img/250/randomdotsizeEA/R/10_Ratio_250_L_4_R_16.png","img/250/equaldotsize/L/3_Ratio_250_L_8_R_2.png","img/500/equaldotsize/L/8_Ratio_500_L_8_R_4.png","img/750/equaldotsize/R/2_Ratio_750_L_6_R_8.png","img/900/randomdotsizeEA/R/15_Ratio_900_L_9_R_10.png","img/500/equaldotanddens/L/8_Ratio_500_L_8_R_4.png","img/250/equaldotanddens/L/2_Ratio_250_L_16_R_4.png","img/500/randomdotsizeEA/L/10_Ratio_500_L_4_R_2.png","img/250/equaldotanddens/L/7_Ratio_250_L_8_R_2.png","img/750/randomdotsizeEA/L/9_Ratio_750_L_4_R_3.png","img/900/equaldotanddens/R/14_Ratio_900_L_18_R_20.png","img/500/equaldotanddens/R/14_Ratio_500_L_5_R_10.png","img/750/randomdotsizeEA/R/7_Ratio_750_L_3_R_4.png","img/750/equaldotanddens/L/1_Ratio_750_L_20_R_15.png","img/250/equaldotanddens/R/13_Ratio_250_L_2_R_8.png","img/250/randomdotsizeEA/L/14_Ratio_250_L_12_R_3.png","img/900/randomdotsizeEA/R/11_Ratio_900_L_18_R_20.png","img/500/equaldotanddens/L/5_Ratio_500_L_4_R_2.png","img/250/equaldotsize/L/14_Ratio_250_L_12_R_3.png","img/900/randomdotsizeEA/R/9_Ratio_900_L_18_R_20.png","img/750/equaldotsize/L/6_Ratio_750_L_24_R_18.png","img/250/equaldotanddens/L/1_Ratio_250_L_8_R_2.png","img/900/randomdotsizeEA/L/2_Ratio_900_L_20_R_18.png","img/500/equaldotanddens/R/1_Ratio_500_L_9_R_18.png","img/250/equaldotanddens/L/5_Ratio_250_L_24_R_6.png","img/500/randomdotsizeEA/R/6_Ratio_500_L_9_R_18.png","img/500/randomdotsizeEA/L/4_Ratio_500_L_18_R_9.png","img/250/randomdotsizeEA/L/1_Ratio_250_L_8_R_2.png","img/500/equaldotanddens/R/6_Ratio_500_L_9_R_18.png","img/250/randomdotsizeEA/L/3_Ratio_250_L_8_R_2.png","img/500/randomdotsizeEA/L/11_Ratio_500_L_12_R_6.png","img/250/equaldotsize/L/1_Ratio_250_L_8_R_2.png"],"Rat0":[["12_Ratio_0_L_9_R_0.png","13_Ratio_0_L_6_R_0.png","5_Ratio_0_L_2_R_0.png","6_Ratio_0_L_4_R_0.png","8_Ratio_0_L_6_R_0.png"],["1_Ratio_0_L_0_R_17.png","10_Ratio_0_L_0_R_22.png","11_Ratio_0_L_0_R_1.png","14_Ratio_0_L_0_R_24.png","15_Ratio_0_L_0_R_4.png","2_Ratio_0_L_0_R_5.png","3_Ratio_0_L_0_R_17.png","4_Ratio_0_L_0_R_7.png","7_Ratio_0_L_0_R_19.png","9_Ratio_0_L_0_R_15.png"]],"Rat250":[["1_Ratio_250_L_8_R_2.png","14_Ratio_250_L_12_R_3.png","15_Ratio_250_L_12_R_3.png","2_Ratio_250_L_16_R_4.png","3_Ratio_250_L_8_R_2.png","5_Ratio_250_L_24_R_6.png","7_Ratio_250_L_8_R_2.png"],["10_Ratio_250_L_4_R_16.png","11_Ratio_250_L_3_R_12.png","12_Ratio_250_L_5_R_20.png","13_Ratio_250_L_2_R_8.png","4_Ratio_250_L_3_R_12.png","6_Ratio_250_L_6_R_24.png","8_Ratio_250_L_1_R_4.png","9_Ratio_250_L_3_R_12.png"]],"Rat500":[["10_Ratio_500_L_4_R_2.png","11_Ratio_500_L_12_R_6.png","13_Ratio_500_L_12_R_6.png","4_Ratio_500_L_18_R_9.png","5_Ratio_500_L_4_R_2.png","7_Ratio_500_L_10_R_5.png","8_Ratio_500_L_8_R_4.png"],["1_Ratio_500_L_9_R_18.png","12_Ratio_500_L_1_R_2.png","14_Ratio_500_L_5_R_10.png","15_Ratio_500_L_1_R_2.png","2_Ratio_500_L_3_R_6.png","3_Ratio_500_L_10_R_20.png","6_Ratio_500_L_9_R_18.png","9_Ratio_500_L_2_R_4.png"]],"Rat750":[["1_Ratio_750_L_20_R_15.png","10_Ratio_750_L_4_R_3.png","13_Ratio_750_L_8_R_6.png","14_Ratio_750_L_8_R_6.png","6_Ratio_750_L_24_R_18.png","8_Ratio_750_L_4_R_3.png","9_Ratio_750_L_4_R_3.png"],["11_Ratio_750_L_12_R_16.png","12_Ratio_750_L_3_R_4.png","15_Ratio_750_L_9_R_12.png","2_Ratio_750_L_6_R_8.png","3_Ratio_750_L_15_R_20.png","4_Ratio_750_L_15_R_20.png","5_Ratio_750_L_15_R_20.png","7_Ratio_750_L_3_R_4.png"]],"Rat900":[["1_Ratio_900_L_10_R_9.png","10_Ratio_900_L_20_R_18.png","2_Ratio_900_L_20_R_18.png","4_Ratio_900_L_20_R_18.png","8_Ratio_900_L_20_R_18.png"],["11_Ratio_900_L_18_R_20.png","12_Ratio_900_L_18_R_20.png","13_Ratio_900_L_18_R_20.png","14_Ratio_900_L_18_R_20.png","15_Ratio_900_L_9_R_10.png","3_Ratio_900_L_9_R_10.png","5_Ratio_900_L_9_R_10.png","6_Ratio_900_L_9_R_10.png","7_Ratio_900_L_9_R_10.png","9_Ratio_900_L_18_R_20.png"]],"Rat1000":[["10_Ratio_1000_L_16_R_16.png","11_Ratio_1000_L_6_R_6.png","12_Ratio_1000_L_14_R_14.png","13_Ratio_1000_L_20_R_20.png","15_Ratio_1000_L_15_R_15.png","2_Ratio_1000_L_17_R_17.png","4_Ratio_1000_L_9_R_9.png","5_Ratio_1000_L_6_R_6.png","6_Ratio_1000_L_19_R_19.png","8_Ratio_1000_L_14_R_14.png","9_Ratio_1000_L_25_R_25.png"],["1_Ratio_1000_L_1_R_1.png","14_Ratio_1000_L_17_R_17.png","3_Ratio_1000_L_17_R_17.png","7_Ratio_1000_L_6_R_6.png"]]}},{"start_time":1552069347276,"click_time":1552069349387,"finger_time":1552069348746,"fix_duration":1107.5347736015501,"trial":1,"RT":1470,"MT":641,"sideResp":2,"stimulus":"img/750/randomdotsizeEA/L/9_Ratio_750_L_4_R_3.png","xmouse":[796,796,796,796,796,796,796,796,796,796,796,796,796,796,796,796,796,796,796,796,796,796,796,796,796,796,796,796,796,796,796,796,796,796,796,796,796,796,796,796,796,796,796,795,794,794,794,797,797,795,795,795,795,795,795,795,795,795,795,795,795,795,795,795,795,795,795,795,795,795,795,795,799,863,883,891,892,892,892,892,892,892,892,892,892,892,892,893,897,898,899,900,903,911,914,919,924,928,944,952,964,980,1007,1049,1049,1060],"ymouse":[585,585,585,585,585,585,585,585,585,585,585,585,585,585,585,585,585,585,585,585,585,585,585,585,585,585,585,585,585,585,585,585,585,585,585,585,585,585,585,585,585,585,585,586,580,575,574,578,590,593,596,596,596,596,596,596,596,596,596,596,596,596,596,596,596,596,596,596,596,596,596,596,594,559,540,516,498,492,492,492,492,492,492,492,492,492,492,490,480,474,467,459,449,409,389,365,339,319,264,237,208,180,139,84,84,71],"timestamp_mouse":[10,31,51,76,91,111,131,151,171,191,210,230,251,271,292,311,331,351,371,390,411,432,452,471,491,511,531,551,571,591,611,631,651,672,691,712,731,751,771,792,812,831,851,871,891,911,930,951,971,991,1012,1030,1051,1072,1090,1111,1131,1151,1171,1191,1211,1231,1251,1271,1291,1311,1331,1350,1371,1392,1410,1430,1450,1470,1492,1510,1530,1550,1570,1591,1610,1631,1651,1671,1692,1711,1732,1750,1771,1790,1812,1831,1851,1871,1892,1911,1931,1951,1970,1992,2011,2031,2052,2071,2092,2111],"xSR":741.5,"ySR":573.95,"xT1":424.9,"yT1":0,"xT2":1058.1,"yT2":0,"toosoon":0,"cond_shown":"randomdotsizeEA","ratio_trial":750,"smaller_num":"3","larger_num":"4","correct_side":1,"subjID":"julianaMoraMora","gender":"1","age":"8","school":"4"},{"start_time":1552069351939,"click_time":1552069393648,"finger_time":1552069372728,"fix_duration":250,"trial":2,"RT":20789,"MT":20920,"sideResp":1,"stimulus":"img/750/equaldotsize/L/14_Ratio_750_L_8_R_6.png","xmouse":[813,813,813,813,813,813,813,813,813,813,813,813,813,813,813,813,813,813,813,813,813,813,813,813,813,813,813,813,813,813,813,813,813,813,813,813,813,813,813,813,813,813,813,813,813,813,813,813,813,813,813,813,813,813,813,813,813,813,813,813,813,813,813,813,813,813,813,813,813,813,813,813,813,813,813,813,813,813,813,813,813,813,813,813,813,813,813,813,813,813,813,813,813,813,813,813,813,813,813,813,813,813,813,813,813,813,813,813,813,813,813,813,813,813,813,813,813,813,813,813,813,813,813,813,813,813,813,813,813,813,813,813,813,813,813,813,813,813,813,813,813,813,813,813,813,813,813,813,813,813,813,813,813,813,813,813,813,813,813,813,813,813,813,813,813,813,813,813,813,813,813,813,813,813,813,813,813,813,813,813,813,813,813,813,813,813,813,813,813,813,813,813,813,813,813,813,813,813,813,813,813,813,813,813,813,813,813,813,813,813,813,813,813,813,813,813,813,813,813,813,813,813,813,813,813,813,813,813,813,813,813,813,813,813,813,813,813,813,813,813,813,813,813,813,813,813,813,813,813,813,813,813,813,813,813,813,813,813,813,813,813,813,813,813,813,813,813,813,813,813,813,813,813,813,813,813,813,813,813,813,813,813,813,813,813,813,813,813,813,813,813,813,813,813,813,813,813,813,813,813,813,813,813,813,813,813,813,813,813,813,813,813,813,813,813,813,813,813,813,813,813,813,813,813,813,813,813,813,813,813,813,813,813,813,813,813,813,813,813,813,813,813,813,813,813,813,813,813,813,813,813,813,813,813,813,813,813,813,813,813,813,813,813,813,813,813,813,813,813,813,813,813,813,813,813,813,813,813,813,813,813,813,813,813,813,813,813,813,813,813,813,813,813,813,813,813,813,813,813,813,813,813,813,813,813,813,813,813,813,813,813,813,813,813,813,813,813,813,813,813,813,813,813,813,813,813,813,813,813,813,813,813,813,813,813,813,813,813,813,813,813,813,813,813,813,813,813,813,813,813,813,813,813,813,813,813,813,813,813,813,813,813,813,813,813,813,813,813,813,813,813,813,813,813,813,813,813,813,813,813,813,813,813,813,813,813,813,813,813,813,813,813,813,813,813,813,813,813,813,813,813,813,813,813,813,813,813,813,813,813,813,813,813,813,813,813,813,813,813,813,813,813,813,813,813,813,813,813,813,813,813,813,813,813,813,813,813,813,813,813,813,813,813,813,813,813,813,813,813,813,813,813,813,813,813,813,813,813,813,813,813,813,813,813,813,813,813,813,813,813,813,813,813,813,813,813,813,813,813,813,813,813,813,813,813,813,813,813,813,813,813,813,813,813,813,813,813,813,813,813,813,813,813,813,813,813,813,813,813,813,813,813,813,813,813,813,813,813,813,813,813,813,813,813,813,813,813,813,813,813,813,813,813,813,813,813,813,813,813,813,813,813,813,813,813,813,813,813,813,813,813,813,813,813,813,813,813,813,813,813,813,813,813,813,813,813,813,813,813,813,813,813,813,813,813,813,813,813,813,813,813,813,813,813,813,813,813,813,813,813,813,813,813,813,813,813,813,813,813,813,813,813,813,813,813,813,813,813,813,813,813,813,813,813,813,813,813,813,813,813,813,813,813,813,813,813,813,813,813,813,813,813,813,813,813,813,813,813,813,813,813,813,813,813,813,813,813,813,813,813,813,813,813,813,813,813,813,813,813,813,813,813,813,813,813,813,813,813,813,813,813,813,813,813,813,813,813,813,813,813,813,813,813,813,813,813,813,813,813,813,813,813,813,813,813,813,813,813,813,813,813,813,813,813,813,813,813,813,813,813,813,813,813,813,813,813,813,813,813,813,813,813,813,813,813,813,813,813,813,813,813,813,813,813,813,813,813,813,813,813,813,813,813,813,813,813,813,813,813,813,813,813,813,813,813,813,813,813,813,813,813,813,813,813,813,813,813,813,813,813,813,813,813,813,813,813,813,813,813,813,813,813,813,813,813,813,813,813,813,813,813,813,813,813,813,813,813,813,813,813,813,813,813,813,813,813,813,813,813,813,813,813,813,813,813,813,813,813,813,813,813,813,813,813,813,813,813,813,813,813,813,813,813,813,813,813,813,813,813,813,813,813,813,813,813,813,813,813,813,813,813,813,813,813,813,813,813,813,813,813,813,813,813,813,813,813,813,813,813,813,813,813,813,813,813,813,813,813,813,813,813,813,813,813,813,813,813,813,813,813,813,813,813,813,813,813,813,813,813,813,813,813,813,813,813,813,813,813,813,813,813,813,813,813,813,813,813,813,813,813,813,813,813,813,813,813,813,813,813,813,813,813,813,813,813,813,813,813,782,663,525,351,263,254,249,238,218,181,172,168,168,168,168,168,168,168,168,168,168,168,168,168,168,168,167,167,167,167,167,167,167,167,167,167,167,167,167,167,167,167,167,167,167,167,167,167,167,167,167,167,167,167,167,167,167,167,167,167,167,167,167,167,167,167,167,167,167,167,167,167,167,167,167,167,167,167,167,167,167,167,167,167,167,167,167,167,167,167,167,167,167,167,167,167,167,167,167,167,167,167,167,167,167,167,167,167,167,167,167,167,167,167,167,167,167,167,167,167,167,167,167,167,167,167,167,167,167,167,167,167,167,167,167,167,167,167,167,167,167,167,167,167,167,167,167,167,167,167,167,167,167,167,167,167,167,167,167,167,167,167,167,167,167,167,167,167,167,167,167,167,167,167,167,167,167,167,167,167,167,167,167,167,167,167,167,167,167,167,167,167,167,167,167,167,167,167,167,167,167,167,167,167,167,167,167,167,167,167,167,167,167,167,167,167,167,167,167,167,167,167,167,167,167,167,167,167,167,167,167,167,167,167,167,167,167,167,167,167,167,167,167,167,167,167,167,167,167,167,167,167,167,167,167,167,167,167,167,167,167,167,167,167,167,167,167,167,167,167,167,167,167,167,167,167,167,167,167,167,167,167,167,167,167,167,167,167,167,167,167,167,167,167,167,167,167,167,167,167,167,167,167,167,167,167,167,167,167,167,167,167,167,167,167,167,167,167,167,167,167,167,167,167,167,167,167,167,167,167,167,167,167,167,167,167,167,167,167,167,167,167,167,167,167,167,167,167,167,167,167,167,167,167,167,167,167,167,167,167,167,167,167,167,167,167,167,167,167,167,167,167,167,167,167,167,167,167,167,167,167,167,167,167,167,167,167,167,167,167,167,167,167,167,167,167,167,167,167,167,167,167,167,167,167,167,167,167,167,167,167,167,167,167,167,167,167,167,167,167,167,167,167,167,167,167,167,167,167,167,167,167,167,167,167,167,167,167,167,167,167,167,167,167,167,167,167,167,167,167,167,167,167,167,167,167,167,167,167,167,167,167,167,167,167,167,167,167,167,167,167,167,167,167,167,167,167,167,167,167,167,167,167,167,167,167,167,167,167,167,167,167,167,167,167,167,167,167,167,167,167,167,167,167,167,167,167,167,167,167,167,167,167,167,167,167,167,167,167,167,167,167,167,167,167,167,167,167,167,167,167,167,167,167,167,167,167,167,167,167,167,167,167,167,167,167,167,167,167,167,167,167,167,167,167,167,167,167,167,167,167,167,167,167,167,167,167,167,167,167,167,167,167,167,167,167,167,167,167,167,167,167,167,167,167,167,167,167,167,167,167,167,167,167,167,167,167,167,167,167,167,167,167,167,167,167,167,167,167,167,167,167,167,167,167,167,167,167,167,167,167,167,167,167,167,167,167,167,167,167,167,167,167,167,167,167,167,167,167,167,167,167,167,167,167,167,167,167,167,167,167,167,167,167,167,167,167,167,167,167,167,167,167,167,167,167,167,167,167,167,167,167,167,167,167,167,167,167,167,167,167,167,167,167,167,167,167,167,167,167,167,167,167,167,167,167,167,167,167,167,167,167,167,167,167,167,167,167,167,167,167,167,167,167,167,167,167,167,167,167,167,167,167,167,167,167,167,167,167,167,167,167,167,167,167,167,167,167,167,167,167,167,167,167,167,167,167,167,167,167,167,167,167,167,167,167,167,167,167,167,167,167,167,167,167,167,167,167,167,167,167,167,167,167,167,167,167,167,167,167,166,165,163,163,163,163,163,163,163,163,163,163,163,163,162,161,157,157,157,157,157,157,157,157,157,157,157,157,157,157,157,157,157,157,157,157,157,157,157,157,157,157,157,157,157,157,157,157,157,157,157,157,157,157,157,157,157,157,157,157,157,157,157,157,157,157,157,157,157,157,157,157,157,157,157,157,157,157,157,157,157,157,157,157,157,157,157,157,157,157,157,157,157,157,157,157,157,157,157,157,157,157,157,157,157,157,157,157,157,157,157,157,157,157,157,157,157,157,157,157,157,157,157,157,157,157,157,157,157,157,157,157,157,157,157,157,157,157,157,157,157,157,157,157,157,157,157,157,157,157,157,157,157,157,157,157,157,157,157,157,157,157,157,157,157,157,157,157,157,157,157,157,157,157,157,157,157,157,157,157,157,157,157,157,157,157,157,157,157,157,157,157,157,157,157,157,157,157,157,157,157,157,157,157,157,157,157,157,157,157,157,157,157,157,157,157,157,157,157,157,157,157,157,157,157,157,157,154,122,104,98,97,97,97,95,75,37,0,0,0,0,0,19,19,19,19,19,19,19,19,19,19,19,52,88,112,138,178,206,238,276,352,371,480,484,485,486,486],"ymouse":[660,660,660,660,660,660,660,660,660,660,660,660,660,660,660,660,660,660,660,660,660,660,660,660,660,660,660,660,660,660,660,660,660,660,660,660,660,660,660,660,660,660,660,660,660,660,660,660,660,660,660,660,660,660,660,660,660,660,660,660,660,660,660,660,660,660,660,660,660,660,660,660,660,660,660,660,660,660,660,660,660,660,660,660,660,660,660,660,660,660,660,660,660,660,660,660,660,660,660,660,660,660,660,660,660,660,660,660,660,660,660,660,660,660,660,660,660,660,660,660,660,660,660,660,660,660,660,660,660,660,660,660,660,660,660,660,660,660,660,660,660,660,660,660,660,660,660,660,660,660,660,660,660,660,660,660,660,660,660,660,660,660,660,660,660,660,660,660,660,660,660,660,660,660,660,660,660,660,660,660,660,660,660,660,660,660,660,660,660,660,660,660,660,660,660,660,660,660,660,660,660,660,660,660,660,660,660,660,660,660,660,660,660,660,660,660,660,660,660,660,660,660,660,660,660,660,660,660,660,660,660,660,660,660,660,660,660,660,660,660,660,660,660,660,660,660,660,660,660,660,660,660,660,660,660,660,660,660,660,660,660,660,660,660,660,660,660,660,660,660,660,660,660,660,660,660,660,660,660,660,660,660,660,660,660,660,660,660,660,660,660,660,660,660,660,660,660,660,660,660,660,660,660,660,660,660,660,660,660,660,660,660,660,660,660,660,660,660,660,660,660,660,660,660,660,660,660,660,660,660,660,660,660,660,660,660,660,660,660,660,660,660,660,660,660,660,660,660,660,660,660,660,660,660,660,660,660,660,660,660,660,660,660,660,660,660,660,660,660,660,660,660,660,660,660,660,660,660,660,660,660,660,660,660,660,660,660,660,660,660,660,660,660,660,660,660,660,660,660,660,660,660,660,660,660,660,660,660,660,660,660,660,660,660,660,660,660,660,660,660,660,660,660,660,660,660,660,660,660,660,660,660,660,660,660,660,660,660,660,660,660,660,660,660,660,660,660,660,660,660,660,660,660,660,660,660,660,660,660,660,660,660,660,660,660,660,660,660,660,660,660,660,660,660,660,660,660,660,660,660,660,660,660,660,660,660,660,660,660,660,660,660,660,660,660,660,660,660,660,660,660,660,660,660,660,660,660,660,660,660,660,660,660,660,660,660,660,660,660,660,660,660,660,660,660,660,660,660,660,660,660,660,660,660,660,660,660,660,660,660,660,660,660,660,660,660,660,660,660,660,660,660,660,660,660,660,660,660,660,660,660,660,660,660,660,660,660,660,660,660,660,660,660,660,660,660,660,660,660,660,660,660,660,660,660,660,660,660,660,660,660,660,660,660,660,660,660,660,660,660,660,660,660,660,660,660,660,660,660,660,660,660,660,660,660,660,660,660,660,660,660,660,660,660,660,660,660,660,660,660,660,660,660,660,660,660,660,660,660,660,660,660,660,660,660,660,660,660,660,660,660,660,660,660,660,660,660,660,660,660,660,660,660,660,660,660,660,660,660,660,660,660,660,660,660,660,660,660,660,660,660,660,660,660,660,660,660,660,660,660,660,660,660,660,660,660,660,660,660,660,660,660,660,660,660,660,660,660,660,660,660,660,660,660,660,660,660,660,660,660,660,660,660,660,660,660,660,660,660,660,660,660,660,660,660,660,660,660,660,660,660,660,660,660,660,660,660,660,660,660,660,660,660,660,660,660,660,660,660,660,660,660,660,660,660,660,660,660,660,660,660,660,660,660,660,660,660,660,660,660,660,660,660,660,660,660,660,660,660,660,660,660,660,660,660,660,660,660,660,660,660,660,660,660,660,660,660,660,660,660,660,660,660,660,660,660,660,660,660,660,660,660,660,660,660,660,660,660,660,660,660,660,660,660,660,660,660,660,660,660,660,660,660,660,660,660,660,660,660,660,660,660,660,660,660,660,660,660,660,660,660,660,660,660,660,660,660,660,660,660,660,660,660,660,660,660,660,660,660,660,660,660,660,660,660,660,660,660,660,660,660,660,660,660,660,660,660,660,660,660,660,660,660,660,660,660,660,660,660,660,660,660,660,660,660,660,660,660,660,660,660,660,660,660,660,660,660,660,660,660,660,660,660,660,660,660,660,660,660,660,660,660,660,660,660,660,660,660,660,660,660,660,660,660,660,660,660,660,660,660,660,660,660,660,660,660,660,660,660,660,660,660,660,660,660,660,660,660,660,660,660,660,660,660,660,660,660,660,660,660,660,660,660,660,660,660,660,660,660,660,660,660,660,660,660,660,660,660,660,660,660,660,660,660,660,660,660,660,660,660,660,660,660,660,660,660,660,660,660,660,660,660,660,660,660,660,660,660,660,649,630,618,618,617,617,615,613,607,607,608,608,608,608,608,608,608,608,608,608,608,608,608,608,608,608,608,608,608,608,608,608,608,608,608,608,608,608,608,608,608,608,608,608,608,608,608,608,608,608,608,608,608,608,608,608,608,608,608,608,608,608,608,608,608,608,608,608,608,608,608,608,608,608,608,608,608,608,608,608,608,608,608,608,608,608,608,608,608,608,608,608,608,608,608,608,608,608,608,608,608,608,608,608,608,608,608,608,608,608,608,608,608,608,608,608,608,608,608,608,608,608,608,608,608,608,608,608,608,608,608,608,608,608,608,608,608,608,608,608,608,608,608,608,608,608,608,608,608,608,608,608,608,608,608,608,608,608,608,608,608,608,608,608,608,608,608,608,608,608,608,608,608,608,608,608,608,608,608,608,608,608,608,608,608,608,608,608,608,608,608,608,608,608,608,608,608,608,608,608,608,608,608,608,608,608,608,608,608,608,608,608,608,608,608,608,608,608,608,608,608,608,608,608,608,608,608,608,608,608,608,608,608,608,608,608,608,608,608,608,608,608,608,608,608,608,608,608,608,608,608,608,608,608,608,608,608,608,608,608,608,608,608,608,608,608,608,608,608,608,608,608,608,608,608,608,608,608,608,608,608,608,608,608,608,608,608,608,608,608,608,608,608,608,608,608,608,608,608,608,608,608,608,608,608,608,608,608,608,608,608,608,608,608,608,608,608,608,608,608,608,608,608,608,608,608,608,608,608,608,608,608,608,608,608,608,608,608,608,608,608,608,608,608,608,608,608,608,608,608,608,608,608,608,608,608,608,608,608,608,608,608,608,608,608,608,608,608,608,608,608,608,608,608,608,608,608,608,608,608,608,608,608,608,608,608,608,608,608,608,608,608,608,608,608,608,608,608,608,608,608,608,608,608,608,608,608,608,608,608,608,608,608,608,608,608,608,608,608,608,608,608,608,608,608,608,608,608,608,608,608,608,608,608,608,608,608,608,608,608,608,608,608,608,608,608,608,608,608,608,608,608,608,608,608,608,608,608,608,608,608,608,608,608,608,608,608,608,608,608,608,608,608,608,608,608,608,608,608,608,608,608,608,608,608,608,608,608,608,608,608,608,608,608,608,608,608,608,608,608,608,608,608,608,608,608,608,608,608,608,608,608,608,608,608,608,608,608,608,608,608,608,608,608,608,608,608,608,608,608,608,608,608,608,608,608,608,608,608,608,608,608,608,608,608,608,608,608,608,608,608,608,608,608,608,608,608,608,608,608,608,608,608,608,608,608,608,608,608,608,608,608,608,608,608,608,608,608,608,608,608,608,608,608,608,608,608,608,608,608,608,608,608,608,608,608,608,608,608,608,608,608,608,608,608,608,608,608,608,608,608,608,608,608,608,608,608,608,608,608,608,608,608,608,608,608,608,608,608,608,608,608,608,608,608,608,608,608,608,608,608,608,608,608,608,608,608,608,608,608,608,608,608,608,608,608,608,608,608,608,608,608,608,608,608,608,608,608,608,608,608,608,608,608,608,608,608,608,608,608,608,608,608,608,608,608,608,608,608,608,608,608,608,608,608,608,608,608,608,608,608,608,608,608,608,608,608,608,608,608,608,608,608,608,608,608,608,608,608,608,608,608,608,608,608,608,608,608,608,608,608,608,608,608,608,608,608,608,608,608,608,608,608,608,608,608,608,608,608,608,608,608,608,608,608,608,608,608,608,608,608,608,608,608,608,608,608,608,608,608,608,608,608,608,608,608,608,608,608,608,608,609,609,609,609,609,609,609,609,609,609,609,609,610,610,612,612,612,612,612,612,612,612,612,612,612,612,612,612,612,612,612,612,612,612,612,612,612,612,612,612,612,612,612,612,612,612,612,612,612,612,612,612,612,612,612,612,612,612,612,612,612,612,612,612,612,612,612,612,612,612,612,612,612,612,612,612,612,612,612,612,612,612,612,612,612,612,612,612,612,612,612,612,612,612,612,612,612,612,612,612,612,612,612,612,612,612,612,612,612,612,612,612,612,612,612,612,612,612,612,612,612,612,612,612,612,612,612,612,612,612,612,612,612,612,612,612,612,612,612,612,612,612,612,612,612,612,612,612,612,612,612,612,612,612,612,612,612,612,612,612,612,612,612,612,612,612,612,612,612,612,612,612,612,612,612,612,612,612,612,612,612,612,612,612,612,612,612,612,612,612,612,612,612,612,612,612,612,612,612,612,612,612,612,612,612,612,612,612,612,612,612,612,612,612,612,612,612,612,612,612,612,612,612,612,612,607,557,525,513,512,512,512,503,464,385,212,148,80,97,197,283,283,283,283,283,283,283,283,283,283,283,252,204,158,112,60,43,29,8,0,0,0,0,0,0,32],"timestamp_mouse":[9,28,47,68,88,108,127,148,168,188,209,228,248,268,288,308,328,348,368,388,408,429,448,468,488,508,528,548,568,588,608,629,649,668,688,708,728,748,768,788,808,829,848,868,888,908,928,949,968,988,1008,1027,1048,1068,1088,1107,1128,1147,1168,1188,1208,1228,1248,1268,1288,1308,1328,1349,1368,1387,1408,1428,1447,1468,1488,1508,1529,1547,1568,1588,1608,1628,1648,1668,1688,1708,1728,1748,1769,1788,1809,1827,1849,1867,1888,1908,1928,1948,1968,1988,2007,2028,2048,2068,2087,2108,2128,2148,2167,2189,2208,2228,2248,2268,2288,2308,2328,2348,2368,2388,2408,2428,2448,2468,2488,2508,2528,2547,2568,2589,2608,2628,2647,2668,2688,2708,2728,2748,2768,2788,2808,2827,2849,2869,2889,2908,2928,2949,2968,2988,3009,3028,3049,3068,3088,3108,3128,3148,3168,3188,3208,3228,3248,3267,3287,3308,3329,3347,3369,3388,3408,3428,3448,3468,3488,3508,3528,3548,3568,3588,3608,3628,3648,3668,3688,3709,3727,3748,3768,3789,3808,3827,3848,3868,3888,3907,3928,3948,3968,3988,4008,4028,4048,4068,4089,4108,4128,4148,4168,4188,4208,4229,4247,4268,4288,4308,4327,4348,4368,4388,4408,4428,4449,4468,4487,4508,4528,4548,4569,4588,4608,4628,4648,4668,4688,4707,4728,4748,4768,4788,4808,4828,4848,4869,4889,4908,4928,4948,4969,4988,5007,5028,5048,5068,5089,5108,5128,5147,5168,5188,5208,5228,5248,5268,5288,5309,5327,5348,5367,5387,5407,5427,5447,5468,5487,5507,5527,5547,5568,5588,5608,5628,5649,5667,5689,5708,5728,5748,5768,5788,5808,5829,5848,5868,5888,5908,5928,5948,5968,5988,6008,6028,6047,6068,6088,6108,6128,6148,6168,6189,6208,6228,6247,6268,6288,6308,6328,6348,6368,6389,6408,6427,6448,6468,6487,6507,6528,6548,6568,6588,6609,6628,6648,6668,6688,6709,6728,6748,6768,6787,6808,6828,6848,6869,6888,6908,6928,6948,6967,6988,7009,7028,7047,7068,7088,7108,7128,7148,7168,7188,7208,7228,7248,7267,7289,7308,7327,7348,7368,7388,7408,7428,7448,7468,7488,7509,7528,7547,7568,7588,7608,7628,7649,7668,7688,7708,7728,7749,7768,7789,7809,7828,7849,7869,7887,7908,7928,7948,7969,7988,8007,8027,8049,8068,8089,8107,8127,8149,8168,8187,8208,8228,8248,8268,8288,8308,8328,8348,8367,8388,8408,8428,8448,8468,8489,8508,8528,8548,8568,8588,8608,8628,8648,8668,8688,8708,8728,8747,8769,8788,8808,8827,8849,8868,8889,8908,8929,8948,8969,8988,9008,9028,9048,9068,9089,9108,9128,9149,9168,9188,9208,9228,9249,9268,9287,9308,9328,9349,9368,9388,9407,9428,9448,9468,9489,9508,9528,9547,9567,9589,9608,9628,9647,9668,9689,9708,9729,9749,9768,9788,9808,9829,9848,9868,9887,9909,9929,9948,9968,9988,10008,10029,10048,10068,10088,10108,10128,10149,10168,10189,10208,10228,10248,10268,10288,10308,10328,10348,10367,10388,10408,10428,10447,10468,10488,10508,10528,10548,10568,10588,10607,10628,10648,10668,10688,10707,10728,10748,10768,10788,10808,10828,10850,10867,10889,10908,10928,10949,10969,10988,11008,11028,11048,11068,11089,11108,11127,11147,11168,11188,11208,11228,11248,11268,11288,11308,11328,11349,11368,11388,11408,11428,11448,11468,11487,11508,11528,11549,11569,11588,11609,11628,11648,11668,11688,11708,11728,11747,11768,11788,11808,11829,11848,11868,11888,11907,11928,11948,11968,11988,12007,12028,12048,12068,12088,12107,12128,12148,12168,12188,12208,12228,12247,12267,12289,12308,12327,12348,12368,12389,12407,12428,12449,12469,12488,12507,12528,12548,12568,12588,12608,12628,12648,12668,12688,12707,12728,12748,12768,12788,12808,12828,12848,12868,12888,12908,12928,12948,12968,12988,13008,13028,13048,13068,13088,13108,13129,13148,13168,13188,13208,13228,13248,13268,13288,13308,13328,13348,13368,13387,13408,13428,13448,13469,13488,13509,13528,13548,13569,13588,13608,13628,13649,13667,13688,13709,13728,13748,13768,13788,13808,13828,13848,13868,13888,13907,13928,13948,13968,13988,14008,14028,14048,14068,14088,14108,14128,14148,14167,14188,14208,14228,14247,14268,14288,14308,14327,14347,14368,14388,14408,14427,14448,14468,14488,14508,14528,14547,14567,14588,14609,14628,14649,14668,14688,14707,14728,14748,14769,14788,14808,14829,14848,14869,14888,14908,14928,14948,14968,14988,15008,15028,15048,15068,15088,15108,15128,15147,15168,15188,15208,15227,15248,15268,15288,15308,15327,15348,15368,15389,15408,15427,15448,15468,15488,15507,15529,15548,15568,15587,15608,15629,15648,15668,15687,15708,15728,15748,15768,15788,15808,15828,15848,15868,15888,15908,15928,15948,15967,15988,16008,16028,16048,16069,16088,16108,16129,16147,16168,16188,16208,16229,16248,16268,16287,16308,16328,16347,16368,16388,16409,16428,16449,16468,16488,16508,16528,16548,16568,16588,16608,16629,16648,16668,16689,16708,16728,16747,16768,16788,16808,16828,16848,16867,16888,16909,16928,16948,16969,16988,17008,17028,17048,17069,17088,17108,17128,17148,17168,17188,17207,17228,17248,17268,17288,17308,17328,17348,17367,17387,17409,17428,17448,17468,17487,17508,17528,17548,17567,17588,17608,17628,17648,17668,17687,17709,17728,17748,17768,17787,17808,17828,17848,17868,17887,17908,17928,17948,17968,17988,18008,18028,18047,18067,18088,18108,18128,18148,18168,18188,18208,18228,18248,18268,18287,18308,18327,18348,18369,18388,18408,18428,18449,18469,18488,18507,18528,18548,18568,18589,18608,18627,18648,18668,18688,18709,18727,18748,18768,18788,18808,18828,18848,18869,18888,18908,18928,18948,18969,18989,19009,19028,19048,19069,19089,19107,19127,19148,19169,19189,19207,19228,19248,19268,19288,19308,19328,19348,19368,19389,19408,19428,19448,19468,19487,19508,19529,19548,19567,19588,19608,19628,19648,19668,19688,19708,19727,19748,19768,19788,19808,19828,19848,19868,19888,19908,19928,19948,19967,19988,20008,20028,20048,20067,20088,20108,20128,20148,20167,20187,20208,20228,20249,20268,20289,20308,20329,20348,20369,20388,20409,20428,20448,20468,20488,20508,20528,20548,20568,20589,20607,20628,20648,20668,20687,20707,20728,20748,20768,20788,20808,20827,20848,20868,20888,20908,20928,20948,20967,20989,21008,21028,21049,21068,21088,21109,21128,21149,21168,21188,21208,21229,21248,21268,21288,21308,21329,21349,21368,21387,21408,21428,21449,21467,21488,21507,21528,21549,21569,21588,21608,21628,21647,21669,21689,21708,21728,21749,21768,21788,21808,21828,21848,21868,21888,21908,21928,21949,21967,21988,22008,22028,22049,22068,22088,22108,22128,22149,22167,22188,22208,22227,22249,22267,22288,22308,22328,22347,22368,22389,22409,22428,22448,22468,22488,22509,22528,22547,22567,22588,22608,22628,22647,22668,22689,22709,22728,22749,22768,22788,22809,22828,22848,22868,22888,22908,22928,22947,22969,22988,23008,23028,23048,23068,23088,23108,23128,23148,23168,23189,23209,23228,23248,23268,23288,23309,23328,23349,23368,23388,23408,23428,23448,23469,23488,23508,23528,23548,23568,23589,23608,23627,23648,23668,23688,23709,23728,23749,23767,23788,23807,23828,23848,23869,23888,23908,23928,23947,23967,23988,24009,24028,24049,24067,24088,24122,24128,24148,24168,24188,24209,24228,24248,24267,24288,24307,24328,24347,24367,24387,24408,24428,24447,24468,24488,24508,24529,24548,24569,24588,24608,24628,24648,24669,24688,24708,24728,24748,24768,24789,24808,24828,24849,24868,24888,24908,24929,24948,24967,24988,25008,25028,25048,25068,25088,25108,25128,25148,25168,25187,25209,25229,25248,25268,25288,25308,25328,25349,25368,25388,25408,25428,25447,25468,25488,25509,25528,25548,25568,25588,25609,25628,25648,25667,25689,25708,25729,25748,25768,25788,25808,25829,25849,25867,25888,25908,25928,25948,25969,25988,26008,26028,26048,26068,26088,26107,26129,26148,26168,26189,26208,26229,26247,26269,26287,26307,26329,26348,26369,26388,26408,26429,26449,26468,26489,26508,26528,26548,26568,26588,26608,26628,26649,26667,26688,26708,26729,26748,26768,26788,26808,26828,26848,26868,26888,26908,26928,26949,26969,26988,27008,27027,27047,27068,27087,27109,27128,27149,27169,27188,27207,27228,27249,27268,27288,27309,27329,27348,27368,27388,27409,27428,27448,27468,27488,27507,27528,27548,27568,27587,27608,27628,27648,27669,27688,27707,27728,27748,27768,27788,27809,27828,27848,27868,27888,27907,27927,27948,27968,27988,28008,28028,28048,28068,28088,28108,28128,28148,28169,28188,28208,28228,28248,28268,28288,28308,28328,28348,28367,28387,28408,28428,28449,28469,28488,28508,28527,28547,28568,28588,28608,28629,28647,28669,28689,28709,28728,28748,28768,28789,28808,28828,28849,28868,28888,28908,28928,28949,28969,28988,29007,29027,29049,29068,29088,29108,29129,29149,29168,29188,29208,29229,29249,29268,29288,29308,29328,29348,29367,29388,29409,29428,29449,29468,29488,29508,29528,29548,29568,29589,29608,29628,29649,29668,29687,29707,29727,29748,29768,29788,29808,29827,29849,29869,29888,29909,29928,29949,29969,29988,30008,30028,30048,30068,30089,30108,30129,30148,30168,30188,30209,30228,30248,30268,30288,30308,30327,30349,30367,30388,30408,30429,30448,30469,30488,30509,30529,30548,30568,30589,30608,30627,30649,30667,30688,30708,30728,30749,30769,30788,30809,30828,30848,30869,30888,30908,30929,30947,30968,30988,31008,31027,31047,31068,31089,31108,31128,31148,31167,31189,31208,31227,31248,31268,31288,31309,31329,31347,31368,31387,31409,31428,31448,31468,31488,31508,31527,31548,31568,31589,31608,31629,31648,31668,31688,31708,31728,31748,31768,31788,31808,31827,31848,31868,31888,31908,31929,31949,31969,31988,32007,32027,32047,32068,32088,32108,32129,32149,32167,32189,32209,32229,32248,32269,32288,32309,32328,32348,32368,32388,32407,32428,32449,32468,32488,32508,32527,32548,32568,32588,32608,32628,32648,32668,32688,32708,32728,32748,32769,32788,32808,32828,32848,32868,32889,32909,32928,32948,32970,32988,33009,33028,33048,33068,33088,33108,33128,33149,33168,33189,33208,33229,33248,33268,33288,33308,33329,33349,33368,33388,33408,33428,33448,33469,33488,33508,33528,33548,33568,33588,33608,33628,33648,33668,33688,33708,33729,33748,33768,33788,33808,33828,33849,33868,33888,33908,33929,33949,33969,33989,34009,34028,34050,34069,34088,34109,34128,34148,34168,34189,34208,34228,34249,34268,34288,34308,34328,34348,34368,34388,34409,34428,34449,34468,34488,34509,34528,34548,34568,34588,34610,34628,34648,34669,34689,34708,34729,34749,34768,34789,34808,34828,34848,34868,34889,34909,34928,34948,34968,34988,35008,35028,35048,35068,35089,35109,35128,35148,35168,35189,35208,35228,35248,35268,35289,35308,35328,35348,35368,35389,35408,35428,35448,35468,35488,35508,35528,35548,35569,35588,35609,35629,35649,35668,35688,35708,35728,35749,35768,35788,35809,35828,35850,35869,35889,35909,35928,35948,35969,35988,36008,36029,36048,36068,36088,36108,36128,36149,36168,36188,36208,36228,36248,36268,36289,36308,36329,36348,36368,36389,36409,36428,36448,36469,36489,36508,36528,36548,36570,36588,36608,36628,36648,36668,36689,36708,36730,36748,36770,36789,36808,36828,36848,36868,36888,36908,36928,36948,36969,36988,37009,37028,37048,37069,37088,37108,37128,37150,37168,37188,37208,37229,37248,37268,37288,37308,37328,37348,37368,37388,37408,37428,37449,37468,37488,37508,37528,37548,37568,37588,37608,37628,37648,37668,37688,37708,37728,37749,37768,37789,37809,37828,37849,37868,37889,37908,37928,37948,37968,37990,38009,38028,38049,38069,38090,38108,38129,38148,38168,38188,38209,38228,38248,38268,38290,38308,38330,38348,38368,38388,38408,38428,38448,38468,38489,38508,38529,38548,38569,38589,38610,38630,38648,38668,38688,38708,38728,38748,38768,38789,38808,38828,38848,38868,38888,38908,38929,38949,38968,38988,39008,39028,39048,39069,39089,39108,39128,39148,39168,39189,39208,39228,39249,39268,39288,39309,39328,39348,39368,39389,39408,39428,39449,39468,39488,39509,39528,39548,39570,39589,39608,39628,39648,39668,39688,39709,39728,39748,39768,39789,39809,39828,39848,39869,39888,39908,39928,39948,39968,39988,40008,40028,40049,40068,40088,40108,40129,40148,40168,40188,40208,40228,40248,40269,40288,40308,40328,40349,40369,40388,40408,40429,40449,40469,40488,40508,40528,40549,40568,40588,40608,40628,40649,40669,40688,40708,40728,40749,40769,40789,40808,40828,40848,40868,40888,40908,40929,40948,40969,40989,41008,41029,41048,41069,41089,41108,41128,41148,41168,41188,41208,41228,41248,41268,41288,41308,41328,41348,41368,41388,41408,41429,41449,41468,41488,41508,41529,41548,41568,41588,41608,41629,41648,41668,41688,41708],"xSR":741.5,"ySR":573.95,"xT1":424.9,"yT1":0,"xT2":1058.1,"yT2":0,"toosoon":0,"cond_shown":"equaldotsize","ratio_trial":750,"smaller_num":"6","larger_num":"8","correct_side":1,"subjID":"julianaMoraMora","gender":"1","age":"8","school":"4"},{"start_time":1552069412979,"click_time":1552069414987,"finger_time":1552069413947,"fix_duration":250,"trial":3,"RT":968,"MT":1040,"sideResp":2,"stimulus":"img/250/equaldotsize/R/8_Ratio_250_L_1_R_4.png","xmouse":[790,790,790,790,790,790,790,790,790,790,790,790,790,790,790,790,790,790,790,790,790,790,790,790,790,790,790,790,790,790,790,790,790,790,790,790,790,790,790,790,790,790,790,790,790,800,807,815,820,824,826,829,829,829,829,829,829,829,826,824,818,810,807,805,805,805,805,805,804,804,804,803,802,802,802,802,802,804,813,826,845,886,935,977,1003,1015,1017,1021,1022,1024,1026,1027,1027,1027,1027,1027,1028,1032,1038,1053,1068],"ymouse":[624,624,624,624,624,624,624,624,624,624,624,624,624,624,624,624,624,624,624,624,624,624,624,624,624,624,624,624,624,624,624,624,624,624,624,624,624,624,624,624,624,624,624,624,618,602,590,579,568,560,555,548,548,548,548,548,548,544,520,499,479,446,436,431,430,430,430,430,430,428,426,423,421,418,416,416,416,407,392,372,350,315,270,226,192,156,138,123,109,100,94,87,86,86,86,86,85,84,82,79,76],"timestamp_mouse":[9,28,52,68,88,108,128,148,168,188,208,228,248,268,288,308,328,348,368,388,408,428,449,468,488,508,528,548,568,589,608,628,648,668,688,708,728,748,768,788,808,828,849,868,889,909,929,949,968,989,1008,1028,1048,1068,1088,1109,1128,1148,1169,1188,1209,1228,1249,1270,1288,1308,1329,1348,1368,1389,1409,1428,1448,1468,1488,1508,1528,1549,1568,1588,1609,1628,1648,1668,1688,1709,1728,1749,1768,1788,1808,1828,1848,1868,1888,1909,1928,1949,1968,1989,2008],"xSR":741.5,"ySR":573.95,"xT1":424.9,"yT1":0,"xT2":1058.1,"yT2":0,"toosoon":0,"cond_shown":"equaldotsize","ratio_trial":250,"smaller_num":"1","larger_num":"4","correct_side":2,"subjID":"julianaMoraMora","gender":"1","age":"8","school":"4"},{"start_time":1552069417168,"click_time":1552069418748,"finger_time":1552069418047,"fix_duration":1099.5024617684282,"trial":4,"RT":879,"MT":701,"sideResp":2,"stimulus":"img/250/equaldotsize/R/13_Ratio_250_L_2_R_8.png","xmouse":[795,795,795,795,795,795,795,795,795,795,795,795,795,795,795,795,795,795,795,795,795,795,795,795,795,795,795,795,795,795,795,795,795,795,795,795,795,795,795,795,798,807,814,821,826,835,859,864,864,866,875,891,897,901,902,910,910,910,910,910,911,928,935,937,946,947,962,964,967,968,972,984,997,1012,1026,1047,1088,1098,1104],"ymouse":[601,601,601,601,601,601,601,601,601,601,601,601,601,601,601,601,601,601,601,601,601,601,601,601,601,601,601,601,601,601,601,601,601,601,601,601,601,601,601,601,597,587,576,564,555,539,494,481,481,478,462,434,420,412,409,396,396,396,396,396,396,361,348,342,319,316,289,286,282,280,276,256,238,217,196,174,123,103,93],"timestamp_mouse":[26,40,59,80,99,120,139,159,179,199,219,239,259,279,299,319,339,359,379,399,419,439,460,479,500,519,539,559,579,599,619,639,659,679,699,720,739,759,779,799,819,839,861,879,899,919,939,959,980,1000,1020,1039,1060,1080,1099,1119,1139,1160,1179,1200,1220,1239,1261,1279,1300,1320,1339,1359,1379,1399,1420,1439,1459,1479,1499,1520,1539,1560,1579],"xSR":741.5,"ySR":573.95,"xT1":424.9,"yT1":0,"xT2":1058.1,"yT2":0,"toosoon":0,"cond_shown":"equaldotsize","ratio_trial":250,"smaller_num":"2","larger_num":"8","correct_side":2,"subjID":"julianaMoraMora","gender":"1","age":"8","school":"4"},{"start_time":1552069420230,"click_time":1552069421908,"finger_time":1552069421067,"fix_duration":561.8505128273003,"trial":5,"RT":837,"MT":841,"sideResp":2,"stimulus":"img/500/equaldotsize/R/14_Ratio_500_L_5_R_10.png","xmouse":[791,791,791,791,791,791,791,791,791,791,791,791,791,791,791,791,791,791,791,791,791,791,791,791,791,791,791,791,791,791,791,792,793,797,798,798,799,800,803,805,811,811,811,811,811,823,840,852,871,872,877,883,894,932,943,948,948,948,957,964,972,979,989,992,999,999,1002,1002,1010,1016,1023,1030,1040,1044,1046,1049,1050,1050,1052,1053,1054,1055,1059,1063],"ymouse":[636,636,636,636,636,636,636,636,636,636,636,636,636,636,636,636,636,636,636,636,636,636,636,636,636,636,636,636,636,636,636,633,628,622,618,617,614,611,600,590,574,573,573,573,573,546,501,472,437,436,432,429,424,404,398,390,390,390,355,326,300,277,246,237,211,211,200,200,188,172,156,144,129,121,118,114,111,111,108,107,106,105,101,97],"timestamp_mouse":[17,46,57,77,97,117,137,157,177,197,217,237,257,277,298,317,337,357,377,397,418,437,457,477,498,517,537,557,577,597,617,637,659,677,697,718,738,759,777,797,817,837,857,878,898,917,937,957,977,997,1018,1037,1058,1077,1099,1117,1137,1159,1177,1197,1217,1237,1257,1277,1298,1318,1337,1357,1377,1397,1418,1438,1457,1477,1499,1518,1538,1558,1577,1598,1617,1637,1657,1678],"xSR":741.5,"ySR":573.95,"xT1":424.9,"yT1":0,"xT2":1058.1,"yT2":0,"toosoon":0,"cond_shown":"equaldotsize","ratio_trial":500,"smaller_num":"5","larger_num":"10","correct_side":2,"subjID":"julianaMoraMora","gender":"1","age":"8","school":"4"},{"start_time":1552069425576,"click_time":1552069427427,"finger_time":1552069426507,"fix_duration":1325.1656025510038,"trial":6,"RT":931,"MT":920,"sideResp":1,"stimulus":"img/750/equaldotanddens/L/14_Ratio_750_L_8_R_6.png","xmouse":[790,788,784,782,782,782,782,782,782,782,782,782,782,782,782,782,782,782,782,782,782,782,782,782,782,782,782,782,782,782,782,782,782,782,782,782,782,782,782,782,782,781,779,779,779,779,779,779,779,779,779,779,779,779,779,779,779,785,787,788,789,793,810,837,864,904,942,987,1000,1006,1008,1011,1015,1016,1016,1016,1016,1010,990,989,964,940,851,799,765,707,658,587,561,541,528,513,499],"ymouse":[629,629,628,628,628,628,628,628,628,628,628,628,628,628,628,628,628,628,628,628,628,628,628,628,628,628,628,628,628,628,628,628,628,628,628,628,628,628,628,628,627,626,618,602,586,582,569,540,526,514,499,483,432,408,386,365,350,329,325,324,324,323,320,311,298,276,250,209,189,173,162,154,143,139,139,138,138,138,138,138,138,137,139,141,141,141,141,138,135,128,124,111,94],"timestamp_mouse":[11,32,51,71,94,112,131,151,172,191,211,231,251,271,291,311,331,351,372,391,412,431,451,471,492,511,531,551,571,591,612,631,651,672,691,713,731,751,771,793,812,831,851,871,892,911,931,952,972,993,1012,1031,1051,1071,1091,1111,1132,1152,1172,1192,1211,1231,1251,1272,1292,1312,1333,1351,1372,1391,1411,1432,1452,1472,1491,1512,1532,1552,1571,1591,1611,1631,1651,1671,1691,1711,1731,1751,1771,1791,1811,1832,1851],"xSR":741.5,"ySR":573.95,"xT1":424.9,"yT1":0,"xT2":1058.1,"yT2":0,"toosoon":0,"cond_shown":"equaldotanddens","ratio_trial":750,"smaller_num":"6","larger_num":"8","correct_side":1,"subjID":"julianaMoraMora","gender":"1","age":"8","school":"4"},{"start_time":1552069428621,"click_time":1552069429888,"finger_time":1552069429527,"fix_duration":331.9876112296561,"trial":7,"RT":906,"MT":361,"sideResp":1,"stimulus":"img/750/equaldotsize/L/8_Ratio_750_L_4_R_3.png","xmouse":[783,783,783,783,783,783,783,783,783,783,783,783,783,783,784,785,786,786,786,786,786,786,786,786,786,786,786,786,786,786,786,786,786,786,786,786,786,787,787,787,787,789,794,800,808,823,824,824,824,824,823,822,817,810,798,761,742,715,688,642,582,555,526,501],"ymouse":[645,645,645,645,645,645,645,645,645,645,645,645,645,645,643,642,641,640,640,640,640,640,640,640,640,640,640,640,640,640,640,640,640,640,640,640,640,640,640,640,639,634,621,605,584,539,537,536,523,509,495,490,479,467,449,396,365,330,289,228,145,117,93,74],"timestamp_mouse":[9,34,46,66,86,106,126,146,166,186,206,226,246,267,286,306,327,346,366,386,407,427,446,466,486,506,526,546,566,586,606,626,647,667,686,707,726,746,766,786,808,827,846,867,886,906,926,946,966,986,1007,1028,1046,1067,1087,1106,1127,1147,1167,1186,1206,1226,1246,1267],"xSR":741.5,"ySR":573.95,"xT1":424.9,"yT1":0,"xT2":1058.1,"yT2":0,"toosoon":0,"cond_shown":"equaldotsize","ratio_trial":750,"smaller_num":"3","larger_num":"4","correct_side":1,"subjID":"julianaMoraMora","gender":"1","age":"8","school":"4"},{"start_time":1552069432755,"click_time":1552069434387,"finger_time":1552069434267,"fix_duration":1147.6258812694591,"trial":8,"RT":1512,"MT":120,"sideResp":2,"stimulus":"img/900/equaldotsize/R/3_Ratio_900_L_9_R_10.png","xmouse":[822,822,822,822,822,821,820,820,818,818,817,817,816,816,816,816,816,816,816,816,816,816,816,816,816,816,816,816,816,816,816,816,816,816,816,816,816,816,816,816,816,816,816,816,816,816,816,816,816,816,816,816,816,816,816,816,816,816,816,816,816,816,816,816,816,816,816,816,816,816,816,816,816,822,833,846,869,900,983,1056,1073,1119],"ymouse":[602,602,602,602,602,602,602,602,602,602,602,602,602,602,602,602,602,602,602,602,602,602,602,602,602,602,602,602,602,602,602,602,602,602,602,602,602,602,602,602,602,602,602,602,602,602,602,602,602,602,602,602,602,602,602,602,602,602,602,602,602,602,602,602,602,602,602,602,602,602,602,602,602,592,575,556,516,456,294,154,127,36],"timestamp_mouse":[12,33,52,72,92,112,132,153,173,192,212,232,252,272,292,312,332,352,373,393,412,433,452,473,493,512,532,552,572,592,612,633,652,672,692,712,733,752,772,792,813,832,852,872,893,912,933,952,972,992,1012,1032,1052,1072,1092,1112,1133,1153,1173,1192,1212,1232,1252,1272,1292,1312,1332,1352,1373,1393,1412,1432,1454,1472,1493,1512,1532,1552,1572,1592,1612,1632],"xSR":741.5,"ySR":573.95,"xT1":424.9,"yT1":0,"xT2":1058.1,"yT2":0,"toosoon":0,"cond_shown":"equaldotsize","ratio_trial":900,"smaller_num":"9","larger_num":"10","correct_side":2,"subjID":"julianaMoraMora","gender":"1","age":"8","school":"4"},{"start_time":1552069435656,"click_time":1552069437189,"finger_time":1552069436567,"fix_duration":328.7209445358811,"trial":9,"RT":911,"MT":622,"sideResp":2,"stimulus":"img/250/equaldotanddens/R/6_Ratio_250_L_6_R_24.png","xmouse":[769,769,769,769,769,769,769,769,769,769,769,769,769,769,769,769,769,769,769,769,769,769,769,769,769,769,769,769,769,769,769,769,769,769,769,769,769,769,769,769,769,769,773,780,797,807,816,821,831,853,864,876,887,894,913,922,935,949,966,994,1006,1017,1028,1030,1042,1048,1053,1056,1058,1061,1062,1063,1064,1065,1068,1070,1075],"ymouse":[629,629,629,629,629,629,629,629,629,629,629,629,629,629,629,629,629,629,629,629,629,629,629,629,629,629,629,629,629,629,629,629,629,629,629,629,629,629,629,629,629,629,623,612,583,563,541,527,505,462,442,424,401,391,364,353,335,317,292,252,236,222,204,199,171,159,149,142,135,122,117,114,111,110,105,101,93],"timestamp_mouse":[11,31,54,72,91,111,131,151,171,192,211,231,251,271,291,312,331,351,371,391,412,431,451,472,491,511,532,551,571,591,612,632,652,671,691,711,732,751,771,792,811,831,851,871,891,911,932,951,971,992,1011,1032,1051,1072,1091,1113,1131,1151,1171,1191,1212,1232,1252,1271,1291,1311,1332,1352,1372,1391,1411,1431,1452,1471,1491,1511,1532],"xSR":741.5,"ySR":573.95,"xT1":424.9,"yT1":0,"xT2":1058.1,"yT2":0,"toosoon":0,"cond_shown":"equaldotanddens","ratio_trial":250,"smaller_num":"6","larger_num":"24","correct_side":2,"subjID":"julianaMoraMora","gender":"1","age":"8","school":"4"},{"start_time":1552069439522,"click_time":1552069441369,"finger_time":1552069440687,"fix_duration":1332.1135812095165,"trial":10,"RT":1165,"MT":682,"sideResp":1,"stimulus":"img/500/randomdotsizeEA/R/6_Ratio_500_L_9_R_18.png","xmouse":[790,790,790,790,790,790,790,790,790,790,790,790,790,790,790,790,790,790,790,790,790,790,790,790,790,790,790,790,790,790,790,790,790,790,790,790,790,790,790,790,790,790,790,790,790,790,789,789,789,789,789,789,789,789,789,789,789,786,778,761,748,735,698,681,677,666,640,634,627,624,624,621,616,612,608,603,599,599,594,587,582,577,577,577,576,575,573,561,551,543,534,529,517],"ymouse":[621,621,621,621,621,621,621,621,621,621,621,621,621,621,621,621,621,621,621,621,621,621,621,621,621,621,621,621,621,621,621,621,621,621,621,621,621,621,621,621,621,621,621,621,621,617,609,607,606,606,606,606,606,606,606,606,603,585,558,514,492,473,441,426,421,405,341,308,255,229,203,174,123,99,79,66,59,59,59,59,59,61,61,61,61,61,61,63,65,66,67,67,70],"timestamp_mouse":[9,26,45,71,85,105,125,145,165,185,205,225,245,265,285,305,325,345,365,385,405,425,445,465,485,505,525,545,566,585,605,625,646,665,685,705,726,747,765,786,807,826,845,865,885,905,926,945,965,985,1005,1025,1045,1065,1085,1105,1125,1145,1165,1186,1206,1225,1246,1266,1285,1305,1326,1345,1365,1385,1406,1425,1446,1466,1485,1506,1526,1545,1565,1585,1607,1626,1645,1665,1687,1705,1725,1745,1765,1786,1805,1825,1846],"xSR":741.5,"ySR":573.95,"xT1":424.9,"yT1":0,"xT2":1058.1,"yT2":0,"toosoon":0,"cond_shown":"randomdotsizeEA","ratio_trial":500,"smaller_num":"9","larger_num":"18","correct_side":2,"subjID":"julianaMoraMora","gender":"1","age":"8","school":"4"},{"start_time":1552069445803,"click_time":1552069447987,"finger_time":1552069446627,"fix_duration":1453.4439318672598,"trial":11,"RT":824,"MT":1360,"sideResp":2,"stimulus":"img/900/equaldotanddens/L/1_Ratio_900_L_10_R_9.png","xmouse":[793,793,793,793,793,793,793,793,793,793,793,793,793,793,793,793,793,793,793,793,793,793,793,793,793,793,793,793,793,793,793,793,793,793,793,794,794,796,797,800,803,805,813,824,829,835,842,851,874,891,906,922,930,940,943,946,949,951,953,953,953,953,953,953,953,953,953,953,953,953,953,953,953,953,953,953,953,953,953,953,953,953,953,953,954,954,954,955,956,956,957,958,959,964,969,976,976,976,996,1011,1032,1043,1053,1067,1068,1068,1068,1068,1068,1068],"ymouse":[643,643,643,643,643,643,643,643,643,643,643,643,643,643,643,643,643,643,643,643,643,643,643,643,643,643,643,643,643,643,642,642,642,642,637,633,629,622,613,590,576,561,534,497,477,456,434,402,325,287,258,226,211,191,185,178,174,171,166,165,165,165,165,165,165,165,165,165,165,165,165,165,165,165,165,165,165,165,165,165,165,165,165,165,164,164,164,164,164,164,164,163,163,162,159,156,156,156,133,113,81,57,33,0,0,0,0,0,0,6],"timestamp_mouse":[9,24,46,64,84,104,124,144,164,184,204,225,244,264,284,305,325,344,364,384,405,424,445,464,484,504,524,544,564,584,604,625,644,664,684,704,726,745,764,784,805,824,845,864,884,905,924,945,964,984,1005,1025,1045,1065,1086,1104,1125,1144,1164,1186,1204,1224,1244,1264,1284,1304,1324,1344,1364,1384,1404,1424,1444,1464,1484,1504,1526,1545,1564,1585,1604,1624,1644,1665,1684,1704,1724,1744,1765,1784,1805,1825,1844,1864,1886,1905,1925,1945,1964,1985,2004,2024,2045,2065,2084,2106,2125,2145,2165,2184],"xSR":741.5,"ySR":573.95,"xT1":424.9,"yT1":0,"xT2":1058.1,"yT2":0,"toosoon":0,"cond_shown":"equaldotanddens","ratio_trial":900,"smaller_num":"9","larger_num":"10","correct_side":1,"subjID":"julianaMoraMora","gender":"1","age":"8","school":"4"},{"start_time":1552069450840,"click_time":1552069452008,"finger_time":1552069451667,"fix_duration":250,"trial":12,"RT":827,"MT":341,"sideResp":1,"stimulus":"img/500/equaldotsize/L/11_Ratio_500_L_12_R_6.png","xmouse":[814,814,814,814,814,814,814,814,814,814,814,814,814,814,814,814,814,814,814,814,814,814,814,814,814,814,814,814,814,814,814,814,814,814,814,814,814,814,812,797,777,740,654,620,594,565,542,503,498,498,498,497,497,497,497,497,497,497,497],"ymouse":[655,655,655,639,624,612,606,605,605,605,603,601,597,597,597,597,597,597,597,597,597,597,597,597,597,597,597,597,597,597,597,597,597,597,597,597,597,597,595,589,579,554,464,398,336,259,170,0,0,0,0,0,0,0,0,0,0,0,2],"timestamp_mouse":[9,35,47,67,87,107,127,147,167,189,207,227,248,268,287,307,327,347,367,387,407,427,447,467,487,507,527,547,567,588,607,627,647,667,687,707,727,747,767,787,807,827,848,868,887,908,927,947,967,988,1008,1027,1048,1069,1088,1108,1128,1147,1168],"xSR":741.5,"ySR":573.95,"xT1":424.9,"yT1":0,"xT2":1058.1,"yT2":0,"toosoon":0,"cond_shown":"equaldotsize","ratio_trial":500,"smaller_num":"6","larger_num":"12","correct_side":1,"subjID":"julianaMoraMora","gender":"1","age":"8","school":"4"},{"start_time":1552069453563,"click_time":1552069455209,"finger_time":1552069454427,"fix_duration":474.572956470383,"trial":13,"RT":864,"MT":782,"sideResp":2,"stimulus":"img/500/equaldotsize/R/14_Ratio_500_L_5_R_10.png","xmouse":[808,808,808,808,808,808,808,808,808,808,808,808,808,808,808,808,808,808,808,808,808,808,808,808,808,808,808,808,808,808,808,808,808,808,808,808,808,808,808,808,808,814,821,828,837,852,880,892,900,905,911,917,919,921,924,927,936,942,948,948,958,970,973,980,989,998,1019,1027,1032,1036,1037,1038,1038,1038,1039,1041,1042,1046,1049,1051,1053,1057,1061],"ymouse":[608,608,608,608,608,608,608,608,608,608,608,608,608,608,608,608,608,608,608,608,608,608,608,608,608,608,608,608,608,608,608,608,608,607,607,607,607,607,605,605,605,594,581,564,542,510,431,388,343,321,307,293,288,283,275,266,247,235,224,223,210,190,187,176,162,148,126,119,113,109,108,107,107,107,106,105,105,102,100,99,95,91,88],"timestamp_mouse":[12,32,44,64,84,104,124,144,164,184,204,225,244,265,284,306,325,344,364,384,404,424,444,465,484,504,524,545,564,584,604,624,644,664,684,704,724,744,764,784,806,824,844,864,884,904,924,944,965,984,1005,1024,1045,1065,1085,1104,1124,1145,1165,1185,1205,1224,1244,1265,1284,1304,1324,1346,1364,1384,1404,1424,1444,1464,1485,1504,1524,1545,1565,1584,1605,1624,1645],"xSR":741.5,"ySR":573.95,"xT1":424.9,"yT1":0,"xT2":1058.1,"yT2":0,"toosoon":0,"cond_shown":"equaldotsize","ratio_trial":500,"smaller_num":"5","larger_num":"10","correct_side":2,"subjID":"julianaMoraMora","gender":"1","age":"8","school":"4"},{"start_time":1552069456735,"click_time":1552069458649,"finger_time":1552069457887,"fix_duration":465.24650709767036,"trial":14,"RT":1152,"MT":762,"sideResp":2,"stimulus":"img/750/equaldotanddens/R/7_Ratio_750_L_3_R_4.png","xmouse":[825,825,824,824,824,824,824,824,824,824,824,824,823,823,823,823,823,823,823,823,823,823,823,823,823,823,823,823,823,823,823,823,823,823,823,823,823,823,823,823,823,823,823,823,823,823,823,823,823,823,823,823,823,823,823,824,826,830,844,863,882,896,906,920,925,928,928,930,933,934,935,936,943,959,964,965,967,971,978,985,993,999,1004,1009,1013,1020,1023,1029,1039,1039,1039,1039,1039,1049,1055,1060],"ymouse":[626,626,627,627,627,627,627,627,627,627,627,627,627,627,627,627,627,627,627,627,627,627,627,627,627,627,627,627,627,627,627,627,627,627,627,627,627,627,627,627,627,627,627,627,627,627,627,627,627,627,627,627,627,625,619,609,596,573,493,425,365,325,292,233,200,171,148,134,126,125,125,125,125,124,121,121,121,118,114,110,105,101,97,94,92,90,89,87,84,84,84,84,84,83,83,83],"timestamp_mouse":[13,34,52,72,92,112,132,153,173,192,212,232,252,273,292,313,333,352,372,392,412,432,452,472,493,512,533,553,573,592,612,633,652,673,692,712,732,752,773,793,812,832,852,872,892,912,932,952,972,992,1012,1032,1052,1072,1092,1113,1132,1152,1172,1192,1213,1233,1252,1272,1293,1313,1333,1352,1372,1393,1412,1433,1453,1472,1492,1513,1532,1552,1572,1593,1612,1632,1652,1672,1692,1712,1732,1752,1773,1792,1813,1832,1852,1872,1892,1913],"xSR":741.5,"ySR":573.95,"xT1":424.9,"yT1":0,"xT2":1058.1,"yT2":0,"toosoon":0,"cond_shown":"equaldotanddens","ratio_trial":750,"smaller_num":"3","larger_num":"4","correct_side":2,"subjID":"julianaMoraMora","gender":"1","age":"8","school":"4"},{"start_time":1552069460118,"click_time":1552069462009,"finger_time":1552069460447,"fix_duration":308.01686670564857,"trial":15,"RT":329,"MT":1562,"sideResp":2,"stimulus":"img/500/randomdotsizeEA/R/12_Ratio_500_L_1_R_2.png","xmouse":[797,797,797,797,797,797,797,797,797,797,797,797,797,798,798,798,798,798,798,798,798,798,798,798,798,798,798,798,798,798,798,798,798,798,798,798,798,798,797,797,797,797,797,797,797,797,797,797,797,797,796,794,794,794,793,793,793,793,793,793,793,795,799,803,821,834,849,859,875,898,902,904,905,905,909,910,911,915,917,930,937,950,961,970,971,977,980,985,1003,1035,1037,1037,1039,1044,1059],"ymouse":[608,608,608,608,608,608,608,608,608,608,608,608,605,602,589,579,569,560,553,547,547,547,547,547,550,550,550,550,550,551,553,554,556,557,562,565,567,571,577,595,601,604,605,605,605,605,605,602,599,583,576,571,567,565,563,562,562,562,562,560,555,547,535,518,474,436,372,333,264,132,107,88,78,78,68,66,66,64,63,59,56,53,50,47,46,45,44,44,42,41,41,41,41,41,45],"timestamp_mouse":[10,38,49,69,89,109,129,149,170,190,210,230,249,270,289,309,329,349,369,389,409,429,449,469,489,509,531,550,569,589,609,629,649,670,689,709,729,749,769,789,809,829,849,869,889,909,929,949,969,989,1009,1029,1049,1069,1090,1110,1130,1149,1169,1189,1211,1229,1249,1269,1289,1310,1329,1349,1369,1389,1409,1430,1449,1470,1490,1510,1529,1549,1569,1589,1611,1630,1650,1669,1689,1709,1729,1750,1769,1789,1810,1829,1849,1869,1890],"xSR":741.5,"ySR":573.95,"xT1":424.9,"yT1":0,"xT2":1058.1,"yT2":0,"toosoon":0,"cond_shown":"randomdotsizeEA","ratio_trial":500,"smaller_num":"1","larger_num":"2","correct_side":2,"subjID":"julianaMoraMora","gender":"1","age":"8","school":"4"},{"start_time":1552069463158,"click_time":1552069471647,"finger_time":1552069464208,"fix_duration":309.64552926679323,"trial":16,"RT":1050,"MT":7439,"sideResp":2,"stimulus":"img/900/equaldotsize/L/1_Ratio_900_L_10_R_9.png","xmouse":[820,820,820,820,820,820,820,820,820,820,819,817,815,815,814,813,812,810,810,810,810,810,810,810,810,810,810,810,810,810,810,810,809,809,809,809,809,809,809,809,809,809,809,809,809,809,809,809,809,809,809,809,810,810,810,810,810,810,810,810,810,810,810,810,810,810,810,810,810,810,810,810,810,810,810,810,810,810,810,810,810,810,810,810,810,810,810,810,810,810,810,810,810,810,810,810,810,810,810,810,810,810,810,810,810,810,810,810,810,810,810,810,810,810,810,810,810,810,810,810,810,810,810,810,810,811,811,812,812,812,812,812,812,812,812,812,812,812,812,812,812,812,812,812,812,812,812,812,812,812,812,812,812,812,812,812,812,812,810,809,808,808,808,808,808,808,808,808,808,808,808,808,808,808,808,808,808,808,808,808,808,808,808,808,808,808,808,808,805,805,802,799,797,797,797,797,797,797,797,797,797,797,797,797,797,797,797,797,797,797,797,797,797,797,797,797,797,797,800,804,807,811,819,823,826,829,832,835,838,841,844,847,850,855,859,863,865,870,871,872,872,872,872,872,872,872,872,872,870,866,865,862,859,852,847,841,832,821,804,800,799,799,798,796,794,794,794,794,793,791,791,791,789,776,767,766,765,765,765,765,765,765,765,765,765,765,765,765,765,765,765,765,765,765,765,763,763,763,763,763,763,763,763,763,763,763,763,763,763,763,763,761,759,757,757,756,755,754,753,752,750,749,749,748,747,745,743,742,741,741,740,740,739,739,739,739,739,739,739,739,739,739,739,739,735,733,732,732,732,732,732,732,732,733,733,733,733,733,733,734,734,734,734,734,734,734,734,734,741,744,748,751,756,759,759,759,759,759,759,759,760,762,763,768,769,772,776,780,783,784,784,788,792,813,823,834,846,857,883,897,912,924,939,973,983,994,1002,1009,1019,1022,1023,1024,1025,1028,1029,1030,1030,1030,1030,1030,1031,1036,1037,1053,1061],"ymouse":[621,621,621,621,621,621,621,621,621,621,621,620,615,613,611,606,606,603,603,603,602,602,602,602,602,602,602,602,602,602,601,600,599,599,599,599,599,599,599,599,599,599,599,599,599,599,599,599,596,588,581,575,573,573,573,573,573,573,573,573,573,573,573,573,573,573,573,573,573,573,573,573,573,573,573,573,573,573,573,573,573,573,573,573,573,573,573,573,573,573,573,573,573,573,573,573,573,573,573,573,573,573,573,573,573,573,573,573,573,573,573,573,573,573,573,573,573,573,573,573,573,573,573,573,572,559,543,517,514,514,514,514,514,514,514,514,514,514,514,514,514,514,514,514,514,514,512,508,508,508,508,508,508,508,508,508,510,513,520,523,526,526,526,526,526,526,526,526,526,526,526,526,526,526,526,526,526,526,526,526,526,526,526,526,526,526,526,528,533,537,542,548,555,555,555,555,555,558,562,567,573,578,582,584,586,587,588,589,589,589,589,589,589,589,589,589,589,584,573,562,548,534,500,480,472,465,459,449,442,433,425,419,411,401,390,384,375,361,355,350,347,342,337,335,334,334,334,334,334,337,342,346,352,364,372,381,393,408,438,446,449,450,452,466,487,508,535,563,601,606,606,606,605,594,590,589,588,588,588,588,588,588,588,588,588,588,588,588,588,588,588,588,588,588,588,588,588,588,588,588,588,588,588,588,588,588,588,588,588,588,588,590,592,595,596,599,600,604,605,608,612,615,616,619,623,630,634,637,638,640,642,646,647,647,647,647,647,647,647,647,647,647,648,663,685,695,698,698,698,698,697,692,684,677,677,677,677,677,677,676,676,676,676,676,676,676,675,671,656,649,640,631,625,618,617,617,617,617,617,617,615,613,610,603,598,592,586,579,575,574,573,570,565,534,516,500,484,465,427,404,382,351,311,223,196,173,154,138,118,112,111,109,108,99,97,97,97,97,96,96,96,94,93,82,75],"timestamp_mouse":[9,29,59,70,90,109,129,149,169,189,209,229,249,269,290,309,329,349,369,389,409,429,450,468,489,509,529,549,570,589,610,629,649,670,689,710,729,749,769,789,809,829,849,870,890,909,929,949,969,989,1009,1030,1050,1070,1089,1109,1129,1150,1170,1189,1210,1229,1250,1270,1290,1310,1330,1349,1369,1389,1410,1429,1449,1470,1489,1509,1529,1549,1569,1590,1609,1629,1649,1669,1690,1710,1729,1750,1770,1789,1809,1830,1849,1869,1889,1909,1929,1950,1969,1989,2009,2030,2050,2069,2089,2110,2129,2149,2171,2190,2209,2230,2250,2269,2289,2309,2329,2350,2370,2390,2410,2429,2450,2469,2490,2510,2530,2550,2571,2589,2609,2630,2650,2670,2689,2710,2729,2750,2769,2790,2810,2829,2849,2870,2889,2909,2929,2950,2970,2989,3009,3030,3049,3069,3089,3109,3129,3149,3169,3189,3209,3229,3249,3269,3289,3309,3330,3350,3370,3390,3409,3429,3450,3469,3489,3509,3529,3549,3570,3590,3610,3629,3649,3669,3689,3709,3729,3750,3770,3789,3809,3829,3849,3869,3889,3909,3930,3949,3970,3990,4009,4029,4049,4070,4089,4109,4129,4150,4169,4189,4209,4234,4249,4269,4289,4309,4329,4349,4369,4389,4410,4430,4450,4469,4489,4510,4529,4549,4569,4589,4609,4630,4649,4669,4689,4709,4729,4750,4769,4790,4810,4829,4849,4869,4890,4909,4929,4949,4970,4989,5009,5030,5049,5069,5090,5109,5129,5150,5169,5189,5209,5229,5249,5269,5290,5309,5330,5350,5370,5389,5409,5429,5450,5469,5489,5509,5529,5549,5569,5589,5609,5629,5649,5669,5689,5709,5730,5749,5769,5789,5809,5830,5849,5869,5889,5909,5929,5949,5969,5989,6009,6029,6050,6070,6089,6109,6129,6149,6169,6189,6211,6229,6249,6269,6289,6311,6330,6350,6369,6389,6410,6429,6449,6469,6489,6509,6529,6549,6569,6589,6609,6630,6649,6669,6690,6709,6729,6749,6769,6789,6809,6830,6849,6870,6889,6909,6929,6949,6969,6989,7009,7029,7050,7069,7089,7110,7129,7149,7170,7189,7210,7230,7251,7269,7290,7309,7329,7349,7370,7390,7409,7429,7450,7469,7489,7509,7529,7549,7569,7589,7610,7629,7650,7669,7689,7709,7729,7749,7770,7790,7810,7829,7850,7869,7889,7909,7929,7949,7969,7990,8009,8029,8049,8069,8090,8109,8129,8149,8169,8200,8210,8229,8249,8270,8290,8309,8329,8349,8369,8390,8409,8429,8449,8469,8489],"xSR":741.5,"ySR":573.95,"xT1":424.9,"yT1":0,"xT2":1058.1,"yT2":0,"toosoon":0,"cond_shown":"equaldotsize","ratio_trial":900,"smaller_num":"9","larger_num":"10","correct_side":1,"subjID":"julianaMoraMora","gender":"1","age":"8","school":"4"},{"start_time":1552069474222,"click_time":1552069475427,"finger_time":1552069475227,"fix_duration":973.9672512096681,"trial":17,"RT":1005,"MT":200,"sideResp":2,"stimulus":"img/500/equaldotanddens/R/15_Ratio_500_L_1_R_2.png","xmouse":[774,774,774,774,774,774,774,774,774,774,774,774,774,774,774,774,774,774,774,774,774,774,774,774,774,774,774,774,774,774,774,774,774,774,774,774,774,774,774,774,774,774,774,774,774,777,780,784,791,798,808,830,842,860,877,959,1009,1058,1112,1130,1146],"ymouse":[629,629,629,629,629,629,629,629,629,629,629,629,629,629,629,629,629,629,629,629,629,629,629,629,629,629,629,629,629,629,629,629,629,629,629,629,629,629,629,629,629,629,629,629,628,621,614,604,586,574,557,523,505,483,464,375,316,255,173,135,83],"timestamp_mouse":[9,25,50,65,86,105,125,145,165,185,205,225,245,266,285,305,325,345,366,385,406,425,445,465,485,506,526,545,566,587,606,625,645,665,685,705,726,745,766,785,805,825,845,865,886,905,926,945,965,985,1005,1025,1046,1065,1085,1105,1125,1145,1165,1185,1205],"xSR":741.5,"ySR":573.95,"xT1":424.9,"yT1":0,"xT2":1058.1,"yT2":0,"toosoon":0,"cond_shown":"equaldotanddens","ratio_trial":500,"smaller_num":"1","larger_num":"2","correct_side":2,"subjID":"julianaMoraMora","gender":"1","age":"8","school":"4"},{"start_time":1552069477261,"click_time":1552069478227,"finger_time":1552069478027,"fix_duration":572.5460945012625,"trial":18,"RT":766,"MT":200,"sideResp":1,"stimulus":"img/500/equaldotanddens/L/8_Ratio_500_L_8_R_4.png","xmouse":[769,769,769,769,769,769,769,769,769,769,769,769,769,769,769,769,769,769,769,769,769,769,769,769,769,769,769,769,769,769,769,769,769,769,769,769,769,767,761,723,689,651,616,587,557,552,544,534,524],"ymouse":[600,600,600,600,600,600,600,600,600,600,600,600,600,600,600,600,600,600,600,600,600,600,600,600,600,600,600,600,600,600,600,600,600,600,600,600,590,583,562,479,413,344,280,223,147,126,102,78,54],"timestamp_mouse":[9,26,46,66,86,106,126,146,166,186,206,226,246,266,286,307,326,346,367,386,406,426,446,467,487,506,526,546,566,586,606,626,646,666,686,706,726,746,766,786,806,826,846,867,886,907,926,947,966],"xSR":741.5,"ySR":573.95,"xT1":424.9,"yT1":0,"xT2":1058.1,"yT2":0,"toosoon":0,"cond_shown":"equaldotanddens","ratio_trial":500,"smaller_num":"4","larger_num":"8","correct_side":1,"subjID":"julianaMoraMora","gender":"1","age":"8","school":"4"},{"start_time":1552069479869,"click_time":1552069481288,"finger_time":1552069480647,"fix_duration":540.5184177881091,"trial":19,"RT":778,"MT":641,"sideResp":2,"stimulus":"img/900/equaldotanddens/R/3_Ratio_900_L_9_R_10.png","xmouse":[801,801,801,801,801,801,801,801,801,801,801,801,801,801,801,801,801,801,801,801,801,801,801,801,801,801,801,801,801,801,801,801,801,801,804,810,819,830,862,892,931,1001,1050,1115,1135,1144,1152,1164,1183,1190,1197,1203,1215,1225,1229,1231,1231,1231,1231,1231,1228,1220,1214,1200,1193,1187,1181,1177,1165,1159,1150],"ymouse":[652,652,652,652,652,652,652,652,652,652,652,652,652,652,652,652,652,652,652,652,652,652,652,652,652,652,652,652,652,652,652,652,652,652,650,639,625,612,581,562,534,480,435,354,308,280,258,238,203,189,173,154,120,83,66,50,40,36,36,35,35,37,39,43,46,49,52,55,59,62,65],"timestamp_mouse":[18,46,58,78,99,118,138,158,178,198,218,238,258,278,298,319,338,358,378,398,418,438,458,478,499,518,538,558,578,598,618,638,658,679,698,718,738,758,778,799,819,838,859,878,898,918,938,959,978,999,1018,1039,1059,1078,1098,1119,1138,1158,1178,1198,1218,1238,1259,1278,1299,1318,1338,1358,1378,1399,1419],"xSR":741.5,"ySR":573.95,"xT1":424.9,"yT1":0,"xT2":1058.1,"yT2":0,"toosoon":0,"cond_shown":"equaldotanddens","ratio_trial":900,"smaller_num":"9","larger_num":"10","correct_side":2,"subjID":"julianaMoraMora","gender":"1","age":"8","school":"4"},{"start_time":1552069483593,"click_time":1552069484967,"finger_time":1552069484288,"fix_duration":1024.6996121076795,"trial":20,"RT":695,"MT":679,"sideResp":2,"stimulus":"img/250/equaldotanddens/R/8_Ratio_250_L_1_R_4.png","xmouse":[787,787,787,788,788,788,788,788,788,788,788,788,788,788,788,788,788,788,788,789,789,789,789,789,789,789,790,790,792,794,796,800,809,813,825,832,840,848,865,874,874,874,885,914,927,943,956,970,986,996,1002,1005,1006,1021,1036,1052,1066,1079,1096,1102,1108,1113,1118,1128,1136,1142,1146,1151,1152],"ymouse":[621,621,621,621,621,621,621,621,621,621,621,621,621,621,621,620,619,618,618,616,615,615,615,614,614,614,613,613,610,606,603,597,581,575,557,546,535,524,504,494,494,494,484,451,431,410,391,374,359,353,349,346,346,334,320,303,290,272,238,224,211,199,190,170,150,137,126,104,97],"timestamp_mouse":[16,34,55,74,95,114,134,156,175,194,214,235,254,274,294,314,334,355,374,394,415,434,454,474,495,514,534,554,575,594,615,634,655,676,695,715,735,754,774,794,814,834,854,874,895,914,934,954,974,994,1014,1035,1055,1074,1094,1114,1135,1154,1175,1194,1215,1235,1254,1274,1294,1314,1335,1355,1374],"xSR":741.5,"ySR":573.95,"xT1":424.9,"yT1":0,"xT2":1058.1,"yT2":0,"toosoon":0,"cond_shown":"equaldotanddens","ratio_trial":250,"smaller_num":"1","larger_num":"4","correct_side":2,"subjID":"julianaMoraMora","gender":"1","age":"8","school":"4"},{"start_time":1552069486864,"click_time":1552069488267,"finger_time":1552069487888,"fix_duration":595.6185922063714,"trial":21,"RT":1024,"MT":379,"sideResp":2,"stimulus":"img/900/equaldotsize/R/13_Ratio_900_L_18_R_20.png","xmouse":[768,768,768,768,768,768,768,768,768,768,768,768,768,768,768,768,768,768,768,768,768,768,768,768,768,768,768,768,768,768,768,768,768,768,768,768,768,768,768,768,768,768,768,768,768,768,770,774,779,783,809,818,828,838,849,867,874,879,879,879,879,884,888,892,897,915,937,968,996,1028,1083],"ymouse":[613,613,613,613,613,613,613,613,613,613,613,613,613,613,613,613,613,613,613,613,613,613,613,613,613,613,613,613,613,613,613,613,613,613,613,613,613,613,613,613,613,613,613,613,613,613,609,606,601,597,574,561,547,533,518,491,482,472,472,472,472,468,464,458,450,406,350,277,210,139,42],"timestamp_mouse":[9,34,43,63,83,103,123,143,163,184,203,223,243,263,284,303,323,343,363,383,403,423,443,464,483,503,523,543,563,583,603,623,643,663,683,703,723,743,763,784,803,823,843,863,883,903,923,944,963,984,1003,1024,1043,1064,1084,1103,1124,1143,1163,1183,1203,1223,1243,1264,1283,1304,1324,1344,1364,1383,1403],"xSR":741.5,"ySR":573.95,"xT1":424.9,"yT1":0,"xT2":1058.1,"yT2":0,"toosoon":0,"cond_shown":"equaldotsize","ratio_trial":900,"smaller_num":"18","larger_num":"20","correct_side":2,"subjID":"julianaMoraMora","gender":"1","age":"8","school":"4"},{"start_time":1552069490589,"click_time":1552069491768,"finger_time":1552069491407,"fix_duration":498.935690881423,"trial":22,"RT":818,"MT":361,"sideResp":1,"stimulus":"img/500/randomdotsizeEA/R/3_Ratio_500_L_10_R_20.png","xmouse":[794,794,794,793,785,779,777,777,777,777,777,777,777,777,777,777,777,777,777,777,777,777,777,777,777,777,777,777,777,777,777,777,777,777,777,777,777,777,776,770,762,752,740,728,710,709,700,689,673,644,630,617,605,589,571,562,554,544,533,514],"ymouse":[609,609,609,609,604,602,602,602,602,602,602,602,602,602,602,602,602,602,602,602,602,602,602,602,602,602,602,602,602,602,602,602,602,602,602,602,602,602,600,590,580,568,554,536,514,514,511,506,496,473,460,445,423,377,295,250,208,170,136,96],"timestamp_mouse":[1,24,40,58,78,98,118,138,158,179,199,218,238,258,278,299,318,338,358,378,398,418,438,458,478,498,518,538,558,578,599,618,638,659,678,698,718,738,758,778,798,818,838,859,878,898,918,938,958,978,999,1018,1038,1059,1078,1097,1119,1138,1159,1179],"xSR":741.5,"ySR":573.95,"xT1":424.9,"yT1":0,"xT2":1058.1,"yT2":0,"toosoon":0,"cond_shown":"randomdotsizeEA","ratio_trial":500,"smaller_num":"10","larger_num":"20","correct_side":2,"subjID":"julianaMoraMora","gender":"1","age":"8","school":"4"},{"start_time":1552069495275,"click_time":1552069496787,"finger_time":1552069496088,"fix_duration":466.0810694746007,"trial":23,"RT":813,"MT":699,"sideResp":2,"stimulus":"img/750/equaldotanddens/R/11_Ratio_750_L_12_R_16.png","xmouse":[757,757,757,757,757,757,757,757,757,757,757,757,757,757,757,757,757,757,757,757,757,757,757,757,757,757,757,757,757,757,757,757,757,757,757,757,757,760,763,784,795,805,813,825,837,882,896,901,901,902,906,906,908,909,910,913,929,943,956,961,973,981,990,1000,1017,1079,1100,1118,1130,1137,1140,1141,1142,1143,1146,1151],"ymouse":[639,639,639,639,639,639,639,639,639,639,639,639,639,639,639,639,639,639,639,639,639,639,639,639,639,639,639,639,639,639,639,639,639,639,639,639,639,636,630,593,571,551,531,504,473,394,371,360,360,359,353,352,350,347,345,339,316,296,271,251,213,202,189,179,173,154,146,136,129,124,118,117,115,111,107,90],"timestamp_mouse":[13,40,52,73,92,113,133,152,172,192,212,233,252,272,292,312,332,352,373,393,412,432,452,472,492,512,532,552,572,592,613,632,652,672,692,712,732,752,773,793,813,832,852,872,892,913,932,953,972,993,1012,1032,1052,1072,1092,1112,1132,1152,1173,1192,1212,1233,1252,1272,1292,1313,1333,1352,1372,1392,1412,1432,1452,1473,1492,1512],"xSR":741.5,"ySR":573.95,"xT1":424.9,"yT1":0,"xT2":1058.1,"yT2":0,"toosoon":0,"cond_shown":"equaldotanddens","ratio_trial":750,"smaller_num":"12","larger_num":"16","correct_side":2,"subjID":"julianaMoraMora","gender":"1","age":"8","school":"4"},{"start_time":1552069498320,"click_time":1552069505468,"finger_time":1552069501467,"fix_duration":250,"trial":24,"RT":3147,"MT":4001,"sideResp":1,"stimulus":"img/900/equaldotanddens/R/13_Ratio_900_L_18_R_20.png","xmouse":[783,783,783,781,780,780,778,777,777,777,777,777,777,776,775,775,775,774,774,774,774,774,774,774,774,774,774,774,774,774,774,774,774,773,773,773,773,773,773,773,773,773,773,773,773,773,773,773,773,773,773,773,773,773,773,773,773,773,773,773,773,773,773,773,773,773,773,773,773,773,773,773,773,773,773,773,773,773,773,773,773,773,773,773,773,773,773,773,773,773,773,773,773,773,773,773,773,773,773,773,773,773,773,773,773,773,773,773,773,773,773,773,773,773,773,773,773,773,773,773,773,773,773,773,773,773,773,773,773,773,773,773,773,773,773,773,773,773,773,773,773,773,773,773,773,773,773,773,773,773,773,773,773,773,773,770,767,763,758,756,748,738,728,717,706,700,696,686,674,643,634,624,617,612,600,590,581,574,567,551,545,542,540,540,540,540,540,541,555,587,602,609,615,623,629,635,640,645,650,669,676,683,687,688,689,691,696,699,708,715,721,729,739,748,765,778,792,799,803,806,806,807,808,812,823,830,835,840,845,861,866,870,873,878,888,888,890,894,899,903,904,904,905,907,913,916,921,926,932,947,949,949,949,950,968,983,999,1008,1013,1016,1016,1018,1023,1028,1034,1036,1037,1039,1047,1054,1059,1063,1068,1072,1079,1084,1091,1101,1104,1106,1107,1107,1107,1107,1111,1114,1114,1114,1114,1114,1114,1114,1115,1115,1121,1123,1124,1124,1124,1130,1134,1137,1139,1139,1139,1140,1141,1143,1148,1156,1158,1160,1160,1160,1160,1160,1160,1161,1161,1161,1161,1162,1162,1163,1165,1165,1165,1166,1167,1176,1181,1183,1185,1185,1185,1185,1185,1185,1185,1185,1185,1185,1185,1185,1180,1118,1056,1020,977,793,698,672,660,654,628,596,541,500],"ymouse":[647,643,637,630,625,620,615,612,612,612,612,612,612,612,612,612,612,612,612,612,612,612,612,612,612,612,612,612,612,612,612,612,612,612,612,612,612,612,612,612,612,612,612,612,612,612,612,612,612,612,612,612,612,612,612,612,612,612,612,612,612,612,612,612,612,612,612,612,612,612,612,612,612,612,612,612,612,612,612,612,612,612,612,612,612,612,612,612,612,612,612,612,612,612,612,612,612,612,612,612,612,612,612,612,612,612,612,612,612,612,612,612,612,612,612,612,612,612,612,612,612,612,612,612,612,612,612,612,612,612,612,612,612,612,612,612,612,612,612,612,612,612,612,612,612,612,612,612,612,612,612,612,612,612,606,593,582,566,546,539,517,495,472,443,418,404,400,378,357,312,301,295,290,286,276,264,250,233,213,165,151,143,141,141,141,141,141,141,146,161,170,174,175,177,178,178,179,182,183,191,193,195,196,196,196,196,196,196,196,196,196,196,196,196,196,196,196,196,196,196,196,196,196,196,195,194,193,192,192,190,188,188,187,185,183,183,183,183,183,182,182,182,182,182,181,180,180,180,178,177,177,177,177,176,175,175,175,175,175,175,175,175,175,175,175,175,175,175,175,175,175,175,175,175,174,174,174,174,174,174,174,174,174,174,174,174,174,174,174,174,174,174,174,174,174,175,175,175,175,176,176,176,176,176,176,176,176,177,178,179,179,179,179,179,179,179,179,179,179,179,179,180,180,180,180,180,180,180,180,181,182,182,182,182,182,182,182,182,182,182,182,182,182,182,182,174,167,162,158,128,115,111,110,109,109,104,96,91],"timestamp_mouse":[7,27,47,67,88,107,127,147,167,187,207,227,247,267,287,307,328,347,367,387,407,427,447,468,487,507,528,547,567,587,607,628,647,667,687,707,727,747,767,787,807,827,847,867,887,907,927,947,968,987,1007,1027,1047,1067,1088,1108,1128,1147,1167,1187,1207,1228,1247,1268,1287,1307,1327,1347,1367,1388,1407,1428,1447,1469,1488,1507,1527,1548,1568,1587,1607,1627,1647,1668,1687,1707,1727,1747,1767,1787,1808,1827,1847,1867,1887,1908,1927,1948,1968,1988,2007,2027,2047,2068,2089,2107,2127,2147,2167,2187,2207,2228,2247,2267,2288,2307,2327,2347,2368,2388,2407,2427,2447,2467,2488,2508,2527,2547,2567,2588,2608,2627,2647,2667,2688,2707,2727,2748,2768,2787,2808,2827,2847,2867,2887,2907,2927,2947,2967,2987,3007,3028,3047,3067,3088,3108,3128,3147,3167,3187,3208,3227,3247,3267,3288,3308,3328,3347,3367,3387,3408,3427,3448,3467,3487,3508,3527,3547,3569,3587,3607,3627,3647,3668,3687,3707,3727,3747,3767,3788,3808,3828,3848,3868,3887,3908,3927,3948,3967,3987,4007,4027,4049,4068,4087,4107,4128,4147,4168,4187,4207,4227,4247,4267,4287,4308,4327,4347,4368,4389,4407,4427,4447,4468,4488,4507,4527,4547,4567,4587,4607,4627,4648,4667,4688,4707,4727,4748,4767,4788,4807,4827,4847,4867,4887,4907,4927,4947,4968,4988,5008,5027,5047,5067,5088,5107,5127,5147,5167,5187,5207,5228,5248,5267,5287,5307,5327,5347,5369,5387,5407,5427,5447,5467,5488,5507,5527,5548,5568,5588,5609,5627,5647,5668,5688,5708,5728,5747,5768,5787,5808,5827,5847,5868,5887,5907,5927,5947,5967,5988,6008,6027,6048,6068,6087,6107,6127,6148,6167,6187,6207,6227,6247,6269,6287,6308,6328,6347,6367,6387,6408,6427,6448,6467,6487,6507,6527,6547,6568,6591,6608,6627,6647,6667,6687,6708,6727,6747,6767,6787,6807,6827,6848,6868,6887,6907,6927,6947,6967,6988,7008,7027,7047,7067,7087,7108,7128,7147],"xSR":741.5,"ySR":573.95,"xT1":424.9,"yT1":0,"xT2":1058.1,"yT2":0,"toosoon":0,"cond_shown":"equaldotanddens","ratio_trial":900,"smaller_num":"18","larger_num":"20","correct_side":2,"subjID":"julianaMoraMora","gender":"1","age":"8","school":"4"},{"start_time":1552069510668,"click_time":1552069511468,"finger_time":1552069511367,"fix_duration":1198.587594168071,"trial":25,"RT":699,"MT":101,"sideResp":2,"stimulus":"img/900/equaldotanddens/L/10_Ratio_900_L_20_R_18.png","xmouse":[785,785,785,785,785,785,785,785,785,785,785,785,785,785,785,785,785,785,785,785,785,785,785,785,785,785,785,785,785,785,785,785,787,801,817,836,864,962,1002,1041,1090],"ymouse":[616,616,616,616,616,616,616,616,616,616,616,616,616,616,616,616,616,616,616,616,616,616,616,616,616,616,616,616,616,616,616,616,615,599,577,546,494,315,245,160,50],"timestamp_mouse":[9,20,40,72,79,99,120,140,161,179,200,220,239,259,280,299,321,340,360,380,400,420,439,459,480,500,519,540,560,580,600,619,640,661,680,699,719,740,759,781,799],"xSR":741.5,"ySR":573.95,"xT1":424.9,"yT1":0,"xT2":1058.1,"yT2":0,"toosoon":0,"cond_shown":"equaldotanddens","ratio_trial":900,"smaller_num":"18","larger_num":"20","correct_side":1,"subjID":"julianaMoraMora","gender":"1","age":"8","school":"4"},{"start_time":1552069513009,"click_time":1552069525149,"finger_time":1552069513988,"fix_duration":259.82125430474923,"trial":26,"RT":979,"MT":11161,"sideResp":2,"stimulus":"img/900/randomdotsizeEA/L/8_Ratio_900_L_20_R_18.png","xmouse":[758,758,758,758,758,758,758,758,758,758,758,758,758,758,758,758,758,758,758,758,758,758,758,758,758,758,758,758,758,758,758,758,758,758,758,758,758,758,758,758,758,758,758,758,758,758,758,758,758,756,756,750,747,741,734,724,709,703,698,691,690,680,676,674,674,674,674,674,674,674,674,674,674,674,674,678,704,715,724,732,747,779,797,814,828,841,865,876,889,909,921,936,942,952,961,971,989,1000,1005,1023,1029,1047,1055,1060,1065,1068,1076,1081,1086,1089,1093,1095,1096,1096,1097,1100,1103,1105,1106,1107,1107,1107,1107,1107,1107,1100,1078,1053,1027,1007,970,887,849,811,770,718,691,668,652,624,607,591,577,573,571,570,561,555,547,545,537,531,525,523,523,523,519,517,514,512,511,507,505,504,503,503,502,499,496,492,492,492,492,492,492,492,492,492,492,492,492,492,492,492,492,495,522,536,549,587,610,638,648,654,663,674,703,723,749,778,796,811,836,858,887,913,961,974,974,976,976,979,985,995,1009,1027,1041,1046,1046,1048,1051,1076,1085,1087,1089,1089,1089,1082,1064,1011,970,929,907,883,864,844,824,786,756,739,717,703,673,659,642,624,605,588,562,547,530,520,504,496,489,485,485,485,493,516,545,571,620,639,651,687,720,774,793,795,797,797,801,815,842,872,892,915,926,942,964,1015,1038,1058,1069,1072,1072,1072,1072,1069,1065,1047,968,892,807,733,628,422,337,293,241,199,163,155,152,149,142,137,137,137,137,148,155,177,185,187,197,236,258,283,310,332,380,386,397,451,574,657,689,701,705,707,714,727,749,775,804,859,884,909,930,948,973,998,1028,1066,1096,1100,1100,1100,1100,1100,1086,1078,1069,1057,1025,963,911,868,861,839,814,804,794,778,749,736,736,736,732,715,679,668,663,652,636,603,595,588,586,584,584,584,586,604,642,727,793,869,975,1102,1324,1417,1471,1474,1478,1490,1493,1493,1493,1493,1493,1493,1493,1485,1409,1323,1241,1163,1079,997,877,852,832,814,785,773,762,748,737,716,701,685,673,660,647,634,627,622,617,609,598,595,592,591,591,591,599,630,655,672,710,716,731,783,784,889,951,993,1047,1110,1121,1126,1128,1131,1136,1139,1139,1139,1138,1127,1040,970,934,757,688,419,366,301,279,230,183,180,180,179,179,179,179,179,179,179,179,197,269,363,444,728,845,983,1088,1166,1226,1229,1229,1229,1229,1229,1229,1228,1167,757,0,0,0,0,0,0,0,0,0,0,0,0,0,0,0,0,0,0,0,0,0,0,0,0,0,0,0,0,0,0,0,0,0,0,0,1483,1483,1483,1483,1483,1483,1483,1483,1483,1483,1483,1483,1483,1483,1483,1483,1483,1483,1483,1483,1483,1483,1483,1483,1483,1483,1483,1483,1483,1483,1483,1483,1483,1483,1483,1483,1483,1483,1483,1577,1549,1463,1430,1405,1389,1379,1374,1373,1368,1366,1360,1353,1349,1343,1342,1341,1337,1329,1315,1295,1271,1239,1229,1219,1212,1198,1191,1188,1181,1176,1157],"ymouse":[634,634,634,634,634,634,634,634,634,634,634,634,634,634,634,634,634,634,634,634,634,634,634,634,634,634,634,634,634,634,634,634,634,634,634,634,634,634,634,634,634,629,626,620,614,605,591,583,575,565,557,536,523,510,497,482,455,444,435,426,423,411,407,406,406,406,406,406,406,406,406,406,406,406,406,404,397,394,391,388,383,366,356,346,335,326,309,303,296,285,280,274,271,269,266,264,258,253,252,247,244,238,234,232,230,230,227,226,225,224,223,222,222,222,222,222,222,222,222,222,222,222,222,222,222,221,218,214,211,208,203,191,189,189,189,189,189,189,189,187,187,187,187,187,187,187,187,187,187,187,187,187,187,187,187,187,187,187,187,187,187,188,188,188,188,188,189,189,190,190,190,190,190,190,190,190,190,190,190,190,190,190,190,190,190,190,191,191,191,187,184,182,182,182,182,182,183,183,183,179,175,175,175,175,175,175,175,174,174,174,174,174,174,174,174,174,174,173,173,173,173,173,173,173,172,172,172,172,172,172,172,175,179,183,186,189,191,198,204,211,217,218,223,225,227,230,232,233,234,234,234,234,233,233,233,233,233,233,233,233,233,233,233,231,229,222,218,211,211,211,211,211,211,213,218,225,228,231,233,235,238,245,248,252,253,253,253,253,253,254,255,255,255,255,255,251,241,210,195,188,181,174,173,173,173,173,174,175,175,175,175,177,178,181,182,182,184,194,204,215,226,235,244,244,244,237,219,207,202,201,201,200,200,201,202,202,202,202,202,202,202,202,203,207,212,222,230,233,233,233,233,233,233,233,233,234,234,238,247,257,258,265,276,278,281,284,288,290,290,290,291,293,298,299,299,299,299,299,299,300,300,300,300,300,300,294,285,270,259,249,231,213,183,177,177,177,177,178,179,179,179,179,179,179,180,181,183,183,183,183,183,183,185,190,192,195,199,202,204,205,207,212,215,219,222,225,227,229,230,232,233,235,240,242,243,243,243,243,243,239,235,230,218,216,213,206,206,194,189,186,181,173,173,173,173,173,173,173,173,173,173,173,187,195,200,227,235,272,290,318,333,375,417,420,420,420,420,420,420,420,420,420,420,413,395,374,363,351,357,375,389,405,423,424,424,424,424,424,424,424,408,255,0,0,0,0,0,0,0,0,0,0,0,0,0,0,0,0,0,9,25,53,111,130,147,173,197,329,448,597,772,772,772,772,772,772,772,828,828,828,828,828,828,828,828,828,828,828,828,828,828,828,828,828,828,828,828,828,828,828,828,828,828,828,828,828,828,828,828,828,828,828,828,828,828,828,28,16,0,0,0,0,0,4,6,20,37,75,94,108,120,122,122,122,118,109,94,81,65,61,58,56,54,54,54,55,56,58],"timestamp_mouse":[1,19,38,63,78,100,119,139,159,178,199,219,239,259,278,299,319,339,359,379,398,418,439,460,479,499,518,539,558,579,600,619,639,659,679,699,719,739,759,779,800,819,839,858,879,898,918,939,958,979,1000,1019,1039,1059,1080,1099,1118,1139,1158,1179,1200,1219,1240,1258,1278,1299,1319,1339,1358,1378,1399,1419,1438,1459,1478,1499,1519,1538,1559,1580,1599,1619,1638,1659,1679,1698,1720,1740,1759,1779,1798,1818,1838,1859,1880,1899,1918,1940,1960,1980,1998,2019,2038,2060,2079,2099,2119,2138,2160,2178,2198,2219,2239,2259,2280,2298,2318,2338,2359,2378,2398,2418,2439,2459,2479,2499,2518,2538,2559,2578,2598,2618,2638,2659,2680,2698,2718,2738,2760,2779,2799,2819,2839,2858,2878,2900,2918,2940,2958,2978,2998,3019,3039,3059,3079,3099,3119,3140,3158,3180,3200,3219,3238,3259,3280,3299,3319,3338,3360,3380,3399,3420,3438,3458,3480,3499,3519,3539,3558,3578,3599,3619,3639,3659,3678,3699,3719,3738,3760,3779,3800,3819,3838,3859,3880,3899,3919,3940,3960,3979,3999,4018,4039,4058,4079,4098,4119,4138,4159,4178,4198,4219,4239,4259,4280,4298,4318,4338,4359,4379,4400,4419,4438,4459,4480,4499,4519,4539,4560,4578,4599,4619,4638,4659,4679,4700,4719,4738,4760,4779,4798,4819,4839,4859,4880,4899,4919,4938,4958,4979,5000,5019,5040,5059,5080,5100,5119,5139,5160,5180,5198,5218,5238,5259,5280,5298,5319,5339,5360,5379,5398,5418,5438,5459,5478,5498,5519,5539,5559,5578,5599,5620,5639,5659,5678,5698,5720,5739,5759,5779,5798,5819,5840,5859,5879,5899,5920,5939,5960,5979,6000,6018,6038,6059,6080,6098,6118,6138,6160,6178,6198,6219,6238,6258,6278,6299,6319,6338,6359,6378,6399,6419,6439,6459,6478,6499,6519,6538,6560,6578,6600,6620,6639,6658,6678,6698,6719,6739,6759,6779,6800,6819,6840,6859,6878,6898,6919,6940,6960,6979,7000,7018,7038,7058,7078,7098,7118,7138,7158,7179,7199,7218,7238,7258,7279,7299,7318,7338,7359,7380,7400,7419,7440,7459,7480,7499,7520,7539,7560,7578,7598,7619,7639,7659,7679,7699,7719,7738,7759,7779,7799,7819,7840,7859,7880,7899,7920,7938,7959,7979,7999,8019,8039,8059,8080,8098,8121,8138,8158,8178,8199,8219,8240,8259,8279,8299,8320,8338,8359,8378,8400,8420,8438,8459,8480,8499,8520,8539,8559,8578,8599,8620,8638,8658,8678,8698,8719,8739,8758,8778,8798,8819,8839,8859,8879,8898,8919,8939,8959,8980,9000,9020,9038,9059,9078,9099,9119,9139,9158,9179,9198,9218,9238,9259,9278,9298,9320,9339,9359,9379,9400,9419,9440,9459,9479,9499,9519,9540,9559,9580,9599,9619,9639,9660,9679,9699,9718,9738,9759,9778,9798,9818,9838,9858,9879,9899,9919,9938,9959,9979,10000,10019,10039,10058,10078,10099,10119,10138,10158,10178,10199,10218,10240,10259,10278,10299,10318,10339,10359,10378,10399,10420,10439,10459,10480,10500,10519,10539,10558,10579,10600,10620,10640,10659,10678,10699,10720,10741,10760,10778,10798,10820,10838,10859,10878,10898,10919,10940,10960,10979,10998,11019,11039,11059,11078,11099,11119,11140,11158,11179,11199,11219,11239,11258,11280,11299,11319,11340,11360,11379,11399,11419,11440,11459,11480,11499,11518,11538,11559,11580,11599,11618,11639,11659,11679,11699,11719,11740,11759,