[{"start_time":1552068673994,"click_time":1552068675923,"finger_time":1552068675501,"fix_duration":388.31771496709246,"trial":0,"RT":1507,"MT":422,"sideResp":1,"stimulus":[],"xmouse":[797,797,797,797,797,797,797,797,797,797,797,797,797,797,797,797,797,797,797,797,797,797,797,797,797,797,797,797,797,797,797,797,797,797,797,797,797,797,797,797,797,797,797,797,797,797,797,797,797,797,797,797,797,797,797,797,797,797,797,797,797,797,797,797,797,797,797,797,797,797,796,784,770,752,738,716,704,694,678,668,654,650,647,643,637,630,611,604,595,586,571,562,554,548,539,524],"ymouse":[548,548,548,548,548,548,548,548,548,548,548,548,548,548,548,548,548,548,548,548,548,548,548,548,548,548,548,548,548,548,548,548,548,548,548,548,548,548,548,548,548,548,548,548,548,548,548,548,548,548,548,548,548,548,548,548,548,548,548,548,548,548,548,548,548,548,548,548,548,548,548,532,517,496,475,431,402,377,340,318,287,278,271,266,257,244,187,164,145,130,114,110,106,102,98,91],"timestamp_mouse":[10,51,67,87,107,127,147,166,187,206,228,247,267,288,307,326,347,367,387,406,426,447,467,487,507,527,547,567,587,606,627,648,668,686,706,727,748,767,787,807,827,846,867,887,907,926,946,968,987,1007,1027,1047,1067,1087,1107,1126,1147,1167,1187,1207,1226,1247,1267,1287,1307,1327,1347,1367,1387,1407,1427,1447,1468,1488,1506,1528,1546,1567,1587,1607,1627,1647,1666,1686,1706,1728,1747,1766,1787,1807,1828,1847,1867,1887,1907,1928],"xSR":741.5,"ySR":501.8,"xT1":424.9,"yT1":0,"xT2":1058.1,"yT2":0,"toosoon":0,"cond_shown":"Incongruent","ratio_trial":200,"L_num":14,"L_den":30,"R_num":6,"R_den":9,"correct_side":2,"subjID":"JulianaMoraMOra4","gender":"1","age":"8","school":"4","test":{"fix_dur":[250,1500],"timestim":1000,"targets_dim":[100,100],"targets_relative_coord":[0.3,0.7],"size_stim":[880,420],"start_dim":[100,100],"size_start":[300,300],"size_fix":60,"samplingrate":20,"img_types":["Congruent","Incongruent"],"ratios":[100,200,300],"rep_conds":19,"nTrials":120,"trials_to_rest":500,"Trials_order":[21,71,46,26,44,31,86,63,82,18,87,15,99,9,30,28,37,54,34,12,76,117,101,67,0,97,48,45,42,96,56,95,80,24,49,59,85,20,55,91,119,2,104,47,90,19,1,60,75,98,66,6,39,111,116,115,74,3,102,40,35,5,108,73,32,84,113,65,38,8,16,107,33,69,25,23,62,112,58,50,100,70,4,106,51,43,27,92,14,89,83,10,41,78,103,93,77,68,110,29,7,13,64,114,61,22,109,88,52,79,53,36,11,94,105,17,72,57,118,81],"cond_shown":["Incongruent","Incongruent","Congruent","Congruent","Congruent","Incongruent","Congruent","Incongruent","Congruent","Congruent","Incongruent","Incongruent","Incongruent","Incongruent","Congruent","Congruent","Incongruent","Congruent","Congruent","Congruent","Congruent","Incongruent","Incongruent","Incongruent","Congruent","Incongruent","Congruent","Incongruent","Congruent","Congruent","Congruent","Incongruent","Congruent","Congruent","Incongruent","Incongruent","Incongruent","Congruent","Incongruent","Incongruent","Incongruent","Congruent","Congruent","Incongruent","Congruent","Incongruent","Incongruent","Congruent","Incongruent","Congruent","Congruent","Congruent","Incongruent","Incongruent","Congruent","Incongruent","Congruent","Incongruent","Congruent","Congruent","Incongruent","Incongruent","Congruent","Incongruent","Congruent","Congruent","Incongruent","Incongruent","Congruent","Congruent","Congruent","Incongruent","Incongruent","Incongruent","Incongruent","Incongruent","Congruent","Congruent","Congruent","Congruent","Congruent","Congruent","Congruent","Congruent","Incongruent","Incongruent","Incongruent","Congruent","Congruent","Incongruent","Incongruent","Congruent","Incongruent","Congruent","Incongruent","Incongruent","Incongruent","Congruent","Congruent","Incongruent","Incongruent","Incongruent","Congruent","Congruent","Incongruent","Congruent","Incongruent","Congruent","Congruent","Incongruent","Incongruent","Congruent","Incongruent","Congruent","Incongruent","Incongruent","Congruent","Incongruent","Congruent","Incongruent"],"ratio_trial":[200,300,300,200,200,100,200,200,300,100,200,200,200,200,100,300,100,100,300,100,300,200,300,100,100,100,100,200,100,100,200,300,200,100,100,300,100,200,100,100,300,200,200,300,100,100,100,100,200,200,100,100,200,200,200,100,200,200,100,300,300,300,100,100,200,100,300,300,200,200,300,300,200,200,100,300,200,300,300,200,300,300,300,300,200,100,200,200,200,300,300,300,300,100,100,200,300,200,200,300,100,100,300,100,100,300,100,300,300,100,300,100,300,300,200,300,100,200,300,200],"left_num":[14,4,11,7,7,8,5,1,24,12,3,14,7,7,10,11,3,8,1,15,4,3,13,4,2,9,3,4,2,4,5,7,3,3,4,13,3,13,9,1,4,20,8,13,6,13,12,2,6,5,15,11,1,1,15,12,9,7,6,1,4,13,9,4,21,15,4,13,8,1,3,1,7,7,9,7,3,3,2,8,20,20,8,1,1,9,1,8,9,1,1,11,4,11,3,3,8,12,9,13,3,17,1,10,12,9,6,12,20,6,4,2,13,11,7,13,2,9,1,1],"right_num":[6,2,1,18,18,1,14,2,2,13,11,6,4,14,3,2,7,2,7,13,13,11,12,8,11,13,2,6,6,15,14,8,14,2,8,12,11,14,14,8,2,9,7,12,5,12,2,11,3,14,13,6,2,2,4,2,13,8,15,3,2,12,8,8,2,13,2,12,7,21,4,3,14,8,20,8,11,11,10,3,9,5,1,6,3,13,3,2,4,2,2,2,8,6,11,1,9,6,13,12,8,10,7,3,9,3,7,2,8,7,8,11,12,2,8,12,11,8,8,3],"left_den":[30,20,22,15,15,20,10,3,30,30,4,30,15,10,25,22,9,16,20,25,20,4,26,8,5,15,6,5,5,10,10,10,10,6,8,26,5,26,15,2,20,25,15,26,20,26,30,5,20,10,25,22,3,3,25,30,30,10,12,5,20,26,15,8,30,25,20,26,15,2,6,2,10,10,10,10,10,12,20,15,25,25,16,5,2,15,2,15,20,2,2,22,5,22,5,10,10,20,30,26,5,30,20,25,24,10,10,24,25,10,5,5,26,22,10,26,5,15,30,2],"right_den":[9,4,5,27,27,2,20,15,4,26,20,9,6,28,10,10,30,5,20,26,26,20,15,20,22,26,5,10,12,30,20,20,28,5,20,15,22,20,28,20,4,15,21,15,25,20,4,22,6,20,26,15,15,15,10,4,26,16,25,6,4,15,16,20,4,26,4,15,21,30,5,15,28,16,25,20,22,20,25,9,18,10,5,12,10,26,10,6,16,10,10,10,16,15,22,2,18,15,26,15,16,15,20,10,15,5,14,10,16,14,16,22,15,10,16,15,22,10,24,10],"correct_side":[2,2,1,2,2,2,2,1,1,2,1,2,2,1,1,1,1,1,2,1,2,1,2,1,2,1,1,1,2,2,2,1,2,1,1,2,1,2,1,1,2,1,1,2,1,2,2,2,2,2,1,1,1,1,1,2,2,1,2,2,2,2,1,1,1,1,2,2,1,2,2,1,1,1,1,1,2,2,2,1,1,1,1,2,1,1,1,1,1,1,1,1,1,1,1,2,1,1,2,2,1,2,2,1,2,1,1,1,1,1,1,2,2,1,1,2,2,2,2,1],"img_shown":["img2/200/Incongruent/R/I_Dist_200_LN_14_LD_30_RN_6_RD_9_1.png","img2/300/Incongruent/R/I_Dist_300_LN_4_LD_20_RN_2_RD_4_1.png","img2/300/Congruent/L/C_Dist_300_LN_11_LD_22_RN_1_RD_5_0.png","img2/200/Congruent/R/C_Dist_200_LN_7_LD_15_RN_18_RD_27_1.png","img2/200/Congruent/R/C_Dist_200_LN_7_LD_15_RN_18_RD_27_1.png","img2/100/Incongruent/R/I_Dist_100_LN_8_LD_20_RN_1_RD_2_1.png","img2/200/Congruent/R/C_Dist_200_LN_5_LD_10_RN_14_RD_20_1.png","img2/200/Incongruent/L/I_Dist_200_LN_1_LD_3_RN_2_RD_15_0.png","img2/300/Congruent/L/C_Dist_300_LN_24_LD_30_RN_2_RD_4_0.png","img2/100/Congruent/R/C_Dist_100_LN_12_LD_30_RN_13_RD_26_1.png","img2/200/Incongruent/L/I_Dist_200_LN_3_LD_4_RN_11_RD_20_0.png","img2/200/Incongruent/R/I_Dist_200_LN_14_LD_30_RN_6_RD_9_1.png","img2/200/Incongruent/R/I_Dist_200_LN_7_LD_15_RN_4_RD_6_1.png","img2/200/Incongruent/L/I_Dist_200_LN_7_LD_10_RN_14_RD_28_0.png","img2/100/Congruent/L/C_Dist_100_LN_10_LD_25_RN_3_RD_10_0.png","img2/300/Congruent/L/C_Dist_300_LN_11_LD_22_RN_2_RD_10_0.png","img2/100/Incongruent/L/I_Dist_100_LN_3_LD_9_RN_7_RD_30_0.png","img2/100/Congruent/L/C_Dist_100_LN_8_LD_16_RN_2_RD_5_0.png","img2/300/Congruent/R/C_Dist_300_LN_1_LD_20_RN_7_RD_20_1.png","img2/100/Congruent/L/C_Dist_100_LN_15_LD_25_RN_13_RD_26_0.png","img2/300/Congruent/R/C_Dist_300_LN_4_LD_20_RN_13_RD_26_1.png","img2/200/Incongruent/L/I_Dist_200_LN_3_LD_4_RN_11_RD_20_0.png","img2/300/Incongruent/R/I_Dist_300_LN_13_LD_26_RN_12_RD_15_1.png","img2/100/Incongruent/L/I_Dist_100_LN_4_LD_8_RN_8_RD_20_0.png","img2/100/Congruent/R/C_Dist_100_LN_2_LD_5_RN_11_RD_22_1.png","img2/100/Incongruent/L/I_Dist_100_LN_9_LD_15_RN_13_RD_26_0.png","img2/100/Congruent/L/C_Dist_100_LN_3_LD_6_RN_2_RD_5_0.png","img2/200/Incongruent/L/I_Dist_200_LN_4_LD_5_RN_6_RD_10_0.png","img2/100/Congruent/R/C_Dist_100_LN_2_LD_5_RN_6_RD_12_1.png","img2/100/Congruent/R/C_Dist_100_LN_4_LD_10_RN_15_RD_30_1.png","img2/200/Congruent/R/C_Dist_200_LN_5_LD_10_RN_14_RD_20_1.png","img2/300/Incongruent/L/I_Dist_300_LN_7_LD_10_RN_8_RD_20_0.png","img2/200/Congruent/R/C_Dist_200_LN_3_LD_10_RN_14_RD_28_1.png","img2/100/Congruent/L/C_Dist_100_LN_3_LD_6_RN_2_RD_5_0.png","img2/100/Incongruent/L/I_Dist_100_LN_4_LD_8_RN_8_RD_20_0.png","img2/300/Incongruent/R/I_Dist_300_LN_13_LD_26_RN_12_RD_15_1.png","img2/100/Incongruent/L/I_Dist_100_LN_3_LD_5_RN_11_RD_22_0.png","img2/200/Congruent/R/C_Dist_200_LN_13_LD_26_RN_14_RD_20_1.png","img2/100/Incongruent/L/I_Dist_100_LN_9_LD_15_RN_14_RD_28_0.png","img2/100/Incongruent/L/I_Dist_100_LN_1_LD_2_RN_8_RD_20_0.png","img2/300/Incongruent/R/I_Dist_300_LN_4_LD_20_RN_2_RD_4_1.png","img2/200/Congruent/L/C_Dist_200_LN_20_LD_25_RN_9_RD_15_0.png","img2/200/Congruent/L/C_Dist_200_LN_8_LD_15_RN_7_RD_21_0.png","img2/300/Incongruent/R/I_Dist_300_LN_13_LD_26_RN_12_RD_15_1.png","img2/100/Congruent/L/C_Dist_100_LN_6_LD_20_RN_5_RD_25_0.png","img2/100/Incongruent/R/I_Dist_100_LN_13_LD_26_RN_12_RD_20_1.png","img2/100/Incongruent/R/I_Dist_100_LN_12_LD_30_RN_2_RD_4_1.png","img2/100/Congruent/R/C_Dist_100_LN_2_LD_5_RN_11_RD_22_1.png","img2/200/Incongruent/R/I_Dist_200_LN_6_LD_20_RN_3_RD_6_1.png","img2/200/Congruent/R/C_Dist_200_LN_5_LD_10_RN_14_RD_20_1.png","img2/100/Congruent/L/C_Dist_100_LN_15_LD_25_RN_13_RD_26_0.png","img2/100/Congruent/L/C_Dist_100_LN_11_LD_22_RN_6_RD_15_0.png","img2/200/Incongruent/L/I_Dist_200_LN_1_LD_3_RN_2_RD_15_0.png","img2/200/Incongruent/L/I_Dist_200_LN_1_LD_3_RN_2_RD_15_0.png","img2/200/Congruent/L/C_Dist_200_LN_15_LD_25_RN_4_RD_10_0.png","img2/100/Incongruent/R/I_Dist_100_LN_12_LD_30_RN_2_RD_4_1.png","img2/200/Congruent/R/C_Dist_200_LN_9_LD_30_RN_13_RD_26_1.png","img2/200/Incongruent/L/I_Dist_200_LN_7_LD_10_RN_8_RD_16_0.png","img2/100/Congruent/R/C_Dist_100_LN_6_LD_12_RN_15_RD_25_1.png","img2/300/Congruent/R/C_Dist_300_LN_1_LD_5_RN_3_RD_6_1.png","img2/300/Incongruent/R/I_Dist_300_LN_4_LD_20_RN_2_RD_4_1.png","img2/300/Incongruent/R/I_Dist_300_LN_13_LD_26_RN_12_RD_15_1.png","img2/100/Congruent/L/C_Dist_100_LN_9_LD_15_RN_8_RD_16_0.png","img2/100/Incongruent/L/I_Dist_100_LN_4_LD_8_RN_8_RD_20_0.png","img2/200/Congruent/L/C_Dist_200_LN_21_LD_30_RN_2_RD_4_0.png","img2/100/Congruent/L/C_Dist_100_LN_15_LD_25_RN_13_RD_26_0.png","img2/300/Incongruent/R/I_Dist_300_LN_4_LD_20_RN_2_RD_4_1.png","img2/300/Incongruent/R/I_Dist_300_LN_13_LD_26_RN_12_RD_15_1.png","img2/200/Congruent/L/C_Dist_200_LN_8_LD_15_RN_7_RD_21_0.png","img2/200/Congruent/R/C_Dist_200_LN_1_LD_2_RN_21_RD_30_1.png","img2/300/Congruent/R/C_Dist_300_LN_3_LD_6_RN_4_RD_5_1.png","img2/300/Incongruent/L/I_Dist_300_LN_1_LD_2_RN_3_RD_15_0.png","img2/200/Incongruent/L/I_Dist_200_LN_7_LD_10_RN_14_RD_28_0.png","img2/200/Incongruent/L/I_Dist_200_LN_7_LD_10_RN_8_RD_16_0.png","img2/100/Incongruent/L/I_Dist_100_LN_9_LD_10_RN_20_RD_25_0.png","img2/300/Incongruent/L/I_Dist_300_LN_7_LD_10_RN_8_RD_20_0.png","img2/200/Congruent/R/C_Dist_200_LN_3_LD_10_RN_11_RD_22_1.png","img2/300/Congruent/R/C_Dist_300_LN_3_LD_12_RN_11_RD_20_1.png","img2/300/Congruent/R/C_Dist_300_LN_2_LD_20_RN_10_RD_25_1.png","img2/200/Congruent/L/C_Dist_200_LN_8_LD_15_RN_3_RD_9_0.png","img2/300/Congruent/L/C_Dist_300_LN_20_LD_25_RN_9_RD_18_0.png","img2/300/Congruent/L/C_Dist_300_LN_20_LD_25_RN_5_RD_10_0.png","img2/300/Congruent/L/C_Dist_300_LN_8_LD_16_RN_1_RD_5_0.png","img2/300/Congruent/R/C_Dist_300_LN_1_LD_5_RN_6_RD_12_1.png","img2/200/Incongruent/L/I_Dist_200_LN_1_LD_2_RN_3_RD_10_0.png","img2/100/Incongruent/L/I_Dist_100_LN_9_LD_15_RN_13_RD_26_0.png","img2/200/Incongruent/L/I_Dist_200_LN_1_LD_2_RN_3_RD_10_0.png","img2/200/Congruent/L/C_Dist_200_LN_8_LD_15_RN_2_RD_6_0.png","img2/200/Congruent/L/C_Dist_200_LN_9_LD_20_RN_4_RD_16_0.png","img2/300/Incongruent/L/I_Dist_300_LN_1_LD_2_RN_2_RD_10_0.png","img2/300/Incongruent/L/I_Dist_300_LN_1_LD_2_RN_2_RD_10_0.png","img2/300/Congruent/L/C_Dist_300_LN_11_LD_22_RN_2_RD_10_0.png","img2/300/Incongruent/L/I_Dist_300_LN_4_LD_5_RN_8_RD_16_0.png","img2/100/Congruent/L/C_Dist_100_LN_11_LD_22_RN_6_RD_15_0.png","img2/100/Incongruent/L/I_Dist_100_LN_3_LD_5_RN_11_RD_22_0.png","img2/200/Incongruent/R/I_Dist_200_LN_3_LD_10_RN_1_RD_2_1.png","img2/300/Incongruent/L/I_Dist_300_LN_8_LD_10_RN_9_RD_18_0.png","img2/200/Congruent/L/C_Dist_200_LN_12_LD_20_RN_6_RD_15_0.png","img2/200/Congruent/R/C_Dist_200_LN_9_LD_30_RN_13_RD_26_1.png","img2/300/Incongruent/R/I_Dist_300_LN_13_LD_26_RN_12_RD_15_1.png","img2/100/Incongruent/L/I_Dist_100_LN_3_LD_5_RN_8_RD_16_0.png","img2/100/Incongruent/R/I_Dist_100_LN_17_LD_30_RN_10_RD_15_1.png","img2/300/Congruent/R/C_Dist_300_LN_1_LD_20_RN_7_RD_20_1.png","img2/100/Congruent/L/C_Dist_100_LN_10_LD_25_RN_3_RD_10_0.png","img2/100/Incongruent/R/I_Dist_100_LN_12_LD_24_RN_9_RD_15_1.png","img2/300/Congruent/L/C_Dist_300_LN_9_LD_10_RN_3_RD_5_0.png","img2/100/Incongruent/L/I_Dist_100_LN_6_LD_10_RN_7_RD_14_0.png","img2/300/Congruent/L/C_Dist_300_LN_12_LD_24_RN_2_RD_10_0.png","img2/300/Congruent/L/C_Dist_300_LN_20_LD_25_RN_8_RD_16_0.png","img2/100/Incongruent/L/I_Dist_100_LN_6_LD_10_RN_7_RD_14_0.png","img2/300/Incongruent/L/I_Dist_300_LN_4_LD_5_RN_8_RD_16_0.png","img2/100/Congruent/R/C_Dist_100_LN_2_LD_5_RN_11_RD_22_1.png","img2/300/Incongruent/R/I_Dist_300_LN_13_LD_26_RN_12_RD_15_1.png","img2/300/Congruent/L/C_Dist_300_LN_11_LD_22_RN_2_RD_10_0.png","img2/200/Incongruent/L/I_Dist_200_LN_7_LD_10_RN_8_RD_16_0.png","img2/300/Incongruent/R/I_Dist_300_LN_13_LD_26_RN_12_RD_15_1.png","img2/100/Congruent/R/C_Dist_100_LN_2_LD_5_RN_11_RD_22_1.png","img2/200/Incongruent/R/I_Dist_200_LN_9_LD_15_RN_8_RD_10_1.png","img2/300/Congruent/R/C_Dist_300_LN_1_LD_30_RN_8_RD_24_1.png","img2/200/Incongruent/L/I_Dist_200_LN_1_LD_2_RN_3_RD_10_0.png"],"dist100_C":[["C_Dist_100_LN_10_LD_25_RN_3_RD_10_0.png","C_Dist_100_LN_11_LD_22_RN_4_RD_10_0.png","C_Dist_100_LN_11_LD_22_RN_6_RD_15_0.png","C_Dist_100_LN_15_LD_25_RN_13_RD_26_0.png","C_Dist_100_LN_3_LD_6_RN_2_RD_5_0.png","C_Dist_100_LN_6_LD_20_RN_5_RD_25_0.png","C_Dist_100_LN_8_LD_16_RN_2_RD_5_0.png","C_Dist_100_LN_9_LD_15_RN_8_RD_16_0.png"],["C_Dist_100_LN_1_LD_2_RN_18_RD_30_1.png","C_Dist_100_LN_1_LD_2_RN_3_RD_5_1.png","C_Dist_100_LN_12_LD_30_RN_13_RD_26_1.png","C_Dist_100_LN_2_LD_5_RN_11_RD_22_1.png","C_Dist_100_LN_2_LD_5_RN_6_RD_12_1.png","C_Dist_100_LN_3_LD_20_RN_4_RD_16_1.png","C_Dist_100_LN_4_LD_10_RN_15_RD_30_1.png","C_Dist_100_LN_4_LD_8_RN_6_RD_10_1.png","C_Dist_100_LN_6_LD_12_RN_15_RD_25_1.png","C_Dist_100_LN_7_LD_14_RN_15_RD_25_1.png","C_Dist_100_LN_7_LD_14_RN_9_RD_15_1.png"]],"dist100_I":[["I_Dist_100_LN_1_LD_2_RN_8_RD_20_0.png","I_Dist_100_LN_2_LD_4_RN_6_RD_15_0.png","I_Dist_100_LN_2_LD_4_RN_8_RD_20_0.png","I_Dist_100_LN_3_LD_5_RN_11_RD_22_0.png","I_Dist_100_LN_3_LD_5_RN_8_RD_16_0.png","I_Dist_100_LN_3_LD_6_RN_4_RD_10_0.png","I_Dist_100_LN_3_LD_9_RN_7_RD_30_0.png","I_Dist_100_LN_4_LD_8_RN_8_RD_20_0.png","I_Dist_100_LN_6_LD_10_RN_11_RD_22_0.png","I_Dist_100_LN_6_LD_10_RN_13_RD_26_0.png","I_Dist_100_LN_6_LD_10_RN_7_RD_14_0.png","I_Dist_100_LN_9_LD_10_RN_20_RD_25_0.png","I_Dist_100_LN_9_LD_15_RN_13_RD_26_0.png","I_Dist_100_LN_9_LD_15_RN_14_RD_28_0.png"],["I_Dist_100_LN_10_LD_25_RN_8_RD_16_1.png","I_Dist_100_LN_10_LD_25_RN_9_RD_18_1.png","I_Dist_100_LN_11_LD_22_RN_9_RD_15_1.png","I_Dist_100_LN_12_LD_24_RN_9_RD_15_1.png","I_Dist_100_LN_12_LD_30_RN_2_RD_4_1.png","I_Dist_100_LN_13_LD_26_RN_12_RD_20_1.png","I_Dist_100_LN_13_LD_26_RN_6_RD_10_1.png","I_Dist_100_LN_17_LD_30_RN_10_RD_15_1.png","I_Dist_100_LN_6_LD_12_RN_3_RD_5_1.png","I_Dist_100_LN_8_LD_16_RN_6_RD_10_1.png","I_Dist_100_LN_8_LD_20_RN_1_RD_2_1.png","I_Dist_100_LN_9_LD_18_RN_6_RD_10_1.png"]],"dist100_S":[["E_Dist_100_LN_2_LD_12_RN_2_RD_30_0.png","E_Dist_100_LN_6_LD_10_RN_6_RD_12_0.png"],["E_Dist_100_LN_6_LD_12_RN_6_RD_10_1.png"]],"dist200_C":[["C_Dist_200_LN_11_LD_22_RN_3_RD_10_0.png","C_Dist_200_LN_12_LD_15_RN_6_RD_10_0.png","C_Dist_200_LN_12_LD_20_RN_6_RD_15_0.png","C_Dist_200_LN_14_LD_28_RN_6_RD_20_0.png","C_Dist_200_LN_15_LD_25_RN_4_RD_10_0.png","C_Dist_200_LN_16_LD_20_RN_12_RD_20_0.png","C_Dist_200_LN_16_LD_30_RN_9_RD_27_0.png","C_Dist_200_LN_20_LD_25_RN_9_RD_15_0.png","C_Dist_200_LN_21_LD_30_RN_2_RD_4_0.png","C_Dist_200_LN_4_LD_10_RN_3_RD_15_0.png","C_Dist_200_LN_4_LD_8_RN_3_RD_10_0.png","C_Dist_200_LN_6_LD_15_RN_3_RD_15_0.png","C_Dist_200_LN_7_LD_21_RN_2_RD_15_0.png","C_Dist_200_LN_8_LD_15_RN_2_RD_6_0.png","C_Dist_200_LN_8_LD_15_RN_3_RD_9_0.png","C_Dist_200_LN_8_LD_15_RN_7_RD_21_0.png","C_Dist_200_LN_9_LD_20_RN_4_RD_16_0.png"],["C_Dist_200_LN_1_LD_2_RN_21_RD_30_1.png","C_Dist_200_LN_13_LD_26_RN_14_RD_20_1.png","C_Dist_200_LN_3_LD_10_RN_11_RD_22_1.png","C_Dist_200_LN_3_LD_10_RN_14_RD_28_1.png","C_Dist_200_LN_3_LD_10_RN_7_RD_14_1.png","C_Dist_200_LN_3_LD_12_RN_9_RD_20_1.png","C_Dist_200_LN_3_LD_6_RN_14_RD_20_1.png","C_Dist_200_LN_5_LD_10_RN_14_RD_20_1.png","C_Dist_200_LN_6_LD_12_RN_7_RD_10_1.png","C_Dist_200_LN_6_LD_20_RN_11_RD_22_1.png","C_Dist_200_LN_7_LD_15_RN_18_RD_27_1.png","C_Dist_200_LN_9_LD_30_RN_13_RD_26_1.png"]],"dist200_I":[["I_Dist_200_LN_1_LD_2_RN_3_RD_10_0.png","I_Dist_200_LN_1_LD_3_RN_2_RD_15_0.png","I_Dist_200_LN_3_LD_4_RN_11_RD_20_0.png","I_Dist_200_LN_4_LD_5_RN_6_RD_10_0.png","I_Dist_200_LN_4_LD_6_RN_14_RD_30_0.png","I_Dist_200_LN_7_LD_10_RN_12_RD_24_0.png","I_Dist_200_LN_7_LD_10_RN_14_RD_28_0.png","I_Dist_200_LN_7_LD_10_RN_8_RD_16_0.png"],["I_Dist_200_LN_11_LD_20_RN_3_RD_4_1.png","I_Dist_200_LN_14_LD_30_RN_12_RD_18_1.png","I_Dist_200_LN_14_LD_30_RN_6_RD_9_1.png","I_Dist_200_LN_3_LD_10_RN_1_RD_2_1.png","I_Dist_200_LN_4_LD_30_RN_1_RD_3_1.png","I_Dist_200_LN_6_LD_20_RN_3_RD_6_1.png","I_Dist_200_LN_7_LD_15_RN_4_RD_6_1.png","I_Dist_200_LN_7_LD_15_RN_6_RD_9_1.png","I_Dist_200_LN_9_LD_15_RN_8_RD_10_1.png"]],"dist200_S":[["E_Dist_200_LN_3_LD_6_RN_3_RD_10_0.png"],["E_Dist_200_LN_3_LD_10_RN_3_RD_6_1.png"]],"dist300_C":[["C_Dist_300_LN_11_LD_22_RN_1_RD_5_0.png","C_Dist_300_LN_11_LD_22_RN_2_RD_10_0.png","C_Dist_300_LN_11_LD_22_RN_4_RD_20_0.png","C_Dist_300_LN_12_LD_24_RN_2_RD_10_0.png","C_Dist_300_LN_18_LD_20_RN_9_RD_15_0.png","C_Dist_300_LN_20_LD_25_RN_13_RD_26_0.png","C_Dist_300_LN_20_LD_25_RN_14_RD_28_0.png","C_Dist_300_LN_20_LD_25_RN_5_RD_10_0.png","C_Dist_300_LN_20_LD_25_RN_8_RD_16_0.png","C_Dist_300_LN_20_LD_25_RN_9_RD_18_0.png","C_Dist_300_LN_24_LD_30_RN_2_RD_4_0.png","C_Dist_300_LN_24_LD_30_RN_8_RD_16_0.png","C_Dist_300_LN_3_LD_6_RN_2_RD_10_0.png","C_Dist_300_LN_4_LD_10_RN_1_RD_10_0.png","C_Dist_300_LN_4_LD_5_RN_2_RD_4_0.png","C_Dist_300_LN_8_LD_16_RN_1_RD_5_0.png","C_Dist_300_LN_9_LD_10_RN_3_RD_5_0.png"],["C_Dist_300_LN_1_LD_20_RN_7_RD_20_1.png","C_Dist_300_LN_1_LD_3_RN_19_RD_30_1.png","C_Dist_300_LN_1_LD_30_RN_8_RD_24_1.png","C_Dist_300_LN_1_LD_5_RN_11_RD_22_1.png","C_Dist_300_LN_1_LD_5_RN_3_RD_6_1.png","C_Dist_300_LN_1_LD_5_RN_6_RD_12_1.png","C_Dist_300_LN_2_LD_10_RN_12_RD_24_1.png","C_Dist_300_LN_2_LD_20_RN_10_RD_25_1.png","C_Dist_300_LN_3_LD_12_RN_11_RD_20_1.png","C_Dist_300_LN_3_LD_6_RN_4_RD_5_1.png","C_Dist_300_LN_4_LD_20_RN_13_RD_26_1.png","C_Dist_300_LN_5_LD_25_RN_6_RD_12_1.png","C_Dist_300_LN_5_LD_25_RN_7_RD_14_1.png","C_Dist_300_LN_7_LD_14_RN_20_RD_25_1.png","C_Dist_300_LN_8_LD_15_RN_10_RD_12_1.png"]],"dist300_I":[["I_Dist_300_LN_1_LD_2_RN_2_RD_10_0.png","I_Dist_300_LN_1_LD_2_RN_3_RD_15_0.png","I_Dist_300_LN_2_LD_4_RN_6_RD_30_0.png","I_Dist_300_LN_3_LD_6_RN_4_RD_20_0.png","I_Dist_300_LN_4_LD_5_RN_6_RD_12_0.png","I_Dist_300_LN_4_LD_5_RN_8_RD_16_0.png","I_Dist_300_LN_7_LD_10_RN_8_RD_20_0.png","I_Dist_300_LN_8_LD_10_RN_14_RD_28_0.png","I_Dist_300_LN_8_LD_10_RN_9_RD_18_0.png"],["I_Dist_300_LN_13_LD_26_RN_12_RD_15_1.png","I_Dist_300_LN_4_LD_20_RN_2_RD_4_1.png"]],"dist300_S":[["E_Dist_300_LN_9_LD_12_RN_9_RD_20_0.png"],["E_Dist_300_LN_18_LD_30_RN_18_RD_20_1.png","E_Dist_300_LN_3_LD_10_RN_3_RD_5_1.png","E_Dist_300_LN_9_LD_20_RN_9_RD_12_1.png"]],"dist500_C":[["C_Dist_500_LN_10_LD_13_RN_7_RD_26_0.png","C_Dist_500_LN_10_LD_15_RN_4_RD_24_0.png","C_Dist_500_LN_12_LD_16_RN_3_RD_12_0.png","C_Dist_500_LN_12_LD_18_RN_4_RD_24_0.png","C_Dist_500_LN_15_LD_18_RN_5_RD_15_0.png","C_Dist_500_LN_15_LD_20_RN_1_RD_4_0.png","C_Dist_500_LN_18_LD_27_RN_1_RD_6_0.png","C_Dist_500_LN_20_LD_24_RN_1_RD_3_0.png","C_Dist_500_LN_20_LD_24_RN_3_RD_9_0.png","C_Dist_500_LN_20_LD_24_RN_7_RD_21_0.png","C_Dist_500_LN_20_LD_28_RN_3_RD_14_0.png","C_Dist_500_LN_21_LD_28_RN_6_RD_24_0.png","C_Dist_500_LN_22_LD_28_RN_2_RD_7_0.png","C_Dist_500_LN_25_LD_30_RN_9_RD_27_0.png","C_Dist_500_LN_4_LD_6_RN_1_RD_6_0.png","C_Dist_500_LN_5_LD_6_RN_2_RD_6_0.png","C_Dist_500_LN_6_LD_9_RN_1_RD_6_0.png","C_Dist_500_LN_7_LD_10_RN_1_RD_5_0.png","C_Dist_500_LN_8_LD_12_RN_1_RD_6_0.png","C_Dist_500_LN_8_LD_12_RN_4_RD_24_0.png"],["C_Dist_500_LN_1_LD_4_RN_12_RD_16_1.png","C_Dist_500_LN_1_LD_4_RN_9_RD_12_1.png","C_Dist_500_LN_1_LD_9_RN_11_RD_18_1.png","C_Dist_500_LN_10_LD_24_RN_22_RD_24_1.png","C_Dist_500_LN_2_LD_12_RN_10_RD_15_1.png","C_Dist_500_LN_2_LD_12_RN_12_RD_18_1.png","C_Dist_500_LN_2_LD_12_RN_4_RD_6_1.png","C_Dist_500_LN_2_LD_24_RN_7_RD_12_1.png","C_Dist_500_LN_2_LD_5_RN_18_RD_20_1.png","C_Dist_500_LN_2_LD_5_RN_9_RD_10_1.png","C_Dist_500_LN_2_LD_8_RN_12_RD_16_1.png","C_Dist_500_LN_2_LD_8_RN_21_RD_28_1.png","C_Dist_500_LN_3_LD_10_RN_4_RD_5_1.png","C_Dist_500_LN_3_LD_12_RN_15_RD_20_1.png","C_Dist_500_LN_3_LD_30_RN_6_RD_10_1.png","C_Dist_500_LN_3_LD_8_RN_14_RD_16_1.png","C_Dist_500_LN_4_LD_16_RN_15_RD_20_1.png","C_Dist_500_LN_4_LD_24_RN_12_RD_18_1.png","C_Dist_500_LN_5_LD_14_RN_6_RD_7_1.png","C_Dist_500_LN_7_LD_21_RN_20_RD_24_1.png","C_Dist_500_LN_7_LD_28_RN_12_RD_16_1.png","C_Dist_500_LN_7_LD_28_RN_9_RD_12_1.png","C_Dist_500_LN_9_LD_27_RN_20_RD_24_1.png"]],"dist500_I":[["I_Dist_500_LN_2_LD_3_RN_4_RD_24_0.png","I_Dist_500_LN_5_LD_6_RN_6_RD_18_0.png","I_Dist_500_LN_7_LD_8_RN_9_RD_24_0.png"],["I_Dist_500_LN_7_LD_21_RN_5_RD_6_1.png"]],"dist500_S":[["E_Dist_500_LN_6_LD_8_RN_6_RD_24_0.png"],["E_Dist_500_LN_2_LD_12_RN_2_RD_3_1.png","E_Dist_500_LN_6_LD_24_RN_6_RD_8_1.png"]]}},{"start_time":1552068678276,"click_time":1552068681842,"finger_time":1552068680720,"fix_duration":613.331110581983,"trial":1,"RT":2444,"MT":1122,"sideResp":2,"stimulus":[],"xmouse":[798,798,798,798,798,798,798,798,798,798,798,798,798,798,798,798,798,798,798,798,798,798,798,798,798,798,798,798,798,798,798,798,798,798,798,798,798,798,798,798,798,798,798,798,798,798,798,798,798,798,798,798,798,798,798,798,798,798,798,798,798,798,798,798,798,798,798,798,798,798,798,798,798,798,798,798,798,798,798,798,798,798,798,798,798,798,799,799,803,806,809,813,815,820,820,821,821,821,821,821,821,821,822,822,822,822,822,822,822,822,822,822,822,817,811,806,803,803,803,802,801,798,792,784,780,774,770,763,757,741,732,717,694,629,617,610,609,609,607,603,598,591,586,582,582,582,582,582,582,582,582,582,582,591,613,644,673,702,756,787,817,847,894,933,936,937,937,937,940,943,948,958,971,1000,1003,1007,1010,1016,1072],"ymouse":[512,512,512,512,512,512,512,512,512,512,512,512,512,512,512,512,512,512,512,512,512,512,512,512,512,512,512,512,512,512,512,512,512,512,512,512,512,512,512,512,512,512,512,512,512,512,512,512,512,512,512,512,512,512,512,512,512,512,512,512,512,512,512,512,512,512,512,512,512,512,512,512,512,512,512,512,512,512,512,512,512,512,512,512,512,512,512,512,507,502,496,491,486,479,479,478,478,478,478,478,477,477,477,477,477,477,477,477,477,477,477,477,477,476,475,474,474,473,473,473,472,470,464,452,441,427,415,400,384,347,327,301,267,188,171,162,160,160,159,157,156,152,149,146,146,146,146,146,146,146,146,146,146,146,146,146,146,146,146,146,146,146,146,144,143,143,143,142,139,135,130,123,114,96,92,90,88,88,78],"timestamp_mouse":[9,25,44,66,85,105,125,146,164,184,205,225,244,264,285,305,324,345,365,385,405,425,445,465,485,505,525,545,566,584,605,625,645,666,685,705,725,745,764,786,805,825,845,865,885,905,925,945,965,984,1005,1025,1045,1064,1085,1106,1125,1145,1165,1185,1204,1224,1245,1265,1285,1305,1325,1346,1366,1384,1404,1426,1445,1466,1485,1504,1525,1545,1566,1586,1604,1625,1645,1666,1685,1705,1725,1745,1764,1784,1805,1825,1845,1865,1885,1904,1926,1945,1966,1985,2005,2025,2045,2066,2085,2105,2125,2145,2164,2185,2205,2225,2245,2264,2284,2304,2325,2345,2366,2384,2405,2425,2444,2465,2485,2504,2525,2544,2565,2585,2605,2625,2646,2665,2685,2706,2726,2745,2764,2786,2806,2825,2845,2864,2885,2905,2924,2944,2965,2985,3005,3025,3045,3065,3085,3105,3125,3144,3165,3186,3206,3225,3245,3265,3286,3306,3325,3345,3365,3385,3406,3425,3445,3465,3485,3506,3525,3544,3565],"xSR":741.5,"ySR":469.95,"xT1":424.9,"yT1":0,"xT2":1058.1,"yT2":0,"toosoon":0,"cond_shown":"Incongruent","ratio_trial":300,"L_num":4,"L_den":20,"R_num":2,"R_den":4,"correct_side":2,"subjID":"JulianaMoraMOra4","gender":"1","school":"4","age":"8"},{"start_time":1552068683755,"click_time":1552068685843,"finger_time":1552068685242,"fix_duration":352.0555060729897,"trial":2,"RT":1487,"MT":601,"sideResp":1,"stimulus":[],"xmouse":[766,766,766,766,766,766,766,766,766,766,766,766,766,766,766,766,766,766,766,766,766,766,766,766,766,766,766,766,766,766,766,766,766,766,766,766,766,766,766,766,766,766,766,766,766,766,766,766,766,766,766,766,766,766,766,766,766,766,766,766,766,766,766,766,766,766,766,766,766,766,766,764,759,755,743,739,736,734,732,729,724,721,718,712,695,687,678,666,658,653,649,648,646,644,641,625,612,606,597,580,565,548,529,528,513],"ymouse":[517,517,517,517,517,517,517,517,517,517,517,517,517,517,517,517,517,517,517,517,517,517,517,517,517,517,517,517,517,517,517,517,517,517,517,517,517,517,517,517,517,517,517,517,517,517,517,517,517,517,517,517,517,517,517,517,517,517,517,517,517,517,517,517,517,517,517,517,517,516,508,502,492,481,455,442,431,418,406,390,358,336,311,280,210,185,160,128,111,101,92,90,89,88,86,81,75,73,69,65,61,55,51,51,49],"timestamp_mouse":[12,26,46,67,87,106,126,145,165,186,207,226,246,266,286,307,325,345,365,386,406,426,446,466,486,506,526,546,566,586,606,626,646,666,686,706,725,745,766,786,806,826,846,865,885,905,926,947,967,986,1006,1026,1046,1066,1087,1106,1126,1145,1166,1186,1206,1225,1245,1266,1286,1306,1325,1346,1366,1385,1405,1425,1445,1466,1487,1506,1526,1547,1566,1585,1606,1625,1646,1667,1687,1706,1727,1746,1765,1787,1806,1826,1845,1865,1886,1905,1926,1946,1965,1987,2006,2026,2045,2065,2087],"xSR":741.5,"ySR":469.95,"xT1":424.9,"yT1":0,"xT2":1058.1,"yT2":0,"toosoon":0,"cond_shown":"Congruent","ratio_trial":300,"L_num":11,"L_den":22,"R_num":1,"R_den":5,"correct_side":1,"subjID":"JulianaMoraMOra4","gender":"1","school":"4","age":"8"},{"start_time":1552068690450,"click_time":1552068692081,"finger_time":1552068691681,"fix_duration":288.5024992799895,"trial":3,"RT":1231,"MT":400,"sideResp":2,"stimulus":[],"xmouse":[758,758,758,758,758,758,758,758,758,758,758,758,758,758,758,758,758,758,758,758,758,758,758,758,758,758,758,758,758,758,758,758,758,758,758,758,758,758,758,758,758,758,758,758,758,758,758,758,758,758,758,758,765,772,781,800,810,818,824,826,835,843,852,864,873,890,901,911,924,942,956,984,998,1013,1028,1042,1069,1087,1090,1103,1111,1119],"ymouse":[528,528,528,528,528,528,528,528,528,528,528,528,528,528,528,528,528,528,528,528,528,528,528,528,528,528,528,528,528,528,528,528,528,528,528,528,528,528,528,528,528,528,528,528,528,528,528,528,528,528,528,528,525,521,515,503,496,490,484,482,474,466,460,449,440,417,402,389,374,350,334,302,284,267,248,231,194,162,152,124,108,88],"timestamp_mouse":[10,31,51,71,90,110,131,151,171,191,211,231,250,271,292,311,331,350,371,391,412,431,451,470,491,511,531,551,571,590,610,631,651,670,691,712,731,750,771,791,811,831,851,871,891,911,931,950,971,992,1011,1030,1050,1071,1091,1110,1131,1151,1171,1190,1210,1231,1251,1271,1291,1311,1331,1351,1371,1390,1411,1430,1451,1471,1491,1512,1531,1552,1571,1591,1612,1631],"xSR":741.5,"ySR":469.95,"xT1":424.9,"yT1":0,"xT2":1058.1,"yT2":0,"toosoon":0,"cond_shown":"Congruent","ratio_trial":200,"L_num":7,"L_den":15,"R_num":18,"R_den":27,"correct_side":2,"subjID":"JulianaMoraMOra4","gender":"1","school":"4","age":"8"},{"start_time":1552068694712,"click_time":1552068696641,"finger_time":1552068695601,"fix_duration":1289.1588880283275,"trial":4,"RT":889,"MT":1040,"sideResp":2,"stimulus":[],"xmouse":[812,812,812,812,812,812,812,812,812,812,812,812,812,812,812,812,812,812,812,812,812,812,812,812,812,812,812,812,812,812,812,812,812,812,812,812,812,812,812,812,812,812,811,816,817,818,823,832,836,841,847,849,853,865,871,877,884,890,902,908,913,916,920,924,925,928,930,933,943,948,956,964,975,995,1000,1003,1005,1007,1011,1014,1018,1021,1025,1030,1032,1034,1036,1037,1038,1038,1038,1039,1043,1055,1064,1072,1079],"ymouse":[489,489,489,489,489,489,489,489,489,489,489,489,489,489,489,489,489,489,489,489,489,489,489,489,489,489,489,489,489,489,489,489,489,489,489,489,489,489,489,489,489,489,489,473,469,465,449,421,411,400,388,383,375,355,344,335,322,310,281,267,255,246,238,233,231,228,226,224,218,215,212,206,198,178,171,168,167,167,165,165,164,163,160,153,151,147,144,143,142,142,141,140,137,127,116,105,93],"timestamp_mouse":[9,29,49,68,88,109,130,148,170,189,209,228,249,269,289,308,328,348,369,389,408,428,448,469,488,508,529,549,570,588,610,628,649,670,690,708,730,749,769,788,809,829,849,869,889,909,930,951,969,990,1010,1029,1048,1069,1089,1109,1129,1148,1168,1189,1209,1228,1248,1268,1289,1309,1329,1348,1368,1389,1409,1428,1449,1468,1489,1509,1529,1548,1568,1588,1608,1628,1648,1669,1690,1709,1729,1749,1769,1789,1809,1829,1849,1868,1889,1909,1929],"xSR":741.5,"ySR":469.95,"xT1":424.9,"yT1":0,"xT2":1058.1,"yT2":0,"toosoon":0,"cond_shown":"Congruent","ratio_trial":200,"L_num":7,"L_den":15,"R_num":18,"R_den":27,"correct_side":2,"subjID":"JulianaMoraMOra4","gender":"1","school":"4","age":"8"},{"start_time":1552068698632,"click_time":1552068700522,"finger_time":1552068699741,"fix_duration":250,"trial":5,"RT":1109,"MT":781,"sideResp":1,"stimulus":[],"xmouse":[776,776,776,776,776,776,776,776,776,776,776,776,776,776,776,776,776,776,776,776,776,776,776,776,776,776,776,776,776,776,776,776,776,776,776,776,776,776,776,776,776,776,776,776,776,775,771,768,768,767,766,766,765,763,761,758,757,755,755,755,755,755,755,755,755,755,755,753,751,747,742,734,718,709,694,688,675,635,617,600,586,578,569,558,556,554,553,553,552,552,551,549,537,530,524],"ymouse":[497,497,497,497,497,497,497,497,497,497,497,497,497,497,497,497,497,497,497,497,497,497,497,497,497,497,497,497,497,497,497,497,497,497,497,497,497,497,497,497,497,497,497,497,497,497,495,491,491,490,489,488,484,478,473,469,468,465,465,465,465,465,465,465,465,464,461,452,444,436,424,412,384,372,351,343,327,271,245,212,188,167,149,124,118,115,112,111,109,109,108,106,98,92,87],"timestamp_mouse":[9,31,49,68,88,108,128,150,169,189,209,230,249,269,289,308,329,350,369,390,409,429,450,469,489,509,528,548,569,589,609,629,649,668,689,709,728,749,769,789,808,828,850,869,888,909,928,949,969,988,1008,1028,1048,1069,1090,1109,1129,1148,1169,1189,1208,1228,1249,1269,1289,1309,1329,1349,1368,1388,1409,1429,1449,1469,1488,1509,1529,1549,1568,1588,1609,1628,1649,1669,1690,1708,1729,1749,1769,1788,1808,1828,1849,1869,1890],"xSR":741.5,"ySR":469.95,"xT1":424.9,"yT1":0,"xT2":1058.1,"yT2":0,"toosoon":0,"cond_shown":"Incongruent","ratio_trial":100,"L_num":8,"L_den":20,"R_num":1,"R_den":2,"correct_side":2,"subjID":"JulianaMoraMOra4","gender":"1","school":"4","age":"8"},{"start_time":1552068702653,"click_time":1552068704062,"finger_time":1552068703042,"fix_duration":310.94973254369995,"trial":6,"RT":389,"MT":1020,"sideResp":2,"stimulus":[],"xmouse":[809,809,809,809,809,809,809,809,809,809,809,809,809,809,809,809,809,813,815,819,823,830,835,836,839,840,843,844,845,846,847,849,850,851,851,851,851,852,852,852,852,852,852,852,852,852,852,852,852,852,854,856,857,870,880,896,906,927,937,952,974,999,1037,1046,1048,1049,1050,1050,1055,1064,1073],"ymouse":[498,498,498,498,498,498,498,498,498,498,498,498,498,498,498,498,494,482,470,459,446,422,407,400,391,386,379,375,372,370,367,362,360,359,358,357,357,356,356,356,355,355,355,355,355,355,355,355,355,355,351,347,346,323,305,279,254,200,180,166,152,139,120,114,111,111,110,110,108,103,98],"timestamp_mouse":[13,30,49,69,88,109,130,149,168,189,208,229,249,268,289,309,329,350,368,389,409,431,449,469,488,508,530,548,569,590,609,631,649,669,689,709,730,749,769,788,808,829,850,869,888,908,930,948,969,990,1010,1031,1049,1069,1090,1109,1128,1149,1170,1189,1209,1228,1249,1269,1289,1308,1329,1349,1369,1389,1409],"xSR":741.5,"ySR":469.95,"xT1":424.9,"yT1":0,"xT2":1058.1,"yT2":0,"toosoon":0,"cond_shown":"Congruent","ratio_trial":200,"L_num":5,"L_den":10,"R_num":14,"R_den":20,"correct_side":2,"subjID":"JulianaMoraMOra4","gender":"1","school":"4","age":"8"},{"start_time":1552068705844,"click_time":1552068707763,"finger_time":1552068707502,"fix_duration":641.6699147090145,"trial":7,"RT":1658,"MT":261,"sideResp":1,"stimulus":[],"xmouse":[807,807,807,807,807,807,807,807,807,807,807,807,807,807,807,807,807,807,807,807,807,807,807,807,807,807,807,807,807,807,807,807,807,807,807,807,807,807,807,807,807,807,807,807,807,807,807,807,807,807,807,807,807,807,807,807,807,807,807,807,807,807,807,807,807,807,807,807,807,807,807,807,807,807,807,807,807,807,807,807,807,803,773,758,746,737,730,725,707,692,669,617,561,535,514,498],"ymouse":[477,477,477,477,477,477,477,477,477,477,477,477,477,477,477,477,477,477,477,477,477,477,477,477,477,477,477,477,477,477,477,477,477,477,477,477,477,477,477,477,477,477,477,477,477,477,477,477,477,477,477,477,477,477,477,477,477,477,477,477,477,477,477,477,477,477,477,477,477,477,477,477,477,477,477,477,477,477,477,477,477,476,460,452,444,436,428,419,388,362,325,256,173,144,113,93],"timestamp_mouse":[18,44,58,78,98,118,138,158,178,199,218,238,258,278,299,317,338,358,379,397,417,438,458,477,498,518,538,557,577,598,618,638,657,678,698,718,737,758,777,798,818,838,858,877,898,917,938,959,978,998,1018,1038,1057,1077,1099,1117,1139,1157,1178,1198,1218,1237,1257,1278,1297,1318,1338,1357,1378,1397,1417,1439,1458,1478,1497,1518,1538,1557,1578,1598,1617,1637,1658,1678,1698,1718,1737,1758,1778,1798,1817,1839,1858,1877,1899,1918],"xSR":741.5,"ySR":469.95,"xT1":424.9,"yT1":0,"xT2":1058.1,"yT2":0,"toosoon":0,"cond_shown":"Incongruent","ratio_trial":200,"L_num":1,"L_den":3,"R_num":2,"R_den":15,"correct_side":1,"subjID":"JulianaMoraMOra4","gender":"1","school":"4","age":"8"},{"start_time":1552068709870,"click_time":1552068710903,"finger_time":1552068710602,"fix_duration":346.94809721216944,"trial":8,"RT":732,"MT":301,"sideResp":1,"stimulus":[],"xmouse":[781,781,781,781,781,781,781,781,781,781,781,781,781,781,781,781,781,781,781,781,781,781,781,781,781,781,781,781,781,781,781,781,781,781,780,778,773,756,744,719,701,673,657,641,619,598,583,570,566,545,525,492],"ymouse":[491,491,491,491,491,491,491,491,491,491,491,491,491,491,491,491,491,491,491,491,491,491,491,491,491,491,491,491,491,491,491,491,491,491,482,475,459,420,398,358,333,289,268,245,220,196,170,145,139,114,96,60],"timestamp_mouse":[13,43,51,72,92,111,132,152,172,192,212,232,252,272,293,312,331,352,372,391,412,431,452,473,492,513,531,551,572,592,612,632,652,673,692,712,732,752,772,792,812,833,852,872,892,911,933,952,972,993,1011,1033],"xSR":741.5,"ySR":469.95,"xT1":424.9,"yT1":0,"xT2":1058.1,"yT2":0,"toosoon":0,"cond_shown":"Congruent","ratio_trial":300,"L_num":24,"L_den":30,"R_num":2,"R_den":4,"correct_side":1,"subjID":"JulianaMoraMOra4","gender":"1","school":"4","age":"8"},{"start_time":1552068712973,"click_time":1552068716823,"finger_time":1552068716341,"fix_duration":290.5796890641225,"trial":9,"RT":3368,"MT":482,"sideResp":1,"stimulus":[],"xmouse":[774,774,774,774,774,774,774,774,774,774,774,774,774,774,774,774,774,774,774,774,774,774,774,774,774,774,774,774,774,774,774,774,774,774,774,774,774,774,774,774,774,774,774,774,774,774,774,774,774,774,774,774,774,774,774,774,774,774,774,774,774,774,774,774,774,774,774,774,774,774,774,774,774,774,774,774,774,774,774,774,774,774,774,774,774,774,774,774,774,774,774,774,774,774,774,774,774,774,774,774,774,774,774,774,774,774,774,774,774,774,774,774,774,774,774,774,774,774,774,774,774,774,774,774,774,774,774,774,774,774,774,774,774,774,774,774,774,774,774,774,774,774,774,774,774,774,774,774,774,774,774,774,774,774,774,774,774,774,774,774,774,774,774,774,774,774,774,763,750,741,734,730,714,704,688,674,659,636,629,622,611,606,593,585,579,573,568,561,558,551,541,533,514],"ymouse":[489,489,489,489,489,489,489,489,489,489,489,489,489,489,489,489,489,489,489,489,489,489,489,489,489,489,489,489,489,489,489,489,489,489,489,489,489,489,489,489,489,489,489,489,489,489,489,489,489,489,489,489,489,489,489,489,489,489,489,489,489,489,489,489,489,489,489,489,489,489,489,489,489,489,489,489,489,489,489,489,489,489,489,489,489,489,489,489,489,489,489,489,489,489,489,489,489,489,489,489,489,489,489,489,489,489,489,489,489,489,489,489,489,489,489,489,489,489,489,489,489,489,489,489,489,489,489,489,489,489,489,489,489,489,489,489,489,489,489,489,489,489,489,489,489,489,489,489,489,489,489,489,489,489,489,489,489,489,489,489,489,489,489,489,489,489,489,476,460,443,426,410,365,348,333,320,310,293,286,280,272,268,256,249,241,229,215,187,176,162,140,122,86],"timestamp_mouse":[10,29,61,70,89,109,128,149,169,189,209,229,249,270,289,308,328,350,369,390,408,429,449,469,489,509,528,549,569,589,609,629,649,669,690,709,729,750,768,788,809,830,850,869,889,908,929,950,968,989,1008,1029,1049,1068,1089,1109,1129,1150,1169,1189,1209,1228,1248,1269,1289,1308,1329,1350,1369,1388,1409,1429,1449,1468,1489,1508,1529,1550,1570,1589,1609,1628,1650,1668,1688,1709,1730,1750,1769,1789,1808,1828,1849,1869,1889,1909,1929,1948,1969,1989,2009,2029,2048,2069,2089,2109,2129,2148,2168,2188,2209,2228,2249,2269,2289,2309,2329,2349,2369,2388,2408,2430,2449,2469,2489,2508,2530,2550,2568,2589,2609,2629,2648,2669,2690,2709,2729,2749,2769,2789,2808,2830,2849,2870,2890,2909,2929,2948,2968,2989,3009,3030,3049,3070,3089,3109,3130,3149,3169,3188,3209,3229,3250,3269,3289,3309,3329,3348,3368,3388,3408,3430,3449,3470,3488,3509,3529,3549,3568,3589,3609,3629,3649,3668,3690,3709,3729,3749,3770,3789,3809,3828,3849],"xSR":741.5,"ySR":469.95,"xT1":424.9,"yT1":0,"xT2":1058.1,"yT2":0,"toosoon":0,"cond_shown":"Congruent","ratio_trial":100,"L_num":12,"L_den":30,"R_num":13,"R_den":26,"correct_side":2,"subjID":"JulianaMoraMOra4","gender":"1","school":"4","age":"8"},{"start_time":1552068721600,"click_time":1552068723142,"finger_time":1552068722442,"fix_duration":1377.664962140172,"trial":10,"RT":842,"MT":700,"sideResp":2,"stimulus":[],"xmouse":[777,777,777,777,777,777,777,777,777,777,777,777,777,777,777,777,777,777,777,777,777,777,777,777,777,777,777,777,777,777,777,777,777,777,777,777,777,779,781,782,785,788,795,798,803,809,815,833,841,852,863,872,887,894,901,910,921,960,979,995,1013,1027,1046,1049,1050,1050,1050,1052,1052,1052,1052,1052,1052,1052,1052,1052,1052,1093],"ymouse":[503,503,503,503,503,503,503,503,503,503,503,503,503,503,503,503,503,503,503,503,503,503,503,503,503,503,503,503,503,503,503,503,503,503,503,503,503,501,498,495,490,483,468,460,451,440,430,397,380,362,343,323,276,253,231,212,189,131,107,85,60,38,7,2,0,0,0,0,0,0,0,0,0,0,0,0,0,9],"timestamp_mouse":[10,21,42,61,82,102,122,142,161,182,202,222,242,262,281,301,321,342,362,383,402,422,442,462,482,503,522,542,561,581,601,622,643,662,682,702,723,742,762,782,802,822,842,862,882,902,922,942,962,981,1001,1021,1042,1063,1082,1101,1122,1141,1162,1182,1202,1221,1241,1261,1282,1301,1321,1342,1363,1382,1402,1421,1443,1462,1482,1502,1522,1542],"xSR":741.5,"ySR":469.95,"xT1":424.9,"yT1":0,"xT2":1058.1,"yT2":0,"toosoon":0,"cond_shown":"Incongruent","ratio_trial":200,"L_num":3,"L_den":4,"R_num":11,"R_den":20,"correct_side":1,"subjID":"JulianaMoraMOra4","gender":"1","school":"4","age":"8"},{"start_time":1552068728193,"click_time":1552068729861,"finger_time":1552068729682,"fix_duration":250,"trial":11,"RT":1489,"MT":179,"sideResp":1,"stimulus":[],"xmouse":[824,824,824,824,824,823,822,816,814,813,813,813,813,813,813,813,813,813,813,813,812,812,812,811,811,811,811,811,810,809,809,809,809,809,809,809,809,809,809,809,809,809,809,809,809,809,809,809,809,809,809,809,809,809,809,809,809,809,809,809,809,809,809,809,809,809,809,809,806,804,802,799,796,788,783,778,772,765,743,727,699,662,609,500],"ymouse":[529,529,529,529,529,529,529,529,529,529,529,529,529,529,529,529,529,529,529,529,529,529,529,529,529,529,529,529,529,529,529,529,529,529,529,529,529,529,529,529,529,529,529,529,529,529,529,529,529,529,529,529,529,529,529,529,529,529,529,529,529,529,529,529,529,529,529,529,529,523,517,506,493,471,463,456,449,440,416,395,363,317,251,54],"timestamp_mouse":[13,31,50,69,89,109,129,150,169,189,209,229,249,269,289,308,329,349,369,388,409,429,450,469,489,509,529,549,568,589,609,629,649,668,690,709,729,749,769,789,808,829,850,869,890,909,928,949,969,989,1009,1028,1049,1069,1088,1109,1128,1148,1168,1188,1209,1229,1249,1270,1289,1309,1329,1348,1368,1390,1409,1429,1449,1468,1489,1508,1530,1549,1569,1589,1609,1629,1648,1668],"xSR":741.5,"ySR":469.95,"xT1":424.9,"yT1":0,"xT2":1058.1,"yT2":0,"toosoon":0,"cond_shown":"Incongruent","ratio_trial":200,"L_num":14,"L_den":30,"R_num":6,"R_den":9,"correct_side":2,"subjID":"JulianaMoraMOra4","gender":"1","school":"4","age":"8"},{"start_time":1552068732001,"click_time":1552068734122,"finger_time":1552068733241,"fix_duration":818.6468517727775,"trial":12,"RT":1240,"MT":881,"sideResp":1,"stimulus":[],"xmouse":[810,810,810,810,810,810,810,810,810,810,810,810,810,810,810,810,810,810,810,810,810,810,810,810,810,810,810,810,810,810,810,810,810,810,810,810,810,810,810,810,810,810,810,810,810,810,810,810,810,810,810,810,810,810,810,810,810,810,810,812,814,818,825,833,837,840,841,843,845,845,847,849,851,860,865,869,876,881,890,905,912,919,921,927,927,927,928,929,933,935,937,939,940,942,942,942,943,943,943,943,932,895,837,723,655,574,495],"ymouse":[502,502,502,502,502,502,502,502,502,502,502,502,502,502,502,502,502,502,502,502,502,502,502,502,502,502,502,502,502,502,502,502,502,502,502,502,502,502,502,502,502,502,502,502,502,502,502,502,502,502,502,502,502,502,502,502,502,502,502,496,486,472,451,425,415,408,403,399,393,389,385,378,367,336,322,304,285,263,241,206,189,173,169,160,160,159,159,157,153,151,147,142,142,138,137,137,136,136,136,135,129,117,101,67,48,28,15],"timestamp_mouse":[9,20,41,61,84,101,122,140,161,181,200,222,241,261,281,300,320,341,362,381,400,421,441,461,480,500,521,541,561,581,601,621,641,662,681,700,721,741,760,781,801,821,841,860,881,901,922,940,960,981,1001,1021,1041,1061,1082,1102,1120,1140,1161,1181,1201,1221,1240,1261,1282,1301,1321,1341,1361,1380,1401,1421,1441,1461,1480,1501,1520,1540,1561,1582,1601,1621,1641,1661,1681,1701,1721,1741,1761,1780,1801,1821,1841,1861,1881,1902,1921,1941,1962,1981,2001,2021,2041,2061,2081,2101,2121],"xSR":741.5,"ySR":469.95,"xT1":424.9,"yT1":0,"xT2":1058.1,"yT2":0,"toosoon":0,"cond_shown":"Incongruent","ratio_trial":200,"L_num":7,"L_den":15,"R_num":4,"R_den":6,"correct_side":2,"subjID":"JulianaMoraMOra4","gender":"1","school":"4","age":"8"},{"start_time":1552068736841,"click_time":1552068738282,"finger_time":1552068737682,"fix_duration":1077.3777547111622,"trial":13,"RT":841,"MT":600,"sideResp":1,"stimulus":[],"xmouse":[812,812,812,812,812,812,812,812,812,812,812,812,812,812,811,811,811,809,809,809,809,809,809,809,809,808,808,808,808,808,808,808,808,808,808,808,808,808,807,807,807,807,807,807,807,807,807,807,807,807,806,804,786,766,731,682,597,570,540,531,528,528,528,528,528,525,521,501,484,472,462,454,449],"ymouse":[520,520,519,519,519,519,519,518,518,516,516,516,515,514,512,511,508,505,503,503,503,503,503,503,503,502,502,501,501,501,501,501,501,499,498,494,490,483,481,480,479,477,469,462,454,447,435,432,430,430,426,420,386,363,334,304,243,227,211,207,206,206,205,205,205,203,200,182,159,139,122,106,92],"timestamp_mouse":[9,21,52,61,82,100,121,141,160,180,202,221,241,261,281,300,320,341,361,382,400,420,440,461,481,500,520,541,561,581,601,621,641,660,680,700,721,741,760,780,801,821,841,861,880,901,923,940,962,981,1001,1021,1041,1062,1081,1101,1123,1140,1161,1181,1201,1221,1241,1261,1281,1300,1320,1340,1361,1381,1401,1421,1441],"xSR":741.5,"ySR":469.95,"xT1":424.9,"yT1":0,"xT2":1058.1,"yT2":0,"toosoon":0,"cond_shown":"Incongruent","ratio_trial":200,"L_num":7,"L_den":10,"R_num":14,"R_den":28,"correct_side":1,"subjID":"JulianaMoraMOra4","gender":"1","school":"4","age":"8"},{"start_time":1552068743405,"click_time":1552068745783,"finger_time":1552068745162,"fix_duration":741.3030437964661,"trial":14,"RT":1757,"MT":621,"sideResp":2,"stimulus":[],"xmouse":[808,808,808,808,808,808,808,808,808,808,808,808,808,808,808,808,808,808,808,808,808,808,808,808,808,808,808,808,808,808,808,808,808,808,808,808,808,808,808,808,808,808,808,808,808,808,808,808,808,808,808,808,808,808,808,808,808,808,808,808,808,808,808,808,808,808,808,808,808,808,808,808,808,808,808,808,808,808,808,808,808,808,808,808,808,811,822,832,842,872,886,899,913,935,946,956,974,985,998,1020,1030,1039,1046,1053,1055,1056,1057,1057,1057,1057,1057,1057,1057,1057,1057,1057,1057,1057,1059],"ymouse":[517,517,517,517,517,517,517,517,517,517,517,517,517,517,517,517,517,517,517,517,517,517,517,517,517,517,517,517,517,517,517,517,517,517,517,517,517,517,517,517,517,517,517,517,517,517,517,517,517,517,517,517,517,517,517,517,517,517,517,517,517,517,517,517,517,517,517,517,517,517,517,517,517,517,517,517,517,517,517,517,517,517,517,517,515,508,482,457,431,363,331,303,278,241,225,213,193,182,169,145,133,122,115,106,103,100,100,100,100,100,100,100,100,100,100,100,100,100,99],"timestamp_mouse":[20,39,57,77,97,117,136,157,177,197,217,236,258,277,296,316,337,357,376,397,417,436,457,477,497,517,537,557,577,597,616,636,656,677,696,716,737,757,776,797,818,837,857,876,897,918,936,957,976,997,1016,1037,1057,1077,1097,1118,1137,1156,1176,1196,1217,1237,1256,1277,1297,1318,1336,1357,1377,1397,1416,1437,1457,1477,1496,1518,1537,1556,1576,1597,1617,1637,1656,1677,1697,1717,1737,1757,1778,1797,1817,1836,1856,1878,1897,1916,1938,1957,1978,1997,2016,2036,2057,2078,2097,2116,2136,2157,2178,2197,2217,2237,2257,2278,2297,2318,2337,2357,2378],"xSR":741.5,"ySR":469.95,"xT1":424.9,"yT1":0,"xT2":1058.1,"yT2":0,"toosoon":0,"cond_shown":"Congruent","ratio_trial":100,"L_num":10,"L_den":25,"R_num":3,"R_den":10,"correct_side":1,"subjID":"JulianaMoraMOra4","gender":"1","school":"4","age":"8"},{"start_time":1552068749114,"click_time":1552068750824,"finger_time":1552068750342,"fix_duration":250,"trial":15,"RT":1228,"MT":482,"sideResp":1,"stimulus":[],"xmouse":[760,760,760,760,761,761,761,762,762,763,764,764,764,765,765,765,765,765,765,765,765,765,765,765,765,765,765,765,765,765,765,765,765,765,765,765,765,765,765,765,765,765,765,765,765,765,765,765,765,765,765,765,766,766,764,762,759,757,753,748,744,740,736,733,730,718,710,693,685,631,601,570,548,524,475,459,451,442,436,430,430,430,430,433,443,449],"ymouse":[526,526,526,526,526,526,526,526,526,526,526,526,526,526,526,526,526,526,526,526,526,526,526,526,526,526,526,526,526,526,526,526,526,526,526,526,526,526,526,526,526,526,526,526,526,526,526,526,526,526,526,526,526,522,513,507,502,497,489,478,473,468,462,459,455,445,438,420,412,363,342,319,302,285,240,221,205,189,175,149,141,134,125,117,103,95],"timestamp_mouse":[10,37,48,69,88,108,127,147,168,188,207,228,249,267,289,308,329,349,367,389,408,428,449,467,487,507,529,548,569,587,607,628,648,667,687,707,729,748,769,789,808,828,848,868,889,908,927,948,968,987,1008,1028,1048,1068,1088,1108,1128,1148,1167,1188,1208,1228,1247,1267,1288,1307,1327,1347,1367,1387,1408,1427,1447,1468,1488,1507,1528,1547,1568,1587,1609,1629,1648,1668,1688,1709],"xSR":741.5,"ySR":469.95,"xT1":424.9,"yT1":0,"xT2":1058.1,"yT2":0,"toosoon":0,"cond_shown":"Congruent","ratio_trial":300,"L_num":11,"L_den":22,"R_num":2,"R_den":10,"correct_side":1,"subjID":"JulianaMoraMOra4","gender":"1","school":"4","age":"8"},{"start_time":1552068752912,"click_time":1552068755482,"finger_time":1552068754802,"fix_duration":829.2067003791271,"trial":16,"RT":1890,"MT":680,"sideResp":1,"stimulus":[],"xmouse":[794,794,794,794,794,794,794,794,794,794,794,794,793,793,793,793,793,793,793,793,793,793,793,793,793,793,793,793,793,793,793,793,793,793,793,793,793,793,793,793,793,793,793,793,793,793,793,793,793,793,793,793,793,793,793,793,793,793,793,793,793,793,793,793,793,793,793,793,793,793,793,793,793,793,793,793,793,793,793,793,793,793,793,793,793,793,793,793,793,793,793,794,795,799,814,822,835,842,848,851,852,852,852,852,852,852,852,847,830,802,723,674,628,598,576,549,532,519,503,490,468,460,454,451,448,446,448,453,459],"ymouse":[515,515,515,515,515,515,515,515,515,515,515,515,516,516,517,517,517,517,517,517,517,518,518,518,518,518,518,518,518,518,518,518,518,518,518,518,518,518,518,518,518,518,518,518,518,518,518,518,518,518,518,518,518,518,518,518,518,518,518,518,518,518,518,518,518,518,518,518,518,518,518,518,518,518,518,518,518,518,518,518,518,518,518,518,518,518,518,518,518,518,518,511,502,481,427,401,368,352,340,334,329,329,329,329,329,329,329,327,323,318,296,282,264,252,240,225,215,208,198,188,170,159,150,141,132,116,107,100,94],"timestamp_mouse":[9,30,50,69,91,111,130,150,170,190,211,230,250,270,290,310,331,350,369,389,410,429,450,470,490,510,530,549,569,589,610,630,650,670,689,711,730,750,771,790,810,830,850,870,890,909,930,949,970,991,1009,1030,1050,1070,1090,1111,1129,1150,1169,1190,1209,1229,1249,1269,1289,1311,1331,1350,1369,1390,1410,1429,1449,1470,1491,1509,1529,1550,1570,1591,1610,1630,1651,1669,1691,1710,1730,1750,1770,1789,1810,1829,1850,1871,1890,1909,1929,1950,1970,1990,2010,2030,2050,2070,2090,2110,2131,2150,2169,2190,2209,2230,2251,2269,2289,2309,2330,2350,2370,2390,2410,2431,2450,2470,2489,2509,2530,2549,2570],"xSR":741.5,"ySR":469.95,"xT1":424.9,"yT1":0,"xT2":1058.1,"yT2":0,"toosoon":0,"cond_shown":"Incongruent","ratio_trial":100,"L_num":3,"L_den":9,"R_num":7,"R_den":30,"correct_side":1,"subjID":"JulianaMoraMOra4","gender":"1","school":"4","age":"8"},{"start_time":1552068757320,"click_time":1552068759242,"finger_time":1552068758462,"fix_duration":796.398997436421,"trial":17,"RT":1142,"MT":780,"sideResp":1,"stimulus":[],"xmouse":[771,771,771,771,771,771,771,771,771,771,771,771,771,771,771,771,771,771,771,771,771,771,771,771,771,771,771,771,771,771,771,771,771,771,771,771,771,771,771,771,771,771,771,771,771,771,771,771,771,771,771,771,771,771,772,770,765,760,753,748,737,732,726,722,714,698,688,674,656,637,608,596,586,578,572,563,562,562,562,562,562,562,562,562,560,554,550,545,542,538,528,523,517,509,500,478,471],"ymouse":[517,517,517,517,517,517,517,517,517,517,517,517,517,517,517,517,517,517,517,517,517,517,517,517,517,517,517,517,517,517,517,517,517,517,517,517,517,517,517,517,517,517,517,517,517,517,517,517,517,517,517,517,517,517,517,507,489,467,448,430,400,388,379,371,358,338,324,309,293,275,245,231,218,210,204,197,196,196,196,196,196,196,196,196,196,193,190,184,178,170,155,149,140,134,125,105,97],"timestamp_mouse":[9,31,42,62,82,103,122,142,162,182,202,221,242,261,282,302,322,342,362,382,402,421,441,462,483,502,521,541,562,582,602,622,642,663,681,702,723,742,762,782,802,822,842,862,882,902,922,942,962,981,1001,1022,1043,1061,1081,1102,1122,1142,1162,1183,1203,1221,1243,1262,1281,1302,1322,1341,1362,1382,1402,1423,1442,1462,1482,1501,1521,1541,1562,1582,1602,1623,1642,1662,1683,1702,1721,1743,1762,1782,1802,1822,1842,1861,1882,1902,1922],"xSR":741.5,"ySR":469.95,"xT1":424.9,"yT1":0,"xT2":1058.1,"yT2":0,"toosoon":0,"cond_shown":"Congruent","ratio_trial":100,"L_num":8,"L_den":16,"R_num":2,"R_den":5,"correct_side":1,"subjID":"JulianaMoraMOra4","gender":"1","school":"4","age":"8"},{"start_time":1552068761620,"click_time":1552068763921,"finger_time":1552068763081,"fix_duration":717.7023634109485,"trial":18,"RT":1461,"MT":840,"sideResp":2,"stimulus":[],"xmouse":[797,797,797,797,797,797,797,797,797,797,797,797,797,797,797,797,797,797,797,797,797,797,797,797,797,797,797,797,797,797,797,797,797,797,797,797,797,797,797,797,797,797,797,797,797,797,797,797,797,797,797,797,797,797,797,797,797,797,797,797,797,797,797,797,797,797,797,797,797,797,797,797,797,798,800,803,805,806,808,809,813,817,820,824,828,836,857,866,878,891,917,931,944,954,963,976,981,989,993,995,998,999,999,999,999,999,999,1000,1001,1004,1009,1029,1039,1050,1058,1066],"ymouse":[477,477,477,477,477,477,477,477,477,477,477,477,477,477,477,477,477,477,477,477,477,477,477,477,477,477,477,477,477,477,477,477,477,477,477,477,477,477,477,477,477,477,477,477,477,477,477,477,477,477,477,477,477,477,477,477,477,477,477,477,477,477,477,477,477,477,477,477,477,477,477,475,473,469,466,458,455,451,446,444,435,429,422,411,401,385,337,316,292,269,224,204,190,175,163,147,140,131,126,123,121,120,120,120,120,120,120,119,119,116,113,102,96,90,86,80],"timestamp_mouse":[11,21,43,61,82,102,123,143,162,182,202,222,241,262,282,302,322,343,362,382,402,423,442,462,482,501,523,542,562,581,602,622,642,661,681,702,721,741,761,782,801,822,842,862,882,902,921,941,962,981,1001,1021,1041,1061,1081,1101,1121,1142,1161,1181,1201,1221,1241,1261,1281,1301,1321,1342,1361,1381,1402,1421,1441,1461,1481,1503,1521,1541,1561,1581,1603,1621,1642,1662,1681,1703,1721,1743,1762,1783,1802,1821,1841,1861,1881,1903,1921,1942,1961,1981,2003,2021,2042,2061,2082,2103,2122,2143,2162,2182,2202,2222,2242,2263,2282,2301],"xSR":741.5,"ySR":469.95,"xT1":424.9,"yT1":0,"xT2":1058.1,"yT2":0,"toosoon":0,"cond_shown":"Congruent","ratio_trial":300,"L_num":1,"L_den":20,"R_num":7,"R_den":20,"correct_side":2,"subjID":"JulianaMoraMOra4","gender":"1","school":"4","age":"8"},{"start_time":1552068765964,"click_time":1552068767822,"finger_time":1552068767061,"fix_duration":642.1096951540732,"trial":19,"RT":1097,"MT":761,"sideResp":1,"stimulus":[],"xmouse":[776,776,776,776,776,776,776,776,776,776,776,776,776,776,776,776,776,776,776,776,776,776,776,776,776,776,776,776,776,776,776,776,776,776,776,776,776,776,776,776,776,776,776,776,776,776,776,776,776,776,776,776,776,773,768,762,751,743,731,724,717,709,701,687,683,681,679,678,672,668,662,654,643,617,601,586,567,551,516,506,502,500,500,500,500,500,500,500,505,506,506,506,506],"ymouse":[483,483,483,483,483,483,483,483,483,483,483,483,483,483,483,483,483,483,483,483,483,483,483,483,483,483,483,483,483,483,483,483,483,483,483,483,483,483,483,483,483,483,483,483,483,483,483,483,483,483,483,483,482,470,457,442,425,414,397,389,384,376,370,357,353,350,349,348,342,339,334,328,320,298,283,267,250,235,204,195,190,186,183,176,171,167,158,155,132,120,109,101,94],"timestamp_mouse":[17,40,58,77,97,117,137,157,177,198,217,237,257,277,297,318,337,358,377,397,417,438,458,477,497,518,538,558,577,599,617,637,657,678,697,718,737,757,777,798,818,838,857,879,897,918,937,958,977,997,1017,1038,1059,1079,1097,1117,1137,1157,1177,1197,1217,1237,1257,1278,1298,1317,1337,1358,1377,1399,1418,1437,1457,1477,1498,1518,1538,1557,1578,1598,1617,1637,1657,1677,1697,1718,1737,1757,1777,1798,1818,1837,1858],"xSR":741.5,"ySR":469.95,"xT1":424.9,"yT1":0,"xT2":1058.1,"yT2":0,"toosoon":0,"cond_shown":"Congruent","ratio_trial":100,"L_num":15,"L_den":25,"R_num":13,"R_den":26,"correct_side":1,"subjID":"JulianaMoraMOra4","gender":"1","school":"4","age":"8"},{"start_time":1552068770689,"click_time":1552068772221,"finger_time":1552068771722,"fix_duration":1446.0444830778322,"trial":20,"RT":1033,"MT":499,"sideResp":2,"stimulus":[],"xmouse":[799,799,799,799,799,799,799,799,799,799,799,799,799,799,799,799,799,799,799,799,799,799,799,799,799,799,799,799,799,799,799,799,799,799,799,799,799,799,799,799,799,799,799,799,799,799,799,799,799,799,806,811,827,837,848,858,866,880,897,906,912,918,937,948,957,967,974,981,981,981,981,981,981,981,981,1053,1061],"ymouse":[506,506,506,506,506,506,506,506,506,506,506,506,506,506,506,506,506,506,506,506,506,506,506,506,506,506,506,506,506,506,506,506,506,506,506,506,506,506,506,506,506,506,506,506,506,506,506,506,505,500,470,446,390,354,318,282,255,225,177,153,135,117,76,57,40,24,13,2,2,2,2,2,2,2,2,3,9],"timestamp_mouse":[15,36,53,72,93,112,132,152,172,193,212,233,253,272,292,312,332,352,373,393,412,432,452,472,493,512,532,552,572,593,612,632,653,673,692,712,732,752,773,793,813,833,852,873,894,912,932,953,972,992,1013,1032,1053,1072,1093,1112,1132,1154,1174,1192,1212,1232,1254,1272,1293,1312,1332,1352,1373,1392,1412,1432,1453,1472,1492,1512,1532],"xSR":741.5,"ySR":469.95,"xT1":424.9,"yT1":0,"xT2":1058.1,"yT2":0,"toosoon":0,"cond_shown":"Congruent","ratio_trial":300,"L_num":4,"L_den":20,"R_num":13,"R_den":26,"correct_side":2,"subjID":"JulianaMoraMOra4","gender":"1","school":"4","age":"8"},{"start_time":1552068773893,"click_time":1552068775383,"finger_time":1552068774823,"fix_duration":491.8448538606618,"trial":21,"RT":930,"MT":560,"sideResp":2,"stimulus":[],"xmouse":[826,826,826,826,826,826,826,826,826,826,826,826,826,826,826,826,826,826,826,826,826,826,826,826,826,826,826,826,826,826,826,826,826,826,826,826,826,826,826,826,826,826,827,827,827,827,827,829,836,836,838,842,845,852,857,863,869,877,898,907,913,921,928,937,944,951,960,968,985,996,1005,1014,1025,1051,1063],"ymouse":[532,532,532,532,532,532,532,532,532,532,532,532,532,532,532,532,532,532,532,532,532,532,532,532,532,532,532,532,532,532,532,532,532,532,532,532,532,532,532,532,532,532,531,515,500,485,467,446,404,393,381,368,358,331,314,295,275,254,205,188,176,163,154,139,130,121,111,101,80,72,69,66,64,58,56],"timestamp_mouse":[12,33,49,69,89,108,128,149,169,189,208,230,249,268,288,308,329,349,370,388,408,428,448,470,488,508,529,549,568,588,609,628,648,669,688,708,729,750,768,788,809,828,848,868,889,908,930,950,968,988,1010,1029,1049,1070,1088,1108,1128,1148,1169,1189,1208,1230,1249,1269,1289,1308,1328,1349,1368,1389,1408,1428,1448,1469,1489],"xSR":741.5,"ySR":469.95,"xT1":424.9,"yT1":0,"xT2":1058.1,"yT2":0,"toosoon":0,"cond_shown":"Incongruent","ratio_trial":200,"L_num":3,"L_den":4,"R_num":11,"R_den":20,"correct_side":1,"subjID":"JulianaMoraMOra4","gender":"1","school":"4","age":"8"},{"start_time":1552068778309,"click_time":1552068779863,"finger_time":1552068779262,"fix_duration":766.5769736769039,"trial":22,"RT":953,"MT":601,"sideResp":2,"stimulus":[],"xmouse":[754,754,754,754,754,754,754,754,754,754,754,754,754,754,754,754,754,754,754,754,754,754,754,754,754,754,754,754,754,754,754,754,754,754,754,754,754,754,754,754,754,754,754,754,751,749,748,748,750,754,757,759,765,769,773,778,781,786,790,792,795,797,801,805,809,813,817,820,827,829,834,838,857,874,905,927,963,1098],"ymouse":[535,535,535,535,535,535,535,535,535,535,535,535,535,535,535,535,535,535,535,535,535,535,535,535,535,535,535,535,535,535,535,535,535,535,535,535,535,535,535,535,535,535,535,529,520,502,486,466,425,404,384,365,334,323,308,299,291,278,271,264,259,254,243,238,230,220,212,208,199,195,188,184,169,160,142,130,112,55],"timestamp_mouse":[14,41,53,73,92,113,133,153,174,192,212,233,253,272,293,313,332,353,372,393,412,433,454,472,493,512,532,552,572,593,613,632,652,672,693,712,732,752,773,793,812,832,852,873,892,912,934,952,974,992,1012,1034,1054,1072,1093,1113,1133,1154,1172,1192,1213,1233,1253,1272,1292,1312,1332,1353,1372,1394,1413,1433,1453,1472,1493,1513,1534,1553],"xSR":741.5,"ySR":469.95,"xT1":424.9,"yT1":0,"xT2":1058.1,"yT2":0,"toosoon":0,"cond_shown":"Incongruent","ratio_trial":300,"L_num":13,"L_den":26,"R_num":12,"R_den":15,"correct_side":2,"subjID":"JulianaMoraMOra4","gender":"1","school":"4","age":"8"},{"start_time":1552068782300,"click_time":1552068784322,"finger_time":1552068783821,"fix_duration":1235.8946826650204,"trial":23,"RT":1521,"MT":501,"sideResp":1,"stimulus":[],"xmouse":[772,772,772,772,772,772,772,772,772,772,772,772,772,772,772,772,772,772,772,772,772,772,772,772,772,772,772,772,772,772,772,772,772,772,772,772,772,772,772,772,772,772,772,772,772,772,772,772,772,772,772,772,772,772,772,772,772,772,772,772,772,772,772,772,772,772,772,772,772,772,770,769,766,763,750,742,734,725,717,689,675,658,641,619,594,581,571,559,548,530,523,517,512,510,502,497,492,486,480,469,465,461],"ymouse":[529,529,529,529,529,529,529,529,529,529,529,529,529,529,529,529,529,529,529,529,529,529,529,529,529,529,529,529,529,529,529,529,529,529,529,529,529,529,529,529,529,529,529,529,529,529,529,529,529,529,529,529,529,529,529,529,529,529,529,529,529,529,529,529,529,529,529,529,529,529,524,521,517,512,495,487,477,466,455,425,408,389,369,340,305,287,273,259,247,231,225,220,215,213,194,182,170,156,143,116,106,99],"timestamp_mouse":[9,35,41,61,81,102,121,141,163,182,202,222,241,262,282,302,323,342,361,381,401,421,442,462,482,502,521,541,561,582,601,621,641,661,681,701,721,741,761,781,803,822,842,861,883,902,922,941,962,983,1001,1021,1042,1061,1083,1102,1122,1142,1161,1181,1201,1222,1241,1261,1282,1303,1322,1341,1361,1382,1401,1422,1442,1461,1481,1502,1521,1542,1562,1581,1601,1623,1641,1661,1681,1701,1721,1742,1762,1781,1801,1823,1842,1862,1881,1902,1922,1943,1962,1982,2002,2022],"xSR":741.5,"ySR":469.95,"xT1":424.9,"yT1":0,"xT2":1058.1,"yT2":0,"toosoon":0,"cond_shown":"Incongruent","ratio_trial":100,"L_num":4,"L_den":8,"R_num":8,"R_den":20,"correct_side":1,"subjID":"JulianaMoraMOra4","gender":"1","school":"4","age":"8"},{"start_time":1552068786022,"click_time":1552068787783,"finger_time":1552068787422,"fix_duration":880.0520492099001,"trial":24,"RT":1400,"MT":361,"sideResp":1,"stimulus":[],"xmouse":[793,793,793,793,793,793,793,793,793,793,793,793,793,793,793,793,793,793,793,793,793,793,793,793,793,793,793,793,793,793,793,793,793,793,793,793,793,793,794,795,796,796,797,797,798,798,798,798,798,798,798,798,798,798,798,798,798,798,798,798,798,798,793,789,785,782,779,768,759,748,734,718,685,666,648,625,610,595,567,558,547,540,531,527,522,510,501,478],"ymouse":[553,553,553,553,553,553,553,553,553,553,553,553,553,553,553,553,553,553,553,553,553,553,553,553,553,553,553,553,553,553,553,553,553,553,553,553,553,552,549,545,543,541,538,536,536,536,536,536,536,536,536,536,536,536,536,536,535,535,534,534,532,530,522,516,509,504,500,488,477,462,446,427,386,365,343,310,290,273,247,238,230,223,213,206,193,167,146,95],"timestamp_mouse":[19,39,59,79,100,120,140,159,179,200,219,239,259,280,299,320,339,359,379,399,419,440,459,479,499,521,539,560,579,599,621,641,659,679,699,720,740,759,779,800,820,839,859,880,900,921,939,959,979,999,1021,1041,1059,1079,1099,1119,1140,1159,1179,1199,1220,1239,1259,1280,1300,1320,1339,1360,1380,1400,1421,1440,1460,1480,1500,1520,1541,1560,1579,1599,1621,1640,1661,1679,1701,1719,1741,1760],"xSR":741.5,"ySR":469.95,"xT1":424.9,"yT1":0,"xT2":1058.1,"yT2":0,"toosoon":0,"cond_shown":"Congruent","ratio_trial":100,"L_num":2,"L_den":5,"R_num":11,"R_den":22,"correct_side":2,"subjID":"JulianaMoraMOra4","gender":"1","school":"4","age":"8"},{"start_time":1552068789892,"click_time":1552068791383,"finger_time":1552068791061,"fix_duration":269.48590469298205,"trial":25,"RT":1169,"MT":322,"sideResp":1,"stimulus":[],"xmouse":[793,793,793,793,793,793,793,793,793,793,793,793,793,793,793,793,793,793,793,793,793,793,793,793,793,793,793,793,793,793,793,793,793,793,793,793,793,793,793,793,793,793,793,793,793,793,793,793,793,793,793,793,793,793,793,793,782,765,745,721,664,619,593,574,560,542,538,534,529,525,513,508,505,503,497],"ymouse":[491,491,491,491,491,491,491,491,491,491,491,491,491,491,491,491,491,491,491,491,491,491,491,491,491,491,491,491,491,491,491,491,491,491,491,491,491,491,491,491,491,491,491,491,491,491,491,491,491,491,491,491,491,491,491,491,483,470,455,435,381,342,320,304,290,266,254,243,230,217,168,149,130,112,92],"timestamp_mouse":[9,41,49,70,90,111,130,149,170,189,210,229,249,269,290,310,331,350,370,389,409,430,449,469,490,511,531,550,570,590,610,629,649,669,689,709,729,749,769,790,810,829,850,869,889,911,931,950,969,989,1011,1029,1050,1069,1090,1111,1130,1151,1169,1189,1210,1229,1249,1269,1290,1310,1330,1349,1369,1390,1410,1430,1450,1470,1491],"xSR":741.5,"ySR":469.95,"xT1":424.9,"yT1":0,"xT2":1058.1,"yT2":0,"toosoon":0,"cond_shown":"Incongruent","ratio_trial":100,"L_num":9,"L_den":15,"R_num":13,"R_den":26,"correct_side":1,"subjID":"JulianaMoraMOra4","gender":"1","school":"4","age":"8"},{"start_time":1552068793778,"click_time":1552068795522,"finger_time":1552068795281,"fix_duration":1035.0256641921826,"trial":26,"RT":1503,"MT":241,"sideResp":1,"stimulus":[],"xmouse":[772,772,772,772,772,772,772,772,772,772,772,772,772,772,772,772,772,772,772,772,772,772,772,772,772,772,772,772,772,773,773,773,773,773,773,773,773,773,773,773,773,773,773,773,773,773,773,773,773,773,773,773,773,773,773,773,773,773,773,773,773,773,773,773,773,773,773,773,773,773,773,771,767,759,743,727,681,659,634,612,589,537,508,472,456,443,434,428],"ymouse":[520,520,520,520,520,520,520,520,520,520,520,520,520,520,520,520,520,520,520,520,520,520,520,520,520,520,520,520,520,521,521,521,522,522,522,522,522,522,522,522,522,522,523,523,523,523,523,523,523,523,523,523,523,523,523,523,523,523,523,523,523,523,523,523,523,523,523,523,523,523,523,523,522,517,504,491,451,430,407,382,351,279,242,187,158,134,113,84],"timestamp_mouse":[9,34,43,64,85,104,123,143,163,183,204,224,243,263,283,303,324,343,364,384,403,424,444,465,483,503,523,544,563,583,603,624,643,663,683,704,724,743,763,783,804,824,843,864,883,904,923,944,964,983,1005,1024,1043,1063,1083,1103,1124,1143,1163,1183,1204,1223,1243,1263,1283,1304,1323,1343,1363,1383,1403,1423,1443,1464,1483,1503,1523,1544,1563,1584,1604,1623,1644,1664,1684,1705,1724,1744],"xSR":741.5,"ySR":469.95,"xT1":424.9,"yT1":0,"xT2":1058.1,"yT2":0,"toosoon":0,"cond_shown":"Congruent","ratio_trial":100,"L_num":3,"L_den":6,"R_num":2,"R_den":5,"correct_side":1,"subjID":"JulianaMoraMOra4","gender":"1","school":"4","age":"8"},{"start_time":1552068797610,"click_time":1552068799303,"finger_time":1552068798862,"fix_duration":1085.538829745936,"trial":27,"RT":1252,"MT":441,"sideResp":1,"stimulus":[],"xmouse":[821,821,821,821,821,821,821,821,821,821,821,821,821,821,820,820,820,819,819,819,819,819,819,819,819,819,819,819,819,819,819,819,819,819,819,819,819,819,819,819,819,819,819,819,819,819,818,818,818,818,818,818,818,818,817,814,812,808,803,797,777,751,733,716,705,692,689,684,678,671,655,639,632,623,604,592,583,573,562,551,528,509,498,486,470],"ymouse":[521,519,518,518,517,517,516,515,515,515,515,515,515,514,514,514,514,514,513,513,513,513,513,513,513,513,513,513,513,513,513,513,513,513,513,513,513,513,513,513,513,513,513,513,513,513,513,513,513,513,513,513,513,513,513,513,513,513,513,513,505,489,478,468,461,451,447,438,429,415,378,346,325,304,265,247,232,220,206,193,162,141,124,109,86],"timestamp_mouse":[11,32,57,71,91,112,131,152,171,191,212,232,252,272,291,311,332,351,372,392,411,431,451,472,493,512,532,551,571,592,612,631,651,671,691,712,732,753,772,791,811,831,852,872,892,911,932,952,971,991,1011,1033,1052,1072,1092,1111,1132,1153,1172,1191,1211,1233,1252,1273,1291,1311,1331,1353,1373,1393,1411,1431,1451,1471,1493,1511,1532,1552,1572,1591,1611,1632,1653,1672,1693],"xSR":741.5,"ySR":469.95,"xT1":424.9,"yT1":0,"xT2":1058.1,"yT2":0,"toosoon":0,"cond_shown":"Incongruent","ratio_trial":200,"L_num":4,"L_den":5,"R_num":6,"R_den":10,"correct_side":1,"subjID":"JulianaMoraMOra4","gender":"1","school":"4","age":"8"},{"start_time":1552068806627,"click_time":1552068822581,"finger_time":1552068807941,"fix_duration":1343.9940533533058,"trial":28,"RT":1314,"MT":14640,"sideResp":1,"stimulus":[],"xmouse":[782,782,782,782,782,782,782,782,782,782,782,782,782,782,782,782,782,782,782,782,782,782,782,782,782,782,782,782,782,782,782,782,782,782,782,782,782,782,782,782,782,782,782,782,782,782,782,782,782,782,782,782,782,782,782,784,787,787,788,788,788,787,784,777,765,736,716,706,703,700,700,700,700,700,700,700,700,700,700,700,700,700,700,700,700,700,700,700,700,700,700,700,700,700,700,700,700,700,700,700,700,700,700,700,700,700,700,700,700,700,700,700,700,700,700,700,700,700,700,700,700,700,700,700,700,700,700,700,700,700,700,700,700,700,700,700,700,700,700,700,700,700,700,700,700,700,700,700,700,700,700,700,700,700,700,700,700,700,700,700,700,700,700,700,700,700,700,700,700,700,700,700,700,700,700,700,700,700,700,700,700,700,700,700,700,700,700,700,700,700,700,700,700,700,700,700,700,700,700,700,700,700,700,700,700,700,700,700,700,700,700,700,700,700,700,700,700,700,700,700,700,700,700,700,700,700,700,700,700,700,700,700,700,700,700,700,700,700,700,700,700,700,700,700,700,700,700,700,700,700,700,700,700,700,700,700,700,700,700,700,700,700,700,700,700,700,700,700,700,700,700,700,700,700,700,700,700,700,700,700,700,700,700,700,700,700,700,700,700,700,700,700,700,700,700,700,700,700,700,700,700,700,700,700,700,700,700,700,700,700,700,700,700,700,700,700,700,700,700,700,700,700,700,700,700,700,700,700,700,700,700,700,700,700,700,700,700,700,700,700,700,700,700,700,700,700,700,700,700,700,700,700,700,700,700,700,700,700,700,700,700,700,700,700,700,700,700,700,700,700,700,700,700,700,700,700,700,700,700,700,700,700,700,700,700,700,700,700,700,700,700,700,700,700,700,700,700,700,700,700,700,700,700,700,700,700,700,700,700,700,700,700,700,700,700,700,700,700,700,700,700,700,700,700,700,700,700,700,700,700,700,700,700,700,700,700,700,700,700,700,700,700,700,700,700,700,700,700,700,700,700,700,700,700,700,700,700,700,700,700,700,700,700,700,700,700,700,700,700,700,700,700,700,700,700,700,700,700,700,700,700,700,700,700,700,700,700,700,700,700,700,700,700,700,700,700,700,700,700,700,700,700,700,700,700,700,700,700,700,700,700,700,700,700,700,700,700,700,700,700,700,700,700,700,700,700,700,700,700,700,700,700,700,700,700,700,700,700,700,700,700,700,700,700,700,700,700,700,700,700,700,700,700,700,700,700,700,700,700,700,700,700,700,700,700,700,700,700,700,700,700,700,700,700,700,700,700,700,700,700,700,700,700,700,700,700,700,700,700,700,700,700,700,700,700,700,700,700,700,700,700,700,700,700,700,700,700,700,700,700,700,700,700,700,700,700,700,700,700,700,700,700,700,700,700,700,700,700,700,700,700,700,700,700,700,700,700,700,700,700,700,700,700,700,700,700,700,700,700,700,700,700,700,700,700,700,700,700,700,700,700,700,700,700,700,700,700,700,700,700,700,700,700,700,700,700,700,700,700,700,700,700,700,700,700,700,700,700,700,700,700,700,700,700,700,700,700,700,700,700,700,700,700,700,700,700,700,700,700,700,700,700,700,700,700,700,700,700,700,700,700,700,700,700,700,700,700,700,700,700,700,700,700,700,700,700,700,700,700,700,700,700,700,700,700,700,700,700,700,700,700,700,700,700,700,700,699,699,693,680,676,734,778,812,838,842,845,845,845,845,845,845,845,845,845,845,845,839,827,821,817,817,817,817,817,817,817,770,746,708,673,620,604,597,590,575,545,517],"ymouse":[607,607,607,607,607,607,607,607,607,607,607,607,607,607,607,607,607,607,607,607,607,607,607,607,607,607,607,607,607,607,607,607,607,607,607,607,607,607,607,607,607,607,607,607,607,607,607,607,607,607,607,607,607,607,607,605,599,592,591,591,591,590,590,590,590,590,592,595,595,596,596,596,596,596,596,596,596,596,596,596,596,596,596,596,596,596,596,596,596,596,596,596,596,596,596,596,596,596,596,596,596,596,596,596,596,596,596,596,596,596,596,596,596,596,596,596,596,596,596,596,596,596,596,596,596,596,596,596,596,596,596,596,596,596,596,596,596,596,596,596,596,596,596,596,596,596,596,596,596,596,596,596,596,596,596,596,596,596,596,596,596,596,596,596,596,596,596,596,596,596,596,596,596,596,596,596,596,596,596,596,596,596,596,596,596,596,596,596,596,596,596,596,596,596,596,596,596,596,596,596,596,596,596,596,596,596,596,596,596,596,596,596,596,596,596,596,596,596,596,596,596,596,596,596,596,596,596,596,596,596,596,596,596,596,596,596,596,596,596,596,596,596,596,596,596,596,596,596,596,596,596,596,596,596,596,596,596,596,596,596,596,596,596,596,596,596,596,596,596,596,596,596,596,596,596,596,596,596,596,596,596,596,596,596,596,596,596,596,596,596,596,596,596,596,596,596,596,596,596,596,596,596,596,596,596,596,596,596,596,596,596,596,596,596,596,596,596,596,596,596,596,596,596,596,596,596,596,596,596,596,596,596,596,596,596,596,596,596,596,596,596,596,596,596,596,596,596,596,596,596,596,596,596,596,596,596,596,596,596,596,596,596,596,596,596,596,596,596,596,596,596,596,596,596,596,596,596,596,596,596,596,596,596,596,596,596,596,596,596,596,596,596,596,596,596,596,596,596,596,596,596,596,596,596,596,596,596,596,596,596,596,596,596,596,596,596,596,596,596,596,596,596,596,596,596,596,596,596,596,596,596,596,596,596,596,596,596,596,596,596,596,596,596,596,596,596,596,596,596,596,596,596,596,596,596,596,596,596,596,596,596,596,596,596,596,596,596,596,596,596,596,596,596,596,596,596,596,596,596,596,596,596,596,596,596,596,596,596,596,596,596,596,596,596,596,596,596,596,596,596,596,596,596,596,596,596,596,596,596,596,596,596,596,596,596,596,596,596,596,596,596,596,596,596,596,596,596,596,596,596,596,596,596,596,596,596,596,596,596,596,596,596,596,596,596,596,596,596,596,596,596,596,596,596,596,596,596,596,596,596,596,596,596,596,596,596,596,596,596,596,596,596,596,596,596,596,596,596,596,596,596,596,596,596,596,596,596,596,596,596,596,596,596,596,596,596,596,596,596,596,596,596,596,596,596,596,596,596,596,596,596,596,596,596,596,596,596,596,596,596,596,596,596,596,596,596,596,596,596,596,596,596,596,596,596,596,596,596,596,596,596,596,596,596,596,596,596,596,596,596,596,596,596,596,596,596,596,596,596,596,596,596,596,596,596,596,596,596,596,596,596,596,596,596,596,596,596,596,596,596,596,596,596,596,596,596,596,596,596,596,596,596,596,596,596,596,596,596,596,596,596,596,596,596,596,596,596,596,596,596,596,596,596,596,596,596,596,596,596,596,596,596,596,596,596,596,596,596,596,596,596,596,596,596,596,596,596,596,596,596,596,596,596,596,596,596,596,596,596,596,596,596,596,596,596,596,587,516,435,387,364,214,104,24,0,0,0,0,0,0,0,0,1,1,1,2,3,12,27,36,43,43,43,43,43,43,43,76,75,68,64,56,51,49,45,39,31,27],"timestamp_mouse":[15,34,54,75,94,115,134,155,174,195,214,235,255,275,295,314,335,355,374,394,415,434,454,474,494,515,534,554,574,595,614,634,654,674,694,714,735,755,775,795,815,835,856,875,894,914,934,955,974,995,1014,1034,1056,1074,1095,1114,1134,1155,1175,1195,1215,1234,1254,1275,1294,1314,1334,1355,1376,1394,1414,1434,1455,1475,1494,1514,1534,1554,1575,1595,1614,1634,1654,1676,1694,1714,1734,1755,1775,1796,1814,1834,1855,1874,1894,1916,1935,1955,1974,1995,2015,2034,2054,2074,2094,2115,2134,2154,2174,2194,2215,2235,2254,2274,2295,2315,2334,2355,2374,2396,2414,2434,2455,2474,2494,2514,2534,2554,2574,2595,2614,2634,2654,2675,2695,2715,2734,2756,2775,2795,2814,2835,2855,2874,2894,2914,2934,2955,2975,2994,3015,3034,3054,3074,3094,3114,3134,3156,3176,3195,3214,3234,3254,3275,3294,3314,3334,3354,3374,3395,3414,3435,3455,3474,3495,3514,3534,3554,3575,3594,3614,3634,3655,3675,3695,3715,3735,3755,3774,3794,3814,3834,3855,3874,3894,3915,3934,3954,3974,3994,4014,4035,4055,4075,4095,4115,4135,4155,4175,4194,4214,4234,4254,4274,4294,4314,4334,4354,4375,4394,4414,4435,4455,4474,4494,4514,4535,4554,4574,4595,4614,4634,4655,4676,4695,4715,4734,4755,4775,4795,4816,4835,4854,4875,4896,4915,4935,4955,4974,4994,5014,5034,5056,5075,5095,5115,5135,5154,5174,5194,5214,5234,5254,5275,5296,5314,5335,5354,5374,5394,5414,5435,5454,5474,5494,5514,5534,5555,5575,5596,5615,5634,5655,5675,5696,5715,5735,5756,5774,5794,5814,5835,5855,5874,5895,5915,5936,5954,5975,5995,6016,6035,6054,6074,6094,6115,6135,6156,6174,6194,6215,6234,6254,6275,6295,6315,6334,6355,6374,6394,6415,6436,6454,6476,6495,6516,6535,6555,6575,6595,6615,6634,6654,6675,6695,6715,6734,6754,6776,6795,6815,6834,6854,6875,6894,6915,6934,6955,6974,6994,7015,7035,7055,7075,7094,7115,7135,7155,7174,7194,7215,7235,7254,7275,7295,7315,7335,7355,7375,7395,7416,7434,7455,7474,7494,7515,7535,7555,7574,7596,7615,7634,7654,7674,7696,7714,7734,7754,7775,7794,7816,7834,7854,7875,7896,7915,7934,7954,7974,7996,8016,8035,8055,8075,8094,8114,8134,8155,8174,8194,8214,8234,8256,8274,8294,8315,8335,8355,8376,8395,8415,8435,8454,8475,8494,8515,8534,8555,8574,8594,8616,8634,8654,8674,8694,8715,8734,8754,8774,8794,8815,8834,8855,8876,8894,8915,8935,8956,8974,8995,9014,9034,9055,9074,9094,9115,9134,9155,9174,9194,9215,9236,9254,9275,9295,9315,9334,9355,9375,9396,9415,9435,9454,9475,9494,9515,9534,9554,9575,9594,9615,9634,9655,9675,9695,9714,9734,9754,9774,9794,9814,9834,9854,9874,9894,9915,9934,9956,9975,9996,10015,10035,10055,10075,10096,10115,10134,10156,10175,10196,10214,10234,10255,10275,10296,10316,10334,10354,10374,10394,10415,10435,10455,10475,10494,10514,10534,10555,10574,10595,10616,10635,10655,10675,10694,10716,10735,10755,10774,10794,10814,10834,10854,10874,10894,10915,10935,10954,10975,10994,11015,11035,11054,11074,11094,11116,11135,11155,11174,11195,11216,11234,11255,11274,11295,11314,11334,11355,11375,11394,11414,11435,11455,11474,11494,11515,11534,11555,11575,11594,11615,11635,11654,11675,11696,11715,11734,11756,11775,11794,11816,11834,11855,11875,11894,11915,11934,11954,11974,11994,12016,12036,12055,12074,12096,12116,12134,12155,12174,12195,12215,12236,12255,12275,12294,12315,12334,12355,12375,12396,12416,12435,12454,12474,12494,12514,12535,12555,12574,12594,12615,12635,12655,12674,12695,12714,12734,12754,12775,12795,12815,12835,12855,12875,12894,12914,12935,12954,12974,12994,13014,13034,13054,13075,13096,13115,13136,13155,13175,13195,13214,13235,13254,13275,13295,13315,13334,13354,13375,13396,13415,13434,13455,13474,13495,13515,13534,13556,13575,13594,13615,13634,13655,13674,13694,13716,13734,13755,13775,13794,13814,13834,13855,13875,13895,13915,13936,13955,13975,13994,14015,14034,14055,14075,14094,14114,14134,14154,14174,14195,14215,14235,14256,14274,14294,14316,14335,14355,14375,14394,14416,14434,14454,14474,14494,14514,14535,14555,14574,14594,14615,14634,14655,14676,14695,14714,14735,14755,14774,14795,14815,14835,14854,14874,14894,14916,14935,14954,14974,14995,15016,15035,15056,15074,15094,15114,15135,15155,15176,15195,15214,15234,15255,15274,15298,15315,15335,15355,15374,15395,15415,15435,15454,15475,15495,15514,15535,15554,15575,15594,15613,15634,15654,15674,15695,15713,15735,15754,15774,15795,15813,15835,15854,15874,15894,15914,15934,15954],"xSR":741.5,"ySR":573.95,"xT1":424.9,"yT1":0,"xT2":1058.1,"yT2":0,"toosoon":0,"cond_shown":"Congruent","ratio_trial":100,"L_num":2,"L_den":5,"R_num":6,"R_den":12,"correct_side":2,"subjID":"JulianaMoraMOra4","gender":"1","school":"4","age":"8"},{"start_time":1552068825277,"click_time":1552068828003,"finger_time":1552068826680,"fix_duration":1454.3092417268488,"trial":29,"RT":1403,"MT":1323,"sideResp":1,"stimulus":[],"xmouse":[800,800,800,800,800,800,800,800,800,800,800,800,800,800,800,800,800,800,800,800,800,800,800,800,800,800,800,800,800,800,800,800,800,800,800,800,800,800,800,800,800,800,800,800,800,800,800,800,800,800,800,800,800,800,800,800,800,800,800,800,800,800,800,800,800,800,800,800,800,800,801,803,808,819,837,938,970,998,1019,1034,1054,1056,1057,1057,1057,1057,1057,1057,1057,1057,1057,1056,1056,1054,1054,1054,1054,1054,1054,1053,1047,1036,1019,993,930,832,720,666,638,621,606,605,604,604,604,604,604,603,603,603,608,609,609,610,610,605,602,597,586,572,559,555,551,548,544,529,524],"ymouse":[612,612,612,612,612,612,612,612,612,612,612,612,612,612,612,612,612,612,612,612,612,612,612,612,612,612,612,612,612,612,612,612,612,612,612,612,612,612,612,612,612,612,612,612,612,612,612,612,612,612,612,612,612,612,612,612,612,612,612,612,612,612,610,609,602,591,585,581,578,576,571,565,555,536,499,230,111,14,0,0,0,0,0,0,0,0,0,0,0,0,0,0,0,0,0,0,0,0,0,1,3,6,10,18,36,55,65,65,65,65,66,66,67,67,67,67,67,67,67,67,64,63,61,60,59,52,49,49,47,45,43,43,43,43,43,43,43],"timestamp_mouse":[9,37,45,64,83,104,123,144,164,184,204,224,244,264,283,304,324,344,364,384,404,424,444,464,483,505,524,544,565,584,604,624,644,664,684,704,724,744,764,785,804,824,844,864,883,904,923,944,963,984,1004,1023,1043,1064,1084,1104,1124,1144,1164,1184,1204,1224,1245,1264,1284,1304,1323,1344,1363,1383,1403,1424,1444,1464,1483,1504,1524,1545,1564,1584,1604,1624,1644,1665,1684,1704,1724,1744,1765,1785,1804,1824,1845,1863,1883,1905,1924,1944,1964,1984,2004,2025,2045,2065,2084,2104,2124,2145,2165,2184,2205,2224,2244,2264,2283,2304,2323,2343,2364,2384,2404,2424,2444,2465,2484,2503,2524,2544,2565,2584,2604,2625,2645,2664,2683,2704,2725],"xSR":741.5,"ySR":573.95,"xT1":424.9,"yT1":0,"xT2":1058.1,"yT2":0,"toosoon":0,"cond_shown":"Congruent","ratio_trial":100,"L_num":4,"L_den":10,"R_num":15,"R_den":30,"correct_side":2,"subjID":"JulianaMoraMOra4","gender":"1","school":"4","age":"8"},{"start_time":1552068829926,"click_time":1552068830781,"finger_time":1552068830621,"fix_duration":744.993278490392,"trial":30,"RT":695,"MT":160,"sideResp":2,"stimulus":[],"xmouse":[821,821,821,821,821,821,821,821,821,821,821,821,821,821,821,821,821,821,821,821,821,821,821,821,821,821,821,821,821,821,821,821,821,829,842,869,906,972,1003,1028,1041,1051,1064],"ymouse":[621,621,621,621,621,621,621,621,621,621,621,621,621,621,621,621,621,621,621,621,621,621,621,621,621,621,621,621,621,621,621,621,620,604,574,514,443,289,219,142,110,88,58],"timestamp_mouse":[15,34,55,75,94,115,135,156,175,195,215,236,255,275,295,315,334,355,375,395,415,435,455,476,495,515,535,555,574,595,616,635,655,676,695,715,735,755,774,795,815,835,855],"xSR":741.5,"ySR":573.95,"xT1":424.9,"yT1":0,"xT2":1058.1,"yT2":0,"toosoon":0,"cond_shown":"Congruent","ratio_trial":200,"L_num":5,"L_den":10,"R_num":14,"R_den":20,"correct_side":2,"subjID":"JulianaMoraMOra4","gender":"1","school":"4","age":"8"},{"start_time":1552068834056,"click_time":1552068837261,"finger_time":1552068834840,"fix_duration":414.43012154247896,"trial":31,"RT":784,"MT":2421,"sideResp":2,"stimulus":[],"xmouse":[788,788,788,788,788,788,788,788,788,788,788,788,788,788,788,788,788,788,788,788,788,787,787,787,787,787,787,787,787,787,787,787,787,787,787,787,786,772,742,715,698,694,694,694,694,694,694,693,693,693,693,693,693,693,693,693,693,693,693,693,693,693,693,693,693,693,693,697,711,731,759,797,859,871,879,884,886,887,887,887,887,887,892,898,909,918,924,932,934,934,934,934,934,934,933,930,922,905,895,885,872,840,807,804,800,800,800,800,800,800,800,800,798,798,798,798,798,798,798,798,798,798,798,798,798,798,798,798,798,798,798,800,813,825,842,856,872,895,903,916,930,940,992,1010,1023,1036,1047,1055,1057,1057,1057,1057,1057,1057,1057,1057,1057,1057,1057,1057,1059],"ymouse":[666,666,666,666,666,666,666,666,666,666,666,666,666,666,666,666,666,666,666,666,666,666,666,666,666,666,666,666,666,666,666,666,666,666,666,666,666,665,644,622,605,601,601,601,601,601,601,600,600,600,600,600,600,600,600,600,600,600,600,600,600,600,600,600,600,600,600,578,522,461,402,342,260,244,235,232,231,230,230,230,230,230,230,227,218,211,205,196,195,195,195,195,195,195,195,195,203,227,244,268,302,379,478,506,528,540,543,543,543,543,543,545,558,564,567,569,569,569,569,569,569,569,569,569,570,570,570,570,570,570,570,562,530,502,464,436,409,365,343,315,284,269,194,167,141,117,99,77,73,71,71,71,71,71,71,71,71,71,71,70,68],"timestamp_mouse":[13,24,47,65,84,105,126,145,165,185,205,225,246,266,286,305,325,345,365,386,406,425,445,465,485,504,525,546,566,586,605,625,645,666,685,705,725,746,765,784,806,826,845,865,885,906,925,945,965,986,1005,1024,1044,1064,1086,1104,1125,1145,1165,1186,1205,1226,1245,1266,1284,1304,1325,1345,1365,1386,1405,1425,1445,1466,1485,1505,1525,1545,1566,1585,1605,1625,1645,1665,1685,1704,1725,1746,1765,1785,1805,1825,1845,1865,1885,1906,1926,1945,1965,1985,2005,2026,2045,2065,2086,2104,2126,2145,2165,2185,2204,2225,2245,2265,2285,2306,2325,2346,2366,2384,2404,2426,2444,2465,2485,2504,2526,2545,2565,2585,2604,2625,2645,2665,2685,2705,2726,2746,2766,2786,2805,2825,2845,2865,2886,2905,2925,2946,2966,2986,3005,3025,3044,3065,3085,3105,3125,3145,3166,3185,3205],"xSR":741.5,"ySR":573.95,"xT1":424.9,"yT1":0,"xT2":1058.1,"yT2":0,"toosoon":0,"cond_shown":"Incongruent","ratio_trial":300,"L_num":7,"L_den":10,"R_num":8,"R_den":20,"correct_side":1,"subjID":"JulianaMoraMOra4","gender":"1","school":"4","age":"8"},{"start_time":1552068839636,"click_time":1552068841221,"finger_time":1552068840241,"fix_duration":912.0157707974224,"trial":32,"RT":605,"MT":980,"sideResp":1,"stimulus":[],"xmouse":[819,819,819,819,819,819,819,819,819,819,819,819,819,819,819,819,819,819,819,819,819,819,819,819,819,819,819,819,819,829,843,875,905,953,970,984,997,1008,1026,1032,1036,1039,1039,1039,1034,1031,1031,1031,1031,1030,1030,1030,1030,1026,1022,1016,1010,1004,998,972,944,889,848,769,729,694,644,597,550,487,471,469,469,469,469,469,469,469,469,482],"ymouse":[636,636,636,636,636,636,636,636,636,636,636,636,636,636,636,636,636,636,636,636,636,636,636,636,636,636,636,636,636,631,612,571,534,456,406,360,314,275,216,196,177,156,143,130,111,106,105,105,105,104,104,104,104,104,104,105,105,106,108,110,112,112,112,98,90,74,50,23,1,0,0,0,0,0,0,0,0,0,0,3],"timestamp_mouse":[9,35,45,64,85,106,125,145,166,185,205,225,246,265,286,305,325,345,366,386,404,425,445,465,485,506,525,545,564,585,605,625,646,664,685,706,726,745,765,784,805,825,845,865,885,905,925,945,966,984,1005,1025,1045,1066,1085,1106,1126,1145,1165,1185,1206,1226,1245,1265,1285,1305,1325,1345,1365,1384,1406,1425,1446,1466,1485,1505,1525,1545,1566,1585],"xSR":741.5,"ySR":573.95,"xT1":424.9,"yT1":0,"xT2":1058.1,"yT2":0,"toosoon":0,"cond_shown":"Congruent","ratio_trial":200,"L_num":3,"L_den":10,"R_num":14,"R_den":28,"correct_side":2,"subjID":"JulianaMoraMOra4","gender":"1","school":"4","age":"8"},{"start_time":1552068843581,"click_time":1552068844821,"finger_time":1552068844282,"fix_duration":1118.2654004811102,"trial":33,"RT":701,"MT":539,"sideResp":1,"stimulus":[],"xmouse":[827,827,827,827,827,827,827,827,827,827,827,827,827,827,827,827,827,827,827,827,827,827,827,827,827,827,827,827,827,827,827,827,827,827,827,827,827,828,828,828,828,828,828,828,828,828,828,828,828,828,828,824,814,806,796,782,770,743,719,679,634,569,507],"ymouse":[580,580,580,580,580,580,580,580,580,580,580,580,580,580,580,580,580,580,580,580,580,580,580,580,580,580,578,577,577,576,576,576,575,575,574,573,573,572,572,572,571,571,569,568,568,568,568,568,567,564,560,547,512,492,471,448,426,370,323,264,201,124,56],"timestamp_mouse":[9,20,40,60,79,100,121,139,161,180,200,219,240,261,280,300,320,340,360,380,400,420,440,460,480,500,520,541,560,580,599,620,640,659,680,701,720,740,760,780,799,821,840,860,880,900,920,941,960,980,1000,1021,1040,1060,1080,1101,1120,1140,1161,1180,1200,1219,1240],"xSR":741.5,"ySR":573.95,"xT1":424.9,"yT1":0,"xT2":1058.1,"yT2":0,"toosoon":0,"cond_shown":"Congruent","ratio_trial":100,"L_num":3,"L_den":6,"R_num":2,"R_den":5,"correct_side":1,"subjID":"JulianaMoraMOra4","gender":"1","school":"4","age":"8"},{"start_time":1552068846369,"click_time":1552068849521,"finger_time":1552068847821,"fix_duration":547.8870521732705,"trial":34,"RT":1452,"MT":1700,"sideResp":1,"stimulus":[],"xmouse":[754,754,754,754,754,754,754,754,754,754,754,754,754,754,754,754,754,754,754,754,754,754,754,754,754,754,754,754,754,754,754,754,754,754,754,754,754,754,754,754,754,754,754,754,754,754,754,754,754,754,754,754,754,754,754,754,754,754,754,754,754,754,754,754,757,758,760,765,768,771,775,782,795,803,816,832,849,881,902,933,941,957,963,965,967,972,980,988,1004,1011,1018,1019,1020,1020,1021,1021,1022,1023,1024,1024,1024,1024,1024,1024,1024,1024,1023,1012,997,963,939,917,887,880,875,869,860,838,816,804,794,785,778,773,771,769,769,769,769,769,769,769,769,769,769,767,763,732,722,710,696,687,662,652,640,630,627,623,617,604,588,569,549,545,540,535,529,522],"ymouse":[612,612,612,612,612,612,612,612,612,612,612,612,612,612,612,612,612,612,612,612,612,612,612,612,612,612,612,612,612,612,612,612,612,612,612,612,612,612,612,612,612,612,612,612,612,612,612,612,612,612,612,612,612,612,612,612,612,612,612,612,612,612,612,612,611,609,608,600,597,591,586,576,560,549,530,507,485,438,400,326,304,254,231,225,217,204,187,168,133,118,107,104,102,102,101,101,100,98,96,96,96,96,96,96,96,95,95,96,98,102,103,105,105,105,105,105,102,91,84,82,78,77,75,75,75,74,74,74,74,74,74,74,74,74,74,74,74,75,75,74,71,70,58,51,44,39,37,35,34,34,34,34,35,35,35,37,38,39],"timestamp_mouse":[12,32,53,73,92,112,132,151,171,192,212,232,252,272,291,313,332,352,372,392,412,431,452,472,493,512,532,552,571,592,612,632,651,672,692,713,732,753,772,792,812,832,853,873,891,911,932,952,972,992,1011,1033,1052,1072,1092,1112,1132,1152,1172,1192,1212,1232,1251,1273,1292,1313,1331,1351,1371,1392,1412,1433,1452,1471,1492,1513,1532,1552,1571,1592,1612,1632,1652,1674,1692,1712,1732,1752,1772,1793,1811,1832,1853,1873,1891,1913,1933,1952,1972,1992,2012,2033,2052,2073,2092,2113,2133,2153,2172,2193,2212,2232,2252,2272,2292,2313,2332,2352,2372,2393,2413,2433,2452,2473,2492,2512,2532,2552,2572,2591,2612,2633,2652,2672,2692,2713,2732,2752,2772,2792,2812,2832,2852,2872,2892,2912,2932,2952,2972,2992,3012,3031,3052,3072,3093,3113,3132,3152],"xSR":741.5,"ySR":573.95,"xT1":424.9,"yT1":0,"xT2":1058.1,"yT2":0,"toosoon":0,"cond_shown":"Incongruent","ratio_trial":100,"L_num":4,"L_den":8,"R_num":8,"R_den":20,"correct_side":1,"subjID":"JulianaMoraMOra4","gender":"1","school":"4","age":"8"},{"start_time":1552068850973,"click_time":1552068852261,"finger_time":1552068852042,"fix_duration":250,"trial":35,"RT":1069,"MT":219,"sideResp":2,"stimulus":[],"xmouse":[795,795,795,795,795,795,795,795,795,795,795,795,795,795,795,795,795,795,795,795,795,795,795,795,795,795,795,795,795,795,795,795,795,795,795,795,795,795,795,795,795,795,795,795,795,796,798,801,810,815,820,828,834,845,853,866,882,898,924,951,977,1003,1032,1101,1124],"ymouse":[635,635,635,635,635,635,635,635,635,635,635,635,635,635,635,635,635,635,635,635,635,635,635,635,635,635,635,635,635,635,635,635,635,635,635,635,635,635,635,635,635,635,635,635,635,633,631,627,615,609,602,594,585,571,559,542,521,498,453,406,365,316,263,138,84],"timestamp_mouse":[12,33,49,68,89,108,128,149,169,188,208,228,248,267,288,308,328,348,368,388,408,428,448,468,488,508,528,548,568,588,608,628,647,668,688,708,728,747,768,789,808,829,848,868,889,907,928,948,968,988,1008,1029,1047,1069,1088,1108,1128,1148,1168,1188,1208,1229,1249,1267,1288],"xSR":741.5,"ySR":573.95,"xT1":424.9,"yT1":0,"xT2":1058.1,"yT2":0,"toosoon":0,"cond_shown":"Incongruent","ratio_trial":300,"L_num":13,"L_den":26,"R_num":12,"R_den":15,"correct_side":2,"subjID":"JulianaMoraMOra4","gender":"1","school":"4","age":"8"},{"start_time":1552068853893,"click_time":1552068855582,"finger_time":1552068855441,"fix_duration":250,"trial":36,"RT":1548,"MT":141,"sideResp":2,"stimulus":[],"xmouse":[790,790,790,790,790,790,790,790,790,790,790,790,790,790,790,790,790,790,790,791,792,793,797,798,799,799,800,800,800,800,800,801,801,801,801,804,805,807,808,808,809,809,809,809,809,809,809,809,809,809,809,809,809,809,809,809,809,809,809,809,809,809,809,809,809,809,809,809,809,809,809,809,809,809,809,815,818,840,863,895,928,992,1074,1101,1116],"ymouse":[643,643,643,643,643,643,643,643,643,643,643,643,643,643,643,643,643,643,643,643,641,640,636,634,633,633,632,632,632,632,632,631,631,631,631,628,626,620,617,615,613,612,611,610,610,609,608,604,603,602,602,602,602,602,602,602,602,602,602,602,602,602,602,602,602,602,602,602,602,602,602,602,602,602,602,589,582,542,502,446,385,283,161,120,96],"timestamp_mouse":[8,28,49,78,88,108,128,148,169,188,208,228,247,268,288,308,329,348,369,388,408,428,448,468,488,509,528,548,567,588,608,628,648,668,688,709,728,748,767,789,808,829,848,868,888,909,929,947,968,988,1007,1027,1047,1067,1087,1107,1127,1148,1169,1189,1209,1227,1248,1267,1288,1307,1328,1348,1368,1388,1408,1427,1448,1468,1488,1508,1528,1548,1568,1589,1609,1628,1648,1669,1689],"xSR":741.5,"ySR":573.95,"xT1":424.9,"yT1":0,"xT2":1058.1,"yT2":0,"toosoon":0,"cond_shown":"Incongruent","ratio_trial":100,"L_num":3,"L_den":5,"R_num":11,"R_den":22,"correct_side":1,"subjID":"JulianaMoraMOra4","gender":"1","school":"4","age":"8"},{"start_time":1552068861316,"click_time":1552068862982,"finger_time":1552068862082,"fix_duration":792.9231614678349,"trial":37,"RT":766,"MT":900,"sideResp":1,"stimulus":[],"xmouse":[786,786,786,786,786,786,786,786,786,786,786,786,786,786,786,786,786,786,786,786,786,786,786,786,786,786,786,786,786,788,789,789,789,790,790,790,790,790,790,790,790,790,790,790,790,790,790,783,778,772,764,757,738,729,723,717,711,706,703,700,694,688,674,666,659,652,636,621,612,605,599,595,588,584,581,578,573,561,552,547,541,536,529,524],"ymouse":[618,618,618,618,618,618,618,618,618,618,618,618,618,618,618,618,618,618,618,618,618,618,618,618,618,618,618,616,613,609,605,601,596,593,589,585,581,575,573,572,570,570,569,568,565,563,559,545,534,524,510,497,471,456,443,427,409,390,379,364,345,322,282,266,253,239,215,187,173,161,149,142,131,127,125,124,122,113,106,102,98,94,87,81],"timestamp_mouse":[9,25,45,65,84,105,125,145,164,185,205,226,245,265,285,305,325,344,365,385,406,425,445,465,485,505,525,545,565,585,605,625,645,665,686,706,725,745,766,785,806,825,844,865,885,905,925,945,966,985,1005,1025,1046,1066,1085,1105,1125,1145,1166,1185,1204,1225,1246,1265,1284,1305,1326,1345,1366,1385,1405,1425,1444,1466,1485,1505,1525,1545,1565,1585,1605,1625,1646,1665],"xSR":741.5,"ySR":573.95,"xT1":424.9,"yT1":0,"xT2":1058.1,"yT2":0,"toosoon":0,"cond_shown":"Congruent","ratio_trial":200,"L_num":13,"L_den":26,"R_num":14,"R_den":20,"correct_side":2,"subjID":"JulianaMoraMOra4","gender":"1","school":"4","age":"8"},{"start_time":1552068865685,"click_time":1552068868141,"finger_time":1552068866741,"fix_duration":1002.5695044424153,"trial":38,"RT":1056,"MT":1400,"sideResp":1,"stimulus":[],"xmouse":[743,743,743,743,743,743,743,743,743,743,743,743,743,743,743,743,743,743,743,747,750,752,753,754,754,754,754,754,754,754,754,755,755,755,755,755,755,755,755,755,755,755,755,755,755,755,755,755,755,756,757,758,758,762,764,767,772,775,786,790,791,791,791,791,791,791,791,791,790,788,786,786,785,775,758,754,752,751,748,740,729,716,705,690,684,681,678,673,666,652,640,625,611,592,589,589,589,588,581,577,573,570,570,569,558,552,545,543,540,540,540,540,540,540,540,539,535,534,531,530,530,528,524],"ymouse":[642,642,642,642,642,642,642,642,642,642,642,642,642,642,642,642,642,642,642,639,635,628,618,604,600,600,600,600,600,600,599,598,597,597,597,597,597,597,597,597,597,597,597,597,597,597,597,597,592,589,583,577,569,544,529,510,474,447,373,346,310,274,241,186,162,140,114,96,67,59,56,56,56,56,57,58,58,58,58,58,58,58,58,59,59,59,59,59,59,59,60,62,64,67,67,67,67,66,49,41,34,30,30,29,29,29,29,29,29,29,29,29,29,29,29,29,29,29,30,30,30,30,31],"timestamp_mouse":[16,37,56,76,96,116,135,156,176,196,216,236,256,276,296,316,336,356,376,396,416,436,456,476,495,516,537,556,576,596,616,636,656,676,696,717,735,756,777,797,817,836,856,876,896,917,935,955,975,996,1017,1036,1056,1076,1095,1117,1137,1157,1176,1196,1217,1237,1257,1276,1297,1317,1337,1357,1375,1395,1416,1436,1456,1476,1496,1516,1536,1556,1576,1595,1616,1636,1656,1676,1695,1716,1736,1757,1775,1795,1816,1837,1856,1876,1896,1916,1935,1957,1976,1997,2017,2036,2057,2076,2095,2116,2136,2156,2176,2196,2216,2237,2256,2277,2297,2316,2336,2356,2376,2395,2416,2437,2456],"xSR":741.5,"ySR":573.95,"xT1":424.9,"yT1":0,"xT2":1058.1,"yT2":0,"toosoon":0,"cond_shown":"Incongruent","ratio_trial":100,"L_num":9,"L_den":15,"R_num":14,"R_den":28,"correct_side":1,"subjID":"JulianaMoraMOra4","gender":"1","school":"4","age":"8"},{"start_time":1552068870994,"click_time":1552068874681,"finger_time":1552068874081,"fix_duration":451.17605567476835,"trial":39,"RT":3087,"MT":600,"sideResp":2,"stimulus":[],"xmouse":[754,754,754,754,754,754,754,754,754,754,754,754,754,754,754,754,754,754,754,754,754,754,754,754,754,754,754,754,754,754,754,754,754,754,754,754,754,754,754,754,754,754,754,754,754,755,755,755,755,755,755,755,755,755,755,755,755,756,756,757,758,760,761,762,764,765,766,767,767,768,769,769,769,769,769,769,769,769,769,769,769,769,769,769,769,769,769,769,769,769,769,769,769,769,769,769,769,769,769,769,769,769,769,771,773,774,776,778,780,782,782,782,782,782,782,782,782,782,782,782,782,782,782,782,782,785,790,797,800,805,806,806,806,806,806,806,806,806,806,806,803,799,795,790,785,785,785,785,785,785,784,788,796,809,842,861,890,920,944,979,985,992,996,999,1000,1000,1000,1000,1000,1000,1000,1007,1021,1040,1073,1089,1100,1102,1104,1104,1104,1104,1104,1104,1104],"ymouse":[659,659,659,659,659,659,659,659,659,659,659,659,659,659,659,659,659,659,659,659,659,659,659,659,659,659,659,659,659,659,659,659,659,659,659,659,659,659,659,659,659,659,659,659,658,656,656,656,656,656,656,656,656,656,656,656,656,653,652,647,645,642,640,636,630,627,624,620,617,615,614,614,614,614,614,614,614,614,614,614,614,614,614,614,614,614,614,614,614,614,614,618,620,623,628,629,631,631,632,632,632,632,632,634,638,640,641,644,645,645,645,645,645,645,645,645,645,645,645,645,645,645,645,645,645,644,640,633,630,626,626,626,626,626,626,626,626,626,626,626,626,626,628,629,631,631,631,631,631,631,630,622,611,593,550,526,487,443,401,318,291,263,233,208,186,182,182,182,182,182,180,174,165,153,129,117,107,103,101,100,100,100,100,100,99],"timestamp_mouse":[7,27,47,68,87,107,127,147,167,186,206,227,247,267,287,307,327,347,367,387,407,427,447,466,487,507,527,547,568,587,608,627,647,667,687,707,728,747,767,787,808,827,848,867,888,908,927,947,967,987,1008,1027,1047,1066,1087,1108,1127,1147,1168,1186,1208,1227,1246,1267,1287,1307,1326,1347,1368,1387,1407,1427,1447,1467,1487,1507,1527,1546,1567,1588,1608,1626,1648,1667,1687,1707,1727,1748,1768,1787,1808,1827,1847,1867,1886,1906,1927,1947,1967,1988,2007,2028,2048,2067,2086,2107,2127,2148,2168,2187,2207,2227,2247,2267,2287,2307,2327,2347,2367,2387,2408,2427,2447,2467,2488,2508,2527,2547,2568,2586,2606,2627,2647,2666,2687,2707,2727,2747,2768,2787,2807,2828,2847,2867,2887,2907,2927,2947,2968,2987,3007,3027,3048,3067,3087,3107,3128,3148,3167,3187,3207,3228,3248,3266,3287,3307,3327,3347,3367,3387,3408,3427,3447,3467,3487,3506,3527,3547,3567,3587,3607,3627,3647,3667,3687],"xSR":741.5,"ySR":573.95,"xT1":424.9,"yT1":0,"xT2":1058.1,"yT2":0,"toosoon":0,"cond_shown":"Incongruent","ratio_trial":100,"L_num":1,"L_den":2,"R_num":8,"R_den":20,"correct_side":1,"subjID":"JulianaMoraMOra4","gender":"1","school":"4","age":"8"},{"start_time":1552068876618,"click_time":1552068879701,"finger_time":1552068877521,"fix_duration":956.981647727658,"trial":40,"RT":903,"MT":2180,"sideResp":1,"stimulus":[],"xmouse":[776,776,776,776,776,776,776,776,776,776,776,776,776,776,776,776,776,776,776,776,776,776,776,776,776,776,776,776,776,776,776,776,776,776,776,776,776,776,777,778,779,781,781,783,792,797,803,807,811,820,824,830,835,840,849,853,855,856,857,858,858,858,858,859,862,862,862,862,862,866,870,874,877,881,892,897,903,906,906,913,916,917,917,917,917,917,917,917,917,917,917,917,917,917,917,917,917,916,912,906,905,905,905,905,905,905,905,905,905,905,905,905,903,898,888,886,876,856,835,797,780,765,751,733,717,701,681,661,633,624,612,593,574,559,539,539,538,538,538,538,538,538,538,538,538,538,538,538,537,536,533,532,529,528,523],"ymouse":[615,615,615,615,615,615,615,615,615,615,615,615,615,615,615,615,615,615,615,615,615,615,615,615,615,615,615,615,615,615,615,615,615,615,615,615,615,615,612,609,607,604,600,595,575,566,557,550,541,527,519,511,504,496,481,474,468,464,462,458,456,454,452,436,413,397,382,369,355,333,321,309,298,286,259,245,232,225,225,210,206,203,202,202,202,202,202,202,202,202,202,202,202,202,202,202,201,201,201,201,201,201,201,201,201,201,201,201,201,201,201,200,200,200,200,200,200,197,194,181,176,171,167,160,154,147,135,122,96,89,80,70,61,55,50,50,50,50,50,50,50,50,50,50,50,50,50,50,50,50,50,50,50,50,50],"timestamp_mouse":[12,37,43,64,83,102,123,143,163,183,203,223,243,262,282,303,323,343,363,382,403,423,442,463,483,502,523,543,563,583,603,622,643,663,683,703,723,743,763,784,804,822,843,863,883,903,923,944,963,984,1003,1024,1042,1063,1083,1104,1124,1144,1162,1183,1203,1224,1244,1264,1283,1302,1323,1343,1363,1383,1404,1423,1443,1462,1483,1503,1522,1543,1563,1582,1603,1623,1643,1662,1683,1703,1724,1743,1763,1782,1804,1823,1843,1863,1883,1902,1922,1943,1963,1983,2003,2023,2043,2063,2083,2103,2122,2142,2163,2183,2203,2224,2244,2262,2283,2303,2323,2344,2363,2383,2403,2423,2443,2464,2482,2503,2522,2544,2564,2582,2603,2623,2642,2662,2683,2703,2723,2743,2763,2783,2803,2822,2843,2863,2883,2903,2923,2942,2964,2982,3003,3023,3043,3063,3083],"xSR":741.5,"ySR":573.95,"xT1":424.9,"yT1":0,"xT2":1058.1,"yT2":0,"toosoon":0,"cond_shown":"Incongruent","ratio_trial":300,"L_num":4,"L_den":20,"R_num":2,"R_den":4,"correct_side":2,"subjID":"JulianaMoraMOra4","gender":"1","school":"4","age":"8"},{"start_time":1552068881483,"click_time":1552068882962,"finger_time":1552068882362,"fix_duration":1061.968509639257,"trial":41,"RT":879,"MT":600,"sideResp":1,"stimulus":[],"xmouse":[768,768,768,768,768,768