[{"start_time":1552313011641,"click_time":1552313022848,"finger_time":1552313011653,"fix_duration":1471.5231795363325,"trial":0,"RT":12,"MT":11195,"sideResp":1,"stimulus":[],"xmouse":[793,793,793,793,793,793,793,793,793,793,793,793,793,793,793,793,793,793,793,793,793,793,793,793,793,793,793,793,793,793,793,793,793,793,793,793,793,793,793,793,793,793,793,793,793,793,793,793,793,793,788,783,777,773,773,773,773,773,773,773,773,773,773,773,773,773,773,773,773,773,773,773,773,773,773,773,773,773,773,773,773,773,773,773,773,773,773,773,773,773,773,773,773,773,773,773,773,773,773,773,773,773,773,773,773,773,774,775,775,775,775,775,775,775,775,775,775,775,775,775,775,775,775,775,775,775,775,775,775,775,775,775,775,775,777,779,780,780,780,780,780,780,780,780,780,780,780,780,780,780,780,780,780,780,781,782,782,782,782,782,782,782,782,782,782,782,782,782,782,782,783,783,783,783,783,783,783,784,788,793,795,795,795,795,796,797,797,798,798,798,798,798,798,799,799,798,797,794,790,784,782,781,781,781,781,781,781,781,781,781,781,781,781,781,781,781,781,781,781,781,781,781,781,781,781,781,781,781,781,781,781,782,783,784,785,785,785,785,785,785,785,785,785,785,785,785,785,785,785,785,785,785,785,785,785,785,785,785,785,785,785,785,785,785,785,785,785,785,785,785,785,785,785,785,785,785,785,785,785,785,785,785,785,785,785,785,785,785,785,785,785,785,785,785,785,785,785,785,785,785,785,785,785,785,785,785,785,785,785,785,785,785,785,785,785,785,785,785,785,785,785,785,785,784,783,783,783,783,783,783,783,783,783,783,783,783,783,783,782,782,782,782,782,782,782,782,782,782,782,782,782,782,782,782,782,782,782,782,782,782,782,782,782,782,782,782,782,782,782,782,782,782,782,782,782,782,782,782,781,781,781,781,781,781,781,781,781,781,781,781,781,781,781,781,781,781,781,781,781,781,781,781,781,781,781,781,781,781,781,781,781,781,781,781,781,781,781,781,781,781,781,781,781,781,781,781,779,774,769,767,767,767,778,791,826,845,845,845,845,787,720,660,646,646,646,651,657,667,674,685,692,697,704,708,711,713,714,718,725,743,750,759,770,785,801,801,801,801,801,801,801,801,801,801,801,801,801,801,801,801,801,801,801,801,801,801,801,801,801,801,801,801,801,800,796,793,793,793,793,793,793,793,793,793,793,793,793,793,793,790,785,775,740,682,436,314,193,79,0,0,0,0,0,0,0,0,0,3,11,36,55,76,95,120,135,153,156,156,157,157,164,168,171,174,177,182,188,197,208,236,252,266,285,297,305,322,334,352,378,412,437],"ymouse":[533,533,533,533,533,533,533,533,533,533,533,533,533,533,533,533,533,533,533,533,533,533,533,533,533,533,533,533,533,533,533,533,533,533,533,533,533,533,533,533,533,533,533,533,533,533,533,533,533,533,537,547,563,580,580,580,580,580,580,580,580,580,580,580,580,580,580,580,580,580,580,580,580,580,580,580,580,580,580,580,580,580,580,580,580,580,580,580,580,580,580,580,580,580,580,580,580,581,582,584,585,586,586,586,588,589,592,593,594,594,594,594,594,594,594,594,594,594,594,594,594,594,594,594,594,594,594,594,594,594,597,600,603,610,614,616,619,619,619,619,619,619,619,619,619,619,619,619,619,619,619,619,619,619,619,619,619,619,619,619,619,619,619,619,619,619,619,619,619,619,620,621,622,622,622,622,622,623,623,623,623,623,623,623,623,623,623,623,623,623,623,623,623,622,622,621,620,618,615,614,613,613,612,612,612,612,612,612,612,612,612,612,612,612,612,612,612,612,612,612,612,612,612,612,612,612,612,612,612,612,612,612,612,612,612,612,612,612,613,613,613,613,613,613,613,613,613,613,613,613,613,613,613,613,613,613,613,613,613,613,613,613,613,613,613,613,613,613,613,613,613,613,613,613,613,613,613,613,613,613,613,613,613,613,613,613,613,613,613,613,613,613,613,613,613,613,613,613,613,613,613,613,613,613,613,613,613,613,613,613,613,613,613,613,613,613,613,613,613,613,613,613,613,613,614,614,614,614,614,614,614,614,614,614,614,614,614,614,614,614,614,614,614,614,614,614,614,614,614,614,614,614,614,614,614,614,614,614,614,614,614,614,614,614,614,614,614,614,614,614,614,614,614,614,614,614,614,614,615,615,615,615,615,615,615,615,615,615,615,615,615,615,615,615,615,615,615,615,615,615,615,615,615,615,615,615,615,615,615,615,615,615,615,615,615,615,615,615,615,615,615,615,615,615,615,615,615,615,615,616,616,616,615,611,600,590,590,590,590,604,621,637,641,641,641,639,636,633,633,633,633,634,634,634,634,635,635,636,636,637,637,637,632,625,616,615,615,615,615,615,615,615,615,615,615,615,615,615,615,615,615,615,615,615,615,615,615,615,615,615,615,615,615,615,615,615,615,615,615,615,615,615,615,615,615,615,615,615,615,615,597,545,426,245,0,0,0,0,0,0,0,0,0,0,0,0,1,10,28,82,122,157,187,222,240,251,252,252,252,252,252,252,252,252,250,241,231,217,201,162,140,120,99,89,83,78,76,75,75,72,69],"timestamp_mouse":[11,26,46,67,86,107,126,147,167,187,206,226,245,267,286,306,326,346,366,386,406,426,446,466,485,507,526,546,566,586,606,627,647,666,687,707,727,746,766,786,806,827,847,867,885,906,926,946,967,985,1006,1026,1046,1066,1086,1105,1126,1147,1167,1187,1207,1226,1246,1267,1287,1306,1325,1347,1365,1386,1407,1426,1445,1466,1487,1506,1527,1547,1565,1587,1607,1626,1647,1667,1686,1706,1727,1746,1766,1787,1805,1826,1847,1865,1887,1907,1927,1947,1966,1986,2007,2027,2045,2067,2085,2106,2127,2147,2167,2185,2207,2226,2247,2265,2287,2307,2327,2346,2366,2386,2405,2427,2445,2465,2486,2505,2527,2545,2566,2586,2606,2626,2646,2667,2686,2707,2727,2746,2765,2786,2806,2826,2846,2867,2886,2906,2926,2947,2965,2986,3007,3026,3045,3067,3086,3106,3125,3146,3166,3187,3206,3226,3245,3266,3286,3305,3325,3347,3367,3385,3406,3427,3445,3467,3486,3507,3526,3547,3566,3586,3605,3627,3647,3666,3686,3706,3726,3746,3766,3786,3806,3825,3846,3866,3887,3906,3927,3947,3966,3986,4006,4025,4047,4066,4086,4105,4126,4146,4167,4185,4206,4226,4246,4266,4286,4307,4325,4345,4366,4387,4406,4427,4445,4465,4487,4506,4527,4547,4565,4587,4606,4626,4645,4666,4685,4707,4726,4746,4766,4786,4806,4827,4845,4867,4886,4906,4925,4946,4967,4986,5006,5026,5046,5066,5086,5106,5127,5147,5166,5186,5206,5227,5247,5266,5287,5306,5327,5345,5366,5386,5405,5426,5447,5465,5486,5506,5526,5546,5566,5587,5607,5626,5646,5667,5686,5706,5726,5747,5765,5787,5807,5826,5845,5866,5886,5907,5925,5946,5966,5985,6007,6026,6046,6066,6087,6107,6126,6146,6165,6186,6206,6226,6246,6267,6285,6306,6325,6346,6367,6387,6406,6427,6446,6466,6485,6507,6527,6546,6567,6587,6606,6627,6647,6667,6687,6707,6726,6747,6766,6786,6807,6827,6845,6867,6887,6907,6927,6946,6966,6985,7006,7026,7047,7067,7085,7107,7125,7146,7167,7185,7206,7226,7247,7266,7285,7306,7327,7347,7367,7386,7407,7426,7447,7467,7486,7507,7526,7547,7566,7585,7606,7627,7647,7665,7686,7707,7726,7747,7766,7787,7807,7826,7846,7866,7886,7906,7926,7947,7966,7986,8007,8027,8047,8066,8085,8106,8126,8145,8167,8187,8207,8227,8246,8266,8285,8305,8326,8346,8366,8386,8407,8425,8447,8466,8487,8506,8526,8546,8565,8587,8606,8627,8646,8667,8686,8707,8726,8745,8766,8786,8806,8827,8846,8866,8886,8906,8926,8945,8965,8986,9005,9026,9045,9066,9086,9106,9126,9147,9166,9186,9206,9227,9246,9267,9286,9306,9326,9346,9367,9387,9407,9426,9445,9465,9487,9506,9526,9546,9567,9586,9607,9626,9646,9666,9686,9705,9727,9747,9767,9787,9806,9825,9846,9866,9886,9907,9927,9946,9967,9987,10007,10026,10046,10067,10087,10105,10127,10147,10166,10186,10206,10227,10246,10266,10287,10307,10326,10346,10367,10388,10406,10426,10447,10466,10486,10506,10526,10546,10567,10589,10605,10626,10647,10667,10687,10706,10726,10746,10766,10786,10806,10827,10845,10866,10886,10906,10926,10947,10966,10987,11005,11026,11046,11065,11086,11106,11126,11146,11166,11186,11207],"xSR":741.5,"ySR":501.8,"xT1":424.9,"yT1":0,"xT2":1058.1,"yT2":0,"toosoon":0,"cond_shown":"Incongruent","ratio_trial":100,"L_num":17,"L_den":30,"R_num":10,"R_den":15,"correct_side":2,"subjID":"juliana moreno 10 ","gender":"1","age":"9","school":"4d","test":{"fix_dur":[250,1500],"timestim":1000,"targets_dim":[100,100],"targets_relative_coord":[0.3,0.7],"size_stim":[880,420],"start_dim":[100,100],"size_start":[300,300],"size_fix":60,"samplingrate":20,"img_types":["Congruent","Incongruent"],"ratios":[100,200,300],"rep_conds":19,"nTrials":120,"trials_to_rest":500,"Trials_order":[61,56,22,24,118,15,112,99,65,98,1,78,17,116,103,90,47,82,89,115,21,57,18,111,53,72,63,59,40,79,31,52,26,35,66,101,68,34,85,102,105,7,14,55,30,23,20,16,19,64,74,60,119,8,25,6,5,46,45,48,93,9,77,81,43,107,94,32,114,62,100,27,28,117,4,87,80,13,97,51,76,49,108,10,38,73,12,95,83,44,96,84,39,106,0,92,75,54,36,42,109,11,71,58,70,2,33,67,86,113,104,29,3,88,50,69,91,110,37,41],"cond_shown":["Incongruent","Congruent","Congruent","Congruent","Congruent","Incongruent","Congruent","Incongruent","Incongruent","Congruent","Incongruent","Congruent","Incongruent","Congruent","Incongruent","Congruent","Incongruent","Congruent","Incongruent","Incongruent","Incongruent","Incongruent","Congruent","Incongruent","Incongruent","Congruent","Incongruent","Incongruent","Congruent","Incongruent","Incongruent","Congruent","Congruent","Incongruent","Congruent","Incongruent","Congruent","Congruent","Incongruent","Congruent","Incongruent","Incongruent","Congruent","Incongruent","Congruent","Incongruent","Congruent","Congruent","Incongruent","Congruent","Congruent","Congruent","Incongruent","Congruent","Incongruent","Congruent","Incongruent","Congruent","Incongruent","Congruent","Incongruent","Incongruent","Incongruent","Incongruent","Incongruent","Incongruent","Congruent","Congruent","Congruent","Congruent","Congruent","Incongruent","Congruent","Incongruent","Congruent","Incongruent","Congruent","Incongruent","Incongruent","Incongruent","Congruent","Incongruent","Congruent","Congruent","Congruent","Incongruent","Congruent","Incongruent","Incongruent","Congruent","Congruent","Congruent","Incongruent","Congruent","Congruent","Congruent","Incongruent","Congruent","Congruent","Congruent","Incongruent","Incongruent","Incongruent","Congruent","Congruent","Congruent","Incongruent","Incongruent","Congruent","Incongruent","Congruent","Incongruent","Incongruent","Congruent","Congruent","Incongruent","Incongruent","Congruent","Incongruent","Incongruent"],"ratio_trial":[100,200,300,100,300,200,300,200,300,200,100,100,300,200,100,100,300,300,300,100,200,200,100,200,300,100,200,300,300,100,100,300,200,300,100,300,200,300,100,100,200,100,200,100,100,300,200,300,100,300,200,100,300,200,100,100,300,300,200,100,200,200,300,200,100,300,300,200,100,200,300,200,300,200,300,200,200,100,100,200,300,100,100,300,200,100,100,300,300,200,100,100,200,300,100,200,200,100,100,100,100,300,300,300,300,200,200,100,200,300,200,300,200,300,200,200,100,200,100,300],"left_num":[17,3,20,2,5,11,3,4,13,6,6,11,4,6,3,12,13,1,4,2,6,14,3,1,13,3,4,13,2,12,10,5,3,4,10,4,3,11,8,6,14,9,12,6,15,13,16,4,6,1,6,11,4,1,6,6,4,20,11,4,7,4,13,7,2,13,8,7,6,13,4,1,11,7,7,7,16,10,9,4,11,3,10,11,5,9,15,1,4,8,4,1,6,2,8,3,14,3,11,8,6,2,4,11,4,9,9,6,5,4,3,2,6,2,3,7,2,11,4,8],"right_num":[10,7,9,6,7,3,4,1,12,7,11,4,2,3,4,13,12,7,8,8,3,6,2,2,12,2,14,12,12,2,8,7,11,2,3,8,14,2,1,15,6,6,6,13,13,12,12,13,11,6,3,4,2,21,3,5,2,13,3,15,4,6,12,12,6,12,1,18,15,14,2,3,1,4,20,14,9,9,6,1,4,7,3,1,14,13,13,3,6,3,6,18,3,10,2,11,6,4,4,2,11,6,2,2,2,4,8,11,14,6,14,6,3,12,7,8,8,3,8,9],"left_den":[30,10,25,5,25,20,6,30,26,12,10,22,20,15,6,30,26,20,5,4,20,30,6,3,26,6,6,26,10,30,25,25,10,20,25,5,10,22,20,12,30,18,20,10,25,26,20,20,10,5,15,22,20,2,12,20,20,25,20,10,15,5,26,10,4,26,16,15,12,26,5,2,22,15,14,10,30,25,18,30,22,9,25,22,10,15,25,2,5,15,8,2,20,20,16,10,30,20,22,16,10,4,20,22,5,20,15,10,10,5,10,4,20,10,10,10,4,22,8,10],"right_den":[15,14,18,12,14,4,5,3,15,10,22,10,4,15,10,26,15,20,16,20,6,9,5,15,15,5,30,15,24,4,16,14,22,4,10,16,28,10,2,25,9,10,15,26,26,15,20,26,22,12,15,10,4,30,5,25,4,26,4,30,6,10,15,24,15,15,5,27,25,20,4,10,5,6,25,28,27,18,10,3,20,30,10,5,20,26,26,15,12,9,10,30,6,25,5,22,9,16,10,5,22,30,4,10,4,16,10,22,20,12,28,30,6,24,14,16,20,10,20,18],"correct_side":[2,2,1,2,2,2,2,2,2,2,1,1,2,1,1,2,2,2,1,1,2,2,1,1,2,1,1,2,2,2,2,2,2,2,1,1,2,1,2,2,2,2,1,1,1,2,1,2,1,2,1,1,2,2,2,1,2,1,2,2,2,1,2,1,1,2,1,2,2,2,1,1,1,2,2,1,1,2,2,2,1,1,1,1,2,1,1,1,1,1,2,2,2,2,1,2,2,2,1,1,1,1,2,1,1,1,2,1,2,1,2,1,2,2,2,1,1,1,1,1],"img_shown":["img2/100/Incongruent/R/I_Dist_100_LN_17_LD_30_RN_10_RD_15_1.png","img2/200/Congruent/R/C_Dist_200_LN_3_LD_10_RN_7_RD_14_1.png","img2/300/Congruent/L/C_Dist_300_LN_20_LD_25_RN_9_RD_18_0.png","img2/100/Congruent/R/C_Dist_100_LN_2_LD_5_RN_6_RD_12_1.png","img2/300/Congruent/R/C_Dist_300_LN_5_LD_25_RN_7_RD_14_1.png","img2/200/Incongruent/R/I_Dist_200_LN_11_LD_20_RN_3_RD_4_1.png","img2/300/Congruent/R/C_Dist_300_LN_3_LD_6_RN_4_RD_5_1.png","img2/200/Incongruent/R/I_Dist_200_LN_4_LD_30_RN_1_RD_3_1.png","img2/300/Incongruent/R/I_Dist_300_LN_13_LD_26_RN_12_RD_15_1.png","img2/200/Congruent/R/C_Dist_200_LN_6_LD_12_RN_7_RD_10_1.png","img2/100/Incongruent/L/I_Dist_100_LN_6_LD_10_RN_11_RD_22_0.png","img2/100/Congruent/L/C_Dist_100_LN_11_LD_22_RN_4_RD_10_0.png","img2/300/Incongruent/R/I_Dist_300_LN_4_LD_20_RN_2_RD_4_1.png","img2/200/Congruent/L/C_Dist_200_LN_6_LD_15_RN_3_RD_15_0.png","img2/100/Incongruent/L/I_Dist_100_LN_3_LD_6_RN_4_RD_10_0.png","img2/100/Congruent/R/C_Dist_100_LN_12_LD_30_RN_13_RD_26_1.png","img2/300/Incongruent/R/I_Dist_300_LN_13_LD_26_RN_12_RD_15_1.png","img2/300/Congruent/R/C_Dist_300_LN_1_LD_20_RN_7_RD_20_1.png","img2/300/Incongruent/L/I_Dist_300_LN_4_LD_5_RN_8_RD_16_0.png","img2/100/Incongruent/L/I_Dist_100_LN_2_LD_4_RN_8_RD_20_0.png","img2/200/Incongruent/R/I_Dist_200_LN_6_LD_20_RN_3_RD_6_1.png","img2/200/Incongruent/R/I_Dist_200_LN_14_LD_30_RN_6_RD_9_1.png","img2/100/Congruent/L/C_Dist_100_LN_3_LD_6_RN_2_RD_5_0.png","img2/200/Incongruent/L/I_Dist_200_LN_1_LD_3_RN_2_RD_15_0.png","img2/300/Incongruent/R/I_Dist_300_LN_13_LD_26_RN_12_RD_15_1.png","img2/100/Congruent/L/C_Dist_100_LN_3_LD_6_RN_2_RD_5_0.png","img2/200/Incongruent/L/I_Dist_200_LN_4_LD_6_RN_14_RD_30_0.png","img2/300/Incongruent/R/I_Dist_300_LN_13_LD_26_RN_12_RD_15_1.png","img2/300/Congruent/R/C_Dist_300_LN_2_LD_10_RN_12_RD_24_1.png","img2/100/Incongruent/R/I_Dist_100_LN_12_LD_30_RN_2_RD_4_1.png","img2/100/Incongruent/R/I_Dist_100_LN_10_LD_25_RN_8_RD_16_1.png","img2/300/Congruent/R/C_Dist_300_LN_5_LD_25_RN_7_RD_14_1.png","img2/200/Congruent/R/C_Dist_200_LN_3_LD_10_RN_11_RD_22_1.png","img2/300/Incongruent/R/I_Dist_300_LN_4_LD_20_RN_2_RD_4_1.png","img2/100/Congruent/L/C_Dist_100_LN_10_LD_25_RN_3_RD_10_0.png","img2/300/Incongruent/L/I_Dist_300_LN_4_LD_5_RN_8_RD_16_0.png","img2/200/Congruent/R/C_Dist_200_LN_3_LD_10_RN_14_RD_28_1.png","img2/300/Congruent/L/C_Dist_300_LN_11_LD_22_RN_2_RD_10_0.png","img2/100/Incongruent/R/I_Dist_100_LN_8_LD_20_RN_1_RD_2_1.png","img2/100/Congruent/R/C_Dist_100_LN_6_LD_12_RN_15_RD_25_1.png","img2/200/Incongruent/R/I_Dist_200_LN_14_LD_30_RN_6_RD_9_1.png","img2/100/Incongruent/R/I_Dist_100_LN_9_LD_18_RN_6_RD_10_1.png","img2/200/Congruent/L/C_Dist_200_LN_12_LD_20_RN_6_RD_15_0.png","img2/100/Incongruent/L/I_Dist_100_LN_6_LD_10_RN_13_RD_26_0.png","img2/100/Congruent/L/C_Dist_100_LN_15_LD_25_RN_13_RD_26_0.png","img2/300/Incongruent/R/I_Dist_300_LN_13_LD_26_RN_12_RD_15_1.png","img2/200/Congruent/L/C_Dist_200_LN_16_LD_20_RN_12_RD_20_0.png","img2/300/Congruent/R/C_Dist_300_LN_4_LD_20_RN_13_RD_26_1.png","img2/100/Incongruent/L/I_Dist_100_LN_6_LD_10_RN_11_RD_22_0.png","img2/300/Congruent/R/C_Dist_300_LN_1_LD_5_RN_6_RD_12_1.png","img2/200/Congruent/L/C_Dist_200_LN_6_LD_15_RN_3_RD_15_0.png","img2/100/Congruent/L/C_Dist_100_LN_11_LD_22_RN_4_RD_10_0.png","img2/300/Incongruent/R/I_Dist_300_LN_4_LD_20_RN_2_RD_4_1.png","img2/200/Congruent/R/C_Dist_200_LN_1_LD_2_RN_21_RD_30_1.png","img2/100/Incongruent/R/I_Dist_100_LN_6_LD_12_RN_3_RD_5_1.png","img2/100/Congruent/L/C_Dist_100_LN_6_LD_20_RN_5_RD_25_0.png","img2/300/Incongruent/R/I_Dist_300_LN_4_LD_20_RN_2_RD_4_1.png","img2/300/Congruent/L/C_Dist_300_LN_20_LD_25_RN_13_RD_26_0.png","img2/200/Incongruent/R/I_Dist_200_LN_11_LD_20_RN_3_RD_4_1.png","img2/100/Congruent/R/C_Dist_100_LN_4_LD_10_RN_15_RD_30_1.png","img2/200/Incongruent/R/I_Dist_200_LN_7_LD_15_RN_4_RD_6_1.png","img2/200/Incongruent/L/I_Dist_200_LN_4_LD_5_RN_6_RD_10_0.png","img2/300/Incongruent/R/I_Dist_300_LN_13_LD_26_RN_12_RD_15_1.png","img2/200/Incongruent/L/I_Dist_200_LN_7_LD_10_RN_12_RD_24_0.png","img2/100/Incongruent/L/I_Dist_100_LN_2_LD_4_RN_6_RD_15_0.png","img2/300/Incongruent/R/I_Dist_300_LN_13_LD_26_RN_12_RD_15_1.png","img2/300/Congruent/L/C_Dist_300_LN_8_LD_16_RN_1_RD_5_0.png","img2/200/Congruent/R/C_Dist_200_LN_7_LD_15_RN_18_RD_27_1.png","img2/100/Congruent/R/C_Dist_100_LN_6_LD_12_RN_15_RD_25_1.png","img2/200/Congruent/R/C_Dist_200_LN_13_LD_26_RN_14_RD_20_1.png","img2/300/Congruent/L/C_Dist_300_LN_4_LD_5_RN_2_RD_4_0.png","img2/200/Incongruent/L/I_Dist_200_LN_1_LD_2_RN_3_RD_10_0.png","img2/300/Congruent/L/C_Dist_300_LN_11_LD_22_RN_1_RD_5_0.png","img2/200/Incongruent/R/I_Dist_200_LN_7_LD_15_RN_4_RD_6_1.png","img2/300/Congruent/R/C_Dist_300_LN_7_LD_14_RN_20_RD_25_1.png","img2/200/Incongruent/L/I_Dist_200_LN_7_LD_10_RN_14_RD_28_0.png","img2/200/Congruent/L/C_Dist_200_LN_16_LD_30_RN_9_RD_27_0.png","img2/100/Incongruent/R/I_Dist_100_LN_10_LD_25_RN_9_RD_18_1.png","img2/100/Incongruent/R/I_Dist_100_LN_9_LD_18_RN_6_RD_10_1.png","img2/200/Incongruent/R/I_Dist_200_LN_4_LD_30_RN_1_RD_3_1.png","img2/300/Congruent/L/C_Dist_300_LN_11_LD_22_RN_4_RD_20_0.png","img2/100/Incongruent/L/I_Dist_100_LN_3_LD_9_RN_7_RD_30_0.png","img2/100/Congruent/L/C_Dist_100_LN_10_LD_25_RN_3_RD_10_0.png","img2/300/Congruent/L/C_Dist_300_LN_11_LD_22_RN_1_RD_5_0.png","img2/200/Congruent/R/C_Dist_200_LN_5_LD_10_RN_14_RD_20_1.png","img2/100/Incongruent/L/I_Dist_100_LN_9_LD_15_RN_13_RD_26_0.png","img2/100/Congruent/L/C_Dist_100_LN_15_LD_25_RN_13_RD_26_0.png","img2/300/Incongruent/L/I_Dist_300_LN_1_LD_2_RN_3_RD_15_0.png","img2/300/Incongruent/L/I_Dist_300_LN_4_LD_5_RN_6_RD_12_0.png","img2/200/Congruent/L/C_Dist_200_LN_8_LD_15_RN_3_RD_9_0.png","img2/100/Congruent/R/C_Dist_100_LN_4_LD_8_RN_6_RD_10_1.png","img2/100/Congruent/R/C_Dist_100_LN_1_LD_2_RN_18_RD_30_1.png","img2/200/Incongruent/R/I_Dist_200_LN_6_LD_20_RN_3_RD_6_1.png","img2/300/Congruent/R/C_Dist_300_LN_2_LD_20_RN_10_RD_25_1.png","img2/100/Congruent/L/C_Dist_100_LN_8_LD_16_RN_2_RD_5_0.png","img2/200/Congruent/R/C_Dist_200_LN_3_LD_10_RN_11_RD_22_1.png","img2/200/Incongruent/R/I_Dist_200_LN_14_LD_30_RN_6_RD_9_1.png","img2/100/Congruent/R/C_Dist_100_LN_3_LD_20_RN_4_RD_16_1.png","img2/100/Congruent/L/C_Dist_100_LN_11_LD_22_RN_4_RD_10_0.png","img2/100/Congruent/L/C_Dist_100_LN_8_LD_16_RN_2_RD_5_0.png","img2/100/Incongruent/L/I_Dist_100_LN_6_LD_10_RN_11_RD_22_0.png","img2/300/Incongruent/L/I_Dist_300_LN_2_LD_4_RN_6_RD_30_0.png","img2/300/Incongruent/R/I_Dist_300_LN_4_LD_20_RN_2_RD_4_1.png","img2/300/Congruent/L/C_Dist_300_LN_11_LD_22_RN_2_RD_10_0.png","img2/300/Congruent/L/C_Dist_300_LN_4_LD_5_RN_2_RD_4_0.png","img2/200/Congruent/L/C_Dist_200_LN_9_LD_20_RN_4_RD_16_0.png","img2/200/Incongruent/R/I_Dist_200_LN_9_LD_15_RN_8_RD_10_1.png","img2/100/Incongruent/L/I_Dist_100_LN_6_LD_10_RN_11_RD_22_0.png","img2/200/Congruent/R/C_Dist_200_LN_5_LD_10_RN_14_RD_20_1.png","img2/300/Incongruent/L/I_Dist_300_LN_4_LD_5_RN_6_RD_12_0.png","img2/200/Congruent/R/C_Dist_200_LN_3_LD_10_RN_14_RD_28_1.png","img2/300/Incongruent/L/I_Dist_300_LN_2_LD_4_RN_6_RD_30_0.png","img2/200/Incongruent/R/I_Dist_200_LN_6_LD_20_RN_3_RD_6_1.png","img2/300/Congruent/R/C_Dist_300_LN_2_LD_10_RN_12_RD_24_1.png","img2/200/Congruent/R/C_Dist_200_LN_3_LD_10_RN_7_RD_14_1.png","img2/200/Incongruent/L/I_Dist_200_LN_7_LD_10_RN_8_RD_16_0.png","img2/100/Incongruent/L/I_Dist_100_LN_2_LD_4_RN_8_RD_20_0.png","img2/200/Congruent/L/C_Dist_200_LN_11_LD_22_RN_3_RD_10_0.png","img2/100/Incongruent/L/I_Dist_100_LN_4_LD_8_RN_8_RD_20_0.png","img2/300/Incongruent/L/I_Dist_300_LN_8_LD_10_RN_9_RD_18_0.png"],"dist100_C":[["C_Dist_100_LN_10_LD_25_RN_3_RD_10_0.png","C_Dist_100_LN_11_LD_22_RN_4_RD_10_0.png","C_Dist_100_LN_11_LD_22_RN_6_RD_15_0.png","C_Dist_100_LN_15_LD_25_RN_13_RD_26_0.png","C_Dist_100_LN_3_LD_6_RN_2_RD_5_0.png","C_Dist_100_LN_6_LD_20_RN_5_RD_25_0.png","C_Dist_100_LN_8_LD_16_RN_2_RD_5_0.png","C_Dist_100_LN_9_LD_15_RN_8_RD_16_0.png"],["C_Dist_100_LN_1_LD_2_RN_18_RD_30_1.png","C_Dist_100_LN_1_LD_2_RN_3_RD_5_1.png","C_Dist_100_LN_12_LD_30_RN_13_RD_26_1.png","C_Dist_100_LN_2_LD_5_RN_11_RD_22_1.png","C_Dist_100_LN_2_LD_5_RN_6_RD_12_1.png","C_Dist_100_LN_3_LD_20_RN_4_RD_16_1.png","C_Dist_100_LN_4_LD_10_RN_15_RD_30_1.png","C_Dist_100_LN_4_LD_8_RN_6_RD_10_1.png","C_Dist_100_LN_6_LD_12_RN_15_RD_25_1.png","C_Dist_100_LN_7_LD_14_RN_15_RD_25_1.png","C_Dist_100_LN_7_LD_14_RN_9_RD_15_1.png"]],"dist100_I":[["I_Dist_100_LN_1_LD_2_RN_8_RD_20_0.png","I_Dist_100_LN_2_LD_4_RN_6_RD_15_0.png","I_Dist_100_LN_2_LD_4_RN_8_RD_20_0.png","I_Dist_100_LN_3_LD_5_RN_11_RD_22_0.png","I_Dist_100_LN_3_LD_5_RN_8_RD_16_0.png","I_Dist_100_LN_3_LD_6_RN_4_RD_10_0.png","I_Dist_100_LN_3_LD_9_RN_7_RD_30_0.png","I_Dist_100_LN_4_LD_8_RN_8_RD_20_0.png","I_Dist_100_LN_6_LD_10_RN_11_RD_22_0.png","I_Dist_100_LN_6_LD_10_RN_13_RD_26_0.png","I_Dist_100_LN_6_LD_10_RN_7_RD_14_0.png","I_Dist_100_LN_9_LD_10_RN_20_RD_25_0.png","I_Dist_100_LN_9_LD_15_RN_13_RD_26_0.png","I_Dist_100_LN_9_LD_15_RN_14_RD_28_0.png"],["I_Dist_100_LN_10_LD_25_RN_8_RD_16_1.png","I_Dist_100_LN_10_LD_25_RN_9_RD_18_1.png","I_Dist_100_LN_11_LD_22_RN_9_RD_15_1.png","I_Dist_100_LN_12_LD_24_RN_9_RD_15_1.png","I_Dist_100_LN_12_LD_30_RN_2_RD_4_1.png","I_Dist_100_LN_13_LD_26_RN_12_RD_20_1.png","I_Dist_100_LN_13_LD_26_RN_6_RD_10_1.png","I_Dist_100_LN_17_LD_30_RN_10_RD_15_1.png","I_Dist_100_LN_6_LD_12_RN_3_RD_5_1.png","I_Dist_100_LN_8_LD_16_RN_6_RD_10_1.png","I_Dist_100_LN_8_LD_20_RN_1_RD_2_1.png","I_Dist_100_LN_9_LD_18_RN_6_RD_10_1.png"]],"dist100_S":[["E_Dist_100_LN_2_LD_12_RN_2_RD_30_0.png","E_Dist_100_LN_6_LD_10_RN_6_RD_12_0.png"],["E_Dist_100_LN_6_LD_12_RN_6_RD_10_1.png"]],"dist200_C":[["C_Dist_200_LN_11_LD_22_RN_3_RD_10_0.png","C_Dist_200_LN_12_LD_15_RN_6_RD_10_0.png","C_Dist_200_LN_12_LD_20_RN_6_RD_15_0.png","C_Dist_200_LN_14_LD_28_RN_6_RD_20_0.png","C_Dist_200_LN_15_LD_25_RN_4_RD_10_0.png","C_Dist_200_LN_16_LD_20_RN_12_RD_20_0.png","C_Dist_200_LN_16_LD_30_RN_9_RD_27_0.png","C_Dist_200_LN_20_LD_25_RN_9_RD_15_0.png","C_Dist_200_LN_21_LD_30_RN_2_RD_4_0.png","C_Dist_200_LN_4_LD_10_RN_3_RD_15_0.png","C_Dist_200_LN_4_LD_8_RN_3_RD_10_0.png","C_Dist_200_LN_6_LD_15_RN_3_RD_15_0.png","C_Dist_200_LN_7_LD_21_RN_2_RD_15_0.png","C_Dist_200_LN_8_LD_15_RN_2_RD_6_0.png","C_Dist_200_LN_8_LD_15_RN_3_RD_9_0.png","C_Dist_200_LN_8_LD_15_RN_7_RD_21_0.png","C_Dist_200_LN_9_LD_20_RN_4_RD_16_0.png"],["C_Dist_200_LN_1_LD_2_RN_21_RD_30_1.png","C_Dist_200_LN_13_LD_26_RN_14_RD_20_1.png","C_Dist_200_LN_3_LD_10_RN_11_RD_22_1.png","C_Dist_200_LN_3_LD_10_RN_14_RD_28_1.png","C_Dist_200_LN_3_LD_10_RN_7_RD_14_1.png","C_Dist_200_LN_3_LD_12_RN_9_RD_20_1.png","C_Dist_200_LN_3_LD_6_RN_14_RD_20_1.png","C_Dist_200_LN_5_LD_10_RN_14_RD_20_1.png","C_Dist_200_LN_6_LD_12_RN_7_RD_10_1.png","C_Dist_200_LN_6_LD_20_RN_11_RD_22_1.png","C_Dist_200_LN_7_LD_15_RN_18_RD_27_1.png","C_Dist_200_LN_9_LD_30_RN_13_RD_26_1.png"]],"dist200_I":[["I_Dist_200_LN_1_LD_2_RN_3_RD_10_0.png","I_Dist_200_LN_1_LD_3_RN_2_RD_15_0.png","I_Dist_200_LN_3_LD_4_RN_11_RD_20_0.png","I_Dist_200_LN_4_LD_5_RN_6_RD_10_0.png","I_Dist_200_LN_4_LD_6_RN_14_RD_30_0.png","I_Dist_200_LN_7_LD_10_RN_12_RD_24_0.png","I_Dist_200_LN_7_LD_10_RN_14_RD_28_0.png","I_Dist_200_LN_7_LD_10_RN_8_RD_16_0.png"],["I_Dist_200_LN_11_LD_20_RN_3_RD_4_1.png","I_Dist_200_LN_14_LD_30_RN_12_RD_18_1.png","I_Dist_200_LN_14_LD_30_RN_6_RD_9_1.png","I_Dist_200_LN_3_LD_10_RN_1_RD_2_1.png","I_Dist_200_LN_4_LD_30_RN_1_RD_3_1.png","I_Dist_200_LN_6_LD_20_RN_3_RD_6_1.png","I_Dist_200_LN_7_LD_15_RN_4_RD_6_1.png","I_Dist_200_LN_7_LD_15_RN_6_RD_9_1.png","I_Dist_200_LN_9_LD_15_RN_8_RD_10_1.png"]],"dist200_S":[["E_Dist_200_LN_3_LD_6_RN_3_RD_10_0.png"],["E_Dist_200_LN_3_LD_10_RN_3_RD_6_1.png"]],"dist300_C":[["C_Dist_300_LN_11_LD_22_RN_1_RD_5_0.png","C_Dist_300_LN_11_LD_22_RN_2_RD_10_0.png","C_Dist_300_LN_11_LD_22_RN_4_RD_20_0.png","C_Dist_300_LN_12_LD_24_RN_2_RD_10_0.png","C_Dist_300_LN_18_LD_20_RN_9_RD_15_0.png","C_Dist_300_LN_20_LD_25_RN_13_RD_26_0.png","C_Dist_300_LN_20_LD_25_RN_14_RD_28_0.png","C_Dist_300_LN_20_LD_25_RN_5_RD_10_0.png","C_Dist_300_LN_20_LD_25_RN_8_RD_16_0.png","C_Dist_300_LN_20_LD_25_RN_9_RD_18_0.png","C_Dist_300_LN_24_LD_30_RN_2_RD_4_0.png","C_Dist_300_LN_24_LD_30_RN_8_RD_16_0.png","C_Dist_300_LN_3_LD_6_RN_2_RD_10_0.png","C_Dist_300_LN_4_LD_10_RN_1_RD_10_0.png","C_Dist_300_LN_4_LD_5_RN_2_RD_4_0.png","C_Dist_300_LN_8_LD_16_RN_1_RD_5_0.png","C_Dist_300_LN_9_LD_10_RN_3_RD_5_0.png"],["C_Dist_300_LN_1_LD_20_RN_7_RD_20_1.png","C_Dist_300_LN_1_LD_3_RN_19_RD_30_1.png","C_Dist_300_LN_1_LD_30_RN_8_RD_24_1.png","C_Dist_300_LN_1_LD_5_RN_11_RD_22_1.png","C_Dist_300_LN_1_LD_5_RN_3_RD_6_1.png","C_Dist_300_LN_1_LD_5_RN_6_RD_12_1.png","C_Dist_300_LN_2_LD_10_RN_12_RD_24_1.png","C_Dist_300_LN_2_LD_20_RN_10_RD_25_1.png","C_Dist_300_LN_3_LD_12_RN_11_RD_20_1.png","C_Dist_300_LN_3_LD_6_RN_4_RD_5_1.png","C_Dist_300_LN_4_LD_20_RN_13_RD_26_1.png","C_Dist_300_LN_5_LD_25_RN_6_RD_12_1.png","C_Dist_300_LN_5_LD_25_RN_7_RD_14_1.png","C_Dist_300_LN_7_LD_14_RN_20_RD_25_1.png","C_Dist_300_LN_8_LD_15_RN_10_RD_12_1.png"]],"dist300_I":[["I_Dist_300_LN_1_LD_2_RN_2_RD_10_0.png","I_Dist_300_LN_1_LD_2_RN_3_RD_15_0.png","I_Dist_300_LN_2_LD_4_RN_6_RD_30_0.png","I_Dist_300_LN_3_LD_6_RN_4_RD_20_0.png","I_Dist_300_LN_4_LD_5_RN_6_RD_12_0.png","I_Dist_300_LN_4_LD_5_RN_8_RD_16_0.png","I_Dist_300_LN_7_LD_10_RN_8_RD_20_0.png","I_Dist_300_LN_8_LD_10_RN_14_RD_28_0.png","I_Dist_300_LN_8_LD_10_RN_9_RD_18_0.png"],["I_Dist_300_LN_13_LD_26_RN_12_RD_15_1.png","I_Dist_300_LN_4_LD_20_RN_2_RD_4_1.png"]],"dist300_S":[["E_Dist_300_LN_9_LD_12_RN_9_RD_20_0.png"],["E_Dist_300_LN_18_LD_30_RN_18_RD_20_1.png","E_Dist_300_LN_3_LD_10_RN_3_RD_5_1.png","E_Dist_300_LN_9_LD_20_RN_9_RD_12_1.png"]],"dist500_C":[["C_Dist_500_LN_10_LD_13_RN_7_RD_26_0.png","C_Dist_500_LN_10_LD_15_RN_4_RD_24_0.png","C_Dist_500_LN_12_LD_16_RN_3_RD_12_0.png","C_Dist_500_LN_12_LD_18_RN_4_RD_24_0.png","C_Dist_500_LN_15_LD_18_RN_5_RD_15_0.png","C_Dist_500_LN_15_LD_20_RN_1_RD_4_0.png","C_Dist_500_LN_18_LD_27_RN_1_RD_6_0.png","C_Dist_500_LN_20_LD_24_RN_1_RD_3_0.png","C_Dist_500_LN_20_LD_24_RN_3_RD_9_0.png","C_Dist_500_LN_20_LD_24_RN_7_RD_21_0.png","C_Dist_500_LN_20_LD_28_RN_3_RD_14_0.png","C_Dist_500_LN_21_LD_28_RN_6_RD_24_0.png","C_Dist_500_LN_22_LD_28_RN_2_RD_7_0.png","C_Dist_500_LN_25_LD_30_RN_9_RD_27_0.png","C_Dist_500_LN_4_LD_6_RN_1_RD_6_0.png","C_Dist_500_LN_5_LD_6_RN_2_RD_6_0.png","C_Dist_500_LN_6_LD_9_RN_1_RD_6_0.png","C_Dist_500_LN_7_LD_10_RN_1_RD_5_0.png","C_Dist_500_LN_8_LD_12_RN_1_RD_6_0.png","C_Dist_500_LN_8_LD_12_RN_4_RD_24_0.png"],["C_Dist_500_LN_1_LD_4_RN_12_RD_16_1.png","C_Dist_500_LN_1_LD_4_RN_9_RD_12_1.png","C_Dist_500_LN_1_LD_9_RN_11_RD_18_1.png","C_Dist_500_LN_10_LD_24_RN_22_RD_24_1.png","C_Dist_500_LN_2_LD_12_RN_10_RD_15_1.png","C_Dist_500_LN_2_LD_12_RN_12_RD_18_1.png","C_Dist_500_LN_2_LD_12_RN_4_RD_6_1.png","C_Dist_500_LN_2_LD_24_RN_7_RD_12_1.png","C_Dist_500_LN_2_LD_5_RN_18_RD_20_1.png","C_Dist_500_LN_2_LD_5_RN_9_RD_10_1.png","C_Dist_500_LN_2_LD_8_RN_12_RD_16_1.png","C_Dist_500_LN_2_LD_8_RN_21_RD_28_1.png","C_Dist_500_LN_3_LD_10_RN_4_RD_5_1.png","C_Dist_500_LN_3_LD_12_RN_15_RD_20_1.png","C_Dist_500_LN_3_LD_30_RN_6_RD_10_1.png","C_Dist_500_LN_3_LD_8_RN_14_RD_16_1.png","C_Dist_500_LN_4_LD_16_RN_15_RD_20_1.png","C_Dist_500_LN_4_LD_24_RN_12_RD_18_1.png","C_Dist_500_LN_5_LD_14_RN_6_RD_7_1.png","C_Dist_500_LN_7_LD_21_RN_20_RD_24_1.png","C_Dist_500_LN_7_LD_28_RN_12_RD_16_1.png","C_Dist_500_LN_7_LD_28_RN_9_RD_12_1.png","C_Dist_500_LN_9_LD_27_RN_20_RD_24_1.png"]],"dist500_I":[["I_Dist_500_LN_2_LD_3_RN_4_RD_24_0.png","I_Dist_500_LN_5_LD_6_RN_6_RD_18_0.png","I_Dist_500_LN_7_LD_8_RN_9_RD_24_0.png"],["I_Dist_500_LN_7_LD_21_RN_5_RD_6_1.png"]],"dist500_S":[["E_Dist_500_LN_6_LD_8_RN_6_RD_24_0.png"],["E_Dist_500_LN_2_LD_12_RN_2_RD_3_1.png","E_Dist_500_LN_6_LD_24_RN_6_RD_8_1.png"]]}},{"start_time":1552313025685,"click_time":1552313029368,"finger_time":1552313028947,"fix_duration":935.2443743655126,"trial":1,"RT":3262,"MT":421,"sideResp":2,"stimulus":[],"xmouse":[802,802,802,802,802,802,802,802,802,802,802,802,802,802,802,802,802,802,802,802,802,802,802,802,802,802,802,802,802,802,802,802,802,802,802,802,802,802,802,802,802,802,802,802,802,802,802,802,802,802,802,802,802,802,802,802,802,802,802,802,802,802,802,802,802,802,802,802,802,802,802,802,802,802,802,802,802,802,802,802,802,802,802,802,802,802,802,802,802,802,802,802,802,802,802,802,802,802,802,802,802,802,802,802,802,802,802,802,802,802,802,802,802,802,802,802,802,802,802,802,802,802,802,802,802,802,802,802,802,802,802,802,802,802,802,802,802,802,802,802,802,802,802,802,802,802,802,802,802,802,802,802,802,802,802,802,802,802,802,802,804,814,826,847,862,879,903,915,924,926,926,926,926,929,931,932,936,942,958,976,998,1024,1038,1054,1063],"ymouse":[608,608,608,608,608,608,608,608,608,608,608,608,608,608,608,608,608,608,608,608,608,608,608,608,608,608,608,608,608,608,608,608,608,608,608,608,608,608,608,608,608,608,608,608,608,608,608,608,608,608,608,608,608,608,608,608,608,608,608,608,608,608,608,608,608,608,608,608,608,608,608,608,608,608,608,608,608,608,608,608,608,608,608,608,608,608,608,608,608,608,608,608,608,608,608,608,608,608,608,608,608,608,608,608,608,608,608,608,608,608,608,608,608,608,608,608,608,608,608,608,608,608,608,608,608,608,608,608,608,608,608,608,608,608,608,608,608,608,608,608,608,608,608,608,608,608,608,608,608,608,608,608,608,608,608,608,608,608,608,608,606,593,576,530,498,464,422,386,323,305,294,286,278,262,254,243,231,218,191,165,142,117,102,80,67],"timestamp_mouse":[11,22,48,62,83,102,122,141,163,183,203,223,241,263,283,302,323,342,362,382,403,423,442,463,483,502,522,542,563,582,602,622,642,662,683,703,723,742,762,783,803,822,843,862,882,903,921,943,962,982,1002,1021,1042,1061,1083,1102,1123,1142,1163,1182,1203,1222,1242,1262,1282,1302,1322,1343,1362,1383,1402,1422,1443,1462,1482,1502,1522,1541,1563,1582,1603,1623,1643,1662,1683,1703,1723,1741,1763,1782,1803,1822,1842,1862,1881,1903,1923,1941,1963,1983,2003,2022,2042,2063,2082,2102,2123,2142,2163,2183,2203,2223,2242,2261,2283,2303,2322,2343,2362,2383,2402,2421,2443,2462,2483,2502,2522,2543,2563,2582,2602,2623,2642,2662,2683,2702,2723,2742,2762,2782,2803,2822,2843,2862,2883,2902,2922,2943,2962,2983,3002,3022,3043,3062,3082,3102,3123,3141,3162,3182,3202,3222,3241,3262,3281,3302,3321,3343,3363,3382,3402,3423,3442,3462,3482,3502,3522,3542,3562,3581,3602,3623,3643,3662,3682],"xSR":741.5,"ySR":573.95,"xT1":424.9,"yT1":0,"xT2":1058.1,"yT2":0,"toosoon":0,"cond_shown":"Congruent","ratio_trial":200,"L_num":3,"L_den":10,"R_num":7,"R_den":14,"correct_side":2,"subjID":"juliana moreno 10 ","gender":"1","school":"4d","age":"9"},{"start_time":1552313033499,"click_time":1552313036128,"finger_time":1552313035526,"fix_duration":250,"trial":2,"RT":2027,"MT":602,"sideResp":1,"stimulus":[],"xmouse":[798,798,798,798,798,798,798,798,798,798,798,798,798,798,798,798,798,798,798,798,798,798,798,798,798,798,798,798,798,798,798,798,798,798,798,798,798,798,798,798,798,798,798,798,798,798,798,798,798,798,798,798,798,798,798,798,798,798,798,798,798,798,798,798,798,798,798,798,798,798,798,798,798,798,798,798,798,798,798,798,798,798,798,798,798,798,798,798,798,798,798,798,798,798,798,798,797,794,775,761,747,736,721,674,611,597,569,550,517,505,494,482,463,406,370,354,343,337,335,335,335,335,335,341,348,356,376,389,411,416,421,436],"ymouse":[621,621,621,621,621,621,621,621,621,621,621,621,621,621,621,621,621,621,621,621,621,621,621,621,621,621,621,621,621,621,621,621,621,621,621,621,621,621,621,621,621,621,621,621,621,621,621,621,621,621,621,621,621,621,621,621,621,621,621,621,621,621,621,621,621,621,621,621,621,621,621,621,621,621,621,621,621,621,621,621,621,621,621,621,621,621,621,621,621,621,621,621,621,621,621,621,619,618,606,595,585,574,560,522,483,471,445,427,398,384,368,345,311,213,149,127,108,94,83,80,75,69,63,49,42,35,27,23,18,16,15,13],"timestamp_mouse":[11,41,48,69,89,109,128,149,169,187,209,227,248,269,288,308,328,348,368,389,408,428,448,469,489,509,529,548,569,587,609,628,648,668,689,709,729,749,768,788,809,829,849,868,888,909,929,948,968,987,1008,1028,1048,1069,1088,1109,1128,1148,1167,1189,1209,1229,1249,1268,1287,1309,1329,1348,1369,1389,1408,1428,1448,1468,1489,1509,1529,1548,1569,1588,1609,1628,1648,1668,1687,1709,1729,1749,1768,1788,1808,1828,1848,1869,1888,1909,1929,1948,1968,1988,2008,2027,2049,2068,2089,2108,2128,2149,2168,2189,2209,2228,2248,2268,2289,2308,2329,2348,2368,2388,2408,2428,2448,2467,2489,2508,2529,2548,2568,2587,2609,2629],"xSR":741.5,"ySR":573.95,"xT1":424.9,"yT1":0,"xT2":1058.1,"yT2":0,"toosoon":0,"cond_shown":"Congruent","ratio_trial":300,"L_num":20,"L_den":25,"R_num":9,"R_den":18,"correct_side":1,"subjID":"juliana moreno 10 ","gender":"1","school":"4d","age":"9"},{"start_time":1552313038667,"click_time":1552313041247,"finger_time":1552313040366,"fix_duration":1138.5142596975227,"trial":3,"RT":1699,"MT":881,"sideResp":2,"stimulus":[],"xmouse":[818,818,818,818,818,818,818,818,818,818,818,818,818,818,818,818,818,818,818,818,818,818,818,818,818,818,818,818,818,818,818,818,818,818,818,818,818,818,818,818,818,818,818,818,818,818,818,818,818,818,818,818,818,818,818,818,818,818,818,818,818,818,818,818,818,818,818,818,818,818,818,818,818,818,818,818,818,818,818,818,818,818,824,833,839,851,884,884,880,877,873,869,868,868,868,875,887,896,909,930,961,978,1004,1028,1045,1064,1065,1065,1066,1066,1066,1066,1066,1066,1065,1065,1060,1056,1051,1048,1046,1043,1042,1041,1041,1041,1041,1044,1054,1066],"ymouse":[643,643,643,643,643,643,643,643,643,643,643,643,643,643,643,643,643,643,643,643,643,643,643,643,643,643,643,643,643,643,643,643,643,643,643,643,643,643,643,643,643,643,643,643,643,643,643,643,643,643,643,643,643,643,643,643,643,643,643,643,643,643,643,643,643,643,643,643,643,643,643,643,643,643,643,643,643,643,643,643,643,641,627,606,580,547,468,448,429,408,374,363,359,356,352,339,321,311,302,292,281,274,262,252,239,210,205,203,202,202,196,194,191,189,186,176,145,124,105,85,65,36,30,26,26,26,26,25,21,18],"timestamp_mouse":[11,20,42,60,81,100,120,140,160,181,201,221,239,261,281,301,321,341,360,381,400,420,441,461,480,501,520,540,561,581,600,620,641,661,680,700,721,741,760,781,800,821,841,860,880,901,921,940,960,980,1000,1021,1040,1060,1079,1099,1121,1140,1161,1180,1200,1220,1240,1261,1280,1301,1321,1339,1359,1380,1401,1420,1440,1461,1480,1501,1521,1539,1561,1581,1600,1619,1641,1660,1681,1699,1721,1741,1760,1780,1800,1820,1840,1860,1880,1900,1920,1940,1960,1980,2000,2020,2040,2060,2081,2100,2120,2140,2160,2180,2201,2221,2241,2260,2281,2300,2321,2340,2361,2380,2399,2420,2440,2461,2480,2501,2520,2540,2560,2580],"xSR":741.5,"ySR":573.95,"xT1":424.9,"yT1":0,"xT2":1058.1,"yT2":0,"toosoon":0,"cond_shown":"Congruent","ratio_trial":100,"L_num":2,"L_den":5,"R_num":6,"R_den":12,"correct_side":2,"subjID":"juliana moreno 10 ","gender":"1","school":"4d","age":"9"},{"start_time":1552313045619,"click_time":1552313047548,"finger_time":1552313047187,"fix_duration":1110.7003117587371,"trial":4,"RT":1568,"MT":361,"sideResp":2,"stimulus":[],"xmouse":[787,787,787,787,787,787,787,787,787,787,788,788,787,784,782,781,781,781,781,781,781,781,781,781,781,781,781,781,781,781,781,781,781,781,781,781,781,781,781,781,781,781,781,781,781,781,781,781,781,781,781,781,781,781,781,781,781,781,781,781,781,781,781,781,781,781,781,781,781,781,781,781,781,781,799,816,827,838,858,865,870,876,886,899,901,901,901,902,906,910,920,933,951,1028,1071,1108,1130],"ymouse":[638,638,638,638,638,638,638,638,638,638,635,634,629,623,615,614,613,613,613,613,613,613,613,613,613,613,613,613,613,613,613,613,613,613,613,613,613,613,613,613,613,613,613,613,613,613,613,613,613,613,613,613,613,613,613,613,613,613,613,613,613,613,613,613,613,613,613,613,613,613,613,613,613,613,603,594,585,576,554,542,531,515,496,469,446,439,433,427,413,402,384,362,333,245,190,128,70],"timestamp_mouse":[14,36,49,68,88,109,128,148,168,189,209,228,249,268,288,308,329,349,367,389,409,429,449,469,489,509,528,549,569,588,607,629,648,668,689,709,729,748,768,788,807,827,848,869,888,908,929,948,969,987,1008,1028,1049,1069,1089,1109,1128,1148,1167,1189,1208,1229,1249,1267,1287,1309,1329,1349,1368,1389,1408,1428,1449,1468,1489,1508,1528,1548,1568,1588,1610,1627,1648,1668,1688,1708,1728,1748,1768,1788,1809,1828,1848,1868,1888,1908,1929],"xSR":741.5,"ySR":573.95,"xT1":424.9,"yT1":0,"xT2":1058.1,"yT2":0,"toosoon":0,"cond_shown":"Congruent","ratio_trial":300,"L_num":5,"L_den":25,"R_num":7,"R_den":14,"correct_side":2,"subjID":"juliana moreno 10 ","gender":"1","school":"4d","age":"9"},{"start_time":1552313050237,"click_time":1552313052927,"finger_time":1552313052148,"fix_duration":1369.4630473041893,"trial":5,"RT":1911,"MT":779,"sideResp":1,"stimulus":[],"xmouse":[760,760,760,760,760,760,760,760,760,760,760,760,760,760,760,760,760,760,760,760,760,760,760,760,760,760,760,760,760,760,760,760,760,760,760,760,760,760,760,760,760,760,760,760,760,760,760,760,760,760,760,760,760,760,760,760,760,760,760,760,760,760,760,760,760,760,760,760,760,760,760,760,760,760,760,760,760,760,760,760,760,760,760,760,760,760,760,760,760,760,760,760,760,760,748,714,665,595,422,327,179,98,48,16,13,11,11,20,39,84,97,113,131,154,206,226,239,249,272,300,318,337,355,365,378,379,379,379,379,380,388,393,400,420,430],"ymouse":[660,660,660,660,660,660,660,660,660,660,660,660,660,660,660,660,660,660,660,660,660,660,660,660,660,660,660,660,660,660,660,660,660,660,660,660,660,660,660,660,660,660,660,660,660,660,660,660,660,660,660,660,660,660,660,660,660,660,660,660,660,660,660,660,660,660,660,660,660,660,660,660,660,660,660,660,660,660,660,660,660,660,660,660,660,660,660,660,660,660,660,660,660,660,651,611,556,492,359,292,175,104,45,0,0,0,0,0,0,0,0,0,0,0,0,0,0,0,0,0,0,1,3,5,7,7,7,7,7,7,10,12,12,14,16],"timestamp_mouse":[10,38,50,71,89,111,130,151,169,190,210,231,251,271,290,309,331,351,370,390,411,430,450,470,491,510,529,551,570,591,611,629,651,671,691,710,731,751,771,790,811,830,851,871,891,909,930,950,969,991,1012,1030,1050,1070,1091,1110,1131,1151,1169,1190,1210,1230,1251,1271,1289,1311,1331,1351,1370,1391,1410,1430,1451,1470,1491,1511,1530,1551,1571,1590,1611,1630,1650,1671,1691,1711,1731,1750,1771,1790,1811,1831,1850,1870,1891,1911,1930,1951,1970,1991,2010,2031,2050,2071,2091,2111,2130,2151,2170,2190,2210,2229,2249,2270,2291,2311,2330,2351,2370,2391,2410,2430,2451,2470,2489,2511,2530,2550,2570,2590,2610,2629,2650,2670,2689],"xSR":741.5,"ySR":573.95,"xT1":424.9,"yT1":0,"xT2":1058.1,"yT2":0,"toosoon":0,"cond_shown":"Incongruent","ratio_trial":200,"L_num":11,"L_den":20,"R_num":3,"R_den":4,"correct_side":2,"subjID":"juliana moreno 10 ","gender":"1","school":"4d","age":"9"},{"start_time":1552313057359,"click_time":1552313061167,"finger_time":1552313060427,"fix_duration":250,"trial":6,"RT":3068,"MT":740,"sideResp":2,"stimulus":[],"xmouse":[778,778,778,778,778,778,778,778,778,778,778,778,778,778,778,778,778,778,778,778,778,778,778,778,778,778,778,778,778,778,778,778,778,778,778,778,778,778,778,778,778,778,778,778,778,778,778,778,778,778,778,778,778,777,777,776,776,776,776,776,776,776,776,776,776,776,776,776,776,776,776,776,776,776,776,776,776,776,776,776,776,776,776,776,776,776,776,776,776,776,776,776,776,776,776,776,776,776,776,776,776,776,776,776,776,776,776,776,776,776,776,776,776,776,776,776,776,776,776,776,776,776,776,776,776,776,776,776,776,776,780,782,782,783,783,786,787,788,789,791,791,793,795,800,805,807,810,812,817,821,824,828,833,842,848,855,865,874,892,904,911,918,924,938,947,960,972,983,1005,1014,1031,1040,1046,1059,1065,1072,1078,1086,1097,1103,1105,1110,1110,1110,1110,1108,1104,1100,1092,1085,1074],"ymouse":[622,622,622,622,622,622,622,622,622,622,622,622,622,622,622,622,622,622,622,622,622,622,622,622,622,622,622,622,622,622,622,622,622,622,622,622,622,622,622,622,622,622,622,622,622,622,622,622,622,622,622,622,622,621,621,621,621,621,621,621,621,621,621,621,621,621,621,621,621,621,621,621,621,621,621,621,621,621,621,621,621,621,621,621,621,621,621,621,621,621,621,621,621,621,621,621,621,621,621,621,621,621,621,621,621,621,621,621,621,621,621,621,621,621,621,621,621,621,621,621,621,621,621,621,621,621,621,621,621,621,621,620,620,619,619,617,616,615,614,613,613,612,612,609,607,606,605,604,602,600,599,599,597,595,593,592,589,586,581,577,574,570,567,556,547,537,525,515,493,484,473,466,461,449,441,431,419,406,379,358,350,326,310,283,270,252,229,201,147,125,89],"timestamp_mouse":[11,37,49,68,89,108,128,149,169,187,208,229,248,269,289,308,329,348,368,389,408,428,448,468,488,509,529,549,568,589,608,628,648,668,687,709,729,749,769,787,809,828,847,869,888,908,929,949,969,987,1008,1028,1048,1069,1089,1108,1128,1148,1169,1189,1208,1229,1248,1269,1288,1309,1328,1347,1369,1389,1409,1429,1449,1467,1489,1509,1529,1549,1568,1589,1609,1628,1649,1668,1688,1708,1728,1749,1769,1789,1809,1829,1848,1869,1889,1908,1929,1949,1968,1989,2009,2028,2049,2068,2088,2109,2128,2149,2169,2189,2209,2228,2249,2267,2288,2309,2329,2349,2369,2389,2409,2428,2449,2468,2488,2509,2528,2547,2567,2589,2607,2628,2648,2668,2688,2708,2728,2748,2768,2789,2807,2828,2848,2867,2887,2908,2929,2949,2968,2989,3008,3028,3048,3068,3088,3109,3128,3149,3167,3187,3208,3227,3248,3268,3288,3308,3329,3349,3368,3389,3408,3428,3448,3468,3488,3508,3528,3548,3568,3587,3609,3629,3648,3668,3688,3708,3727,3749,3768,3788,3808],"xSR":741.5,"ySR":573.95,"xT1":424.9,"yT1":0,"xT2":1058.1,"yT2":0,"toosoon":0,"cond_shown":"Congruent","ratio_trial":300,"L_num":3,"L_den":6,"R_num":4,"R_den":5,"correct_side":2,"subjID":"juliana moreno 10 ","gender":"1","school":"4d","age":"9"},{"start_time":1552313063122,"click_time":1552313067348,"finger_time":1552313066708,"fix_duration":393.0755190885843,"trial":7,"RT":3586,"MT":640,"sideResp":1,"stimulus":[],"xmouse":[792,795,795,795,795,796,797,798,798,800,800,801,801,801,801,801,801,801,801,801,801,801,801,801,801,801,801,801,801,801,801,801,801,801,801,801,801,801,801,801,799,798,798,798,798,798,798,798,798,798,798,798,798,798,798,798,798,798,798,798,798,798,798,798,798,798,798,798,798,798,798,798,798,798,798,798,798,798,798,798,798,798,798,798,798,798,798,798,798,798,798,798,798,798,798,798,798,798,798,798,798,798,798,798,798,798,798,798,798,798,798,798,798,798,798,798,798,798,798,798,798,798,798,798,798,798,798,798,798,798,798,798,798,798,798,798,798,798,798,798,798,798,798,798,798,798,798,798,798,798,798,798,798,798,798,798,798,798,798,798,798,798,798,798,798,798,798,798,798,798,796,795,793,791,789,787,784,782,780,776,773,766,761,754,747,731,722,711,695,691,681,667,658,647,629,594,579,568,557,550,547,544,543,541,538,529,526,525,525,525,525,521],"ymouse":[670,670,670,670,670,670,669,667,665,663,661,660,660,660,659,659,659,659,659,659,659,659,659,659,659,659,659,659,659,659,659,659,659,659,659,659,659,659,658,657,654,653,653,653,653,653,653,653,653,653,653,653,653,653,653,653,653,653,653,653,653,653,653,653,653,653,653,653,653,653,653,653,653,653,653,653,653,653,653,653,653,653,653,653,653,653,653,653,653,653,653,653,653,653,653,653,653,653,653,653,653,653,653,653,653,653,653,653,653,653,653,653,653,653,653,653,653,653,653,653,653,653,653,653,653,653,653,653,653,653,653,653,653,653,653,653,653,653,653,653,653,653,653,653,653,653,653,653,653,653,653,653,653,653,653,653,653,653,653,653,653,653,653,653,653,653,653,653,653,649,627,619,614,607,603,599,591,584,577,565,551,531,521,511,500,474,461,447,429,423,410,391,376,351,308,193,141,103,77,59,44,36,32,27,21,16,15,15,15,15,15,15],"timestamp_mouse":[5,41,45,65,84,105,124,145,165,185,205,225,246,266,285,304,326,346,364,386,406,426,446,464,485,505,526,545,565,585,606,625,644,666,684,706,726,746,765,785,804,826,845,865,886,906,925,944,966,985,1004,1025,1045,1066,1086,1105,1126,1145,1166,1185,1206,1226,1244,1266,1286,1305,1325,1346,1366,1385,1406,1425,1444,1464,1486,1504,1526,1546,1565,1585,1606,1626,1646,1666,1686,1706,1726,1745,1766,1786,1806,1825,1846,1864,1886,1905,1926,1946,1966,1985,2005,2025,2046,2066,2085,2106,2126,2145,2165,2185,2205,2226,2246,2266,2285,2305,2326,2346,2365,2386,2406,2425,2446,2466,2485,2505,2526,2546,2565,2586,2605,2626,2646,2665,2686,2706,2725,2745,2766,2785,2806,2824,2845,2866,2884,2905,2925,2946,2965,2986,3006,3026,3045,3066,3085,3105,3125,3146,3166,3186,3205,3225,3246,3265,3285,3304,3325,3346,3366,3385,3405,3424,3444,3465,3485,3505,3524,3546,3565,3586,3605,3625,3645,3665,3685,3705,3725,3745,3765,3784,3805,3825,3845,3865,3885,3906,3925,3945,3964,3985,4005,4025,4045,4065,4085,4106,4124,4146,4165,4185,4206,4226],"xSR":741.5,"ySR":573.95,"xT1":424.9,"yT1":0,"xT2":1058.1,"yT2":0,"toosoon":0,"cond_shown":"Incongruent","ratio_trial":200,"L_num":4,"L_den":30,"R_num":1,"R_den":3,"correct_side":2,"subjID":"juliana moreno 10 ","gender":"1","school":"4d","age":"9"},{"start_time":1552313072413,"click_time":1552313074548,"finger_time":1552313074008,"fix_duration":1004.8432749631978,"trial":8,"RT":1595,"MT":540,"sideResp":2,"stimulus":[],"xmouse":[785,785,785,785,785,785,785,785,785,785,785,785,785,785,785,785,785,785,785,785,785,785,785,785,785,785,785,785,785,785,785,785,785,785,785,785,785,785,785,785,785,785,785,785,785,785,785,785,785,785,785,785,785,785,785,785,785,785,785,785,785,785,785,785,785,785,785,785,785,785,785,785,785,785,785,785,788,801,816,832,857,918,966,1015,1054,1073,1110,1133,1148,1155,1160,1161,1161,1161,1161,1158,1158,1153,1147,1144,1140,1138,1135,1135,1134,1133,1128],"ymouse":[633,633,633,633,633,633,633,633,633,633,633,633,633,633,633,633,633,633,633,633,633,633,633,633,633,633,633,633,633,633,633,633,633,633,633,633,633,633,633,633,633,633,633,633,633,633,633,633,633,633,633,633,633,633,633,633,633,633,633,633,633,633,633,633,633,633,633,633,633,633,633,633,633,633,633,633,626,602,579,556,516,452,412,377,347,328,289,263,232,202,174,131,127,124,122,117,114,106,105,104,103,103,103,103,103,102,94],"timestamp_mouse":[16,42,54,74,94,116,134,154,176,196,215,235,256,275,296,316,335,354,375,395,416,436,454,475,496,514,535,555,576,596,615,634,654,676,694,716,736,754,775,796,815,835,856,874,895,915,935,955,974,995,1014,1035,1055,1074,1096,1115,1134,1155,1175,1194,1216,1235,1255,1274,1295,1316,1335,1355,1374,1396,1415,1435,1454,1475,1496,1514,1535,1554,1575,1595,1615,1635,1654,1674,1695,1715,1735,1754,1774,1795,1815,1835,1854,1874,1896,1915,1936,1954,1975,1995,2015,2035,2055,2074,2094,2115,2135],"xSR":741.5,"ySR":573.95,"xT1":424.9,"yT1":0,"xT2":1058.1,"yT2":0,"toosoon":0,"cond_shown":"Incongruent","ratio_trial":300,"L_num":13,"L_den":26,"R_num":12,"R_den":15,"correct_side":2,"subjID":"juliana moreno 10 ","gender":"1","school":"4d","age":"9"},{"start_time":1552313082148,"click_time":1552313083949,"finger_time":1552313083768,"fix_duration":897.3531322367144,"trial":9,"RT":1620,"MT":181,"sideResp":1,"stimulus":[],"xmouse":[751,751,751,751,751,751,751,751,751,751,751,751,751,751,751,751,751,751,751,751,751,751,751,751,751,751,751,751,751,751,751,751,751,751,751,751,751,751,751,751,751,751,751,751,751,751,751,751,751,751,751,751,751,751,751,751,751,751,751,751,751,751,751,751,751,751,751,751,751,751,751,751,751,751,751,751,751,751,751,751,749,745,714,695,674,651,596,563,534,507,485],"ymouse":[627,627,627,627,627,627,627,627,627,627,627,627,627,627,627,627,627,627,627,627,627,627,627,627,627,627,627,627,627,627,627,627,627,627,627,627,627,627,627,627,627,627,627,627,627,623,620,618,617,617,617,617,617,617,617,617,617,617,617,617,617,617,617,617,617,617,617,617,617,617,617,617,617,617,616,614,613,612,607,599,583,556,409,344,288,244,180,150,124,101,85],"timestamp_mouse":[11,21,39,59,79,101,121,139,160,180,201,219,240,260,281,299,320,341,360,379,399,419,439,461,479,501,520,541,559,580,600,621,639,660,681,701,720,739,761,781,799,819,841,860,879,899,920,939,960,980,999,1020,1039,1059,1080,1101,1120,1141,1160,1180,1201,1221,1241,1261,1280,1300,1320,1339,1360,1381,1400,1420,1441,1459,1480,1500,1520,1539,1559,1580,1600,1620,1640,1660,1680,1700,1720,1739,1759,1779,1801],"xSR":741.5,"ySR":573.95,"xT1":424.9,"yT1":0,"xT2":1058.1,"yT2":0,"toosoon":0,"cond_shown":"Congruent","ratio_trial":200,"L_num":6,"L_den":12,"R_num":7,"R_den":10,"correct_side":2,"subjID":"juliana moreno 10 ","gender":"1","school":"4d","age":"9"},{"start_time":1552313086601,"click_time":1552313088270,"finger_time":1552313088048,"fix_duration":1111.3735846931177,"trial":10,"RT":1447,"MT":222,"sideResp":2,"stimulus":[],"xmouse":[789,789,789,789,789,790,790,790,790,790,790,790,790,790,790,790,790,790,790,790,790,790,790,790,790,790,790,790,790,790,790,790,790,790,790,790,790,790,790,790,790,790,790,790,790,790,790,790,790,790,790,790,790,790,790,790,790,790,790,790,790,790,790,790,790,790,790,790,790,790,790,805,837,864,909,944,957,989,1002,1015,1023,1034,1049,1074],"ymouse":[587,587,587,587,587,587,587,587,587,587,587,587,588,588,588,588,588,588,588,588,588,588,588,588,588,588,588,588,588,588,588,588,588,588,588,588,588,588,588,588,588,588,588,588,588,588,588,588,588,588,588,588,588,588,588,588,588,588,588,588,588,588,588,588,588,588,588,588,588,588,588,584,562,528,423,341,312,245,216,170,151,128,98,18],"timestamp_mouse":[10,30,46,67,86,107,127,147,166,187,208,228,247,267,286,307,327,346,366,388,408,428,447,466,486,507,526,548,567,588,608,627,648,667,687,706,728,748,768,786,806,827,848,867,886,906,927,948,968,988,1007,1027,1047,1066,1088,1106,1128,1147,1166,1188,1206,1226,1247,1268,1288,1308,1327,1346,1368,1388,1406,1428,1447,1466,1486,1507,1527,1546,1566,1588,1607,1627,1647,1668],"xSR":741.5,"ySR":573.95,"xT1":424.9,"yT1":0,"xT2":1058.1,"yT2":0,"toosoon":0,"cond_shown":"Incongruent","ratio_trial":100,"L_num":6,"L_den":10,"R_num":11,"R_den":22,"correct_side":1,"subjID":"juliana moreno 10 ","gender":"1","school":"4d","age":"9"},{"start_time":1552313092832,"click_time":1552313093748,"finger_time":1552313093348,"fix_duration":1042.0473007371609,"trial":11,"RT":516,"MT":400,"sideResp":1,"stimulus":[],"xmouse":[776,776,776,776,776,776,776,776,776,776,776,776,776,776,776,776,776,776,776,776,776,777,777,767,761,751,742,734,703,676,649,615,593,562,548,539,531,521,506,503,501,499,498,488,480,473],"ymouse":[647,647,647,647,647,647,647,647,647,647,647,647,647,647,647,647,647,647,647,647,647,646,642,616,600,573,536,492,378,311,246,169,120,34,0,0,0,0,0,0,0,0,0,0,0,2],"timestamp_mouse":[16,36,57,76,95,116,136,156,176,195,217,236,255,275,297,317,336,356,375,397,415,436,455,475,495,516,536,556,575,597,615,636,656,676,695,717,737,756,775,795,815,836,856,876,896,916],"xSR":741.5,"ySR":573.95,"xT1":424.9,"yT1":0,"xT2":1058.1,"yT2":0,"toosoon":0,"cond_shown":"Congruent","ratio_trial":100,"L_num":11,"L_den":22,"R_num":4,"R_den":10,"correct_side":1,"subjID":"juliana moreno 10 ","gender":"1","school":"4d","age":"9"},{"start_time":1552313096341,"click_time":1552313099448,"finger_time":1552313099007,"fix_duration":1473.6906867244638,"trial":12,"RT":2666,"MT":441,"sideResp":2,"stimulus":[],"xmouse":[794,794,794,794,794,794,794,794,794,794,794,794,794,794,794,794,794,794,794,794,794,794,793,793,793,793,793,793,793,793,793,793,793,793,793,793,793,793,793,793,793,793,793,793,793,793,793,793,793,793,793,793,793,793,793,793,793,793,793,793,793,793,793,793,793,793,793,793,793,793,793,793,793,793,793,793,793,793,793,793,793,793,793,793,793,793,793,793,793,793,793,793,793,793,793,793,793,793,793,793,793,793,793,793,793,793,793,793,793,793,793,793,793,793,793,793,793,793,793,793,793,793,793,793,793,793,793,793,793,793,796,806,820,838,902,938,973,997,1048,1099,1138,1162,1180,1202,1203,1203,1203,1201,1183,1179,1174,1167,1161,1151,1137,1133],"ymouse":[617,617,617,617,617,617,617,617,617,617,617,617,617,617,617,617,617,617,617,617,617,617,617,617,617,617,617,617,617,617,617,617,617,617,617,617,617,617,617,617,617,617,617,617,617,617,617,617,617,617,617,617,617,617,617,617,617,617,617,617,617,617,617,617,617,617,617,617,617,617,617,617,617,617,617,617,617,617,617,617,617,617,617,617,617,617,617,617,617,617,617,617,617,617,617,617,617,617,617,617,617,617,617,617,617,617,617,617,617,617,617,617,617,617,617,617,617,617,617,617,617,617,617,617,617,617,617,617,617,616,608,594,575,552,486,454,416,380,271,197,123,57,0,0,0,0,0,0,0,0,0,0,0,0,0,3],"timestamp_mouse":[7,27,46,68,86,106,127,147,166,187,207,228,248,268,287,306,327,346,368,388,408,426,447,468,487,508,527,547,567,587,608,626,647,668,687,708,727,747,766,786,807,826,848,868,887,908,927,947,966,986,1008,1027,1048,1067,1086,1107,1127,1148,1168,1187,1208,1226,1246,1267,1287,1308,1328,1347,1367,1386,1407,1427,1448,1468,1487,1507,1528,1548,1566,1586,1608,1626,1647,1666,1688,1707,1727,1746,1768,1787,1806,1828,1848,1867,1886,1908,1927,1946,1967,1987,2006,2027,2046,2067,2087,2108,2126,2148,2166,2187,2207,2228,2247,2266,2287,2307,2327,2348,2366,2386,2407,2427,2447,2466,2487,2506,2528,2547,2568,2586,2607,2626,2648,2666,2687,2707,2727,2746,2766,2786,2807,2827,2847,2869,2887,2907,2926,2946,2969,2987,3007,3028,3047,3066,3087,3107],"xSR":741.5,"ySR":573.95,"xT1":424.9,"yT1":0,"xT2":1058.1,"yT2":0,"toosoon":0,"cond_shown":"Incongruent","ratio_trial":300,"L_num":4,"L_den":20,"R_num":2,"R_den":4,"correct_side":2,"subjID":"juliana moreno 10 ","gender":"1","school":"4d","age":"9"},{"start_time":1552313106832,"click_time":1552313109047,"finger_time":1552313108447,"fix_duration":1181.3806619893007,"trial":13,"RT":1615,"MT":600,"sideResp":1,"stimulus":[],"xmouse":[778,778,778,778,778,778,778,778,778,778,778,778,778,778,778,778,778,778,778,778,778,778,778,778,778,778,778,778,778,778,778,778,778,778,778,778,778,778,778,778,778,778,778,778,778,778,778,778,778,778,778,778,778,778,778,778,778,778,778,778,778,778,778,778,778,778,778,778,778,778,778,778,778,778,778,778,778,778,778,778,775,760,739,707,669,571,530,498,471,441,436,431,422,419,409,402,401,401,399,394,386,381,380,379,379,380,385,391,398,406,427],"ymouse":[595,595,595,595,595,595,595,595,595,595,595,595,595,594,589,587,585,585,585,585,585,585,585,585,585,585,585,585,585,585,585,585,585,585,585,585,585,585,585,585,585,585,585,585,585,585,585,585,585,585,585,585,585,585,585,585,585,585,585,585,585,585,585,585,585,585,585,585,585,585,585,585,585,585,585,585,585,585,585,576,556,521,465,395,314,101,22,0,0,0,0,0,0,0,0,0,0,0,0,0,5,9,10,10,11,11,12,13,15,17,24],"timestamp_mouse":[15,45,56,75,95,115,137,155,176,197,217,236,256,276,296,317,335,355,376,395,416,437,456,477,496,515,535,557,577,597,615,636,657,676,697,715,735,756,776,797,817,836,855,876,897,916,937,955,976,996,1016,1036,1056,1075,1096,1116,1136,1155,1175,1196,1215,1235,1256,1275,1295,1317,1336,1355,1376,1395,1416,1437,1455,1476,1497,1516,1537,1557,1576,1596,1615,1636,1656,1676,1695,1715,1736,1756,1776,1797,1815,1836,1855,1877,1896,1915,1936,1956,1976,1996,2015,2036,2057,2076,2096,2116,2135,2156,2176,2197,2215],"xSR":741.5,"ySR":573.95,"xT1":424.9,"yT1":0,"xT2":1058.1,"yT2":0,"toosoon":0,"cond_shown":"Congruent","ratio_trial":200,"L_num":6,"L_den":15,"R_num":3,"R_den":15,"correct_side":1,"subjID":"juliana moreno 10 ","gender":"1","school":"4d","age":"9"},{"start_time":1552313113094,"click_time":1552313115847,"finger_time":1552313115308,"fix_duration":264.65322767542375,"trial":14,"RT":2214,"MT":539,"sideResp":1,"stimulus":[],"xmouse":[800,800,801,801,801,801,801,802,802,802,802,802,802,802,802,802,802,802,802,802,802,802,802,802,802,802,802,802,802,802,802,802,802,802,802,802,802,802,802,802,802,802,802,802,802,802,802,802,802,802,802,802,802,802,802,802,802,802,802,802,803,804,805,806,806,806,806,807,807,808,808,808,808,808,808,808,808,808,808,808,808,808,808,808,808,808,808,808,808,808,808,808,808,808,808,808,808,808,808,808,808,808,808,809,809,810,810,813,814,815,816,818,820,822,821,818,811,767,730,687,658,634,591,579,574,569,562,540,535,531,528,528,526,524,521,519,511,496],"ymouse":[623,623,623,623,623,623,623,623,623,623,623,623,623,623,623,623,623,623,623,623,623,623,623,623,623,623,623,623,623,623,623,623,623,623,623,623,623,623,623,623,623,623,623,623,623,623,623,623,623,623,623,623,623,623,623,623,623,623,623,623,623,624,624,624,624,624,624,625,625,625,625,625,625,625,625,625,625,625,625,625,625,625,625,625,625,625,625,625,625,625,625,625,625,625,625,625,625,625,625,625,625,625,625,622,617,612,605,590,581,574,566,556,528,511,492,476,457,404,380,363,348,333,310,301,296,288,272,231,218,209,202,199,188,177,163,145,113,79],"timestamp_mouse":[14,36,53,74,94,113,135,153,174,194,214,234,254,274,293,313,333,354,375,394,413,434,454,474,494,514,534,553,573,595,614,634,655,674,694,713,734,755,774,793,814,834,855,873,894,913,934,955,973,993,1013,1034,1055,1074,1095,1113,1134,1155,1175,1194,1213,1234,1254,1275,1295,1313,1334,1354,1375,1393,1414,1433,1455,1473,1493,1513,1533,1553,1574,1593,1615,1635,1653,1673,1695,1715,1734,1754,1773,1794,1814,1834,1853,1873,1894,1914,1934,1955,1975,1994,2014,2033,2055,2074,2094,2114,2134,2153,2174,2193,2214,2234,2253,2273,2294,2313,2333,2354,2375,2394,2415,2434,2454,2474,2494,2514,2533,2554,2574,2594,2613,2634,2654,2673,2693,2713,2733,2753],"xSR":741.5,"ySR":573.95,"xT1":424.9,"yT1":0,"xT2":1058.1,"yT2":0,"toosoon":0,"cond_shown":"Incongruent","ratio_trial":100,"L_num":3,"L_den":6,"R_num":4,"R_den":10,"correct_side":1,"subjID":"juliana moreno 10 ","gender":"1","school":"4d","age":"9"},{"start_time":1552313122395,"click_time":1552313124067,"finger_time":1552313123868,"fix_duration":1044.3243988963475,"trial":15,"RT":1473,"MT":199,"sideResp":2,"stimulus":[],"xmouse":[797,797,797,797,797,797,797,797,797,797,797,797,797,797,797,797,797,797,797,797,797,797,797,797,797,797,797,797,797,797,797,797,797,797,797,797,797,797,797,797,797,797,797,797,797,797,797,797,797,797,797,797,797,797,797,797,797,797,797,797,797,797,797,797,797,797,797,797,797,797,799,816,838,892,926,957,981,1006,1058,1076,1090,1101,1108,1120],"ymouse":[611,611,611,611,611,611,611,611,611,611,611,611,611,611,611,611,611,611,611,611,611,611,611,611,611,611,611,611,611,611,611,611,611,611,611,611,611,611,611,611,611,611,611,611,611,611,611,611,611,611,611,611,611,611,611,611,611,611,611,611,611,611,611,611,611,611,611,611,611,611,608,596,576,501,438,377,328,281,202,172,148,123,101,62],"timestamp_mouse":[14,41,54,74,94,113,133,154,173,193,213,234,252,274,294,313,332,354,372,394,413,434,453,472,494,512,533,553,574,592,614,634,654,672,693,713,732,752,773,792,812,834,854,873,892,914,933,954,972,993,1012,1033,1054,1074,1092,1112,1132,1154,1174,1193,1213,1233,1252,1273,1294,1313,1333,1353,1373,1392,1412,1433,1453,1473,1492,1513,1533,1554,1576,1593,1613,1633,1653,1672],"xSR":741.5,"ySR":573.95,"xT1":424.9,"yT1":0,"xT2":1058.1,"yT2":0,"toosoon":0,"cond_shown":"Congruent","ratio_trial":100,"L_num":12,"L_den":30,"R_num":13,"R_den":26,"correct_side":2,"subjID":"juliana moreno 10 ","gender":"1","school":"4d","age":"9"},{"start_time":1552313140170,"click_time":1552313141707,"finger_time":1552313141407,"fix_duration":760.305336313846,"trial":16,"RT":1237,"MT":300,"sideResp":2,"stimulus":[],"xmouse":[796,796,796,796,796,796,796,796,796,796,796,796,796,796,796,796,796,796,796,796,796,796,796,796,796,796,796,796,796,796,796,796,796,796,796,796,796,796,796,796,796,796,796,796,796,796,796,796,796,796,796,796,796,796,796,796,796,796,796,798,802,823,832,842,853,870,899,937,954,978,998,1035,1039,1047,1053,1055,1059],"ymouse":[603,603,603,603,603,603,603,603,603,603,603,603,603,603,603,603,603,603,603,603,603,603,603,603,603,603,603,603,603,603,603,603,603,603,603,603,603,603,603,603,603,603,603,603,603,603,603,603,603,603,603,603,603,603,603,603,603,603,603,599,593,559,537,504,466,416,359,255,215,175,140,62,54,37,26,19,15],"timestamp_mouse":[17,37,57,77,99,117,138,158,177,197,219,237,257,279,298,318,338,357,377,398,418,438,457,477,497,519,537,557,578,598,617,638,657,678,698,718,737,757,779,797,818,839,857,877,899,917,937,958,978,999,1018,1038,1057,1078,1099,1117,1139,1159,1177,1198,1217,1237,1259,1278,1297,1317,1338,1357,1378,1398,1445,1446,1458,1478,1498,1519,1537],"xSR":741.5,"ySR":573.95,"xT1":424.9,"yT1":0,"xT2":1058.1,"yT2":0,"toosoon":0,"cond_shown":"Incongruent","ratio_trial":300,"L_num":13,"L_den":26,"R_num":12,"R_den":15,"correct_side":2,"subjID":"juliana moreno 10 ","gender":"1","school":"4d","age":"9"},{"start_time":1552313145049,"click_time":1552313148748,"finger_time":1552313148148,"fix_duration":1160.9779686479837,"trial":17,"RT":3099,"MT":600,"sideResp":2,"stimulus":[],"xmouse":[790,790,790,790,790,790,790,790,790,790,790,790,790,790,790,790,790,790,790,790,790,790,790,790,790,790,790,790,790,790,790,790,790,790,790,790,790,790,790,790,790,790,790,790,790,790,790,790,790,790,790,790,790,790,790,790,790,790,790,790,790,790,790,790,790,790,790,790,790,790,790,790,790,790,790,790,790,790,790,790,790,790,790,790,790,790,790,790,790,790,790,790,790,790,790,790,790,790,790,790,790,790,790,790,790,790,790,790,790,790,790,790,790,790,790,790,790,790,790,790,790,790,790,790,790,790,790,790,790,790,790,790,790,790,790,790,790,790,790,790,790,790,790,790,790,790,790,790,790,790,792,794,802,834,932,1051,1189,1319,1529,1529,1529,1529,1529,1529,1529,1561,1520,1452,1360,1349,1347,1347,1347,1347,1335,1280,1229,1186,1145,1137,1132,1126,1122,1120,1119],"ymouse":[618,618,618,618,618,618,618,618,618,619,619,619,619,619,619,619,619,619,619,619,619,619,619,619,619,619,619,619,619,619,619,619,619,619,619,619,619,619,619,619,619,619,619,619,619,619,619,619,619,619,619,619,619,619,619,619,619,619,619,619,619,619,619,619,619,619,619,619,619,619,619,619,619,619,619,619,619,619,619,619,619,619,619,619,619,619,619,619,619,619,619,619,619,619,619,619,619,619,619,619,619,619,619,619,619,619,619,619,619,619,619,619,619,619,619,619,619,619,619,619,619,619,619,619,619,619,619,619,619,619,619,619,619,619,619,619,619,619,619,619,619,619,619,619,619,619,619,619,619,619,619,619,617,611,598,580,561,545,469,469,469,469,469,469,469,289,280,271,271,270,270,270,270,270,266,249,230,213,179,163,149,134,122,100,83],"timestamp_mouse":[18,43,58,80,98,118,138,159,179,199,218,238,259,279,300,318,339,359,378,399,418,440,459,479,500,518,539,559,580,599,618,639,660,680,699,718,740,759,778,798,820,839,858,878,898,918,938,960,978,1000,1020,1038,1058,1078,1098,1119,1138,1158,1179,1199,1219,1239,1259,1278,1298,1319,1340,1359,1379,1400,1420,1438,1459,1479,1499,1518,1539,1558,1578,1599,1618,1639,1658,1678,1698,1718,1739,1759,1778,1798,1819,1838,1859,1878,1899,1918,1938,1959,1978,1999,2019,2039,2059,2079,2099,2119,2138,2159,2179,2198,2218,2240,2259,2279,2300,2318,2338,2359,2379,2399,2418,2439,2459,2478,2500,2520,2539,2558,2579,2599,2620,2638,2658,2679,2698,2718,2739,2760,2778,2800,2820,2839,2860,2879,2898,2919,2938,2958,2978,2999,3018,3039,3059,3078,3099,3118,3139,3158,3178,3198,3219,3238,3258,3278,3298,3319,3339,3358,3378,3398,3419,3438,3459,3478,3499,3518,3539,3560,3578,3598,3618,3638,3660,3678,3698],"xSR":741.5,"ySR":573.95,"xT1":424.9,"yT1":0,"xT2":1058.1,"yT2":0,"toosoon":0,"cond_shown":"Congruent","ratio_trial":300,"L_num":1,"L_den":20,"R_num":7,"R_den":20,"correct_side":2,"subjID":"juliana moreno 10 ","gender":"1","school":"4d","age":"9"},{"start_time":1552313152926,"click_time":1552313154707,"finger_time":1552313154287,"fix_duration":935.2398304075754,"trial":18,"RT":1361,"MT":420,"sideResp":2,"stimulus":[],"xmouse":[816,816,816,816,816,816,816,816,816,816,816,816,816,816,816,816,816,816,816,816,816,816,816,816,816,816,816,816,816,816,816,816,816,816,816,816,816,816,816,816,816,816,816,816,816,816,816,816,816,816,816,816,816,816,816,816,816,816,816,816,816,816,816,816,816,816,821,826,831,840,868,932,961,984,1005,1030,1039,1045,1050,1059,1064,1071,1076,1078,1078,1079,1080,1082,1083,1086],"ymouse":[619,619,619,619,619,619,619,619,619,619,619,619,619,619,619,619,619,619,619,619,619,619,619,619,619,619,619,619,619,619,619,619,619,619,619,619,619,619,619,619,619,619,619,619,619,619,619,619,619,619,619,619,619,619,619,619,619,619,619,619,619,619,619,619,619,619,599,574,539,510,444,344,305,272,243,205,190,180,172,159,151,133,122,117,114,110,109,105,101,94],"timestamp_mouse":[9,22,41,61,82,101,122,143,163,181,201,221,242,261,282,302,322,342,362,382,403,421,442,461,481,502,521,543,561,581,602,621,642,662,683,702,723,741,761,781,802,821,841,863,882,902,922,943,961,981,1003,1022,1041,1062,1083,1102,1121,1143,1161,1182,1203,1222,1242,1261,1281,1301,1321,1342,1361,1382,1403,1423,1441,1461,1481,1503,1521,1542,1561,1581,1601,1621,1641,1661,1681,1703,1721,1742,1761,1781],"xSR":741.5,"ySR":573.95,"xT1":424.9,"yT1":0,"xT2":1058.1,"yT2":0,"toosoon":0,"cond_shown":"Incongruent","ratio_trial":300,"L_num":4,"L_den":5,"R_num":8,"R_den":16,"correct_side":1,"subjID":"juliana moreno 10 ","gender":"1","school":"4d","age":"9"},{"start_time":1552313159134,"click_time":1552313160907,"finger_time":1552313159608,"fix_duration":1445.692451532798,"trial":19,"RT":474,"MT":1299,"sideResp":2,"stimulus":[],"xmouse":[774,774,774,774,774,774,774,774,774,774,774,774,774,774,774,774,774,774,774,774,774,772,769,765,758,743,733,723,712,701,677,668,660,654,650,649,649,648,648,647,646,645,645,645,645,645,645,645,645,645,645,645,644,644,644,646,647,649,651,655,666,675,689,709,745,776,868,920,962,1013,1102,1149,1199,1243,1288,1312,1341,1348,1348,1344,1318,1294,1269,1237,1217,1181,1170,1159,1146],"ymouse":[615,615,615,615,615,615,615,615,615,615,615,615,615,615,615,615,615,615,615,614,608,596,578,556,536,493,474,457,439,419,382,368,359,352,349,348,348,348,346,345,338,337,337,337,337,337,337,337,337,337,337,340,344,347,350,355,357,360,363,367,372,374,376,379,384,388,392,392,391,379,334,300,258,218,148,105,33,6,0,0,0,0,0,0,0,0,3,9,16],"timestamp_mouse":[14,38,54,73,93,113,134,153,173,194,215,234,255,274,295,313,333,354,374,394,413,433,453,474,494,513,533,554,573,593,613,633,653,673,694,714,734,754,774,794,813,833,853,873,893,914,933,954,974,994,1015,1034,1054,1073,1093,1113,1133,1154,1174,1194,1214,1234,1255,1274,1293,1313,1334,1353,1373,1394,1414,1433,1453,1474,1494,1513,1533,1553,1574,1594,1616,1633,1653,1673,1694,1716,1733,1754,1773],"xSR":741.5,"ySR":573.95,"xT1":424.9,"yT1":0,"xT2":1058.1,"yT2":0,"toosoon":0,"cond_shown":"Incongruent","ratio_trial":100,"L_num":2,"L_den":4,"R_num":8,"R_den":20,"correct_side":1,"subjID":"juliana moreno 10 ","gender":"1","school":"4d","age":"9"},{"start_time":1552313164364,"click_time":1552313165368,"finger_time":1552313164968,"fix_duration":696.327321500477,"trial":20,"RT":604,"MT":400,"sideResp":1,"stimulus":[],"xmouse":[780,780,780,780,780,780,780,780,780,780,780,780,780,780,780,780,780,780,780,780,780,780,780,780,780,780,779,779,782,785,784,754,730,712,700,678,671,666,663,660,651,640,632,625,615,594,581,565,548,527,495],"ymouse":[630,630,630,630,630,630,630,630,630,630,630,630,630,630,630,630,630,630,630,630,630,630,630,630,630,630,630,627,618,605,564,521,487,462,442,403,382,360,334,310,236,192,167,145,125,88,72,57,44,34,22],"timestamp_mouse":[11,23,43,65,84,103,125,144,163,185,204,224,243,264,285,303,323,344,363,383,403,423,444,465,485,503,524,543,563,584,604,625,643,664,683,703,723,744,763,785,803,823,843,864,883,903,923,944,964,984,1003],"xSR":741.5,"ySR":573.95,"xT1":424.9,"yT1":0,"xT2":1058.1,"yT2":0,"toosoon":0,"cond_shown":"Incongruent","ratio_trial":200,"L_num":6,"L_den":20,"R_num":3,"R_den":6,"correct_side":2,"subjID":"juliana moreno 10 ","gender":"1","school":"4d","age":"9"},{"start_time":1552313169673,"click_time":1552313170768,"finger_time":1552313170527,"fix_duration":1305.133037673162,"trial":21,"RT":854,"MT":241,"sideResp":2,"stimulus":[],"xmouse":[803,803,803,803,803,803,803,804,804,804,805,805,805,806,807,807,807,807,807,807,807,807,807,807,808,808,808,808,808,808,808,808,808,808,808,808,809,809,810,810,810,811,812,812,817,827,840,853,885,979,1021,1043,1055,1071,1078],"ymouse":[611,611,611,611,611,611,610,608,607,607,606,606,606,605,604,604,603,603,603,603,603,603,603,603,602,602,602,602,602,602,602,602,602,602,602,599,595,590,585,582,579,576,573,571,561,538,516,492,455,338,271,205,159,104,53],"timestamp_mouse":[14,44,55,75,95,115,134,155,175,195,215,234,254,274,294,315,334,355,376,394,415,436,454,475,495,514,534,555,575,594,615,634,656,676,695,715,734,756,774,794,814,835,854,874,895,914,934,955,974,995,1014,1034,1054,1075,1095],"xSR":741.5,"ySR":573.95,"xT1":424.9,"yT1":0,"xT2":1058.1,"yT2":0,"toosoon":0,"cond_shown":"Incongruent","ratio_trial":200,"L_num":14,"L_den":30,"R_num":6,"R_den":9,"correct_side":2,"subjID":"juliana moreno 10 ","gender":"1","school":"4d","age":"9"},{"start_time":1552313172082,"click_time":1552313174269,"finger_time":1552313173687,"fix_duration":250,"trial":22,"RT":1605,"MT":582,"sideResp":2,"stimulus":[],"xmouse":[810,810,810,810,810,810,810,810,810,810,810,810,810,810,810,810,810,810,810,810,810,810,810,810,810,810,810,809,807,806,805,805,805,805,805,805,805,805,805,805,805,805,805,805,805,805,805,805,805,805,805,805,805,805,805,805,805,805,805,805,805,805,805,805,805,805,805,805,805,805,805,805,805,805,805,805,805,805,810,817,855,877,917,944,969,997,1003,1007,1013,1019,1030,1037,1042,1048,1052,1061,1062,1062,1062,1062,1062,1063,1064,1066,1067,1071,1072,1075,1078,1080],"ymouse":[638,638,638,638,638,638,638,638,638,638,638,638,638,638,638,638,638,638,638,638,638,638,638,638,638,638,638,638,638,638,639,639,639,639,639,639,639,639,639,639,639,639,639,639,639,639,639,639,639,639,639,639,639,639,639,639,639,639,639,639,639,639,639,639,639,639,639,639,639,639,639,639,639,639,639,639,639,639,634,627,591,565,518,490,460,415,395,380,365,350,323,300,280,254,228,184,168,152,141,128,123,119,113,111,110,107,106,103,101,99],"timestamp_mouse":[13,28,47,66,86,107,126,146,165,186,207,227,246,266,285,305,326,345,366,385,405,425,446,465,486,507,526,546,565,586,606,626,646,666,686,706,726,746,765,785,806,825,845,865,885,905,926,945,965,985,1005,1026,1046,1067,1086,1105,1126,1146,1165,1185,1206,1226,1245,1265,1285,1306,1325,1345,1365,1386,1406,1427,1446,1465,1487,1505,1526,1545,1565,1586,1605,1625,1645,1665,1685,1705,1726,1747,1765,1785,1806,1825,1845,1865,1885,1906,1926,1945,1965,1987,2005,2026,2045,2065,2085,2105,2125,2146,2166,2187],"xSR":741.5,"ySR":573.95,"xT1":424.9,"yT1":0,"xT2":1058.1,"yT2":0,"toosoon":0,"cond_shown":"Congruent","ratio_trial":100,"L_num":3,"L_den":6,"R_num":2,"R_den":5,"correct_side":1,"subjID":"juliana moreno 10 ","gender":"1","school":"4d","age":"9"},{"start_time":1552313177790,"click_time":1552313183628,"finger_time":1552313178287,"fix_duration":681.0131727184487,"trial":23,"RT":497,"MT":5341,"sideResp":2,"stimulus":[],"xmouse":[779,779,779,779,779,779,779,779,779,779,779,779,779,779,779,779,779,779,779,779,779,779,779,779,740,723,710,705,704,700,699,697,693,688,664,652,644,641,640,640,640,640,640,640,640,641,642,645,646,646,646,647,648,649,657,660,663,666,668,673,675,679,682,686,700,709,717,727,734,754,766,778,792,815,848,861,869,877,886,900,905,911,916,923,930,936,945,956,976,1028,1045,1055,1061,1065,1081,1085,1088,1090,1092,1093,1094,1095,1096,1096,1096,1096,1096,1096,1096,1097,1098,1098,1099,1099,1099,1099,1099,1099,1099,1099,1099,1099,1099,1099,1099,1099,1099,1099,1099,1099,1099,1099,1099,1099,1099,1099,1099,1099,1099,1099,1099,1099,1099,1099,1099,1099,1099,1099,1099,1099,1099,1099,1099,1099,1099,1099,1099,1099,1099,1099,1099,1099,1099,1099,1099,1099,1099,1099,1099,1099,1099,1099,1099,1099,1099,1099,1099,1099,1099,1099,1099,1099,1099,1099,1099,1099,1099,1099,1099,1099,1099,1099,1099,1099,1099,1099,1099,1099,1099,1099,1099,1099,1099,1099,1099,1099,1099,1099,1099,1099,1100,1100,1100,1100,1100,1100,1100,1100,1100,1101,1101,1101,1101,1101,1101,1101,1102,1102,1102,1103,1103,1103,1103,1103,1103,1103,1103,1103,1103,1103,1103,1103,1103,1103,1103,1103,1103,1103,1103,1103,1103,1103,1103,1103,1103,1103,1103,1103,1103,1103,1103,1103,1103,1104,1104,1104,1104,1105,1105,1105,1106,1106,1106,1106,1106,1106,1106,1106,1106,1106,1106,1106,1106,1106,1106,1106,1106,1106,1106,1106,1106,1107],"ymouse":[630,630,630,630,630,630,630,630,630,630,630,630,630,630,630,630,630,630,630,630,630,630,628,626,601,590,580,574,570,562,557,551,541,529,488,470,458,453,452,452,452,452,452,452,452,451,451,451,451,451,451,452,452,452,455,455,457,457,459,460,460,461,462,464,467,467,469,469,469,469,463,454,442,420,379,356,336,314,294,264,252,239,221,197,164,153,145,142,140,136,135,135,134,134,131,130,130,129,127,126,124,123,121,120,120,120,120,120,119,119,115,114,110,110,108,108,108,108,108,108,108,108,108,108,108,108,108,108,108,108,108,108,108,108,108,108,108,108,108,108,108,108,108,108,108,108,108,108,108,108,108,108,108,108,108,108,108,108,108,108,108,108,108,108,108,108,108,108,108,108,108,108,108,108,108,108,108,108,108,108,108,108,108,108,108,108,108,108,108,108,108,108,108,108,108,108,108,108,108,108,108,108,108,108,108,108,108,108,108,108,107,106,106,106,106,106,106,105,105,104,104,104,104,104,104,104,104,104,103,102,102,101,101,101,101,101,101,101,101,101,101,101,101,101,101,101,101,101,101,101,101,101,101,101,101,101,101,101,101,101,101,101,101,100,100,100,100,100,100,100,100,100,100,100,100,100,100,100,100,100,100,100,100,100,100,100,100,100,100,100,100,99],"timestamp_mouse":[18,42,57,78,98,117,139,157,178,198,217,237,259,278,297,318,337,358,377,397,418,437,457,477,497,517,537,557,577,597,618,638,657,677,697,718,738,758,778,798,818,838,859,878,898,918,937,958,978,997,1017,1039,1057,1078,1098,1117,1137,1157,1177,1197,1217,1237,1257,1278,1297,1317,1337,1357,1377,1397,1417,1437,1457,1477,1497,1518,1538,1558,1578,1597,1617,1638,1657,1677,1697,1719,1738,1758,1777,1798,1817,1837,1857,1877,1898,1917,1938,1958,1977,1997,2017,2039,2058,2078,2097,2117,2137,2159,2178,2198,2218,2237,2257,2278,2298,2318,2339,2358,2377,2398,2419,2438,2459,2478,2497,2518,2537,2558,2577,2599,2617,2639,2657,2677,2698,2717,2739,2758,2779,2798,2817,2838,2857,2878,2899,2919,2937,2957,2977,2999,3017,3038,3058,3079,3099,3118,3137,3158,3177,3197,3217,3238,3258,3278,3298,3318,3337,3358,3379,3398,3417,3437,3458,3477,3499,3517,3538,3558,3577,3598,3618,3637,3659,3679,3698,3717,3738,3758,3779,3799,3817,3838,3858,3877,3899,3919,3937,3958,3977,3999,4019,4038,4057,4077,4098,4117,4138,4157,4177,4197,4217,4237,4258,4277,4298,4319,4337,4358,4377,4397,4418,4437,4457,4477,4499,4518,4538,4558,4578,4598,4617,4638,4658,4679,4698,4718,4738,4757,4779,4798,4817,4837,4857,4877,4899,4917,4938,4957,4977,4997,5017,5038,5059,5078,5097,5117,5138,5159,5179,5197,5218,5238,5257,5279,5298,5317,5337,5357,5378,5398,5418,5438,5457,5478,5497,5518,5538,5559,5578,5597,5618,5637,5659,5677,5697,5718,5738,5759,5779,5798,5817,5838],"xSR":741.5,"ySR":573.95,"xT1":424.9,"yT1":0,"xT2":1058.1,"yT2":0,"toosoon":0,"cond_shown":"Incongruent","ratio_trial":200,"L_num":1,"L_den":3,"R_num":2,"R_den":15,"correct_side":1,"subjID":"juliana moreno 10 ","gender":"1","school":"4d","age":"9"},{"start_time":1552313187221,"click_time":1552313188888,"finger_time":1552313188507,"fix_duration":972.6830889805997,"trial":24,"RT":1286,"MT":381,"sideResp":1,"stimulus":[],"xmouse":[799,799,799,799,799,799,799,799,799,799,799,799,799,799,799,799,799,799,799,799,799,799,799,799,799,799,799,799,799,799,799,799,799,799,799,799,799,799,799,799,799,799,799,799,799,799,799,799,799,799,799,799,799,799,799,799,799,799,799,799,799,799,799,799,794,772,747,722,705,683,672,666,661,656,641,635,627,620,611,573,555,535,512,495],"ymouse":[615,615,615,615,615,615,615,615,615,615,615,615,615,615,615,615,615,615,615,615,615,615,615,615,615,615,615,615,615,615,615,615,615,615,615,615,615,615,615,615,615,615,615,615,615,615,615,615,615,615,615,615,615,615,615,615,615,615,615,615,615,615,614,606,543,494,450,409,380,340,309,289,273,259,229,218,205,192,179,146,130,116,102,91],"timestamp_mouse":[14,38,47,67,87,107,128,147,167,186,206,227,246,267,288,307,326,347,367,388,408,427,446,466,486,506,527,548,567,586,606,626,648,666,686,708,726,748,768,787,806,826,846,867,886,906,928,946,966,986,1007,1028,1047,1067,1088,1106,1126,1147,1166,1186,1206,1226,1247,1266,1286,1306,1327,1346,1368,1386,1406,1426,1447,1466,1486,1506,1526,1546,1566,1586,1606,1627,1647,1667],"xSR":741.5,"ySR":573.95,"xT1":424.9,"yT1":0,"xT2":1058.1,"yT2":0,"toosoon":0,"cond_shown":"Incongruent","ratio_trial":300,"L_num":13,"L_den":26,"R_num":12,"R_den":15,"correct_side":2,"subjID":"juliana moreno 10 ","gender":"1","school":"4d","age":"9"},{"start_time":1552313191007,"click_time":1552313194707,"finger_time":1552313191487,"fix_duration":878.1048561622551,"trial":25,"RT":480,"MT":3220,"sideResp":2,"stimulus":[],"xmouse":[770,770,770,770,770,770,770,770,770,770,770,770,770,770,770,770,770,770,770,770,770,770,773,790,811,845,853,859,861,862,862,862,862,862,862,862,862,862,862,862,862,862,862,862,862,862,862,862,862,855,828,821,819,819,819,819,819,868,923,1015,1039,1055,1065,1072,1073,1073,1074,1074,1074,1074,1074,1074,1074,1074,1074,1075,1077,1078,1078,1077,1077,1073,1067,1058,1053,1053,1053,1052,1052,1052,1059,1064,1068,1073,1075,1075,1075,1075,1075,1075,1075,1075,1075,1075,1075,1075,1075,1075,1075,1075,1075,1075,1075,1075,1075,1075,1075,1075,1075,1075,1075,1075,1075,1075,1075,1076,1076,1078,1080,1082,1083,1083,1083,1083,1083,1083,1083,1083,1083,1083,1083,1083,1083,1083,1083,1083,1083,1083,1083,1083,1083,1083,1083,1083,1083,1083,1083,1083,1083,1083,1083,1085,1085,1085,1085,1086,1086,1086,1086,1086,1086,1086,1086,1086,1086,1086,1086,1087,1087,1087,1087,1088,1088,1089,1089],"ymouse":[584,584,584,584,584,584,584,584,584,584,584,584,584,584,584,584,584,584,584,584,584,581,575,562,547,510,495,485,478,475,475,475,475,475,475,475,475,475,475,475,475,475,475,475,475,475,475,475,475,475,479,482,482,482,482,482,481,447,421,382,366,355,348,342,342,342,341,338,337,321,310,297,284,270,250,241,234,225,220,217,216,214,213,210,209,209,209,209,207,203,184,171,159,145,122,114,110,108,108,108,108,108,108,108,108,108,108,108,108,108,108,108,108,108,108,108,108,108,108,108,108,108,108,108,108,108,108,107,106,105,104,104,104,104,104,104,104,104,104,104,104,104,104,104,104,103,103,103,103,103,103,103,103,103,103,103,103,103,103,103,103,103,103,103,103,102,102,102,102,102,102,102,102,102,102,102,102,102,102,102,102,101,101,101,99],"timestamp_mouse":[20,46,62,82,102,121,140,161,180,201,222,241,261,281,301,321,342,361,381,402,421,441,461,480,500,520,540,560,581,601,622,641,661,681,701,721,740,761,781,801,821,842,862,881,901,920,940,961,980,1000,1021,1040,1060,1080,1101,1120,1141,1160,1181,1201,1220,1240,1261,1280,1301,1321,1340,1360,1382,1401,1420,1441,1461,1481,1501,1520,1541,1560,1581,1601,1620,1640,1661,1680,1702,1720,1740,1760,1781,1800,1822,1840,1861,1880,1901,1920,1941,1962,1982,2001,2020,2041,2061,2081,2100,2120,2142,2161,2181,2201,2220,2241,2260,2281,2301,2320,2341,2360,2380,2401,2420,2440,2460,2482,2502,2522,2540,2560,2580,2601,2621,2640,2660,2680,2700,2721,2741,2762,2781,2801,2822,2840,2861,2881,2900,2921,2941,2961,2981,3001,3021,3040,3061,3081,3101,3121,3141,3160,3180,3201,3221,3241,3260,3281,3301,3320,3341,3361,3380,3401,3420,3441,3460,3481,3501,3520,3541,3560,3580,3601,3621,3641,3661,3681,3700],"xSR":741.5,"ySR":573.95,"xT1":424.9,"yT1":0,"xT2":1058.1,"yT2":0,"toosoon":0,"cond_shown":"Congruent","ratio_trial":100,"L_num":3,"L_den":6,"R_num":2,"R_den":5,"correct_side":1,"subjID":"juliana moreno 10 ","gender":"1","school":"4d","age":"9"},{"start_time":1552313202893,"click_time":1552313205688,"finger_time":1552313203348,"fix_duration":502.70123521072,"trial":26,"RT":455,"MT":2340,"sideResp":1,"stimulus":[],"xmouse":[771,771,771,771,771,771,771,771,771,771,771,771,771,771,771,771,771,771,771,771,771,771,775,775,760,747,724,720,720,720,720,715,712,711,711,711,711,708,707,705,705,705,704,704,704,710,777,860,987,1210,1388,1548,1548,1548,1548,1548,1577,1522,1474,1449,1430,1399,1390,1387,1386,1386,1384,1372,1363,1346,1331,1318,1293,1287,1280,1269,1258,1251,1251,1248,1242,1238,1227,1220,1213,1205,1199,1189,1185,1181,1180,1178,1175,1172,1168,1163,1154,1139,1130,1117,1108,1099,1079,1070,1059,1047,1036,1017,1011,1006,999,991,974,962,948,930,908,859,822,796,766,738,692,682,677,674,669,664,658,648,640,631,614,606,601,593,583,560,547,521],"ymouse":[599,599,599,599,599,599,599,599,599,599,599,599,599,599,599,599,599,599,599,599,599,589,472,390,313,264,215,209,209,209,209,212,216,216,216,216,217,220,222,224,226,226,227,228,232,242,278,312,345,384,401,410,410,410,410,410,370,334,306,295,284,272,268,267,267,267,266,258,249,229,211,193,162,154,147,142,139,138,138,138,138,137,136,132,130,126,123,119,118,116,116,116,115,114,114,112,112,110,110,110,110,110,113,113,115,117,119,121,122,123,124,125,125,125,125,125,125,125,125,125,125,125,118,116,116,116,116,116,116,114,114,112,110,109,108,106,104,97,93,86],"timestamp_mouse":[17,36,56,75,95,115,134,156,175,196,215,236,255,275,294,314,336,355,374,395,415,435,455,474,494,514,535,554,574,595,615,635,656,675,695,714,734,754,775,795,815,836,855,874,894,914,936,954,975,994,1014,1034,1054,1074,1096,1116,1135,1154,1174,1194,1214,1235,1254,1274,1294,1315,1335,1356,1374,1394,1415,1435,1455,1474,1495,1515,1534,1555,1575,1596,1614,1634,1654,1674,1695,1715,1734,1755,1774,1795,1814,1834,1855,1875,1895,1915,1935,1954,1974,1994,2014,2035,2055,2074,2095,2115,2134,2154,2175,2194,2215,2234,2254,2275,2294,2315,2335,2354,2374,2394,2416,2435,2456,2475,2494,2514,2536,2554,2575,2594,2615,2635,2655,2675,2694,2714,2735,2755,2774,2795],"xSR":741.5,"ySR":573.95,"xT1":424.9,"yT1":0,"xT2":1058.1,"yT2":0,"toosoon":0,"cond_shown":"Incongruent","ratio_trial":200,"L_num":4,"L_den":6,"R_num":14,"R_den":30,"correct_side":1,"subjID":"juliana moreno 10 ","gender":"1","school":"4d","age":"9"},{"start_time":1552313208382,"click_time":1552313211208,"finger_time":1552313208807,"fix_duration":414.8899283838582,"trial":27,"RT":425,"MT":2401,"sideResp":2,"stimulus":[],"xmouse":[794,794,794,794,794,794,794,794,794,794,794,794,794,794,794,794,794,794,794,793,797,815,844,917,931,937,939,939,939,939,939,939,939,939,939,939,939,939,939,939,939,939,939,939,943,957,979,1015,1080,1101,1116,1129,1137,1140,1140,1140,1140,1140,1140,1140,1140,1140,1141,1143,1143,1143,1143,1143,1141,1140,1140,1140,1140,1140,1140,1140,1140,1140,1140,1140,1140,1140,1140,1140,1140,1140,1140,1140,1141,1141,1141,1141,1141,1143,1143,1143,1143,1143,1143,1143,1144,1144,1144,1144,1144,1144,1144,1144,1144,1144,1144,1144,1144,1144,1144,1144,1144,1144,1144,1144,1144,1144,1144,1144,1144,1144,1144,1144,1144,1144,1144,1144,1144,1144,1144,1144,1144,1144,1144,1144,1144,1145],"ymouse":[618,618,618,618,618,618,618,618,618,618,618,618,618,618,618,618,618,618,618,611,582,507,409,223,193,180,176,176,176,176,176,176,176,176,176,176,176,176,176,176,176,176,176,176,174,168,159,144,124,114,109,105,103,103,103,103,103,103,103,103,103,103,103,102,102,102,102,102,101,101,101,101,101,101,101,101,101,101,101,101,101,101,101,101,101,101,101,100,100,100,100,100,100,100,100,100,100,100,100,100,100,100,100,100,100,100,100,100,100,100,100,100,100,100,100,100,100,100,100,100,100,100,100,100,100,100,100,100,100,100,100,100,100,100,100,100,100,100,100,100,100,98],"timestamp_mouse":[20,29,45,66,86,106,126,145,166,185,205,225,245,266,285,306,326,346,365,385,406,425,445,465,486,506,525,546,566,586,606,626,646,667,686,705,726,745,765,785,805,826,846,866,886,906,925,945,966,985,1006,1026,1046,1065,1086,1106,1125,1146,1166,1187,1206,1226,1245,1265,1285,1306,1326,1347,1365,1385,1406,1425,1445,1466,1486,1506,1526,1546,1566,1586,1606,1625,1646,1666,1685,1705,1725,1747,1766,1785,1805,1826,1845,1865,1886,1906,1926,1945,1965,1986,2006,2025,2045,2066,2086,2106,2127,2147,2167,2186,2206,2226,2246,2266,2286,2305,2326,2345,2366,2386,2406,2427,2446,2466,2486,2505,2526,2545,2566,2587,2606,2626,2647,2667,2687,2705,2726,2746,2765,2786,2806,2826],"xSR":741.5,"ySR":573.95,"xT1":424.9,"yT1":0,"xT2":1058.1,"yT2":0,"toosoon":0,"cond_shown":"Incongruent","ratio_trial":300,"L_num":13,"L_den":26,"R_num":12,"R_den":15,"correct_side":2,"subjID":"juliana moreno 10 ","gender":"1","school":"4d","age":"9"},{"start_time":1552313214799,"click_time":1552313216727,"finger_time":1552313216167,"fix_duration":810.0722906668357,"trial":28,"RT":1368,"MT":560,"sideResp":2,"stimulus":[],"xmouse":[802,802,802,802,802,802,802,802,802,802,802,802,802,802,802,802,802,802,802,802,802,802,802,802,802,802,802,802,802,802,802,802,802,802,802,802,802,802,802,802,802,802,802,802,802,802,802,802,802,802,802,802,802,802,802,802,802,802,802,802,802,802,802,802,802,802,801,808,826,842,857,872,886,944,981,1012,1032,1047,1067,1076,1091,1098,1106,1119,1124,1129,1132,1133,1134,1134,1134,1134,1134,1134,1134,1133,1133],"ymouse":[595,595,595,595,595,595,595,595,595,595,595,595,595,595,595,595,595,595,595,595,595,595,595,595,595,595,595,595,595,595,595,595,595,595,595,595,595,595,595,595,595,595,595,595,595,595,595,595,595,595,595,595,595,595,595,595,595,595,595,595,595,595,595,595,595,595,595,586,571,557,544,531,512,441,388,328,280,245,203,188,168,158,148,132,125,118,113,109,107,107,107,107,107,107,105,103,99],"timestamp_mouse":[10,41,49,69,89,108,130,149,169,189,208,229,249,270,288,309,329,348,369,389,410,429,449,470,489,509,529,549,569,588,608,630,649,669,688,708,728,749,770,789,810,829,849,868,888,908,930,948,969,988,1010,1030,1048,1068,1088,1108,1130,1148,1169,1188,1209,1230,1249,1268,1288,1308,1329,1350,1368,1389,1409,1428,1448,1468,1490,1508,1529,1548,1568,1589,1608,1629,1648,1668,1688,1708,1730,1750,1770,1789,1808,1829,1849,1868,1888,1908,1928],"xSR":741.5,"ySR":573.95,"xT1":424.9,"yT1":0,"xT2":1058.1,"yT2":0,"toosoon":0,"cond_shown":"Congruent","ratio_trial":300,"L_num":2,"L_den":10,"R_num":12,"R_den":24,"correct_side":2,"subjID":"juliana moreno 10 ","gender":"1","school":"4d","age":"9"},{"start_time":1552313223224,"click_time":1552313224809,"finger_time":1552313224227,"fix_duration":914.541777645909,"trial":29,"RT":1003,"MT":582,"sideResp":1,"stimulus":[],"xmouse":[762,762,762,762,762,762,762,762,762,762,762,762,762,762,762,762,762,762,762,762,762,762,762,764,765,766,767,768,770,770,771,771,772,772,772,772,772,772,772,772,772,772,772,772,772,772,772,772,772,772,772,765,744,701,678,656,636,622,609,593,589,585,582,578,570,565,560,555,549,541,541,538,537,536,536,536,536,536,532,510],"ymouse":[625,625,625,625,625,625,625,625,625,625,625,625,625,625,625,625,625,625,625,625,625,623,618,611,597,594,592,590,588,587,586,585,585,585,585,585,585,585,585,585,585,585,585,585,585,585,585,585,585,576,560,535,491,430,406,387,370,357,343,323,319,314,311,306,293,280,264,240,210,133,121,100,94,93,93,93,93,92,91,88],"timestamp_mouse":[10,40,43,64,85,104,123,144,163,184,203,223,244,263,284,305,323,343,364,383,404,423,444,463,483,503,523,543,564,584,604,623,643,664,683,704,725,744,763,783,805,823,843,864,883,903,924,943,965,983,1003,1023,1044,1065,1083,1104,1124,1143,1163,1185,1203,1223,1244,1263,1283,1303,1323,1344,1363,1384,1404,1424,1443,1463,1484,1503,1523,1543,1563,1585],"xSR":741.5,"ySR":573.95,"xT1":424.9,"yT1":0,"xT2":1058.1,"yT2":0,"toosoon":0,"cond_shown":"Incongruent","ratio_trial":100,"L_num":12,"L_den":30,"R_num":2,"R_den":4,"correct_side":2,"subjID":"juliana moreno 10 ","gender":"1","school":"4d","age":"9"},{"start_time":1552313226378,"click_time":1552313227689,"finger_time":1552313227208,"fix_duration":329.5181717787381,"trial":30,"RT":830,"MT":481,"sideResp":2,"stimulus":[],"xmouse":[789,789,789,789,789,789,789,789,789,789,789,789,789,789,789,789,789,789,789,789,789,789,789,790,791,792,793,793,793,793,793,793,793,794,795,797,803,811,821,829,836,843,850,857,865,871,882,887,895,906,917,929,936,941,948,957,976,986,995,1007,1023,1050,1061,1068,1068,1068],"ymouse":[646,646,646,646,646,646,646,646,646,646,646,646,646,646,646,646,646,646,646,646,646,646,646,644,643,640,637,637,637,637,637,637,636,635,634,632,626,620,614,610,605,601,597,592,589,586,580,577,575,570,566,558,552,546,539,528,498,483,464,438,395,288,205,155,120,92],"timestamp_mouse":[9,42,51,69,90,109,130,150,170,191,210,229,250,270,291,311,330,350,371,390,411,431,450,470,490,510,529,549,569,589,611,630,649,669,690,709,729,749,769,789,809,830,849,869,889,909,929,950,969,989,1010,1029,1049,1069,1089,1109,1129,1149,1171,1190,1210,1229,1250,1269,1291,1311],"xSR":741.5,"ySR":573.95,"xT1":424.9,"yT1":0,"xT2":1058.1,"yT2":0,"toosoon":0,"cond_shown":"Incongruent","ratio_trial":100,"L_num":10,"L_den":25,"R_num":8,"R_den":16,"correct_side":2,"subjID":"juliana moreno 10 ","gender":"1","school":"4d","age":"9"},{"start_time":1552313230258,"click_time":1552313233747,"finger_time":1552313232027,"fix_duration":1450.143514667846,"trial":31,"RT":1769,"MT":1720,"sideResp":2,"stimulus":[],"xmouse":[769,769,769,771,773,775,776,777,777,777,777,777,777,777,777,777,777,777,777,777,777,777,777,777,777,777,777,777,777,777,777,777,777,777,777,777,777,777,777,777,777,777,777,777,777,777,777,777,777,777,777,777,777,777,777,777,777,777,777,777,777,777,777,777,777,777,777,777,777,777,777,777,777,777,777,777,777,777,777,777,777,777,781,789,799,807,817,824,848,869,893,919,961,980,997,1012,1021,1030,1034,1034,1034,1034,1034,1033,1031,1029,1028,1027,1027,1027,1027,1027,1028,1033,1036,1038,1041,1044,1049,1050,1050,1050,1051,1052,1054,1055,1057,1061,1068,1070,1070,1072,1072,1072,1072,1072,1072,1072,1073,1075,1076,1077,1083,1087,1090,1091,1091,1091,1091,1091,1091,1091,1093,1095,1098,1100,1101,1102,1102,1102,1102,1102,1102,1102,1102,1102,1102,1102,1102,1102,1105,1105,1105,1108,1109],"ymouse":[604,604,604,604,604,604,604,604,604,604,604,604,604,604,604,604,604,604,604,604,604,604,604,604,604,604,604,604,604,604,604,604,604,604,604,604,604,604,604,604,604,604,604,604,604,604,604,604,604,604,604,604,604,604,604,604,604,604,604,604,604,604,604,604,604,604,604,604,604,604,604,604,604,604,604,604,604,604,604,604,604,604,604,604,602,599,596,593,579,567,553,536,501,479,452,424,394,356,308,287,267,250,216,200,188,167,162,148,141,138,136,134,131,125,123,121,120,119,118,117,117,117,117,117,116,116,116,115,111,109,109,108,108,108,108,108,108,107,107,107,107,107,106,106,106,106,106,106,106,106,106,106,106,104,104,103,103,102,102,102,102,102,102,102,102,102,102,102,102,102,102,102,102,100,99],"timestamp_mouse":[9,39,49,70,89,110,129,149,170,190,210,229,251,269,290,309,330,349,371,389,409,430,450,470,489,510,529,549,570,589,609,630,650,671,690,709,730,750,769,790,811,831,850,870,890,909,930,950,971,991,1011,1031,1050,1071,1090,1110,1130,1151,1171,1190,1209,1230,1249,1269,1290,1311,1330,1349,1369,1390,1410,1429,1451,1471,1490,1509,1530,1549,1570,1590,1610,1630,1650,1669,1690,1710,1729,1749,1769,1789,1811,1829,1850,1870,1890,1909,1930,1949,1970,1989,2011,2030,2050,2069,2089,2109,2130,2149,2170,2189,2209,2230,2250,2269,2290,2310,2329,2350,2370,2389,2410,2430,2450,2469,2489,2509,2529,2550,2570,2590,2609,2630,2649,2670,2689,2709,2729,2750,2770,2790,2810,2831,2850,2869,2890,2910,2929,2951,2971,2990,3010,3030,3050,3070,3090,3109,3130,3151,3170,3189,3210,3230,3250,3270,3290,3310,3330,3349,3369,3390,3410,3430,3449,3470,3489],"xSR":741.5,"ySR":573.95,"xT1":424.9,"yT1":0,"xT2":1058.1,"yT2":0,"toosoon":0,"cond_shown":"Congruent","ratio_trial":300,"L_num":5,"L_den":25,"R_num":7,"R_den":14,"correct_side":2,"subjID":"juliana moreno 10 ","gender":"1","school":"4d","age":"9"},{"start_time":1552313235561,"click_time":1552313237609,"finger_time":1552313237029,"fix_duration":250,"trial":32,"RT":1468,"MT":580,"sideResp":2,"stimulus":[],"xmouse":[794,791,791,791,791,791,791,791,791,791,791,791,791,791,791,791,791,790,794,798,799,799,799,799,799,799,799,799,799,799,799,799,799,799,799,799,799,799,797,797,797,797,797,797,797,797,797,797,797,797,797,797,797,797,797,797,797,797,797,797,797,797,797,798,799,799,800,801,806,813,818,824,835,864,877,895,916,938,969,980,984,990,993,999,1003,1006,1009,1012,1014,1014,1014,1014,1019,1044,1058,1070,1078,1084,1091,1093,1095,1097,1101],"ymouse":[660,659,659,659,659,659,659,659,659,659,659,659,659,659,659,659,659,659,654,650,643,637,633,629,629,629,629,629,629,629,629,629,629,629,629,628,627,626,624,624,624,624,624,624,624,624,624,624,624,624,624,624,624,624,624,624,624,624,624,624,624,624,624,623,623,623,623,623,620,615,610,605,598,572,556,536,516,495,451,417,394,373,354,311,288,264,244,230,215,213,213,213,212,207,203,197,189,181,159,142,127,109,90],"timestamp_mouse":[8,26,48,66,87,106,127,148,166,187,206,227,246,266,287,306,326,347,366,387,406,427,446,466,486,506,526,548,568,586,606,626,646,666,688,706,727,747,766,786,808,826,846,868,886,906,926,946,966,988,1006,1026,1047,1066,1087,1107,1126,1146,1166,1186,1207,1227,1246,1267,1286,1307,1326,1346,1366,1386,1406,1426,1446,1468,1486,1507,1526,1547,1566,1588,1606,1627,1648,1666,1687,1706,1726,1746,1766,1786,1806,1827,1846,1866,1888,1906,1926,1947,1966,1987,2006,2026,2047],"xSR":741.5,"ySR":573.95,"xT1":424.9,"yT1":0,"xT2":1058.1,"yT2":0,"toosoon":0,"cond_shown":"Congruent","ratio_trial":200,"L_num":3,"L_den":10,"R_num":11,"R_den":22,"correct_side":2,"subjID":"juliana moreno 10 ","gender":"1","school":"4d","age":"9"},{"start_time":1552313239079,"click_time":1552313241347,"finger_time":1552313240267,"fix_duration":250,"trial":33,"RT":1188,"MT":1080,"sideResp":1,"stimulus":[],"xmouse":[803,803,803,803,803,803,803,803,803,803,803,803,803,803,803,803,803,803,803,803,803,803,803,803,803,803,801,801,801,800,800,798,798,798,798,798,798,798,797,797,797,797,797,797,797,797,797,797,797,797,797,797,797,797,797,797,797,797,797,796,796,795,790,788,788,786,785,783,782,782,782,782,782,782,782,782,782,782,782,782,782,781,773,765,754,731,688,555,482,441,430,426,426,426,426,426,426,426,427,428,432,435,441,443,445,445,445,446,447,449,451,453,454,457],"ymouse":[637,637,637,637,637,637,637,637,637,637,637,637,637,637,637,637,637,637,637,637,637,637,637,637,636,633,627,608,599,589,583,579,579,579,579,579,578,576,574,574,574,574,574,574,574,574,574,574,574,574,574,574,574,574,574,574,574,574,574,573,573,573,572,572,572,572,572,571,571,571,571,571,571,571,571,571,571,571,571,571,571,571,568,563,549,517,457,310,247,209,191,178,167,158,156,155,154,152,146,143,139,135,129,125,123,121,121,120,116,113,109,103,100,88],"timestamp_mouse":[12,35,49,68,89,109,128,149,168,190,210,229,249,268,289,308,328,349,368,389,409,428,448,468,489,509,528,548,568,588,610,630,649,669,689,709,728,748,769,790,809,828,849,869,888,908,929,948,968,989,1009,1028,1048,1068,1088,1108,1129,1148,1169,1188,1208,1228,1249,1269,1288,1310,1328,1348,1368,1389,1409,1429,1449,1468,1488,1508,1528,1549,1570,1590,1608,1629,1648,1669,1688,1709,1729,1748,1768,1789,1809,1829,1848,1868,1888,1909,1929,1948,1969,1988,2008,2028,2049,2068,2089,2108,2128,2149,2168,2188,2208,2229,2248,2268],"xSR":741.5,"ySR":573.95,"xT1":424.9,"yT1":0,"xT2":1058.1,"yT2":0,"toosoon":0,"cond_shown":"Incongruent","ratio_trial":300,"L_num":4,"L_den":20,"R_num":2,"R_den":4,"correct_side":2,"subjID":"juliana moreno 10 ","gender":"1","school":"4d","age":"9"},{"start_time":1552313242710,"click_time":1552313245087,"finger_time":1552313243149,"fix_duration":380.9540529862133,"trial":34,"RT":439,"MT":1938,"sideResp":2,"stimulus":[],"xmouse":[789,789,789,789,789,788,785,782,779,779,779,779,779,779,779,779,779,781,783,789,800,809,812,812,813,815,815,815,815,815,815,815,815,815,815,815,815,815,815,815,815,815,815,815,814,809,800,800,800,803,804,805,805,805,805,805,805,805,805,805,805,811,815,817,818,820,822,822,822,822,822,822,822,822,822,822,822,822,822,822,822,822,822,822,822,822,822,822,821,820,820,820,819,819,817,817,816,816,816,816,816,816,819,823,833,857,882,892,919,944,986,1003,1013,1020,1026,1039,1049,1058,1073],"ymouse":[614,614,614,614,614,614,616,618,621,622,627,629,630,632,633,633,634,634,634,632,612,572,552,536,525,518,518,518,518,518,518,518,518,518,518,518,518,518,518,518,518,518,518,518,519,532,582,621,676,698,710,711,711,711,711,711,711,711,711,711,711,694,681,671,661,647,643,641,639,639,639,639,639,639,639,639,639,639,639,639,639,639,639,639,639,639,639,639,638,638,638,638,638,638,638,638,638,638,638,638,638,638,631,625,612,571,519,498,442,397,316,287,264,243,223,178,154,131,93],"timestamp_mouse":[21,39,58,78,97,117,137,158,177,199,218,237,257,277,298,318,337,357,377,397,417,439,458,477,497,518,537,557,577,597,618,638,657,677,698,718,737,758,777,798,818,838,857,878,897,917,937,958,977,997,1017,1037,1058,1077,1098,1118,1138,1158,1178,1198,1218,1239,1258,1278,1297,1318,1337,1358,1377,1397,1418,1439,1457,1478,1498,1518,1538,1558,1577,1598,1618,1637,1658,1678,1698,1718,1738,1757,1778,1799,1818,1839,1857,1877,1898,1918,1937,1957,1979,1997,2017,2038,2057,2077,2097,2118,2138,2158,2178,2198,2218,2237,2258,2278,2297,2318,2338,2358,2377],"xSR":741.5,"ySR":573.95,"xT1":424.9,"yT1":0,"xT2":1058.1,"yT2":0,"toosoon":0,"cond_shown":"Congruent","ratio_trial":100,"L_num":10,"L_den":25,"R_num":3,"R_den":10,"correct_side":1,"subjID":"juliana moreno 10 ","gender":"1","school":"4d","age":"9"},{"start_time":1552313248109,"click_time":1552313250127,"finger_time":1552313249627,"fix_duration":660.7140105543705,"trial":35,"RT":1518,"MT":500,"sideResp":1,"stimulus":[],"xmouse":[794,794,794,794,794,793,792,792,792,792,792,792,792,792,792,792,792,792,791,791,791,791,791,791,791,791,791,791,791,791,791,791,791,791,791,791,791,791,791,791,791,791,791,791,791,791,791,791,791,791,791,791,791,791,791,791,791,791,791,791,791,791,791,791,791,791,791,791,791,791,791,790,782,771,757,733,710,701,692,685,678,671,659,655,646,644,643,641,640,635,628,620,591,578,564,557,552,539,534,529,524],"ymouse":[640,640,640,640,640,640,640,640,640,640,640,640,640,640,640,640,640,640,640,640,640,640,640,640,640,640,640,640,640,640,640,640,640,640,640,640,640,640,640,640,640,640,640,640,640,640,640,640,640,640,640,640,640,640,640,640,640,640,640,640,640,640,640,640,640,640,640,640,640,640,640,640,633,622,609,587,558,546,533,521,507,492,459,441,411,393,380,351,331,307,278,250,196,175,150,137,128,110,104,100,96],"timestamp_mouse":[20,38,59,79,98,118,138,159,180,199,219,239,260,280,299,318,338,359,378,399,418,439,459,480,498,518,538,560,579,598,619,639,660,678,699,719,739,758,779,798,819,839,858,880,898,918,939,960,978,999,1018,1038,1058,1078,1099,1119,1139,1158,1180,1199,1219,1239,1259,1278,1298,1319,1339,1358,1379,1400,1419,1440,1458,1478,1498,1518,1540,1558,1579,1599,1618,1638,1658,1679,1698,1719,1739,1759,1778,1798,1819,1838,1859,1879,1899,1918,1938,1958,1978,1999,2018],"xSR":741.5,"ySR":573.95,"xT1":424.9,"yT1":0,"xT2":1058.1,"yT2":0,"toosoon":0,"cond_shown":"Incongruent","ratio_trial":300,"L_num":4,"L_den":5,"R_num":8,"R_den":16,"correct_side":1,"subjID":"juliana moreno 10 ","gender":"1","school":"4d","age":"9"},{"start_time":1552313252812,"click_time":1552313254267,"finger_time":1552313253788,"fix_duration":1062.1151585589516,"trial":36,"RT":976,"MT":479,"sideResp":1,"stimulus":[],"xmouse":[790,790,790,790,790,790,790,790,790,790,790,790,790,790,790,790,790,790,790,790,790,790,790,790,790,790,790,790,790,790,790,790,790,790,790,790,790,790,790,790,790,790,788,785,780,774,766,752,743,734,726,715,694,682,669,655,643,617,611,608,604,601,593,586,578,570,554,539,535,532,530,528,521],"ymouse":[671,671,671,671,671,671,671,671,671,671,671,671,671,671,671,671,671,671,671,671,671,671,671,671,671,671,671,671,671,671,671,671,671,671,671,671,671,671,671,671,671,671,665,658,646,633,617,583,567,552,538,521,488,472,453,436,417,375,362,352,341,327,285,256,223,189,136,84,70,63,61,60,58],"timestamp_mouse":[15,46,55,76,97,116,135,155,175,196,216,236,255,276,295,317,336,355,376,396,415,437,456,476,496,516,535,557,576,597,615,636,655,675,696,716,737,755,775,796,816,837,855,875,895,915,935,956,976,995,1015,1036,1055,1075,1095,1115,1135,1156,1175,1195,1216,1237,1255,1276,1295,1316,1337,1356,1376,1395,1415,1436,1455],"xSR":741.5,"ySR":573.95,"xT1":424.9,"yT1":0,"xT2":1058.1,"yT2":0,"toosoon":0,"cond_shown":"Congruent","ratio_trial":200,"L_num":3,"L_den":10,"R_num":14,"R_den":28,"correct_side":2,"subjID":"juliana moreno 10 ","gender":"1","school":"4d","age":"9"},{"start_time":1552313260226,"click_time":1552313262809,"finger_time":1552313262187,"fix_duration":416.45785777019097,"trial":37,"RT":1961,"MT":622,"sideResp":1,"stimulus":[],"xmouse":[785,785,785,785,785,785,785,785,785,785,785,785,785,785,785,785,785,785,785,785,785,785,785,785,785,785,785,785,785,785,785,785,785,785,785,785,785,785,785,785,785,785,785,785,785,785,785,785,785,785,785,785,785,785,785,785,785,785,785,785,785,785,785,785,785,785,784,794,803,804,804,804,804,804,804,804,804,804,804,804,804,804,804,804,804,804,804,803,796,781,766,756,751,751,751,749,745,742,739,739,739,739,739,739,739,735,722,704,620,553,501,465,435,389,384,375,375,375,379,386,389,392,392,396,406,411,414,419,424,431],"ymouse":[647,647,647,647,647,647,647,647,647,647,647,647,647,647,647,647,647,647,647,647,