[{"start_time":1552328428190,"click_time":1552328431431,"finger_time":1552328430431,"fix_duration":833.154748288381,"trial":0,"RT":2241,"MT":1000,"sideResp":2,"stimulus":"img/250/equaldotanddens/R/8_Ratio_250_L_1_R_4.png","xmouse":[817,817,817,817,817,817,817,817,817,817,817,817,817,817,817,817,817,817,817,817,817,817,817,817,817,817,817,817,817,817,817,817,817,817,817,817,817,817,817,817,817,817,817,817,817,817,817,817,817,817,817,817,817,817,817,817,817,817,817,817,817,817,817,817,817,817,817,817,817,817,817,817,817,817,817,817,817,817,817,817,817,817,817,817,817,817,817,817,817,817,817,817,817,817,817,817,817,817,817,817,817,817,817,817,817,817,817,817,817,817,817,810,800,770,770,770,770,770,770,770,770,770,770,770,770,770,770,770,949,1023,1051,1072,1089,1098,1105,1105,1104,1098,1092,1087,1086,1085,1081,1076,1074,1074,1077,1080,1080,1080,1080,1080,1081,1082,1085,1088,1092,1096,1100,1105,1108,1111,1114],"ymouse":[519,519,519,519,519,519,519,519,519,519,519,519,519,519,519,519,519,519,519,519,519,519,519,519,519,519,519,519,519,519,519,519,519,519,519,519,519,519,519,519,519,519,519,519,519,519,519,519,519,519,519,519,519,519,519,519,519,519,519,519,519,519,519,519,519,519,519,519,519,519,519,519,519,519,519,519,519,519,519,519,519,519,519,519,519,519,519,519,519,519,519,519,519,519,519,519,519,519,519,519,519,519,519,519,519,519,519,519,519,519,519,532,570,675,675,675,675,675,675,675,675,675,675,675,675,675,675,675,709,559,480,409,359,329,301,300,300,299,298,297,297,291,277,261,209,195,184,176,174,172,171,169,167,164,157,153,147,142,136,124,117,107,91],"timestamp_mouse":[9,30,40,61,80,101,121,141,160,181,201,220,241,261,282,301,320,340,361,381,401,421,440,460,480,501,521,540,560,580,600,620,640,661,681,700,721,740,760,780,801,820,840,860,880,900,921,941,962,982,1000,1021,1040,1062,1080,1101,1121,1141,1161,1182,1201,1221,1241,1261,1281,1301,1321,1341,1360,1382,1402,1420,1441,1461,1480,1500,1520,1541,1561,1581,1600,1622,1641,1660,1680,1700,1721,1741,1760,1780,1800,1821,1841,1860,1880,1900,1921,1942,1960,1980,2001,2021,2040,2060,2080,2101,2120,2140,2161,2180,2201,2220,2241,2262,2281,2301,2320,2340,2361,2381,2400,2422,2440,2461,2481,2501,2521,2541,2560,2580,2600,2621,2640,2661,2680,2701,2720,2740,2762,2781,2801,2821,2841,2860,2880,2902,2920,2941,2960,2980,3000,3020,3041,3060,3080,3101,3120,3140,3160,3180,3200,3221,3241],"xSR":741.5,"ySR":469.95,"xT1":424.9,"yT1":0,"xT2":1058.1,"yT2":0,"toosoon":0,"cond_shown":"equaldotanddens","ratio_trial":250,"smaller_num":"1","larger_num":"4","correct_side":2,"subjID":"amalianavarrete3","gender":"1","age":"9","school":"4","test":{"fix_dur":[250,1500],"timestim":300,"targets_dim":[100,100],"targets_relative_coord":[0.3,0.7],"size_stim":[880,420],"start_dim":[100,100],"size_start":[300,300],"size_fix":60,"samplingrate":20,"img_types":["equaldotsize","equaldotanddens","randomdotsizeEA"],"ratios":[250,500,750,900],"rep_conds":9,"nTrials":120,"trials_to_rest":500,"Trials_order":[1,37,66,76,98,73,26,111,46,8,35,95,103,44,70,38,110,92,47,100,104,11,94,105,68,87,15,61,85,2,90,17,109,62,116,99,16,43,45,48,31,59,32,10,5,4,77,40,86,19,34,65,82,71,119,114,50,14,21,101,42,60,57,27,102,36,78,112,108,79,106,64,97,89,84,25,53,23,51,67,115,117,41,93,72,7,55,12,81,69,18,118,80,75,20,96,28,107,113,13,56,30,54,3,83,49,58,63,33,24,91,9,0,6,22,52,29,88,74,39],"cond_shown":["equaldotanddens","equaldotanddens","equaldotsize","equaldotanddens","randomdotsizeEA","equaldotanddens","randomdotsizeEA","equaldotsize","equaldotanddens","randomdotsizeEA","randomdotsizeEA","randomdotsizeEA","equaldotanddens","randomdotsizeEA","equaldotanddens","randomdotsizeEA","randomdotsizeEA","randomdotsizeEA","randomdotsizeEA","equaldotanddens","randomdotsizeEA","randomdotsizeEA","equaldotanddens","equaldotsize","randomdotsizeEA","equaldotsize","equaldotsize","equaldotanddens","equaldotanddens","randomdotsizeEA","equaldotsize","randomdotsizeEA","equaldotanddens","randomdotsizeEA","randomdotsizeEA","equaldotsize","equaldotanddens","equaldotanddens","equaldotsize","equaldotsize","equaldotanddens","randomdotsizeEA","randomdotsizeEA","equaldotanddens","randomdotsizeEA","equaldotanddens","randomdotsizeEA","equaldotanddens","randomdotsizeEA","equaldotanddens","equaldotanddens","randomdotsizeEA","equaldotanddens","randomdotsizeEA","randomdotsizeEA","equaldotsize","randomdotsizeEA","randomdotsizeEA","equaldotsize","randomdotsizeEA","equaldotsize","equaldotsize","equaldotsize","equaldotsize","equaldotsize","equaldotsize","equaldotsize","equaldotanddens","equaldotsize","equaldotanddens","equaldotanddens","equaldotanddens","equaldotanddens","randomdotsizeEA","equaldotsize","equaldotanddens","randomdotsizeEA","randomdotsizeEA","equaldotsize","equaldotanddens","equaldotanddens","equaldotsize","randomdotsizeEA","equaldotsize","equaldotsize","equaldotanddens","equaldotanddens","equaldotsize","equaldotsize","equaldotsize","equaldotsize","equaldotanddens","randomdotsizeEA","equaldotsize","randomdotsizeEA","equaldotsize","equaldotanddens","randomdotsizeEA","randomdotsizeEA","equaldotanddens","randomdotsizeEA","equaldotsize","equaldotsize","equaldotsize","randomdotsizeEA","equaldotanddens","equaldotanddens","equaldotsize","equaldotsize","equaldotsize","equaldotanddens","equaldotsize","equaldotsize","equaldotsize","equaldotanddens","equaldotanddens","randomdotsizeEA","equaldotanddens","randomdotsizeEA","equaldotsize"],"ratio_trial":[250,250,750,500,250,250,250,500,900,750,900,900,750,750,900,250,250,750,900,500,750,900,900,900,750,500,500,250,250,250,750,500,250,250,750,500,500,750,900,250,750,900,750,900,500,500,500,500,250,750,900,500,900,900,900,750,250,250,900,500,750,250,900,500,750,250,750,500,250,750,900,500,250,500,250,250,500,900,500,750,750,900,500,900,250,750,750,250,900,900,750,900,750,500,750,250,500,900,500,250,750,750,750,500,900,250,900,500,900,250,750,900,250,750,900,500,500,500,250,500],"smaller_num":["1","4","15","6","4","2","4","9","9","3","9","18","15","3","18","3","2","15","18","2","6","18","18","18","15","5","9","1","2","6","15","2","3","5","3","6","10","3","9","3","15","9","6","18","9","1","1","3","2","9","9","6","18","9","9","3","3","6","9","9","3","3","18","1","6","2","3","1","2","3","18","2","4","9","3","2","2","18","1","15","15","18","10","18","3","3","18","2","9","9","15","18","15","2","6","3","5","18","2","1","12","18","3","6","18","2","18","1","9","3","15","9","4","3","18","5","2","2","3","1"],"larger_num":["4","16","20","12","16","8","16","18","10","4","10","20","20","4","20","12","8","20","20","4","8","20","20","20","20","10","18","4","8","24","20","4","12","20","4","12","20","4","10","12","20","10","8","20","18","2","2","6","8","12","10","12","20","10","10","4","12","24","10","18","4","12","20","2","8","8","4","2","8","4","20","4","16","18","12","8","4","20","2","20","20","20","20","20","12","4","24","8","10","10","20","20","20","4","8","12","10","20","4","4","16","24","4","12","20","8","20","2","10","12","20","10","16","4","20","10","4","4","12","2"],"correct_side":[2,2,2,1,1,1,2,2,2,2,2,1,2,1,2,2,1,1,1,1,1,2,2,1,2,2,1,2,1,2,2,1,1,2,1,1,2,1,2,2,1,1,1,2,2,2,2,2,1,2,2,1,1,2,1,2,2,2,1,2,2,1,1,2,2,2,2,2,1,1,1,1,2,2,1,1,2,1,2,1,1,2,2,1,1,1,1,2,2,1,2,1,2,1,1,1,1,1,1,2,2,1,1,1,1,2,1,2,1,1,2,2,1,2,2,1,1,2,2,2],"img_shown":["img/250/equaldotanddens/R/8_Ratio_250_L_1_R_4.png","img/250/equaldotanddens/R/10_Ratio_250_L_4_R_16.png","img/750/equaldotsize/R/5_Ratio_750_L_15_R_20.png","img/500/equaldotanddens/L/11_Ratio_500_L_12_R_6.png","img/250/randomdotsizeEA/L/2_Ratio_250_L_16_R_4.png","img/250/equaldotanddens/L/1_Ratio_250_L_8_R_2.png","img/250/randomdotsizeEA/R/10_Ratio_250_L_4_R_16.png","img/500/equaldotsize/R/6_Ratio_500_L_9_R_18.png","img/900/equaldotanddens/R/3_Ratio_900_L_9_R_10.png","img/750/randomdotsizeEA/R/7_Ratio_750_L_3_R_4.png","img/900/randomdotsizeEA/R/15_Ratio_900_L_9_R_10.png","img/900/randomdotsizeEA/L/10_Ratio_900_L_20_R_18.png","img/750/equaldotanddens/R/5_Ratio_750_L_15_R_20.png","img/750/randomdotsizeEA/L/8_Ratio_750_L_4_R_3.png","img/900/equaldotanddens/R/12_Ratio_900_L_18_R_20.png","img/250/randomdotsizeEA/R/9_Ratio_250_L_3_R_12.png","img/250/randomdotsizeEA/L/7_Ratio_250_L_8_R_2.png","img/750/randomdotsizeEA/L/1_Ratio_750_L_20_R_15.png","img/900/randomdotsizeEA/L/10_Ratio_900_L_20_R_18.png","img/500/equaldotanddens/L/5_Ratio_500_L_4_R_2.png","img/750/randomdotsizeEA/L/14_Ratio_750_L_8_R_6.png","img/900/randomdotsizeEA/R/12_Ratio_900_L_18_R_20.png","img/900/equaldotanddens/R/12_Ratio_900_L_18_R_20.png","img/900/equaldotsize/L/2_Ratio_900_L_20_R_18.png","img/750/randomdotsizeEA/R/3_Ratio_750_L_15_R_20.png","img/500/equaldotsize/R/14_Ratio_500_L_5_R_10.png","img/500/equaldotsize/L/4_Ratio_500_L_18_R_9.png","img/250/equaldotanddens/R/8_Ratio_250_L_1_R_4.png","img/250/equaldotanddens/L/1_Ratio_250_L_8_R_2.png","img/250/randomdotsizeEA/R/6_Ratio_250_L_6_R_24.png","img/750/equaldotsize/R/4_Ratio_750_L_15_R_20.png","img/500/randomdotsizeEA/L/5_Ratio_500_L_4_R_2.png","img/250/equaldotanddens/L/15_Ratio_250_L_12_R_3.png","img/250/randomdotsizeEA/R/12_Ratio_250_L_5_R_20.png","img/750/randomdotsizeEA/L/8_Ratio_750_L_4_R_3.png","img/500/equaldotsize/L/11_Ratio_500_L_12_R_6.png","img/500/equaldotanddens/R/3_Ratio_500_L_10_R_20.png","img/750/equaldotanddens/L/8_Ratio_750_L_4_R_3.png","img/900/equaldotsize/R/7_Ratio_900_L_9_R_10.png","img/250/equaldotsize/R/4_Ratio_250_L_3_R_12.png","img/750/equaldotanddens/L/1_Ratio_750_L_20_R_15.png","img/900/randomdotsizeEA/L/1_Ratio_900_L_10_R_9.png","img/750/randomdotsizeEA/L/14_Ratio_750_L_8_R_6.png","img/900/equaldotanddens/R/13_Ratio_900_L_18_R_20.png","img/500/randomdotsizeEA/R/1_Ratio_500_L_9_R_18.png","img/500/equaldotanddens/R/12_Ratio_500_L_1_R_2.png","img/500/randomdotsizeEA/R/15_Ratio_500_L_1_R_2.png","img/500/equaldotanddens/R/2_Ratio_500_L_3_R_6.png","img/250/randomdotsizeEA/L/7_Ratio_250_L_8_R_2.png","img/750/equaldotanddens/R/15_Ratio_750_L_9_R_12.png","img/900/equaldotanddens/R/7_Ratio_900_L_9_R_10.png","img/500/randomdotsizeEA/L/11_Ratio_500_L_12_R_6.png","img/900/equaldotanddens/L/8_Ratio_900_L_20_R_18.png","img/900/randomdotsizeEA/R/15_Ratio_900_L_9_R_10.png","img/900/randomdotsizeEA/L/1_Ratio_900_L_10_R_9.png","img/750/equaldotsize/R/12_Ratio_750_L_3_R_4.png","img/250/randomdotsizeEA/R/4_Ratio_250_L_3_R_12.png","img/250/randomdotsizeEA/R/6_Ratio_250_L_6_R_24.png","img/900/equaldotsize/L/1_Ratio_900_L_10_R_9.png","img/500/randomdotsizeEA/R/1_Ratio_500_L_9_R_18.png","img/750/equaldotsize/R/12_Ratio_750_L_3_R_4.png","img/250/equaldotsize/L/14_Ratio_250_L_12_R_3.png","img/900/equaldotsize/L/10_Ratio_900_L_20_R_18.png","img/500/equaldotsize/R/15_Ratio_500_L_1_R_2.png","img/750/equaldotsize/R/2_Ratio_750_L_6_R_8.png","img/250/equaldotsize/R/13_Ratio_250_L_2_R_8.png","img/750/equaldotsize/R/7_Ratio_750_L_3_R_4.png","img/500/equaldotanddens/R/12_Ratio_500_L_1_R_2.png","img/250/equaldotsize/L/1_Ratio_250_L_8_R_2.png","img/750/equaldotanddens/L/8_Ratio_750_L_4_R_3.png","img/900/equaldotanddens/L/2_Ratio_900_L_20_R_18.png","img/500/equaldotanddens/L/5_Ratio_500_L_4_R_2.png","img/250/equaldotanddens/R/10_Ratio_250_L_4_R_16.png","img/500/randomdotsizeEA/R/6_Ratio_500_L_9_R_18.png","img/250/equaldotsize/L/14_Ratio_250_L_12_R_3.png","img/250/equaldotanddens/L/3_Ratio_250_L_8_R_2.png","img/500/randomdotsizeEA/R/9_Ratio_500_L_2_R_4.png","img/900/randomdotsizeEA/L/10_Ratio_900_L_20_R_18.png","img/500/equaldotsize/R/15_Ratio_500_L_1_R_2.png","img/750/equaldotanddens/L/1_Ratio_750_L_20_R_15.png","img/750/equaldotanddens/L/1_Ratio_750_L_20_R_15.png","img/900/equaldotsize/R/13_Ratio_900_L_18_R_20.png","img/500/randomdotsizeEA/R/3_Ratio_500_L_10_R_20.png","img/900/equaldotsize/L/8_Ratio_900_L_20_R_18.png","img/250/equaldotsize/L/14_Ratio_250_L_12_R_3.png","img/750/equaldotanddens/L/10_Ratio_750_L_4_R_3.png","img/750/equaldotanddens/L/6_Ratio_750_L_24_R_18.png","img/250/equaldotsize/R/13_Ratio_250_L_2_R_8.png","img/900/equaldotsize/R/15_Ratio_900_L_9_R_10.png","img/900/equaldotsize/L/1_Ratio_900_L_10_R_9.png","img/750/equaldotsize/R/5_Ratio_750_L_15_R_20.png","img/900/equaldotanddens/L/8_Ratio_900_L_20_R_18.png","img/750/randomdotsizeEA/R/5_Ratio_750_L_15_R_20.png","img/500/equaldotsize/L/5_Ratio_500_L_4_R_2.png","img/750/randomdotsizeEA/L/14_Ratio_750_L_8_R_6.png","img/250/equaldotsize/L/14_Ratio_250_L_12_R_3.png","img/500/equaldotanddens/L/7_Ratio_500_L_10_R_5.png","img/900/randomdotsizeEA/L/8_Ratio_900_L_20_R_18.png","img/500/randomdotsizeEA/L/5_Ratio_500_L_4_R_2.png","img/250/equaldotanddens/R/8_Ratio_250_L_1_R_4.png","img/750/randomdotsizeEA/R/11_Ratio_750_L_12_R_16.png","img/750/equaldotsize/L/6_Ratio_750_L_24_R_18.png","img/750/equaldotsize/L/9_Ratio_750_L_4_R_3.png","img/500/equaldotsize/L/13_Ratio_500_L_12_R_6.png","img/900/randomdotsizeEA/L/10_Ratio_900_L_20_R_18.png","img/250/equaldotanddens/R/13_Ratio_250_L_2_R_8.png","img/900/equaldotanddens/L/8_Ratio_900_L_20_R_18.png","img/500/equaldotsize/R/15_Ratio_500_L_1_R_2.png","img/900/equaldotsize/L/1_Ratio_900_L_10_R_9.png","img/250/equaldotsize/L/15_Ratio_250_L_12_R_3.png","img/750/equaldotanddens/R/4_Ratio_750_L_15_R_20.png","img/900/equaldotsize/R/3_Ratio_900_L_9_R_10.png","img/250/equaldotsize/L/2_Ratio_250_L_16_R_4.png","img/750/equaldotsize/R/7_Ratio_750_L_3_R_4.png","img/900/equaldotanddens/R/14_Ratio_900_L_18_R_20.png","img/500/equaldotanddens/L/7_Ratio_500_L_10_R_5.png","img/500/randomdotsizeEA/L/5_Ratio_500_L_4_R_2.png","img/500/equaldotanddens/R/9_Ratio_500_L_2_R_4.png","img/250/randomdotsizeEA/R/4_Ratio_250_L_3_R_12.png","img/500/equaldotsize/R/15_Ratio_500_L_1_R_2.png"],"Rat0":[["12_Ratio_0_L_9_R_0.png","13_Ratio_0_L_6_R_0.png","5_Ratio_0_L_2_R_0.png","6_Ratio_0_L_4_R_0.png","8_Ratio_0_L_6_R_0.png"],["1_Ratio_0_L_0_R_17.png","10_Ratio_0_L_0_R_22.png","11_Ratio_0_L_0_R_1.png","14_Ratio_0_L_0_R_24.png","15_Ratio_0_L_0_R_4.png","2_Ratio_0_L_0_R_5.png","3_Ratio_0_L_0_R_17.png","4_Ratio_0_L_0_R_7.png","7_Ratio_0_L_0_R_19.png","9_Ratio_0_L_0_R_15.png"]],"Rat250":[["1_Ratio_250_L_8_R_2.png","14_Ratio_250_L_12_R_3.png","15_Ratio_250_L_12_R_3.png","2_Ratio_250_L_16_R_4.png","3_Ratio_250_L_8_R_2.png","5_Ratio_250_L_24_R_6.png","7_Ratio_250_L_8_R_2.png"],["10_Ratio_250_L_4_R_16.png","11_Ratio_250_L_3_R_12.png","12_Ratio_250_L_5_R_20.png","13_Ratio_250_L_2_R_8.png","4_Ratio_250_L_3_R_12.png","6_Ratio_250_L_6_R_24.png","8_Ratio_250_L_1_R_4.png","9_Ratio_250_L_3_R_12.png"]],"Rat500":[["10_Ratio_500_L_4_R_2.png","11_Ratio_500_L_12_R_6.png","13_Ratio_500_L_12_R_6.png","4_Ratio_500_L_18_R_9.png","5_Ratio_500_L_4_R_2.png","7_Ratio_500_L_10_R_5.png","8_Ratio_500_L_8_R_4.png"],["1_Ratio_500_L_9_R_18.png","12_Ratio_500_L_1_R_2.png","14_Ratio_500_L_5_R_10.png","15_Ratio_500_L_1_R_2.png","2_Ratio_500_L_3_R_6.png","3_Ratio_500_L_10_R_20.png","6_Ratio_500_L_9_R_18.png","9_Ratio_500_L_2_R_4.png"]],"Rat750":[["1_Ratio_750_L_20_R_15.png","10_Ratio_750_L_4_R_3.png","13_Ratio_750_L_8_R_6.png","14_Ratio_750_L_8_R_6.png","6_Ratio_750_L_24_R_18.png","8_Ratio_750_L_4_R_3.png","9_Ratio_750_L_4_R_3.png"],["11_Ratio_750_L_12_R_16.png","12_Ratio_750_L_3_R_4.png","15_Ratio_750_L_9_R_12.png","2_Ratio_750_L_6_R_8.png","3_Ratio_750_L_15_R_20.png","4_Ratio_750_L_15_R_20.png","5_Ratio_750_L_15_R_20.png","7_Ratio_750_L_3_R_4.png"]],"Rat900":[["1_Ratio_900_L_10_R_9.png","10_Ratio_900_L_20_R_18.png","2_Ratio_900_L_20_R_18.png","4_Ratio_900_L_20_R_18.png","8_Ratio_900_L_20_R_18.png"],["11_Ratio_900_L_18_R_20.png","12_Ratio_900_L_18_R_20.png","13_Ratio_900_L_18_R_20.png","14_Ratio_900_L_18_R_20.png","15_Ratio_900_L_9_R_10.png","3_Ratio_900_L_9_R_10.png","5_Ratio_900_L_9_R_10.png","6_Ratio_900_L_9_R_10.png","7_Ratio_900_L_9_R_10.png","9_Ratio_900_L_18_R_20.png"]],"Rat1000":[["10_Ratio_1000_L_16_R_16.png","11_Ratio_1000_L_6_R_6.png","12_Ratio_1000_L_14_R_14.png","13_Ratio_1000_L_20_R_20.png","15_Ratio_1000_L_15_R_15.png","2_Ratio_1000_L_17_R_17.png","4_Ratio_1000_L_9_R_9.png","5_Ratio_1000_L_6_R_6.png","6_Ratio_1000_L_19_R_19.png","8_Ratio_1000_L_14_R_14.png","9_Ratio_1000_L_25_R_25.png"],["1_Ratio_1000_L_1_R_1.png","14_Ratio_1000_L_17_R_17.png","3_Ratio_1000_L_17_R_17.png","7_Ratio_1000_L_6_R_6.png"]]}},{"start_time":1552328433374,"click_time":1552328434553,"finger_time":1552328434011,"fix_duration":702.9859760492704,"trial":1,"RT":637,"MT":542,"sideResp":2,"stimulus":"img/250/equaldotanddens/R/10_Ratio_250_L_4_R_16.png","xmouse":[815,815,815,815,815,815,815,815,815,815,815,815,815,815,815,815,815,815,815,815,815,815,815,815,815,815,815,815,815,815,815,857,883,941,1013,1042,1054,1068,1082,1124,1145,1161,1169,1171,1171,1169,1167,1167,1167,1167,1167,1167,1167,1167,1167,1167,1167,1167,1150],"ymouse":[502,502,502,502,502,502,502,502,502,502,502,502,502,502,502,502,502,502,502,502,502,502,502,502,502,502,502,502,502,502,502,466,444,398,338,317,308,298,288,241,206,173,146,118,74,61,53,48,40,13,5,5,5,5,5,5,5,5,2],"timestamp_mouse":[16,41,56,77,97,116,136,157,176,196,216,236,257,278,297,317,337,357,377,396,416,437,457,477,497,516,537,556,576,596,617,637,658,677,696,717,737,756,776,797,816,836,856,877,897,916,936,957,976,997,1016,1036,1057,1077,1096,1117,1136,1157,1177],"xSR":741.5,"ySR":469.95,"xT1":424.9,"yT1":0,"xT2":1058.1,"yT2":0,"toosoon":0,"cond_shown":"equaldotanddens","ratio_trial":250,"smaller_num":"4","larger_num":"16","correct_side":2,"subjID":"amalianavarrete3","gender":"1","age":"9","school":"4"},{"start_time":1552328436686,"click_time":1552328437431,"finger_time":1552328437110,"fix_duration":1413.9288127407137,"trial":2,"RT":424,"MT":321,"sideResp":2,"stimulus":"img/750/equaldotsize/R/5_Ratio_750_L_15_R_20.png","xmouse":[816,816,816,816,816,816,816,816,816,816,816,816,816,816,816,816,816,817,822,830,837,845,856,872,926,955,976,997,1010,1017,1021,1025,1031,1037,1048,1053,1056,1059],"ymouse":[548,548,548,548,548,548,548,548,548,548,548,548,548,548,548,548,545,543,537,530,523,514,504,493,448,413,369,323,284,231,197,178,159,142,117,107,96,92],"timestamp_mouse":[15,26,44,64,84,105,124,145,166,186,205,224,245,265,286,305,325,345,364,384,404,424,444,464,485,504,524,544,565,585,605,625,645,665,685,704,725,745],"xSR":741.5,"ySR":469.95,"xT1":424.9,"yT1":0,"xT2":1058.1,"yT2":0,"toosoon":0,"cond_shown":"equaldotsize","ratio_trial":750,"smaller_num":"15","larger_num":"20","correct_side":2,"subjID":"amalianavarrete3","gender":"1","age":"9","school":"4"},{"start_time":1552328442855,"click_time":1552328443731,"finger_time":1552328443391,"fix_duration":983.5729053511677,"trial":3,"RT":536,"MT":340,"sideResp":1,"stimulus":"img/500/equaldotanddens/L/11_Ratio_500_L_12_R_6.png","xmouse":[783,783,783,783,783,783,783,783,783,783,783,783,783,783,783,783,783,783,783,783,783,783,783,783,782,782,782,782,772,750,683,661,661,661,661,661,661,661,661,661,661,661,661,497],"ymouse":[504,504,504,504,504,504,504,504,504,504,504,504,504,504,504,504,504,504,504,504,504,504,504,504,502,479,450,390,319,246,56,0,0,0,0,0,0,0,0,0,0,0,0,15],"timestamp_mouse":[15,35,55,75,95,117,136,156,177,197,215,236,256,275,295,315,336,355,375,396,416,436,455,476,496,516,535,555,576,596,615,636,656,675,696,715,736,755,776,795,816,836,855,876],"xSR":741.5,"ySR":469.95,"xT1":424.9,"yT1":0,"xT2":1058.1,"yT2":0,"toosoon":0,"cond_shown":"equaldotanddens","ratio_trial":500,"smaller_num":"6","larger_num":"12","correct_side":1,"subjID":"amalianavarrete3","gender":"1","age":"9","school":"4"},{"start_time":1552328444982,"click_time":1552328445890,"finger_time":1552328445630,"fix_duration":250,"trial":4,"RT":648,"MT":260,"sideResp":1,"stimulus":"img/250/randomdotsizeEA/L/2_Ratio_250_L_16_R_4.png","xmouse":[780,780,780,780,780,780,780,780,780,780,780,780,780,780,780,780,780,780,780,780,780,780,780,780,780,780,780,780,780,780,780,777,773,765,721,697,681,674,667,657,651,641,631,612,531,507],"ymouse":[493,493,493,493,493,493,493,493,493,493,493,493,493,493,493,493,493,493,493,493,493,493,493,493,493,493,493,493,493,493,493,472,459,432,350,310,279,262,252,239,233,225,216,199,110,85],"timestamp_mouse":[9,35,49,68,89,109,130,149,168,189,209,229,250,269,289,309,328,348,369,388,409,429,448,469,489,510,528,548,568,589,608,628,648,668,688,708,729,749,768,788,808,828,848,869,888,908],"xSR":741.5,"ySR":469.95,"xT1":424.9,"yT1":0,"xT2":1058.1,"yT2":0,"toosoon":0,"cond_shown":"randomdotsizeEA","ratio_trial":250,"smaller_num":"4","larger_num":"16","correct_side":1,"subjID":"amalianavarrete3","gender":"1","age":"9","school":"4"},{"start_time":1552328447850,"click_time":1552328448651,"finger_time":1552328448311,"fix_duration":1077.4680564611922,"trial":5,"RT":461,"MT":340,"sideResp":1,"stimulus":"img/250/equaldotanddens/L/1_Ratio_250_L_8_R_2.png","xmouse":[802,802,802,802,802,802,802,802,802,802,802,802,802,802,802,802,802,802,802,802,802,802,799,783,758,737,706,686,663,638,604,590,587,584,581,576,558,543,532,526,523],"ymouse":[530,530,530,530,530,530,530,530,530,530,530,530,530,530,530,530,530,530,530,530,530,529,507,465,403,352,265,210,148,94,32,25,25,25,25,25,25,25,24,24,24],"timestamp_mouse":[9,20,41,61,80,102,121,140,161,181,200,220,240,261,281,301,321,340,361,381,400,421,440,461,480,501,520,541,560,580,603,621,640,660,680,701,720,740,760,780,801],"xSR":741.5,"ySR":469.95,"xT1":424.9,"yT1":0,"xT2":1058.1,"yT2":0,"toosoon":0,"cond_shown":"equaldotanddens","ratio_trial":250,"smaller_num":"2","larger_num":"8","correct_side":1,"subjID":"amalianavarrete3","gender":"1","age":"9","school":"4"},{"start_time":1552328450777,"click_time":1552328451670,"finger_time":1552328451372,"fix_duration":1186.3579391655942,"trial":6,"RT":595,"MT":298,"sideResp":1,"stimulus":"img/250/randomdotsizeEA/R/10_Ratio_250_L_4_R_16.png","xmouse":[790,790,790,790,790,790,790,790,790,790,790,790,790,790,790,790,790,790,790,790,790,790,790,790,801,806,809,812,812,800,784,761,740,728,679,645,609,581,561,541,536,533,531,527,509],"ymouse":[515,515,515,515,515,515,515,515,515,515,515,515,515,515,515,515,515,515,515,515,515,515,515,515,510,502,496,491,484,460,443,418,400,388,320,283,242,214,193,167,155,143,128,111,72],"timestamp_mouse":[13,36,54,74,94,113,134,154,173,193,214,233,254,273,293,314,334,353,373,393,413,434,454,475,493,514,534,554,574,595,613,633,653,674,693,713,733,754,773,794,814,833,853,873,893],"xSR":741.5,"ySR":469.95,"xT1":424.9,"yT1":0,"xT2":1058.1,"yT2":0,"toosoon":0,"cond_shown":"randomdotsizeEA","ratio_trial":250,"smaller_num":"4","larger_num":"16","correct_side":2,"subjID":"amalianavarrete3","gender":"1","age":"9","school":"4"},{"start_time":1552328455136,"click_time":1552328456010,"finger_time":1552328455630,"fix_duration":863.4538530225126,"trial":7,"RT":494,"MT":380,"sideResp":2,"stimulus":"img/500/equaldotsize/R/6_Ratio_500_L_9_R_18.png","xmouse":[783,783,783,783,783,783,783,783,783,783,783,783,783,783,783,783,783,783,783,783,784,790,799,811,828,851,888,893,893,893,894,897,900,903,905,910,941,961,984,1006,1025,1049,1057,1067],"ymouse":[545,545,545,545,545,545,545,545,545,545,545,545,545,545,545,545,545,545,545,545,545,543,527,499,461,414,291,218,137,91,72,64,63,62,60,60,59,59,59,59,58,52,49,47],"timestamp_mouse":[14,35,55,74,94,114,134,154,175,195,214,234,255,274,294,315,334,355,374,396,414,434,455,474,494,514,534,555,574,595,615,635,655,675,694,715,735,754,775,794,815,835,855,874],"xSR":741.5,"ySR":469.95,"xT1":424.9,"yT1":0,"xT2":1058.1,"yT2":0,"toosoon":0,"cond_shown":"equaldotsize","ratio_trial":500,"smaller_num":"9","larger_num":"18","correct_side":2,"subjID":"amalianavarrete3","gender":"1","age":"9","school":"4"},{"start_time":1552328457908,"click_time":1552328458731,"finger_time":1552328458411,"fix_duration":1036.9119489280115,"trial":8,"RT":503,"MT":320,"sideResp":2,"stimulus":"img/900/equaldotanddens/R/3_Ratio_900_L_9_R_10.png","xmouse":[799,799,799,799,799,799,799,799,799,799,799,799,799,799,799,799,799,799,799,799,799,799,799,805,816,833,859,891,954,979,989,996,1000,1006,1007,1009,1010,1015,1030,1043,1054,1064],"ymouse":[522,522,522,522,522,522,522,522,522,522,522,522,522,522,522,522,522,522,522,522,522,522,522,510,485,444,382,299,166,134,120,110,104,97,95,94,94,91,83,76,73,70],"timestamp_mouse":[10,22,42,62,82,102,123,144,163,182,202,222,243,264,284,302,322,343,363,382,402,423,443,462,483,503,522,542,562,582,602,622,643,662,683,702,723,742,762,782,802,822],"xSR":741.5,"ySR":469.95,"xT1":424.9,"yT1":0,"xT2":1058.1,"yT2":0,"toosoon":0,"cond_shown":"equaldotanddens","ratio_trial":900,"smaller_num":"9","larger_num":"10","correct_side":2,"subjID":"amalianavarrete3","gender":"1","age":"9","school":"4"},{"start_time":1552328459963,"click_time":1552328460690,"finger_time":1552328460391,"fix_duration":250,"trial":9,"RT":428,"MT":299,"sideResp":1,"stimulus":"img/750/randomdotsizeEA/R/7_Ratio_750_L_3_R_4.png","xmouse":[818,818,818,818,818,818,818,818,818,818,818,818,817,817,817,817,817,817,817,816,807,793,768,747,728,700,696,691,684,674,618,589,565,548,532,502,477],"ymouse":[501,501,501,501,501,501,501,501,501,501,501,501,502,502,502,502,502,502,502,502,488,461,423,392,374,355,349,336,318,295,219,193,177,164,151,119,83],"timestamp_mouse":[9,28,47,76,87,108,127,147,167,188,207,227,247,268,287,308,328,348,368,387,407,428,451,467,488,507,529,547,568,588,608,627,647,667,688,707,727],"xSR":741.5,"ySR":469.95,"xT1":424.9,"yT1":0,"xT2":1058.1,"yT2":0,"toosoon":0,"cond_shown":"randomdotsizeEA","ratio_trial":750,"smaller_num":"3","larger_num":"4","correct_side":2,"subjID":"amalianavarrete3","gender":"1","age":"9","school":"4"},{"start_time":1552328461802,"click_time":1552328462751,"finger_time":1552328462650,"fix_duration":390.0629249443301,"trial":10,"RT":848,"MT":101,"sideResp":2,"stimulus":"img/900/randomdotsizeEA/R/15_Ratio_900_L_9_R_10.png","xmouse":[794,794,794,791,791,791,791,792,797,798,798,798,798,800,801,803,803,803,803,803,803,803,803,803,803,804,804,807,809,809,809,809,809,809,809,809,809,809,809,814,818,830,850,932,966,995,1032,1062],"ymouse":[518,518,523,535,535,535,532,525,503,502,502,502,505,519,525,530,530,530,530,530,530,530,530,530,530,530,528,520,513,512,511,510,510,510,510,510,510,510,510,505,500,484,456,352,298,226,132,65],"timestamp_mouse":[10,28,49,69,89,108,129,148,168,189,209,228,249,270,289,308,328,349,368,388,410,428,448,469,488,508,528,548,568,589,608,629,648,669,690,708,728,748,769,788,809,828,848,868,888,909,929,949],"xSR":741.5,"ySR":469.95,"xT1":424.9,"yT1":0,"xT2":1058.1,"yT2":0,"toosoon":0,"cond_shown":"randomdotsizeEA","ratio_trial":900,"smaller_num":"9","larger_num":"10","correct_side":2,"subjID":"amalianavarrete3","gender":"1","age":"9","school":"4"},{"start_time":1552328464343,"click_time":1552328465112,"finger_time":1552328464751,"fix_duration":250,"trial":11,"RT":408,"MT":361,"sideResp":1,"stimulus":"img/900/randomdotsizeEA/L/10_Ratio_900_L_20_R_18.png","xmouse":[773,773,773,773,773,773,773,773,773,773,773,773,773,773,773,773,773,773,773,772,771,765,761,755,745,712,684,644,612,581,552,510,496,489,487,487,487,488,489],"ymouse":[531,531,531,531,531,531,531,531,531,531,531,531,531,531,531,531,524,508,491,477,469,453,443,430,414,364,327,274,241,211,186,145,133,126,122,120,106,101,96],"timestamp_mouse":[13,37,48,68,88,107,127,149,169,188,207,228,248,267,287,307,327,347,368,387,408,428,448,467,487,510,527,547,568,588,607,627,648,667,688,708,727,747,768],"xSR":741.5,"ySR":469.95,"xT1":424.9,"yT1":0,"xT2":1058.1,"yT2":0,"toosoon":0,"cond_shown":"randomdotsizeEA","ratio_trial":900,"smaller_num":"18","larger_num":"20","correct_side":1,"subjID":"amalianavarrete3","gender":"1","age":"9","school":"4"},{"start_time":1552328467143,"click_time":1552328468111,"finger_time":1552328467671,"fix_duration":1170.7968648797405,"trial":12,"RT":528,"MT":440,"sideResp":2,"stimulus":"img/750/equaldotanddens/R/5_Ratio_750_L_15_R_20.png","xmouse":[801,801,801,801,801,801,801,801,801,801,801,801,801,801,801,801,801,801,801,801,801,801,801,801,800,802,836,851,869,892,916,956,972,993,1004,1012,1018,1018,1018,1018,1020,1022,1023,1023,1024,1024,1036,1051,1074],"ymouse":[515,515,515,515,515,515,515,515,515,515,515,515,515,515,515,515,515,515,515,515,515,515,515,515,514,504,449,428,405,383,361,313,294,247,212,195,166,154,142,131,121,110,109,107,106,106,102,99,96],"timestamp_mouse":[12,43,47,68,87,107,129,148,168,188,207,227,248,268,288,309,328,348,368,389,409,427,447,467,488,508,528,548,567,588,607,627,648,668,687,707,727,747,767,787,807,827,848,867,888,907,927,947,968],"xSR":741.5,"ySR":469.95,"xT1":424.9,"yT1":0,"xT2":1058.1,"yT2":0,"toosoon":0,"cond_shown":"equaldotanddens","ratio_trial":750,"smaller_num":"15","larger_num":"20","correct_side":2,"subjID":"amalianavarrete3","gender":"1","age":"9","school":"4"},{"start_time":1552328470421,"click_time":1552328471112,"finger_time":1552328470711,"fix_duration":1169.336761786942,"trial":13,"RT":290,"MT":401,"sideResp":1,"stimulus":"img/750/randomdotsizeEA/L/8_Ratio_750_L_4_R_3.png","xmouse":[796,796,796,796,796,796,796,796,796,796,796,796,796,796,791,787,782,775,770,759,736,690,675,653,637,615,582,507,480,465,456,453,453,453,453],"ymouse":[527,527,527,527,527,527,527,527,527,527,527,526,504,485,462,444,430,406,389,364,329,283,273,266,261,249,230,177,154,140,133,128,114,102,92],"timestamp_mouse":[12,30,49,71,89,109,129,150,170,191,210,230,249,269,290,309,330,350,369,390,409,431,450,470,490,510,530,549,570,590,610,629,649,669,690],"xSR":741.5,"ySR":469.95,"xT1":424.9,"yT1":0,"xT2":1058.1,"yT2":0,"toosoon":0,"cond_shown":"randomdotsizeEA","ratio_trial":750,"smaller_num":"3","larger_num":"4","correct_side":1,"subjID":"amalianavarrete3","gender":"1","age":"9","school":"4"},{"start_time":1552328473649,"click_time":1552328474390,"finger_time":1552328473972,"fix_duration":1276.1959164967748,"trial":14,"RT":323,"MT":418,"sideResp":2,"stimulus":"img/900/equaldotanddens/R/12_Ratio_900_L_18_R_20.png","xmouse":[790,790,790,790,790,790,790,790,790,790,790,790,790,790,790,793,830,866,911,949,979,1009,1013,1014,1016,1017,1023,1027,1029,1031,1031,1032,1033,1036,1041,1048,1057,1060],"ymouse":[484,484,484,484,484,484,484,484,484,484,484,484,484,484,483,476,413,346,266,200,144,86,78,75,74,72,65,61,58,58,58,57,57,56,56,56,55,54],"timestamp_mouse":[10,32,41,61,83,101,121,141,161,182,203,222,241,261,282,302,323,342,362,382,402,421,441,463,481,501,521,543,562,581,602,622,642,661,681,702,722,741],"xSR":741.5,"ySR":469.95,"xT1":424.9,"yT1":0,"xT2":1058.1,"yT2":0,"toosoon":0,"cond_shown":"equaldotanddens","ratio_trial":900,"smaller_num":"18","larger_num":"20","correct_side":2,"subjID":"amalianavarrete3","gender":"1","age":"9","school":"4"},{"start_time":1552328476653,"click_time":1552328477251,"finger_time":1552328477011,"fix_duration":1260.487816247193,"trial":15,"RT":358,"MT":240,"sideResp":1,"stimulus":"img/250/randomdotsizeEA/R/9_Ratio_250_L_3_R_12.png","xmouse":[801,801,801,801,801,801,801,801,801,801,801,801,801,801,801,801,801,799,795,791,750,712,673,634,604,564,552,542,532,521],"ymouse":[501,501,501,501,501,501,501,501,501,501,501,501,501,501,501,498,484,463,442,420,318,252,190,144,115,89,81,76,70,63],"timestamp_mouse":[17,38,57,78,97,118,139,158,178,197,218,239,257,278,298,317,337,358,377,398,418,437,457,477,498,519,538,557,577,598],"xSR":741.5,"ySR":469.95,"xT1":424.9,"yT1":0,"xT2":1058.1,"yT2":0,"toosoon":0,"cond_shown":"randomdotsizeEA","ratio_trial":250,"smaller_num":"3","larger_num":"12","correct_side":2,"subjID":"amalianavarrete3","gender":"1","age":"9","school":"4"},{"start_time":1552328478406,"click_time":1552328479310,"finger_time":1552328479191,"fix_duration":253.22577024176795,"trial":16,"RT":785,"MT":119,"sideResp":1,"stimulus":"img/250/randomdotsizeEA/L/7_Ratio_250_L_8_R_2.png","xmouse":[800,800,800,800,800,800,800,800,799,799,798,798,798,797,797,797,797,797,797,797,797,797,797,797,797,797,797,797,797,797,797,797,797,797,797,797,796,792,757,724,685,635,587,486,467,456],"ymouse":[553,553,553,553,553,553,550,548,544,541,538,536,535,532,532,531,530,529,527,526,526,525,525,525,525,525,525,525,525,525,524,524,524,524,524,522,522,518,495,465,412,341,261,125,102,91],"timestamp_mouse":[9,26,45,64,84,104,125,144,164,185,204,224,245,265,284,304,324,345,364,384,405,424,444,465,486,504,524,546,565,584,604,624,644,665,685,704,724,744,764,785,804,825,844,864,884,904],"xSR":741.5,"ySR":469.95,"xT1":424.9,"yT1":0,"xT2":1058.1,"yT2":0,"toosoon":0,"cond_shown":"randomdotsizeEA","ratio_trial":250,"smaller_num":"2","larger_num":"8","correct_side":1,"subjID":"amalianavarrete3","gender":"1","age":"9","school":"4"},{"start_time":1552328481523,"click_time":1552328482350,"finger_time":1552328481890,"fix_duration":650.1362753530225,"trial":17,"RT":367,"MT":460,"sideResp":1,"stimulus":"img/750/randomdotsizeEA/L/1_Ratio_750_L_20_R_15.png","xmouse":[804,804,804,804,804,804,804,804,804,804,804,804,804,804,804,806,808,813,814,815,815,804,733,676,613,554,509,454,441,427,414,402,396,396,396,396,396,396,401,408,417,426],"ymouse":[496,496,496,496,496,496,496,496,496,496,496,496,496,496,497,495,492,473,460,438,409,370,280,246,212,187,169,147,140,126,111,97,86,86,86,86,86,86,85,84,81,79],"timestamp_mouse":[10,27,47,67,88,108,127,148,167,187,208,227,247,268,288,308,328,347,367,388,408,428,447,467,487,508,527,547,568,589,608,628,647,667,688,708,729,747,768,788,808,827],"xSR":741.5,"ySR":469.95,"xT1":424.9,"yT1":0,"xT2":1058.1,"yT2":0,"toosoon":0,"cond_shown":"randomdotsizeEA","ratio_trial":750,"smaller_num":"15","larger_num":"20","correct_side":1,"subjID":"amalianavarrete3","gender":"1","age":"9","school":"4"},{"start_time":1552328484458,"click_time":1552328485053,"finger_time":1552328484870,"fix_duration":1287.5147972933405,"trial":18,"RT":412,"MT":183,"sideResp":1,"stimulus":"img/900/randomdotsizeEA/L/10_Ratio_900_L_20_R_18.png","xmouse":[769,769,769,769,769,769,769,769,769,769,769,769,769,769,769,769,769,768,759,742,633,578,529,493,463,459,458,457,456,452],"ymouse":[525,525,525,525,525,525,525,525,525,525,525,525,525,525,525,525,525,525,514,495,363,298,250,216,182,173,166,152,134,86],"timestamp_mouse":[13,39,53,73,93,112,133,152,172,192,212,233,253,272,294,312,333,353,373,393,412,433,452,472,495,512,533,552,573,595],"xSR":741.5,"ySR":469.95,"xT1":424.9,"yT1":0,"xT2":1058.1,"yT2":0,"toosoon":0,"cond_shown":"randomdotsizeEA","ratio_trial":900,"smaller_num":"18","larger_num":"20","correct_side":1,"subjID":"amalianavarrete3","gender":"1","age":"9","school":"4"},{"start_time":1552328486869,"click_time":1552328487310,"finger_time":1552328487230,"fix_duration":1117.1727859551615,"trial":19,"RT":361,"MT":80,"sideResp":1,"stimulus":"img/500/equaldotanddens/L/5_Ratio_500_L_4_R_2.png","xmouse":[791,791,791,791,791,791,791,791,791,791,791,791,791,791,791,789,781,761,727,679,551,511,487],"ymouse":[518,518,518,518,518,518,518,518,518,518,518,518,518,518,518,518,513,491,435,367,175,105,56],"timestamp_mouse":[14,25,41,62,82,101,123,142,161,182,202,221,241,262,283,301,322,342,361,381,401,422,441],"xSR":741.5,"ySR":469.95,"xT1":424.9,"yT1":0,"xT2":1058.1,"yT2":0,"toosoon":0,"cond_shown":"equaldotanddens","ratio_trial":500,"smaller_num":"2","larger_num":"4","correct_side":1,"subjID":"amalianavarrete3","gender":"1","age":"9","school":"4"},{"start_time":1552328491534,"click_time":1552328492230,"finger_time":1552328491970,"fix_duration":682.6624083134332,"trial":20,"RT":436,"MT":260,"sideResp":2,"stimulus":"img/750/randomdotsizeEA/L/14_Ratio_750_L_8_R_6.png","xmouse":[801,801,801,801,801,801,801,801,801,801,801,801,801,801,801,801,801,801,801,801,807,848,881,914,945,979,1016,1023,1027,1034,1039,1049,1052,1057,1061],"ymouse":[541,541,541,541,541,541,541,541,541,541,541,541,541,541,541,541,541,541,541,535,525,467,418,366,318,271,198,175,159,141,123,92,84,75,67],"timestamp_mouse":[16,36,57,77,97,117,136,156,176,198,217,236,257,276,296,317,336,356,377,396,417,436,457,476,498,516,537,556,576,597,617,636,657,677,696],"xSR":741.5,"ySR":469.95,"xT1":424.9,"yT1":0,"xT2":1058.1,"yT2":0,"toosoon":0,"cond_shown":"randomdotsizeEA","ratio_trial":750,"smaller_num":"6","larger_num":"8","correct_side":1,"subjID":"amalianavarrete3","gender":"1","age":"9","school":"4"},{"start_time":1552328494432,"click_time":1552328495270,"finger_time":1552328494970,"fix_duration":1339.14378664697,"trial":21,"RT":538,"MT":300,"sideResp":1,"stimulus":"img/900/randomdotsizeEA/R/12_Ratio_900_L_18_R_20.png","xmouse":[757,757,757,757,757,757,757,757,757,757,757,757,757,757,757,757,757,757,757,757,757,757,757,758,758,758,758,724,690,650,598,598,598,598,598,598,598,598,598,598,598,598,472],"ymouse":[544,544,544,544,544,544,544,544,544,544,544,544,544,544,544,544,544,544,544,544,544,544,543,538,529,509,474,316,210,103,7,7,7,7,7,7,7,7,7,7,7,7,40],"timestamp_mouse":[1,20,39,58,80,98,119,138,159,179,199,220,238,258,279,299,318,338,359,378,399,418,439,459,480,498,518,538,559,579,598,618,639,659,678,698,720,738,760,778,798,820,838],"xSR":741.5,"ySR":469.95,"xT1":424.9,"yT1":0,"xT2":1058.1,"yT2":0,"toosoon":0,"cond_shown":"randomdotsizeEA","ratio_trial":900,"smaller_num":"18","larger_num":"20","correct_side":2,"subjID":"amalianavarrete3","gender":"1","age":"9","school":"4"},{"start_time":1552328497945,"click_time":1552328498770,"finger_time":1552328498450,"fix_duration":513.9312667609207,"trial":22,"RT":505,"MT":320,"sideResp":1,"stimulus":"img/900/equaldotanddens/R/12_Ratio_900_L_18_R_20.png","xmouse":[791,791,792,792,793,793,793,793,793,793,791,791,791,791,791,791,791,791,791,791,791,791,791,783,774,744,632,609,597,593,592,592,592,592,588,586,586,585,582,572,558,507],"ymouse":[523,523,521,520,518,517,517,517,517,516,515,515,515,515,515,515,515,515,515,515,515,515,515,495,474,409,241,210,194,182,172,156,149,140,134,132,132,131,128,113,94,47],"timestamp_mouse":[12,36,45,65,85,105,125,145,166,185,206,227,246,265,285,305,326,345,365,386,407,425,445,465,485,505,525,546,566,587,605,626,646,666,686,706,726,745,766,786,806,825],"xSR":741.5,"ySR":469.95,"xT1":424.9,"yT1":0,"xT2":1058.1,"yT2":0,"toosoon":0,"cond_shown":"equaldotanddens","ratio_trial":900,"smaller_num":"18","larger_num":"20","correct_side":2,"subjID":"amalianavarrete3","gender":"1","age":"9","school":"4"},{"start_time":1552328500893,"click_time":1552328501812,"finger_time":1552328501571,"fix_duration":1401.4220880907624,"trial":23,"RT":678,"MT":241,"sideResp":2,"stimulus":"img/900/equaldotsize/L/2_Ratio_900_L_20_R_18.png","xmouse":[787,787,787,787,787,787,787,787,787,787,787,787,787,787,787,787,787,787,787,787,787,787,787,787,787,787,787,787,787,787,791,806,825,895,930,962,984,997,1009,1015,1024,1032,1056,1078,1104,1126],"ymouse":[548,548,548,548,548,548,548,548,548,548,548,548,548,548,548,548,548,548,548,548,548,548,548,548,548,548,548,548,548,548,547,532,518,463,425,376,337,307,277,262,243,224,173,138,102,71],"timestamp_mouse":[17,37,58,77,97,117,138,158,178,198,218,238,257,277,298,318,337,357,378,398,417,438,457,479,497,518,538,559,578,598,618,638,658,678,698,717,738,758,778,797,818,837,859,879,897,919],"xSR":741.5,"ySR":469.95,"xT1":424.9,"yT1":0,"xT2":1058.1,"yT2":0,"toosoon":0,"cond_shown":"equaldotsize","ratio_trial":900,"smaller_num":"18","larger_num":"20","correct_side":1,"subjID":"amalianavarrete3","gender":"1","age":"9","school":"4"},{"start_time":1552328508006,"click_time":1552328508630,"finger_time":1552328508390,"fix_duration":1252.7396875099087,"trial":24,"RT":384,"MT":240,"sideResp":1,"stimulus":"img/750/randomdotsizeEA/R/3_Ratio_750_L_15_R_20.png","xmouse":[804,804,804,804,804,804,804,804,804,804,804,804,804,804,804,804,804,804,802,797,790,782,771,748,710,677,651,601,579,556,532,512],"ymouse":[506,506,506,506,506,506,506,506,506,506,506,506,506,506,506,506,504,500,479,468,455,440,425,390,338,296,255,196,163,132,99,71],"timestamp_mouse":[13,24,44,64,85,105,124,146,166,185,205,224,244,266,285,305,324,345,364,384,404,425,445,465,485,505,525,546,564,584,604,624],"xSR":741.5,"ySR":469.95,"xT1":424.9,"yT1":0,"xT2":1058.1,"yT2":0,"toosoon":0,"cond_shown":"randomdotsizeEA","ratio_trial":750,"smaller_num":"15","larger_num":"20","correct_side":2,"subjID":"amalianavarrete3","gender":"1","age":"9","school":"4"},{"start_time":1552328509897,"click_time":1552328510691,"finger_time":1552328510272,"fix_duration":345.75100817920537,"trial":25,"RT":375,"MT":419,"sideResp":2,"stimulus":"img/500/equaldotsize/R/14_Ratio_500_L_5_R_10.png","xmouse":[800,800,800,800,800,800,800,800,800,800,800,800,800,800,800,800,800,804,872,904,929,944,958,983,994,1001,1006,1018,1021,1024,1025,1025,1026,1028,1032,1035,1042,1053,1078,1107],"ymouse":[527,527,527,527,527,527,527,527,527,527,527,527,527,527,527,527,527,509,337,281,243,223,211,197,189,182,173,146,137,131,130,130,129,126,122,119,118,115,102,86],"timestamp_mouse":[14,46,54,74,94,113,133,153,173,195,214,233,253,274,293,314,334,354,375,395,415,434,454,474,494,514,535,555,573,594,613,634,656,673,693,714,733,754,773,793],"xSR":741.5,"ySR":469.95,"xT1":424.9,"yT1":0,"xT2":1058.1,"yT2":0,"toosoon":0,"cond_shown":"equaldotsize","ratio_trial":500,"smaller_num":"5","larger_num":"10","correct_side":2,"subjID":"amalianavarrete3","gender":"1","age":"9","school":"4"},{"start_time":1552328512987,"click_time":1552328513651,"finger_time":1552328513410,"fix_duration":1314.313898678373,"trial":26,"RT":423,"MT":241,"sideResp":1,"stimulus":"img/500/equaldotsize/L/4_Ratio_500_L_18_R_9.png","xmouse":[782,782,782,782,782,782,782,782,782,782,782,782,782,782,782,782,782,782,782,782,781,774,761,747,730,719,713,706,699,653,598,550,525,511],"ymouse":[517,517,517,517,517,517,517,517,517,517,517,517,517,517,517,517,517,517,517,515,491,450,406,366,330,311,295,281,264,173,101,43,21,15],"timestamp_mouse":[10,23,43,64,83,103,124,145,164,183,204,224,244,264,283,303,324,343,364,384,404,423,445,463,483,504,523,544,564,585,605,625,643,664],"xSR":741.5,"ySR":469.95,"xT1":424.9,"yT1":0,"xT2":1058.1,"yT2":0,"toosoon":0,"cond_shown":"equaldotsize","ratio_trial":500,"smaller_num":"9","larger_num":"18","correct_side":1,"subjID":"amalianavarrete3","gender":"1","age":"9","school":"4"},{"start_time":1552328515316,"click_time":1552328516250,"finger_time":1552328515831,"fix_duration":544.0688484291176,"trial":27,"RT":515,"MT":419,"sideResp":2,"stimulus":"img/250/equaldotanddens/R/8_Ratio_250_L_1_R_4.png","xmouse":[766,766,766,766,766,766,766,766,766,766,766,766,766,766,766,766,766,766,766,766,766,766,766,772,775,784,792,825,873,932,1013,1102,1235,1264,1264,1264,1264,1264,1264,1264,1264,1264,1264,1264,1201,1186,1156],"ymouse":[487,487,487,487,487,487,487,487,487,487,487,487,487,487,487,487,487,487,487,487,487,487,487,484,478,460,444,405,358,306,237,160,35,0,0,0,0,0,0,0,0,0,0,0,0,8,19],"timestamp_mouse":[15,35,54,74,94,115,135,155,174,195,215,234,255,275,296,315,335,354,376,395,414,434,455,475,495,515,534,554,576,594,615,635,655,675,694,715,735,756,774,794,815,835,854,875,895,914,934],"xSR":741.5,"ySR":469.95,"xT1":424.9,"yT1":0,"xT2":1058.1,"yT2":0,"toosoon":0,"cond_shown":"equaldotanddens","ratio_trial":250,"smaller_num":"1","larger_num":"4","correct_side":2,"subjID":"amalianavarrete3","gender":"1","age":"9","school":"4"},{"start_time":1552328518178,"click_time":1552328518931,"finger_time":1552328518470,"fix_duration":1046.4198687207327,"trial":28,"RT":292,"MT":461,"sideResp":1,"stimulus":"img/250/equaldotanddens/L/1_Ratio_250_L_8_R_2.png","xmouse":[779,779,779,779,779,779,779,779,779,779,779,779,778,778,757,741,712,677,637,560,534,512,498,488,481,475,470,459,446,418,408,404,404,404,406,414,423,435],"ymouse":[519,519,519,519,519,519,519,519,519,519,519,519,519,515,468,439,393,348,307,252,237,227,221,218,212,204,195,177,160,125,113,108,107,106,99,91,83,75],"timestamp_mouse":[14,34,52,73,93,112,133,152,174,194,213,233,253,272,292,313,333,353,372,393,412,433,453,473,492,513,533,552,573,592,612,633,652,672,694,712,733,753],"xSR":741.5,"ySR":469.95,"xT1":424.9,"yT1":0,"xT2":1058.1,"yT2":0,"toosoon":0,"cond_shown":"equaldotanddens","ratio_trial":250,"smaller_num":"2","larger_num":"8","correct_side":1,"subjID":"amalianavarrete3","gender":"1","age":"9","school":"4"},{"start_time":1552328520218,"click_time":1552328521031,"finger_time":1552328520591,"fix_duration":685.8093035028555,"trial":29,"RT":373,"MT":440,"sideResp":1,"stimulus":"img/250/randomdotsizeEA/R/6_Ratio_250_L_6_R_24.png","xmouse":[828,828,828,828,828,828,828,828,828,828,828,828,827,823,818,809,793,789,783,778,771,762,721,701,683,663,643,611,597,584,572,557,549,547,544,542,540,532,529,527,524],"ymouse":[534,534,534,534,534,534,534,534,534,534,534,534,534,525,514,500,477,472,463,454,444,429,376,356,340,323,302,246,225,206,189,159,142,136,130,126,121,108,105,103,97],"timestamp_mouse":[12,36,52,72,93,112,132,153,172,192,212,233,252,273,293,312,334,354,373,393,414,432,453,473,492,512,533,552,572,593,613,634,653,673,692,713,733,752,773,793,813],"xSR":741.5,"ySR":469.95,"xT1":424.9,"yT1":0,"xT2":1058.1,"yT2":0,"toosoon":0,"cond_shown":"randomdotsizeEA","ratio_trial":250,"smaller_num":"6","larger_num":"24","correct_side":2,"subjID":"amalianavarrete3","gender":"1","age":"9","school":"4"},{"start_time":1552328529086,"click_time":1552328529971,"finger_time":1552328529632,"fix_duration":894.3264926005404,"trial":30,"RT":546,"MT":339,"sideResp":2,"stimulus":"img/750/equaldotsize/R/4_Ratio_750_L_15_R_20.png","xmouse":[824,822,820,819,817,817,817,817,817,817,817,817,817,817,817,817,817,817,817,816,816,816,816,816,816,819,828,841,864,935,953,963,971,975,980,988,1000,1011,1025,1032,1034,1038,1042,1058,1071],"ymouse":[533,533,533,533,533,533,533,533,533,533,533,533,533,533,533,533,533,533,532,516,515,514,514,514,510,496,479,458,427,323,287,264,245,233,213,197,178,161,139,127,124,120,116,104,98],"timestamp_mouse":[11,24,45,65,86,105,124,145,166,184,205,226,245,265,284,304,325,345,365,386,405,424,446,465,486,506,525,546,565,585,604,624,645,666,685,705,725,745,765,785,804,825,845,866,884],"xSR":741.5,"ySR":469.95,"xT1":424.9,"yT1":0,"xT2":1058.1,"yT2":0,"toosoon":0,"cond_shown":"equaldotsize","ratio_trial":750,"smaller_num":"15","larger_num":"20","correct_side":2,"subjID":"amalianavarrete3","gender":"1","age":"9","school":"4"},{"start_time":1552328530923,"click_time":1552328531911,"finger_time":1552328531572,"fix_duration":250,"trial":31,"RT":649,"MT":339,"sideResp":1,"stimulus":"img/500/randomdotsizeEA/L/5_Ratio_500_L_4_R_2.png","xmouse":[831,831,831,831,831,831,831,831,831,831,831,831,831,831,831,831,831,831,831,831,831,831,831,831,831,831,831,831,826,814,793,764,672,621,579,555,544,539,538,538,538,540,542,542,542,541,539,532,529,524],"ymouse":[553,553,553,553,553,553,553,553,553,553,554,554,554,554,554,554,554,554,554,554,554,554,554,554,554,554,554,554,554,549,530,495,385,322,266,231,207,136,109,89,80,68,62,55,48,40,35,31,31,30],"timestamp_mouse":[9,28,47,68,88,109,129,148,169,188,208,229,247,268,288,308,329,348,369,387,408,429,449,469,488,508,528,548,569,589,607,628,649,668,689,707,728,748,767,789,808,829,847,868,889,908,928,948,968,988],"xSR":741.5,"ySR":469.95,"xT1":424.9,"yT1":0,"xT2":1058.1,"yT2":0,"toosoon":0,"cond_shown":"randomdotsizeEA","ratio_trial":500,"smaller_num":"2","larger_num":"4","correct_side":1,"subjID":"amalianavarrete3","gender":"1","age":"9","school":"4"},{"start_time":1552328534128,"click_time":1552328534732,"finger_time":1552328534631,"fix_duration":1114.840875025677,"trial":32,"RT":503,"MT":101,"sideResp":1,"stimulus":"img/250/equaldotanddens/L/15_Ratio_250_L_12_R_3.png","xmouse":[774,774,774,774,774,774,774,774,774,774,774,774,774,774,774,774,774,774,774,774,774,774,774,769,756,736,716,666,607,559,520],"ymouse":[535,535,535,535,535,535,535,535,535,535,535,535,535,535,535,535,535,535,535,535,535,535,532,518,488,442,390,280,189,130,91],"timestamp_mouse":[10,23,42,64,84,103,122,143,164,183,204,222,243,263,284,303,324,344,363,383,403,424,443,463,484,503,522,542,563,582,603],"xSR":741.5,"ySR":469.95,"xT1":424.9,"yT1":0,"xT2":1058.1,"yT2":0,"toosoon":0,"cond_shown":"equaldotanddens","ratio_trial":250,"smaller_num":"3","larger_num":"12","correct_side":1,"subjID":"amalianavarrete3","gender":"1","age":"9","school":"4"},{"start_time":1552328541976,"click_time":1552328542692,"finger_time":1552328542391,"fix_duration":324.8641796843669,"trial":33,"RT":415,"MT":301,"sideResp":2,"stimulus":"img/250/randomdotsizeEA/R/12_Ratio_250_L_5_R_20.png","xmouse":[791,791,791,791,791,791,791,791,791,791,791,791,791,791,791,791,791,791,791,797,805,814,828,842,877,890,901,912,940,956,972,991,1010,1038,1051,1066],"ymouse":[515,515,515,515,515,515,515,515,515,515,515,515,515,515,515,515,515,515,513,489,463,435,405,373,299,280,266,253,226,212,197,180,162,126,108,87],"timestamp_mouse":[15,35,54,76,95,116,135,154,175,195,214,236,255,275,296,315,334,356,375,396,415,436,455,475,494,516,534,556,576,594,615,635,655,677,695,716],"xSR":741.5,"ySR":469.95,"xT1":424.9,"yT1":0,"xT2":1058.1,"yT2":0,"toosoon":0,"cond_shown":"randomdotsizeEA","ratio_trial":250,"smaller_num":"5","larger_num":"20","correct_side":2,"subjID":"amalianavarrete3","gender":"1","age":"9","school":"4"},{"start_time":1552328544765,"click_time":1552328545831,"finger_time":1552328545252,"fix_duration":1192.7299181665292,"trial":34,"RT":487,"MT":579,"sideResp":1,"stimulus":"img/750/randomdotsizeEA/L/8_Ratio_750_L_4_R_3.png","xmouse":[802,802,802,802,802,802,802,802,802,802,802,802,802,802,802,802,802,802,802,802,802,802,801,798,787,770,760,748,741,722,711,696,681,668,657,631,613,603,591,578,559,550,546,544,543,543,543,543,543,543,543,539,531,520],"ymouse":[518,516,514,514,514,514,514,514,514,514,514,514,514,514,514,514,514,514,514,514,514,512,506,496,463,423,398,376,361,332,315,293,271,255,236,201,169,144,114,85,52,43,42,41,41,41,41,41,41,41,41,41,41,41],"timestamp_mouse":[15,34,46,66,86,105,127,147,165,187,206,226,246,267,287,306,325,347,367,385,405,426,447,467,487,505,525,546,567,587,605,626,645,666,687,706,727,746,767,786,806,827,846,865,886,907,927,946,966,987,1006,1026,1047,1066],"xSR":741.5,"ySR":469.95,"xT1":424.9,"yT1":0,"xT2":1058.1,"yT2":0,"toosoon":0,"cond_shown":"randomdotsizeEA","ratio_trial":750,"smaller_num":"3","larger_num":"4","correct_side":1,"subjID":"amalianavarrete3","gender":"1","age":"9","school":"4"},{"start_time":1552328547742,"click_time":1552328548331,"finger_time":1552328548172,"fix_duration":888.0458628597321,"trial":35,"RT":430,"MT":159,"sideResp":1,"stimulus":"img/500/equaldotsize/L/11_Ratio_500_L_12_R_6.png","xmouse":[756,756,756,756,756,756,756,756,756,756,756,756,756,756,756,756,756,756,756,755,753,744,739,732,720,703,620,546,496,454],"ymouse":[495,495,495,495,495,495,495,495,495,495,495,495,495,495,495,495,495,495,495,489,482,462,452,440,424,401,281,175,109,51],"timestamp_mouse":[13,37,49,68,90,109,128,149,170,188,209,229,250,269,289,310,330,348,370,390,408,430,449,468,489,509,529,549,569,589],"xSR":741.5,"ySR":469.95,"xT1":424.9,"yT1":0,"xT2":1058.1,"yT2":0,"toosoon":0,"cond_shown":"equaldotsize","ratio_trial":500,"smaller_num":"6","larger_num":"12","correct_side":1,"subjID":"amalianavarrete3","gender":"1","age":"9","school":"4"},{"start_time":1552328550035,"click_time":1552328551152,"finger_time":1552328550591,"fix_duration":562.8832402169346,"trial":36,"RT":556,"MT":561,"sideResp":2,"stimulus":"img/500/equaldotanddens/R/3_Ratio_500_L_10_R_20.png","xmouse":[783,783,783,783,783,783,783,783,783,783,783,783,785,787,787,787,787,787,787,787,787,787,787,787,787,792,836,873,918,974,1021,1108,1179,1216,1241,1257,1278,1282,1288,1293,1299,1304,1304,1301,1298,1286,1275,1263,1251,1242,1226,1181,1168,1162,1160,1156],"ymouse":[516,516,516,516,516,516,516,516,516,516,516,516,514,509,509,509,509,509,509,509,509,509,509,509,508,504,481,466,447,426,403,354,314,294,278,266,244,238,225,209,187,129,117,109,106,102,99,96,92,89,85,77,74,71,69,66],"timestamp_mouse":[22,45,55,76,96,116,136,156,176,196,215,236,256,275,296,316,337,357,376,395,417,435,457,476,496,515,535,556,575,595,616,636,656,677,695,716,736,757,776,796,816,836,856,875,897,917,936,957,975,996,1016,1035,1057,1077,1096,1116],"xSR":741.5,"ySR":469.95,"xT1":424.9,"yT1":0,"xT2":1058.1,"yT2":0,"toosoon":0,"cond_shown":"equaldotanddens","ratio_trial":500,"smaller_num":"10","larger_num":"20","correct_side":2,"subjID":"amalianavarrete3","gender":"1","age":"9","school":"4"},{"start_time":1552328553217,"click_time":1552328554331,"finger_time":1552328553730,"fix_duration":1024.8694448710557,"trial":37,"RT":513,"MT":601,"sideResp":1,"stimulus":"img/750/equaldotanddens/L/8_Ratio_750_L_4_R_3.png","xmouse":[763,763,763,763,763,763,763,763,763,763,763,763,763,763,763,763,763,763,763,763,763,763,763,763,764,764,764,764,764,764,764,756,739,728,726,724,722,697,697,697,697,697,697,697,697,697,697,697,697,697,697,697,697,697,697,480],"ymouse":[495,495,495,495,495,495,495,495,495,495,495,495,495,495,495,495,495,495,495,495,495,495,493,482,470,457,413,367,305,245,187,133,55,26,20,19,17,2,2,2,2,2,2,2,2,2,2,2,2,2,2,2,2,2,2,4],"timestamp_mouse":[14,35,54,75,95,114,133,153,174,194,213,233,255,274,295,314,335,355,373,393,415,435,455,473,495,513,535,554,574,594,613,635,654,674,695,714,734,755,775,794,814,835,855,874,895,915,934,955,974,994,1014,1035,1054,1074,1093,1114],"xSR":741.5,"ySR":469.95,"xT1":424.9,"yT1":0,"xT2":1058.1,"yT2":0,"toosoon":0,"cond_shown":"equaldotanddens","ratio_trial":750,"smaller_num":"3","larger_num":"4","correct_side":1,"subjID":"amalianavarrete3","gender":"1","age":"9","school":"4"},{"start_time":1552328556191,"click_time":1552328557371,"finger_time":1552328556872,"fix_duration":916.0057287727442,"trial":38,"RT":681,"MT":499,"sideResp":2,"stimulus":"img/900/equaldotsize/R/7_Ratio_900_L_9_R_10.png","xmouse":[758,758,758,758,758,758,758,758,758,758,758,758,758,758,758,758,758,758,758,758,758,758,758,758,758,758,758,758,758,758,763,769,786,811,919,970,1018,1051,1070,1098,1105,1111,1117,1123,1141,1147,1156,1161,1172,1192,1194,1194,1194,1194,1194,1194,1194,1188,1172,1123],"ymouse":[515,515,515,515,515,515,515,515,515,515,515,515,515,515,515,515,515,515,515,515,515,515,515,515,515,515,515,515,515,515,511,508,499,482,413,379,352,336,326,306,299,290,280,269,239,224,206,186,162,90,68,60,59,59,59,59,58,57,55,54],"timestamp_mouse":[9,20,46,61,79,101,121,140,161,180,200,221,239,260,279,301,321,341,360,380,400,420,441,459,479,501,521,540,561,579,599,620,640,659,681,700,719,740,760,781,800,821,840,859,879,900,921,940,960,980,1000,1020,1040,1060,1079,1099,1121,1140,1160,1180],"xSR":741.5,"ySR":469.95,"xT1":424.9,"yT1":0,"xT2":1058.1,"yT2":0,"toosoon":0,"cond_shown":"equaldotsize","ratio_trial":900,"smaller_num":"9","larger_num":"10","correct_side":2,"subjID":"amalianavarrete3","gender":"1","age":"9","school":"4"},{"start_time":1552328558645,"click_time":1552328559751,"finger_time":1552328559212,"fix_duration":552.5530145551196,"trial":39,"RT":567,"MT":539,"sideResp":2,"stimulus":"img/250/equaldotsize/R/4_Ratio_250_L_3_R_12.png","xmouse":[761,761,761,761,761,761,761,761,761,761,761,761,761,761,761,761,761,761,761,761,761,761,761,761,761,767,792,821,875,955,1038,1194,1264,1287,1305,1315,1321,1322,1322,1322,1322,1297,1271,1239,1206,1186,1172,1171,1171,1171,1171,1171,1170,1169,1165,1152],"ymouse":[556,556,556,556,556,556,556,556,556,556,556,556,556,556,556,556,556,556,556,556,556,556,556,556,556,548,521,491,446,378,308,193,141,122,107,94,78,75,75,75,73,67,62,57,52,49,46,46,46,46,46,46,45,45,45,45],"timestamp_mouse":[9,34,46,67,86,107,126,145,167,187,207,225,247,265,285,305,326,347,366,386,406,426,445,467,487,506,525,546,567,587,606,625,646,667,685,706,726,746,766,785,808,825,846,866,886,905,925,946,966,987,1006,1026,1046,1066,1086,1106],"xSR":741.5,"ySR":469.95,"xT1":424.9,"yT1":0,"xT2":1058.1,"yT2":0,"toosoon":0,"cond_shown":"equaldotsize","ratio_trial":250,"smaller_num":"3","larger_num":"12","correct_side":2,"subjID":"amalianavarrete3","gender":"1","age":"9","school":"4"},{"start_time":1552328561168,"click_time":1552328562071,"finger_time":1552328561610,"fix_duration":375.7655934112631,"trial":40,"RT":442,"MT":461,"sideResp":1,"stimulus":"img/750/equaldotanddens/L/1_Ratio_750_L_20_R_15.png","xmouse":[785,785,785,785,785,785,785,785,785,785,785,785,785,785,785,785,785,785,785,785,786,785,783,780,772,770,765,759,749,736,710,691,679,669,664,658,657,654,645,633,597,574,550,520,488,449],"ymouse":[500,500,500,500,500,500,500,500,500,500,500,500,500,500,500,500,500,500,500,500,490,478,462,445,421,415,406,390,368,337,274,243,223,206,199,193,192,192,188,183,166,153,139,123,104,79],"timestamp_mouse":[10,33,43,62,83,103,123,142,163,182,202,223,244,262,283,302,323,342,362,382,403,423,442,463,484,503,522,544,563,583,603,624,644,662,683,702,723,744,763,783,803,823,844,863,883,903],"xSR":741.5,"ySR":469.95,"xT1":424.9,"yT1":0,"xT2":1058.1,"yT2":0,"toosoon":0,"cond_shown":"equaldotanddens","ratio_trial":750,"smaller_num":"15","larger_num":"20","correct_side":1,"subjID":"amalianavarrete3","gender":"1","age":"9","school":"4"},{"start_time":1552328564265,"click_time":1552328565211,"finger_time":1552328564651,"fix_duration":1193.4347453694868,"trial":41,"RT":386,"MT":560,"sideResp":1,"stimulus":"img/900/randomdotsizeEA/L/1_Ratio_900_L_10_R_9.png","xmouse":[795,793,793,792,792,790,790,790,790,790,790,790,790,790,790,790,793,798,812,829,872,890,908,926,939,954,954,953,942,872,777,698,604,525,467,467,467,467,467,467,467,467,467,467,467,467,467,429],"ymouse":[492,494,495,496,497,499,499,499,499,499,499,499,499,499,499,499,497,493,478,463,428,412,394,371,346,312,304,302,298,278,236,184,105,42,0,0,0,0,0,0,0,0,0,0,0,0,0,2],"timestamp_mouse":[5,35,46,66,86,106,127,146,166,187,207,225,247,266,287,305,327,346,366,386,406,427,447,465,485,505,526,546,567,588,606,625,645,666,687,707,726,747,766,785,806,826,846,866,886,907,926,946],"xSR":741.5,"ySR":469.95,"xT1":424.9,"yT1":0,"xT2":1058.1,"yT2":0,"toosoon":0,"cond_shown":"randomdotsizeEA","ratio_trial":900,"smaller_num":"9","larger_num":"10","correct_side":1,"subjID":"amalianavarrete3","gender":"1","age":"9","school":"4"},{"start_time":1552328567283,"click_time":1552328568031,"finger_time":1552328567572,"fix_duration":810.4725493144543,"trial":42,"RT":289,"MT":459,"sideResp":1,"stimulus":"img/750/randomdotsizeEA/L/14_Ratio_750_L_8_R_6.png","xmouse":[777,777,777,777,777,777,777,777,777,777,778,778,774,769,757,749,738,720,703,665,653,643,635,625,620,613,608,603,594,576,566,561,554,549,539,533,529,524],"ymouse":[517,517,517,517,517,517,517,517,517,517,517,514,506,497,469,447,416,375,332,255,235,221,206,171,151,135,124,117,110,103,100,99,97,97,93,90,87,84],"timestamp_mouse":[13,32,48,69,89,108,128,148,169,188,207,229,249,269,289,307,329,349,368,388,408,427,448,469,487,508,528,548,568,587,608,627,648,668,687,709,729,748],"xSR":741.5,"ySR":469.95,"xT1":424.9,"yT1":0,"xT2":1058.1,"yT2":0,"toosoon":0,"cond_shown":"randomdotsizeEA","ratio_trial":750,"smaller_num":"6","larger_num":"8","correct_side":1,"subjID":"amalianavarrete3","gender":"1","age":"9","school":"4"},{"start_time":1552328569253,"click_time":1552328570053,"finger_time":1552328569612,"fix_duration":318.63578568664786,"trial":43,"RT":359,"MT":441,"sideResp":1,"stimulus":"img/900/equaldotanddens/R/13_Ratio_900_L_18_R_20.png","xmouse":[780,780,780,780,780,780,780,780,780,780,780,780,780,780,780,780,777,766,746,719,686,636,623,610,601,588,586,586,586,586,586,583,578,573,568,564,556,548,539,525,498],"ymouse":[522,522,522,522,522,522,522,522,522,522,522,522,522,522,522,522,513,493,456,409,357,274,250,228,208,176,172,172,171,169,156,136,124,116,111,108,101,95,89,80,64],"timestamp_mouse":[1,17,37,58,78,97,119,139,157,178,197,217,239,259,277,297,317,338,359,378,397,418,437,458,478,499,518,538,559,578,600,617,638,659,679,698,718,738,759,779,800],"xSR":741.5,"ySR":469.95,"xT1":424.9,"yT1":0,"xT2":1058.1,"yT2":0,"toosoon":0,"cond_shown":"equaldotanddens","ratio_trial":900,"smaller_num":"18","larger_num":"20","correct_side":2,"subjID":"amalianavarrete3","gender":"1","age":"9","school":"4"},{"start_time":1552328571199,"click_time":1552328571953,"finger_time":1552328571531,"fix_duration":367.814274708088,"trial":44,"RT":332,"MT":422,"sideResp":2,"stimulus":"img/500/randomdotsizeEA/R/1_Ratio_500_L_9_R_18.png","xmouse":[808,808,808,808,808,808,808,809,809,809,810,811,811,815,818,825,831,839,847,848,849,850,855,899,932,963,983,1004,1040,1062,1082,1097,1109,1128,1134,1140,1146,1152],"ymouse":[532,532,532,532,531,529,528,525,521,520,519,516,515,503,493,474,455,438,426,425,424,423,420,380,350,324,308,296,272,256,239,221,200,162,147,132,115,64],"timestamp_mouse":[12,32,52,73,93,112,132,153,172,192,211,231,252,273,293,312,332,352,371,393,413,432,452,472,493,512,532,552,572,592,612,633,652,671,691,712,733,754],"xSR":741.5,"ySR":469.95,"xT1":424.9,"yT1":0,"xT2":1058.1,"yT2":0,"toosoon":0,"cond_shown":"randomdotsizeEA","ratio_trial":500,"smaller_num":"9","larger_num":"18","correct_side":2,"subjID":"amalianavarrete3","gender":"1","age":"9","school":"4"},{"start_time":1552328578548,"click_time":1552328579371,"finger_time":1552328578932,"fix_duration":1356.3157083214594,"trial":45,"RT":384,"MT":439,"sideResp":2,"stimulus":"img/500/equaldotanddens/R/12_Ratio_500_L_1_R_2.png","xmouse":[823,823,823,823,823,823,823,823,823,823,823,823,823,823,823,823,823,823,833,851,864,875,880,882,884,888,919,936,951,960,977,982,988,991,995,1001,1015,1028,1038,1049,1062,1128],"ymouse":[542,542,542,542,542,542,542,542,542,542,542,542,542,542,542,542,542,542,539,521,502,482,476,473,471,465,416,390,366,347,317,305,296,289,279,266,239,219,202,184,160,41],"timestamp_mouse":[13,31,43,64,82,104,124,142,164,182,202,224,244,263,284,303,322,344,363,384,403,422,443,462,483,503,523,544,564,584,604,623,644,662,683,702,723,743,763,783,803,823],"xSR":741.5,"ySR":469.95,"xT1":424.9,"yT1":0,"xT2":1058.1,"yT2":0,"toosoon":0,"cond_shown":"equaldotanddens","ratio_trial":500,"smaller_num":"1","larger_num":"2","correct_side":2,"subjID":"amalianavarrete3","gender":"1","age":"9","school":"4"},{"start_time":1552328585272,"click_time":1552328586051,"finger_time":1552328585691,"fix_duration":1340.1316296624382,"trial":46,"RT":419,"MT":360,"sideResp":2,"stimulus":"img/500/randomdotsizeEA/R/15_Ratio_500_L_1_R_2.png","xmouse":[781,781,781,781,781,781,781,781,781,781,781,781,781,781,781,780,781,785,790,818,840,863,892,926,994,1015,1026,1034,1043,1057,1065,1070,1074,1079,1080,1082,1086,1090,1095],"ymouse":[530,530,530,530,530,530,530,530,530,530,530,530,530,530,530,529,524,514,505,477,459,438,409,369,295,272,256,241,229,201,175,159,148,135,130,124,114,104,90],"timestamp_mouse":[18,38,59,80,98,119,138,158,179,198,219,240,260,279,298,318,340,360,379,400,419,440,460,480,498,519,538,558,580,599,620,640,660,680,699,719,740,760,779],"xSR":741.5,"ySR":469.95,"xT1":424.9,"yT1":0,"xT2":1058.1,"yT2":0,"toosoon":0,"cond_shown":"randomdotsizeEA","ratio_trial":500,"smaller_num":"1","larger_num":"2","correct_side":2,"subjID":"amalianavarrete3","gender":"1","age":"9","school":"4"},{"start_time":1552328588294,"click_time":1552328589090,"finger_time":1552328588690,"fix_duration":1482.8140806697527,"trial":47,"RT":396,"MT":400,"sideResp":2,"stimulus":"img/500/equaldotanddens/R/2_Ratio_500_L_3_R_6.png","xmouse":[837,837,837,837,837,837,837,837,837,837,837,837,837,837,837,837,837,837,838,842,851,861,873,896,912,922,933,941,951,961,967,976,1003,1015,1027,1039,1053,1065,1094,1102],"ymouse":[517,517,517,517,517,517,517,517,517,517,517,517,517,517,517,517,517,514,511,505,495,482,466,419,387,361,339,320,296,279,267,253,205,185,172,159,149,139,106,94],"timestamp_mouse":[21,37,57,76,97,117,137,158,176,198,217,236,257,278,297,317,337,358,378,396,417,438,457,477,497,518,537,556,576,597,618,637,658,676,697,718,737,757,777,796],"xSR":741.5,"ySR":469.95,"xT1":424.9,"yT1":0,"xT2":1058.1,"yT2":0,"toosoon":0,"cond_shown":"equaldotanddens","ratio_trial":500,"smaller_num":"3","larger_num":"6","correct_side":2,"subjID":"amalianavarrete3","gender":"1","age":"9","school":"4"},{"start_time":1552328591315,"click_time":1552328592211,"finger_time":1552328591711,"fix_duration":1163.9778383566513,"trial":48,"RT":396,"MT":500,"sideResp":1,"stimulus":"img/250/randomdotsizeEA/L/7_Ratio_250_L_8_R_2.png","xmouse":[784,784,784,784,784,784,784,784,784,784,784,784,784,784,784,784,784,796,811,825,831,835,833,827,812,788,759,661,631,609,590,579,577,577,577,579,583,589,589,589,588,568,548,526,503],"ymouse":[513,513,513,513,513,513,513,513,513,513,513,513,513,513,513,513,513,503,487,468,451,421,411,404,393,383,371,315,296,277,257,218,199,178,157,135,116,89,87,85,85,82,78,73,67],"timestamp_mouse":[17,37,56,77,95,115,136,157,176,196,215,236,257,276,295,316,336,356,377,396,416,437,455,476,496,517,536,556,575,595,616,637,655,676,697,715,736,756,776,795,816,837,855,875,896],"xSR":741.5,"ySR":469.95,"xT1":424.9,"yT1":0,"xT2":1058.1,"yT2":0,"toosoon":0,"cond_shown":"randomdotsizeEA","ratio_trial":250,"smaller_num":"2","larger_num":"8","correct_side":1,"subjID":"amalianavarrete3","gender":"1","age":"9","school":"4"},{"start_time":1552328593384,"click_time":1552328594351,"finger_time":1552328593912,"fix_duration":250,"trial":49,"RT":528,"MT":439,"sideResp":1,"stimulus":"img/750/equaldotanddens/R/15_Ratio_750_L_9_R_12.png","xmouse":[800,800,800,800,800,800,800,800,800,800,800,800,800,800,800,800,800,800,800,800,800,800,800,800,799,794,782,757,731,682,664,644,630,611,596,584,573,561,546,531,527,527,527,527,527,527,527,526,523],"ymouse":[530,530,530,530,530,530,530,530,530,530,530,530,530,530,530,530,530,530,530,530,530,530,530,530,516,479,431,379,336,273,259,247,240,227,219,212,206,197,188,176,173,169,163,137,112,97,86,75,67],"timestamp_mouse":[12,29,46,67,88,107,127,146,168,188,207,226,248,268,286,306,328,348,367,386,408,428,447,467,487,508,528,547,567,586,606,626,647,669,687,708,726,747,769,787,808,827,847,868,887,907,927,947,967],"xSR":741.5,"ySR":469.95,"xT1":424.9,"yT1":0,"xT2":1058.1,"yT2":0,"toosoon":0,"cond_shown":"equaldotanddens","ratio_trial":750,"smaller_num":"9","larger_num":"12","correct_side":2,"subjID":"amalianavarrete3","gender":"1","age":"9","school":"4"},{"start_time":1552328595595,"click_time":1552328598712,"finger_time":1552328598030,"fix_duration":341.7992556617446,"trial":50,"RT":2435,"MT":682,"sideResp":2,"stimulus":"img/900/equaldotanddens/R/7_Ratio_900_L_9_R_10.png","xmouse":[818,818,818,818,818,818,818,818,818,818,818,818,818,818,818,818,818,818,818,818,818,818,818,818,818,818,818,818,818,818,818,818,818,818,818,818,818,818,818,818,818,818,818,818,818,818,818,818,818,818,818,818,818,818,818,818,818,818,818,818,818,818,818,818,818,818,818,818,818,818,818,818,818,818,818,818,818,818,818,818,818,818,818,818,818,818,818,817,814,812,810,809,809,808,807,807,803,795,792,785,778,777,782,798,798,798,798,798,798,798,798,798,798,798,798,798,798,798,800,801,801,792,783,774,774,774,774,774,774,774,774,774,774,774,774,774,775,781,798,798,799,799,799,808,824,857,889,909,926,933,943,963,993,1034,1050,1060],"ymouse":[567,567,567,567,567,567,567,567,567,567,567,567,567,567,567,567,567,567,567,567,567,567,567,567,567,567,567,567,567,567,567,567,567,567,567,567,567,567,567,567,567,567,567,567,567,567,567,567,567,567,567,567,567,567,567,567,567,567,567,567,567,567,567,567,567,567,567,567,567,567,567,567,567,567,567,567,567,567,567,567,567,567,567,567,567,567,567,567,567,567,567,567,565,562,560,555,548,533,529,522,513,507,497,479,476,476,476,476,476,476,476,476,476,476,476,476,476,476,484,508,545,585,613,628,628,628,628,628,628,628,628,628,628,628,628,628,633,635,638,638,637,632,627,609,572,499,414,351,291,266,236,200,161,100,66,45],"timestamp_mouse":[16,35,56,75,96,116,137,155,175,196,217,236,255,277,297,316,335,356,377,397,416,436,455,477,496,517,535,556,576,597,616,636,655,676,696,716,737,756,775,795,817,837,856,877,897,917,937,957,975,996,1016,1036,1056,1077,1097,1116,1135,1156,1177,1197,1217,1236,1257,1276,1295,1317,1337,1357,1375,1396,1417,1437,1457,1476,1497,1517,1536,1556,1575,1596,1616,1636,1657,1677,1696,1716,1737,1757,1777,1795,1817,1836,1857,1877,1897,1917,1936,1957,1975,1996,2017,2036,2057,2075,2096,2117,2135,2156,2177,2196,2215,2237,2257,2276,2297,2316,2336,2356,2376,2397,2417,2435,2455,2476,2495,2516,2536,2557,2575,2595,2617,2636,2657,2676,2695,2715,2735,2755,2777,2797,2817,2835,2856,2875,2897,2917,2936,2956,2976,2995,3015,3035,3055,3075,3096,3117],"xSR":741.5,"ySR":469.95,"xT1":424.9,"yT1":0,"xT2":1058.1,"yT2":0,"toosoon":0,"cond_shown":"equaldotanddens","ratio_trial":900,"smaller_num":"9","larger_num":"10","correct_side":2,"subjID":"amalianavarrete3","gender":"1","age":"9","school":"4"},{"start_time":1552328600363,"click_time":1552328601191,"finger_time":1552328600872,"fix_duration":390.17084154752246,"trial":51,"RT":509,"MT":319,"sideResp":1,"stimulus":"img/500/randomdotsizeEA/L/11_Ratio_500_L_12_R_6.png","xmouse":[775,775,775,775,775,775,775,775,775,775,775,775,775,775,776,777,778,778,778,778,778,778,778,778,779,774,761,742,715,659,659,659,659,659,659,659,659,659,659,659,659,466],"ymouse":[484,484,484,484,484,484,484,484,484,484,484,484,484,484,484,484,484,484,484,484,484,484,484,484,484,456,406,320,217,31,31,31,31,31,31,31,31,31,31,31,31,2],"timestamp_mouse":[12,33,47,68,89,109,127,149,168,188,209,228,249,267,288,308,328,348,367,389,408,428,447,468,489,509,527,547,567,588,610,629,649,669,688,708,728,747,768,787,808,827],"xSR":741.5,"ySR":469.95,"xT1":424.9,"yT1":0,"xT2":1058.1,"yT2":0,"toosoon":0,"cond_shown":"randomdotsizeEA","ratio_trial":500,"smaller_num":"6","larger_num":"12","correct_side":1,"subjID":"amalianavarrete3","gender":"1","age":"9","school":"4"},{"start_time":1552328602892,"click_time":1552328603471,"finger_time":1552328603230,"fix_duration":478.1139781842877,"trial":52,"RT":338,"MT":241,"sideResp":1,"stimulus":"img/900/equaldotanddens/L/8_Ratio_900_L_20_R_18.png","xmouse":[783,783,783,783,783,783,784,784,784,784,784,785,785,785,787,787,787,787,769,720,699,684,669,645,632,618,596,572,546,507],"ymouse":[560,560,560,559,559,558,558,558,558,556,556,555,553,551,531,509,471,422,354,280,258,246,237,219,204,184,150,107,62,7],"timestamp_mouse":[1,18,41,58,79,99,120,138,160,179,201,218,238,259,279,300,319,338,358,378,398,418,438,459,478,499,518,538,559,579],"xSR":741.5,"ySR":469.95,"xT1":424.9,"yT1":0,"xT2":1058.1,"yT2":0,"toosoon":0,"cond_shown":"equaldotanddens","ratio_trial":900,"smaller_num":"18","larger_num":"20","correct_side":1,"subjID":"amalianavarrete3","gender":"1","age":"9","school":"4"},{"start_time":1552328605584,"click_time":1552328606571,"finger_time":1552328606152,"fix_duration":1130.1900436583799,"trial":53,"RT":568,"MT":419,"sideResp":2,"stimulus":"img/900/randomdotsizeEA/R/15_Ratio_900_L_9_R_10.png","xmouse":[797,797,797,797,797,797,797,797,797,797,797,797,797,797,797,797,797,797,797,797,797,797,800,801,812,817,825,833,853,870,893,924,965,1021,1179,1229,1261,1279,1295,1299,1299,1299,1299,1299,1299,1299,1299,1299,1187,1158],"ymouse":[530,530,530,530,530,530,530,530,530,530,530,530,530,530,530,530,530,530,530,530,530,530,528,527,516,508,497,485,457,432,401,362,314,247,94,56,37,25,9,1,1,1,1,1,1,1,1,1,10,14],"timestamp_mouse":[12,27,47,67,86,107,128,148,166,186,208,226,247,268,286,307,327,347,367,387,408,428,446,466,488,507,528,547,568,587,607,628,647,667,687,707,727,748,768,786,806,827,847,866,887,906,927,947,967,986],"xSR":741.5,"ySR":469.95,"xT1":424.9,"yT1":0,"xT2":1058.1,"yT2":0,"toosoon":0,"cond_shown":"randomdotsizeEA","ratio_trial":900,"smaller_num":"9","larger_num":"10","correct_side":2,"subjID":"amalianavarrete3","gender":"1","age":"9","school":"4"},{"start_time":1552328609053,"click_time":1552328610271,"finger_time":1552328609712,"fix_duration":1480.3800754235428,"trial":54,"RT":659,"MT":559,"sideResp":1,"stimulus":"img/900/randomdotsizeEA/L/1_Ratio_900_L_10_R_9.png","xmouse":[801,801,801,801,801,801,801,801,801,801,801,801,801,801,801,801,801,801,801,801,801,801,801,801,801,801,801,801,801,801,794,785,771,756,741,724,722,722,721,721,713,703,686,661,627,553,525,505,492,486,486,486,486,486,486,486,486,485,484,479,467],"ymouse":[529,529,529,529,529,529,529,529,529,529,529,529,529,529,529,529,529,529,529,529,529,529,529,529,529,529,529,529,529,529,509,473,433,401,378,351,345,343,340,337,320,305,286,260,228,165,142,129,119,116,116,116,116,116,116,116,116,114,112,104,87],"timestamp_mouse":[18,37,57,77,98,119,137,157,179,198,219,238,259,277,298,318,338,358,378,399,418,438,457,477,499,518,538,558,578,597,619,638,659,678,698,718,738,758,777,797,818,839,858,879,898,918,937,957,977,999,1017,1037,1058,1079,1098,1119,1138,1158,1178,1198,1218],"xSR":741.5,"ySR":469.95,"xT1":424.9,"yT1":0,"xT2":1058.1,"yT2":0,"toosoon":0,"cond_shown":"randomdotsizeEA","ratio_trial":900,"smaller_num":"9","larger_num":"10","correct_side":1,"subjID":"amalianavarrete3","gender":"1","age":"9","school":"4"},{"start_time":1552328612046,"click_time":1552328612871,"finger_time":1552328612531,"fix_duration":873.2941141175011,"trial":55,"RT":485,"MT":340,"sideResp":2,"stimulus":"img/750/equaldotsize/R/12_Ratio_750_L_3_R_4.png","xmouse":[815,815,815,815,815,815,815,815,815,815,815,815,815,815,815,815,815,815,815,815,815,815,822,841,864,914,943,975,1007,1036,1059,1085,1096,1101,1104,1105,1107,1107,1107,1110,1113,1118],"ymouse":[505,505,505,505,505,505,505,505,505,505,505,505,505,505,505,505,505,505,505,505,505,505,505,505,502,477,454,428,393,354,316,267,243,225,209,194,165,152,140,128,114,84],"timestamp_mouse":[11,33,46,66,84,105,126,145,164,185,205,226,244,265,285,304,325,344,365,385,405,426,446,465,485,506,525,546,565,585,604,624,645,666,685,705,725,745,764,785,805,824],"xSR":741.5,"ySR":469.95,"xT1":424.9,"yT1":0,"xT2":1058.1,"yT2":0,"toosoon":0,"cond_shown":"equaldotsize","ratio_trial":750,"smaller_num":"3","larger_num":"4","correct_side":2,"subjID":"amalianavarrete3","gender":"1","age":"9","school":"4"},{"start_time":1552328614359,"click_time":1552328615251,"finger_time":1552328614872,"fix_duration":786.7857701503733,"trial":56,"RT":513,"MT":379,"sideResp":2,"stimulus":"img/250/randomdotsizeEA/R/4_Ratio_250_L_3_R_12.png","xmouse":[803,803,803,803,803,803,803,803,803,803,803,803,803,803,803,802,803,803,803,803,803,803,803,805,819,838,862,892,921,949,983,994,1000,1004,1004,1005,1005,1005,1005,1007,1012,1022,1032,1049,1062],"ymouse":[543,543,543,543,543,543,543,543,543,543,543,543,543,543,543,539,534,528,522,519,517,515,512,507,484,451,409,356,293,234,155,132,115,104,99,99,99,99,99,98,97,93,90,85,81],"timestamp_mouse":[13,37,51,72,93,112,132,153,173,192,212,233,253,271,293,311,332,351,373,391,411,432,452,472,493,513,531,551,572,591,611,632,651,671,692,712,733,752,772,794,811,832,853,873,892],"xSR":741.5,"ySR":469.95,"xT1":424.9,"yT1":0,"xT2":1058.1,"yT2":0,"toosoon":0,"cond_shown":"randomdotsizeEA","ratio_trial":250,"smaller_num":"3","larger_num":"12","correct_side":2,"subjID":"amalianavarrete3","gender":"1","age":"9","school":"4"},{"start_time":1552328616889,"click_time":1552328617553,"finger_time":1552328617430,"fix_duration":776.4883505535436,"trial":57,"RT":541,"MT":123,"sideResp":2,"stimulus":"img/250/randomdotsizeEA/R/6_Ratio_250_L_6_R_24.png","xmouse":[766,766,766,766,766,766,766,766,766,766,766,766,766,766,766,766,766,766,766,770,772,774,776,781,788,795,806,820,839,899,970,1015,1056,1107],"ymouse":[528,528,528,528,528,528,528,528,528,528,528,528,528,528,528,528,528,528,525,519,517,515,512,504,496,485,473,454,430,358,272,216,163,82],"timestamp_mouse":[21,22,43,63,83,101,122,143,161,182,202,222,241,263,282,301,323,342,361,381,403,423,442,463,481,502,523,541,561,582,603,622,642,663],"xSR":741.5,"ySR":469.95,"xT1":424.9,"yT1":0,"xT2":1058.1,"yT2":0,"toosoon":0,"cond_shown":"randomdotsizeEA","ratio_trial":250,"smaller_num":"6","larger_num":"24","correct_side":2,"subjID":"amalianavarrete3","gender":"1","age":"9","school":"4"},{"start_time":1552328618723,"click_time":1552328619291,"finger_time":1552328619090,"fix_duration":250,"trial":58,"RT":367,"MT":201,"sideResp":2,"stimulus":"img/900/equaldotsize/L/1_Ratio_900_L_10_R_9.png","xmouse":[818,818,818,818,818,818,818,818,818,818,818,818,818,818,818,818,822,837,856,870,887,925,955,993,1032,1067,1095,1121,1128],"ymouse":[512,512,512,512,512,512,512,512,512,512,512,512,512,512,512,512,513,511,507,500,489,444,400,343,272,211,165,112,89],"timestamp_mouse":[10,29,48,68,87,108,129,149,167,188,209,227,247,269,287,307,329,347,367,388,408,429,448,467,488,508,528,548,568],"xSR":741.5,"ySR":469.95,"xT1":424.9,"yT1":0,"xT2":1058.1,"yT2":0,"toosoon":0,"cond_shown":"equaldotsize","ratio_trial":900,"smaller_num":"9","larger_num":"10","correct_side":1,"subjID":"amalianavarrete3","gender":"1","age":"9","school":"4"},{"start_time":1552328621033,"click_time":1552328621871,"finger_time":1552328621491,"fix_duration":960.6592683660714,"trial":59,"RT":458,"MT":380,"sideResp":1,"stimulus":"img/500/randomdotsizeEA/R/1_Ratio_500_L_9_R_18.png","xmouse":[761,761,761,761,761,761,761,761,761,761,761,761,761,761,761,761,761,761,762,762,762,756,741,725,708,657,628,598,570,547,518,501,494,486,483,480,476,475,474,474,474,473],"ymouse":[518,518,518,518,518,518,518,518,518,518,518,518,518,518,518,518,518,518,515,513,509,496,478,460,438,380,341,301,269,242,210,191,181,172,167,163,153,149,142,133,119,93],"timestamp_mouse":[18,38,58,79,98,117,137,159,178,198,218,238,259,279,298,318,338,357,378,399,418,438,458,478,499,519,538,559,579,598,620,638,659,677,698,718,738,759,778,799,818,838],"xSR":741.5,"ySR":469.95,"xT1":424.9,"yT1":0,"xT2":1058.1,"yT2":0,"toosoon":0,"cond_shown":"randomdotsizeEA","ratio_trial":500,"smaller_num":"9","larger_num":"18","correct_side":2,"subjID":"amalianavarrete3","gender":"1","age":"9","school":"4"},{"start_time":1552328623917,"click_time":1552328624953,"finger_time":1552328624471,"fix_duration":1083.7684071449269,"trial":60,"RT":554,"MT":482,"sideResp":2,"stimulus":"img/750/equaldotsize/R/12_Ratio_750_L_3_R_4.png","xmouse":[802,802,802,802,802,802,802,802,802,802,802,802,802,802,802,802,802,802,802,802,802,802,802,802,802,804,808,828,843,862,882,905,958,977,991,999,1005,1009,1010,1010,1011,1011,1014,1016,1018,1022,1029,1057,1072,1088,1101,1132],"ymouse":[492,492,492,492,492,492,492,492,492,492,492,492,492,492,492,492,492,492,492,492,492,492,492,492,492,492,492,468,449,425,398,365,294,273,256,243,233,220,214,212,209,205,190,182,176,170,161,136,127,115,105,77],"timestamp_mouse":[15,35,54,73,94,115,133,155,175,194,213,233,255,273,294,314,333,353,375,395,415,434,454,474,495,515,533,554,575,593,614,634,653,675,693,714,734,753,773,794,814,834,853,874,894,913,933,955,974,994,1015,1035],"xSR":741.5,"ySR":469.95,"xT1":424.9,"yT1":0,"xT2":1058.1,"yT2":0,"toosoon":0,"cond_shown":"equaldotsize","ratio_trial":750,"smaller_num":"3","larger_num":"4","correct_side":2,"subjID":"amalianavarrete3","gender":"1","age":"9","school":"4"},{"start_time":1552328625925,"click_time":1552328626571,"finger_time":1552328626471,"fix_duration":250,"trial":61,"RT":546,"MT":100,"sideResp":1,"stimulus":"img/250/equaldotsize/L/14_Ratio_250_L_12_R_3.png","xmouse":[793,793,793,793,793,793,793,793,793,793,793,793,793,793,793,793,793,793,793,793,793,793,793,793,788,780,754,718,684,645,596,556,515],"ymouse":[568,568,568,568,568,568,568,568,568,568,568,568,568,568,568,568,568,568,568,568,568,568,565,556,543,527,478,395,312,221,133,63,1],"timestamp_mouse":[5,32,46,67,87,105,127,147,167,187,206,226,245,267,287,306,326,345,367,386,405,426,446,466,486,507,527,546,566,586,607,628,646],"xSR":741.5,"ySR":469.95,"xT1":424.9,"yT1":0,"xT2":1058.1,"yT2":0,"toosoon":0,"cond_shown":"equaldotsize","ratio_trial":250,"smaller_num":"3","larger_num":"12","correct_side":1,"subjID":"amalianavarrete3","gender":"1","age":"9","school":"4"},{"start_time":1552328628835,"click_time":1552328629791,"finger_time":1552328629412,"fix_duration":1342.1057361240375,"trial":62,"RT":577,"MT":379,"sideResp":1,"stimulus":"img/900/equaldotsize/L/10_Ratio_900_L_20_R_18.png","xmouse":[803,803,803,803,803,803,803,803,803,803,803,803,803,803,803,803,803,803,803,803,803,804,806,806,806,806,799,790,774,753,726,648,616,590,577,561,544,539,536,534,533,533,533,533,532,532,527,522],"ymouse":[524,524,524,524,524,524,524,524,524,524,524,524,524,524,524,524,524,524,524,524,524,520,515,508,503,497,486,478,468,455,434,351,313,277,249,209,125,89,69,59,57,56,56,56,55,55,54,54],"timestamp_mouse":[16,35,56,77,96,115,137,156,176,196,217,236,257,276,296,316,335,357,377,396,415,437,457,476,497,516,536,556,577,597,616,635,655,676,696,716,737,756,777,797,816,835,855,877,896,916,936,956],"xSR":741.5,"ySR":469.95,"xT1":424.9,"yT1":0,"xT2":1058.1,"yT2":0,"toosoon":0,"cond_shown":"equaldotsize","ratio_trial":900,"smaller_num":"18","larger_num":"20","correct_side":1,"subjID":"amalianavarrete3","gender":"1","age":"9","school":"4"},{"start_time":1552328637110,"click_time":1552328638053,"finger_time":1552328637531,"fix_duration":1037.6642323693206,"trial":63,"RT":421,"MT":522,"sideResp":2,"stimulus":"img/500/equaldotsize/R/15_Ratio_500_L_1_R_2.png","xmouse":[787,787,787,787,787,787,787,787,787,787,787,787,787,787,787,787,786,784,777,769,759,747,735,715,707,703,700,697,697,704,719,740,844,931,1012,1070,1095,1107,1109,1108,1107,1106,1104,1100,1097,1094,1089,1083],"ymouse":[529,529,529,529,529,529,529,529,529,529,529,529,529,529,529,529,527,519,504,493,479,463,450,424,415,409,404,394,385,376,367,354,290,247,216,196,186,179,174,171,169,164,158,142,131,119,103,79],"timestamp_mouse":[11,20,41,61,81,102,121,141,160,181,201,222,242,261,282,300,322,342,362,382,401,421,440,462,482,502,522,542,561,582,601,622,642,660,682,700,722,741,761,780,801,821,841,862,881,901,920,942],"xSR":741.5,"ySR":469.95,"xT1":424.9,"yT1":0,"xT2":1058.1,"yT2":0,"toosoon":0,"cond_shown":"equaldotsize","ratio_trial":500,"smaller_num":"1","larger_num":"2","correct_side":2,"subjID":"amalianavarrete3","gender":"1","age":"9","school":"4"},{"start_time":1552328648160,"click_time":1552328649231,"finger_time":1552328648792,"fix_duration":1286.295159158111,"trial":64,"RT":632,"MT":439,"sideResp":2,"stimulus":"img/750/equaldotsize/R/2_Ratio_750_L_6_R_8.png","xmouse":[815,815,815,815,815,815,815,815,815,815,815,815,815,815,815,815,815,815,815,815,815,815,815,815,815,815,815,815,815,815,822,828,838,846,854,874,885,892,897,910,920,931,948,967,993,1050,1072,1091,1107,1120,1138,1142,1144,1147],"ymouse":[497,497,497,497,497,497,497,497,497,497,497,497,497,497,497,497,497,497,497,497,497,497,497,497,497,497,497,496,495,490,475,458,435,412,377,314,292,276,264,241,230,217,203,190,176,153,144,135,127,120,109,106,102,99],"timestamp_mouse":[13,36,51,71,92,112,131,150,172,191,212,231,252,271,290,311,331,352,370,391,412,431,451,472,491,510,532,551,572,591,611,632,652,672,690,710,731,751,772,792,811,831,850,870,891,911,931,951,972,991,1011,1031,1052,1071],"xSR":741.5,"ySR":469.95,"xT1":424.9,"yT1":0,"xT2":1058.1,"yT2":0,"toosoon":0,"cond_shown":"equaldotsize","ratio_trial":750,"smaller_num":"6","larger_num":"8","correct_side":2,"subjID":"amalianavarrete3","gender":"1","age":"9","school":"4"},{"start_time":1552328650387,"click_time":1552328651353,"finger_time":1552328650991,"fix_duration":352.59872753925634,"trial":65,"RT":604,"MT":362,"sideResp":2,"stimulus":"img/250/equaldotsize/R/13_Ratio_250_L_2_R_8.png","xmouse":[828,828,828,828,828,828,828,828,828,828,828,828,828,828,828,828,828,828,828,828,828,828,828,828,828,828,828,828,828,837,859,902,940,987,997,999,1000,1000,1000,1000,1000,1000,1000,1001,1014,1025,1039,1051,1076],"ymouse":[490,490,490,490,490,490,490,490,490,490,490,490,490,490,490,490,490,490,490,490,490,490,490,490,490,490,490,490,489,470,432,369,303,211,191,178,177,177,177,177,177,177,177,176,165,154,136,119,86],"timestamp_mouse":[14,33,45,65,83,105,124,145,164,183,205,224,245,264,285,305,323,344,364,383,405,424,444,464,483,503,525,545,564,585,604,625,645,666,683,704,724,745,764,784,805,824,844,865,884,904,924,945,966],"xSR":741.5,"ySR":469.95,"xT1":424.9,"yT1":0,"xT2":1058.1,"yT2":0,"toosoon":0,"cond_shown":"equaldotsize","ratio_trial":250,"smaller_num":"2","larger_num":"8","correct_side":2,"subjID":"amalianavarrete3","gender":"1","age":"9","school":"4"},{"start_time":1552328653387,"click_time":1552328654772,"finger_time":1552328653931,"fix_duration":1313.9020853615193,"trial":66,"RT":544,"MT":841,"sideResp":2,"stimulus":"img/750/equaldotsize/R/7_Ratio_750_L_3_R_4.png","xmouse":[793,793,793,793,793,793,793,793,793,793,793,793,793,793,793,793,793,796,798,801,801,804,807,809,813,814,814,814,814,801,785,757,726,675,646,631,622,616,611,611,610,608,604,598,588,587,587,592,621,649,686,724,754,776,811,825,841,860,909,933,960,985,1007,1028,1052,1057,1060,1062,1063,1068],"ymouse":[534,534,534,534,534,534,534,534,534,534,534,534,534,534,534,534,534,529,525,516,512,505,497,493,482,477,470,460,448,412,389,357,322,248,195,167,146,133,121,119,117,114,112,110,107,107,115,127,141,144,144,144,143,137,128,126,122,121,117,117,117,117,116,113,107,105,104,103,101,98],"timestamp_mouse":[9,25,44,65,85,105,125,144,165,185,205,224,244,263,283,304,324,344,364,384,405,425,444,463,483,505,524,544,564,583,605,624,645,665,684,704,725,744,765,784,804,824,845,864,885,904,925,944,965,984,1004,1023,1045,1064,1084,1104,1124,1145,1165,1184,1204,1224,1244,1264,1283,1304,1324,1345,1364,1384],"xSR":741.5,"ySR":469.95,"xT1":424.9,"yT1":0,"xT2":1058.1,"yT2":0,"toosoon":0,"cond_shown":"equaldotsize","ratio_trial":750,"smaller_num":"3","larger_num":"4","correct_side":2,"subjID":"amalianavarrete3","gender":"1","age":"9","school":"4"},{"start_time":1552328656379,"click_time":1552328657270,"finger_time":1552328657052,"fix_duration":705.9423283812703,"trial":67,"RT":673,"MT":218,"sideResp":2,"stimulus":"img/500/equaldotanddens/R/12_Ratio_500_L_1_R_2.png","xmouse":[771,771,771,771,771,771,771,771,771,771,771,771,771,771,771,771,771,771,771,771,771,771,771,771,771,771,771,771,771,771,781,787,804,855,889,958,999,1026,1044,1069,1073,1077,1079,1081,1088],"ymouse":[501,501,501,501,501,501,501,501,501,501,501,501,501,501,501,501,501,501,501,501,501,501,501,501,501,501,501,501,501,501,493,489,475,433,397,299,248,214,189,147,132,121,112,106,85],"timestamp_mouse":[19,33,52,71,93,112,133,152,171,193,213,231,252,273,293,311,332,353,372,392,413,433,452,472,493,512,533,552,571,592,612,632,653,673,692,712,732,752,773,793,812,833,852,872,891],"xSR":741.5,"ySR":469.95,"xT1":424.9,"yT1":0,"xT2":1058.1,"yT2":0,"toosoon":0,"cond_shown":"equaldotanddens","ratio_trial":500,"smaller_num":"1","larger_num":"2","correct_side":2,"subjID":"amalianavarrete3","gender":"1","age":"9","school":"4"},{"start_time":1552328659013,"click_time":1552328660170,"finger_time":1552328659552,"fix_duration":1060.7807952659534,"trial":68,"RT":539,"MT":618,"sideResp":1,"stimulus":"img/250/equaldotsize/L/1_Ratio_250_L_8_R_2.png","xmouse":[821,821,821,821,821,821,821,821,821,821,821,821,821,821,821,821,821,821,821,821,821,821,817,809,794,780,757,751,745,742,741,741,739,736,725,707,685,642,616,587,555,533,495,486,482,480,479,476,475,474,474,473,472,472,472,472,472,469],"ymouse":[544,544,544,544,544,544,544,544,544,544,544,544,544,544,544,544,544,544,544,544,544,544,542,528,505,478,406,379,360,345,334,325,317,316,314,311,304,282,266,250,233,217,189,180,173,168,164,156,151,148,144,139,127,121,115,108,102,86],"timestamp_mouse":[18,43,58,77,99,117,137,159,178,199,219,238,257,278,299,318,339,357,378,399,418,439,459,479,499,518,539,557,578,599,618,638,658,678,699,718,738,758,778,799,817,839,857,878,898,918,938,958,978,998,1018,1038,1058,1079,1098,1119,1138,1157],"xSR":741.5,"ySR":469.95,"xT1":424.9,"yT1":0,"xT2":1058.1,"yT2":0,"toosoon":0,"cond_shown":"equaldotsize","ratio_trial":250,"smaller_num":"2","larger_num":"8","correct_side":1,"subjID":"amalianavarrete3","gender":"1","age":"9","school":"4"},{"start_time":1552328668693,"click_time":1552328669651,"finger_time":1552328669311,"fix_duration":561.1536638864607,"trial":69,"RT":618,"MT":340,"sideResp":1,"stimulus":"img/750/equaldotanddens/L/8_Ratio_750_L_4_R_3.png","xmouse":[819,819,819,819,819,819,819,819,819,819,819,819,819,819,819,819,819,819,819,819,819,819,819,819,818,818,817,809,787,757,711,666,623,583,575,575,575,577,580,581,582,582,582,574,565,554,536,514],"ymouse":[538,538,537,537,537,537,537,537,537,537,537,537,537,537,537,537,537,537,537,537,537,537,537,537,537,537,537,534,521,508,488,461,425,340,305,286,272,262,253,250,246,237,220,171,137,98,62,37],"timestamp_mouse":[29,38,59,78,97,118,137,159,179,198,217,237,259,279,299,318,338,357,377,398,419,439,458,478,498,519,537,559,578,599,618,638,658,677,699,719,739,758,778,798,818,838,859,877,898,917,938,958],"xSR":741.5,"ySR":469.95,"xT1":424.9,"yT1":0,"xT2":1058.1,"yT2":0,"toosoon":0,"cond_shown":"equaldotanddens","ratio_trial":750,"smaller_num":"3","larger_num":"4","correct_side":1,"subjID":"amalianavarrete3","gender":"1","age":"9","school":"4"},{"start_time":1552328672064,"click_time":1552328672931,"finger_time":1552328672611,"fix_duration":1390.4086768608793,"trial":70,"RT":547,"MT":320,"sideResp":1,"stimulus":"img/900/equaldotanddens/L/2_Ratio_900_L_20_R_18.png","xmouse":[822,822,822,822,822,822,822,822,822,822,822,822,822,822,822,822,822,822,822,822,822,822,822,822,822,822,818,806,783,735,702,688,682,680,680,678,676,672,666,627,580,557,539,522],"ymouse":[495,495,495,495,495,495,495,495,495,495,495,495,495,495,495,495,495,495,495,495,495,495,495,495,495,492,478,444,388,265,200,178,172,170,170,170,170,169,168,144,114,97,82,67],"timestamp_mouse":[13,33,47,67,87,108,126,147,166,188,208,228,248,267,288,307,327,347,367,386,407,426,448,466,486,508,528,547,567,589,606,627,647,668,688,707,728,747,767,788,807,827,847,867],"xSR":741.5,"ySR":469.95,"xT1":424.9,"yT1":0,"xT2":1058.1,"yT2":0,"toosoon":0,"cond_shown":"equaldotanddens","ratio_trial":900,"smaller_num":"18","larger_num":"20","correct_side":1,"subjID":"amalianavarrete3","gender":"1","age":"9","school":"4"},{"start_time":1552328682762,"click_time":1552328683852,"finger_time":1552328683232,"fix_duration":529.6728351976058,"trial":71,"RT":470,"MT":620,"sideResp":1,"stimulus":"img/500/equaldotanddens/L/5_Ratio_500_L_4_R_2.png","xmouse":[760,760,760,760,760,760,760,760,760,760,760,760,760,760,760,760,760,760,760,760,760,754,750,730,625,514,434,355,288,246,230,230,230,230,230,230,230,230,230,230,230,230,230,230,230,409,409,409,409,409,409,413,416,421,432],"ymouse":[511,511,511,511,511,511,511,511,511,511,511,511,511,511,511,511,511,511,511,511,511,511,509,500,432,342,262,168,88,30,5,5,5,5,5,5,5,5,5,5,5,5,5,5,5,1,1,1,1,1,8,16,20,25,29],"timestamp_mouse":[13,34,48,70,89,109,128,149,168,190,209,229,250,268,290,309,330,348,369,390,408,429,449,470,491,509,529,549,570,588,608,629,648,668,690,710,730,750,770,789,810,830,849,869,889,909,929,948,969,990,1008,1030,1049,1069,1090],"xSR":741.5,"ySR":469.95,"xT1":424.9,"yT1":0,"xT2":1058.1,"yT2":0,"toosoon":0,"cond_shown":"equaldotanddens","ratio_trial":500,"smaller_num":"2","larger_num":"4","correct_side":1,"subjID":"amalianavarrete3","gender":"1","age":"9","school":"4"},{"start_time":1552328685319,"click_time":1552328686331,"finger_time":1552328685812,"fix_duration":285.0611745966636,"trial":72,"RT":493,"MT":519,"sideResp":2,"stimulus":"img/250/equaldotanddens/R/10_Ratio_250_L_4_R_16.png","xmouse":[804,804,804,803,803,803,803,803,803,803,803,803,803,803,803,803,803,803,803,803,803,803,803,805,814,829,876,895,913,921,930,942,949,956,965,976,988,1023,1031,1036,1038,1041,1043,1045,1051,1056,1066,1074,1078,1081,1085],"ymouse":[470,470,472,474,476,476,476,476,476,476,476,476,476,476,476,476,476,476,476,476,476,476,475,471,460,449,415,401,388,380,370,349,336,321,301,275,248,189,178,170,168,162,159,154,145,136,122,112,107,102,97],"timestamp_mouse":[13,31,52,72,92,111,133,152,173,192,213,232,252,272,293,312,333,352,371,392,411,433,453,473,493,512,533,552,572,592,613,633,652,673,693,712,732,752,772,793,812,833,851,872,892,912,934,952,973,992,1012],"xSR":741.5,"ySR":469.95,"xT1":424.9,"yT1":0,"xT2":1058.1,"yT2":0,"toosoon":0,"cond_shown":"equaldotanddens","ratio_trial":250,"smaller_num":"4","larger_num":"16","correct_side":2,"subjID":"amalianavarrete3","gender":"1","age":"9","school":"4"},{"start_time":1552328702803,"click_time":1552328703871,"finger_time":1552328703552,"fix_duration":1131.1436593267742,"trial":73,"RT":749,"MT":319,"sideResp":2,"stimulus":"img/500/randomdotsizeEA/R/6_Ratio_500_L_9_R_18.png","xmouse":[782,782,782,782,782,782,782,782,782,782,782,782,782,782,782,782,782,782,782,782,782,782,782,782,782,782,782,782,782,782,782,782,782,782,782,780,763,720,701,684,669,663,662,688,707,731,761,794,888,927,967,1015,1058,1111],"ymouse":[540,540,540,540,540,540,540,540,540,540,540,540,540,540,540,540,540,540,540,540,540,540,540,540,540,540,540,540,540,540,540,540,540,540,540,540,537,511,493,473,449,428,409,362,344,327,308,292,253,233,210,172,133,85],"timestamp_mouse":[10,35,49,69,88,109,128,148,168,187,207,229,249,268,289,308,329,349,369,388,409,429,449,468,488,509,529,547,569,589,609,628,648,668,689,709,728,749,768,788,809,829,848,868,888,908,928,948,968,989,1008,1028,1049,1068],"xSR":741.5,"ySR":469.95,"xT1":424.9,"yT1":0,"xT2":1058.1,"yT2":0,"toosoon":0,"cond_shown":"randomdotsizeEA","ratio_trial":500,"smaller_num":"9","larger_num":"18","correct_side":2,"subjID":"amalianavarrete3","gender":"1","age":"9","school":"4"},{"start_time":1552328706075,"click_time":1552328706910,"finger_time":1552328706672,"fix_duration":1163.9274206223038,"trial":74,"RT":597,"MT":238,"sideResp":1,"stimulus":"img/250/equaldotsize/L/14_Ratio_250_L_12_R_3.png","xmouse":[794,794,794,794,794,794,794,794,794,794,794,794,794,794,794,794,794,794,794,794,794,794,794,794,794,794,785,778,756,664,620,586,562,542,539,539,539,539,539,528,519,506],"ymouse":[526,526,526,526,526,526,526,526,526,526,526,526,526,526,526,526,526,526,526,526,526,526,526,526,526,526,514,508,487,386,335,290,252,213,200,195,192,186,177,139,116,89],"timestamp_mouse":[16,37,56,77,95,115,137,157,175,197,216,235,257,276,296,316,337,356,376,397,417,436,456,476,497,515,536,557,577,597,615,636,657,677,695,717,737,757,777,796,816,835],"xSR":741.5,"ySR":469.95,"xT1":424.9,"yT1":0,"xT2":1058.1,"yT2":0,"toosoon":0,"cond_shown":"equaldotsize","ratio_trial":250,"smaller_num":"3","larger_num":"12","correct_side":1,"subjID":"amalianavarrete3","gender":"1","age":"9","school":"4"},{"start_time":1552328707885,"click_time":1552328708733,"finger_time":1552328708392,"fix_duration":250,"trial":75,"RT":507,"MT":341,"sideResp":1,"stimulus":"img/250/equaldotanddens/L/3_Ratio_250_L_8_R_2.png","xmouse":[806,806,806,806,806,806,806,806,806,806,806,806,806,806,806,806,806,806,806,806,806,806,806,794,757,719,672,617,574,501,494,491,491,491,491,491,492,492,493,495,500,502,502],"ymouse":[511,511,511,511,511,511,511,511,511,511,511,511,511,511,511,511,511,511,511,511,511,511,511,505,484,459,427,387,349,272,251,239,232,228,227,226,224,221,217,209,188,153,99],"timestamp_mouse":[8,27,46,65,86,107,127,147,165,186,205,227,246,266,287,307,327,347,367,387,407,427,446,467,486,507,526,546,566,586,608,628,647,669,686,707,727,747,769,786,807,827,848],"xSR":741.5,"ySR":469.95,"xT1":424.9,"yT1":0,"xT2":1058.1,"yT2":0,"toosoon":0,"cond_shown":"equaldotanddens","ratio_trial":250,"smaller_num":"2","larger_num":"8","correct_side":1,"subjID":"amalianavarrete3","gender":"1","age":"9","school":"4"},{"start_time":1552328710976,"click_time":1552328712032,"finger_time":1552328711633,"fix_duration":1402.9196341997913,"trial":76,"RT":657,"MT":399,"sideResp":2,"stimulus":"img/500/randomdotsizeEA/R/9_Ratio_500_L_2_R_4.png","xmouse":[784,784,784,784,784,784,784,784,784,784,784,784,784,784,784,784,784,784,784,784,784,784,784,784,784,784,784,784,789,793,799,806,815,829,871,934,969,987,1002,1004,1005,1006,1008,1010,1018,1022,1025,1031,1036,1044,1049,1055,1059],"ymouse":[525,525,525,525,525,525,525,525,525,525,525,525,525,525,525,525,525,525,525,525,525,525,525,525,525,525,525,522,513,504,496,483,463,442,365,253,192,162,141,137,132,127,122,118,101,95,90,84,77,65,60,54,51],"timestamp_mouse":[16,38,56,77,97,116,135,157,177,197,217,237,255,275,296,317,336,356,377,395,416,437,456,475,497,516,536,555,577,596,616,635,657,675,695,715,737,756,778,796,815,836,856,876,895,915,936,955,975,995,1015,1036,1056],"xSR":741.5,"ySR":469.95,"xT1":424.9,"yT1":0,"xT2":1058.1,"yT2":0,"toosoon":0,"cond_shown":"randomdotsizeEA","ratio_trial":500,"smaller_num":"2","larger_num":"4","correct_side":2,"subjID":"amalianavarrete3","gender":"1","age":"9","school":"4"},{"start_time":1552328713552,"click_time":1552328714671,"finger_time":1552328714173,"fix_duration":679.8306490984988,"trial":77,"RT":621,"MT":498,"sideResp":1,"stimulus":"img/900/randomdotsizeEA/L/10_Ratio_900_L_20_R_18.png","xmouse":[820,820,820,820,820,820,820,820,820,820,820,820,820,820,820,820,820,820,820,820,820,820,820,820,820,820,820,820,818,814,783,763,742,718,697,675,664,657,649,639,629,608,596,578,552,509,497,495,495,494,494,494,495,496,498,506,512],"ymouse":[503,503,503,503,503,503,503,503,503,503,503,503,503,503,503,503,503,503,503,503,503,503,503,503,503,503,503,503,503,503,479,461,439,410,380,342,326,319,308,300,293,272,258,240,220,183,168,160,156,152,147,142,141,138,134,115,91],"timestamp_mouse":[7,23,39,60,79,100,120,139,160,180,199,221,240,259,281,300,320,340,360,379,401,420,441,461,480,499,520,539,560,580,601,621,640,659,680,702,720,740,761,780,800,820,840,861,881,902,919,940,960,981,999,1020,1040,1060,1080,1102,1119],"xSR":741.5,"ySR":469.95,"xT1":424.9,"yT1":0,"xT2":1058.1,"yT2":0,"toosoon":0,"cond_shown":"randomdotsizeEA","ratio_trial":900,"smaller_num":"18","larger_num":"20","correct_side":1,"subjID":"amalianavarrete3","gender":"1","age":"9","school":"4"},{"start_time":1552328722324,"click_time":1552328723353,"finger_time":1552328722953,"fix_duration":250,"trial":78,"RT":629,"MT":400,"sideResp":2,"stimulus":"img/500/equaldotsize/R/15_Ratio_500_L_1_R_2.png","xmouse":[781,781,781,781,781,781,781,781,781,781,781,781,781,781,781,781,781,781,781,781,781,781,781,781,781,781,782,785,789,795,801,819,832,847,865,885,893,904,912,917,927,948,964,981,997,1010,1030,1038,1039,1044,1051,1062],"ymouse":[512,512,512,512,513,513,513,513,513,513,513,513,513,513,513,513,513,513,513,513,513,513,513,513,514,514,513,510,507,499,491,469,448,424,370,300,240,190,170,155,139,113,97,80,66,59,53,53,53,52,50,50],"timestamp_mouse":[13,28,47,68,89,108,129,149,169,189,208,228,247,268,289,308,327,347,369,389,409,428,449,467,488,508,529,549,568,588,607,629,647,667,688,708,729,748,769,788,807,829,848,869,889,908,929,947,967,988,1008,1029],"xSR":741.5,"ySR":469.95,"xT1":424.9,"yT1":0,"xT2":1058.1,"yT2":0,"toosoon":0,"cond_shown":"equaldotsize","ratio_trial":500,"smaller_num":"1","larger_num":"2","correct_side":2,"subjID":"amalianavarrete3","gender":"1","age":"9","school":"4"},{"start_time":1552328725363,"click_time":1552328726372,"finger_time":1552328725792,"fix_duration":1248.6553134924109,"trial":79,"RT":429,"MT":580,"sideResp":1,"stimulus":"img/750/equaldotanddens/L/1_Ratio_750_L_20_R_15.png","xmouse":[829,829,829,829,829,829,829,829,829,829,829,829,829,829,829,831,832,833,834,837,840,845,853,859,862,862,861,855,845,830,766,722,671,628,566,539,533,533,533,533,533,533,533,533,533,533,533,533,533,451,451],"ymouse":[520,520,520,520,520,520,520,520,520,520,520,520,520,520,518,510,508,505,501,494,484,467,441,418,391,380,370,357,342,323,244,193,134,87,33,10,3,3,3,3,3,3,3,3,3,3,3,3,3,0,5],"timestamp_mouse":[13,35,49,70,89,108,129,148,168,188,210,229,249,270,289,309,329,348,368,389,409,429,450,469,491,509,529,549,569,590,608,629,650,668,690,709,730,749,769,790,809,828,848,868,889,909,929,948,969,990,1008],"xSR":741.5,"ySR":469.95,"xT1":424.9,"yT1":0,"xT2":1058.1,"yT2":0,"toosoon":0,"cond_shown":"equaldotanddens","ratio_trial":750,"smaller_num":"15","larger_num":"20","correct_side":1,"subjID":"amalianavarrete3","gender":"1","age":"9","school":"4"},{"start_time":1552328728162,"click_time":1552328729172,"finger_time":1552328728592,"fix_duration":648.141975650966,"trial":80,"RT":430,"MT":580,"sideResp":2,"stimulus":"img/750/equaldotanddens/L/1_Ratio_750_L_20_R_15.png","xmouse":[799,799,799,799,799,799,799,799,799,800,800,800,800,800,800,803,804,807,809,811,816,819,823,830,839,881,895,912,924,942,947,953,960,968,982,991,998,1004,1011,1025,1036,1044,1052,1057,1062,1063,1065,1066,1068,1069,1075],"ymouse":[505,505,505,505,505,505,505,505,505,505,505,505,505,505,505,503,500,496,490,485,473,467,459,447,430,368,349,329,314,294,287,279,271,261,245,233,220,206,192,165,151,139,129,122,112,110,108,105,102,101,95],"timestamp_mouse":[21,29,50,70,89,109,130,149,169,189,211,231,249,269,290,310,331,349,370,389,410,430,449,469,490,510,530,550,571,591,610,630,650,670,691,709,729,750,770,791,810,829,851,869,891,910,930,950,971,990,1010],"xSR":741.5,"ySR":469.95,"xT1":424.9,"yT1":0,"xT2