[{"start_time":1552327641305,"click_time":1552327649592,"finger_time":1552327641316,"fix_duration":566.6038607166703,"trial":0,"RT":11,"MT":8276,"sideResp":2,"stimulus":[],"xmouse":[751,751,751,751,751,751,751,751,751,751,751,751,751,751,751,751,738,730,719,706,682,668,666,666,666,666,666,666,666,666,666,666,666,666,666,666,666,671,678,692,703,723,725,727,727,727,727,727,727,727,730,731,742,753,763,773,779,788,789,790,791,791,791,791,791,791,791,791,791,791,791,791,791,791,791,791,791,791,791,792,792,792,792,794,795,795,795,796,796,796,796,796,796,796,796,796,796,796,796,796,796,796,796,796,796,796,796,796,796,796,796,796,796,796,796,796,796,796,796,796,796,796,796,796,796,796,796,796,796,796,796,796,796,796,796,796,796,796,796,796,796,796,796,796,796,796,796,796,796,796,796,796,796,796,796,796,796,796,796,796,796,796,796,796,796,796,796,796,796,796,796,796,796,796,796,796,796,796,796,796,796,796,796,796,796,796,796,796,796,796,796,796,796,796,796,796,796,796,796,796,796,796,796,796,796,796,796,796,796,796,796,796,796,796,796,796,796,796,796,796,796,796,796,796,796,796,796,796,796,796,796,796,796,796,796,796,796,796,796,797,804,817,866,894,931,963,989,991,993,998,1003,1007,1013,1015,1016,1017,1017,1014,1004,996,992,989,981,975,966,956,951,948,948,948,948,948,945,937,924,903,874,806,784,765,762,762,762,762,762,762,762,765,768,773,774,774,774,774,775,775,775,775,774,774,774,774,774,773,773,773,772,771,769,769,769,768,768,768,768,768,769,770,772,774,774,774,775,775,775,775,775,775,775,775,775,777,778,779,779,780,781,783,788,836,929,1144,1178,1179,1166,1166,1166,1166,1166,1166,1166,1021,1016,1012,1009,1003,998,992,986,968,951,909,892,877,871,867,867,868,868,853,838,821,806,803,798,798,798,798,798,798,801,819,883,931,967,1001,1020,1021,1021,1021,1022,1029,1036,1037,1037,1031,1017,998,994,994,994,994,994,995,995,995,995,995,995,995,995,995,996,1026,1082],"ymouse":[517,517,517,517,517,517,517,517,517,517,517,517,517,517,514,508,467,443,408,359,294,257,250,246,244,244,244,244,244,244,244,244,244,244,244,244,247,262,278,306,331,390,410,424,433,438,449,457,473,483,492,499,522,541,560,574,581,584,585,585,584,583,583,583,583,583,583,583,583,583,583,583,583,583,583,583,583,583,583,583,583,583,583,583,583,583,583,583,583,583,583,583,583,583,583,583,583,583,583,583,583,583,583,583,583,583,583,583,583,583,583,583,583,583,583,583,583,583,583,583,583,583,583,583,583,583,583,583,583,583,583,583,583,583,583,583,583,583,583,583,583,583,583,583,583,583,583,583,583,583,583,583,583,583,583,583,583,583,583,583,583,583,583,583,583,583,583,583,583,583,583,583,583,583,583,585,586,587,588,588,590,591,591,591,591,592,592,592,592,592,592,592,592,592,592,592,592,592,592,592,592,592,592,592,592,592,592,592,592,592,592,592,592,592,592,592,592,592,592,592,592,592,592,592,592,592,592,592,592,592,592,592,592,592,592,592,592,592,592,592,592,592,553,521,471,422,383,377,372,361,352,345,337,332,330,330,330,335,371,399,425,451,495,517,541,561,574,581,581,581,581,581,581,581,582,587,595,620,629,639,640,640,640,640,640,640,640,642,642,643,643,643,643,643,644,645,648,652,653,653,653,654,656,656,656,656,657,657,657,657,657,657,657,656,655,654,651,648,643,640,639,638,638,638,638,638,638,638,638,638,638,638,643,648,652,654,654,654,653,652,671,803,849,867,874,874,874,874,874,874,874,880,877,873,866,846,809,700,646,586,558,500,477,458,449,442,426,403,368,279,214,140,36,15,0,0,0,0,0,0,0,0,0,0,0,0,0,0,0,0,0,0,0,0,0,0,0,0,0,0,0,0,0,0,0,0,0,0,0,0,0,0,0,31,94],"timestamp_mouse":[10,25,46,65,86,105,127,145,167,185,206,227,247,266,285,306,328,345,365,386,406,426,445,465,486,505,527,546,565,585,605,625,646,665,686,705,725,745,765,786,805,827,846,865,885,906,926,945,965,985,1005,1025,1045,1065,1085,1105,1127,1146,1165,1187,1207,1226,1246,1266,1286,1306,1326,1345,1366,1385,1405,1426,1446,1465,1486,1506,1527,1545,1566,1586,1606,1626,1647,1665,1686,1705,1725,1746,1765,1785,1805,1826,1847,1866,1886,1907,1925,1945,1965,1985,2005,2025,2046,2065,2085,2105,2126,2145,2165,2186,2207,2225,2246,2265,2285,2306,2325,2346,2365,2385,2406,2425,2445,2466,2486,2505,2526,2545,2565,2585,2606,2626,2645,2665,2685,2706,2725,2746,2767,2785,2805,2825,2846,2865,2885,2905,2926,2945,2965,2985,3005,3025,3047,3065,3085,3106,3125,3145,3166,3186,3205,3226,3245,3265,3285,3307,3325,3345,3365,3386,3405,3425,3446,3465,3486,3505,3526,3546,3565,3585,3606,3626,3645,3665,3686,3706,3727,3746,3766,3785,3805,3826,3845,3866,3886,3905,3927,3946,3967,3986,4006,4025,4046,4066,4085,4106,4125,4146,4166,4185,4207,4226,4246,4266,4285,4305,4326,4346,4366,4385,4405,4425,4445,4465,4485,4505,4525,4545,4565,4585,4606,4626,4645,4665,4685,4706,4726,4745,4765,4786,4806,4825,4846,4865,4885,4906,4928,4946,4966,4985,5005,5026,5046,5065,5086,5106,5125,5145,5165,5185,5205,5225,5245,5265,5285,5305,5325,5346,5366,5387,5406,5426,5446,5466,5485,5507,5526,5546,5565,5586,5607,5625,5645,5666,5686,5705,5725,5746,5766,5785,5806,5826,5845,5867,5885,5905,5925,5946,5966,5986,6007,6025,6045,6066,6085,6105,6125,6146,6165,6186,6205,6226,6245,6266,6285,6306,6326,6345,6366,6385,6405,6425,6445,6465,6485,6505,6525,6545,6565,6585,6605,6626,6646,6665,6687,6706,6726,6745,6765,6785,6806,6826,6845,6866,6886,6905,6925,6946,6966,6985,7006,7026,7045,7065,7086,7105,7125,7145,7166,7185,7205,7226,7245,7266,7286,7305,7326,7345,7366,7386,7406,7426,7445,7467,7487,7505,7526,7545,7566,7586,7606,7625,7646,7666,7686,7705,7729,7745,7765,7786,7806,7827,7845,7865,7886,7906,7925,7945,7966,7985,8006,8026,8046,8066,8085,8105,8126,8145,8165,8186,8205,8225,8245,8265,8286],"xSR":741.5,"ySR":469.95,"xT1":424.9,"yT1":0,"xT2":1058.1,"yT2":0,"toosoon":0,"cond_shown":"Congruent","ratio_trial":200,"L_num":3,"L_den":6,"R_num":14,"R_den":20,"correct_side":2,"subjID":"amalianavarretegallo30","gender":"1","age":"9","school":"4","test":{"fix_dur":[250,1500],"timestim":1000,"targets_dim":[100,100],"targets_relative_coord":[0.3,0.7],"size_stim":[880,420],"start_dim":[100,100],"size_start":[300,300],"size_fix":60,"samplingrate":20,"img_types":["Congruent","Incongruent"],"ratios":[100,200,300],"rep_conds":19,"nTrials":120,"trials_to_rest":500,"Trials_order":[68,103,116,18,22,14,35,79,67,21,63,23,69,66,81,26,51,52,31,70,109,80,96,75,98,38,113,119,29,106,74,90,54,53,55,62,28,78,88,6,83,27,46,24,77,43,107,13,100,9,49,12,76,16,118,11,59,92,73,97,82,50,3,7,115,89,93,39,44,17,2,101,57,105,64,34,58,30,36,4,61,114,111,1,41,87,72,33,20,108,86,65,99,37,42,95,32,71,94,19,85,110,15,91,104,47,48,117,5,0,84,56,112,25,10,8,45,60,102,40],"cond_shown":["Congruent","Incongruent","Congruent","Congruent","Congruent","Congruent","Incongruent","Incongruent","Incongruent","Incongruent","Incongruent","Incongruent","Incongruent","Congruent","Incongruent","Congruent","Incongruent","Congruent","Incongruent","Congruent","Incongruent","Congruent","Congruent","Incongruent","Congruent","Congruent","Incongruent","Incongruent","Incongruent","Congruent","Congruent","Congruent","Congruent","Incongruent","Incongruent","Congruent","Congruent","Congruent","Congruent","Congruent","Incongruent","Incongruent","Congruent","Congruent","Incongruent","Incongruent","Incongruent","Incongruent","Congruent","Incongruent","Incongruent","Congruent","Congruent","Congruent","Congruent","Incongruent","Incongruent","Congruent","Incongruent","Incongruent","Congruent","Congruent","Incongruent","Incongruent","Incongruent","Incongruent","Incongruent","Incongruent","Congruent","Incongruent","Congruent","Incongruent","Incongruent","Incongruent","Congruent","Congruent","Congruent","Congruent","Congruent","Congruent","Incongruent","Congruent","Incongruent","Incongruent","Incongruent","Incongruent","Congruent","Incongruent","Congruent","Congruent","Congruent","Incongruent","Incongruent","Incongruent","Congruent","Incongruent","Congruent","Incongruent","Congruent","Incongruent","Incongruent","Congruent","Incongruent","Incongruent","Congruent","Incongruent","Congruent","Incongruent","Incongruent","Congruent","Congruent","Congruent","Congruent","Incongruent","Congruent","Congruent","Incongruent","Congruent","Congruent","Congruent"],"ratio_trial":[200,100,200,100,300,200,300,100,100,200,200,300,200,100,200,200,200,300,100,300,100,200,100,200,200,200,300,300,300,300,200,100,100,300,100,200,300,100,300,100,300,200,300,100,300,100,300,100,300,200,100,100,300,300,300,300,300,200,100,100,300,200,200,100,100,300,200,200,200,300,200,300,200,200,300,300,300,100,100,300,100,100,200,100,300,200,100,200,200,100,200,300,200,100,100,300,200,300,300,100,100,200,200,100,200,300,100,200,300,100,100,200,300,100,300,200,200,100,100,300],"left_num":[3,6,16,9,3,6,13,13,10,11,3,4,7,9,3,4,14,4,12,1,4,16,3,11,16,12,2,1,8,2,8,6,4,4,9,20,9,8,1,2,1,7,24,1,2,13,7,17,1,7,3,9,1,4,1,4,4,15,2,9,4,7,3,3,2,4,1,7,13,8,8,4,7,1,4,1,1,9,15,3,6,7,6,6,7,4,3,4,3,1,3,13,4,8,2,1,9,4,2,9,6,11,3,8,5,4,11,7,13,10,8,8,4,10,1,6,7,6,2,1],"right_num":[14,13,9,8,2,3,12,6,9,3,11,2,4,8,1,3,6,13,2,6,8,9,2,3,9,6,6,2,9,10,3,5,6,2,6,9,3,2,11,11,2,14,2,18,6,6,8,10,3,6,7,8,19,13,8,6,2,4,6,14,13,18,11,8,6,2,3,12,14,14,7,2,8,2,1,3,3,8,13,2,11,15,3,11,8,1,2,6,11,3,11,12,1,6,11,2,13,2,10,20,11,3,1,1,14,2,4,14,12,3,2,7,1,8,3,3,4,15,11,3],"left_den":[6,10,30,15,6,15,26,26,25,20,4,20,15,15,10,8,30,20,30,5,8,30,6,20,30,15,4,2,10,20,15,20,8,20,18,25,10,16,5,5,2,10,30,2,4,26,10,30,5,15,9,15,3,20,30,5,20,25,4,15,20,15,4,5,4,20,2,10,26,10,15,20,10,3,10,5,5,15,25,6,10,14,20,10,10,30,6,5,10,2,10,26,30,16,5,2,30,20,20,10,10,22,10,20,10,20,22,10,26,25,16,15,10,25,5,15,15,12,5,5],"right_den":[20,26,27,16,10,15,15,10,18,4,20,4,6,16,2,10,9,26,4,12,20,27,5,4,27,10,30,10,18,25,9,25,10,4,10,15,5,5,22,22,10,28,4,30,30,10,20,15,6,9,30,16,30,26,24,12,4,10,15,28,26,27,20,16,15,4,10,24,20,28,21,4,16,15,10,6,6,16,26,10,22,25,6,22,20,3,5,10,22,5,22,15,3,10,22,10,26,4,25,25,22,10,2,2,20,4,10,28,15,10,5,21,10,16,6,15,6,25,22,6],"correct_side":[2,1,1,1,1,1,2,2,2,2,1,2,2,1,2,1,2,2,2,2,1,1,1,2,1,1,1,1,1,2,1,1,2,2,2,1,1,1,2,2,1,1,1,2,1,2,1,2,2,2,1,1,2,2,2,1,2,1,1,1,2,2,1,1,1,2,1,1,2,1,1,2,1,1,1,2,2,1,1,1,1,2,2,1,1,2,1,1,2,2,2,2,2,2,2,1,2,2,2,1,1,1,2,2,2,2,1,1,2,1,1,1,1,2,2,1,2,2,2,2],"img_shown":["img2/200/Congruent/R/C_Dist_200_LN_3_LD_6_RN_14_RD_20_1.png","img2/100/Incongruent/L/I_Dist_100_LN_6_LD_10_RN_13_RD_26_0.png","img2/200/Congruent/L/C_Dist_200_LN_16_LD_30_RN_9_RD_27_0.png","img2/100/Congruent/L/C_Dist_100_LN_9_LD_15_RN_8_RD_16_0.png","img2/300/Congruent/L/C_Dist_300_LN_3_LD_6_RN_2_RD_10_0.png","img2/200/Congruent/L/C_Dist_200_LN_6_LD_15_RN_3_RD_15_0.png","img2/300/Incongruent/R/I_Dist_300_LN_13_LD_26_RN_12_RD_15_1.png","img2/100/Incongruent/R/I_Dist_100_LN_13_LD_26_RN_6_RD_10_1.png","img2/100/Incongruent/R/I_Dist_100_LN_10_LD_25_RN_9_RD_18_1.png","img2/200/Incongruent/R/I_Dist_200_LN_11_LD_20_RN_3_RD_4_1.png","img2/200/Incongruent/L/I_Dist_200_LN_3_LD_4_RN_11_RD_20_0.png","img2/300/Incongruent/R/I_Dist_300_LN_4_LD_20_RN_2_RD_4_1.png","img2/200/Incongruent/R/I_Dist_200_LN_7_LD_15_RN_4_RD_6_1.png","img2/100/Congruent/L/C_Dist_100_LN_9_LD_15_RN_8_RD_16_0.png","img2/200/Incongruent/R/I_Dist_200_LN_3_LD_10_RN_1_RD_2_1.png","img2/200/Congruent/L/C_Dist_200_LN_4_LD_8_RN_3_RD_10_0.png","img2/200/Incongruent/R/I_Dist_200_LN_14_LD_30_RN_6_RD_9_1.png","img2/300/Congruent/R/C_Dist_300_LN_4_LD_20_RN_13_RD_26_1.png","img2/100/Incongruent/R/I_Dist_100_LN_12_LD_30_RN_2_RD_4_1.png","img2/300/Congruent/R/C_Dist_300_LN_1_LD_5_RN_6_RD_12_1.png","img2/100/Incongruent/L/I_Dist_100_LN_4_LD_8_RN_8_RD_20_0.png","img2/200/Congruent/L/C_Dist_200_LN_16_LD_30_RN_9_RD_27_0.png","img2/100/Congruent/L/C_Dist_100_LN_3_LD_6_RN_2_RD_5_0.png","img2/200/Incongruent/R/I_Dist_200_LN_11_LD_20_RN_3_RD_4_1.png","img2/200/Congruent/L/C_Dist_200_LN_16_LD_30_RN_9_RD_27_0.png","img2/200/Congruent/L/C_Dist_200_LN_12_LD_15_RN_6_RD_10_0.png","img2/300/Incongruent/L/I_Dist_300_LN_2_LD_4_RN_6_RD_30_0.png","img2/300/Incongruent/L/I_Dist_300_LN_1_LD_2_RN_2_RD_10_0.png","img2/300/Incongruent/L/I_Dist_300_LN_8_LD_10_RN_9_RD_18_0.png","img2/300/Congruent/R/C_Dist_300_LN_2_LD_20_RN_10_RD_25_1.png","img2/200/Congruent/L/C_Dist_200_LN_8_LD_15_RN_3_RD_9_0.png","img2/100/Congruent/L/C_Dist_100_LN_6_LD_20_RN_5_RD_25_0.png","img2/100/Congruent/R/C_Dist_100_LN_4_LD_8_RN_6_RD_10_1.png","img2/300/Incongruent/R/I_Dist_300_LN_4_LD_20_RN_2_RD_4_1.png","img2/100/Incongruent/R/I_Dist_100_LN_9_LD_18_RN_6_RD_10_1.png","img2/200/Congruent/L/C_Dist_200_LN_20_LD_25_RN_9_RD_15_0.png","img2/300/Congruent/L/C_Dist_300_LN_9_LD_10_RN_3_RD_5_0.png","img2/100/Congruent/L/C_Dist_100_LN_8_LD_16_RN_2_RD_5_0.png","img2/300/Congruent/R/C_Dist_300_LN_1_LD_5_RN_11_RD_22_1.png","img2/100/Congruent/R/C_Dist_100_LN_2_LD_5_RN_11_RD_22_1.png","img2/300/Incongruent/L/I_Dist_300_LN_1_LD_2_RN_2_RD_10_0.png","img2/200/Incongruent/L/I_Dist_200_LN_7_LD_10_RN_14_RD_28_0.png","img2/300/Congruent/L/C_Dist_300_LN_24_LD_30_RN_2_RD_4_0.png","img2/100/Congruent/R/C_Dist_100_LN_1_LD_2_RN_18_RD_30_1.png","img2/300/Incongruent/L/I_Dist_300_LN_2_LD_4_RN_6_RD_30_0.png","img2/100/Incongruent/R/I_Dist_100_LN_13_LD_26_RN_6_RD_10_1.png","img2/300/Incongruent/L/I_Dist_300_LN_7_LD_10_RN_8_RD_20_0.png","img2/100/Incongruent/R/I_Dist_100_LN_17_LD_30_RN_10_RD_15_1.png","img2/300/Congruent/R/C_Dist_300_LN_1_LD_5_RN_3_RD_6_1.png","img2/200/Incongruent/R/I_Dist_200_LN_7_LD_15_RN_6_RD_9_1.png","img2/100/Incongruent/L/I_Dist_100_LN_3_LD_9_RN_7_RD_30_0.png","img2/100/Congruent/L/C_Dist_100_LN_9_LD_15_RN_8_RD_16_0.png","img2/300/Congruent/R/C_Dist_300_LN_1_LD_3_RN_19_RD_30_1.png","img2/300/Congruent/R/C_Dist_300_LN_4_LD_20_RN_13_RD_26_1.png","img2/300/Congruent/R/C_Dist_300_LN_1_LD_30_RN_8_RD_24_1.png","img2/300/Incongruent/L/I_Dist_300_LN_4_LD_5_RN_6_RD_12_0.png","img2/300/Incongruent/R/I_Dist_300_LN_4_LD_20_RN_2_RD_4_1.png","img2/200/Congruent/L/C_Dist_200_LN_15_LD_25_RN_4_RD_10_0.png","img2/100/Incongruent/L/I_Dist_100_LN_2_LD_4_RN_6_RD_15_0.png","img2/100/Incongruent/L/I_Dist_100_LN_9_LD_15_RN_14_RD_28_0.png","img2/300/Congruent/R/C_Dist_300_LN_4_LD_20_RN_13_RD_26_1.png","img2/200/Congruent/R/C_Dist_200_LN_7_LD_15_RN_18_RD_27_1.png","img2/200/Incongruent/L/I_Dist_200_LN_3_LD_4_RN_11_RD_20_0.png","img2/100/Incongruent/L/I_Dist_100_LN_3_LD_5_RN_8_RD_16_0.png","img2/100/Incongruent/L/I_Dist_100_LN_2_LD_4_RN_6_RD_15_0.png","img2/300/Incongruent/R/I_Dist_300_LN_4_LD_20_RN_2_RD_4_1.png","img2/200/Incongruent/L/I_Dist_200_LN_1_LD_2_RN_3_RD_10_0.png","img2/200/Incongruent/L/I_Dist_200_LN_7_LD_10_RN_12_RD_24_0.png","img2/200/Congruent/R/C_Dist_200_LN_13_LD_26_RN_14_RD_20_1.png","img2/300/Incongruent/L/I_Dist_300_LN_8_LD_10_RN_14_RD_28_0.png","img2/200/Congruent/L/C_Dist_200_LN_8_LD_15_RN_7_RD_21_0.png","img2/300/Incongruent/R/I_Dist_300_LN_4_LD_20_RN_2_RD_4_1.png","img2/200/Incongruent/L/I_Dist_200_LN_7_LD_10_RN_8_RD_16_0.png","img2/200/Incongruent/L/I_Dist_200_LN_1_LD_3_RN_2_RD_15_0.png","img2/300/Congruent/L/C_Dist_300_LN_4_LD_10_RN_1_RD_10_0.png","img2/300/Congruent/R/C_Dist_300_LN_1_LD_5_RN_3_RD_6_1.png","img2/300/Congruent/R/C_Dist_300_LN_1_LD_5_RN_3_RD_6_1.png","img2/100/Congruent/L/C_Dist_100_LN_9_LD_15_RN_8_RD_16_0.png","img2/100/Congruent/L/C_Dist_100_LN_15_LD_25_RN_13_RD_26_0.png","img2/300/Congruent/L/C_Dist_300_LN_3_LD_6_RN_2_RD_10_0.png","img2/100/Incongruent/L/I_Dist_100_LN_6_LD_10_RN_11_RD_22_0.png","img2/100/Congruent/R/C_Dist_100_LN_7_LD_14_RN_15_RD_25_1.png","img2/200/Incongruent/R/I_Dist_200_LN_6_LD_20_RN_3_RD_6_1.png","img2/100/Incongruent/L/I_Dist_100_LN_6_LD_10_RN_11_RD_22_0.png","img2/300/Incongruent/L/I_Dist_300_LN_7_LD_10_RN_8_RD_20_0.png","img2/200/Incongruent/R/I_Dist_200_LN_4_LD_30_RN_1_RD_3_1.png","img2/100/Congruent/L/C_Dist_100_LN_3_LD_6_RN_2_RD_5_0.png","img2/200/Incongruent/L/I_Dist_200_LN_4_LD_5_RN_6_RD_10_0.png","img2/200/Congruent/R/C_Dist_200_LN_3_LD_10_RN_11_RD_22_1.png","img2/100/Congruent/R/C_Dist_100_LN_1_LD_2_RN_3_RD_5_1.png","img2/200/Congruent/R/C_Dist_200_LN_3_LD_10_RN_11_RD_22_1.png","img2/300/Incongruent/R/I_Dist_300_LN_13_LD_26_RN_12_RD_15_1.png","img2/200/Incongruent/R/I_Dist_200_LN_4_LD_30_RN_1_RD_3_1.png","img2/100/Incongruent/R/I_Dist_100_LN_8_LD_16_RN_6_RD_10_1.png","img2/100/Congruent/R/C_Dist_100_LN_2_LD_5_RN_11_RD_22_1.png","img2/300/Incongruent/L/I_Dist_300_LN_1_LD_2_RN_2_RD_10_0.png","img2/200/Congruent/R/C_Dist_200_LN_9_LD_30_RN_13_RD_26_1.png","img2/300/Incongruent/R/I_Dist_300_LN_4_LD_20_RN_2_RD_4_1.png","img2/300/Congruent/R/C_Dist_300_LN_2_LD_20_RN_10_RD_25_1.png","img2/100/Incongruent/L/I_Dist_100_LN_9_LD_10_RN_20_RD_25_0.png","img2/100/Incongruent/L/I_Dist_100_LN_6_LD_10_RN_11_RD_22_0.png","img2/200/Congruent/L/C_Dist_200_LN_11_LD_22_RN_3_RD_10_0.png","img2/200/Incongruent/R/I_Dist_200_LN_3_LD_10_RN_1_RD_2_1.png","img2/100/Incongruent/R/I_Dist_100_LN_8_LD_20_RN_1_RD_2_1.png","img2/200/Congruent/R/C_Dist_200_LN_5_LD_10_RN_14_RD_20_1.png","img2/300/Incongruent/R/I_Dist_300_LN_4_LD_20_RN_2_RD_4_1.png","img2/100/Congruent/L/C_Dist_100_LN_11_LD_22_RN_4_RD_10_0.png","img2/200/Incongruent/L/I_Dist_200_LN_7_LD_10_RN_14_RD_28_0.png","img2/300/Incongruent/R/I_Dist_300_LN_13_LD_26_RN_12_RD_15_1.png","img2/100/Congruent/L/C_Dist_100_LN_10_LD_25_RN_3_RD_10_0.png","img2/100/Congruent/L/C_Dist_100_LN_8_LD_16_RN_2_RD_5_0.png","img2/200/Congruent/L/C_Dist_200_LN_8_LD_15_RN_7_RD_21_0.png","img2/300/Congruent/L/C_Dist_300_LN_4_LD_10_RN_1_RD_10_0.png","img2/100/Incongruent/R/I_Dist_100_LN_10_LD_25_RN_8_RD_16_1.png","img2/300/Congruent/R/C_Dist_300_LN_1_LD_5_RN_3_RD_6_1.png","img2/200/Congruent/L/C_Dist_200_LN_6_LD_15_RN_3_RD_15_0.png","img2/200/Incongruent/R/I_Dist_200_LN_7_LD_15_RN_4_RD_6_1.png","img2/100/Congruent/R/C_Dist_100_LN_6_LD_12_RN_15_RD_25_1.png","img2/100/Congruent/R/C_Dist_100_LN_2_LD_5_RN_11_RD_22_1.png","img2/300/Congruent/R/C_Dist_300_LN_1_LD_5_RN_3_RD_6_1.png"],"dist100_C":[["C_Dist_100_LN_10_LD_25_RN_3_RD_10_0.png","C_Dist_100_LN_11_LD_22_RN_4_RD_10_0.png","C_Dist_100_LN_11_LD_22_RN_6_RD_15_0.png","C_Dist_100_LN_15_LD_25_RN_13_RD_26_0.png","C_Dist_100_LN_3_LD_6_RN_2_RD_5_0.png","C_Dist_100_LN_6_LD_20_RN_5_RD_25_0.png","C_Dist_100_LN_8_LD_16_RN_2_RD_5_0.png","C_Dist_100_LN_9_LD_15_RN_8_RD_16_0.png"],["C_Dist_100_LN_1_LD_2_RN_18_RD_30_1.png","C_Dist_100_LN_1_LD_2_RN_3_RD_5_1.png","C_Dist_100_LN_12_LD_30_RN_13_RD_26_1.png","C_Dist_100_LN_2_LD_5_RN_11_RD_22_1.png","C_Dist_100_LN_2_LD_5_RN_6_RD_12_1.png","C_Dist_100_LN_3_LD_20_RN_4_RD_16_1.png","C_Dist_100_LN_4_LD_10_RN_15_RD_30_1.png","C_Dist_100_LN_4_LD_8_RN_6_RD_10_1.png","C_Dist_100_LN_6_LD_12_RN_15_RD_25_1.png","C_Dist_100_LN_7_LD_14_RN_15_RD_25_1.png","C_Dist_100_LN_7_LD_14_RN_9_RD_15_1.png"]],"dist100_I":[["I_Dist_100_LN_1_LD_2_RN_8_RD_20_0.png","I_Dist_100_LN_2_LD_4_RN_6_RD_15_0.png","I_Dist_100_LN_2_LD_4_RN_8_RD_20_0.png","I_Dist_100_LN_3_LD_5_RN_11_RD_22_0.png","I_Dist_100_LN_3_LD_5_RN_8_RD_16_0.png","I_Dist_100_LN_3_LD_6_RN_4_RD_10_0.png","I_Dist_100_LN_3_LD_9_RN_7_RD_30_0.png","I_Dist_100_LN_4_LD_8_RN_8_RD_20_0.png","I_Dist_100_LN_6_LD_10_RN_11_RD_22_0.png","I_Dist_100_LN_6_LD_10_RN_13_RD_26_0.png","I_Dist_100_LN_6_LD_10_RN_7_RD_14_0.png","I_Dist_100_LN_9_LD_10_RN_20_RD_25_0.png","I_Dist_100_LN_9_LD_15_RN_13_RD_26_0.png","I_Dist_100_LN_9_LD_15_RN_14_RD_28_0.png"],["I_Dist_100_LN_10_LD_25_RN_8_RD_16_1.png","I_Dist_100_LN_10_LD_25_RN_9_RD_18_1.png","I_Dist_100_LN_11_LD_22_RN_9_RD_15_1.png","I_Dist_100_LN_12_LD_24_RN_9_RD_15_1.png","I_Dist_100_LN_12_LD_30_RN_2_RD_4_1.png","I_Dist_100_LN_13_LD_26_RN_12_RD_20_1.png","I_Dist_100_LN_13_LD_26_RN_6_RD_10_1.png","I_Dist_100_LN_17_LD_30_RN_10_RD_15_1.png","I_Dist_100_LN_6_LD_12_RN_3_RD_5_1.png","I_Dist_100_LN_8_LD_16_RN_6_RD_10_1.png","I_Dist_100_LN_8_LD_20_RN_1_RD_2_1.png","I_Dist_100_LN_9_LD_18_RN_6_RD_10_1.png"]],"dist100_S":[["E_Dist_100_LN_2_LD_12_RN_2_RD_30_0.png","E_Dist_100_LN_6_LD_10_RN_6_RD_12_0.png"],["E_Dist_100_LN_6_LD_12_RN_6_RD_10_1.png"]],"dist200_C":[["C_Dist_200_LN_11_LD_22_RN_3_RD_10_0.png","C_Dist_200_LN_12_LD_15_RN_6_RD_10_0.png","C_Dist_200_LN_12_LD_20_RN_6_RD_15_0.png","C_Dist_200_LN_14_LD_28_RN_6_RD_20_0.png","C_Dist_200_LN_15_LD_25_RN_4_RD_10_0.png","C_Dist_200_LN_16_LD_20_RN_12_RD_20_0.png","C_Dist_200_LN_16_LD_30_RN_9_RD_27_0.png","C_Dist_200_LN_20_LD_25_RN_9_RD_15_0.png","C_Dist_200_LN_21_LD_30_RN_2_RD_4_0.png","C_Dist_200_LN_4_LD_10_RN_3_RD_15_0.png","C_Dist_200_LN_4_LD_8_RN_3_RD_10_0.png","C_Dist_200_LN_6_LD_15_RN_3_RD_15_0.png","C_Dist_200_LN_7_LD_21_RN_2_RD_15_0.png","C_Dist_200_LN_8_LD_15_RN_2_RD_6_0.png","C_Dist_200_LN_8_LD_15_RN_3_RD_9_0.png","C_Dist_200_LN_8_LD_15_RN_7_RD_21_0.png","C_Dist_200_LN_9_LD_20_RN_4_RD_16_0.png"],["C_Dist_200_LN_1_LD_2_RN_21_RD_30_1.png","C_Dist_200_LN_13_LD_26_RN_14_RD_20_1.png","C_Dist_200_LN_3_LD_10_RN_11_RD_22_1.png","C_Dist_200_LN_3_LD_10_RN_14_RD_28_1.png","C_Dist_200_LN_3_LD_10_RN_7_RD_14_1.png","C_Dist_200_LN_3_LD_12_RN_9_RD_20_1.png","C_Dist_200_LN_3_LD_6_RN_14_RD_20_1.png","C_Dist_200_LN_5_LD_10_RN_14_RD_20_1.png","C_Dist_200_LN_6_LD_12_RN_7_RD_10_1.png","C_Dist_200_LN_6_LD_20_RN_11_RD_22_1.png","C_Dist_200_LN_7_LD_15_RN_18_RD_27_1.png","C_Dist_200_LN_9_LD_30_RN_13_RD_26_1.png"]],"dist200_I":[["I_Dist_200_LN_1_LD_2_RN_3_RD_10_0.png","I_Dist_200_LN_1_LD_3_RN_2_RD_15_0.png","I_Dist_200_LN_3_LD_4_RN_11_RD_20_0.png","I_Dist_200_LN_4_LD_5_RN_6_RD_10_0.png","I_Dist_200_LN_4_LD_6_RN_14_RD_30_0.png","I_Dist_200_LN_7_LD_10_RN_12_RD_24_0.png","I_Dist_200_LN_7_LD_10_RN_14_RD_28_0.png","I_Dist_200_LN_7_LD_10_RN_8_RD_16_0.png"],["I_Dist_200_LN_11_LD_20_RN_3_RD_4_1.png","I_Dist_200_LN_14_LD_30_RN_12_RD_18_1.png","I_Dist_200_LN_14_LD_30_RN_6_RD_9_1.png","I_Dist_200_LN_3_LD_10_RN_1_RD_2_1.png","I_Dist_200_LN_4_LD_30_RN_1_RD_3_1.png","I_Dist_200_LN_6_LD_20_RN_3_RD_6_1.png","I_Dist_200_LN_7_LD_15_RN_4_RD_6_1.png","I_Dist_200_LN_7_LD_15_RN_6_RD_9_1.png","I_Dist_200_LN_9_LD_15_RN_8_RD_10_1.png"]],"dist200_S":[["E_Dist_200_LN_3_LD_6_RN_3_RD_10_0.png"],["E_Dist_200_LN_3_LD_10_RN_3_RD_6_1.png"]],"dist300_C":[["C_Dist_300_LN_11_LD_22_RN_1_RD_5_0.png","C_Dist_300_LN_11_LD_22_RN_2_RD_10_0.png","C_Dist_300_LN_11_LD_22_RN_4_RD_20_0.png","C_Dist_300_LN_12_LD_24_RN_2_RD_10_0.png","C_Dist_300_LN_18_LD_20_RN_9_RD_15_0.png","C_Dist_300_LN_20_LD_25_RN_13_RD_26_0.png","C_Dist_300_LN_20_LD_25_RN_14_RD_28_0.png","C_Dist_300_LN_20_LD_25_RN_5_RD_10_0.png","C_Dist_300_LN_20_LD_25_RN_8_RD_16_0.png","C_Dist_300_LN_20_LD_25_RN_9_RD_18_0.png","C_Dist_300_LN_24_LD_30_RN_2_RD_4_0.png","C_Dist_300_LN_24_LD_30_RN_8_RD_16_0.png","C_Dist_300_LN_3_LD_6_RN_2_RD_10_0.png","C_Dist_300_LN_4_LD_10_RN_1_RD_10_0.png","C_Dist_300_LN_4_LD_5_RN_2_RD_4_0.png","C_Dist_300_LN_8_LD_16_RN_1_RD_5_0.png","C_Dist_300_LN_9_LD_10_RN_3_RD_5_0.png"],["C_Dist_300_LN_1_LD_20_RN_7_RD_20_1.png","C_Dist_300_LN_1_LD_3_RN_19_RD_30_1.png","C_Dist_300_LN_1_LD_30_RN_8_RD_24_1.png","C_Dist_300_LN_1_LD_5_RN_11_RD_22_1.png","C_Dist_300_LN_1_LD_5_RN_3_RD_6_1.png","C_Dist_300_LN_1_LD_5_RN_6_RD_12_1.png","C_Dist_300_LN_2_LD_10_RN_12_RD_24_1.png","C_Dist_300_LN_2_LD_20_RN_10_RD_25_1.png","C_Dist_300_LN_3_LD_12_RN_11_RD_20_1.png","C_Dist_300_LN_3_LD_6_RN_4_RD_5_1.png","C_Dist_300_LN_4_LD_20_RN_13_RD_26_1.png","C_Dist_300_LN_5_LD_25_RN_6_RD_12_1.png","C_Dist_300_LN_5_LD_25_RN_7_RD_14_1.png","C_Dist_300_LN_7_LD_14_RN_20_RD_25_1.png","C_Dist_300_LN_8_LD_15_RN_10_RD_12_1.png"]],"dist300_I":[["I_Dist_300_LN_1_LD_2_RN_2_RD_10_0.png","I_Dist_300_LN_1_LD_2_RN_3_RD_15_0.png","I_Dist_300_LN_2_LD_4_RN_6_RD_30_0.png","I_Dist_300_LN_3_LD_6_RN_4_RD_20_0.png","I_Dist_300_LN_4_LD_5_RN_6_RD_12_0.png","I_Dist_300_LN_4_LD_5_RN_8_RD_16_0.png","I_Dist_300_LN_7_LD_10_RN_8_RD_20_0.png","I_Dist_300_LN_8_LD_10_RN_14_RD_28_0.png","I_Dist_300_LN_8_LD_10_RN_9_RD_18_0.png"],["I_Dist_300_LN_13_LD_26_RN_12_RD_15_1.png","I_Dist_300_LN_4_LD_20_RN_2_RD_4_1.png"]],"dist300_S":[["E_Dist_300_LN_9_LD_12_RN_9_RD_20_0.png"],["E_Dist_300_LN_18_LD_30_RN_18_RD_20_1.png","E_Dist_300_LN_3_LD_10_RN_3_RD_5_1.png","E_Dist_300_LN_9_LD_20_RN_9_RD_12_1.png"]],"dist500_C":[["C_Dist_500_LN_10_LD_13_RN_7_RD_26_0.png","C_Dist_500_LN_10_LD_15_RN_4_RD_24_0.png","C_Dist_500_LN_12_LD_16_RN_3_RD_12_0.png","C_Dist_500_LN_12_LD_18_RN_4_RD_24_0.png","C_Dist_500_LN_15_LD_18_RN_5_RD_15_0.png","C_Dist_500_LN_15_LD_20_RN_1_RD_4_0.png","C_Dist_500_LN_18_LD_27_RN_1_RD_6_0.png","C_Dist_500_LN_20_LD_24_RN_1_RD_3_0.png","C_Dist_500_LN_20_LD_24_RN_3_RD_9_0.png","C_Dist_500_LN_20_LD_24_RN_7_RD_21_0.png","C_Dist_500_LN_20_LD_28_RN_3_RD_14_0.png","C_Dist_500_LN_21_LD_28_RN_6_RD_24_0.png","C_Dist_500_LN_22_LD_28_RN_2_RD_7_0.png","C_Dist_500_LN_25_LD_30_RN_9_RD_27_0.png","C_Dist_500_LN_4_LD_6_RN_1_RD_6_0.png","C_Dist_500_LN_5_LD_6_RN_2_RD_6_0.png","C_Dist_500_LN_6_LD_9_RN_1_RD_6_0.png","C_Dist_500_LN_7_LD_10_RN_1_RD_5_0.png","C_Dist_500_LN_8_LD_12_RN_1_RD_6_0.png","C_Dist_500_LN_8_LD_12_RN_4_RD_24_0.png"],["C_Dist_500_LN_1_LD_4_RN_12_RD_16_1.png","C_Dist_500_LN_1_LD_4_RN_9_RD_12_1.png","C_Dist_500_LN_1_LD_9_RN_11_RD_18_1.png","C_Dist_500_LN_10_LD_24_RN_22_RD_24_1.png","C_Dist_500_LN_2_LD_12_RN_10_RD_15_1.png","C_Dist_500_LN_2_LD_12_RN_12_RD_18_1.png","C_Dist_500_LN_2_LD_12_RN_4_RD_6_1.png","C_Dist_500_LN_2_LD_24_RN_7_RD_12_1.png","C_Dist_500_LN_2_LD_5_RN_18_RD_20_1.png","C_Dist_500_LN_2_LD_5_RN_9_RD_10_1.png","C_Dist_500_LN_2_LD_8_RN_12_RD_16_1.png","C_Dist_500_LN_2_LD_8_RN_21_RD_28_1.png","C_Dist_500_LN_3_LD_10_RN_4_RD_5_1.png","C_Dist_500_LN_3_LD_12_RN_15_RD_20_1.png","C_Dist_500_LN_3_LD_30_RN_6_RD_10_1.png","C_Dist_500_LN_3_LD_8_RN_14_RD_16_1.png","C_Dist_500_LN_4_LD_16_RN_15_RD_20_1.png","C_Dist_500_LN_4_LD_24_RN_12_RD_18_1.png","C_Dist_500_LN_5_LD_14_RN_6_RD_7_1.png","C_Dist_500_LN_7_LD_21_RN_20_RD_24_1.png","C_Dist_500_LN_7_LD_28_RN_12_RD_16_1.png","C_Dist_500_LN_7_LD_28_RN_9_RD_12_1.png","C_Dist_500_LN_9_LD_27_RN_20_RD_24_1.png"]],"dist500_I":[["I_Dist_500_LN_2_LD_3_RN_4_RD_24_0.png","I_Dist_500_LN_5_LD_6_RN_6_RD_18_0.png","I_Dist_500_LN_7_LD_8_RN_9_RD_24_0.png"],["I_Dist_500_LN_7_LD_21_RN_5_RD_6_1.png"]],"dist500_S":[["E_Dist_500_LN_6_LD_8_RN_6_RD_24_0.png"],["E_Dist_500_LN_2_LD_12_RN_2_RD_3_1.png","E_Dist_500_LN_6_LD_24_RN_6_RD_8_1.png"]]}},{"start_time":1552327651383,"click_time":1552327652451,"finger_time":1552327651911,"fix_duration":992.4124270966694,"trial":1,"RT":528,"MT":540,"sideResp":2,"stimulus":[],"xmouse":[823,824,824,824,824,824,824,824,824,824,824,824,824,824,824,824,824,824,824,825,825,825,826,828,832,839,851,866,887,892,895,899,902,906,915,920,937,956,993,1014,1036,1052,1062,1075,1076,1077,1077,1077,1077,1078,1080,1084,1089,1094],"ymouse":[641,638,637,637,636,636,636,636,636,636,636,636,636,635,635,635,635,635,634,633,633,630,629,624,614,597,560,516,438,414,401,392,386,380,375,371,352,334,299,281,262,241,222,196,194,193,193,193,185,170,155,136,119,98],"timestamp_mouse":[8,27,53,68,88,108,128,147,167,188,209,228,248,268,288,308,327,347,367,387,408,428,448,469,487,507,527,547,567,588,608,628,647,667,687,707,728,748,769,788,808,827,847,867,888,908,927,947,967,987,1008,1027,1048,1068],"xSR":741.5,"ySR":573.95,"xT1":424.9,"yT1":0,"xT2":1058.1,"yT2":0,"toosoon":0,"cond_shown":"Incongruent","ratio_trial":100,"L_num":6,"L_den":10,"R_num":13,"R_den":26,"correct_side":1,"subjID":"amalianavarretegallo30","gender":"1","school":"4","age":"9"},{"start_time":1552327653908,"click_time":1552327654490,"finger_time":1552327654171,"fix_duration":257.51242934771534,"trial":2,"RT":263,"MT":319,"sideResp":1,"stimulus":[],"xmouse":[799,799,799,799,799,799,799,799,799,799,799,799,797,780,742,675,598,487,467,464,467,474,476,477,477,477,477,477,477,477],"ymouse":[604,604,604,604,604,604,604,604,604,604,604,603,576,514,399,267,135,0,0,0,0,0,0,0,0,0,0,0,0,2],"timestamp_mouse":[10,23,42,62,83,102,124,142,162,182,202,223,243,263,283,302,323,342,363,383,402,425,442,462,482,503,522,544,563,582],"xSR":741.5,"ySR":573.95,"xT1":424.9,"yT1":0,"xT2":1058.1,"yT2":0,"toosoon":0,"cond_shown":"Congruent","ratio_trial":200,"L_num":16,"L_den":30,"R_num":9,"R_den":27,"correct_side":1,"subjID":"amalianavarretegallo30","gender":"1","school":"4","age":"9"},{"start_time":1552327671023,"click_time":1552327671691,"finger_time":1552327671391,"fix_duration":250,"trial":3,"RT":368,"MT":300,"sideResp":1,"stimulus":[],"xmouse":[802,802,802,802,802,802,802,802,802,802,802,802,802,802,800,784,774,762,749,741,729,726,722,713,706,669,655,644,633,622,589,566,529,480],"ymouse":[604,604,604,604,604,604,604,604,604,604,604,604,604,604,603,592,584,576,567,556,532,522,513,491,448,299,245,210,174,144,98,81,61,37],"timestamp_mouse":[12,34,47,68,88,108,127,149,169,188,207,228,248,268,288,308,329,347,368,389,408,427,448,467,488,508,527,548,569,589,609,627,648,668],"xSR":741.5,"ySR":573.95,"xT1":424.9,"yT1":0,"xT2":1058.1,"yT2":0,"toosoon":0,"cond_shown":"Congruent","ratio_trial":100,"L_num":9,"L_den":15,"R_num":8,"R_den":16,"correct_side":1,"subjID":"amalianavarretegallo30","gender":"1","school":"4","age":"9"},{"start_time":1552327673547,"click_time":1552327674451,"finger_time":1552327673732,"fix_duration":775.0958213319973,"trial":4,"RT":185,"MT":719,"sideResp":2,"stimulus":[],"xmouse":[814,815,815,815,815,815,815,816,816,816,818,820,825,834,868,893,917,931,939,933,933,933,933,933,936,945,956,959,962,963,969,972,976,983,1010,1023,1030,1037,1039,1039,1040,1040,1041,1045,1053,1063],"ymouse":[587,585,582,581,580,579,578,577,576,571,565,558,546,526,409,320,243,192,130,109,109,109,109,109,100,84,65,60,57,57,57,57,57,57,57,57,57,57,57,57,57,57,57,57,56,50],"timestamp_mouse":[10,25,49,64,85,104,123,144,165,185,204,224,244,264,285,303,324,343,364,385,404,423,445,465,485,503,523,545,565,584,604,624,645,664,684,704,724,743,764,783,805,824,845,864,883,904],"xSR":741.5,"ySR":573.95,"xT1":424.9,"yT1":0,"xT2":1058.1,"yT2":0,"toosoon":0,"cond_shown":"Congruent","ratio_trial":300,"L_num":3,"L_den":6,"R_num":2,"R_den":10,"correct_side":1,"subjID":"amalianavarretegallo30","gender":"1","school":"4","age":"9"},{"start_time":1552327676266,"click_time":1552327676891,"finger_time":1552327676491,"fix_duration":451.36943576896516,"trial":5,"RT":225,"MT":400,"sideResp":1,"stimulus":[],"xmouse":[789,789,789,789,789,789,787,787,786,783,779,770,757,739,687,651,614,595,578,576,575,575,575,575,576,576,576,576,567,551,529,511],"ymouse":[624,624,624,624,624,622,619,618,617,611,601,571,521,433,249,171,113,86,63,59,59,58,58,58,57,57,56,53,49,48,48,48],"timestamp_mouse":[13,38,45,66,85,106,125,145,165,185,206,225,244,265,285,305,325,344,365,385,405,426,445,465,486,504,525,546,566,585,605,625],"xSR":741.5,"ySR":573.95,"xT1":424.9,"yT1":0,"xT2":1058.1,"yT2":0,"toosoon":0,"cond_shown":"Congruent","ratio_trial":200,"L_num":6,"L_den":15,"R_num":3,"R_den":15,"correct_side":1,"subjID":"amalianavarretegallo30","gender":"1","school":"4","age":"9"},{"start_time":1552327685373,"click_time":1552327686191,"finger_time":1552327685711,"fix_duration":1479.3611985460382,"trial":6,"RT":338,"MT":480,"sideResp":1,"stimulus":[],"xmouse":[763,763,763,763,763,763,763,763,763,763,763,763,763,765,770,779,792,799,803,804,805,806,808,816,821,825,827,815,803,783,766,742,713,663,644,636,635,630,600,561,523],"ymouse":[608,608,607,607,607,607,607,607,607,607,607,607,607,605,598,585,568,558,549,547,546,543,537,511,493,467,421,370,346,319,299,272,241,194,177,167,163,153,116,86,63],"timestamp_mouse":[33,37,58,79,99,119,139,158,179,198,218,239,257,278,297,318,338,358,379,399,418,439,458,479,498,519,539,558,578,597,618,639,657,678,698,718,738,759,779,798,818],"xSR":741.5,"ySR":573.95,"xT1":424.9,"yT1":0,"xT2":1058.1,"yT2":0,"toosoon":0,"cond_shown":"Incongruent","ratio_trial":300,"L_num":13,"L_den":26,"R_num":12,"R_den":15,"correct_side":2,"subjID":"amalianavarretegallo30","gender":"1","school":"4","age":"9"},{"start_time":1552327693900,"click_time":1552327694432,"finger_time":1552327694272,"fix_duration":1267.5216741156808,"trial":7,"RT":372,"MT":160,"sideResp":1,"stimulus":[],"xmouse":[806,806,806,806,806,806,806,806,806,806,806,806,806,806,806,806,807,810,812,813,815,815,807,784,733,654,509],"ymouse":[596,596,596,596,596,596,596,596,596,596,596,596,596,596,592,591,587,580,571,567,548,532,488,428,340,233,69],"timestamp_mouse":[14,36,51,72,90,111,131,152,172,191,212,231,252,271,291,312,330,352,372,391,412,431,452,470,490,511,531],"xSR":741.5,"ySR":573.95,"xT1":424.9,"yT1":0,"xT2":1058.1,"yT2":0,"toosoon":0,"cond_shown":"Incongruent","ratio_trial":100,"L_num":13,"L_den":26,"R_num":6,"R_den":10,"correct_side":2,"subjID":"amalianavarretegallo30","gender":"1","school":"4","age":"9"},{"start_time":1552327696586,"click_time":1552327697391,"finger_time":1552327696912,"fix_duration":1153.3396398373854,"trial":8,"RT":326,"MT":479,"sideResp":2,"stimulus":[],"xmouse":[793,793,793,793,793,793,793,793,793,793,793,793,793,793,793,795,803,815,820,833,872,921,976,986,989,994,997,1002,1020,1030,1040,1042,1042,1042,1042,1043,1044,1044,1044,1051,1073],"ymouse":[634,634,634,634,634,633,632,631,630,630,630,629,628,622,607,598,569,531,510,469,342,203,95,73,55,30,23,14,0,0,0,0,0,2,19,26,30,30,30,31,38],"timestamp_mouse":[13,25,45,65,86,104,125,145,165,186,205,224,245,265,286,304,326,346,365,385,405,425,445,464,485,505,525,546,565,585,606,626,646,665,686,704,724,745,765,784,805],"xSR":741.5,"ySR":573.95,"xT1":424.9,"yT1":0,"xT2":1058.1,"yT2":0,"toosoon":0,"cond_shown":"Incongruent","ratio_trial":100,"L_num":10,"L_den":25,"R_num":9,"R_den":18,"correct_side":2,"subjID":"amalianavarretegallo30","gender":"1","school":"4","age":"9"},{"start_time":1552327698749,"click_time":1552327699233,"finger_time":1552327699052,"fix_duration":335.8213569719796,"trial":9,"RT":303,"MT":181,"sideResp":2,"stimulus":[],"xmouse":[800,800,801,801,802,803,803,803,803,804,806,807,810,815,825,843,850,852,860,893,922,961,1012,1054,1103],"ymouse":[610,609,609,609,608,608,607,607,607,606,605,603,600,592,577,541,517,509,484,400,333,271,205,147,60],"timestamp_mouse":[10,22,49,62,83,102,123,141,163,182,202,222,241,261,282,303,322,341,362,383,402,422,442,463,483],"xSR":741.5,"ySR":573.95,"xT1":424.9,"yT1":0,"xT2":1058.1,"yT2":0,"toosoon":0,"cond_shown":"Incongruent","ratio_trial":200,"L_num":11,"L_den":20,"R_num":3,"R_den":4,"correct_side":2,"subjID":"amalianavarretegallo30","gender":"1","school":"4","age":"9"},{"start_time":1552327701609,"click_time":1552327702031,"finger_time":1552327701932,"fix_duration":1455.7541054368141,"trial":10,"RT":323,"MT":99,"sideResp":1,"stimulus":[],"xmouse":[781,781,781,781,781,781,781,781,781,781,781,781,781,781,781,774,723,670,620,567,521,485],"ymouse":[608,608,608,608,608,608,608,608,608,608,608,608,608,606,603,582,504,442,383,280,154,33],"timestamp_mouse":[10,22,42,63,83,102,123,142,163,183,203,222,243,262,283,302,323,342,361,382,402,422],"xSR":741.5,"ySR":573.95,"xT1":424.9,"yT1":0,"xT2":1058.1,"yT2":0,"toosoon":0,"cond_shown":"Incongruent","ratio_trial":200,"L_num":3,"L_den":4,"R_num":11,"R_den":20,"correct_side":1,"subjID":"amalianavarretegallo30","gender":"1","school":"4","age":"9"},{"start_time":1552327703404,"click_time":1552327703771,"finger_time":1552327703692,"fix_duration":250,"trial":11,"RT":288,"MT":79,"sideResp":1,"stimulus":[],"xmouse":[793,793,793,793,793,793,793,793,792,792,792,792,792,792,785,764,726,575,466],"ymouse":[607,607,607,607,607,607,607,607,606,606,602,597,591,579,540,489,408,207,93],"timestamp_mouse":[9,32,48,67,86,108,127,146,168,188,207,228,246,268,288,307,327,347,367],"xSR":741.5,"ySR":573.95,"xT1":424.9,"yT1":0,"xT2":1058.1,"yT2":0,"toosoon":0,"cond_shown":"Incongruent","ratio_trial":300,"L_num":4,"L_den":20,"R_num":2,"R_den":4,"correct_side":2,"subjID":"amalianavarretegallo30","gender":"1","school":"4","age":"9"},{"start_time":1552327706530,"click_time":1552327706911,"finger_time":1552327706851,"fix_duration":1377.5870229775646,"trial":12,"RT":321,"MT":60,"sideResp":1,"stimulus":[],"xmouse":[755,755,755,755,755,755,755,755,755,755,755,755,755,755,755,755,724,619,571,461],"ymouse":[583,583,583,583,583,583,583,583,583,583,583,583,583,583,583,576,512,320,245,45],"timestamp_mouse":[9,21,41,65,82,101,122,141,161,181,202,222,240,260,282,301,321,341,362,381],"xSR":741.5,"ySR":573.95,"xT1":424.9,"yT1":0,"xT2":1058.1,"yT2":0,"toosoon":0,"cond_shown":"Incongruent","ratio_trial":200,"L_num":7,"L_den":15,"R_num":4,"R_den":6,"correct_side":2,"subjID":"amalianavarretegallo30","gender":"1","school":"4","age":"9"},{"start_time":1552327708215,"click_time":1552327708872,"finger_time":1552327708451,"fix_duration":381.7904109049802,"trial":13,"RT":236,"MT":421,"sideResp":2,"stimulus":[],"xmouse":[804,804,804,804,804,804,804,804,805,806,808,822,836,858,901,929,986,998,1007,1014,1024,1025,1025,1025,1025,1025,1026,1027,1028,1028,1028,1053,1106],"ymouse":[632,632,632,632,632,632,630,627,623,616,602,552,498,424,270,183,82,61,45,33,17,12,8,7,7,8,10,14,15,15,15,28,38],"timestamp_mouse":[31,36,57,75,95,117,136,157,175,197,216,236,255,276,296,317,336,357,377,397,416,435,456,475,496,517,536,556,575,596,616,636,657],"xSR":741.5,"ySR":573.95,"xT1":424.9,"yT1":0,"xT2":1058.1,"yT2":0,"toosoon":0,"cond_shown":"Congruent","ratio_trial":100,"L_num":9,"L_den":15,"R_num":8,"R_den":16,"correct_side":1,"subjID":"amalianavarretegallo30","gender":"1","school":"4","age":"9"},{"start_time":1552327732078,"click_time":1552327732752,"finger_time":1552327732492,"fix_duration":1162.2481655426293,"trial":14,"RT":414,"MT":260,"sideResp":1,"stimulus":[],"xmouse":[777,777,777,777,777,777,777,777,777,777,777,777,777,777,777,776,776,774,766,761,758,752,727,707,684,656,636,616,607,594,568,546,529,513],"ymouse":[631,631,631,631,631,631,631,631,631,631,631,631,631,631,631,628,625,616,593,579,568,542,462,419,369,317,287,238,212,181,134,109,96,87],"timestamp_mouse":[15,38,54,75,95,114,135,155,174,195,213,235,254,274,294,313,333,354,374,394,414,435,455,474,494,515,535,555,574,594,614,635,655,674],"xSR":741.5,"ySR":573.95,"xT1":424.9,"yT1":0,"xT2":1058.1,"yT2":0,"toosoon":0,"cond_shown":"Incongruent","ratio_trial":200,"L_num":3,"L_den":10,"R_num":1,"R_den":2,"correct_side":2,"subjID":"amalianavarretegallo30","gender":"1","school":"4","age":"9"},{"start_time":1552327737286,"click_time":1552327738332,"finger_time":1552327737572,"fix_duration":950.171507948672,"trial":15,"RT":286,"MT":760,"sideResp":2,"stimulus":[],"xmouse":[823,823,823,823,823,823,823,823,823,823,823,823,823,818,812,802,784,737,701,660,599,573,566,574,585,604,629,660,755,796,804,823,845,855,867,883,902,930,940,951,975,994,1013,1032,1034,1034,1034,1035,1035,1035,1037,1055,1064],"ymouse":[607,607,607,607,607,607,607,607,607,607,607,607,606,587,567,541,505,421,362,297,161,94,70,48,44,44,44,46,50,50,50,44,40,39,38,38,38,33,28,25,25,25,27,29,29,29,29,29,29,29,29,29,29],"timestamp_mouse":[7,27,51,66,86,106,126,145,167,186,207,227,246,267,286,306,326,346,366,387,407,426,446,467,486,505,526,546,566,586,606,625,647,666,686,707,727,746,766,787,806,827,846,866,886,906,927,946,966,986,1006,1026,1046],"xSR":741.5,"ySR":573.95,"xT1":424.9,"yT1":0,"xT2":1058.1,"yT2":0,"toosoon":0,"cond_shown":"Congruent","ratio_trial":200,"L_num":4,"L_den":8,"R_num":3,"R_den":10,"correct_side":1,"subjID":"amalianavarretegallo30","gender":"1","school":"4","age":"9"},{"start_time":1552327739753,"click_time":1552327740653,"finger_time":1552327740232,"fix_duration":317.0959028822816,"trial":16,"RT":479,"MT":421,"sideResp":1,"stimulus":[],"xmouse":[823,823,823,823,823,823,823,823,823,823,823,823,823,823,823,823,823,823,823,823,823,823,821,819,800,768,711,611,540,417,386,378,378,378,378,378,378,378,378,378,378,378,378,384,399,467],"ymouse":[608,608,608,608,608,608,608,608,608,608,608,608,608,608,608,608,608,608,608,608,608,608,608,604,559,486,385,196,37,0,0,0,0,0,0,0,0,0,0,0,0,0,2,12,21,38],"timestamp_mouse":[1,34,39,59,79,98,119,139,160,180,199,220,240,259,279,299,319,339,360,380,399,419,439,459,479,499,520,539,560,581,598,619,639,659,680,699,719,740,759,780,798,819,839,860,881,900],"xSR":741.5,"ySR":573.95,"xT1":424.9,"yT1":0,"xT2":1058.1,"yT2":0,"toosoon":0,"cond_shown":"Incongruent","ratio_trial":200,"L_num":14,"L_den":30,"R_num":6,"R_den":9,"correct_side":2,"subjID":"amalianavarretegallo30","gender":"1","school":"4","age":"9"},{"start_time":1552327742609,"click_time":1552327743352,"finger_time":1552327742893,"fix_duration":655.1656694409633,"trial":17,"RT":284,"MT":459,"sideResp":2,"stimulus":[],"xmouse":[780,780,780,780,780,780,780,780,780,780,780,780,787,791,802,820,820,820,820,820,824,850,871,894,910,919,932,953,979,1009,1034,1067,1072,1077,1082,1090,1099,1117],"ymouse":[615,615,615,615,615,615,615,615,615,615,615,615,600,589,559,461,323,292,269,256,248,236,226,216,208,203,201,198,194,190,185,172,166,157,145,125,111,84],"timestamp_mouse":[13,23,43,63,84,104,124,143,162,184,203,223,243,264,284,304,324,342,363,384,403,423,443,464,483,503,523,543,563,583,603,625,643,663,683,702,723,743],"xSR":741.5,"ySR":573.95,"xT1":424.9,"yT1":0,"xT2":1058.1,"yT2":0,"toosoon":0,"cond_shown":"Congruent","ratio_trial":300,"L_num":4,"L_den":20,"R_num":13,"R_den":26,"correct_side":2,"subjID":"amalianavarretegallo30","gender":"1","school":"4","age":"9"},{"start_time":1552327746169,"click_time":1552327746752,"finger_time":1552327746372,"fix_duration":1433.294655748923,"trial":18,"RT":203,"MT":380,"sideResp":1,"stimulus":[],"xmouse":[802,802,802,802,802,802,802,802,802,802,802,800,792,757,717,679,649,609,541,534,534,534,534,534,534,534,534,533,526,507],"ymouse":[574,574,574,574,574,574,574,574,574,574,564,556,532,441,362,258,147,17,0,0,0,0,0,0,0,0,0,0,4,30],"timestamp_mouse":[14,35,43,64,83,104,123,142,163,183,203,223,243,265,283,303,323,342,365,383,403,423,443,463,484,503,523,544,564,583],"xSR":741.5,"ySR":573.95,"xT1":424.9,"yT1":0,"xT2":1058.1,"yT2":0,"toosoon":0,"cond_shown":"Incongruent","ratio_trial":100,"L_num":12,"L_den":30,"R_num":2,"R_den":4,"correct_side":2,"subjID":"amalianavarretegallo30","gender":"1","school":"4","age":"9"},{"start_time":1552327748724,"click_time":1552327749932,"finger_time":1552327748973,"fix_duration":970.090850321767,"trial":19,"RT":249,"MT":959,"sideResp":2,"stimulus":[],"xmouse":[793,793,793,793,793,793,793,793,793,793,792,792,792,792,794,802,829,841,854,866,880,891,908,928,943,964,967,970,972,982,994,1026,1034,1038,1041,1051,1055,1055,1055,1055,1055,1055,1055,1055,1055,1055,1055,1055,1055,1055,1055,1055,1055,1055,1055,1055,1055,1055,1055,1057,1062],"ymouse":[634,634,634,630,625,621,614,612,610,601,595,582,566,540,506,449,341,305,271,234,189,164,130,102,86,71,71,70,70,70,70,66,64,63,63,63,63,63,63,63,63,63,63,63,63,63,63,63,63,63,63,63,63,63,63,63,63,63,63,63,63],"timestamp_mouse":[9,28,52,68,88,109,128,148,168,189,208,229,249,269,289,308,329,348,368,389,409,428,448,469,488,509,528,549,569,588,608,629,649,669,689,708,727,749,768,788,808,828,849,869,889,908,928,948,969,989,1009,1028,1048,1068,1088,1108,1127,1149,1168,1188,1208],"xSR":741.5,"ySR":573.95,"xT1":424.9,"yT1":0,"xT2":1058.1,"yT2":0,"toosoon":0,"cond_shown":"Congruent","ratio_trial":300,"L_num":1,"L_den":5,"R_num":6,"R_den":12,"correct_side":2,"subjID":"amalianavarretegallo30","gender":"1","school":"4","age":"9"},{"start_time":1552327752068,"click_time":1552327752453,"finger_time":1552327752333,"fix_duration":773.6704645880169,"trial":20,"RT":265,"MT":120,"sideResp":2,"stimulus":[],"xmouse":[835,835,835,835,835,835,835,835,835,835,835,835,836,849,868,895,926,958,1000,1068],"ymouse":[609,609,609,609,609,609,609,609,609,609,609,609,607,561,493,406,326,260,196,93],"timestamp_mouse":[12,35,45,64,84,105,123,145,165,184,203,223,245,265,284,304,324,344,364,385],"xSR":741.5,"ySR":573.95,"xT1":424.9,"yT1":0,"xT2":1058.1,"yT2":0,"toosoon":0,"cond_shown":"Incongruent","ratio_trial":100,"L_num":4,"L_den":8,"R_num":8,"R_den":20,"correct_side":1,"subjID":"amalianavarretegallo30","gender":"1","school":"4","age":"9"},{"start_time":1552327767581,"click_time":1552327768253,"finger_time":1552327767853,"fix_duration":265.60037269530034,"trial":21,"RT":272,"MT":400,"sideResp":2,"stimulus":[],"xmouse":[782,782,782,782,782,782,782,782,782,782,782,782,782,801,866,893,985,1098,1136,1153,1164,1164,1164,1164,1164,1164,1164,1164,1164,1164,1164,1164,1163,1158],"ymouse":[610,610,610,610,610,610,610,610,610,610,610,610,610,545,357,294,116,0,0,0,0,0,0,0,0,0,0,0,1,4,5,6,8,11],"timestamp_mouse":[11,36,52,71,92,111,132,151,172,192,212,232,251,272,291,311,331,352,372,391,411,432,452,471,491,512,531,551,571,591,612,631,653,672],"xSR":741.5,"ySR":573.95,"xT1":424.9,"yT1":0,"xT2":1058.1,"yT2":0,"toosoon":0,"cond_shown":"Congruent","ratio_trial":200,"L_num":16,"L_den":30,"R_num":9,"R_den":27,"correct_side":1,"subjID":"amalianavarretegallo30","gender":"1","school":"4","age":"9"},{"start_time":1552327772362,"click_time":1552327773133,"finger_time":1552327772732,"fix_duration":747.2693403399409,"trial":22,"RT":370,"MT":401,"sideResp":1,"stimulus":[],"xmouse":[810,810,810,810,810,810,809,809,809,809,809,809,809,809,809,807,801,788,777,746,713,678,648,628,584,554,548,532,528,523,522,520,519,516,516,516,516,516,513],"ymouse":[637,637,635,633,630,630,629,629,629,629,629,629,629,628,625,619,607,584,567,517,463,400,358,330,258,210,199,172,160,141,133,123,114,106,105,105,105,105,98],"timestamp_mouse":[12,35,50,70,90,109,130,150,170,190,210,231,250,271,290,311,331,350,370,391,411,429,451,470,490,511,530,550,570,590,610,630,650,670,690,710,730,751,771],"xSR":741.5,"ySR":573.95,"xT1":424.9,"yT1":0,"xT2":1058.1,"yT2":0,"toosoon":0,"cond_shown":"Congruent","ratio_trial":100,"L_num":3,"L_den":6,"R_num":2,"R_den":5,"correct_side":1,"subjID":"amalianavarretegallo30","gender":"1","school":"4","age":"9"},{"start_time":1552327780063,"click_time":1552327792293,"finger_time":1552327781693,"fix_duration":250,"trial":23,"RT":1630,"MT":10600,"sideResp":2,"stimulus":[],"xmouse":[821,821,821,821,821,821,821,821,821,821,821,821,821,821,821,821,821,821,821,821,821,821,821,821,821,821,821,821,821,821,821,821,821,821,821,821,821,821,821,821,821,821,821,821,821,821,821,821,821,821,821,821,821,821,821,821,821,821,821,821,821,821,821,821,821,821,821,821,821,821,821,821,821,821,821,821,821,821,821,821,821,821,822,822,822,822,821,821,817,815,815,815,819,837,892,918,936,952,964,966,966,960,951,924,912,900,891,883,876,865,861,860,859,859,859,859,859,859,859,858,858,857,854,851,843,839,834,830,824,822,819,818,816,809,805,803,800,799,797,796,796,796,796,796,796,796,796,796,796,796,796,796,796,796,796,796,796,796,796,796,796,796,796,796,796,796,796,796,796,796,796,796,796,796,796,796,795,793,779,778,778,778,778,778,778,778,778,778,778,780,781,786,790,794,797,797,797,798,800,805,808,810,810,810,810,811,812,815,818,818,810,809,802,799,799,799,799,799,799,798,796,795,793,790,790,790,790,790,790,790,790,791,791,791,791,791,790,790,790,790,791,791,791,791,791,791,791,791,791,792,793,795,796,796,797,797,797,797,797,804,811,817,823,826,826,826,826,826,826,826,828,828,830,830,830,830,830,830,830,830,830,830,830,830,830,830,830,830,830,830,830,830,830,830,830,830,830,830,830,830,830,830,830,830,830,830,830,830,830,830,830,830,830,830,830,830,830,830,830,830,830,830,830,830,830,830,830,830,830,830,830,830,830,830,830,830,830,830,830,830,830,830,830,830,830,830,830,830,830,830,830,830,830,830,830,830,830,830,830,830,830,830,830,830,830,830,830,830,830,830,830,830,830,830,830,830,830,830,830,830,830,830,826,825,825,825,825,823,823,823,823,823,823,823,823,823,823,823,823,823,823,823,823,823,823,823,823,823,823,823,823,823,823,823,823,823,823,823,823,823,823,823,823,823,823,823,823,823,823,823,823,823,823,823,823,823,823,823,823,823,823,823,823,823,823,823,823,823,823,823,823,823,823,823,823,823,823,823,823,823,823,823,823,823,823,823,823,823,823,819,813,811,802,785,783,781,780,780,780,780,780,780,780,780,780,780,780,780,776,772,771,770,770,770,770,770,770,770,770,770,770,770,770,770,770,770,770,770,770,770,770,770,770,770,770,770,770,769,769,769,769,769,769,769,769,769,769,769,769,769,769,769,769,769,769,813,824,832,845,845,844,844,844,844,844,844,844,844,844,844,844,844,844,854,873,891,899,910,934,943,954,967,982,990,1002,1008,1009,1010,1010,1013,1022,1040,1047,1050,1052,1052,1052,1052,1052,1052,1052,1052,1053,1055,1057,1057,1057,1057,1057,1058,1058,1058,1058,1058,1058,1058,1058,1058,1058,1058,1058,1058,1058,1058,1058,1058,1058,1058,1058,1058,1058,1069],"ymouse":[664,664,664,664,664,664,664,664,664,664,664,664,664,664,664,664,664,664,664,664,664,664,664,664,664,664,664,664,664,664,664,664,664,664,664,664,664,664,664,664,664,664,664,664,664,664,664,664,664,664,664,664,664,664,664,664,664,664,664,664,664,664,664,664,664,664,664,664,664,664,664,664,664,664,664,662,661,661,661,661,670,681,685,685,685,685,685,685,685,685,685,685,685,685,685,685,685,684,682,682,682,681,680,675,671,665,661,657,656,653,651,651,651,651,651,651,651,651,651,651,651,651,651,651,650,650,650,650,650,650,651,653,655,664,668,671,674,675,677,677,677,677,677,677,677,677,677,677,677,677,677,677,677,677,677,677,677,677,677,677,677,677,677,677,677,677,677,677,677,677,677,677,677,677,677,677,677,675,644,633,625,620,618,618,618,618,618,617,617,619,625,640,646,649,649,649,649,650,665,677,683,685,685,685,685,685,693,706,733,754,805,818,860,875,875,867,852,839,825,811,808,808,808,816,817,817,817,817,797,790,786,783,783,782,778,776,773,772,771,762,740,724,718,716,716,716,716,716,716,717,722,729,734,735,735,735,735,735,735,727,719,709,702,697,696,696,696,696,696,696,694,692,688,687,687,687,687,687,687,687,687,687,687,687,687,687,687,687,687,687,687,687,687,687,687,687,687,687,687,687,687,687,687,687,687,687,687,687,687,687,687,687,687,687,687,687,687,687,687,687,687,687,687,687,687,687,687,687,687,687,687,687,687,687,687,687,687,687,687,687,687,687,687,687,687,687,687,687,687,687,687,687,687,687,687,687,687,687,687,687,687,687,687,687,687,687,687,687,687,687,687,687,687,687,687,687,687,687,687,683,676,665,652,645,640,634,630,627,627,627,627,627,627,627,627,627,627,627,627,627,627,627,627,627,627,627,627,627,627,627,627,627,627,627,627,627,627,627,627,627,627,627,627,627,627,627,627,627,627,627,627,627,627,627,627,627,627,627,627,627,627,627,627,627,627,627,627,627,627,627,627,627,627,627,627,627,627,627,627,627,627,627,627,627,627,627,627,627,627,627,627,627,627,627,627,627,627,627,627,627,627,627,627,627,627,627,627,627,626,626,625,625,625,625,625,625,625,625,625,625,625,625,625,625,625,625,625,625,625,625,625,625,625,625,625,625,625,631,657,702,811,811,811,811,811,811,811,811,811,811,811,811,811,811,811,854,799,731,637,622,618,618,618,618,618,615,612,610,609,608,607,604,602,562,509,452,387,311,137,51,0,0,0,0,0,0,0,0,0,0,0,0,0,0,0,0,0,0,0,0,0,0,0,4,7,9,9,9,9,9,9,9,9,9,9,9,9,9,9,9,9,9,9,9,9,9,9,9,9,9,9,17],"timestamp_mouse":[13,35,49,68,89,110,130,149,169,189,210,230,249,270,289,310,329,350,370,389,410,430,448,470,489,510,530,549,569,589,610,630,649,668,688,710,729,750,769,789,810,830,850,870,889,909,929,949,970,989,1010,1028,1049,1070,1088,1109,1129,1148,1170,1189,1210,1230,1249,1270,1289,1308,1330,1350,1369,1388,1408,1430,1450,1470,1490,1509,1530,1549,1569,1589,1609,1630,1649,1669,1689,1708,1730,1750,1769,1789,1820,1828,1850,1869,1890,1909,1930,1949,1970,1988,2009,2029,2049,2069,2088,2110,2129,2149,2169,2190,2209,2230,2249,2269,2290,2309,2330,2350,2369,2388,2409,2429,2450,2469,2489,2509,2529,2549,2569,2589,2609,2630,2649,2669,2689,2710,2730,2749,2769,2790,2810,2829,2849,2870,2889,2910,2930,2950,2970,2989,3009,3028,3050,3069,3089,3109,3130,3150,3170,3189,3209,3230,3249,3270,3289,3309,3329,3350,3370,3389,3410,3429,3450,3470,3490,3510,3529,3549,3569,3590,3609,3630,3649,3669,3690,3709,3729,3750,3770,3788,3809,3830,3850,3869,3890,3910,3930,3948,3970,3990,4010,4028,4049,4070,4090,4108,4129,4150,4169,4189,4209,4229,4250,4269,4289,4309,4328,4350,4370,4389,4409,4429,4450,4469,4489,4510,4530,4549,4569,4588,4610,4628,4650,4670,4689,4708,4730,4750,4769,4789,4809,4829,4850,4869,4890,4909,4930,4949,4969,4989,5009,5029,5049,5069,5090,5109,5129,5149,5170,5188,5209,5230,5249,5269,5289,5310,5330,5349,5369,5390,5410,5430,5450,5469,5489,5510,5530,5550,5569,5590,5610,5629,5649,5669,5689,5710,5729,5749,5769,5790,5808,5829,5849,5869,5889,5910,5929,5949,5969,5989,6010,6029,6049,6069,6090,6108,6130,6149,6170,6188,6210,6230,6249,6270,6289,6309,6330,6348,6370,6388,6409,6429,6449,6470,6489,6509,6530,6549,6569,6590,6609,6629,6649,6670,6688,6709,6729,6750,6769,6790,6810,6830,6850,6870,6889,6909,6930,6948,6970,6988,7010,7029,7049,7070,7090,7109,7130,7148,7169,7189,7209,7228,7249,7270,7289,7310,7329,7350,7369,7389,7410,7430,7450,7469,7489,7509,7529,7549,7570,7589,7609,7630,7649,7669,7689,7709,7730,7748,7770,7790,7809,7830,7850,7870,7889,7910,7930,7949,7970,7989,8009,8029,8049,8069,8089,8109,8130,8148,8169,8189,8209,8229,8248,8270,8290,8310,8329,8348,8370,8389,8410,8429,8448,8470,8489,8509,8529,8548,8570,8589,8609,8629,8649,8668,8689,8710,8729,8749,8768,8789,8810,8829,8849,8870,8890,8910,8929,8950,8970,8990,9009,9030,9049,9070,9089,9110,9130,9150,9169,9188,9209,9230,9249,9269,9290,9309,9330,9350,9370,9389,9410,9429,9449,9470,9489,9510,9530,9550,9569,9589,9610,9628,9649,9670,9690,9710,9729,9749,9769,9789,9809,9830,9849,9869,9888,9910,9930,9950,9969,9989,10009,10029,10049,10069,10090,10110,10130,10148,10170,10189,10209,10229,10249,10270,10290,10310,10330,10349,10369,10389,10410,10429,10450,10469,10489,10509,10529,10549,10570,10590,10609,10630,10649,10669,10690,10709,10730,10750,10770,10789,10810,10828,10849,10870,10890,10910,10930,10948,10969,10990,11010,11030,11049,11069,11088,11109,11129,11149,11169,11189,11210,11230,11248,11269,11289,11310,11330,11349,11369,11389,11409,11430,11449,11469,11489,11509,11529,11550,11570,11589,11609,11628,11650,11669,11689,11709,11730,11749,11770,11790,11809,11829,11849,11869,11890,11910,11929,11949,11968,11990,12008,12031,12051,12070,12091,12111,12130,12151,12171,12190,12211,12230],"xSR":741.5,"ySR":573.95,"xT1":424.9,"yT1":0,"xT2":1058.1,"yT2":0,"toosoon":0,"cond_shown":"Incongruent","ratio_trial":200,"L_num":11,"L_den":20,"R_num":3,"R_den":4,"correct_side":2,"subjID":"amalianavarretegallo30","gender":"1","school":"4","age":"9"},{"start_time":1552327796147,"click_time":1552327796814,"finger_time":1552327796473,"fix_duration":252.28154821218286,"trial":24,"RT":326,"MT":341,"sideResp":1,"stimulus":[],"xmouse":[772,772,772,772,772,772,772,772,772,772,772,772,772,771,771,771,766,758,744,733,718,708,698,683,652,619,611,601,587,560,547,535,527,523],"ymouse":[608,608,608,608,608,608,608,608,608,608,608,608,608,606,603,585,554,526,489,451,393,360,331,300,256,198,188,172,146,113,100,91,85,81],"timestamp_mouse":[12,36,47,66,86,106,126,146,166,187,206,226,247,267,286,307,326,346,367,386,407,426,446,466,486,506,526,547,566,586,606,626,646,667],"xSR":741.5,"ySR":573.95,"xT1":424.9,"yT1":0,"xT2":1058.1,"yT2":0,"toosoon":0,"cond_shown":"Congruent","ratio_trial":200,"L_num":16,"L_den":30,"R_num":9,"R_den":27,"correct_side":1,"subjID":"amalianavarretegallo30","gender":"1","school":"4","age":"9"},{"start_time":1552327799010,"click_time":1552327799653,"finger_time":1552327799273,"fix_duration":1034.303264703882,"trial":25,"RT":263,"MT":380,"sideResp":1,"stimulus":[],"xmouse":[795,795,795,795,795,795,795,795,795,795,794,791,782,775,748,723,695,661,645,631,619,587,569,548,542,540,540,546,546,548,547,533,514],"ymouse":[626,626,626,626,626,626,626,626,626,626,618,611,577,551,488,443,404,365,352,341,330,298,280,256,243,233,220,184,143,117,95,76,72],"timestamp_mouse":[14,24,43,63,84,104,124,143,164,183,204,224,243,263,283,304,324,344,363,384,403,424,443,464,483,503,523,544,564,584,604,623,643],"xSR":741.5,"ySR":573.95,"xT1":424.9,"yT1":0,"xT2":1058.1,"yT2":0,"toosoon":0,"cond_shown":"Congruent","ratio_trial":200,"L_num":12,"L_den":15,"R_num":6,"R_den":10,"correct_side":1,"subjID":"amalianavarretegallo30","gender":"1","school":"4","age":"9"},{"start_time":1552327802188,"click_time":1552327803234,"finger_time":1552327802433,"fix_duration":711.4099656824982,"trial":26,"RT":245,"MT":801,"sideResp":2,"stimulus":[],"xmouse":[799,799,799,799,799,799,799,799,799,799,797,789,734,685,648,622,595,590,591,594,609,637,724,786,854,963,1041,1126,1145,1159,1164,1165,1165,1165,1165,1165,1165,1165,1165,1165,1165,1165,1165,1165,1165,1165,1165,1165,1165,1165,1165,1165,1157],"ymouse":[618,618,618,618,618,618,618,618,618,616,614,608,559,512,469,430,384,369,360,355,348,340,321,297,263,186,106,0,0,0,0,0,0,0,0,0,0,0,0,5,8,8,8,8,8,8,8,8,8,8,8,8,14],"timestamp_mouse":[12,34,46,65,86,106,126,146,165,185,205,226,245,265,285,305,326,345,366,385,405,426,445,465,485,505,526,547,568,585,606,625,646,665,686,705,726,745,765,785,806,825,846,866,885,905,925,945,966,985,1006,1025,1046],"xSR":741.5,"ySR":573.95,"xT1":424.9,"yT1":0,"xT2":1058.1,"yT2":0,"toosoon":0,"cond_shown":"Incongruent","ratio_trial":300,"L_num":2,"L_den":4,"R_num":6,"R_den":30,"correct_side":1,"subjID":"amalianavarretegallo30","gender":"1","school":"4","age":"9"},{"start_time":1552327805570,"click_time":1552327805953,"finger_time":1552327805834,"fix_duration":1054.84726879333,"trial":27,"RT":264,"MT":119,"sideResp":1,"stimulus":[],"xmouse":[785,785,785,785,785,785,785,785,785,785,785,784,784,782,769,730,711,626,563,509],"ymouse":[579,579,579,579,579,579,579,579,579,579,578,578,576,572,545,487,460,323,208,77],"timestamp_mouse":[14,24,46,63,83,104,123,143,163,183,203,223,243,264,283,303,324,343,364,383],"xSR":741.5,"ySR":573.95,"xT1":424.9,"yT1":0,"xT2":1058.1,"yT2":0,"toosoon":0,"cond_shown":"Incongruent","ratio_trial":300,"L_num":1,"L_den":2,"R_num":2,"R_den":10,"correct_side":1,"subjID":"amalianavarretegallo30","gender":"1","school":"4","age":"9"},{"start_time":1552327807721,"click_time":1552327808394,"finger_time":1552327808034,"fix_duration":685.680756636623,"trial":28,"RT":313,"MT":360,"sideResp":2,"stimulus":[],"xmouse":[783,783,783,783,783,783,783,783,783,783,783,783,784,785,786,795,801,810,817,837,872,908,952,996,1037,1046,1083,1095,1103,1104,1104,1104,1105,1105],"ymouse":[582,582,583,583,583,582,582,582,582,582,582,582,579,577,575,563,550,529,503,424,262,173,96,35,0,0,0,0,0,0,0,0,0,3],"timestamp_mouse":[12,42,52,74,93,113,133,154,172,192,213,232,252,273,293,313,332,352,373,393,413,432,452,472,493,512,532,552,573,592,613,633,652,673],"xSR":741.5,"ySR":573.95,"xT1":424.9,"yT1":0,"xT2":1058.1,"yT2":0,"toosoon":0,"cond_shown":"Incongruent","ratio_trial":300,"L_num":8,"L_den":10,"R_num":9,"R_den":18,"correct_side":1,"subjID":"amalianavarretegallo30","gender":"1","school":"4","age":"9"},{"start_time":1552327810578,"click_time":1552327811693,"finger_time":1552327810834,"fix_duration":1083.4980862532989,"trial":29,"RT":256,"MT":859,"sideResp":2,"stimulus":[],"xmouse":[828,827,826,825,824,821,819,815,812,810,806,801,789,763,739,733,719,711,687,674,665,663,663,662,662,662,662,657,647,650,666,695,750,864,900,923,925,925,923,923,925,930,958,972,987,989,991,994,1003,1006,1014,1021,1026,1034,1050,1060],"ymouse":[597,597,597,597,597,596,595,593,591,589,585,575,557,521,487,478,448,423,346,314,292,284,282,272,261,240,213,175,108,102,100,100,108,123,123,113,105,98,81,76,72,65,54,50,44,43,41,39,36,34,31,29,28,25,22,21],"timestamp_mouse":[15,36,58,76,95,116,135,155,176,197,216,236,256,276,297,315,335,355,376,395,416,437,456,475,495,515,535,555,576,595,615,636,655,675,695,715,736,755,776,795,816,835,855,875,895,916,935,955,975,996,1016,1035,1055,1076,1096,1115],"xSR":741.5,"ySR":573.95,"xT1":424.9,"yT1":0,"xT2":1058.1,"yT2":0,"toosoon":0,"cond_shown":"Congruent","ratio_trial":300,"L_num":2,"L_den":20,"R_num":10,"R_den":25,"correct_side":2,"subjID":"amalianavarretegallo30","gender":"1","school":"4","age":"9"},{"start_time":1552327813600,"click_time":1552327814414,"finger_time":1552327813974,"fix_duration":983.5809614947543,"trial":30,"RT":374,"MT":440,"sideResp":1,"stimulus":[],"xmouse":[805,805,805,805,805,805,805,805,805,805,805,805,805,805,804,803,800,794,784,766,737,678,659,648,644,637,622,611,599,588,581,576,574,574,573,567,564,541,512,473,453],"ymouse":[606,605,605,605,604,604,604,604,604,604,603,602,602,602,600,598,588,575,560,539,507,433,405,383,365,329,274,252,231,216,207,186,173,162,152,141,136,125,113,101,92],"timestamp_mouse":[13,47,54,74,93,113,133,154,174,193,214,234,254,273,294,313,334,354,374,393,413,434,453,474,493,513,534,553,573,594,614,634,653,674,695,714,734,754,773,793,814],"xSR":741.5,"ySR":573.95,"xT1":424.9,"yT1":0,"xT2":1058.1,"yT2":0,"toosoon":0,"cond_shown":"Congruent","ratio_trial":200,"L_num":8,"L_den":15,"R_num":3,"R_den":9,"correct_side":1,"subjID":"amalianavarretegallo30","gender":"1","school":"4","age":"9"},{"start_time":1552327816548,"click_time":1552327817034,"finger_time":1552327816853,"fix_duration":1111.9307821741004,"trial":31,"RT":305,"MT":181,"sideResp":1,"stimulus":[],"xmouse":[781,781,781,781,781,781,781,781,781,781,781,781,781,781,781,775,756,741,683,648,597,577,559,542,501],"ymouse":[625,625,625,624,624,623,623,623,623,621,620,617,613,607,597,562,508,481,399,356,280,236,188,131,32],"timestamp_mouse":[13,39,46,65,86,105,125,146,166,185,205,226,246,266,285,305,325,346,365,385,405,426,446,465,486],"xSR":741.5,"ySR":573.95,"xT1":424.9,"yT1":0,"xT2":1058.1,"yT2":0,"toosoon":0,"cond_shown":"Congruent","ratio_trial":100,"L_num":6,"L_den":20,"R_num":5,"R_den":25,"correct_side":1,"subjID":"amalianavarretegallo30","gender":"1","school":"4","age":"9"},{"start_time":1552327818504,"click_time":1552327819234,"finger_time":1552327818653,"fix_duration":548.9159131299909,"trial":32,"RT":149,"MT":581,"sideResp":2,"stimulus":[],"xmouse":[802,802,802,803,803,804,806,811,814,815,821,832,841,850,858,866,875,905,918,929,936,947,951,956,963,970,980,983,990,1008,1019,1031,1049,1054,1061,1067,1082],"ymouse":[600,599,596,594,591,588,585,572,568,563,551,515,490,458,434,407,380,301,267,231,215,187,177,168,160,153,148,146,144,139,138,136,131,128,122,114,87],"timestamp_mouse":[9,31,50,70,89,110,129,149,169,190,209,230,249,269,290,309,330,350,369,389,410,429,449,469,489,509,530,549,569,590,609,629,649,669,690,710,730],"xSR":741.5,"ySR":573.95,"xT1":424.9,"yT1":0,"xT2":1058.1,"yT2":0,"toosoon":0,"cond_shown":"Congruent","ratio_trial":100,"L_num":4,"L_den":8,"R_num":6,"R_den":10,"correct_side":2,"subjID":"amalianavarretegallo30","gender":"1","school":"4","age":"9"},{"start_time":1552327820951,"click_time":1552327821553,"finger_time":1552327821153,"fix_duration":696.679756894107,"trial":33,"RT":202,"MT":400,"sideResp":1,"stimulus":[],"xmouse":[749,749,749,750,750,751,751,752,752,752,754,756,758,760,763,755,726,682,590,536,497,495,493,491,480,468,455,452,452,452,453],"ymouse":[601,599,599,596,593,584,582,581,580,579,573,563,554,536,512,422,337,232,92,28,0,0,0,0,0,0,0,0,0,0,5],"timestamp_mouse":[2,38,42,62,82,102,122,143,163,182,202,222,242,263,283,302,322,342,362,384,402,422,442,462,482,502,523,543,563,582,602],"xSR":741.5,"ySR":573.95,"xT1":424.9,"yT1":0,"xT2":1058.1,"yT2":0,"toosoon":0,"cond_shown":"Incongruent","ratio_trial":300,"L_num":4,"L_den":20,"R_num":2,"R_den":4,"correct_side":2,"subjID":"amalianavarretegallo30","gender":"1","school":"4","age":"9"},{"start_time":1552327823050,"click_time":1552327823634,"finger_time":1552327823314,"fix_duration":555.7748900542833,"trial":34,"RT":264,"MT":320,"sideResp":2,"stimulus":[],"xmouse":[781,781,781,782,783,783,784,784,784,784,785,785,787,794,814,825,846,866,891,958,990,1018,1077,1093,1094,1094,1094,1094,1095,1095],"ymouse":[601,601,601,601,600,600,600,599,598,597,594,593,588,571,522,491,440,382,325,161,56,0,0,0,0,0,0,0,0,1],"timestamp_mouse":[13,35,43,64,84,103,124,143,163,183,203,223,244,264,284,303,323,343,364,384,404,425,444,463,484,504,523,544,563,584],"xSR":741.5,"ySR":573.95,"xT1":424.9,"yT1":0,"xT2":1058.1,"yT2":0,"toosoon":0,"cond_shown":"Incongruent","ratio_trial":100,"L_num":9,"L_den":18,"R_num":6,"R_den":10,"correct_side":2,"subjID":"amalianavarretegallo30","gender":"1","school":"4","age":"9"},{"start_time":1552327825937,"click_time":1552327826513,"finger_time":1552327826274,"fix_duration":1402.8596482298808,"trial":35,"RT":337,"MT":239,"sideResp":1,"stimulus":[],"xmouse":[782,782,782,782,782,782,782,782,782,782,782,782,782,779,770,757,721,694,661,606,569,534,497,472,466,466,466,467,469],"ymouse":[620,620,620,620,620,620,620,620,620,619,617,616,616,613,606,596,568,544,508,390,276,144,0,0,0,0,0,0,1],"timestamp_mouse":[16,37,57,76,96,117,136,156,177,196,216,236,256,277,296,316,337,356,376,397,416,436,457,476,498,516,537,556,576],"xSR":741.5,"ySR":573.95,"xT1":424.9,"yT1":0,"xT2":1058.1,"yT2":0,"toosoon":0,"cond_shown":"Congruent","ratio_trial":200,"L_num":20,"L_den":25,"R_num":9,"R_den":15,"correct_side":1,"subjID":"amalianavarretegallo30","gender":"1","school":"4","age":"9"},{"start_time":1552327827806,"click_time":1552327828234,"finger_time":1552327828094,"fix_duration":250,"trial":36,"RT":288,"MT":140,"sideResp":1,"stimulus":[],"xmouse":[751,751,751,751,751,751,751,751,751,751,751,751,751,748,717,687,626,598,573,555,533,493],"ymouse":[649,649,649,649,649,649,649,649,649,649,649,649,648,639,595,556,452,387,321,258,185,97],"timestamp_mouse":[7,34,47,68,87,108,127,148,168,187,207,228,247,267,288,308,329,347,368,387,407,427],"xSR":741.5,"ySR":573.95,"xT1":424.9,"yT1":0,"xT2":1058.1,"yT2":0,"toosoon":0,"cond_shown":"Congruent","ratio_trial":300,"L_num":9,"L_den":10,"R_num":3,"R_den":5,"correct_side":1,"subjID":"amalianavarretegallo30","gender":"1","school":"4","age":"9"},{"start_time":1552327830074,"click_time":1552327830714,"finger_time":1552327830334,"fix_duration":1098.8277801291426,"trial":37,"RT":260,"MT":380,"sideResp":1,"stimulus":[],"xmouse":[791,791,791,791,791,791,791,791,791,791,791,791,790,764,718,652,584,540,513,512,512,512,512,511,511,511,508,504,496,477,469,466,463],"ymouse":[602,602,602,602,602,602,602,602,602,602,602,602,600,562,498,411,335,284,242,233,229,219,213,203,199,192,181,168,151,118,108,101,95],"timestamp_mouse":[2,19,42,60,81,100,120,140,160,179,200,219,240,260,279,299,319,341,360,379,399,419,439,460,479,499,520,539,559,579,599,620,640],"xSR":741.5,"ySR":573.95,"xT1":424.9,"yT1":0,"xT2":1058.1,"yT2":0,"toosoon":0,"cond_shown":"Congruent","ratio_trial":100,"L_num":8,"L_den":16,"R_num":2,"R_den":5,"correct_side":1,"subjID":"amalianavarretegallo30","gender":"1","school":"4","age":"9"},{"start_time":1552327831827,"click_time":1552327832695,"finger_time":1552327832154,"fix_duration":250,"trial":38,"RT":327,"MT":541,"sideResp":2,"stimulus":[],"xmouse":[765,765,765,765,765,765,765,765,765,765,765,765,765,765,764,749,739,735,727,723,723,752,785,831,869,899,939,953,965,975,986,993,1000,1003,1004,1004,1004,1004,1005,1006,1020,1035,1057,1064],"ymouse":[614,614,614,614,614,614,614,614,614,614,614,614,614,614,610,583,564,546,521,495,468,391,349,309,286,268,236,220,201,177,97,66,47,36,35,34,33,31,29,28,23,21,18,17],"timestamp_mouse":[6,37,47,66,87,106,126,147,166,186,208,226,247,266,286,307,327,346,366,387,407,426,446,466,486,506,526,546,566,587,607,626,646,666,687,706,728,746,766,786,806,826,847,868],"xSR":741.5,"ySR":573.95,"xT1":424.9,"yT1":0,"xT2":1058.1,"yT2":0,"toosoon":0,"cond_shown":"Congruent","ratio_trial":300,"L_num":1,"L_den":5,"R_num":11,"R_den":22,"correct_side":2,"subjID":"amalianavarretegallo30","gender":"1","school":"4","age":"9"},{"start_time":1552327834151,"click_time":1552327835035,"finger_time":1552327834434,"fix_duration":517.411487626435,"trial":39,"RT":283,"MT":601,"sideResp":1,"stimulus":[],"xmouse":[761,761,761,761,761,761,761,761,761,761,762,763,763,763,742,714,675,650,626,612,571,559,555,555,555,555,555,554,552,546,541,540,539,539,539,539,539,539,539,539,539,539,539,537,505],"ymouse":[625,625,625,625,623,621,620,619,619,619,617,614,608,591,486,404,313,224,93,19,0,0,0,0,0,2,8,10,17,28,33,36,38,38,38,38,38,38,38,38,38,38,38,39,39],"timestamp_mouse":[13,36,42,62,83,104,123,142,163,182,203,222,242,262,283,302,323,343,363,382,402,424,442,463,483,502,522,542,563,585,602,622,642,662,683,702,723,743,762,783,802,823,843,862,884],"xSR":741.5,"ySR":573.95,"xT1":424.9,"yT1":0,"xT2":1058.1,"yT2":0,"toosoon":0,"cond_shown":"Congruent","ratio_trial":100,"L_num":2,"L_den":5,"R_num":11,"R_den":22,"correct_side":2,"subjID":"amalianavarretegallo30","gender":"1","school":"4","age":"9"},{"start_time":1552327836386,"click_time":1552327837035,"finger_time":1552327836653,"fix_duration":250,"trial":40,"RT":267,"MT":382,"sideResp":2,"stimulus":[],"xmouse":[801,801,801,801,801,801,803,811,817,823,826,832,836,855,869,894,919,966,977,985,989,989,989,991,991,996,1002,1008,1018,1025,1032,1042,1067],"ymouse":[643,643,643,643,643,643,643,630,617,604,596,588,580,549,527,468,412,296,256,216,185,158,132,105,101,87,77,64,40,31,25,22,18],"timestamp_mouse":[11,33,48,67,88,108,128,148,167,187,207,227,247,267,287,307,327,347,367,388,408,427,447,467,487,507,528,548,568,587,607,627,648],"xSR":741.5,"ySR":573.95,"xT1":424.9,"yT1":0,"xT2":1058.1,"yT2":0,"toosoon":0,"cond_shown":"Incongruent","ratio_trial":300,"L_num":1,"L_den":2,"R_num":2,"R_den":10,"correct_side":1,"subjID":"amalianavarretegallo30","gender":"1","school":"4","age":"9"},{"start_time":1552327838632,"click_time":1552327839375,"finger_time":1552327838874,"fix_duration":637.7256125175659,"trial":41,"RT":242,"MT":501,"sideResp":2,"stimulus":[],"xmouse":[803,804,804,804,805,806,807,808,808,809,813,816,822,828,841,876,891,906,917,929,942,965,971,974,976,978,981,988,1000,1009,1041,1053,1062,1081,1088,1092,1094,1094],"ymouse":[638,637,637,634,633,627,623,620,617,615,601,586,565,540,455,273,229,200,183,168,155,136,124,118,115,112,111,110,109,109,109,109,108,106,105,103,100,94],"timestamp_mouse":[2,33,41,61,81,102,122,141,161,182,202,222,242,261,281,302,321,341,362,382,401,421,441,461,482,502,521,541,561,582,601,621,642,661,681,701,722,742],"xSR":741.5,"ySR":573.95,"xT1":424.9,"yT1":0,"xT2":1058.1,"yT2":0,"toosoon":0,"cond_shown":"Incongruent","ratio_trial":200,"L_num":7,"L_den":10,"R_num":14,"R_den":28,"correct_side":1,"subjID":"amalianavarretegallo30","gender":"1","school":"4","age":"9"},{"start_time":1552327840564,"click_time":1552327841193,"finger_time":1552327840833,"fix_duration":387.0350771739295,"trial":42,"RT":269,"MT":360,"sideResp":1,"stimulus":[],"xmouse":[815,812,802,801,800,798,795,792,786,783,782,780,777,761,745,694,676,644,626,620,620,620,620,620,612,610,610,608,589,568,532,500],"ymouse":[634,633,632,631,630,627,622,617,599,593,590,587,582,559,542,498,483,448,406,372,343,314,285,261,207,177,163,148,116,97,79,65],"timestamp_mouse":[10,34,49,69,89,110,130,149,169,191,210,229,249,269,289,309,330,351,370,389,410,430,450,470,489,510,529,549,570,589,609,629],"xSR":741.5,"ySR":573.95,"xT1":424.9,"yT1":0,"xT2":1058.1,"yT2":0,"toosoon":0,"cond_shown":"Congruent","ratio_trial":300,"L_num":24,"L_den":30,"R_num":2,"R_den":4,"correct_side":1,"subjID":"amalianavarretegallo30","gender":"1","school":"4","age":"9"},{"start_time":1552327847233,"click_time":1552327847973,"finger_time":1552327847673,"fix_duration":737.3475347496482,"trial":43,"RT":440,"MT":300,"sideResp":2,"stimulus":[],"xmouse":[794,794,794,794,794,794,794,794,794,794,794,794,794,794,794,794,794,794,794,802,824,837,891,953,1015,1100,1133,1158,1164,1164,1161,1160,1158,1157,1157,1149,1138,1134],"ymouse":[647,647,647,647,647,647,647,647,647,647,647,647,647,647,647,647,647,647,647,634,599,580,553,527,502,396,337,261,212,186,154,147,141,137,137,119,104,98],"timestamp_mouse":[10,20,40,60,80,100,120,140,161,181,200,220,241,260,281,301,322,341,361,381,400,422,440,460,481,500,520,540,560,581,600,620,640,660,681,700,720,740],"xSR":741.5,"ySR":573.95,"xT1":424.9,"yT1":0,"xT2":1058.1,"yT2":0,"toosoon":0,"cond_shown":"Congruent","ratio_trial":100,"L_num":1,"L_den":2,"R_num":18,"R_den":30,"correct_side":2,"subjID":"amalianavarretegallo30","gender":"1","school":"4","age":"9"},{"start_time":1552327850853,"click_time":1552327851734,"finger_time":1552327851154,"fix_duration":1356.1461430434367,"trial":44,"RT":301,"MT":580,"sideResp":2,"stimulus":[],"xmouse":[818,818,818,818,818,818,818,818,818,818,818,818,818,824,841,849,855,857,858,858,865,871,881,888,912,924,936,954,966,983,988,989,993,994,1000,1003,1006,1012,1016,1022,1030,1039,1043,1047,1061],"ymouse":[635,635,635,635,635,635,635,635,635,635,635,635,634,621,581,560,537,521,499,470,407,382,360,349,323,308,288,220,156,95,85,77,67,61,51,46,43,40,38,38,36,34,34,34,31],"timestamp_mouse":[10,35,40,61,80,100,121,141,160,180,202,221,241,261,280,301,320,340,360,381,400,420,440,461,481,500,520,540,560,581,600,620,640,661,680,700,721,740,760,781,800,821,840,861,881],"xSR":741.5,"ySR":573.95,"xT1":424.9,"yT1":0,"xT2":1058.1,"yT2":0,"toosoon":0,"cond_shown":"Incongruent","ratio_trial":300,"L_num":2,"L_den":4,"R_num":6,"R_den":30,"correct_side":1,"subjID":"amalianavarretegallo30","gender":"1","school":"4","age":"9"},{"start_time":1552327853452,"click_time":1552327854334,"finger_time":1552327853734,"fix_duration":696.1986286031629,"trial":45,"RT":282,"MT":600,"sideResp":1,"stimulus":[],"xmouse":[777,777,777,778,778,778,778,778,778,778,778,778,778,778,759,732,696,665,646,641,641,641,643,643,643,643,644,645,645,644,637,624,599,596,593,569,554,546,541,539,539,539,537,534,524],"ymouse":[585,585,585,585,585,585,585,585,585,585,585,585,585,580,527,470,414,358,322,276,251,220,193,181,165,159,153,149,146,136,129,123,114,114,113,109,105,103,100,98,97,94,90,85,78],"timestamp_mouse":[10,38,43,61,81,102,121,142,161,182,201,222,241,261,282,301,322,342,362,382,401,421,441,461,482,501,522,541,562,581,601,621,641,662,681,702,721,741,761,781,801,821,841,862,882],"xSR":741.5,"ySR":573.95,"xT1":424.9,"yT1":0,"xT2":1058.1,"yT2":0,"toosoon":0,"cond_shown":"Incongruent","ratio_trial":100,"L_num":13,"L_den":26,"R_num":6,"R_den":10,"correct_side":2,"subjID":"amalianavarretegallo30","gender":"1","school":"4","age":"9"},{"start_time":1552327868857,"click_time":1552327869954,"finger_time":1552327869213,"fix_duration":1120.06641664394,"trial":46,"RT":356,"MT":741,"sideResp":2,"stimulus":[],"xmouse":[767,767,767,767,767,767,767,767,767,767,767,767,767,767,767,763,763,756,711,681,658,648,648,675,687,743,743,905,1047,1068,1105,1118,1133,1155,1162,1168,1168,1168,1168,1168,1168,1168,1168,1168,1168,1168,1168,1168,1168,1168,1168,1168,1168,1165,1144],"ymouse":[616,616,616,616,616,616,616,616,616,616,616,616,616,616,616,609,597,545,350,242,156,91,64,23,10,0,0,0,0,0,0,0,0,0,0,0,0,0,0,0,0,0,0,0,0,0,0,0,0,0,0,0,0,0,2],"timestamp_mouse":[18,40,58,76,96,117,136,157,176,198,217,236,256,277,296,317,337,356,376,396,416,437,457,476,496,516,536,556,577,596,616,637,657,676,696,717,737,756,777,797,817,837,857,877,896,917,938,956,978,997,1016,1036,1057,1077,1097],"xSR":741.5,"ySR":573.95,"xT1":424.9,"yT1":0,"xT2":1058.1,"yT2":0,"toosoon":0,"cond_shown":"Incongruent","ratio_trial":300,"L_num":7,"L_den":10,"R_num":8,"R_den":20,"correct_side":1,"subjID":"amalianavarretegallo30","gender":"1","school":"4","age":"9"},{"start_time":1552327879492,"click_time":1552327880234,"finger_time":1552327879493,"fix_duration":1015.6251098152675,"trial":47,"RT":1,"MT":741,"sideResp":2,"stimulus":[],"xmouse":[805,811,818,826,832,838,842,854,856,858,861,863,866,866,866,866,870,896,928,942,982,1013,1071,1093,1113,1134,1144,1152,1161,1170,1172,1175,1175,1175,1175,1173,1167,1145],"ymouse":[572,560,543,529,513,495,478,435,416,403,394,388,375,369,364,360,353,338,323,313,280,245,175,151,136,129,123,117,109,94,88,72,58,55,55,55,55,54],"timestamp_mouse":[1,30,42,61,81,102,121,142,162,181,201,222,241,261,282,302,322,341,361,382,402,422,441,461,481,501,523,541,562,581,603,621,641,661,682,702,721,741],"xSR":741.5,"ySR":573.95,"xT1":424.9,"yT1":0,"xT2":1058.1,"yT2":0,"toosoon":0,"cond_shown":"Incongruent","ratio_trial":100,"L_num":17,"L_den":30,"R_num":10,"R_den":15,"correct_side":2,"subjID":"amalianavarretegallo30","gender":"1","school":"4","age":"9"},{"start_time":1552327882200,"click_time":1552327882853,"finger_time":1552327882534,"fix_duration":464.2426593603334,"trial":48,"RT":334,"MT":319,"sideResp":1,"stimulus":[],"xmouse":[764,762,759,757,755,755,754,754,753,753,753,753,753,753,753,751,724,695,662,634,611,590,579,563,561,558,558,558,558,558,558,556,524],"ymouse":[615,616,618,619,620,620,621,621,623,623,623,623,623,623,621,606,540,462,387,307,219,100,62,26,21,16,15,14,14,14,14,16,25],"timestamp_mouse":[13,47,54,73,94,113,134,154,173,193,214,233,254,273,294,313,334,353,373,393,413,434,453,473,494,513,534,553,573,594,613,634,653],"xSR":741.5,"ySR":573.95,"xT1":424.9,"yT1":0,"xT2":1058.1,"yT2":0,"toosoon":0,"cond_shown":"Congruent","ratio_trial":300,"L_num":1,"L_den":5,"R_num":3,"R_den":6,"correct_side":2,"subjID":"amalianavarretegallo30","gender":"1","school":"4","age":"9"},{"start_time":1552327972523,"click_time":1552327974476,"finger_time":1552327972535,"fix_duration":526.8289551272894,"trial":49,"RT":12,"MT":1941,"sideResp":2,"stimulus":[],"xmouse":[811,811,811,811,811,811,811,811,811,811,811,811,811,811,811,811,811,811,811,811,811,811,811,811,811,811,811,811,811,811,811,811,811,811,811,811,811,811,811,811,811,811,811,811,811,811,811,811,811,811,811,811,811,811,811,811,811,811,811,811,811,811,811,811,811,811,811,811,811,834,977,1037,1037,1037,1037,1037,1037,1037,1037,1037,1037,1037,1037,1037,1437,1400,1373,1347,1324,1306,1282,1268,1254,1242,1227,1195,1159,1144],"ymouse":[632,632,632,632,632,632,632,632,632,632,632,632,632,632,632,632,632,632,632,632,632,632,632,632,632,632,632,632,632,632,632,632,632,632,632,632,632,632,632,632,632,632,632,632,632,632,632,632,632,632,632,632,632,632,632,632,632,632,632,632,632,632,632,632,632,632,632,632,621,544,201,67,67,67,67,67,67,67,67,67,67,67,67,67,8,18,18,18,18,16,6,3,3,7,13,34,61,69],"timestamp_mouse":[12,48,52,72,92,113,133,153,173,193,212,232,252,273,293,313,332,352,373,392,412,432,452,472,493,513,533,553,573,593,612,632,652,673,692,712,733,752,773,793,812,832,853,873,892,913,932,953,973,993,1013,1032,1054,1072,1093,1113,1133,1153,1172,1193,1212,1232,1252,1272,1292,1312,1332,1353,1373,1393,1412,1432,1452,1473,1492,1513,1532,1552,1572,1592,1612,1633,1652,1672,1692,1713,1732,1753,1772,1793,1813,1833,1853,1872,1893,1913,1931,1953],"xSR":741.5,"ySR":573.95,"xT1":424.9,"yT1":0,"xT2":1058.1,"yT2":0,"toosoon":0,"cond_shown":"Incongruent","ratio_trial":200,"L_num":7,"L_den":15,"R_num":6,"R_den":9,"correct_side":2,"subjID":"amalianavarretegallo30","gender":"1","school":"4","age":"9"},{"start_time":1552327975969,"click_time":1552327978236,"finger_time":1552327977435,"fix_duration":932.7501423924001,"trial":50,"RT":1466,"MT":801,"sideResp":2,"stimulus":[],"xmouse":[782,782,782,782,782,782,782,782,782,782,782,782,782,782,782,782,782,782,782,782,782,782,782,782,782,782,782,782,782,782,782,782,782,782,782,782,782,782,782,782,782,782,782,782,782,782,782,782,782,782,782,782,782,782,782,782,782,782,782,782,782,782,782,782,782,782,782,782,787,799,808,819,828,844,844,844,843,841,838,803,775,759,753,750,750,751,751,747,732,720,706,687,669,650,649,649,671,708,886,968,1025,1053,1072,1087,1088,1088,1090,1091,1091,1091,1091,1091,1091,1092],"ymouse":[534,534,534,534,534,534,534,534,534,534,534,534,534,534,534,534,534,534,534,534,534,534,534,534,534,534,534,534,534,534,534,534,534,534,534,534,534,534,534,534,534,534,534,534,534,534,534,534,534,534,534,534,534,534,534,534,534,534,534,534,534,534,534,534,534,534,534,533,526,518,515,511,508,501,498,493,488,482,471,404,352,314,294,274,267,258,246,220,195,185,175,166,161,156,156,156,156,156,146,143,138,135,133,128,128,127,123,120,115,114,112,110,106,99],"timestamp_mouse":[12,31,46,66,86,106,127,146,167,186,206,227,246,267,286,306,326,347,367,386,407,426,446,467,486,507,526,546,566,587,606,626,647,666,687,706,726,747,766,787,806,826,847,867,886,906,927,947,967,986,1007,1026,1047,1067,1087,1108,1127,1147,1168,1186,1207,1226,1247,1266,1286,1307,1327,1346,1367,1387,1407,1426,1447,1466,1488,1506,1526,1546,1566,1587,1607,1627,1646,1667,1686,1706,1727,1747,1766,1786,1806,1826,1846,1867,1886,1906,1927,1946,1967,1986,2007,2026,2046,2068,2086,2106,2127,2147,2166,2186,2207,2226,2246,2267],"xSR":741.5,"ySR":469.95,"xT1":424.9,"yT1":0,"xT2":1058.1,"yT2":0,"toosoon":0,"cond_shown":"Incongruent","ratio_trial":100,"L_num":3,"L_den":9,"R_num":7,"R_den":30,"correct_side":1,"subjID":"amalianavarretegallo30","gender":"1","school":"4","age":"9"},{"start_time":1552327982317,"click_time":1552327982936,"finger_time":1552327982635,"fix_duration":901.3152465350378,"trial":51,"RT":318,"MT":301,"sideResp":1,"stimulus":[],"xmouse":[789,789,789,789,789,789,789,789,789,789,789,788,784,777,770,744,716,688,657,632,611,607,606,603,598,589,563,550,533,529,512],"ymouse":[513,513,513,513,513,513,513,513,513,513,513,513,511,503,491,451,409,366,312,277,241,228,218,206,193,178,145,126,98,78,32],"timestamp_mouse":[18,38,58,79,98,118,138,158,179,198,218,238,259,279,299,318,338,358,378,399,420,438,459,479,498,519,538,559,579,599,619],"xSR":741.5,"ySR":469.95,"xT1":424.9,"yT1":0,"xT2":1058.1,"yT2":0,"toosoon":0,"cond_shown":"Congruent","ratio_trial":100,"L_num":9,"L_den":15,"R_num":8,"R_den":16,"correct_side":1,"subjID":"amalianavarretegallo30","gender":"1","school":"4","age":"9"},{"start_time":1552327985405,"click_time":1552327986055,"finger_time":1552327985696,"fix_duration":1147.6851277845954,"trial":52,"RT":291,"MT":359,"sideResp":2,"stimulus":[],"xmouse":[770,769,768,768,768,768,768,768,768,768,768,768,768,769,772,774,794,801,802,805,807,808,808,812,831,856,955,997,1025,1044,1059,1089,1112],"ymouse":[509,506,503,503,503,503,503,503,498,494,490,484,482,474,459,438,327,267,228,207,201,199,199,197,194,184,154,139,127,118,112,101,97],"timestamp_mouse":[10,37,50,71,90,110,130,150,171,190,211,231,250,271,291,311,331,350,370,391,410,431,451,470,490,510,531,550,570,591,611,631,650],"xSR":741.5,"ySR":469.95,"xT1":424.9,"yT1":0,"xT2":1058.1,"yT2":0,"toosoon":0,"cond_shown":"Congruent","ratio_trial":300,"L_num":1,"L_den":3,"R_num":19,"R_den":30,"correct_side":2,"subjID":"amalianavarretegallo30","gender":"1","school":"4","age":"9"},{"start_time":1552327987762,"click_time":1552327988537,"finger_time":1552327988056,"fix_duration":625.7515294335922,"trial":53,"RT":294,"MT":481,"sideResp":2,"stimulus":[],"xmouse":[772,772,772,772,772,772,772,772,772,772,772,772,772,773,775,777,787,802,836,927,956,956,956,956,956,956,956,956,956,956,956,956,956,956,956,956,956,956,1097],"ymouse":[488,488,488,488,488,488,488,488,488,488,488,488,488,486,456,431,365,298,218,60,24,24,24,24,24,24,24,24,24,24,24,24,24,24,24,24,24,24,24],"timestamp_mouse":[13,42,53,73,93,114,133,153,174,195,214,233,253,273,294,314,334,354,374,393,414,434,454,473,493,514,533,554,573,593,614,634,653,674,694,714,734,754,774],"xSR":741.5,"ySR":469.95,"xT1":424.9,"yT1":0,"xT2":1058.1,"yT2":0,"toosoon":0,"cond_shown":"Congruent","ratio_trial":300,"L_num":4,"L_den":20,"R_num":13,"R_den":26,"correct_side":2,"subjID":"amalianavarretegallo30","gender":"1","school":"4","age":"9"},{"start_time":1552327989859,"click_time":1552327991015,"finger_time":1552327990135,"fix_duration":262.4524574738678,"trial":54,"RT":276,"MT":880,"sideResp":2,"stimulus":[],"xmouse":[770,770,770,770,770,770,770,770,770,770,770,770,770,770,771,773,770,761,740,732,722,712,705,675,649,615,594,594,594,594,594,594,594,582,631,715,830,938,1097,1136,1154,1159,1159,1157,1158,1163,1167,1169,1172,1172,1172,1171,1170,1166,1165,1165,1162,1158],"ymouse":[470,470,470,470,470,470,470,470,470,470,470,470,470,469,459,443,414,376,308,283,262,237,220,159,104,48,6,6,6,6,6,6,6,66,136,215,284,326,349,343,329,298,274,242,228,211,196,182,154,144,137,126,120,104,96,89,79,73],"timestamp_mouse":[17,44,57,77,97,116,136,157,176,197,216,237,257,276,297,316,337,356,377,396,416,437,456,477,496,516,536,556,577,596,616,637,657,678,696,716,737,756,778,796,816,837,856,877,897,916,937,957,977,996,1016,1036,1057,1077,1096,1116,1136,1156],"xSR":741.5,"ySR":469.95,"xT1":424.9,"yT1":0,"xT2":1058.1,"yT2":0,"toosoon":0,"cond_shown":"Congruent","ratio_trial":300,"L_num":1,"L_den":30,"R_num":8,"R_den":24,"correct_side":2,"subjID":"amalianavarretegallo30","gender":"1","school":"4","age":"9"},{"start_time":1552327993010,"click_time":1552327994036,"finger_time":1552327993596,"fix_duration":1032.1660569128376,"trial":55,"RT":586,"MT":440,"sideResp":2,"stimulus":[],"xmouse":[821,821,821,821,821,821,821,821,821,821,821,821,821,821,821,821,821,821,821,821,821,821,822,823,824,825,830,833,836,843,854,900,961,983,1033,1057,1083,1087,1087,1089,1089,1089,1089,1089,1088,1085,1080,1079,1080,1084,1090,1099],"ymouse":[507,507,507,507,507,507,507,507,507,507,507,507,507,507,507,507,507,507,507,506,506,505,504,503,502,500,495,491,487,479,466,422,369,351,307,286,261,253,248,244,243,241,240,234,226,212,178,154,136,119,101,70],"timestamp_mouse":[20,38,45,66,85,106,125,145,166,185,205,225,245,266,285,305,326,346,366,385,406,426,445,465,485,505,525,546,566,586,605,625,645,665,685,705,726,745,765,786,806,827,845,865,885,905,926,945,965,985,1005,1026],"xSR":741.5,"ySR":469.95,"xT1":424.9,"yT1":0,"xT2":1058.1,"yT2":0,"toosoon":0,"cond_shown":"Incongruent","ratio_trial":300,"L_num":4,"L_den":5,"R_num":6,"R_den":12,"correct_side":1,"subjID":"amalianavarretegallo30","gender":"1","school":"4","age":"9"},{"start_time":1552327995964,"click_time":1552327996716,"finger_time":1552327996315,"fix_duration":906.6994830702344,"trial":56,"RT":351,"MT":401,"sideResp":1,"stimulus":[],"xmouse":[802,797,797,789,788,788,788,788,788,788,788,788,788,788,784,782,769,756,732,716,695,667,611,611,611,611,611,611,611,611,611,611,567,566,554,540,529,519],"ymouse":[504,509,509,516,517,518,518,518,518,518,518,518,518,518,515,512,490,468,415,366,293,187,9,9,9,9,9,9,9,9,9,9,0,6,24,35,39,41],"timestamp_mouse":[15,38,51,71,92,111,131,151,172,191,212,231,251,272,291,311,332,351,372,391,411,432,452,471,492,512,531,552,572,592,611,631,651,671,692,711,732,752],"xSR":741.5,"ySR":469.95,"xT1":424.9,"yT1":0,"xT2":1058.1,"yT2":0,"toosoon":0,"cond_shown":"Incongruent","ratio_trial":300,"L_num":4,"L_den":20,"R_num":2,"R_den":4,"correct_side":2,"subjID":"amalianavarretegallo30","gender":"1","school":"4","age":"9"},{"start_time":1552328003686,"click_time":1552328004436,"finger_time":1552328003975,"fix_duration":1248.9385945958786,"trial":57,"RT":289,"MT":461,"sideResp":1,"stimulus":[],"xmouse":[815,815,815,815,815,815,816,817,817,817,817,817,818,820,826,836,855,910,929,951,955,955,948,944,934,918,895,767,687,622,576,567,561,558,546,534,526,512],"ymouse":[479,479,479,479,479,479,477,477,477,476,476,476,475,473,467,455,435,385,358,300,260,226,188,179,169,160,152,116,85,58,37,33,29,27,21,14,9,4],"timestamp_mouse":[9,29,50,69,90,110,130,150,170,189,210,229,249,269,289,309,330,350,369,390,411,429,450,469,489,510,529,551,569,590,610,630,650,669,689,709,730,750],"xSR":741.5,"ySR":469.95,"xT1":424.9,"yT1":0,"xT2":1058.1,"yT2":0,"toosoon":0,"cond_shown":"Congruent","ratio_trial":200,"L_num":15,"L_den":25,"R_num":4,"R_den":10,"correct_side":1,"subjID":"amalianavarretegallo30","gender":"1","school":"4","age":"9"},{"start_time":1552328015151,"click_time":1552328016115,"finger_time":1552328015556,"fix_duration":593.7632672975548,"trial":58,"RT":405,"MT":559,"sideResp":2,"stimulus":[],"xmouse":[750,750,750,750,750,750,750,750,750,750,750,750,750,750,750,750,750,750,750,752,765,791,830,868,929,944,957,969,975,978,986,987,987,989,995,998,1000,1000,1001,1008,1021,1036,1049,1061,1071,1099,1112,1128,1158],"ymouse":[487,487,487,487,487,487,487,487,487,487,487,487,487,487,487,487,487,487,486,475,454,424,388,364,333,326,317,309,304,299,287,284,284,280,266,257,251,249,248,241,233,224,214,203,192,157,141,124,88],"timestamp_mouse":[12,31,45,64,85,105,124,146,164,184,205,224,244,265,284,304,325,344,364,384,405,426,445,465,486,504,524,545,565,585,604,625,644,665,685,704,724,744,764,784,805,824,844,865,885,904,924,944,964],"xSR":741.5,"ySR":469.95,"xT1":424.9,"yT1":0,"xT2":1058.1,"yT2":0,"toosoon":0,"cond_shown":"Incongruent","ratio_trial":100,"L_num":2,"L_den":4,"R_num":6,"R_den":15,"correct_side":1,"subjID":"amalianavarretegallo30","gender":"1","school":"4","age":"9"},{"start_time":1552328018800,"click_time":1552328019456,"finger_time":1552328019136,"fix_duration":1104.873187892751,"trial":59,"RT":336,"MT":320,"sideResp":1,"stimulus":[],"xmouse":[768,768,768,768,768,768,768,768,768,768,768,768,768,769,770,771,771,769,767,761,756,745,740,733,730,720,703,684,664,635,596,555,514],"ymouse":[499,499,499,499,499,499,499,499,499,499,499,499,499,498,496,485,452,434,414,385,344,260,229,200,194,180,168,158,144,124,96,67,32],"timestamp_mouse":[15,38,55,76,96,117,136,155,176,195,216,236,256,275,296,316,336,355,375,396,415,436,455,475,496,516,536,555,575,595,615,636,656],"xSR":741.5,"ySR":469.95,"xT1":424.9,"yT1":0,"xT2":1058.1,"yT2":0,"toosoon":0,"cond_shown":"Incongruent","ratio_trial":100,"L_num":9,"L_den":15,"R_num":14,"R_den":28,"correct_side":1,"subjID":"amalianavarretegallo30","gender":"1","school":"4","age":"9"},{"start_time":1552328020687,"click_time":1552328021436,"finger_time":1552328020976,"fix_duration":250,"trial":60,"RT":289,"MT":460,"sideResp":1,"stimulus":[],"xmouse":[781,781,781,781,781,781,781,781,782,782,782,782,780,776,771,765,754,724,703,684,659,650,640,634,627,621,621,621,621,621,621,621,621,621,621,621,621,478],"ymouse":[493,493,493,493,493,493,493,493,493,493,493,492,486,479,467,446,406,192,96,45,15,11,9,8,5,2,2,2,2,2,2,2,2,2,2,2,2,10],"timestamp_mouse":[15,40,49,68,88,109,129,149,169,188,209,228,248,269,289,308,328,349,368,388,409,428,449,468,488,509,530,549,568,588,609,629,648,669,688,708,728,749],"xSR":741.5,"ySR":469.95,"xT1":424.9,"yT1":0,"xT2":1058.1,"yT2":0,"toosoon":0,"cond_shown":"Congruent","ratio_trial":300,"L_num":4,"L_den":20,"R_num":13,"R_den":26,"correct_side":2,"subjID":"amalianavarretegallo30","gender":"1","school":"4","age":"9"},{"start_time":1552328023429,"click_time":1552328023815,"finger_time":1552328023716,"fix_duration":772.2271248045467,"trial":61,"RT":287,"MT":99,"sideResp":2,"stimulus":[],"xmouse":[791,791,791,791,791,791,791,791,791,791,791,791,791,803,823,894,936,986,1045,1100],"ymouse":[516,516,516,516,516,516,516,514,514,514,513,510,505,484,444,328,278,216,154,94],"timestamp_mouse":[13,40,46,67,86,107,127,146,166,187,206,226,246,267,287,307,326,346,367,386],"xSR":741.5,"ySR":469.95,"xT1":424.9,"yT1":0,"xT2":1058.1,"yT2":0,"toosoon":0,"cond_shown":"Congruent","ratio_trial":200,"L_num":7,"L_den":15,"R_num":18,"R_den":27,"correct_side":2,"subjID":"amalianavarretegallo30","gender":"1","school":"4","age":"9"},{"start_time":1552328025936,"click_time":1552328026776,"finger_time":1552328026216,"fix_duration":818.0637585399525,"trial":62,"RT":280,"MT":560,"sideResp":2,"stimulus":[],"xmouse":[793,793,793,793,793,793,793,793,793,793,793,793,794,795,799,809,840,884,928,1004,1096,1254,1302,1322,1326,1326,1326,1325,1315,1299,1256,1229,1204,1183,1170,1159,1159,1159,1159,1159,1159,1159,1154],"ymouse":[473,473,473,473,473,473,473,473,473,473,473,473,471,470,467,460,436,408,381,325,243,106,67,51,47,47,47,47,49,54,58,58,54,47,43,40,40,40,40,40,40,40,40],"timestamp_mouse":[1,19,39,59,80,99,119,140,159,180,200,219,239,260,280,299,319,340,359,379,399,419,440,459,480,500,520,539,559,580,600,619,640,659,680,700,719,739,759,779,800,819,840],"xSR":741.5,"ySR":469.95,"xT1":424.9,"yT1":0,"xT2":1058.1,"yT2":0,"toosoon":0,"cond_shown":"Incongruent","ratio_trial":200,"L_num":3,"L_den":4,"R_num":11,"R_den":20,"correct_side":1,"subjID":"amalianavarretegallo30","gender":"1","school":"4","age":"9"},{"start_time":1552328033889,"click_time":1552328034776,"finger_time":1552328034295,"fix_duration":450.83898790173606,"trial":63,"RT":406,"MT":481,"sideResp":2,"stimulus":[],"xmouse":[786,786,786,786,786,786,786,786,786,786,786,786,786,786,786,786,788,798,811,818,847,866,888,891,895,897,898,904,904,907,911,916,925,930,936,943,949,956,976,993,1001,1008,1023,1041,1062],"ymouse":[512,512,512,512,512,512,512,512,512,512,512,512,512,512,512,511,509,502,485,473,421,387,327,309,296,289,283,265,259,250,232,216,191,178,171,164,156,150,137,121,111,103,91,79,72],"timestamp_mouse":[10,39,47,66,86,108,126,146,167,188,206,226,248,266,287,306,326,346,368,387,406,427,447,466,487,506,526,547,566,587,606,626,647,667,687,707,727,747,766,786,807,827,847,867,887],"xSR":741.5,"ySR":469.95,"xT1":424.9,"yT1":0,"xT2":1058.1,"yT2":0,"toosoon":0,"cond_shown":"Incongruent","ratio_trial":100,"L_num":3,"L_den":5,"R_num":8,"R_den":16,"correct_side":1,"subjID":"amalianavarretegallo30","gender":"1","school":"4","age":"9"},{"start_time":1552328043169,"click_time":1552328043976,"finger_time":1552328043615,"fix_duration":1052.4948967161947,"trial":64,"RT":446,"MT":361,"sideResp":2,"stimulus":[],"xmouse":[773,773,773,774,774,774,774,774,774,774,774,774,774,774,774,774,775,778,791,800,812,826,840,853,889,921,997,1038,1133,1155,1161,1162,1162,1162,1162,1162,1162,1162,1162,1158,1149],"ymouse":[500,500,500,500,500,500,500,500,500,500,500,500,500,500,500,500,500,500,494,489,481,470,456,438,386,346,284,246,159,138,126,122,121,121,121,121,120,118,114,106,96],"timestamp_mouse":[9,34,47,67,87,107,127,148,167,187,208,228,246,267,287,306,326,347,367,388,407,426,446,468,486,508,528,547,567,586,606,626,648,667,687,706,727,746,767,786,807],"xSR":741.5,"ySR":469.95,"xT1":424.9,"yT1":0,"xT2":1058.1,"yT2":0,"toosoon":0,"cond_shown":"Incongruent","ratio_trial":100,"L_num":2,"L_den":4,"R_num":6,"R_den":15,"correct_side":1,"subjID":"amalianavarretegallo30","gender":"1","school":"4","age":"9"},{"start_time":1552328046480,"click_time":1552328047256,"finger_time":1552328046777,"fix_duration":1202.7240804925557,"trial":65,"RT":297,"MT":479,"sideResp":1,"stimulus":[],"xmouse":[802,802,802,801,801,800,799,799,798,797,797,797,795,794,791,788,784,777,755,736,705,684,658,623,616,614,611,607,604,597,581,568,558,556,555,553,550,537,522],"ymouse":[484,484,483,483,482,481,480,480,479,478,477,476,473,471,468,463,458,449,427,410,381,353,317,266,255,249,240,216,197,174,135,115,103,103,103,103,102,98,93],"timestamp_mouse":[16,41,55,75,96,117,135,156,177,196,216,236,256,276,297,317,335,356,375,395,416,435,456,477,497,517,536,556,576,595,616,636,656,675,696,717,736,757,776],"xSR":741.5,"ySR":469.95,"xT1":424.9,"yT1":0,"xT2":1058.1,"yT2":0,"toosoon":0,"cond_shown":"Incongruent","ratio_trial":300,"L_num":4,"L_den":20,"R_num":2,"R_den":4,"correct_side":2,"subjID":"amalianavarretegallo30","gender":"1","school":"4","age":"9"},{"start_time":1552328049421,"click_time":1552328050336,"finger_time":1552328049757,"fix_duration":1383.1182016106711,"trial":66,"RT":336,"MT":579,"sideResp":2,"stimulus":[],"xmouse":[769,769,769,769,769,769,769,769,769,769,769,769,769,770,775,788,799,815,849,884,975,1011,1015,1019,1019,1020,1021,1021,1021,1021,1021,1021,1021,1021,1022,1025,1029,1032,1039,1041,1047,1050,1053,1056,1058,1061],"ymouse":[521,521,521,521,521,521,521,521,521,521,521,521,521,519,510,479,457,431,375,326,218,184,180,176,174,171,170,167,165,163,163,163,163,162,158,145,136,126,112,102,85,77,74,70,69,65],"timestamp_mouse":[15,34,55,74,96,116,134,156,176,195,216,234,255,275,295,315,336,354,374,394,415,434,455,475,496,516,534,554,575,595,615,636,656,674,694,715,735,754,776,795,816,834,855,874,894,914],"xSR":741.5,"ySR":469.95,"xT1":424.9,"yT1":0,"xT2":1058.1,"yT2":0,"toosoon":0,"cond_shown":"Incongruent","ratio_trial":200,"L_num":1,"L_den":2,"R_num":3,"R_den":10,"correct_side":1,"subjID":"amalianavarretegallo30","gender":"1","school":"4","age":"9"},{"start_time":1552328053922,"click_time":1552328056055,"finger_time":1552328055656,"fix_duration":1225.9043159394537,"trial":67,"RT":1734,"MT":399,"sideResp":1,"stimulus":[],"xmouse":[799,799,799,799,799,799,799,799,799,799,799,799,799,799,799,799,799,799,799,799,799,799,799,799,799,799,799,799,799,799,799,799,799,799,799,799,799,799,799,799,799,799,799,799,799,799,799,799,799,799,799,799,799,799,799,799,799,799,799,799,799,799,799,799,799,799,799,799,802,813,821,823,824,824,824,824,824,824,824,824,827,828,828,828,828,828,823,804,771,729,622,572,545,537,535,534,534,533,533,533,533,533,533,533,532,526,500],"ymouse":[499,499,499,499,499,499,499,499,499,499,499,499,499,499,499,499,499,499,499,499,499,499,499,499,499,499,499,499,499,499,499,499,499,499,499,499,499,499,499,499,499,499,499,499,499,499,499,499,499,499,499,499,499,499,499,499,499,499,499,499,499,499,499,499,499,499,499,499,496,485,478,478,478,478,478,478,478,478,478,478,479,479,479,479,479,479,469,427,366,301,156,104,86,82,81,81,81,80,80,80,80,80,80,79,79,76,66],"timestamp_mouse":[13,37,53,73,95,115,134,154,173,194,214,234,255,275,294,314,333,354,374,394,415,434,454,475,493,515,534,554,574,594,614,635,653,674,695,714,734,755,773,794,814,834,854,875,894,914,935,954,975,995,1014,1033,1054,1073,1095,1115,1134,1154,1174,1193,1214,1233,1253,1275,1294,1313,1333,1355,1373,1394,1413,1434,1454,1474,1494,1514,1534,1553,1574,1595,1613,1634,1654,1673,1694,1713,1734,1755,1775,1795,1815,1834,1854,1873,1894,1914,1934,1955,1975,1993,2013,2033,2054,2081,2094,2114,2133],"xSR":741.5,"ySR":469.95,"xT1":424.9,"yT1":0,"xT2":1058.1,"yT2":0,"toosoon":0,"cond_shown":"Incongruent","ratio_trial":200,"L_num":7,"L_den":10,"R_num":12,"R_den":24,"correct_side":1,"subjID":"amalianavarretegallo30","gender":"1","school":"4","age":"9"},{"start_time":1552328057666,"click_time":1552328058397,"finger_time":1552328058017,"fix_duration":869.5928476296349,"trial":68,"RT":351,"MT":380,"sideResp":1,"stimulus":[],"xmouse":[797,797,797,797,797,797,797,797,797,797,797,797,797,797,797,797,791,779,756,750,747,741,737,718,698,678,653,626,580,557,545,539,536,535,533,529,522],"ymouse":[488,488,488,488,488,488,488,488,488,488,488,488,488,488,488,482,475,455,426,417,412,397,380,317,273,234,196,162,116,96,86,77,71,69,64,55,47],"timestamp_mouse":[14,36,50,69,89,111,131,151,169,189,210,231,251,269,289,309,330,351,371,389,410,429,451,470,489,511,529,550,571,589,609,630,649,670,689,709,731],"xSR":741.5,"ySR":469.95,"xT1":424.9,"yT1":0,"xT2":1058.1,"yT2":0,"toosoon":0,"cond_shown":"Congruent","ratio_trial":200,"L_num":13,"L_den":26,"R_num":14,"R_den":20,"correct_side":2,"subjID":"amalianavarretegallo30","gender":"1","school":"4","age":"9"},{"start_time":1552328060612,"click_time":1552328061076,"finger_time":1552328060956,"fix_duration":1234.2690098803855,"trial":69,"RT":344,"MT":120,"sideResp":2,"stimulus":[],"xmouse":[767,767,767,767,767,767,767,767,767,767,767,767,767,767,767,767,775,782,793,810,839,879,1032,1068],"ymouse":[491,491,491,491,491,491,491,491,491,491,491,491,491,491,491,491,484,468,445,405,330,233,38,6],"timestamp_mouse":[9,26,43,63,85,104,123,144,164,185,204,224,244,263,283,305,324,344,363,384,403,425,444,464],"xSR":741.5,"ySR":469.95,"xT1":424.9,"yT1":0,"xT2":1058.1,"yT2":0,"toosoon":0,"cond_shown":"Incongruent","ratio_trial":300,"L_num":8,"L_den":10,"R_num":14,"R_den":28,"correct_side":1,"subjID":"amalianavarretegallo30","gender":"1","school":"4","age":"9"},{"start_time":1552328063327,"click_time":1552328063976,"finger_time":1552328063635,"fix_duration":1149.7863849812916,"trial":70,"RT":308,"MT":341,"sideResp":1,"stimulus":[],"xmouse":[832,832,832,832,832,832,832,833,833,832,830,829,828,825,822,804,782,747,690,663,639,635,635,635,635,633,628,622,602,586,548,530,515],"ymouse":[529,529,529,529,529,529,529,528,525,521,518,517,514,508,497,452,410,349,262,221,172,160,153,151,150,142,130,117,90,75,53,42,34],"timestamp_mouse":[9,28,50,69,89,108,129,149,169,189,208,228,250,270,288,308,329,349,369,388,409,429,449,470,489,508,529,548,568,589,609,629,649],"xSR":741.5,"ySR":469.95,"xT1":424.9,"yT1":0,"xT2":1058.1,"yT2":0,"toosoon":0,"cond_shown":"Congruent","ratio_trial":200,"L_num":8,"L_den":15,"R_num":7,"R_den":21,"correct_side":1,"subjID":"amalianavarretegallo30","gender":"1","school":"4","age":"9"},{"start_time":1552328066296,"click_time":1552328066936,"finger_time":1552328066616,"fix_duration":537.6627985630241,"trial":71,"RT":320,"MT":320,"sideResp":1,"stimulus":[],"xmouse":[783,783,783,783,784,785,785,786,787,788,788,789,791,791,791,790,779,753,675,641,614,606,603,603,602,596,588,563,549,537,520,508,491],"ymouse":[537,537,537,537,536,536,535,534,532,531,529,527,521,515,506,491,462,413,298,251,219,208,204,202,199,190,178,150,139,128,113,103,86],"timestamp_mouse":[9,21,40,60,80,100,121,140,160,181,200,220,240,261,280,301,320,341,359,379,399,420,440,460,480,500,521,541,560,579,600,620,639],"xSR":741.5,"ySR":469.95,"xT1":424.9,"yT1":0,"xT2":1058.1,"yT2":0,"toosoon":0,"cond_shown":"Incongruent","ratio_trial":300,"L_num":4,"L_den":20,"R_num":2,"R_den":4,"correct_side":2,"subjID":"amalianavarretegallo30","gender":"1","school":"4","age":"9"},{"start_time":1552328068493,"click_time":1552328069195,"finger_time":1552328068835,"fix_duration":616.76447936033,"trial":72,"RT":342,"MT":360,"sideResp":2,"stimulus":[],"xmouse":[798,799,800,800,801,802,802,803,803,804,804,804,804,804,806,808,813,819,830,839,846,851,864,876,904,933,960,999,1009,1012,1014,1016,1028,1038,10