[{"start_time":1552312989998,"click_time":1552313002221,"finger_time":1552312990011,"fix_duration":895.4525762496443,"trial":0,"RT":13,"MT":12210,"sideResp":2,"stimulus":[],"xmouse":[784,784,784,784,784,784,784,784,784,784,784,784,784,784,784,784,784,784,784,784,784,784,784,784,784,784,784,784,784,784,784,784,784,784,784,784,784,784,784,784,784,784,784,784,784,784,784,784,784,784,784,784,784,784,784,784,784,784,784,784,784,783,783,784,788,791,794,798,800,801,801,801,801,801,801,801,801,801,801,801,801,801,800,799,797,797,795,790,790,789,789,789,789,789,789,789,789,789,789,789,789,789,789,789,789,789,789,789,789,789,789,789,789,789,789,789,789,789,789,789,789,789,789,789,789,789,789,789,789,789,789,789,789,789,789,789,789,789,789,789,789,789,789,789,789,789,789,789,789,789,789,789,789,789,789,789,789,789,789,789,789,789,789,789,789,789,789,789,789,789,789,789,789,789,789,789,789,789,789,789,789,789,789,789,789,789,789,789,789,789,789,789,789,789,789,789,789,789,789,789,789,789,789,789,789,789,789,789,789,788,788,788,786,786,784,784,784,784,784,784,784,784,784,784,784,784,784,784,784,784,784,784,784,784,784,784,784,784,784,784,784,783,782,782,782,782,782,782,782,782,782,782,782,782,782,782,782,782,782,782,782,782,782,782,782,781,781,781,781,779,778,774,772,772,772,772,772,772,772,772,772,772,772,772,772,772,772,772,772,772,772,772,772,772,772,772,772,772,772,772,772,772,772,772,772,772,772,772,772,772,772,772,772,772,772,772,772,772,772,772,772,772,772,772,772,772,772,772,772,772,772,771,771,771,771,771,771,771,771,771,771,771,771,771,771,771,771,771,771,771,771,771,771,771,771,771,771,771,771,771,771,771,769,768,766,766,766,766,766,770,777,786,810,830,868,879,889,901,918,956,978,998,1008,1018,1032,1034,1034,1034,1034,1034,1037,1043,1048,1055,1061,1062,1062,1062,1062,1062,1062,1062,1062,1062,1062,1062,1062,1062,1062,1062,1062,1062,1062,1062,1062,1062,1062,1062,1062,1062,1062,1062,1062,1062,1062,1062,1062,1062,1062,1062,1062,1062,1062,1062,1062,1062,1062,1062,1062,1062,1062,1062,1062,1062,1062,1062,1062,1062,1062,1062,1062,1062,1062,1062,1062,1062,1062,1062,1062,1062,1062,1062,1062,1062,1062,1062,1062,1062,1062,1063,1065,1065,1066,1066,1066,1066,1066,1066,1066,1066,1066,1066,1066,1066,1066,1066,1066,1066,1066,1066,1066,1066,1066,1066,1066,1066,1066,1066,1066,1066,1066,1066,1065,1064,1064,1063,1062,1062,1062,1062,1062,1062,1061,1061,1058,1055,1054,1053,1053,1053,1053,1053,1053,1052,1052,1051,1051,1051,1051,1049,1048,1046,1044,1043,1041,1040,1039,1038,1038,1038,1037,1037,1036,1035,1033,1032,1032,1030,1029,1028,1028,1028,1028,1027,1025,1023,1023,1022,1022,1022,1022,1022,1022,1022,1022,1022,1021,1020,1018,1017,1017,1017,1017,1017,1017,1017,1017,1017,1017,1017,1017,1017,1017,1017,1017,1017,1017,1017,1017,1017,1017,1017,1017,1017,1017,1017,1017,1016,1015,1014,1016,1017,1024,1028,1037,1041,1047,1054,1059,1075,1082,1090],"ymouse":[565,565,565,565,565,565,565,566,567,575,578,580,581,581,581,581,581,581,581,581,581,581,581,581,581,581,581,581,581,581,581,581,581,581,581,581,581,581,581,581,581,581,581,581,581,581,581,581,581,581,581,581,581,581,581,581,581,581,581,581,581,581,581,580,579,579,578,578,578,578,578,578,578,578,578,578,578,578,578,578,578,579,582,583,587,588,590,606,611,614,614,614,614,614,614,614,614,614,614,614,614,614,614,614,614,614,614,614,614,614,614,614,614,614,614,614,614,614,614,614,614,614,614,614,614,614,614,614,614,614,614,614,614,614,614,614,614,614,614,614,614,614,614,614,614,614,614,614,614,614,614,614,614,614,614,614,614,614,614,614,614,614,614,614,614,614,614,614,614,614,614,614,614,614,614,614,614,614,614,614,614,614,612,611,610,610,610,610,609,609,609,609,609,609,609,609,609,609,609,609,608,608,608,608,608,608,608,608,608,608,608,608,608,609,610,610,610,610,610,610,610,610,610,610,610,610,610,610,610,610,610,610,610,610,610,610,610,610,610,610,610,610,609,605,605,605,605,605,605,605,605,605,605,605,605,605,605,605,605,605,605,605,605,605,605,605,605,605,605,608,611,620,623,625,625,625,625,625,625,625,625,625,625,625,625,625,625,625,625,625,625,625,625,625,625,625,625,625,625,625,625,625,625,625,625,625,625,625,625,625,625,625,625,625,625,625,625,625,625,624,624,624,624,624,624,624,624,624,625,631,634,636,637,637,637,637,637,637,637,637,637,637,637,637,637,637,637,637,637,637,637,637,637,637,637,637,637,637,637,637,637,637,637,637,639,639,639,639,639,639,639,637,635,635,635,635,635,635,635,637,644,650,653,655,659,660,660,660,660,660,660,659,657,653,650,649,649,649,649,649,649,649,649,649,649,649,649,649,649,649,649,649,649,649,648,648,648,648,648,648,648,648,648,648,648,648,648,648,648,648,648,648,648,648,648,648,648,648,648,648,648,648,648,648,648,648,648,648,648,648,648,648,648,648,648,648,648,648,648,648,648,648,648,648,648,648,648,648,648,648,647,647,647,647,647,647,647,647,647,647,647,647,647,647,647,647,647,647,647,647,647,647,647,647,647,647,647,647,647,647,648,648,650,650,652,654,655,655,655,655,655,655,655,655,657,663,666,667,667,668,668,668,668,668,668,668,668,668,668,668,667,665,663,661,657,656,655,654,654,654,653,653,652,651,650,650,649,648,647,646,646,646,646,645,643,643,642,641,641,641,641,641,641,641,641,641,641,641,641,641,641,641,641,641,641,641,641,641,641,641,641,641,641,641,641,641,641,641,641,641,641,641,641,641,641,641,638,631,621,589,560,547,502,464,376,325,284,242,206,151,129,99],"timestamp_mouse":[13,24,41,62,81,102,122,142,162,182,201,223,242,262,282,303,322,342,362,383,403,421,442,462,483,503,522,542,562,582,603,622,641,663,682,702,723,743,762,782,803,823,843,862,882,903,921,943,962,982,1001,1021,1042,1063,1081,1101,1121,1141,1163,1181,1203,1223,1241,1262,1282,1302,1322,1342,1362,1382,1402,1421,1442,1462,1481,1503,1522,1543,1562,1581,1603,1621,1641,1661,1682,1702,1723,1742,1762,1783,1802,1822,1842,1863,1883,1902,1922,1942,1963,1983,2001,2021,2041,2063,2081,2102,2121,2143,2161,2182,2203,2223,2242,2262,2283,2303,2322,2342,2362,2383,2403,2422,2442,2463,2483,2503,2522,2542,2563,2583,2602,2623,2641,2662,2683,2702,2722,2742,2763,2783,2802,2822,2843,2862,2882,2902,2923,2941,2961,2983,3003,3023,3042,3062,3083,3101,3122,3141,3163,3183,3203,3222,3242,3263,3283,3302,3322,3343,3363,3383,3402,3423,3443,3461,3481,3503,3521,3542,3563,3583,3602,3622,3642,3662,3682,3703,3723,3741,3763,3781,3802,3823,3843,3863,3882,3902,3923,3943,3962,3982,4002,4023,4043,4063,4081,4101,4121,4141,4162,4182,4201,4222,4242,4262,4281,4302,4323,4342,4362,4381,4401,4422,4441,4463,4482,4503,4523,4542,4562,4581,4603,4623,4642,4661,4682,4702,4722,4741,4763,4783,4803,4822,4841,4862,4881,4903,4922,4943,4962,4982,5002,5022,5042,5061,5081,5102,5123,5142,5163,5182,5203,5223,5242,5262,5283,5303,5323,5342,5363,5382,5403,5422,5441,5463,5481,5503,5522,5543,5562,5582,5603,5623,5641,5663,5681,5701,5723,5741,5763,5782,5803,5822,5843,5861,5883,5903,5923,5942,5963,5982,6002,6022,6043,6061,6083,6101,6123,6142,6162,6181,6203,6221,6241,6263,6281,6303,6321,6341,6362,6382,6402,6422,6442,6461,6482,6501,6522,6543,6563,6581,6601,6623,6641,6661,6682,6702,6722,6743,6761,6781,6802,6823,6842,6861,6883,6901,6923,6942,6961,6983,7001,7021,7043,7062,7082,7103,7121,7143,7161,7182,7203,7223,7241,7262,7281,7303,7322,7341,7362,7381,7402,7422,7442,7463,7481,7501,7521,7543,7562,7581,7601,7621,7642,7661,7681,7703,7722,7742,7761,7782,7801,7822,7842,7862,7881,7901,7922,7941,7963,7982,8002,8022,8042,8062,8081,8102,8122,8141,8162,8182,8202,8223,8242,8262,8281,8302,8321,8342,8362,8381,8403,8422,8443,8463,8482,8502,8521,8541,8562,8582,8603,8623,8643,8662,8682,8702,8722,8742,8762,8782,8801,8822,8841,8862,8883,8902,8922,8942,8962,8981,9001,9021,9042,9061,9082,9103,9123,9143,9162,9183,9202,9222,9242,9262,9281,9302,9321,9343,9361,9382,9402,9422,9442,9461,9482,9501,9522,9542,9562,9582,9602,9621,9642,9662,9682,9702,9722,9742,9762,9782,9802,9821,9841,9861,9882,9901,9922,9941,9963,9982,10002,10022,10042,10061,10081,10101,10123,10143,10162,10183,10203,10222,10242,10261,10281,10301,10323,10342,10362,10382,10402,10422,10441,10461,10482,10502,10522,10542,10562,10581,10602,10623,10642,10663,10682,10702,10723,10743,10762,10782,10801,10822,10842,10862,10881,10903,10922,10942,10962,10981,11001,11021,11042,11061,11081,11101,11122,11141,11162,11182,11202,11222,11243,11263,11282,11302,11322,11341,11361,11382,11402,11423,11442,11462,11481,11502,11521,11541,11561,11581,11601,11621,11642,11662,11681,11702,11722,11741,11761,11781,11801,11822,11843,11863,11883,11902,11922,11942,11962,11982,12001,12022,12041,12063,12082,12103,12122,12142,12163,12182,12201,12222],"xSR":741.5,"ySR":500.5,"xT1":424.9,"yT1":0,"xT2":1058.1,"yT2":0,"toosoon":0,"cond_shown":"Congruent","ratio_trial":200,"L_num":4,"L_den":8,"R_num":3,"R_den":10,"correct_side":1,"subjID":"Julian Andres Herrera Jimenez 7","gender":"0","age":"9","school":"4","test":{"fix_dur":[250,1500],"timestim":1000,"targets_dim":[100,100],"targets_relative_coord":[0.3,0.7],"size_stim":[880,420],"start_dim":[100,100],"size_start":[300,300],"size_fix":60,"samplingrate":20,"img_types":["Congruent","Incongruent"],"ratios":[100,200,300],"rep_conds":19,"nTrials":120,"trials_to_rest":500,"Trials_order":[74,98,55,117,14,30,96,69,67,86,33,32,12,111,79,25,115,37,106,2,85,103,41,94,84,62,92,93,1,6,90,19,36,13,46,110,20,88,97,24,57,81,77,43,72,66,104,4,63,108,7,58,27,78,116,45,109,0,119,112,23,64,87,28,10,5,59,100,15,99,51,11,76,71,8,47,107,95,75,9,50,73,38,39,118,65,101,102,80,54,16,17,49,113,82,42,40,3,31,29,70,35,21,26,61,60,56,91,48,53,18,89,114,83,34,68,52,22,44,105],"cond_shown":["Congruent","Congruent","Incongruent","Incongruent","Congruent","Congruent","Congruent","Incongruent","Incongruent","Congruent","Incongruent","Congruent","Congruent","Incongruent","Incongruent","Incongruent","Incongruent","Incongruent","Congruent","Congruent","Incongruent","Incongruent","Incongruent","Congruent","Congruent","Congruent","Congruent","Incongruent","Incongruent","Congruent","Congruent","Incongruent","Congruent","Incongruent","Congruent","Congruent","Congruent","Congruent","Incongruent","Congruent","Incongruent","Incongruent","Incongruent","Incongruent","Congruent","Congruent","Congruent","Congruent","Incongruent","Congruent","Incongruent","Congruent","Incongruent","Congruent","Congruent","Incongruent","Incongruent","Congruent","Incongruent","Congruent","Incongruent","Congruent","Incongruent","Congruent","Congruent","Incongruent","Incongruent","Congruent","Incongruent","Incongruent","Incongruent","Incongruent","Congruent","Incongruent","Congruent","Incongruent","Incongruent","Incongruent","Incongruent","Incongruent","Congruent","Incongruent","Congruent","Incongruent","Congruent","Incongruent","Incongruent","Congruent","Congruent","Congruent","Congruent","Incongruent","Incongruent","Incongruent","Congruent","Congruent","Congruent","Incongruent","Incongruent","Incongruent","Congruent","Incongruent","Incongruent","Congruent","Incongruent","Congruent","Congruent","Incongruent","Congruent","Incongruent","Congruent","Incongruent","Congruent","Incongruent","Congruent","Congruent","Congruent","Congruent","Congruent","Incongruent"],"ratio_trial":[200,200,100,200,200,100,100,200,100,200,200,200,100,200,100,100,100,100,300,200,100,100,300,300,100,200,200,200,100,100,100,100,100,100,300,200,200,300,100,100,200,200,300,100,100,100,200,300,200,100,100,300,200,100,200,200,100,100,300,300,300,300,200,300,300,300,300,300,200,200,200,300,300,300,200,300,300,300,200,200,200,100,200,200,300,300,300,100,200,100,300,300,100,300,300,100,300,200,100,300,300,300,200,200,100,100,200,100,100,300,100,300,100,300,300,200,300,300,200,200],"left_num":[4,14,8,3,8,2,1,3,3,6,4,13,4,3,3,3,6,3,5,3,10,9,13,1,8,3,3,9,13,6,11,3,3,6,4,12,12,8,6,10,3,7,4,3,15,3,12,12,14,3,9,3,9,2,4,6,10,8,8,12,13,20,7,3,9,4,4,20,14,6,14,13,11,4,3,4,8,3,11,9,3,6,20,9,1,4,1,2,3,15,24,13,2,8,11,7,1,7,3,4,4,7,6,3,1,1,16,13,1,8,9,13,2,13,2,9,20,1,12,7],"right_num":[3,6,1,11,7,6,18,11,11,11,6,14,6,1,8,4,13,7,7,14,9,14,12,8,2,7,14,8,12,15,4,11,2,3,13,6,6,10,11,3,1,12,2,4,13,2,6,2,6,2,6,2,8,6,3,3,8,2,14,2,12,13,6,11,3,6,8,9,12,3,6,12,2,2,11,8,9,4,3,8,7,13,9,8,11,2,2,11,14,13,8,12,8,9,1,9,6,8,7,2,13,8,3,11,8,18,12,12,18,14,8,12,6,12,12,13,13,8,6,4],"left_den":[8,28,20,4,15,5,2,4,5,20,5,26,8,10,5,6,10,9,25,10,25,15,26,30,16,10,10,15,26,12,22,5,6,12,20,15,20,15,10,25,10,10,20,6,25,6,20,24,30,6,18,6,15,5,10,20,25,16,10,24,26,25,15,12,10,5,5,25,30,20,30,26,22,20,10,5,10,6,20,15,10,10,25,15,5,20,2,5,10,25,30,26,4,10,22,14,5,10,9,20,20,10,20,10,2,2,20,26,2,10,15,26,5,26,10,30,25,30,20,15],"right_den":[10,20,2,20,21,12,30,20,22,22,10,20,10,2,16,10,26,30,14,28,18,28,15,24,5,14,28,10,20,25,10,22,5,5,26,10,15,12,22,10,2,24,4,10,26,5,15,10,9,5,10,10,10,12,15,6,16,5,28,10,15,26,9,20,5,12,16,18,18,6,9,15,10,4,22,16,18,20,4,10,14,26,15,10,22,4,10,22,28,26,16,15,20,18,5,15,12,16,30,4,26,20,6,22,20,30,20,20,30,28,16,15,12,15,24,26,26,24,15,6],"correct_side":[1,1,2,1,1,2,2,1,1,2,1,2,2,2,1,1,1,1,2,2,2,1,2,2,1,2,2,2,2,2,1,1,1,2,2,1,1,2,1,1,2,1,2,1,1,1,1,1,2,1,2,1,2,2,1,2,2,1,1,1,2,1,2,2,1,1,1,1,2,2,2,2,1,2,2,1,1,1,2,2,2,1,1,2,2,2,1,2,2,1,1,2,1,1,1,2,2,1,1,2,2,1,2,2,1,2,1,2,2,1,1,2,2,2,2,2,1,2,1,2],"img_shown":["img2/200/Congruent/L/C_Dist_200_LN_4_LD_8_RN_3_RD_10_0.png","img2/200/Congruent/L/C_Dist_200_LN_14_LD_28_RN_6_RD_20_0.png","img2/100/Incongruent/R/I_Dist_100_LN_8_LD_20_RN_1_RD_2_1.png","img2/200/Incongruent/L/I_Dist_200_LN_3_LD_4_RN_11_RD_20_0.png","img2/200/Congruent/L/C_Dist_200_LN_8_LD_15_RN_7_RD_21_0.png","img2/100/Congruent/R/C_Dist_100_LN_2_LD_5_RN_6_RD_12_1.png","img2/100/Congruent/R/C_Dist_100_LN_1_LD_2_RN_18_RD_30_1.png","img2/200/Incongruent/L/I_Dist_200_LN_3_LD_4_RN_11_RD_20_0.png","img2/100/Incongruent/L/I_Dist_100_LN_3_LD_5_RN_11_RD_22_0.png","img2/200/Congruent/R/C_Dist_200_LN_6_LD_20_RN_11_RD_22_1.png","img2/200/Incongruent/L/I_Dist_200_LN_4_LD_5_RN_6_RD_10_0.png","img2/200/Congruent/R/C_Dist_200_LN_13_LD_26_RN_14_RD_20_1.png","img2/100/Congruent/R/C_Dist_100_LN_4_LD_8_RN_6_RD_10_1.png","img2/200/Incongruent/R/I_Dist_200_LN_3_LD_10_RN_1_RD_2_1.png","img2/100/Incongruent/L/I_Dist_100_LN_3_LD_5_RN_8_RD_16_0.png","img2/100/Incongruent/L/I_Dist_100_LN_3_LD_6_RN_4_RD_10_0.png","img2/100/Incongruent/L/I_Dist_100_LN_6_LD_10_RN_13_RD_26_0.png","img2/100/Incongruent/L/I_Dist_100_LN_3_LD_9_RN_7_RD_30_0.png","img2/300/Congruent/R/C_Dist_300_LN_5_LD_25_RN_7_RD_14_1.png","img2/200/Congruent/R/C_Dist_200_LN_3_LD_10_RN_14_RD_28_1.png","img2/100/Incongruent/R/I_Dist_100_LN_10_LD_25_RN_9_RD_18_1.png","img2/100/Incongruent/L/I_Dist_100_LN_9_LD_15_RN_14_RD_28_0.png","img2/300/Incongruent/R/I_Dist_300_LN_13_LD_26_RN_12_RD_15_1.png","img2/300/Congruent/R/C_Dist_300_LN_1_LD_30_RN_8_RD_24_1.png","img2/100/Congruent/L/C_Dist_100_LN_8_LD_16_RN_2_RD_5_0.png","img2/200/Congruent/R/C_Dist_200_LN_3_LD_10_RN_7_RD_14_1.png","img2/200/Congruent/R/C_Dist_200_LN_3_LD_10_RN_14_RD_28_1.png","img2/200/Incongruent/R/I_Dist_200_LN_9_LD_15_RN_8_RD_10_1.png","img2/100/Incongruent/R/I_Dist_100_LN_13_LD_26_RN_12_RD_20_1.png","img2/100/Congruent/R/C_Dist_100_LN_6_LD_12_RN_15_RD_25_1.png","img2/100/Congruent/L/C_Dist_100_LN_11_LD_22_RN_4_RD_10_0.png","img2/100/Incongruent/L/I_Dist_100_LN_3_LD_5_RN_11_RD_22_0.png","img2/100/Congruent/L/C_Dist_100_LN_3_LD_6_RN_2_RD_5_0.png","img2/100/Incongruent/R/I_Dist_100_LN_6_LD_12_RN_3_RD_5_1.png","img2/300/Congruent/R/C_Dist_300_LN_4_LD_20_RN_13_RD_26_1.png","img2/200/Congruent/L/C_Dist_200_LN_12_LD_15_RN_6_RD_10_0.png","img2/200/Congruent/L/C_Dist_200_LN_12_LD_20_RN_6_RD_15_0.png","img2/300/Congruent/R/C_Dist_300_LN_8_LD_15_RN_10_RD_12_1.png","img2/100/Incongruent/L/I_Dist_100_LN_6_LD_10_RN_11_RD_22_0.png","img2/100/Congruent/L/C_Dist_100_LN_10_LD_25_RN_3_RD_10_0.png","img2/200/Incongruent/R/I_Dist_200_LN_3_LD_10_RN_1_RD_2_1.png","img2/200/Incongruent/L/I_Dist_200_LN_7_LD_10_RN_12_RD_24_0.png","img2/300/Incongruent/R/I_Dist_300_LN_4_LD_20_RN_2_RD_4_1.png","img2/100/Incongruent/L/I_Dist_100_LN_3_LD_6_RN_4_RD_10_0.png","img2/100/Congruent/L/C_Dist_100_LN_15_LD_25_RN_13_RD_26_0.png","img2/100/Congruent/L/C_Dist_100_LN_3_LD_6_RN_2_RD_5_0.png","img2/200/Congruent/L/C_Dist_200_LN_12_LD_20_RN_6_RD_15_0.png","img2/300/Congruent/L/C_Dist_300_LN_12_LD_24_RN_2_RD_10_0.png","img2/200/Incongruent/R/I_Dist_200_LN_14_LD_30_RN_6_RD_9_1.png","img2/100/Congruent/L/C_Dist_100_LN_3_LD_6_RN_2_RD_5_0.png","img2/100/Incongruent/R/I_Dist_100_LN_9_LD_18_RN_6_RD_10_1.png","img2/300/Congruent/L/C_Dist_300_LN_3_LD_6_RN_2_RD_10_0.png","img2/200/Incongruent/R/I_Dist_200_LN_9_LD_15_RN_8_RD_10_1.png","img2/100/Congruent/R/C_Dist_100_LN_2_LD_5_RN_6_RD_12_1.png","img2/200/Congruent/L/C_Dist_200_LN_4_LD_10_RN_3_RD_15_0.png","img2/200/Incongruent/R/I_Dist_200_LN_6_LD_20_RN_3_RD_6_1.png","img2/100/Incongruent/R/I_Dist_100_LN_10_LD_25_RN_8_RD_16_1.png","img2/100/Congruent/L/C_Dist_100_LN_8_LD_16_RN_2_RD_5_0.png","img2/300/Incongruent/L/I_Dist_300_LN_8_LD_10_RN_14_RD_28_0.png","img2/300/Congruent/L/C_Dist_300_LN_12_LD_24_RN_2_RD_10_0.png","img2/300/Incongruent/R/I_Dist_300_LN_13_LD_26_RN_12_RD_15_1.png","img2/300/Congruent/L/C_Dist_300_LN_20_LD_25_RN_13_RD_26_0.png","img2/200/Incongruent/R/I_Dist_200_LN_7_LD_15_RN_6_RD_9_1.png","img2/300/Congruent/R/C_Dist_300_LN_3_LD_12_RN_11_RD_20_1.png","img2/300/Congruent/L/C_Dist_300_LN_9_LD_10_RN_3_RD_5_0.png","img2/300/Incongruent/L/I_Dist_300_LN_4_LD_5_RN_6_RD_12_0.png","img2/300/Incongruent/L/I_Dist_300_LN_4_LD_5_RN_8_RD_16_0.png","img2/300/Congruent/L/C_Dist_300_LN_20_LD_25_RN_9_RD_18_0.png","img2/200/Incongruent/R/I_Dist_200_LN_14_LD_30_RN_12_RD_18_1.png","img2/200/Incongruent/R/I_Dist_200_LN_6_LD_20_RN_3_RD_6_1.png","img2/200/Incongruent/R/I_Dist_200_LN_14_LD_30_RN_6_RD_9_1.png","img2/300/Incongruent/R/I_Dist_300_LN_13_LD_26_RN_12_RD_15_1.png","img2/300/Congruent/L/C_Dist_300_LN_11_LD_22_RN_2_RD_10_0.png","img2/300/Incongruent/R/I_Dist_300_LN_4_LD_20_RN_2_RD_4_1.png","img2/200/Congruent/R/C_Dist_200_LN_3_LD_10_RN_11_RD_22_1.png","img2/300/Incongruent/L/I_Dist_300_LN_4_LD_5_RN_8_RD_16_0.png","img2/300/Incongruent/L/I_Dist_300_LN_8_LD_10_RN_9_RD_18_0.png","img2/300/Incongruent/L/I_Dist_300_LN_3_LD_6_RN_4_RD_20_0.png","img2/200/Incongruent/R/I_Dist_200_LN_11_LD_20_RN_3_RD_4_1.png","img2/200/Incongruent/R/I_Dist_200_LN_9_LD_15_RN_8_RD_10_1.png","img2/200/Congruent/R/C_Dist_200_LN_3_LD_10_RN_7_RD_14_1.png","img2/100/Incongruent/L/I_Dist_100_LN_6_LD_10_RN_13_RD_26_0.png","img2/200/Congruent/L/C_Dist_200_LN_20_LD_25_RN_9_RD_15_0.png","img2/200/Incongruent/R/I_Dist_200_LN_9_LD_15_RN_8_RD_10_1.png","img2/300/Congruent/R/C_Dist_300_LN_1_LD_5_RN_11_RD_22_1.png","img2/300/Incongruent/R/I_Dist_300_LN_4_LD_20_RN_2_RD_4_1.png","img2/300/Incongruent/L/I_Dist_300_LN_1_LD_2_RN_2_RD_10_0.png","img2/100/Congruent/R/C_Dist_100_LN_2_LD_5_RN_11_RD_22_1.png","img2/200/Congruent/R/C_Dist_200_LN_3_LD_10_RN_14_RD_28_1.png","img2/100/Congruent/L/C_Dist_100_LN_15_LD_25_RN_13_RD_26_0.png","img2/300/Congruent/L/C_Dist_300_LN_24_LD_30_RN_8_RD_16_0.png","img2/300/Incongruent/R/I_Dist_300_LN_13_LD_26_RN_12_RD_15_1.png","img2/100/Incongruent/L/I_Dist_100_LN_2_LD_4_RN_8_RD_20_0.png","img2/300/Incongruent/L/I_Dist_300_LN_8_LD_10_RN_9_RD_18_0.png","img2/300/Congruent/L/C_Dist_300_LN_11_LD_22_RN_1_RD_5_0.png","img2/100/Congruent/R/C_Dist_100_LN_7_LD_14_RN_9_RD_15_1.png","img2/300/Congruent/R/C_Dist_300_LN_1_LD_5_RN_6_RD_12_1.png","img2/200/Incongruent/L/I_Dist_200_LN_7_LD_10_RN_8_RD_16_0.png","img2/100/Incongruent/L/I_Dist_100_LN_3_LD_9_RN_7_RD_30_0.png","img2/300/Incongruent/R/I_Dist_300_LN_4_LD_20_RN_2_RD_4_1.png","img2/300/Congruent/R/C_Dist_300_LN_4_LD_20_RN_13_RD_26_1.png","img2/300/Incongruent/L/I_Dist_300_LN_7_LD_10_RN_8_RD_20_0.png","img2/200/Incongruent/R/I_Dist_200_LN_6_LD_20_RN_3_RD_6_1.png","img2/200/Congruent/R/C_Dist_200_LN_3_LD_10_RN_11_RD_22_1.png","img2/100/Incongruent/L/I_Dist_100_LN_1_LD_2_RN_8_RD_20_0.png","img2/100/Congruent/R/C_Dist_100_LN_1_LD_2_RN_18_RD_30_1.png","img2/200/Congruent/L/C_Dist_200_LN_16_LD_20_RN_12_RD_20_0.png","img2/100/Incongruent/R/I_Dist_100_LN_13_LD_26_RN_12_RD_20_1.png","img2/100/Congruent/R/C_Dist_100_LN_1_LD_2_RN_18_RD_30_1.png","img2/300/Incongruent/L/I_Dist_300_LN_8_LD_10_RN_14_RD_28_0.png","img2/100/Congruent/L/C_Dist_100_LN_9_LD_15_RN_8_RD_16_0.png","img2/300/Incongruent/R/I_Dist_300_LN_13_LD_26_RN_12_RD_15_1.png","img2/100/Congruent/R/C_Dist_100_LN_2_LD_5_RN_6_RD_12_1.png","img2/300/Incongruent/R/I_Dist_300_LN_13_LD_26_RN_12_RD_15_1.png","img2/300/Congruent/R/C_Dist_300_LN_2_LD_10_RN_12_RD_24_1.png","img2/200/Congruent/R/C_Dist_200_LN_9_LD_30_RN_13_RD_26_1.png","img2/300/Congruent/L/C_Dist_300_LN_20_LD_25_RN_13_RD_26_0.png","img2/300/Congruent/R/C_Dist_300_LN_1_LD_30_RN_8_RD_24_1.png","img2/200/Congruent/L/C_Dist_200_LN_12_LD_20_RN_6_RD_15_0.png","img2/200/Incongruent/R/I_Dist_200_LN_7_LD_15_RN_4_RD_6_1.png"],"dist100_C":[["C_Dist_100_LN_10_LD_25_RN_3_RD_10_0.png","C_Dist_100_LN_11_LD_22_RN_4_RD_10_0.png","C_Dist_100_LN_11_LD_22_RN_6_RD_15_0.png","C_Dist_100_LN_15_LD_25_RN_13_RD_26_0.png","C_Dist_100_LN_3_LD_6_RN_2_RD_5_0.png","C_Dist_100_LN_6_LD_20_RN_5_RD_25_0.png","C_Dist_100_LN_8_LD_16_RN_2_RD_5_0.png","C_Dist_100_LN_9_LD_15_RN_8_RD_16_0.png"],["C_Dist_100_LN_1_LD_2_RN_18_RD_30_1.png","C_Dist_100_LN_1_LD_2_RN_3_RD_5_1.png","C_Dist_100_LN_12_LD_30_RN_13_RD_26_1.png","C_Dist_100_LN_2_LD_5_RN_11_RD_22_1.png","C_Dist_100_LN_2_LD_5_RN_6_RD_12_1.png","C_Dist_100_LN_3_LD_20_RN_4_RD_16_1.png","C_Dist_100_LN_4_LD_10_RN_15_RD_30_1.png","C_Dist_100_LN_4_LD_8_RN_6_RD_10_1.png","C_Dist_100_LN_6_LD_12_RN_15_RD_25_1.png","C_Dist_100_LN_7_LD_14_RN_15_RD_25_1.png","C_Dist_100_LN_7_LD_14_RN_9_RD_15_1.png"]],"dist100_I":[["I_Dist_100_LN_1_LD_2_RN_8_RD_20_0.png","I_Dist_100_LN_2_LD_4_RN_6_RD_15_0.png","I_Dist_100_LN_2_LD_4_RN_8_RD_20_0.png","I_Dist_100_LN_3_LD_5_RN_11_RD_22_0.png","I_Dist_100_LN_3_LD_5_RN_8_RD_16_0.png","I_Dist_100_LN_3_LD_6_RN_4_RD_10_0.png","I_Dist_100_LN_3_LD_9_RN_7_RD_30_0.png","I_Dist_100_LN_4_LD_8_RN_8_RD_20_0.png","I_Dist_100_LN_6_LD_10_RN_11_RD_22_0.png","I_Dist_100_LN_6_LD_10_RN_13_RD_26_0.png","I_Dist_100_LN_6_LD_10_RN_7_RD_14_0.png","I_Dist_100_LN_9_LD_10_RN_20_RD_25_0.png","I_Dist_100_LN_9_LD_15_RN_13_RD_26_0.png","I_Dist_100_LN_9_LD_15_RN_14_RD_28_0.png"],["I_Dist_100_LN_10_LD_25_RN_8_RD_16_1.png","I_Dist_100_LN_10_LD_25_RN_9_RD_18_1.png","I_Dist_100_LN_11_LD_22_RN_9_RD_15_1.png","I_Dist_100_LN_12_LD_24_RN_9_RD_15_1.png","I_Dist_100_LN_12_LD_30_RN_2_RD_4_1.png","I_Dist_100_LN_13_LD_26_RN_12_RD_20_1.png","I_Dist_100_LN_13_LD_26_RN_6_RD_10_1.png","I_Dist_100_LN_17_LD_30_RN_10_RD_15_1.png","I_Dist_100_LN_6_LD_12_RN_3_RD_5_1.png","I_Dist_100_LN_8_LD_16_RN_6_RD_10_1.png","I_Dist_100_LN_8_LD_20_RN_1_RD_2_1.png","I_Dist_100_LN_9_LD_18_RN_6_RD_10_1.png"]],"dist100_S":[["E_Dist_100_LN_2_LD_12_RN_2_RD_30_0.png","E_Dist_100_LN_6_LD_10_RN_6_RD_12_0.png"],["E_Dist_100_LN_6_LD_12_RN_6_RD_10_1.png"]],"dist200_C":[["C_Dist_200_LN_11_LD_22_RN_3_RD_10_0.png","C_Dist_200_LN_12_LD_15_RN_6_RD_10_0.png","C_Dist_200_LN_12_LD_20_RN_6_RD_15_0.png","C_Dist_200_LN_14_LD_28_RN_6_RD_20_0.png","C_Dist_200_LN_15_LD_25_RN_4_RD_10_0.png","C_Dist_200_LN_16_LD_20_RN_12_RD_20_0.png","C_Dist_200_LN_16_LD_30_RN_9_RD_27_0.png","C_Dist_200_LN_20_LD_25_RN_9_RD_15_0.png","C_Dist_200_LN_21_LD_30_RN_2_RD_4_0.png","C_Dist_200_LN_4_LD_10_RN_3_RD_15_0.png","C_Dist_200_LN_4_LD_8_RN_3_RD_10_0.png","C_Dist_200_LN_6_LD_15_RN_3_RD_15_0.png","C_Dist_200_LN_7_LD_21_RN_2_RD_15_0.png","C_Dist_200_LN_8_LD_15_RN_2_RD_6_0.png","C_Dist_200_LN_8_LD_15_RN_3_RD_9_0.png","C_Dist_200_LN_8_LD_15_RN_7_RD_21_0.png","C_Dist_200_LN_9_LD_20_RN_4_RD_16_0.png"],["C_Dist_200_LN_1_LD_2_RN_21_RD_30_1.png","C_Dist_200_LN_13_LD_26_RN_14_RD_20_1.png","C_Dist_200_LN_3_LD_10_RN_11_RD_22_1.png","C_Dist_200_LN_3_LD_10_RN_14_RD_28_1.png","C_Dist_200_LN_3_LD_10_RN_7_RD_14_1.png","C_Dist_200_LN_3_LD_12_RN_9_RD_20_1.png","C_Dist_200_LN_3_LD_6_RN_14_RD_20_1.png","C_Dist_200_LN_5_LD_10_RN_14_RD_20_1.png","C_Dist_200_LN_6_LD_12_RN_7_RD_10_1.png","C_Dist_200_LN_6_LD_20_RN_11_RD_22_1.png","C_Dist_200_LN_7_LD_15_RN_18_RD_27_1.png","C_Dist_200_LN_9_LD_30_RN_13_RD_26_1.png"]],"dist200_I":[["I_Dist_200_LN_1_LD_2_RN_3_RD_10_0.png","I_Dist_200_LN_1_LD_3_RN_2_RD_15_0.png","I_Dist_200_LN_3_LD_4_RN_11_RD_20_0.png","I_Dist_200_LN_4_LD_5_RN_6_RD_10_0.png","I_Dist_200_LN_4_LD_6_RN_14_RD_30_0.png","I_Dist_200_LN_7_LD_10_RN_12_RD_24_0.png","I_Dist_200_LN_7_LD_10_RN_14_RD_28_0.png","I_Dist_200_LN_7_LD_10_RN_8_RD_16_0.png"],["I_Dist_200_LN_11_LD_20_RN_3_RD_4_1.png","I_Dist_200_LN_14_LD_30_RN_12_RD_18_1.png","I_Dist_200_LN_14_LD_30_RN_6_RD_9_1.png","I_Dist_200_LN_3_LD_10_RN_1_RD_2_1.png","I_Dist_200_LN_4_LD_30_RN_1_RD_3_1.png","I_Dist_200_LN_6_LD_20_RN_3_RD_6_1.png","I_Dist_200_LN_7_LD_15_RN_4_RD_6_1.png","I_Dist_200_LN_7_LD_15_RN_6_RD_9_1.png","I_Dist_200_LN_9_LD_15_RN_8_RD_10_1.png"]],"dist200_S":[["E_Dist_200_LN_3_LD_6_RN_3_RD_10_0.png"],["E_Dist_200_LN_3_LD_10_RN_3_RD_6_1.png"]],"dist300_C":[["C_Dist_300_LN_11_LD_22_RN_1_RD_5_0.png","C_Dist_300_LN_11_LD_22_RN_2_RD_10_0.png","C_Dist_300_LN_11_LD_22_RN_4_RD_20_0.png","C_Dist_300_LN_12_LD_24_RN_2_RD_10_0.png","C_Dist_300_LN_18_LD_20_RN_9_RD_15_0.png","C_Dist_300_LN_20_LD_25_RN_13_RD_26_0.png","C_Dist_300_LN_20_LD_25_RN_14_RD_28_0.png","C_Dist_300_LN_20_LD_25_RN_5_RD_10_0.png","C_Dist_300_LN_20_LD_25_RN_8_RD_16_0.png","C_Dist_300_LN_20_LD_25_RN_9_RD_18_0.png","C_Dist_300_LN_24_LD_30_RN_2_RD_4_0.png","C_Dist_300_LN_24_LD_30_RN_8_RD_16_0.png","C_Dist_300_LN_3_LD_6_RN_2_RD_10_0.png","C_Dist_300_LN_4_LD_10_RN_1_RD_10_0.png","C_Dist_300_LN_4_LD_5_RN_2_RD_4_0.png","C_Dist_300_LN_8_LD_16_RN_1_RD_5_0.png","C_Dist_300_LN_9_LD_10_RN_3_RD_5_0.png"],["C_Dist_300_LN_1_LD_20_RN_7_RD_20_1.png","C_Dist_300_LN_1_LD_3_RN_19_RD_30_1.png","C_Dist_300_LN_1_LD_30_RN_8_RD_24_1.png","C_Dist_300_LN_1_LD_5_RN_11_RD_22_1.png","C_Dist_300_LN_1_LD_5_RN_3_RD_6_1.png","C_Dist_300_LN_1_LD_5_RN_6_RD_12_1.png","C_Dist_300_LN_2_LD_10_RN_12_RD_24_1.png","C_Dist_300_LN_2_LD_20_RN_10_RD_25_1.png","C_Dist_300_LN_3_LD_12_RN_11_RD_20_1.png","C_Dist_300_LN_3_LD_6_RN_4_RD_5_1.png","C_Dist_300_LN_4_LD_20_RN_13_RD_26_1.png","C_Dist_300_LN_5_LD_25_RN_6_RD_12_1.png","C_Dist_300_LN_5_LD_25_RN_7_RD_14_1.png","C_Dist_300_LN_7_LD_14_RN_20_RD_25_1.png","C_Dist_300_LN_8_LD_15_RN_10_RD_12_1.png"]],"dist300_I":[["I_Dist_300_LN_1_LD_2_RN_2_RD_10_0.png","I_Dist_300_LN_1_LD_2_RN_3_RD_15_0.png","I_Dist_300_LN_2_LD_4_RN_6_RD_30_0.png","I_Dist_300_LN_3_LD_6_RN_4_RD_20_0.png","I_Dist_300_LN_4_LD_5_RN_6_RD_12_0.png","I_Dist_300_LN_4_LD_5_RN_8_RD_16_0.png","I_Dist_300_LN_7_LD_10_RN_8_RD_20_0.png","I_Dist_300_LN_8_LD_10_RN_14_RD_28_0.png","I_Dist_300_LN_8_LD_10_RN_9_RD_18_0.png"],["I_Dist_300_LN_13_LD_26_RN_12_RD_15_1.png","I_Dist_300_LN_4_LD_20_RN_2_RD_4_1.png"]],"dist300_S":[["E_Dist_300_LN_9_LD_12_RN_9_RD_20_0.png"],["E_Dist_300_LN_18_LD_30_RN_18_RD_20_1.png","E_Dist_300_LN_3_LD_10_RN_3_RD_5_1.png","E_Dist_300_LN_9_LD_20_RN_9_RD_12_1.png"]],"dist500_C":[["C_Dist_500_LN_10_LD_13_RN_7_RD_26_0.png","C_Dist_500_LN_10_LD_15_RN_4_RD_24_0.png","C_Dist_500_LN_12_LD_16_RN_3_RD_12_0.png","C_Dist_500_LN_12_LD_18_RN_4_RD_24_0.png","C_Dist_500_LN_15_LD_18_RN_5_RD_15_0.png","C_Dist_500_LN_15_LD_20_RN_1_RD_4_0.png","C_Dist_500_LN_18_LD_27_RN_1_RD_6_0.png","C_Dist_500_LN_20_LD_24_RN_1_RD_3_0.png","C_Dist_500_LN_20_LD_24_RN_3_RD_9_0.png","C_Dist_500_LN_20_LD_24_RN_7_RD_21_0.png","C_Dist_500_LN_20_LD_28_RN_3_RD_14_0.png","C_Dist_500_LN_21_LD_28_RN_6_RD_24_0.png","C_Dist_500_LN_22_LD_28_RN_2_RD_7_0.png","C_Dist_500_LN_25_LD_30_RN_9_RD_27_0.png","C_Dist_500_LN_4_LD_6_RN_1_RD_6_0.png","C_Dist_500_LN_5_LD_6_RN_2_RD_6_0.png","C_Dist_500_LN_6_LD_9_RN_1_RD_6_0.png","C_Dist_500_LN_7_LD_10_RN_1_RD_5_0.png","C_Dist_500_LN_8_LD_12_RN_1_RD_6_0.png","C_Dist_500_LN_8_LD_12_RN_4_RD_24_0.png"],["C_Dist_500_LN_1_LD_4_RN_12_RD_16_1.png","C_Dist_500_LN_1_LD_4_RN_9_RD_12_1.png","C_Dist_500_LN_1_LD_9_RN_11_RD_18_1.png","C_Dist_500_LN_10_LD_24_RN_22_RD_24_1.png","C_Dist_500_LN_2_LD_12_RN_10_RD_15_1.png","C_Dist_500_LN_2_LD_12_RN_12_RD_18_1.png","C_Dist_500_LN_2_LD_12_RN_4_RD_6_1.png","C_Dist_500_LN_2_LD_24_RN_7_RD_12_1.png","C_Dist_500_LN_2_LD_5_RN_18_RD_20_1.png","C_Dist_500_LN_2_LD_5_RN_9_RD_10_1.png","C_Dist_500_LN_2_LD_8_RN_12_RD_16_1.png","C_Dist_500_LN_2_LD_8_RN_21_RD_28_1.png","C_Dist_500_LN_3_LD_10_RN_4_RD_5_1.png","C_Dist_500_LN_3_LD_12_RN_15_RD_20_1.png","C_Dist_500_LN_3_LD_30_RN_6_RD_10_1.png","C_Dist_500_LN_3_LD_8_RN_14_RD_16_1.png","C_Dist_500_LN_4_LD_16_RN_15_RD_20_1.png","C_Dist_500_LN_4_LD_24_RN_12_RD_18_1.png","C_Dist_500_LN_5_LD_14_RN_6_RD_7_1.png","C_Dist_500_LN_7_LD_21_RN_20_RD_24_1.png","C_Dist_500_LN_7_LD_28_RN_12_RD_16_1.png","C_Dist_500_LN_7_LD_28_RN_9_RD_12_1.png","C_Dist_500_LN_9_LD_27_RN_20_RD_24_1.png"]],"dist500_I":[["I_Dist_500_LN_2_LD_3_RN_4_RD_24_0.png","I_Dist_500_LN_5_LD_6_RN_6_RD_18_0.png","I_Dist_500_LN_7_LD_8_RN_9_RD_24_0.png"],["I_Dist_500_LN_7_LD_21_RN_5_RD_6_1.png"]],"dist500_S":[["E_Dist_500_LN_6_LD_8_RN_6_RD_24_0.png"],["E_Dist_500_LN_2_LD_12_RN_2_RD_3_1.png","E_Dist_500_LN_6_LD_24_RN_6_RD_8_1.png"]]}},{"start_time":1552313004558,"click_time":1552313006441,"finger_time":1552313005940,"fix_duration":516.7695271905396,"trial":1,"RT":1382,"MT":501,"sideResp":1,"stimulus":[],"xmouse":[776,776,776,776,776,776,776,776,776,776,776,776,776,776,776,776,776,776,776,776,776,776,774,774,774,774,773,773,773,772,771,771,771,771,771,770,770,770,770,770,770,770,770,770,770,770,770,770,770,770,770,770,770,770,770,770,770,770,770,770,770,770,770,770,770,770,770,764,753,741,728,694,683,672,663,654,641,635,631,627,623,617,609,605,587,570,537,522,510,500,492,480,476,473,471],"ymouse":[622,622,622,622,622,622,622,622,622,622,622,622,622,622,622,621,621,621,620,620,618,614,613,612,612,611,610,610,609,608,607,606,605,605,604,604,604,604,604,604,604,604,604,604,604,604,604,604,604,604,604,604,604,604,604,604,604,604,604,604,604,604,604,604,604,604,604,597,587,578,564,543,533,519,507,494,468,455,443,429,415,380,345,331,287,256,200,178,160,145,133,116,109,103,98],"timestamp_mouse":[10,23,49,62,82,102,122,142,162,183,201,222,243,263,283,301,322,342,362,382,402,421,442,463,482,503,522,542,561,581,603,622,642,662,681,703,722,742,763,783,803,821,841,862,882,903,923,943,963,982,1001,1021,1043,1062,1082,1102,1122,1142,1163,1182,1202,1222,1242,1262,1281,1301,1321,1342,1361,1382,1402,1421,1441,1462,1482,1501,1521,1541,1561,1582,1602,1622,1641,1663,1683,1701,1721,1742,1762,1783,1802,1821,1842,1862,1883],"xSR":741.5,"ySR":573.95,"xT1":424.9,"yT1":0,"xT2":1058.1,"yT2":0,"toosoon":0,"cond_shown":"Congruent","ratio_trial":200,"L_num":14,"L_den":28,"R_num":6,"R_den":20,"correct_side":1,"subjID":"Julian Andres Herrera Jimenez 7","gender":"0","school":"4","age":"9"},{"start_time":1552313009351,"click_time":1552313010960,"finger_time":1552313009360,"fix_duration":1349.7984679918065,"trial":2,"RT":9,"MT":1600,"sideResp":1,"stimulus":[],"xmouse":[867,953,995,1019,1023,1023,1023,1023,1023,1023,1023,1023,1023,1023,1023,1023,1023,1023,1023,1023,1023,1023,1023,1023,1023,1023,1023,1017,1006,992,985,975,968,967,967,966,964,959,953,946,933,911,900,884,858,839,749,706,673,654,647,642,638,629,624,619,614,610,607,600,586,526,473,409,391,382,373,372,371,370,370,370,370,371,372,374,391,405,415,424,430],"ymouse":[626,615,608,605,604,604,604,604,604,604,604,604,604,604,604,604,604,604,604,604,604,604,604,604,604,604,604,603,601,600,599,596,594,594,594,593,592,591,590,586,580,570,563,551,532,518,478,458,442,431,425,412,407,394,388,381,368,360,347,333,314,255,216,167,148,133,101,87,75,62,52,43,30,27,26,26,29,34,38,40,42],"timestamp_mouse":[9,29,51,69,89,110,129,148,169,189,209,229,250,268,289,309,329,349,369,389,409,428,448,469,488,509,528,549,570,589,608,628,648,669,689,708,728,750,770,789,809,829,848,869,889,909,929,948,969,989,1010,1029,1050,1069,1089,1110,1129,1148,1169,1189,1210,1228,1250,1269,1289,1310,1328,1349,1369,1388,1410,1429,1449,1468,1489,1509,1528,1549,1569,1590,1609],"xSR":741.5,"ySR":573.95,"xT1":424.9,"yT1":0,"xT2":1058.1,"yT2":0,"toosoon":0,"cond_shown":"Incongruent","ratio_trial":100,"L_num":8,"L_den":20,"R_num":1,"R_den":2,"correct_side":2,"subjID":"Julian Andres Herrera Jimenez 7","gender":"0","school":"4","age":"9"},{"start_time":1552313018135,"click_time":1552313019780,"finger_time":1552313018780,"fix_duration":754.6110427434618,"trial":3,"RT":645,"MT":1000,"sideResp":2,"stimulus":[],"xmouse":[778,778,778,778,778,778,778,778,778,778,778,778,778,778,778,778,778,778,778,778,778,778,778,778,778,778,778,778,778,781,782,787,808,825,847,861,876,906,920,934,945,955,958,958,958,959,959,961,962,963,965,967,971,972,973,975,979,998,1008,1017,1023,1026,1031,1034,1036,1040,1042,1044,1045,1046,1047,1049,1052,1054,1056,1057,1058,1061,1062,1063,1065,1068,1072],"ymouse":[601,601,601,601,601,601,601,601,601,601,601,601,601,601,601,601,601,601,601,601,601,601,601,601,601,601,601,601,601,601,599,593,562,543,515,497,479,445,428,413,398,387,383,382,382,381,381,375,372,368,363,356,346,344,342,341,336,314,297,281,267,255,235,226,211,201,193,182,179,177,176,173,166,163,156,152,146,137,134,129,122,113,96],"timestamp_mouse":[11,25,45,65,86,104,124,145,166,184,205,225,244,266,286,304,326,346,364,385,406,426,445,465,485,505,525,546,565,584,604,624,645,666,684,706,725,744,764,785,805,826,844,864,885,906,926,944,965,984,1005,1025,1044,1064,1085,1104,1126,1145,1164,1184,1204,1224,1244,1266,1284,1305,1324,1345,1366,1384,1405,1426,1445,1465,1484,1504,1525,1544,1566,1586,1604,1625,1645],"xSR":741.5,"ySR":573.95,"xT1":424.9,"yT1":0,"xT2":1058.1,"yT2":0,"toosoon":0,"cond_shown":"Incongruent","ratio_trial":200,"L_num":3,"L_den":4,"R_num":11,"R_den":20,"correct_side":1,"subjID":"Julian Andres Herrera Jimenez 7","gender":"0","school":"4","age":"9"},{"start_time":1552313022834,"click_time":1552313024780,"finger_time":1552313024279,"fix_duration":1231.8447047480224,"trial":4,"RT":1445,"MT":501,"sideResp":1,"stimulus":[],"xmouse":[796,796,796,796,796,796,796,796,796,796,796,796,796,796,796,796,796,796,796,796,796,796,796,796,796,796,796,796,796,796,796,796,796,796,796,796,796,796,796,796,796,796,796,796,796,796,796,796,796,796,796,796,796,796,796,796,796,796,796,796,796,796,796,796,796,796,796,796,794,789,785,778,756,740,718,695,663,598,569,548,540,535,526,525,525,525,525,525,525,525,525,525,525,525,524,522,512,480],"ymouse":[605,605,605,605,605,605,605,605,605,605,605,605,605,605,605,605,605,605,605,605,605,605,605,605,605,605,605,605,605,605,605,605,605,605,605,605,605,605,605,605,605,605,605,605,605,605,605,605,605,605,605,605,605,605,605,605,605,605,605,605,605,605,605,605,605,605,605,605,601,595,588,576,535,507,470,430,386,281,233,180,156,137,115,112,112,112,112,112,112,112,112,112,112,112,111,109,103,88],"timestamp_mouse":[10,25,45,65,86,105,125,146,165,186,206,226,247,265,286,306,325,346,367,387,406,425,446,465,487,507,526,545,566,587,606,625,647,665,686,706,725,745,765,786,805,825,846,867,885,905,926,945,966,987,1006,1026,1046,1067,1086,1106,1126,1147,1167,1186,1205,1226,1247,1266,1286,1307,1326,1345,1366,1386,1407,1425,1445,1466,1485,1506,1525,1546,1565,1587,1606,1626,1645,1665,1686,1706,1725,1745,1765,1787,1807,1826,1846,1866,1886,1905,1927,1945],"xSR":741.5,"ySR":573.95,"xT1":424.9,"yT1":0,"xT2":1058.1,"yT2":0,"toosoon":0,"cond_shown":"Congruent","ratio_trial":200,"L_num":8,"L_den":15,"R_num":7,"R_den":21,"correct_side":1,"subjID":"Julian Andres Herrera Jimenez 7","gender":"0","school":"4","age":"9"},{"start_time":1552313027161,"click_time":1552313029099,"finger_time":1552313028699,"fix_duration":939.6341349870107,"trial":5,"RT":1538,"MT":400,"sideResp":2,"stimulus":[],"xmouse":[767,767,767,767,767,767,767,767,767,767,767,767,767,767,767,767,767,767,767,767,767,767,767,767,767,767,767,767,767,767,767,767,767,767,767,767,767,767,767,767,767,767,767,767,767,767,767,767,767,767,767,767,767,767,767,767,767,767,767,767,767,767,767,767,767,767,767,770,771,775,778,784,785,787,791,802,809,820,834,843,857,867,870,878,884,894,903,912,918,925,940,947,954,975,996,1047,1063],"ymouse":[624,624,624,624,624,624,624,624,624,624,624,624,624,624,624,624,624,624,624,624,624,624,624,624,624,624,624,624,624,624,624,624,624,624,624,624,624,624,624,624,624,624,624,624,624,624,624,624,624,624,624,624,624,624,624,624,624,624,624,624,624,624,624,624,624,624,623,617,613,606,601,594,592,590,588,579,571,562,550,538,512,489,483,459,442,405,383,364,344,324,282,262,241,196,157,74,54],"timestamp_mouse":[19,41,60,79,98,118,138,160,179,199,220,239,259,280,299,320,338,359,379,400,420,440,458,478,500,519,540,560,580,599,618,639,659,680,700,720,740,759,778,798,819,839,859,880,900,919,938,958,978,998,1018,1039,1060,1078,1099,1120,1139,1159,1180,1199,1218,1238,1258,1280,1298,1319,1339,1359,1378,1399,1419,1438,1459,1478,1499,1519,1538,1560,1580,1600,1618,1638,1659,1678,1699,1718,1740,1759,1779,1799,1818,1839,1859,1880,1900,1918,1938],"xSR":741.5,"ySR":573.95,"xT1":424.9,"yT1":0,"xT2":1058.1,"yT2":0,"toosoon":0,"cond_shown":"Congruent","ratio_trial":100,"L_num":2,"L_den":5,"R_num":6,"R_den":12,"correct_side":2,"subjID":"Julian Andres Herrera Jimenez 7","gender":"0","school":"4","age":"9"},{"start_time":1552313030936,"click_time":1552313032700,"finger_time":1552313031679,"fix_duration":454.4549434897215,"trial":6,"RT":743,"MT":1021,"sideResp":2,"stimulus":[],"xmouse":[828,828,828,828,828,828,828,828,828,828,828,828,828,828,828,828,828,828,828,828,828,828,828,828,828,828,828,828,828,828,828,828,828,829,832,835,838,844,847,850,852,856,864,867,870,872,873,875,875,877,878,882,893,902,916,926,935,943,947,948,950,953,961,964,972,978,983,1001,1011,1019,1027,1033,1048,1055,1061,1069,1071,1075,1076,1077,1077,1078,1079,1079,1079,1080,1080,1080,1080],"ymouse":[621,621,621,621,621,621,621,621,621,621,621,621,621,621,621,621,621,621,621,621,621,621,621,621,621,621,621,621,621,621,621,622,622,622,621,619,616,608,604,600,595,590,578,572,564,559,556,549,547,543,538,530,502,481,445,421,404,376,366,360,355,350,339,335,323,315,304,275,258,241,226,210,176,161,147,131,125,116,113,111,109,108,105,105,104,103,101,100,99],"timestamp_mouse":[10,24,44,64,84,105,124,144,164,183,204,225,245,263,283,304,323,344,364,385,405,425,443,463,485,505,525,544,563,584,604,625,645,665,683,704,723,743,763,784,804,823,844,864,884,904,924,943,964,984,1004,1024,1043,1063,1084,1103,1123,1144,1164,1184,1204,1223,1243,1265,1284,1304,1325,1344,1363,1384,1403,1425,1443,1463,1484,1504,1524,1543,1565,1584,1604,1624,1644,1663,1684,1704,1724,1743,1764],"xSR":741.5,"ySR":573.95,"xT1":424.9,"yT1":0,"xT2":1058.1,"yT2":0,"toosoon":0,"cond_shown":"Congruent","ratio_trial":100,"L_num":1,"L_den":2,"R_num":18,"R_den":30,"correct_side":2,"subjID":"Julian Andres Herrera Jimenez 7","gender":"0","school":"4","age":"9"},{"start_time":1552313034738,"click_time":1552313036260,"finger_time":1552313035940,"fix_duration":757.5038237861633,"trial":7,"RT":1202,"MT":320,"sideResp":2,"stimulus":[],"xmouse":[809,809,809,809,809,809,809,809,809,809,809,809,809,809,809,809,809,809,809,809,809,809,809,809,809,809,809,809,809,809,809,809,809,809,809,809,809,809,809,809,809,809,809,809,809,809,809,809,809,809,809,808,808,810,814,817,818,823,825,828,830,834,839,843,854,863,874,904,915,927,935,948,977,998,1014,1043,1063],"ymouse":[626,626,626,626,626,626,626,626,626,626,626,626,626,626,626,626,626,626,626,626,626,626,626,626,626,626,626,626,626,626,626,626,626,626,626,626,626,626,626,626,626,626,626,626,626,626,626,626,626,626,626,626,623,618,610,605,602,593,588,581,571,560,530,508,460,425,387,305,281,256,235,216,171,141,118,86,63],"timestamp_mouse":[10,23,41,62,82,102,123,141,162,183,202,222,241,262,283,303,322,341,362,383,402,422,443,461,482,501,522,543,561,582,603,623,642,661,681,701,721,741,762,782,801,823,843,862,881,902,923,942,961,982,1002,1021,1042,1061,1081,1102,1122,1141,1162,1183,1202,1221,1241,1262,1282,1301,1322,1341,1361,1382,1402,1421,1442,1462,1482,1501,1522],"xSR":741.5,"ySR":573.95,"xT1":424.9,"yT1":0,"xT2":1058.1,"yT2":0,"toosoon":0,"cond_shown":"Incongruent","ratio_trial":200,"L_num":3,"L_den":4,"R_num":11,"R_den":20,"correct_side":1,"subjID":"Julian Andres Herrera Jimenez 7","gender":"0","school":"4","age":"9"},{"start_time":1552313040274,"click_time":1552313042080,"finger_time":1552313041500,"fix_duration":992.677012673818,"trial":8,"RT":1226,"MT":580,"sideResp":2,"stimulus":[],"xmouse":[790,790,790,790,790,790,790,790,790,790,790,790,790,790,790,790,790,790,790,790,790,790,790,790,790,790,790,790,790,790,790,790,790,790,790,790,790,790,790,790,790,790,790,790,790,790,790,790,791,792,793,793,793,793,794,795,796,797,798,799,802,804,806,810,816,835,853,879,898,913,937,947,956,960,964,969,971,974,977,980,983,986,989,992,994,1007,1022,1030,1054,1068,1094],"ymouse":[630,630,630,630,630,630,630,630,630,630,630,630,630,630,630,630,630,630,630,630,630,630,630,630,630,630,630,630,630,630,630,630,630,630,630,630,630,630,630,630,630,630,630,630,630,630,628,627,626,624,621,620,617,616,613,607,602,598,594,590,579,573,564,553,540,499,470,423,389,354,294,269,249,235,222,204,198,188,181,176,170,166,163,160,158,141,131,127,114,104,84],"timestamp_mouse":[14,28,45,66,87,105,125,147,165,185,205,226,246,265,286,305,325,347,366,385,405,425,446,466,486,505,526,547,565,586,606,625,646,665,686,707,725,745,767,787,807,826,847,866,886,905,927,946,966,986,1006,1026,1046,1066,1086,1105,1125,1146,1166,1186,1206,1226,1245,1265,1286,1307,1326,1346,1366,1386,1405,1426,1446,1465,1485,1507,1526,1546,1566,1586,1606,1627,1646,1665,1687,1705,1726,1746,1766,1786,1806],"xSR":741.5,"ySR":573.95,"xT1":424.9,"yT1":0,"xT2":1058.1,"yT2":0,"toosoon":0,"cond_shown":"Incongruent","ratio_trial":100,"L_num":3,"L_den":5,"R_num":11,"R_den":22,"correct_side":1,"subjID":"Julian Andres Herrera Jimenez 7","gender":"0","school":"4","age":"9"},{"start_time":1552313043692,"click_time":1552313045680,"finger_time":1552313045140,"fix_duration":250,"trial":9,"RT":1448,"MT":540,"sideResp":2,"stimulus":[],"xmouse":[797,797,797,797,797,797,797,797,797,797,797,797,797,797,797,797,797,797,797,797,797,797,797,797,797,797,797,797,797,797,797,797,797,797,797,797,797,797,797,797,797,797,797,797,797,797,797,797,797,797,797,797,797,797,797,797,798,798,798,798,798,798,798,799,800,800,802,804,806,818,825,833,845,857,888,904,932,948,960,979,988,992,997,1001,1015,1026,1037,1042,1044,1049,1051,1051,1053,1054,1057,1057,1057,1059,1061,1061],"ymouse":[647,647,647,647,647,647,647,646,646,645,645,644,644,644,644,643,643,643,643,643,643,643,643,643,643,643,643,643,643,643,643,643,643,643,643,642,642,642,642,641,641,640,640,640,640,640,640,640,640,640,639,638,638,638,636,636,635,635,635,635,635,635,635,634,633,633,631,630,627,616,610,602,589,577,550,537,513,497,479,445,427,412,395,382,353,339,318,304,293,271,263,253,242,232,205,189,161,139,119,83],"timestamp_mouse":[8,28,49,67,87,107,128,149,169,188,208,229,248,269,288,308,328,348,368,389,408,428,449,467,488,509,527,547,569,588,608,628,649,668,688,708,727,748,768,788,809,828,848,868,887,908,928,949,968,987,1008,1028,1047,1069,1088,1108,1128,1147,1167,1188,1208,1227,1249,1268,1289,1309,1327,1348,1368,1387,1408,1427,1448,1467,1487,1508,1527,1548,1569,1587,1608,1627,1648,1668,1687,1709,1727,1748,1768,1787,1808,1828,1849,1868,1887,1909,1929,1948,1967,1987],"xSR":741.5,"ySR":573.95,"xT1":424.9,"yT1":0,"xT2":1058.1,"yT2":0,"toosoon":0,"cond_shown":"Congruent","ratio_trial":200,"L_num":6,"L_den":20,"R_num":11,"R_den":22,"correct_side":2,"subjID":"Julian Andres Herrera Jimenez 7","gender":"0","school":"4","age":"9"},{"start_time":1552313047455,"click_time":1552313049880,"finger_time":1552313049040,"fix_duration":593.10039464663,"trial":10,"RT":1585,"MT":840,"sideResp":2,"stimulus":[],"xmouse":[787,787,787,787,787,787,787,787,787,787,787,787,787,787,787,787,787,787,787,787,787,787,787,787,787,787,787,787,787,787,787,787,787,787,787,787,787,787,787,787,787,787,787,787,787,787,787,787,787,787,787,787,787,787,787,787,787,787,787,787,787,787,787,787,787,787,787,787,787,787,787,787,787,787,788,792,804,811,822,827,832,839,842,847,855,862,876,885,888,891,894,899,902,906,912,919,940,955,978,994,1004,1019,1023,1028,1030,1033,1037,1039,1041,1043,1044,1045,1047,1048,1049,1050,1054,1055,1055,1057,1058,1060],"ymouse":[626,626,626,626,626,626,626,626,626,626,626,626,626,626,626,626,626,626,626,626,626,626,626,626,626,626,626,626,626,626,626,626,626,626,626,626,626,626,626,626,626,626,626,626,626,626,626,626,626,626,626,626,626,626,626,626,626,626,626,626,626,626,626,626,626,626,626,626,626,626,626,626,626,625,624,622,609,594,576,569,563,553,548,541,532,517,486,466,457,447,439,420,410,396,377,355,300,267,214,181,156,114,97,87,79,75,71,69,66,63,62,60,60,60,60,60,60,60,60,60,60,60],"timestamp_mouse":[12,28,44,64,84,104,124,144,164,186,204,224,246,265,285,305,324,344,365,385,405,425,446,466,485,505,524,546,564,584,604,626,644,666,684,705,725,745,765,785,805,824,844,864,885,906,925,946,965,986,1005,1024,1046,1065,1085,1104,1124,1146,1166,1185,1206,1225,1244,1266,1286,1305,1326,1345,1364,1385,1405,1425,1445,1466,1485,1505,1525,1544,1565,1585,1606,1624,1646,1664,1685,1704,1724,1745,1765,1785,1805,1825,1846,1864,1885,1905,1925,1945,1966,1985,2006,2024,2044,2065,2085,2106,2124,2145,2166,2185,2205,2224,2245,2264,2285,2306,2325,2345,2365,2385,2405,2425],"xSR":741.5,"ySR":573.95,"xT1":424.9,"yT1":0,"xT2":1058.1,"yT2":0,"toosoon":0,"cond_shown":"Incongruent","ratio_trial":200,"L_num":4,"L_den":5,"R_num":6,"R_den":10,"correct_side":1,"subjID":"Julian Andres Herrera Jimenez 7","gender":"0","school":"4","age":"9"},{"start_time":1552313051333,"click_time":1552313053580,"finger_time":1552313052720,"fix_duration":250,"trial":11,"RT":1387,"MT":860,"sideResp":1,"stimulus":[],"xmouse":[794,794,794,794,794,794,794,794,794,794,794,794,794,794,794,794,794,794,794,794,794,794,794,794,794,794,794,794,794,794,794,794,794,794,793,793,793,793,793,793,792,790,790,790,790,790,790,790,790,790,790,790,790,790,790,790,790,790,790,790,790,790,790,790,790,790,790,790,790,787,781,769,754,747,743,726,710,680,667,656,646,634,610,599,582,572,563,542,528,514,503,494,487,485,484,483,482,481,481,481,481,481,481,481,480,480,480,479,478,478,476,476,474],"ymouse":[594,594,594,594,594,594,594,594,594,594,594,594,594,594,594,594,594,594,594,594,594,594,594,594,594,594,592,592,592,592,592,592,592,591,589,588,588,588,588,585,583,579,577,577,577,577,577,577,577,577,577,577,577,577,577,577,577,577,577,577,577,577,577,577,577,577,577,577,577,572,565,551,529,513,507,484,464,422,404,388,375,361,339,329,315,305,295,266,248,233,219,205,187,180,173,167,162,150,146,141,138,134,128,126,122,120,117,114,112,108,106,104,99],"timestamp_mouse":[11,26,48,67,88,107,126,147,167,188,208,227,248,268,287,307,327,346,368,388,407,428,448,468,487,506,528,548,567,588,608,626,646,667,687,708,728,748,766,788,807,827,846,868,887,908,927,948,968,988,1008,1027,1048,1067,1088,1106,1126,1147,1167,1188,1206,1228,1247,1266,1287,1307,1328,1348,1366,1387,1407,1428,1446,1467,1486,1507,1527,1547,1568,1588,1608,1628,1646,1667,1686,1706,1728,1747,1767,1788,1808,1826,1847,1868,1888,1907,1927,1946,1966,1987,2007,2026,2047,2068,2088,2108,2127,2146,2168,2187,2207,2227,2247],"xSR":741.5,"ySR":573.95,"xT1":424.9,"yT1":0,"xT2":1058.1,"yT2":0,"toosoon":0,"cond_shown":"Congruent","ratio_trial":200,"L_num":13,"L_den":26,"R_num":14,"R_den":20,"correct_side":2,"subjID":"Julian Andres Herrera Jimenez 7","gender":"0","school":"4","age":"9"},{"start_time":1552313055797,"click_time":1552313057620,"finger_time":1552313057279,"fix_duration":1415.6287219218136,"trial":12,"RT":1482,"MT":341,"sideResp":2,"stimulus":[],"xmouse":[781,781,781,781,781,781,781,781,781,781,781,781,781,781,781,781,781,781,781,781,781,781,781,781,781,781,781,781,781,781,781,781,781,781,781,781,781,781,781,781,781,781,781,781,781,781,781,781,781,781,781,781,781,781,781,781,781,781,781,781,781,781,781,781,781,781,781,781,781,783,785,786,789,795,811,822,830,837,841,848,851,857,871,910,981,1009,1028,1040,1050,1066,1071,1080],"ymouse":[591,591,591,591,591,591,591,591,591,591,591,591,591,591,591,591,591,591,591,591,591,591,591,591,591,591,591,591,591,591,591,591,591,591,591,591,591,591,591,591,591,591,591,591,591,591,591,591,591,591,591,591,591,591,591,591,591,591,591,591,591,591,591,591,591,591,591,591,591,591,586,584,579,574,557,545,537,530,522,506,498,488,466,406,321,282,250,224,197,149,127,98],"timestamp_mouse":[15,37,42,63,84,104,123,143,163,184,202,223,244,264,283,302,324,342,363,384,404,423,443,462,484,503,523,543,562,583,604,622,642,663,683,702,722,742,763,782,802,824,844,863,884,903,923,943,964,983,1003,1022,1044,1063,1083,1103,1122,1144,1163,1184,1204,1223,1243,1262,1283,1302,1322,1344,1364,1383,1403,1423,1443,1463,1482,1503,1523,1544,1563,1583,1602,1623,1642,1664,1682,1703,1723,1742,1763,1783,1804,1823],"xSR":741.5,"ySR":573.95,"xT1":424.9,"yT1":0,"xT2":1058.1,"yT2":0,"toosoon":0,"cond_shown":"Congruent","ratio_trial":100,"L_num":4,"L_den":8,"R_num":6,"R_den":10,"correct_side":2,"subjID":"Julian Andres Herrera Jimenez 7","gender":"0","school":"4","age":"9"},{"start_time":1552313060430,"click_time":1552313063740,"finger_time":1552313062180,"fix_duration":1428.392001210262,"trial":13,"RT":1750,"MT":1560,"sideResp":1,"stimulus":[],"xmouse":[814,814,814,814,814,814,814,814,814,814,814,814,814,814,814,814,814,814,814,814,814,814,814,814,814,814,814,814,814,814,814,814,814,814,814,814,814,814,814,814,814,814,814,814,814,814,814,814,814,814,814,814,814,814,814,814,814,814,814,814,814,814,814,814,814,814,814,814,814,814,814,814,814,814,814,814,813,814,814,814,815,816,817,818,820,822,826,830,832,833,831,828,828,827,827,824,817,770,746,710,683,642,544,504,481,466,457,449,447,447,447,447,447,449,450,452,455,460,462,462,462,462,462,462,462,462,462,462,462,462,462,462,462,462,462,462,462,462,462,462,462,462,462,462,462,462,462,461,460,459,459,459,459,459,459,459,458,458,458,458,458,458,458,458,458,458],"ymouse":[615,615,615,615,615,615,615,615,615,615,615,615,615,615,615,615,615,615,615,615,615,615,615,615,615,615,615,615,615,615,615,615,615,615,615,615,615,615,615,615,615,615,615,615,615,615,615,615,615,615,615,615,615,615,615,615,615,615,615,615,615,615,615,615,615,615,615,615,615,615,615,615,615,615,615,615,615,611,609,608,606,604,601,598,595,589,582,565,558,543,534,529,525,524,523,520,511,476,464,452,439,420,365,342,329,316,308,295,290,286,282,278,269,264,258,249,239,211,198,184,163,152,140,138,137,137,137,137,137,137,137,137,137,137,137,137,137,137,137,137,137,137,137,137,137,137,137,134,129,125,123,120,117,116,116,116,115,114,113,113,112,111,108,105,102,97],"timestamp_mouse":[10,37,51,71,90,111,130,149,169,191,211,230,249,270,291,311,331,350,370,390,409,431,451,470,490,511,531,551,571,590,611,630,649,671,689,711,731,749,769,790,811,831,851,871,890,911,930,951,969,990,1010,1030,1050,1071,1089,1110,1130,1151,1171,1189,1209,1231,1249,1271,1291,1311,1329,1351,1371,1390,1409,1430,1451,1471,1490,1510,1530,1550,1570,1589,1610,1630,1650,1670,1690,1710,1730,1750,1771,1791,1810,1830,1849,1871,1890,1909,1930,1950,1970,1991,2010,2030,2049,2070,2090,2110,2129,2150,2170,2190,2211,2230,2249,2269,2289,2309,2330,2349,2370,2390,2410,2430,2449,2470,2490,2509,2531,2550,2571,2589,2610,2630,2650,2669,2690,2711,2730,2750,2770,2789,2810,2831,2850,2870,2889,2911,2930,2949,2970,2989,3010,3030,3049,3069,3090,3110,3130,3150,3170,3191,3210,3229,3250,3271,3290,3310],"xSR":741.5,"ySR":573.95,"xT1":424.9,"yT1":0,"xT2":1058.1,"yT2":0,"toosoon":0,"cond_shown":"Incongruent","ratio_trial":200,"L_num":3,"L_den":10,"R_num":1,"R_den":2,"correct_side":2,"subjID":"Julian Andres Herrera Jimenez 7","gender":"0","school":"4","age":"9"},{"start_time":1552313068881,"click_time":1552313071021,"finger_time":1552313070440,"fix_duration":398.514081514769,"trial":14,"RT":1559,"MT":581,"sideResp":2,"stimulus":[],"xmouse":[785,785,784,784,784,781,780,780,780,780,780,780,780,780,780,780,780,780,780,780,780,780,780,780,780,780,781,781,781,781,781,781,781,781,781,781,781,781,781,781,781,781,781,781,781,781,781,781,781,781,781,781,782,783,783,784,785,785,785,787,787,787,787,787,787,787,787,787,787,787,787,787,787,788,789,794,799,814,844,871,895,906,921,940,959,989,993,995,997,1000,1001,1002,1004,1007,1011,1015,1018,1020,1022,1025,1031,1035,1038,1041,1045,1052,1056,1061],"ymouse":[638,638,638,638,638,637,637,637,637,637,637,637,637,637,637,637,637,637,637,637,637,637,637,637,638,638,640,640,640,640,640,640,640,640,640,640,640,640,640,640,640,640,640,640,640,640,640,640,640,640,640,640,641,641,641,641,642,642,642,642,642,642,642,642,642,642,642,642,638,632,622,619,616,613,610,603,597,579,546,512,456,425,369,318,282,231,215,194,186,182,180,179,178,176,174,168,163,159,156,154,149,146,141,137,131,118,109,95],"timestamp_mouse":[1,20,44,59,80,98,120,138,158,180,200,219,239,259,280,300,319,339,359,379,400,420,440,460,480,499,519,538,559,580,600,620,639,658,679,699,719,739,758,779,798,820,839,859,879,900,919,940,960,980,998,1019,1039,1058,1079,1099,1120,1140,1159,1178,1198,1220,1240,1260,1280,1298,1318,1339,1360,1379,1399,1419,1440,1459,1479,1498,1519,1538,1559,1579,1599,1619,1639,1660,1679,1698,1719,1740,1759,1778,1798,1818,1839,1859,1879,1898,1919,1939,1958,1979,1998,2018,2039,2059,2080,2099,2120,2140],"xSR":741.5,"ySR":573.95,"xT1":424.9,"yT1":0,"xT2":1058.1,"yT2":0,"toosoon":0,"cond_shown":"Incongruent","ratio_trial":100,"L_num":3,"L_den":5,"R_num":8,"R_den":16,"correct_side":1,"subjID":"Julian Andres Herrera Jimenez 7","gender":"0","school":"4","age":"9"},{"start_time":1552313072655,"click_time":1552313074621,"finger_time":1552313074020,"fix_duration":314.9447157163693,"trial":15,"RT":1365,"MT":601,"sideResp":2,"stimulus":[],"xmouse":[829,829,829,829,829,828,827,827,827,827,827,827,826,826,824,823,822,822,821,821,821,821,821,821,821,821,821,821,821,821,821,821,821,821,821,821,821,821,821,821,820,819,819,819,819,819,819,819,819,818,818,818,818,817,817,817,816,816,816,816,816,816,816,816,816,817,826,834,854,867,878,894,903,914,924,931,942,946,957,973,989,1013,1023,1029,1034,1037,1043,1046,1050,1053,1056,1059,1061,1062,1064,1065,1067,1068,1070],"ymouse":[620,620,620,620,620,620,620,620,620,620,620,620,620,620,619,618,616,616,616,616,616,615,615,615,615,615,615,615,615,615,615,615,615,615,615,615,615,615,615,615,615,614,614,614,614,614,614,613,613,612,612,612,612,611,611,611,610,610,610,610,610,610,610,610,609,609,602,595,577,566,553,528,513,495,477,458,421,388,352,310,274,219,196,182,172,165,157,154,150,145,141,133,129,125,120,115,106,101,96],"timestamp_mouse":[9,26,49,71,84,106,125,146,166,185,206,226,245,265,286,306,326,345,365,385,406,425,445,466,486,505,526,546,566,585,605,626,646,666,685,704,725,745,765,786,805,825,846,866,885,906,924,945,965,985,1005,1024,1044,1066,1085,1105,1124,1145,1165,1186,1205,1225,1246,1265,1285,1304,1325,1346,1365,1386,1405,1425,1446,1465,1484,1505,1525,1545,1564,1585,1606,1625,1645,1665,1685,1705,1724,1744,1765,1786,1806,1825,1846,1865,1885,1905,1925,1946,1966],"xSR":741.5,"ySR":573.95,"xT1":424.9,"yT1":0,"xT2":1058.1,"yT2":0,"toosoon":0,"cond_shown":"Incongruent","ratio_trial":100,"L_num":3,"L_den":6,"R_num":4,"R_den":10,"correct_side":1,"subjID":"Julian Andres Herrera Jimenez 7","gender":"0","school":"4","age":"9"},{"start_time":1552313076441,"click_time":1552313078440,"finger_time":1552313077700,"fix_duration":659.3717345689503,"trial":16,"RT":1259,"MT":740,"sideResp":2,"stimulus":[],"xmouse":[778,778,778,778,778,778,778,778,778,778,778,778,778,778,778,778,778,778,778,778,778,778,778,778,778,778,778,778,778,778,778,778,778,778,778,778,778,778,778,778,778,778,778,778,778,778,778,778,778,778,772,768,767,767,767,767,767,772,775,788,805,827,832,836,839,842,852,857,874,914,979,1146,1226,1277,1314,1334,1343,1343,1340,1340,1339,1337,1331,1326,1319,1308,1296,1279,1271,1265,1261,1252,1248,1244,1242,1239,1235,1214,1174,1155],"ymouse":[613,613,613,613,613,613,613,613,613,613,613,613,613,613,613,613,613,613,613,613,613,613,613,613,613,613,613,613,613,613,613,613,613,613,613,613,613,613,613,613,613,613,613,613,613,613,613,613,613,612,606,601,600,600,600,600,600,600,600,599,593,576,563,550,537,525,498,486,456,401,326,132,23,0,0,0,0,0,0,0,0,0,0,2,8,19,33,62,78,86,93,106,108,109,109,109,110,108,91,83],"timestamp_mouse":[27,44,60,79,99,120,138,160,180,200,220,239,260,279,298,319,340,359,379,398,420,440,458,478,500,519,540,558,578,600,620,639,660,680,699,719,740,759,780,800,820,838,860,880,900,920,940,958,979,999,1019,1038,1059,1080,1098,1119,1140,1160,1179,1200,1219,1238,1259,1280,1300,1320,1339,1360,1379,1398,1418,1438,1459,1480,1499,1518,1540,1560,1579,1599,1619,1639,1659,1679,1698,1720,1739,1758,1779,1799,1819,1839,1859,1879,1899,1920,1939,1960,1980,1999],"xSR":741.5,"ySR":573.95,"xT1":424.9,"yT1":0,"xT2":1058.1,"yT2":0,"toosoon":0,"cond_shown":"Incongruent","ratio_trial":100,"L_num":6,"L_den":10,"R_num":13,"R_den":26,"correct_side":1,"subjID":"Julian Andres Herrera Jimenez 7","gender":"0","school":"4","age":"9"},{"start_time":1552313084174,"click_time":1552313086040,"finger_time":1552313084900,"fix_duration":552.637097481233,"trial":17,"RT":726,"MT":1140,"sideResp":1,"stimulus":[],"xmouse":[786,786,786,786,786,786,786,786,786,786,786,786,786,786,786,786,786,786,786,786,786,786,786,785,785,784,784,784,783,783,783,783,788,797,805,822,826,833,840,845,854,857,876,886,894,903,904,906,906,906,906,906,906,906,906,906,906,906,906,906,906,906,904,901,892,861,831,803,781,766,738,718,676,656,644,631,629,626,624,619,611,605,597,591,584,567,558,545,532,520,502,496,488,481],"ymouse":[638,638,638,638,638,638,638,638,638,638,638,638,638,638,638,638,638,637,637,636,636,636,635,635,634,633,632,632,631,628,626,625,616,606,596,576,569,562,559,555,551,547,536,531,523,514,511,509,509,508,508,508,508,508,508,508,508,508,508,507,507,507,507,507,507,499,493,485,479,474,464,457,441,433,424,408,402,394,385,376,355,347,332,320,308,279,262,245,225,205,163,143,113,90],"timestamp_mouse":[13,28,48,67,86,106,125,145,165,186,206,225,245,267,286,305,327,346,366,387,406,427,446,466,485,506,525,546,566,586,605,626,645,666,686,706,726,746,766,786,805,827,847,867,886,906,926,946,966,987,1005,1027,1047,1065,1086,1107,1127,1146,1167,1187,1207,1226,1246,1266,1287,1306,1326,1346,1366,1385,1407,1427,1447,1465,1485,1505,1526,1546,1566,1587,1606,1626,1647,1666,1686,1706,1726,1746,1765,1786,1806,1826,1847,1866],"xSR":741.5,"ySR":573.95,"xT1":424.9,"yT1":0,"xT2":1058.1,"yT2":0,"toosoon":0,"cond_shown":"Incongruent","ratio_trial":100,"L_num":3,"L_den":9,"R_num":7,"R_den":30,"correct_side":1,"subjID":"Julian Andres Herrera Jimenez 7","gender":"0","school":"4","age":"9"},{"start_time":1552313088679,"click_time":1552313091260,"finger_time":1552313090141,"fix_duration":1077.620778900181,"trial":18,"RT":1462,"MT":1119,"sideResp":1,"stimulus":[],"xmouse":[757,757,757,757,757,757,757,758,760,763,765,765,765,765,765,765,765,767,768,769,771,772,773,774,774,774,774,774,774,774,774,774,774,774,774,774,774,774,774,774,774,774,774,774,774,774,774,774,774,774,774,774,774,774,774,774,774,774,774,774,774,774,774,774,774,774,774,774,774,774,772,771,768,765,762,746,737,722,715,710,703,702,700,698,697,697,697,697,697,697,697,697,697,696,694,689,686,681,677,675,671,669,667,662,658,650,643,626,608,581,544,530,523,520,517,516,515,515,515,515,513,512,511,509,507,500,497,492,490,487],"ymouse":[632,632,632,632,632,632,632,632,630,628,626,626,626,626,626,626,626,626,625,625,623,622,621,620,620,620,620,620,620,620,620,620,620,620,620,620,620,620,620,620,620,620,620,620,620,620,620,620,620,620,620,620,620,620,620,620,620,620,620,620,620,620,620,620,620,620,620,620,617,613,598,592,582,569,553,496,479,454,442,431,418,415,411,408,407,405,405,405,405,405,405,405,405,404,399,389,384,376,370,368,361,359,355,348,342,330,320,296,274,246,209,193,182,176,171,166,164,162,160,158,151,147,142,137,132,120,112,104,100,95],"timestamp_mouse":[10,22,41,62,82,102,120,141,162,181,200,221,242,262,280,300,322,341,361,381,401,420,441,461,481,501,521,542,561,580,602,621,642,661,682,700,722,741,761,781,801,821,842,861,881,902,920,941,962,981,1001,1022,1041,1061,1082,1102,1121,1142,1161,1180,1202,1221,1242,1262,1282,1302,1322,1340,1360,1382,1401,1421,1441,1462,1482,1500,1521,1542,1561,1582,1600,1621,1642,1661,1682,1701,1722,1740,1762,1782,1801,1820,1842,1861,1881,1900,1922,1941,1961,1980,2001,2022,2041,2061,2080,2101,2120,2142,2161,2181,2200,2221,2241,2261,2282,2301,2322,2342,2361,2381,2400,2420,2441,2461,2480,2500,2521,2541,2561,2581],"xSR":741.5,"ySR":573.95,"xT1":424.9,"yT1":0,"xT2":1058.1,"yT2":0,"toosoon":0,"cond_shown":"Congruent","ratio_trial":300,"L_num":5,"L_den":25,"R_num":7,"R_den":14,"correct_side":2,"subjID":"Julian Andres Herrera Jimenez 7","gender":"0","school":"4","age":"9"},{"start_time":1552313092732,"click_time":1552313095379,"finger_time":1552313094180,"fix_duration":250,"trial":19,"RT":1448,"MT":1199,"sideResp":1,"stimulus":[],"xmouse":[830,830,830,830,830,829,829,829,829,827,825,825,823,822,822,821,820,819,818,818,818,816,809,788,783,773,773,772,772,771,770,769,769,769,768,768,768,767,767,766,766,765,764,763,761,759,759,767,770,770,770,770,770,770,770,771,771,771,771,772,772,773,774,776,778,783,790,808,817,824,829,834,842,848,854,855,856,864,867,870,874,883,905,918,939,944,949,954,956,961,966,972,988,994,999,999,999,999,999,999,998,997,991,989,987,984,980,968,962,954,942,923,783,680,561,528,518,518,518,518,518,517,515,512,509,508,508,506,504,503,499,496,486],"ymouse":[609,609,609,609,610,610,610,610,610,612,615,616,619,620,620,620,620,620,620,620,620,620,619,611,610,607,607,607,606,606,604,604,603,603,603,603,603,603,603,603,603,603,603,603,605,607,618,647,654,654,654,654,654,656,659,659,660,660,660,660,660,657,651,646,642,633,624,611,606,602,599,595,592,589,587,585,582,571,562,552,544,529,494,471,428,401,373,320,296,272,251,230,191,178,168,167,167,167,167,167,167,168,176,180,181,184,185,187,187,187,186,180,172,172,172,172,170,170,170,170,170,169,168,163,155,148,143,131,125,120,113,108,93],"timestamp_mouse":[11,27,64,68,88,109,128,148,168,189,208,229,247,268,288,308,327,347,368,388,408,429,448,469,487,508,528,548,568,589,608,629,649,668,687,707,729,749,768,788,808,828,848,867,887,908,928,947,969,988,1008,1029,1048,1069,1088,1108,1129,1148,1168,1189,1207,1227,1247,1268,1288,1308,1328,1347,1368,1389,1408,1428,1448,1468,1488,1508,1528,1548,1568,1588,1608,1628,1649,1667,1689,1708,1729,1747,1768,1787,1807,1828,1848,1869,1888,1908,1927,1948,1968,1988,2008,2029,2047,2068,2087,2107,2129,2147,2168,2188,2208,2229,2247,2269,2288,2308,2328,2347,2368,2388,2407,2427,2448,2469,2488,2509,2527,2548,2568,2588,2608,2629,2647],"xSR":741.5,"ySR":573.95,"xT1":424.9,"yT1":0,"xT2":1058.1,"yT2":0,"toosoon":0,"cond_shown":"Congruent","ratio_trial":200,"L_num":3,"L_den":10,"R_num":14,"R_den":28,"correct_side":2,"subjID":"Julian Andres Herrera Jimenez 7","gender":"0","school":"4","age":"9"},{"start_time":1552313097801,"click_time":1552313099861,"finger_time":1552313098560,"fix_duration":1219.945985144124,"trial":20,"RT":759,"MT":1301,"sideResp":1,"stimulus":[],"xmouse":[816,816,816,816,816,816,816,816,816,816,816,816,816,816,816,816,816,816,816,816,816,816,816,816,816,816,816,816,816,816,816,816,816,816,816,815,811,811,810,808,807,806,806,806,806,806,806,806,806,806,806,806,806,806,806,806,806,806,806,806,806,808,812,822,839,845,845,840,826,791,766,753,743,732,722,721,721,720,713,678,644,632,605,588,558,550,546,546,546,546,546,546,546,546,546,546,546,546,546,543,542,535,527,520],"ymouse":[601,601,601,601,601,601,601,601,601,601,601,601,601,601,601,601,601,601,601,601,601,601,601,601,601,601,601,601,601,601,601,601,601,601,596,590,585,579,573,563,561,559,559,559,559,559,559,559,559,559,559,559,559,559,559,559,559,557,555,547,539,513,486,451,367,328,293,252,210,146,120,109,100,92,83,82,82,82,81,78,78,78,78,78,78,78,78,78,78,78,78,78,78,78,78,78,78,78,78,77,77,76,75,74],"timestamp_mouse":[2,18,43,59,78,99,120,138,159,180,198,220,238,260,278,299,318,339,359,380,398,420,439,458,479,498,520,539,558,580,600,618,638,659,679,699,719,739,759,778,800,820,839,858,879,900,919,939,958,979,999,1020,1039,1059,1079,1098,1118,1138,1158,1179,1200,1219,1239,1259,1279,1300,1320,1339,1359,1379,1399,1420,1439,1459,1479,1500,1518,1539,1560,1579,1599,1619,1639,1660,1679,1699,1720,1740,1760,1779,1799,1819,1840,1859,1880,1900,1919,1940,1960,1978,1999,2019,2040,2060],"xSR":741.5,"ySR":573.95,"xT1":424.9,"yT1":0,"xT2":1058.1,"yT2":0,"toosoon":0,"cond_shown":"Incongruent","ratio_trial":100,"L_num":10,"L_den":25,"R_num":9,"R_den":18,"correct_side":2,"subjID":"Julian Andres Herrera Jimenez 7","gender":"0","school":"4","age":"9"},{"start_time":1552313106120,"click_time":1552313108060,"finger_time":1552313107479,"fix_duration":1039.1765862131235,"trial":21,"RT":1359,"MT":581,"sideResp":2,"stimulus":[],"xmouse":[774,774,774,774,774,774,774,774,774,774,774,774,774,774,774,774,774,774,774,774,774,774,774,774,774,774,774,774,774,774,774,775,775,775,775,775,775,775,775,776,776,776,776,777,780,782,784,784,785,785,785,785,785,785,785,785,785,785,785,785,785,785,785,785,785,785,785,785,794,802,811,826,849,906,940,976,1012,1026,1038,1039,1040,1040,1040,1041,1042,1043,1043,1043,1043,1043,1043,1044,1045,1049,1052,1054,1058,1061],"ymouse":[602,602,602,602,602,602,602,602,602,602,602,602,602,602,602,602,602,602,602,602,602,602,602,602,602,602,602,602,602,602,602,602,601,601,601,601,601,601,601,600,600,600,599,598,594,589,588,587,587,587,587,587,587,587,587,587,587,587,587,587,587,587,587,587,587,587,587,584,561,547,532,516,496,454,429,403,373,360,343,337,334,330,328,324,320,312,305,296,277,266,254,238,219,175,138,124,88,65],"timestamp_mouse":[10,20,43,61,81,100,121,140,159,181,201,221,240,260,281,301,320,339,360,379,401,420,441,460,480,501,519,539,561,581,600,619,641,661,679,701,721,740,760,780,800,821,840,859,880,900,920,939,960,981,1001,1020,1040,1059,1081,1100,1121,1139,1159,1181,1201,1220,1241,1261,1279,1301,1320,1340,1359,1379,1399,1420,1440,1460,1480,1500,1520,1541,1560,1580,1599,1621,1641,1660,1681,1700,1721,1741,1760,1779,1800,1820,1839,1859,1879,1900,1920,1940],"xSR":741.5,"ySR":573.95,"xT1":424.9,"yT1":0,"xT2":1058.1,"yT2":0,"toosoon":0,"cond_shown":"Incongruent","ratio_trial":100,"L_num":9,"L_den":15,"R_num":14,"R_den":28,"correct_side":1,"subjID":"Julian Andres Herrera Jimenez 7","gender":"0","school":"4","age":"9"},{"start_time":1552313109591,"click_time":1552313111440,"finger_time":1552313110940,"fix_duration":250,"trial":22,"RT":1349,"MT":500,"sideResp":2,"stimulus":[],"xmouse":[818,817,816,813,810,810,808,808,808,808,808,810,811,813,813,813,813,813,813,813,813,813,813,813,813,813,813,813,813,813,813,813,813,813,813,813,813,813,813,813,813,813,813,813,813,813,813,813,813,813,813,813,813,813,813,813,813,813,813,813,813,813,813,813,813,815,819,826,836,846,851,851,854,856,860,863,867,872,878,888,899,907,916,927,950,963,977,989,1004,1015,1050,1067,1084],"ymouse":[619,619,619,619,619,619,618,618,618,616,611,607,603,599,598,598,598,598,598,598,598,594,593,591,589,588,588,588,588,588,588,588,588,588,588,588,588,588,588,588,588,588,588,588,588,588,588,588,588,588,588,588,588,588,588,588,588,588,588,588,588,588,588,587,584,581,574,566,554,535,527,525,517,512,503,499,491,483,474,455,437,424,412,396,361,340,316,287,254,225,146,106,55],"timestamp_mouse":[8,29,49,69,89,109,130,149,170,189,210,229,249,269,290,309,329,350,369,389,409,429,448,469,488,508,529,549,568,590,610,629,649,669,690,709,728,749,768,788,808,828,850,869,889,910,930,948,969,989,1008,1029,1049,1068,1089,1109,1128,1149,1170,1189,1209,1229,1249,1269,1288,1308,1330,1349,1369,1389,1409,1429,1449,1468,1488,1509,1529,1549,1568,1588,1609,1629,1649,1669,1689,1709,1729,1748,1769,1788,1809,1829,1849],"xSR":741.5,"ySR":573.95,"xT1":424.9,"yT1":0,"xT2":1058.1,"yT2":0,"toosoon":0,"cond_shown":"Incongruent","ratio_trial":300,"L_num":13,"L_den":26,"R_num":12,"R_den":15,"correct_side":2,"subjID":"Julian Andres Herrera Jimenez 7","gender":"0","school":"4","age":"9"},{"start_time":1552313112992,"click_time":1552313116360,"finger_time":1552313114540,"fix_duration":250,"trial":23,"RT":1548,"MT":1820,"sideResp":1,"stimulus":[],"xmouse":[798,798,798,798,797,797,797,797,797,797,797,797,796,796,796,796,796,796,796,796,796,796,796,796,796,796,796,796,796,796,796,796,796,796,796,796,796,796,796,796,796,796,796,796,796,796,796,796,796,796,796,796,796,796,796,796,796,796,796,796,796,796,796,796,796,796,796,796,797,798,800,801,801,803,815,829,841,851,853,856,857,858,860,864,872,877,880,883,886,886,886,886,886,886,886,886,886,885,885,885,885,885,885,885,885,885,885,885,885,885,885,884,884,884,883,881,877,874,868,856,845,829,817,808,785,766,744,727,719,698,662,642,549,487,439,437,435,433,432,429,429,429,429,429,429,429,429,431,432,434,435,436,438,440,442,442,442,442,442,443,443,443,444,446,450,455,459,466,472],"ymouse":[645,645,645,645,642,641,641,641,641,641,641,641,641,641,641,641,641,640,638,637,637,637,637,637,637,637,637,637,637,637,637,637,637,637,637,637,637,637,637,637,637,637,637,637,637,637,637,637,637,637,637,637,637,637,637,637,637,637,637,635,635,635,634,634,634,634,633,633,631,631,628,627,626,624,615,601,586,573,564,557,556,555,553,549,539,533,526,520,515,513,512,511,511,511,511,511,511,510,510,507,505,505,501,498,495,494,493,492,491,490,490,488,488,487,485,483,479,476,472,464,459,448,441,433,414,400,386,377,367,325,286,271,218,189,165,163,160,156,154,150,149,148,148,148,148,147,147,147,147,147,147,147,147,147,147,147,147,147,147,145,143,142,140,137,131,124,118,108,98],"timestamp_mouse":[9,28,52,69,88,108,129,148,169,188,208,228,248,269,288,307,327,348,369,387,408,428,448,469,488,507,527,548,568,589,608,627,649,667,687,708,729,748,769,788,809,829,848,867,887,909,929,948,967,989,1008,1028,1047,1068,1089,1107,1128,1149,1169,1188,1208,1229,1249,1269,1288,1309,1327,1348,1368,1388,1408,1428,1447,1468,1487,1507,1528,1548,1568,1587,1608,1628,1647,1668,1687,1708,1727,1748,1769,1788,1808,1828,1848,1868,1888,1909,1927,1948,1969,1987,2008,2027,2048,2068,2088,2108,2129,2148,2169,2187,2208,2227,2247,2268,2288,2308,2328,2348,2367,2388,2409,2428,2448,2468,2487,2508,2528,2548,2568,2588,2607,2628,2648,2668,2688,2708,2728,2748,2768,2787,2808,2828,2848,2868,2887,2907,2928,2948,2968,2987,3007,3028,3049,3068,3087,3108,3127,3147,3169,3187,3208,3228,3249,3268,3287,3307,3328,3347,3368],"xSR":741.5,"ySR":573.95,"xT1":424.9,"yT1":0,"xT2":1058.1,"yT2":0,"toosoon":0,"cond_shown":"Congruent","ratio_trial":300,"L_num":1,"L_den":30,"R_num":8,"R_den":24,"correct_side":2,"subjID":"Julian Andres Herrera Jimenez 7","gender":"0","school":"4","age":"9"},{"start_time":1552313118650,"click_time":1552313121140,"finger_time":1552313119580,"fix_duration":669.968507320463,"trial":24,"RT":930,"MT":1560,"sideResp":2,"stimulus":[],"xmouse":[789,789,789,789,789,789,789,789,789,789,789,789,789,789,789,789,789,789,789,789,789,789,789,789,789,789,789,789,789,789,789,789,789,788,788,788,788,787,786,786,786,785,784,783,778,771,759,754,750,749,747,745,744,744,744,744,744,743,743,740,738,736,736,736,736,736,736,736,736,736,737,743,744,744,744,744,743,739,734,733,731,731,731,732,733,733,736,739,753,767,780,791,796,804,811,819,836,850,855,870,880,905,952,1014,1069,1113,1155,1159,1163,1165,1167,1168,1168,1168,1168,1168,1168,1168,1167,1167,1167,1166,1163,1160,1156],"ymouse":[629,629,629,629,629,629,629,629,629,629,629,629,629,629,629,629,629,629,629,629,629,629,629,629,629,629,629,629,629,629,629,629,629,627,626,625,622,619,618,615,614,612,608,604,593,577,552,542,532,527,522,515,512,509,507,505,501,497,493,485,482,480,480,480,480,480,480,479,479,479,478,473,470,467,461,450,423,410,396,388,383,375,373,370,368,367,367,365,364,361,357,346,333,318,305,293,267,248,243,223,211,198,185,170,154,141,124,119,116,115,114,111,110,108,106,106,106,106,105,105,105,105,103,100,97],"timestamp_mouse":[15,42,49,69,91,110,131,150,171,189,211,230,249,269,291,311,330,350,371,389,410,431,451,470,489,510,530,549,570,590,609,629,650,671,689,710,729,751,770,790,810,830,850,870,889,910,930,950,970,991,1011,1029,1049,1070,1089,1111,1129,1149,1170,1190,1210,1230,1249,1270,1290,1309,1331,1351,1370,1389,1410,1430,1450,1471,1489,1509,1529,1550,1570,1589,1609,1630,1650,1670,1690,1709,1730,1751,1770,1791,1810,1829,1850,1870,1890,1911,1929,1950,1970,1989,2009,2029,2050,2070,2090,2110,2130,2151,2169,2190,2211,2230,2249,2270,2291,2310,2330,2349,2370,2389,2409,2430,2449,2470,2490],"xSR":741.5,"ySR":573.95,"xT1":424.9,"yT1":0,"xT2":1058.1,"yT2":0,"toosoon":0,"cond_shown":"Congruent","ratio_trial":100,"L_num":8,"L_den":16,"R_num":2,"R_den":5,"correct_side":1,"subjID":"Julian Andres Herrera Jimenez 7","gender":"0","school":"4","age":"9"},{"start_time":1552313122841,"click_time":1552313124961,"finger_time":1552313123220,"fix_duration":279.7270906584307,"trial":25,"RT":379,"MT":1741,"sideResp":2,"stimulus":[],"xmouse":[805,805,805,805,805,805,805,805,805,805,805,805,805,804,800,799,795,791,786,783,781,779,779,779,779,779,778,778,778,778,778,778,778,778,778,778,778,778,778,778,778,778,778,778,778,778,778,778,778,778,778,778,778,778,778,778,772,760,744,740,735,732,732,732,732,732,732,736,752,762,777,800,812,832,844,854,871,876,878,883,889,910,927,930,938,943,953,959,967,972,978,989,992,996,999,1005,1021,1028,1037,1041,1043,1049,1052,1054,1057,1059],"ymouse":[579,579,579,579,579,579,579,579,579,579,579,579,579,580,579,578,577,575,572,570,568,567,567,567,567,567,567,566,566,566,566,566,566,566,566,566,566,566,566,566,566,566,566,566,566,566,566,566,566,566,566,566,566,566,566,566,561,553,544,540,536,531,531,531,531,529,526,523,515,508,500,482,467,443,423,406,386,379,377,372,367,355,346,345,341,337,325,315,298,288,278,252,238,223,208,191,157,144,126,119,112,102,98,96,94,92],"timestamp_mouse":[19,45,58,78,99,120,139,158,179,200,219,238,259,280,299,319,339,360,379,399,420,438,460,479,499,518,538,558,579,598,620,639,659,680,699,719,738,758,779,800,819,839,858,879,900,918,938,960,979,1000,1019,1039,1058,1080,1099,1119,1138,1158,1179,1198,1219,1239,1259,1279,1298,1319,1338,1358,1379,1400,1419,1438,1459,1480,1499,1520,1539,1558,1579,1599,1619,1638,1664,1679,1698,1719,1738,1760,1778,1798,1819,1839,1858,1879,1899,1920,1939,1959,1979,1999,2018,2038,2060,2079,2098,2119],"xSR":741.5,"ySR":573.95,"xT1":424.9,"yT1":0,"xT2":1058.1,"yT2":0,"toosoon":0,"cond_shown":"Congruent","ratio_trial":200,"L_num":3,"L_den":10,"R_num":7,"R_den":14,"correct_side":2,"subjID":"Julian Andres Herrera Jimenez 7","gender":"0","school":"4","age":"9"},{"start_time":1552313127358,"click_time":1552313129180,"finger_time":1552313128801,"fix_duration":1176.7776458769997,"trial":26,"RT":1443,"MT":379,"sideResp":2,"stimulus":[],"xmouse":[774,774,774,774,774,774,774,774,774,774,774,774,774,774,774,774,774,774,774,774,774,774,774,774,774,774,774,774,774,774,774,774,774,774,774,774,774,774,774,774,774,774,774,774,774,774,774,774,774,774,774,774,774,774,774,774,774,774,774,775,775,775,775,775,775,776,778,781,783,789,797,816,834,847,858,868,881,888,903,915,933,969,989,994,1010,1021,1039,1046,1054,1061,1070,1082],"ymouse":[624,624,624,624,624,624,624,624,624,624,624,624,624,624,624,624,624,624,624,624,624,624,624,624,624,624,624,624,624,624,624,624,624,624,624,624,624,624,624,624,624,624,624,623,623,623,622,622,622,622,622,622,622,622,622,622,622,622,621,621,621,620,620,620,618,617,614,611,608,603,597,585,569,553,533,510,463,442,403,376,340,279,239,226,192,173,147,140,131,125,116,96],"timestamp_mouse":[10,35,42,62,82,101,121,143,162,181,201,221,242,261,282,303,322,342,361,382,403,421,442,461,482,502,522,541,561,583,601,622,643,663,682,702,721,742,761,782,802,823,842,863,882,902,922,942,963,981,1001,1022,1042,1063,1082,1102,1123,1142,1161,1183,1203,1222,1243,1262,1281,1302,1322,1342,1362,1381,1402,1421,1443,1462,1482,1503,1522,1542,1562,1583,1603,1621,1642,1662,1682,1702,1722,1742,1762,1782,1802,1822],"xSR":741.5,"ySR":573.95,"xT1":424.9,"yT1":0,"xT2":1058.1,"yT2":0,"toosoon":0,"cond_shown":"Congruent","ratio_trial":200,"L_num":3,"L_den":10,"R_num":14,"R_den":28,"correct_side":2,"subjID":"Julian Andres Herrera Jimenez 7","gender":"0","school":"4","age":"9"},{"start_time":1552313131708,"click_time":1552313133680,"finger_time":1552313133079,"fix_duration":1146.9365615631064,"trial":27,"RT":1371,"MT":601,"sideResp":2,"stimulus":[],"xmouse":[780,780,780,780,780,780,780,780,780,780,780,780,780,780,780,780,780,780,780,780,780,780,780,780,780,780,780,780,780,780,780,780,780,780,780,780,780,780,780,780,780,780,780,780,780,780,780,780,780,780,781,783,784,785,785,785,785,785,785,785,785,786,787,788,788,789,801,823,864,878,894,912,927,961,974,987,995,1008,1051,1070,1086,1099,1105,1113,1115,1118,1119,1120,1120,1120,1120,1120,1120,1120,1120,1120,1120,1120,1122],"ymouse":[615,615,615,615,615,615,615,615,615,615,615,615,615,615,615,615,615,615,615,615,615,615,615,615,615,615,615,615,615,615,615,615,615,615,615,615,615,615,615,615,615,615,615,615,615,615,615,615,615,615,615,615,615,615,615,615,615,615,615,615,615,615,615,615,615,615,613,597,554,540,529,515,502,460,439,411,394,374,322,305,292,280,270,255,248,241,236,232,220,212,201,189,177,152,143,125,113,101,80],"timestamp_mouse":[11,32,52,73,93,113,132,152,173,193,213,232,252,273,291,312,332,352,373,392,412,433,453,471,492,511,532,553,572,592,613,633,652,672,693,712,732,751,772,792,813,832,851,873,892,913,932,952,971,992,1011,1032,1051,1072,1091,1113,1131,1152,1172,1191,1212,1231,1253,1273,1293,1312,1332,1353,1371,1391,1411,1433,1452,1471,1492,1512,1531,1552,1571,1591,1612,1631,1652,1671,1691,1712,1732,1753,1772,1792,1813,1831,1853,1871,1891,1912,1932,1952,1971],"xSR":741.5,"ySR":573.95,"xT1":424.9,"yT1":0,"xT2":1058.1,"yT2":0,"toosoon":0,"cond_shown":"Incongruent","ratio_trial":200,"L_num":9,"L_den":15,"R_num":8,"R_den":10,"correct_side":2,"subjID":"Julian Andres Herrera Jimenez 7","gender":"0","school":"4","age":"9"},{"start_time":1552313136206,"click_time":1552313138140,"finger_time":1552313137719,"fix_duration":1043.3522566252786,"trial":28,"RT":1513,"MT":421,"sideResp":2,"stimulus":[],"xmouse":[796,796,796,796,796,796,796,796,796,796,796,796,796,796,796,796,796,796,796,797,797,797,797,797,797,798,798,798,798,798,798,798,798,798,798,798,798,798,798,798,798,798,798,798,798,798,798,798,798,798,798,798,798,798,798,798,798,798,798,799,799,800,801,802,803,803,803,804,804,806,811,814,817,824,827,829,831,834,847,857,873,879,886,904,918,935,953,968,1004,1028,1033,1050,1058,1067,1069,1070,1070],"ymouse":[628,628,628,628,628,628,628,628,628,628,628,628,628,628,628,628,628,628,628,628,628,628,628,628,628,628,628,628,628,628,628,628,628,628,628,628,628,628,628,628,628,628,628,628,628,628,628,628,628,628,628,628,628,628,628,628,628,628,628,628,628,627,627,627,627,627,627,627,627,626,623,617,610,586,574,567,561,555,534,518,496,484,472,440,420,399,374,356,311,271,260,221,199,157,138,118,97],"timestamp_mouse":[14,38,54,75,95,114,134,154,174,195,215,234,255,274,294,314,335,353,374,394,414,435,453,474,494,515,535,555,575,594,614,634,653,675,695,714,734,754,775,795,814,834,854,875,894,913,933,955,975,994,1015,1033,1054,1075,1094,1113,1134,1154,1175,1194,1214,1234,1254,1274,1294,1314,1335,1354,1374,1394,1413,1435,1454,1473,1494,1513,1533,1554,1574,1593,1613,1635,1654,1674,1693,1714,1734,1753,1773,1793,1814,1833,1854,1873,1894,1914,1934],"xSR":741.5,"ySR":573.95,"xT1":424.9,"yT1":0,"xT2":1058.1,"yT2":0,"toosoon":0,"cond_shown":"Incongruent","ratio_trial":100,"L_num":13,"L_den":26,"R_num":12,"R_den":20,"correct_side":2,"subjID":"Julian Andres Herrera Jimenez 7","gender":"0","school":"4","age":"9"},{"start_time":1552313142041,"click_time":1552313144180,"finger_time":1552313143460,"fix_duration":638.6015482464317,"trial":29,"RT":1419,"MT":720,"sideResp":2,"stimulus":[],"xmouse":[771,771,770,770,770,770,768,768,768,768,768,768,768,768,768,768,768,768,768,768,768,768,768,768,768,768,768,768,768,768,768,768,768,768,768,768,768,768,768,768,768,768,767,767,767,767,767,767,767,767,767,767,767,767,767,767,767,767,767,767,767,767,767,767,767,767,767,768,771,778,783,787,800,806,813,818,824,837,843,854,862,871,894,905,916,926,939,964,977,988,1003,1012,1028,1033,1035,1038,1042,1048,1051,1054,1055,1056,1056,1056,1056,1057,1057,1060],"ymouse":[620,620,620,620,620,620,620,620,620,620,620,620,620,620,620,620,620,620,620,620,620,620,620,620,620,620,620,620,620,620,620,620,620,620,620,620,620,620,620,620,620,620,620,620,620,620,620,620,620,620,620,620,620,620,620,620,620,620,620,620,620,620,620,620,620,620,617,613,604,589,577,567,541,526,511,498,483,456,442,421,408,395,366,352,337,325,313,293,280,267,244,228,195,177,160,143,129,109,102,96,93,92,91,91,91,90,90,86],"timestamp_mouse":[1,20,39,59,78,99,120,139,159,180,198,220,238,259,278,299,318,339,359,378,400,418,438,458,478,498,519,538,559,580,599,620,639,659,680,700,719,739,759,778,799,820,840,858,880,898,919,939,958,980,1000,1020,1040,1060,1079,1098,1119,1138,1159,1180,1200,1218,1238,1259,1280,1300,1319,1338,1359,1379,1400,1419,1438,1458,1478,1499,1520,1539,1559,1578,1599,1619,1639,1658,1679,1699,1719,1738,1759,1779,1799,1819,1838,1858,1879,1899,1919,1939,1958,1978,1998,2020,2040,2059,2079,2099,2118,2139],"xSR":741.5,"ySR":573.95,"xT1":424.9,"yT1":0,"xT2":1058.1,"yT2":0,"toosoon":0,"cond_shown":"Congruent","ratio_trial":100,"L_num":6,"L_den":12,"R_num":15,"R_den":25,"correct_side":2,"subjID":"Julian Andres Herrera Jimenez 7","gender":"0","school":"4","age":"9"},{"start_time":1552313146112,"click_time":1552313149641,"finger_time":1552313147039,"fix_duration":511.3678545019139,"trial":30,"RT":927,"MT":2602,"sideResp":1,"stimulus":[],"xmouse":[805,805,805,805,805,805,805,805,805,805,805,805,805,805,805,805,805,804,804,804,804,803,803,803,802,801,801,801,801,801,801,801,801,800,800,799,798,797,795,793,791,788,784,775,769,758,750,746,744,744,744,744,744,744,744,744,744,744,744,744,744,744,743,713,674,654,645,644,644,644,644,644,644,644,642,634,623,619,618,618,618,618,618,619,622,636,654,674,695,701,708,722,748,839,875,897,899,900,902,907,910,911,911,911,911,911,911,912,923,942,964,987,1011,1043,1051,1059,1061,1062,1062,1062,1062,1062,1062,1062,1063,1059,1035,970,743,611,474,309,147,0,0,0,0,0,0,0,0,2,5,14,19,26,32,42,75,93,106,121,133,147,153,173,190,207,242,256,266,275,282,302,306,315,320,324,334,339,344,350,352,363,377,402,458],"ymouse":[637,637,637,637,637,637,637,637,637,637,637,637,637,637,637,637,637,636,636,636,636,635,635,634,633,632,632,632,632,632,632,632,632,631,630,629,629,628,626,623,621,618,614,602,592,575,564,558,555,555,555,555,555,555,555,555,555,555,555,555,555,554,548,506,451,421,406,397,383,377,373,370,366,354,341,322,298,289,283,283,283,283,283,282,281,278,275,275,275,275,275,275,275,275,275,275,275,275,275,275,275,275,275,275,275,275,275,275,275,275,277,280,280,280,277,275,274,274,274,274,274,274,274,274,273,273,269,260,232,230,217,196,172,162,162,162,161,161,159,159,158,157,156,155,153,152,152,152,152,152,152,152,152,152,150,148,145,142,136,134,131,130,130,127,125,124,122,120,114,112,109,106,104,97,90,80,49],"timestamp_mouse":[10,42,48,67,89,107,127,148,169,189,208,227,248,269,288,308,327,348,368,388,407,427,449,467,487,508,528,547,569,588,608,629,648,668,688,708,729,748,768,788,808,828,848,868,887,908,927,947,967,987,1009,1028,1047,1069,1089,1108,1127,1147,1168,1188,1209,1228,1248,1268,1288,1308,1329,1347,1367,1388,1408,1428,1447,1467,1489,1508,1528,1548,1569,1588,1608,1628,1648,1667,1687,1708,1728,1748,1767,1787,1808,1827,1848,1868,1887,1908,1928,1949,1968,1987,2008,2029,2048,2068,2089,2109,2127,2147,2167,2188,2209,2228,2247,2267,2287,2307,2328,2349,2369,2389,2409,2429,2448,2467,2487,2507,2528,2547,2567,2588,2608,2629,2648,2667,2689,2708,2728,2748,2768,2787,2808,2827,2848,2867,2887,2908,2929,2948,2967,2988,3008,3028,3049,3067,3087,3108,3128,3148,3167,3188,3208,3227,3247,3268,3287,3308,3327,3348,3368,3387,3408,3427,3447,3468,3489,3509,3529],"xSR":741.5,"ySR":573.95,"xT1":424.9,"yT1":0,"xT2":1058.1,"yT2":0,"toosoon":0,"cond_shown":"Congruent","ratio_trial":100,"L_num":11,"L_den":22,"R_num":4,"R_den":10,"correct_side":1,"subjID":"Julian Andres Herrera Jimenez 7","gender":"0","school":"4","age":"9"},{"start_time":1552313155858,"click_time":1552313157320,"finger_time":1552313156500,"fix_duration":1036.0167562305512,"trial":31,"RT":642,"MT":820,"sideResp":1,"stimulus":[],"xmouse":[782,782,782,782,782,782,782,782,782,782,782,782,782,782,782,782,782,782,782,782,782,782,782,782,782,782,782,783,784,784,786,786,788,789,793,798,804,806,806,807,807,807,807,807,807,807,807,806,804,802,795,776,761,744,720,698,653,635,612,593,574,541,530,525,520,516,507,503,500,498,497,494,488,482],"ymouse":[604,604,604,604,604,604,604,604,604,604,604,604,604,604,604,604,604,604,604,604,604,604,602,600,598,597,594,590,588,584,582,575,572,567,558,545,525,520,516,514,513,512,511,511,511,510,509,508,507,505,502,491,483,473,460,447,420,405,384,364,343,303,284,267,253,239,208,194,180,163,152,128,112,94],"timestamp_mouse":[10,37,41,62,81,103,123,141,161,183,202,222,243,262,283,301,323,342,361,382,402,422,442,462,482,501,522,543,562,582,601,621,642,663,681,702,722,743,762,782,801,821,842,862,882,901,921,943,962,982,1003,1021,1041,1061,1083,1103,1121,1142,1162,1182,1201,1221,1242,1261,1281,1302,1322,1343,1362,1383,1403,1422,1442,1462],"xSR":741.5,"ySR":573.95,"xT1":424.9,"yT1":0,"xT2":1058.1,"yT2":0,"toosoon":0,"cond_shown":"Incongruent","ratio_trial":100,"L_num":3,"L_den":5,"R_num":11,"R_den":22,"correct_side":1,"subjID":"Julian Andres Herrera Jimenez 7","gender":"0","school":"4","age":"9"},{"start_time":1552313158571,"click_time":1552313160680,"finger_time":1552313160320,"fix_duration":250,"trial":32,"RT":1749,"MT":360,"sideResp":1,"stimulus":[],"xmouse":[781,781,781,781,781,781,781,781,781,781,781,781,781,781,781,781,781,781,781,781,781,781,781,781,781,781,781,781,781,781,781,781,781,781,781,781,781,781,781,781,781,781,781,781,781,781,781,781,781,781,781,781,781,781,781,781,781,781,781,781,781,781,781,781,781,781,781,781,781,781,781,781,781,782,787,804,805,805,805,805,805,805,805,805,805,790,773,752,724,696,643,612,563,538,523,504,498,493,487,480,461,454,454,458,461,463],"ymouse":[622,622,622,622,622,622,622,622,622,622,622,622,622,622,622,622,622,622,622,622,622,622,622,622,622,622,622,622,622,622,622,622,622,622,622,622,622,622,622,622,622,622,622,622,622,622,622,622,622,622,622,622,622,622,622,622,622,622,622,622,622,622,622,622,622,622,622,622,622,622,622,622,622,623,623,619,619,619,619,619,619,619,619,619,618,599,584,568,547,529,487,462,425,402,387,358,345,331,313,287,218,173,155,135,116,75],"timestamp_mouse":[11,34,49,68,89,110,128,149,170,190,209,229,250,270,289,308,329,350,370,390,409,429,450,469,489,508,530,550,569,588,609,628,649,670,689,710,729,749,768,789,810,830,850,869,889,909,929,950,969,990,1010,1029,1050,1068,1090,1110,1129,1150,1168,1190,1208,1228,1248,1268,1288,1308,1328,1350,1368,1388,1408,1428,1448,1469,1488,1508,1530,1549,1569,1589,1609,1629,1650,1669,1689,1708,1729,1749,1769,1790,1808,1828,1849,1868,1889,1909,1928,1948,1969,1989,2008,2028,2049,2069,2089,2109],"xSR":741.5,"ySR":573.95,"xT1":424.9,"yT1":0,"xT2":1058.1,"yT2":0,"toosoon":0,"cond_shown":"Congruent","ratio_trial":100,"L_num":3,"L_den":6,"R_num":2,"R_den":5,"correct_side":1,"subjID":"Julian Andres Herrera Jimenez 7","gender":"0","school":"4","age":"9"},{"start_time":1552313161911,"click_time":1552313163559,"finger_time":1552313163060,"fix_duration":250,"trial":33,"RT":1149,"MT":499,"sideResp":2,"stimulus":[],"xmouse":[768,768,768,768,768,768,768,768,768,768,768,768,768,768,768,768,768,768,768,768,768,768,768,768,768,768,768,768,768,768,768,768,768,768,768,768,768,768,768,768,768,768,768,768,768,768,768,768,768,768,768,768,768,768,776,789,814,852,954,1004,1048,1083,1110,1139,1155,1160,1171,1177,1181,1181,1181,1181,1181,1181,1181,1179,1176,1171,1166,1166,1165,1162,1158],"ymouse":[612,612,612,612,612,612,612,612,612,612,612,612,612,612,612,612,612,612,612,612,612,612,612,612,612,612,612,612,612,612,612,612,612,612,612,612,612,612,612,612,612,612,612,612,612,612,612,612,612,612,612,612,612,612,605,596,580,553,480,439,401,363,324,261,224,214,181,157,104,77,52,34,23,15,15,15,15,15,15,15,15,15,16],"timestamp_mouse":[9,28,51,69,88,109,130,149,168,190,208,229,248,268,289,308,329,350,370,388,409,429,449,469,490,509,528,549,570,589,609,629,650,670,688,708,729,748,768,790,809,830,849,869,889,909,929,949,970,988,1008,1029,1048,1068,1089,1109,1129,1149,1169,1189,1209,1228,1249,1268,1288,1309,1328,1348,1369,1388,1408,1430,1449,1469,1490,1509,1529,1549,1568,1590,1609,1628,1648],"xSR":741.5,"ySR":573.95,"xT1":424.9,"yT1":0,"xT2":1058.1,"yT2":0,"toosoon":0,"cond_shown":"Incongruent","ratio_trial":100,"L_num":6,"L_den":12,"R_num":3,"R_den":5,"correct_side":2,"subjID":"Julian Andres Herrera Jimenez 7","gender":"0","school":"4","age":"9"},{"start_time":1552313165387,"click_time":1552313167841,"finger_time":1552313166719,"fix_duration":325.4156350831193,"trial":34,"RT":1332,"MT":1122,"sideResp":2,"stimulus":[],"xmouse":[801,801,801,801,801,801,801,801,801,801,801,801,801,801,801,801,801,801,801,801,801,801,801,801,801,800,800,800,800,800,800,800,800,800,800,800,800,800,800,800,800,800,800,800,800,800,800,800,800,800,800,800,800,800,800,800,800,800,800,800,800,800,799,798,795,793,792,789,784,774,771,766,764,762,759,757,755,753,749,745,741,735,732,730,728,728,727,727,727,725,723,722,722,722,722,726,749,787,814,842,850,858,861,865,874,879,884,897,918,990,1030,1065,1075,1078,1083,1085,1089,1093,1097,1100,1100,1100,1096],"ymouse":[626,626,626,626,626,626,626,626,626,626,626,626,626,626,626,626,626,626,626,626,626,626,626,626,626,626,626,626,626,626,626,626,626,626,626,626,626,626,626,626,626,626,626,626,626,626,626,626,626,626,626,626,626,626,626,626,626,626,623,619,613,612,605,600,588,580,573,564,554,530,522,511,507,502,495,490,486,480,475,464,456,446,442,439,434,434,433,433,432,429,426,425,424,423,422,421,414,404,396,383,377,363,357,352,344,339,334,324,312,279,264,249,241,237,228,222,215,208,195,164,136,126,95],"timestamp_mouse":[13,45,54,74,93,113,132,153,173,192,212,232,252,272,294,313,333,352,373,394,413,432,453,473,492,514,533,553,574,592,613,633,653,674,693,712,734,753,774,792,813,833,853,873,894,913,933,954,972,993,1012,1032,1054,1072,1092,1112,1133,1153,1173,1193,1214,1233,1252,1274,1293,1313,1332,1353,1372,1392,1412,1433,1453,1472,1492,1513,1533,1553,1572,1593,1612,1633,1653,1673,1692,1713,1732,1752,1773,1792,1812,1834,1853,1872,1893,1912,1932,1952,1973,1992,2012,2033,2052,2073,2092,2113,2133,2153,2174,2193,2212,2232,2253,2273,2293,2313,2333,2353,2372,2393,2412,2433,2454],"xSR":741.5,"ySR":573.95,"xT1":424.9,"yT1":0,"xT2":1058.1,"yT2":0,"toosoon":0,"cond_shown":"Congruent","ratio_trial":300,"L_num":4,"L_den":20,"R_num":13,"R_den":26,"correct_side":2,"subjID":"Julian Andres Herrera Jimenez 7","gender":"0","school":"4","age":"9"},{"start_time":1552313169190,"click_time":1552313170980,"finger_time":1552313170420,"fix_duration":509.4787092237765,"trial":35,"RT":1230,"MT":560,"sideResp":1,"stimulus":[],"xmouse":[796,796,796,796,796,796,796,796,796,796,796,796,796,796,796,796,796,796,796,796,796,796,796,796,796,796,796,796,794,793,791,790,789,789,788,787,786,786,785,783,782,782,781,780,777,775,774,773,771,770,770,769,769,768,768,768,768,768,767,756,750,727,714,702,675,653,629,594,556,480,452,444,443,441,440,440,440,439,439,439,439,439,439,439,439,442,444,447,450,454],"ymouse":[640,640,640,640,640,640,640,640,640,640,640,640,640,640,640,640,640,640,640,640,640,640,640,640,640,640,640,640,640,640,640,640,640,640,640,640,640,640,640,640,640,640,639,638,635,632,630,629,627,624,623,622,622,621,621,621,621,621,620,606,600,566,546,525,474,437,392,341,284,188,147,130,122,114,110,107,106,104,103,102,102,102,102,102,102,101,100,100,100,96],"timestamp_mouse":[10,39,50,69,90,111,130,151,171,191,210,230,249,269,289,311,331,350,371,390,409,430,451,470,491,511,530,550,570,589,610,630,651,669,689,710,731,750,770,789,810,829,849,869,889,910,931,951,970,990,1010,1031,1050,1070,1090,1109,1130,1150,1170,1190,1209,1230,1251,1270,1291,1310,1330,1351,1370,1389,1411,1430,1450,1470,1489,1511,1530,1551,1569,1590,1610,1631,1651,1671,1690,1709,1729,1750,1770,1790],"xSR":741.5,"ySR":573.95,"xT1":424.9,"yT1":0,"xT2":1058.1,"yT2":0,"toosoon":0,"cond_shown":"Congruent","ratio_trial":200,"L_num":12,"L_den":15,"R_num":6,"R_den":10,"correct_side":1,"subjID":"Julian Andres Herrera Jimenez 7","gender":"0","school":"4","age":"9"},{"start_time":1552313173046,"click_time":1552313175601,"finger_time":1552313174420,"fix_duration":1104.9059391324402,"trial":36,"RT":1374,"MT":1181,"sideResp":1,"stimulus":[],"xmouse":[817,817,817,817,817,817,817,817,817,817,817,817,817,817,817,817,817,817,817,817,817,817,817,817,817,817,817,817,817,817,817,817,817,817,817,817,817,817,817,817,817,817,817,817,817,817,817,817,817,817,817,817,817,817,817,817,817,817,817,817,817,815,814,812,810,807,804,801,797,788,780,760,749,735,720,701,656,639,615,598,581,555,544,535,526,517,508,504,503,503,503,500,498,497,495,495,494,494,494,494,494,494,494,494,494,494,494,494,494,494,494,494,494,494,494,494,494,494,494,494,494,494,494,494,494,494,489,476],"ymouse":[596,596,597,597,597,597,597,597,597,598,598,598,598,598,598,598,598,598,598,598,598,598,598,598,598,598,598,598,598,598,598,598,598,598,598,598,598,598,598,598,598,598,598,598,598,598,598,598,598,598,598,598,598,598,598,598,598,598,598,598,598,598,597,595,591,588,583,579,571,555,540,507,490,470,450,425,372,352,319,299,277,244,229,213,198,182,163,153,150,146,143,133,128,124,120,119,116,114,114,114,113,113,113,113,113,113,113,113,113,113,113,113,113,113,113,113,113,113,113,113,113,113,113,113,113,113,107,95],"timestamp_mouse":[13,33,53,73,95,113,135,153,173,193,214,234,254,273,295,315,333,353,375,394,415,433,453,473,494,515,533,554,575,593,614,634,654,675,693,714,733,753,774,794,815,833,854,873,894,914,935,953,974,993,1014,1034,1054,1074,1094,1115,1135,1154,1175,1195,1213,1233,1254,1274,1294,1314,1333,1355,1374,1395,1413,1433,1454,1474,1494,1513,1534,1554,1574,1595,1614,1634,1653,1674,1693,1713,1734,1753,1774,1794,1814,1833,1854,1873,1893,1913,1933,1953,1974,1995,2013,2033,2053,2074,2095,2115,2134,2154,2173,2194,2213,2233,2254,2273,2295,2313,2334,2354,2374,2394,2415,2434,2453,2475,2495,2513,2533,2554],"xSR":741.5,"ySR":573.95,"xT1":424.9,"yT1":0,"xT2":1058.1,"yT2":0,"toosoon":0,"cond_shown":"Congruent","ratio_trial":200,"L_num":12,"L_den":20,"R_num":6,"R_den":15,"correct_side":1,"subjID":"Julian Andres Herrera Jimenez 7","gender":"0","school":"4","age":"9"},{"start_time":1552313178051,"click_time":1552313179720,"finger_time":1552313178960,"fix_duration":1370.8652282996238,"trial":37,"RT":909,"MT":760,"sideResp":2,"stimulus":[],"xmouse":[790,790,790,790,790,790,790,790,790,790,790,790,790,790,790,790,790,790,790,790,790,790,790,790,790,790,790,790,790,790,790,790,790,790,790,790,790,790,790,790,790,790,793,804,816,826,847,853,858,866,872,888,896,908,921,937,969,980,997,1005,1010,1019,1024,1029,1032,1035,1037,1037,1037,1037,1037,1037,1037,1037,1037,1037,1037,1039,1040,1042,1045,1049,1057,1060],"ymouse":[614,614,614,614,614,614,614,614,614,614,614,614,614,614,614,614,614,614,614,614,614,614,614,614,614,614,614,614,614,614,614,614,614,614,614,614,614,614,614,614,614,614,612,593,574,555,513,496,476,462,452,431,422,410,395,377,349,339,325,318,310,281,258,235,210,185,133,107,68,45,22,0,0,0,0,0,0,0,3,8,14,23,42,46],"timestamp_mouse":[9,32,49,68,90,109,129,148,170,188,209,228,250,269,289,309,328,348,370,390,409,429,449,470,489,509,529,548,568,590,608,629,649,670,689,709,728,748,770,789,810,828,849,869,888,909,929,948,968,990,1009,1028,1048,1068,1088,1108,1129,1149,1168,1189,1209,1229,1248,1269,1289,1310,1328,1348,1369,1389,1408,1429,1449,1469,1489,1510,1528,1548,1569,1588,1610,1628,1648,1669],"xSR":741.5,"ySR":573.95,"xT1":424.9,"yT1":0,"xT2":1058.1,"yT2":0,"toosoon":0,"cond_shown":"Congruent","ratio_trial":300,"L_num":8,"L_den":15,"R_num":10,"R_den":12,"correct_side":2,"subjID":"Julian Andres Herrera Jimenez 7","gender":"0","school":"4","age":"9"},{"start_time":1552313182274,"click_time":1552313183899,"finger_time":1552313183561,"fix_duration":1353.4599605018404,"trial":38,"RT":1287,"MT":338,"sideResp":1,"stimulus":[],"xmouse":[798,798,798,798,798,798,797,797,797,797,797,797,797,797,797,797,797,797,797,797,797,797,797,797,797,797,797,797,796,796,796,795,795,795,793,793,792,792,791,790,788,787,786,785,783,782,781,781,781,781,781,781,781,781,780,780,780,779,779,779,778,778,776,776,774,766,760,749,743,735,718,706,694,684,673,628,597,555,540,523,494,479],"ymouse":[602,602,602,602,602,602,601,601,601,601,601,601,601,601,601,601,601,601,601,601,601,601,601,601,601,601,601,601,601,601,601,601,601,601,600,599,599,598,598,597,594,593,592,591,588,585,583,583,583,583,583,583,583,583,582,582,582,581,581,580,579,578,577,575,572,561,552,534,520,501,459,432,398,363,324,240,205,169,154,137,108,96],"timestamp_mouse":[13,27,46,65,86,105,126,146,165,186,206,225,245,265,287,305,326,347,365,385,406,426,446,465,486,507,525,547,567,585,606,626,646,666,686,706,726,745,766,786,806,826,846,866,886,906,926,947,966,985,1006,1026,1045,1067,1087,1106,1126,1145,1166,1187,1207,1225,1246,1266,1287,1305,1326,1346,1365,1385,1405,1426,1446,1465,1486,1505,1525,1546,1565,1587,1606,1625],"xSR":741.5,"ySR":573.95,"xT1":424.9,"yT1":0,"xT2":1058.1,"yT2":0,"toosoon":0,"cond_shown":"Incongruent","ratio_trial":100,"L_num":6,"L_den":10,"R_num":11,"R_den":22,"correct_side":1,"subjID":"Julian Andres Herrera Jimenez 7","gender":"0","school":"4","age":"9"},{"start_time":1552313186653,"click_time":1552313189580,"finger_time":1552313188479,"fix_duration":1412.199495849078,"trial":39,"RT":1826,"MT":1101,"sideResp":2,"stimulus":[],"xmouse":[809,809,809,809,809,809,809,809,809,809,809,809,809,809,809,809,809,809,809,809,809,809,809,809,809,809,809,809,809,809,809,809,806,805,805,804,804,803,803,803,803,803,803,803,803,803,803,803,803,803,803,803,803,803,803,803,803,803,803,803,803,803,803,803,803,802,802,802,802,802,802,802,802,802,802,802,802,802,802,802,802,802,802,802,802,802,802,803,803,807,815,837,848,856,864,869,879,883,888,893,899,910,916,922,928,936,949,958,974,983,989,995,998,1001,1004,1007,1012,1014,1015,1017,1018,1024,1029,1032,1035,1037,1040,1042,1043,1044,1044,1044,1044,1044,1044,1044,1044,1044,1044,1044,1045,1049,1055,1057,1058,1058,1059],"ymouse":[620,620,620,620,620,620,620,620,620,620,620,620,620,620,620,620,620,620,620,620,620,620,620,620,620,620,620,620,620,620,620,620,619,618,618,618,618,617,617,617,617,617,617,617,617,617,617,617,617,617,617,617,617,617,617,617,617,617,617,617,617,617,617,617,617,616,616,616,616,616,616,616,616,616,616,616,616,616,616,616,616,616,616,616,616,616,616,615,614,609,602,572,550,527,502,479,437,417,386,365,342,303,284,266,249,236,219,213,203,197,190,177,171,164,159,155,144,135,133,126,121,110,102,93,84,74,58,46,38,32,28,25,25,25,25,25,25,25,25,25,25,30,41,45,47,47,49],"timestamp_mouse":[10,26,47,66,86,107,126,148,168,187,207,227,248,266,287,307,326,347,368,387,408,428,448,467,487,506,528,548,568,587,606,628,647,666,687,707,727,748,767,787,807,826,847,868,887,907,926,947,968,988,1007,1026,1046,1068,1086,1107,1126,1147,1168,1186,1207,1228,1246,1266,1287,1308,1327,1348,1368,1388,1406,1426,1447,1468,1488,1507,1526,1548,1568,1588,1607,1626,1648,1668,1686,1707,1726,1747,1767,1787,1806,1826,1847,1867,1887,1906,1926,1946,1966,1987,2007,2026,2046,2067,2087,2108,2127,2146,2167,2188,2206,2226,2247,2267,2287,2307,2327,2346,2366,2386,2406,2427,2447,2466,2487,2506,2527,2547,2566,2586,2606,2627,2647,2666,2686,2706,2726,2746,2766,2786,2806,2826,2847,2866,2886,2906,2927],"xSR":741.5,"ySR":573.95,"xT1":424.9,"yT1":0,"xT2":1058.1,"yT2":0,"toosoon":0,"cond_shown":"Congruent","ratio_trial":100,"L_num":10,"L_den":25,"R_num":3,"R_den":10,"correct_side":1,"subjID":"Julian Andres Herrera Jimenez 7","gender":"0","school":"4","age":"9"},{"start_time":1552313194068,"click_time":1552313202339,"finger_time":1552313201320,"fix_duration":1326.3528758667267,"trial":40,"RT":7252,"MT":1019,"sideResp":1,"stimulus":[],"xmouse":[789,789,789,789,789,789,789,789,789,789,789,789,789,789,789,789,789,789,789,789,789,789,789,789,789,789,789,789,789,789,789,789,789,789,789,789,789,789,789,789,789,789,789,789,789,789,789,789,789,789,789,789,789,789,789,789,789,789,789,789,789,789,789,789,789,789,789,789,789,789,789,789,789,789,789,789,789,789,789,789,789,789,789,789,789,789,789,789,789,789,789,789,789,789,789,789,789,789,789,789,789,789,789,789,789,789,789,789,789,789,789,789,789,789,789,789,789,789,789,789,789,789,789,789,789,789,789,789,789,789,789,789,789,789,789,789,789,789,789,7