[{"start_time":1552313662391,"click_time":1552313665877,"finger_time":1552313665197,"fix_duration":250,"trial":0,"RT":2806,"MT":680,"sideResp":1,"stimulus":"img/900/equaldotanddens/L/4_Ratio_900_L_20_R_18.png","xmouse":[780,780,780,780,780,780,780,780,780,780,780,780,780,780,780,780,780,780,780,780,780,780,780,780,780,780,780,780,780,780,780,780,780,780,780,780,780,780,780,780,780,780,780,780,780,780,780,780,780,780,780,780,780,780,780,780,780,780,780,780,780,780,780,780,780,780,780,780,780,780,780,780,780,780,780,780,780,780,780,780,780,780,780,780,780,780,780,780,780,780,780,780,780,780,780,780,780,780,780,780,780,780,780,780,780,780,780,780,780,780,780,780,780,780,780,780,780,780,780,780,780,780,780,780,780,780,780,780,780,780,780,780,780,780,780,780,780,780,789,843,896,939,968,984,985,983,971,958,942,914,913,913,911,893,872,844,813,780,736,714,701,686,668,643,641,640,636,629,598,580,563,546,532,505],"ymouse":[551,551,551,551,551,551,551,551,551,551,551,551,551,551,551,551,551,551,551,551,551,551,551,551,551,551,551,551,551,551,551,551,551,551,551,551,551,551,551,551,551,551,551,551,551,551,551,551,551,551,551,551,551,551,551,551,551,551,551,551,551,551,551,551,551,551,551,551,551,551,551,551,551,551,551,551,551,551,551,551,551,551,551,551,551,551,551,551,551,551,551,551,551,551,551,551,551,551,551,551,551,551,551,551,551,551,551,551,551,551,551,551,551,551,551,551,551,551,551,551,551,551,551,551,551,551,551,551,551,551,551,551,551,551,551,551,551,551,531,388,290,213,162,124,108,89,66,48,30,14,14,14,14,16,16,16,16,16,16,16,16,16,16,16,17,17,17,17,21,23,23,23,23,27],"timestamp_mouse":[12,48,65,84,105,125,145,166,185,205,225,246,265,285,305,325,347,366,386,406,426,446,466,485,506,525,544,566,586,605,626,644,666,686,705,726,746,766,785,805,825,845,866,886,906,926,946,966,986,1006,1026,1046,1065,1086,1105,1126,1146,1165,1185,1206,1225,1245,1265,1286,1305,1326,1346,1365,1385,1406,1425,1446,1466,1486,1505,1526,1546,1565,1585,1605,1625,1645,1665,1685,1705,1726,1745,1766,1785,1806,1826,1845,1866,1885,1906,1925,1946,1965,1986,2005,2026,2045,2065,2085,2106,2126,2146,2165,2186,2206,2225,2246,2265,2285,2305,2326,2346,2366,2385,2406,2426,2445,2465,2485,2505,2526,2546,2566,2586,2606,2625,2645,2665,2686,2704,2724,2746,2766,2785,2806,2825,2846,2866,2885,2905,2925,2945,2966,2985,3005,3025,3045,3065,3085,3105,3126,3145,3166,3185,3204,3225,3245,3265,3286,3306,3325,3345,3365,3386,3406,3425,3446,3465,3486],"xSR":741.5,"ySR":500.5,"xT1":424.9,"yT1":0,"xT2":1058.1,"yT2":0,"toosoon":0,"cond_shown":"equaldotanddens","ratio_trial":900,"smaller_num":"18","larger_num":"20","correct_side":1,"subjID":"julianandresherrera7","gender":"0","age":"9","school":"4","test":{"fix_dur":[250,1500],"timestim":300,"targets_dim":[100,100],"targets_relative_coord":[0.3,0.7],"size_stim":[880,420],"start_dim":[100,100],"size_start":[300,300],"size_fix":60,"samplingrate":20,"img_types":["equaldotsize","equaldotanddens","randomdotsizeEA"],"ratios":[250,500,750,900],"rep_conds":9,"nTrials":120,"trials_to_rest":500,"Trials_order":[94,41,107,15,116,32,45,59,3,44,0,49,47,71,78,73,29,98,90,25,84,55,74,14,89,9,8,24,104,64,52,111,10,17,93,50,75,26,79,100,114,82,86,110,37,109,22,102,30,97,43,40,112,56,18,117,4,1,58,51,113,67,115,62,53,13,31,101,16,88,65,108,61,119,48,27,68,19,7,77,23,5,54,33,46,38,36,106,2,103,20,99,35,92,87,85,42,12,21,34,96,80,28,63,39,83,11,6,105,57,66,70,60,72,95,91,76,118,81,69],"cond_shown":["equaldotanddens","randomdotsizeEA","randomdotsizeEA","equaldotsize","randomdotsizeEA","randomdotsizeEA","equaldotsize","randomdotsizeEA","equaldotsize","randomdotsizeEA","equaldotsize","equaldotanddens","randomdotsizeEA","randomdotsizeEA","equaldotsize","equaldotanddens","randomdotsizeEA","randomdotsizeEA","equaldotsize","equaldotanddens","equaldotsize","equaldotanddens","randomdotsizeEA","randomdotsizeEA","randomdotsizeEA","equaldotsize","randomdotsizeEA","equaldotsize","randomdotsizeEA","equaldotanddens","equaldotanddens","equaldotsize","equaldotanddens","randomdotsizeEA","equaldotsize","randomdotsizeEA","equaldotsize","randomdotsizeEA","equaldotanddens","equaldotanddens","equaldotsize","equaldotanddens","randomdotsizeEA","randomdotsizeEA","equaldotanddens","equaldotanddens","equaldotanddens","equaldotsize","equaldotsize","equaldotanddens","equaldotanddens","equaldotanddens","equaldotanddens","randomdotsizeEA","equaldotsize","equaldotsize","equaldotanddens","equaldotanddens","equaldotanddens","equaldotsize","randomdotsizeEA","equaldotanddens","equaldotanddens","randomdotsizeEA","randomdotsizeEA","equaldotanddens","equaldotanddens","randomdotsizeEA","equaldotanddens","equaldotanddens","randomdotsizeEA","equaldotsize","equaldotanddens","randomdotsizeEA","equaldotsize","equaldotsize","randomdotsizeEA","equaldotanddens","equaldotanddens","randomdotsizeEA","randomdotsizeEA","randomdotsizeEA","equaldotsize","equaldotsize","equaldotanddens","randomdotsizeEA","equaldotsize","equaldotanddens","randomdotsizeEA","equaldotanddens","randomdotsizeEA","equaldotsize","randomdotsizeEA","randomdotsizeEA","equaldotsize","equaldotanddens","equaldotsize","equaldotsize","equaldotsize","equaldotanddens","equaldotsize","randomdotsizeEA","equaldotanddens","equaldotsize","equaldotsize","randomdotsizeEA","randomdotsizeEA","equaldotsize","equaldotsize","equaldotsize","equaldotsize","equaldotanddens","equaldotsize","equaldotsize","randomdotsizeEA","equaldotanddens","equaldotanddens","equaldotanddens","equaldotsize","equaldotsize"],"ratio_trial":[900,500,900,500,750,750,900,900,500,750,250,250,900,900,750,250,500,250,750,250,250,750,250,250,500,900,750,250,750,500,500,500,900,500,900,250,500,250,750,500,750,900,250,250,250,250,900,750,750,250,750,500,500,750,750,900,500,250,900,500,500,750,750,250,500,250,750,500,500,500,500,250,250,900,250,500,750,750,750,500,900,500,750,900,900,250,250,900,250,750,750,500,900,750,500,250,750,250,900,900,250,750,500,500,500,900,900,750,900,900,750,900,250,250,900,750,500,900,900,900],"smaller_num":["18","2","18","5","15","18","18","9","9","3","2","2","18","9","15","3","2","6","6","6","2","6","5","2","6","18","15","3","15","9","5","10","9","9","18","2","5","1","18","9","3","18","4","3","3","2","9","3","3","3","12","10","3","12","3","9","3","6","9","2","2","3","6","2","3","3","15","2","5","6","9","4","1","18","5","2","6","6","15","10","18","10","6","18","18","3","2","18","2","15","6","5","18","6","10","6","15","2","18","9","3","18","3","2","10","18","9","15","18","9","15","18","3","4","9","3","4","18","18","18"],"larger_num":["20","4","20","10","20","24","20","10","18","4","8","8","20","10","20","12","4","24","8","24","8","8","20","8","12","20","20","12","20","18","10","20","10","18","20","8","10","4","24","18","4","20","16","12","12","8","10","4","4","12","16","20","6","16","4","10","6","24","10","4","4","4","8","8","6","12","20","4","10","12","18","16","4","20","20","4","8","8","20","20","20","20","8","20","20","12","8","20","8","20","8","10","20","8","20","24","20","8","20","10","12","24","6","4","20","20","10","20","20","10","20","20","12","16","10","4","8","20","20","20"],"correct_side":[1,2,2,2,2,1,2,1,1,2,2,1,1,2,1,1,2,1,2,1,1,1,2,1,1,1,1,2,2,2,2,2,2,2,2,1,2,2,1,1,1,1,2,1,2,1,2,1,1,1,2,2,2,2,2,2,2,1,1,2,2,2,1,1,2,1,2,2,2,1,2,1,2,1,2,2,1,1,2,2,1,2,1,1,2,2,1,2,1,2,1,2,1,1,2,1,2,1,1,2,2,1,2,1,2,2,1,2,2,2,2,1,2,2,1,1,1,1,2,2],"img_shown":["img/900/equaldotanddens/L/4_Ratio_900_L_20_R_18.png","img/500/randomdotsizeEA/R/9_Ratio_500_L_2_R_4.png","img/900/randomdotsizeEA/R/12_Ratio_900_L_18_R_20.png","img/500/equaldotsize/R/14_Ratio_500_L_5_R_10.png","img/750/randomdotsizeEA/R/4_Ratio_750_L_15_R_20.png","img/750/randomdotsizeEA/L/6_Ratio_750_L_24_R_18.png","img/900/equaldotsize/R/11_Ratio_900_L_18_R_20.png","img/900/randomdotsizeEA/L/1_Ratio_900_L_10_R_9.png","img/500/equaldotsize/L/4_Ratio_500_L_18_R_9.png","img/750/randomdotsizeEA/R/12_Ratio_750_L_3_R_4.png","img/250/equaldotsize/R/13_Ratio_250_L_2_R_8.png","img/250/equaldotanddens/L/7_Ratio_250_L_8_R_2.png","img/900/randomdotsizeEA/L/8_Ratio_900_L_20_R_18.png","img/900/randomdotsizeEA/R/15_Ratio_900_L_9_R_10.png","img/750/equaldotsize/L/1_Ratio_750_L_20_R_15.png","img/250/equaldotanddens/L/14_Ratio_250_L_12_R_3.png","img/500/randomdotsizeEA/R/9_Ratio_500_L_2_R_4.png","img/250/randomdotsizeEA/L/5_Ratio_250_L_24_R_6.png","img/750/equaldotsize/R/2_Ratio_750_L_6_R_8.png","img/250/equaldotanddens/L/5_Ratio_250_L_24_R_6.png","img/250/equaldotsize/L/3_Ratio_250_L_8_R_2.png","img/750/equaldotanddens/L/13_Ratio_750_L_8_R_6.png","img/250/randomdotsizeEA/R/12_Ratio_250_L_5_R_20.png","img/250/randomdotsizeEA/L/3_Ratio_250_L_8_R_2.png","img/500/randomdotsizeEA/L/13_Ratio_500_L_12_R_6.png","img/900/equaldotsize/L/10_Ratio_900_L_20_R_18.png","img/750/randomdotsizeEA/L/1_Ratio_750_L_20_R_15.png","img/250/equaldotsize/R/4_Ratio_250_L_3_R_12.png","img/750/randomdotsizeEA/R/5_Ratio_750_L_15_R_20.png","img/500/equaldotanddens/R/6_Ratio_500_L_9_R_18.png","img/500/equaldotanddens/R/14_Ratio_500_L_5_R_10.png","img/500/equaldotsize/R/3_Ratio_500_L_10_R_20.png","img/900/equaldotanddens/R/7_Ratio_900_L_9_R_10.png","img/500/randomdotsizeEA/R/6_Ratio_500_L_9_R_18.png","img/900/equaldotsize/R/13_Ratio_900_L_18_R_20.png","img/250/randomdotsizeEA/L/7_Ratio_250_L_8_R_2.png","img/500/equaldotsize/R/14_Ratio_500_L_5_R_10.png","img/250/randomdotsizeEA/R/8_Ratio_250_L_1_R_4.png","img/750/equaldotanddens/L/6_Ratio_750_L_24_R_18.png","img/500/equaldotanddens/L/4_Ratio_500_L_18_R_9.png","img/750/equaldotsize/L/8_Ratio_750_L_4_R_3.png","img/900/equaldotanddens/L/4_Ratio_900_L_20_R_18.png","img/250/randomdotsizeEA/R/10_Ratio_250_L_4_R_16.png","img/250/randomdotsizeEA/L/14_Ratio_250_L_12_R_3.png","img/250/equaldotanddens/R/9_Ratio_250_L_3_R_12.png","img/250/equaldotanddens/L/3_Ratio_250_L_8_R_2.png","img/900/equaldotanddens/R/5_Ratio_900_L_9_R_10.png","img/750/equaldotsize/L/9_Ratio_750_L_4_R_3.png","img/750/equaldotsize/L/8_Ratio_750_L_4_R_3.png","img/250/equaldotanddens/L/14_Ratio_250_L_12_R_3.png","img/750/equaldotanddens/R/11_Ratio_750_L_12_R_16.png","img/500/equaldotanddens/R/3_Ratio_500_L_10_R_20.png","img/500/equaldotanddens/R/2_Ratio_500_L_3_R_6.png","img/750/randomdotsizeEA/R/11_Ratio_750_L_12_R_16.png","img/750/equaldotsize/R/12_Ratio_750_L_3_R_4.png","img/900/equaldotsize/R/7_Ratio_900_L_9_R_10.png","img/500/equaldotanddens/R/2_Ratio_500_L_3_R_6.png","img/250/equaldotanddens/L/5_Ratio_250_L_24_R_6.png","img/900/equaldotanddens/L/1_Ratio_900_L_10_R_9.png","img/500/equaldotsize/R/9_Ratio_500_L_2_R_4.png","img/500/randomdotsizeEA/R/9_Ratio_500_L_2_R_4.png","img/750/equaldotanddens/R/7_Ratio_750_L_3_R_4.png","img/750/equaldotanddens/L/14_Ratio_750_L_8_R_6.png","img/250/randomdotsizeEA/L/1_Ratio_250_L_8_R_2.png","img/500/randomdotsizeEA/R/2_Ratio_500_L_3_R_6.png","img/250/equaldotanddens/L/14_Ratio_250_L_12_R_3.png","img/750/equaldotanddens/R/5_Ratio_750_L_15_R_20.png","img/500/randomdotsizeEA/R/9_Ratio_500_L_2_R_4.png","img/500/equaldotanddens/R/14_Ratio_500_L_5_R_10.png","img/500/equaldotanddens/L/13_Ratio_500_L_12_R_6.png","img/500/randomdotsizeEA/R/6_Ratio_500_L_9_R_18.png","img/250/equaldotsize/L/2_Ratio_250_L_16_R_4.png","img/250/equaldotanddens/R/8_Ratio_250_L_1_R_4.png","img/900/randomdotsizeEA/L/4_Ratio_900_L_20_R_18.png","img/250/equaldotsize/R/12_Ratio_250_L_5_R_20.png","img/500/equaldotsize/R/9_Ratio_500_L_2_R_4.png","img/750/randomdotsizeEA/L/14_Ratio_750_L_8_R_6.png","img/750/equaldotanddens/L/13_Ratio_750_L_8_R_6.png","img/750/equaldotanddens/R/4_Ratio_750_L_15_R_20.png","img/500/randomdotsizeEA/R/3_Ratio_500_L_10_R_20.png","img/900/randomdotsizeEA/L/4_Ratio_900_L_20_R_18.png","img/500/randomdotsizeEA/R/3_Ratio_500_L_10_R_20.png","img/750/equaldotsize/L/13_Ratio_750_L_8_R_6.png","img/900/equaldotsize/L/8_Ratio_900_L_20_R_18.png","img/900/equaldotanddens/R/9_Ratio_900_L_18_R_20.png","img/250/randomdotsizeEA/R/4_Ratio_250_L_3_R_12.png","img/250/equaldotsize/L/1_Ratio_250_L_8_R_2.png","img/900/equaldotanddens/R/12_Ratio_900_L_18_R_20.png","img/250/randomdotsizeEA/L/3_Ratio_250_L_8_R_2.png","img/750/equaldotanddens/R/5_Ratio_750_L_15_R_20.png","img/750/randomdotsizeEA/L/13_Ratio_750_L_8_R_6.png","img/500/equaldotsize/R/14_Ratio_500_L_5_R_10.png","img/900/randomdotsizeEA/L/4_Ratio_900_L_20_R_18.png","img/750/randomdotsizeEA/L/14_Ratio_750_L_8_R_6.png","img/500/equaldotsize/R/3_Ratio_500_L_10_R_20.png","img/250/equaldotanddens/L/5_Ratio_250_L_24_R_6.png","img/750/equaldotsize/R/5_Ratio_750_L_15_R_20.png","img/250/equaldotsize/L/1_Ratio_250_L_8_R_2.png","img/900/equaldotsize/L/8_Ratio_900_L_20_R_18.png","img/900/equaldotanddens/R/15_Ratio_900_L_9_R_10.png","img/250/equaldotsize/R/11_Ratio_250_L_3_R_12.png","img/750/randomdotsizeEA/L/6_Ratio_750_L_24_R_18.png","img/500/equaldotanddens/R/2_Ratio_500_L_3_R_6.png","img/500/equaldotsize/L/10_Ratio_500_L_4_R_2.png","img/500/equaldotsize/R/3_Ratio_500_L_10_R_20.png","img/900/randomdotsizeEA/R/9_Ratio_900_L_18_R_20.png","img/900/randomdotsizeEA/L/1_Ratio_900_L_10_R_9.png","img/750/equaldotsize/R/3_Ratio_750_L_15_R_20.png","img/900/equaldotsize/R/11_Ratio_900_L_18_R_20.png","img/900/equaldotsize/R/3_Ratio_900_L_9_R_10.png","img/750/equaldotsize/R/5_Ratio_750_L_15_R_20.png","img/900/equaldotanddens/L/8_Ratio_900_L_20_R_18.png","img/250/equaldotsize/R/9_Ratio_250_L_3_R_12.png","img/250/equaldotsize/R/10_Ratio_250_L_4_R_16.png","img/900/randomdotsizeEA/L/1_Ratio_900_L_10_R_9.png","img/750/equaldotanddens/L/8_Ratio_750_L_4_R_3.png","img/500/equaldotanddens/L/8_Ratio_500_L_8_R_4.png","img/900/equaldotanddens/L/2_Ratio_900_L_20_R_18.png","img/900/equaldotsize/R/12_Ratio_900_L_18_R_20.png","img/900/equaldotsize/R/13_Ratio_900_L_18_R_20.png"],"Rat0":[["12_Ratio_0_L_9_R_0.png","13_Ratio_0_L_6_R_0.png","5_Ratio_0_L_2_R_0.png","6_Ratio_0_L_4_R_0.png","8_Ratio_0_L_6_R_0.png"],["1_Ratio_0_L_0_R_17.png","10_Ratio_0_L_0_R_22.png","11_Ratio_0_L_0_R_1.png","14_Ratio_0_L_0_R_24.png","15_Ratio_0_L_0_R_4.png","2_Ratio_0_L_0_R_5.png","3_Ratio_0_L_0_R_17.png","4_Ratio_0_L_0_R_7.png","7_Ratio_0_L_0_R_19.png","9_Ratio_0_L_0_R_15.png"]],"Rat250":[["1_Ratio_250_L_8_R_2.png","14_Ratio_250_L_12_R_3.png","15_Ratio_250_L_12_R_3.png","2_Ratio_250_L_16_R_4.png","3_Ratio_250_L_8_R_2.png","5_Ratio_250_L_24_R_6.png","7_Ratio_250_L_8_R_2.png"],["10_Ratio_250_L_4_R_16.png","11_Ratio_250_L_3_R_12.png","12_Ratio_250_L_5_R_20.png","13_Ratio_250_L_2_R_8.png","4_Ratio_250_L_3_R_12.png","6_Ratio_250_L_6_R_24.png","8_Ratio_250_L_1_R_4.png","9_Ratio_250_L_3_R_12.png"]],"Rat500":[["10_Ratio_500_L_4_R_2.png","11_Ratio_500_L_12_R_6.png","13_Ratio_500_L_12_R_6.png","4_Ratio_500_L_18_R_9.png","5_Ratio_500_L_4_R_2.png","7_Ratio_500_L_10_R_5.png","8_Ratio_500_L_8_R_4.png"],["1_Ratio_500_L_9_R_18.png","12_Ratio_500_L_1_R_2.png","14_Ratio_500_L_5_R_10.png","15_Ratio_500_L_1_R_2.png","2_Ratio_500_L_3_R_6.png","3_Ratio_500_L_10_R_20.png","6_Ratio_500_L_9_R_18.png","9_Ratio_500_L_2_R_4.png"]],"Rat750":[["1_Ratio_750_L_20_R_15.png","10_Ratio_750_L_4_R_3.png","13_Ratio_750_L_8_R_6.png","14_Ratio_750_L_8_R_6.png","6_Ratio_750_L_24_R_18.png","8_Ratio_750_L_4_R_3.png","9_Ratio_750_L_4_R_3.png"],["11_Ratio_750_L_12_R_16.png","12_Ratio_750_L_3_R_4.png","15_Ratio_750_L_9_R_12.png","2_Ratio_750_L_6_R_8.png","3_Ratio_750_L_15_R_20.png","4_Ratio_750_L_15_R_20.png","5_Ratio_750_L_15_R_20.png","7_Ratio_750_L_3_R_4.png"]],"Rat900":[["1_Ratio_900_L_10_R_9.png","10_Ratio_900_L_20_R_18.png","2_Ratio_900_L_20_R_18.png","4_Ratio_900_L_20_R_18.png","8_Ratio_900_L_20_R_18.png"],["11_Ratio_900_L_18_R_20.png","12_Ratio_900_L_18_R_20.png","13_Ratio_900_L_18_R_20.png","14_Ratio_900_L_18_R_20.png","15_Ratio_900_L_9_R_10.png","3_Ratio_900_L_9_R_10.png","5_Ratio_900_L_9_R_10.png","6_Ratio_900_L_9_R_10.png","7_Ratio_900_L_9_R_10.png","9_Ratio_900_L_18_R_20.png"]],"Rat1000":[["10_Ratio_1000_L_16_R_16.png","11_Ratio_1000_L_6_R_6.png","12_Ratio_1000_L_14_R_14.png","13_Ratio_1000_L_20_R_20.png","15_Ratio_1000_L_15_R_15.png","2_Ratio_1000_L_17_R_17.png","4_Ratio_1000_L_9_R_9.png","5_Ratio_1000_L_6_R_6.png","6_Ratio_1000_L_19_R_19.png","8_Ratio_1000_L_14_R_14.png","9_Ratio_1000_L_25_R_25.png"],["1_Ratio_1000_L_1_R_1.png","14_Ratio_1000_L_17_R_17.png","3_Ratio_1000_L_17_R_17.png","7_Ratio_1000_L_6_R_6.png"]]}},{"start_time":1552313671416,"click_time":1552313673636,"finger_time":1552313672516,"fix_duration":999.8746956580267,"trial":1,"RT":1100,"MT":1120,"sideResp":2,"stimulus":"img/500/randomdotsizeEA/R/9_Ratio_500_L_2_R_4.png","xmouse":[784,784,784,784,784,784,784,784,784,784,784,784,784,784,784,784,784,784,784,784,784,784,784,784,784,784,784,784,784,784,784,784,784,784,784,784,784,784,784,784,780,777,776,774,774,774,774,774,774,772,770,766,763,758,755,751,744,737,718,709,702,697,691,681,680,680,680,680,680,680,680,680,682,702,726,768,840,929,1137,1291,1380,1483,1483,1483,1483,1483,1483,1483,1483,1483,1483,1483,1483,1483,1483,1483,1483,1483,1483,1483,1483,1483,1483,1483,1483,1483,1483,1483,1483,1483,1483,1099],"ymouse":[520,520,520,520,520,520,520,520,520,520,520,520,520,520,520,520,520,520,520,520,520,520,520,520,520,520,520,520,520,520,520,520,520,520,520,520,520,520,520,520,517,513,512,510,510,510,510,510,510,509,503,498,492,480,474,465,453,439,412,404,399,394,388,375,375,375,374,374,374,374,374,374,374,374,371,367,353,328,269,223,189,155,155,155,155,155,155,155,155,155,155,155,155,155,155,155,155,155,155,155,155,155,155,155,155,155,155,155,155,155,155,1],"timestamp_mouse":[10,20,40,60,80,99,120,140,161,180,201,220,240,260,280,300,320,340,360,380,400,420,441,460,481,501,521,541,560,581,601,621,641,660,681,700,721,741,760,780,800,820,840,860,881,901,921,940,961,980,1000,1021,1039,1060,1080,1100,1120,1140,1161,1180,1201,1219,1241,1260,1280,1301,1320,1339,1361,1380,1401,1421,1440,1461,1480,1500,1519,1540,1560,1580,1600,1621,1641,1661,1680,1700,1720,1741,1760,1780,1799,1819,1840,1859,1879,1900,1920,1941,1960,1980,2000,2020,2040,2060,2080,2101,2120,2141,2160,2180,2199,2220],"xSR":741.5,"ySR":469.95,"xT1":424.9,"yT1":0,"xT2":1058.1,"yT2":0,"toosoon":0,"cond_shown":"randomdotsizeEA","ratio_trial":500,"smaller_num":"2","larger_num":"4","correct_side":2,"subjID":"julianandresherrera7","gender":"0","age":"9","school":"4"},{"start_time":1552313676523,"click_time":1552313677916,"finger_time":1552313677397,"fix_duration":1445.6930187573307,"trial":2,"RT":874,"MT":519,"sideResp":2,"stimulus":"img/900/randomdotsizeEA/R/12_Ratio_900_L_18_R_20.png","xmouse":[796,796,796,796,796,796,796,796,796,796,796,796,796,796,796,796,796,796,796,796,796,796,796,796,796,796,796,796,796,796,796,796,796,796,796,796,796,796,796,797,803,807,829,849,865,880,893,924,953,982,1015,1043,1083,1097,1100,1104,1105,1108,1111,1112,1113,1113,1113,1113,1113,1113,1113,1113,1115,1115],"ymouse":[511,512,512,512,512,512,512,512,512,512,512,512,512,512,512,512,512,512,512,512,512,512,512,512,512,512,512,512,512,512,512,512,512,512,512,512,512,512,512,513,513,513,504,492,480,468,455,419,391,361,323,291,235,202,184,175,168,160,155,150,143,132,117,112,112,111,111,110,104,97],"timestamp_mouse":[13,33,53,73,94,113,134,153,174,193,213,234,254,273,293,314,334,353,374,393,413,433,453,472,493,513,533,553,572,593,612,634,654,674,693,714,734,752,773,794,813,834,853,874,893,913,933,953,973,993,1014,1034,1054,1074,1093,1113,1133,1154,1173,1193,1213,1233,1253,1273,1293,1313,1333,1353,1372,1393],"xSR":741.5,"ySR":469.95,"xT1":424.9,"yT1":0,"xT2":1058.1,"yT2":0,"toosoon":0,"cond_shown":"randomdotsizeEA","ratio_trial":900,"smaller_num":"18","larger_num":"20","correct_side":2,"subjID":"julianandresherrera7","gender":"0","age":"9","school":"4"},{"start_time":1552313680260,"click_time":1552313681576,"finger_time":1552313681016,"fix_duration":1302.303584080178,"trial":3,"RT":756,"MT":560,"sideResp":2,"stimulus":"img/500/equaldotsize/R/14_Ratio_500_L_5_R_10.png","xmouse":[787,787,787,787,787,787,787,787,787,787,787,787,787,787,787,787,787,787,787,787,787,787,787,787,787,787,787,787,787,787,787,787,787,792,795,816,840,856,874,891,943,965,981,994,1004,1010,1014,1018,1020,1023,1030,1033,1036,1039,1041,1049,1053,1056,1059,1060,1065,1067,1069,1072,1074,1075],"ymouse":[511,511,511,511,511,511,511,511,511,511,511,511,511,511,511,511,511,511,511,511,511,511,511,511,511,511,511,511,511,511,510,510,510,510,510,505,494,484,471,456,418,401,387,375,368,357,347,342,336,327,312,303,294,281,270,246,230,217,203,191,158,143,126,112,101,92],"timestamp_mouse":[16,35,56,76,96,117,135,157,177,196,217,237,257,277,296,316,337,356,376,396,417,437,456,477,496,517,537,557,577,596,617,636,657,676,697,716,737,756,776,796,817,836,856,876,896,917,937,956,976,997,1017,1036,1056,1076,1096,1116,1136,1156,1176,1196,1216,1236,1256,1277,1296,1316],"xSR":741.5,"ySR":469.95,"xT1":424.9,"yT1":0,"xT2":1058.1,"yT2":0,"toosoon":0,"cond_shown":"equaldotsize","ratio_trial":500,"smaller_num":"5","larger_num":"10","correct_side":2,"subjID":"julianandresherrera7","gender":"0","age":"9","school":"4"},{"start_time":1552313683916,"click_time":1552313685416,"finger_time":1552313684956,"fix_duration":1437.0208143201664,"trial":4,"RT":1040,"MT":460,"sideResp":1,"stimulus":"img/750/randomdotsizeEA/R/4_Ratio_750_L_15_R_20.png","xmouse":[797,797,797,797,797,797,797,797,797,797,797,797,797,797,797,797,797,797,797,797,797,797,797,797,797,797,797,797,797,797,797,797,797,797,797,797,797,797,797,797,797,797,798,798,797,797,797,797,796,793,790,780,768,757,721,698,674,649,611,599,590,583,578,571,550,542,536,533,527,521,514,503,494,478,471,457],"ymouse":[500,500,500,500,500,500,500,500,500,500,500,500,500,500,500,500,500,500,500,500,500,500,500,500,500,500,500,500,500,500,500,500,500,500,500,500,500,500,500,500,500,500,499,498,494,493,493,493,492,490,485,471,458,446,416,400,384,368,339,329,320,313,306,296,268,255,245,235,213,200,186,170,155,126,112,88],"timestamp_mouse":[2,20,42,61,80,99,121,140,161,181,201,221,240,261,281,300,320,341,361,381,401,421,441,461,481,500,521,541,561,581,600,621,640,661,681,700,721,742,760,781,801,820,840,860,881,900,921,940,961,980,1001,1021,1040,1061,1080,1100,1120,1141,1160,1180,1200,1220,1240,1260,1281,1300,1320,1340,1362,1380,1400,1421,1441,1461,1480,1500],"xSR":741.5,"ySR":469.95,"xT1":424.9,"yT1":0,"xT2":1058.1,"yT2":0,"toosoon":0,"cond_shown":"randomdotsizeEA","ratio_trial":750,"smaller_num":"15","larger_num":"20","correct_side":2,"subjID":"julianandresherrera7","gender":"0","age":"9","school":"4"},{"start_time":1552313691105,"click_time":1552313692437,"finger_time":1552313691997,"fix_duration":986.4881600864413,"trial":5,"RT":892,"MT":440,"sideResp":2,"stimulus":"img/750/randomdotsizeEA/L/6_Ratio_750_L_24_R_18.png","xmouse":[786,786,786,786,786,786,786,786,786,786,786,786,786,786,786,786,786,786,786,786,786,786,786,786,786,786,786,786,786,786,786,786,786,786,786,786,786,786,786,787,789,790,793,801,814,824,833,843,884,907,926,944,956,975,986,994,1004,1013,1034,1045,1055,1065,1073,1084,1092,1096,1099],"ymouse":[489,489,489,489,489,489,489,489,489,489,489,489,489,489,489,489,489,489,489,489,489,489,489,489,489,489,489,489,489,489,489,489,489,489,489,489,489,489,490,490,489,488,486,477,466,455,444,432,401,382,365,348,330,301,284,274,262,252,225,210,194,177,159,127,109,100,94],"timestamp_mouse":[11,45,51,72,92,112,132,151,172,192,212,231,252,271,291,311,332,351,371,392,411,431,451,471,492,512,531,551,571,591,611,632,651,671,691,712,731,752,771,791,812,832,852,870,891,911,931,951,972,991,1011,1031,1051,1072,1091,1111,1131,1151,1171,1191,1211,1231,1251,1271,1291,1311,1332],"xSR":741.5,"ySR":469.95,"xT1":424.9,"yT1":0,"xT2":1058.1,"yT2":0,"toosoon":0,"cond_shown":"randomdotsizeEA","ratio_trial":750,"smaller_num":"18","larger_num":"24","correct_side":1,"subjID":"julianandresherrera7","gender":"0","age":"9","school":"4"},{"start_time":1552313693903,"click_time":1552313695796,"finger_time":1552313694776,"fix_duration":405.80751035417916,"trial":6,"RT":873,"MT":1020,"sideResp":2,"stimulus":"img/900/equaldotsize/R/11_Ratio_900_L_18_R_20.png","xmouse":[814,814,814,814,814,814,814,814,814,814,814,814,814,814,813,813,813,813,813,813,813,813,813,813,813,813,813,813,813,813,813,813,813,813,813,813,813,813,813,813,813,811,807,800,794,790,783,775,756,749,747,747,747,754,767,780,784,786,799,812,826,838,848,874,888,892,895,897,902,906,909,915,924,956,1116,1179,1230,1259,1278,1278,1276,1275,1273,1264,1264,1264,1264,1264,1264,1264,1264,1264,1264,1100,1086],"ymouse":[503,503,503,503,503,503,503,503,503,503,503,503,503,503,501,500,499,496,493,492,491,490,489,488,488,488,488,488,488,488,488,488,488,488,488,488,488,488,487,487,483,479,473,458,448,439,428,415,387,379,376,375,372,361,352,344,341,339,333,326,317,308,296,261,243,237,233,230,224,220,218,213,208,200,175,156,142,131,103,86,68,51,34,1,1,1,1,1,1,1,1,1,1,0,9],"timestamp_mouse":[15,43,54,74,94,113,132,153,174,193,213,234,254,273,293,313,334,353,373,393,414,433,454,474,493,513,534,554,574,593,613,634,654,674,693,714,733,754,774,793,814,833,853,873,893,913,934,954,973,992,1014,1033,1054,1073,1093,1113,1134,1153,1173,1193,1212,1233,1253,1274,1293,1313,1333,1353,1373,1393,1413,1433,1453,1473,1494,1513,1533,1553,1573,1593,1613,1634,1653,1674,1694,1713,1734,1753,1773,1793,1814,1834,1853,1873,1893],"xSR":741.5,"ySR":469.95,"xT1":424.9,"yT1":0,"xT2":1058.1,"yT2":0,"toosoon":0,"cond_shown":"equaldotsize","ratio_trial":900,"smaller_num":"18","larger_num":"20","correct_side":2,"subjID":"julianandresherrera7","gender":"0","age":"9","school":"4"},{"start_time":1552313697743,"click_time":1552313699016,"finger_time":1552313698656,"fix_duration":545.8332339020366,"trial":7,"RT":913,"MT":360,"sideResp":1,"stimulus":"img/900/randomdotsizeEA/L/1_Ratio_900_L_10_R_9.png","xmouse":[766,767,767,767,768,768,769,769,769,769,770,770,770,770,770,770,770,770,770,770,770,770,770,771,771,771,771,771,771,771,771,771,771,771,771,771,771,771,771,772,773,773,774,774,773,767,749,741,729,716,702,675,657,651,646,638,619,609,595,581,557,515,499,484],"ymouse":[533,532,532,532,531,531,531,531,531,531,530,530,530,530,530,530,530,530,530,529,529,529,529,529,529,529,529,529,529,529,529,529,529,529,529,529,529,529,529,527,526,524,510,494,478,461,427,411,396,381,365,340,321,312,303,292,266,250,232,211,182,131,109,87],"timestamp_mouse":[12,47,52,74,93,113,133,153,174,193,213,234,254,273,292,313,333,354,374,394,413,434,452,474,493,514,534,553,573,594,614,633,653,674,693,714,733,754,774,793,814,833,854,873,893,913,934,953,973,994,1013,1033,1052,1073,1094,1113,1133,1153,1173,1193,1213,1233,1254,1273],"xSR":741.5,"ySR":469.95,"xT1":424.9,"yT1":0,"xT2":1058.1,"yT2":0,"toosoon":0,"cond_shown":"randomdotsizeEA","ratio_trial":900,"smaller_num":"9","larger_num":"10","correct_side":1,"subjID":"julianandresherrera7","gender":"0","age":"9","school":"4"},{"start_time":1552313700602,"click_time":1552313702197,"finger_time":1552313701676,"fix_duration":624.4385449463102,"trial":8,"RT":1074,"MT":521,"sideResp":1,"stimulus":"img/500/equaldotsize/L/4_Ratio_500_L_18_R_9.png","xmouse":[783,783,783,783,783,783,783,783,783,783,783,783,783,783,783,783,783,783,783,783,783,783,783,783,783,783,783,783,783,783,783,783,783,783,783,783,783,783,783,783,783,783,783,783,783,783,783,783,783,780,772,769,763,751,744,733,721,709,684,677,669,656,645,624,612,597,582,569,559,548,539,532,522,506,504,503,502,502,501,500],"ymouse":[507,507,507,507,507,507,507,507,507,507,507,507,507,507,507,507,507,507,507,507,507,507,507,507,507,507,507,507,507,507,507,507,507,507,507,507,507,507,507,507,507,507,507,507,507,507,507,507,507,507,502,499,485,451,433,407,380,361,330,321,310,295,282,254,238,222,210,197,187,172,157,146,134,115,110,108,106,105,101,98],"timestamp_mouse":[14,34,55,74,94,114,134,155,174,195,214,234,255,274,294,315,334,355,375,394,415,433,455,473,494,514,535,555,575,594,615,635,654,674,694,714,734,755,774,794,815,835,854,875,895,915,934,954,974,995,1014,1035,1054,1074,1094,1115,1134,1154,1174,1194,1214,1235,1255,1274,1294,1314,1334,1354,1374,1395,1414,1443,1454,1474,1493,1514,1534,1555,1575,1595],"xSR":741.5,"ySR":469.95,"xT1":424.9,"yT1":0,"xT2":1058.1,"yT2":0,"toosoon":0,"cond_shown":"equaldotsize","ratio_trial":500,"smaller_num":"9","larger_num":"18","correct_side":1,"subjID":"julianandresherrera7","gender":"0","age":"9","school":"4"},{"start_time":1552313707467,"click_time":1552313709295,"finger_time":1552313707695,"fix_duration":250,"trial":9,"RT":228,"MT":1600,"sideResp":1,"stimulus":"img/750/randomdotsizeEA/R/12_Ratio_750_L_3_R_4.png","xmouse":[797,797,797,797,797,798,802,805,807,808,810,817,825,833,838,849,857,861,865,869,874,876,878,879,880,880,880,880,880,880,880,880,880,880,880,880,880,880,880,880,880,880,880,880,880,880,878,876,871,867,856,847,837,827,812,799,779,773,764,754,713,691,675,666,661,647,620,594,577,565,547,538,531,527,522,511,497,487,479,476,474,473,473,472,471,470,470,469,467,466,462,458],"ymouse":[525,525,525,525,525,526,533,538,543,551,564,576,588,600,607,628,643,650,657,664,673,676,679,681,682,682,682,683,683,683,683,683,683,683,683,683,683,683,683,683,683,683,683,683,683,683,683,680,673,668,653,644,634,626,616,608,601,600,599,597,592,588,585,581,574,547,490,428,390,364,321,302,285,275,265,248,230,216,207,202,199,197,195,192,189,176,161,148,136,125,105,91],"timestamp_mouse":[10,30,53,69,89,108,128,148,169,189,208,228,249,268,289,310,329,349,368,389,409,428,449,469,489,508,528,548,570,590,609,629,649,668,689,709,729,749,769,789,809,829,850,869,890,908,930,948,969,988,1009,1028,1048,1068,1088,1108,1130,1148,1169,1188,1209,1228,1248,1268,1289,1309,1330,1349,1369,1389,1409,1429,1449,1469,1489,1509,1528,1549,1568,1589,1609,1628,1648,1669,1689,1709,1728,1748,1769,1788,1809,1828],"xSR":741.5,"ySR":469.95,"xT1":424.9,"yT1":0,"xT2":1058.1,"yT2":0,"toosoon":0,"cond_shown":"randomdotsizeEA","ratio_trial":750,"smaller_num":"3","larger_num":"4","correct_side":2,"subjID":"julianandresherrera7","gender":"0","age":"9","school":"4"},{"start_time":1552313717779,"click_time":1552313719676,"finger_time":1552313718516,"fix_duration":762.3268504586288,"trial":10,"RT":737,"MT":1160,"sideResp":2,"stimulus":"img/250/equaldotsize/R/13_Ratio_250_L_2_R_8.png","xmouse":[783,783,783,783,783,784,784,784,784,784,784,784,784,785,786,786,787,787,788,788,788,788,788,789,789,789,789,789,789,789,790,790,792,792,798,809,819,831,840,849,854,858,861,863,865,868,871,876,882,886,889,890,893,902,940,954,965,972,977,980,980,981,981,982,985,985,986,987,988,989,991,993,995,998,1017,1024,1034,1039,1044,1050,1053,1053,1053,1054,1054,1054,1054,1054,1054,1054,1055,1056,1059,1064,1082],"ymouse":[498,498,498,498,498,497,497,497,497,497,497,496,496,496,495,495,494,494,493,493,493,492,492,491,491,491,491,491,491,491,491,490,489,488,484,476,466,451,436,417,400,389,380,371,357,349,339,328,317,307,292,287,281,270,241,230,219,209,197,188,169,166,166,164,161,159,157,156,154,154,153,151,151,149,142,139,134,130,126,116,111,110,110,109,109,109,109,109,109,109,108,107,106,104,94],"timestamp_mouse":[24,44,57,78,97,117,137,157,176,198,218,237,258,276,297,317,337,357,377,397,416,437,457,476,497,516,537,558,578,596,618,636,657,676,697,716,737,757,777,797,817,836,857,877,897,916,937,956,977,997,1016,1037,1056,1077,1097,1116,1137,1156,1176,1197,1217,1237,1258,1277,1296,1316,1336,1357,1377,1397,1417,1437,1458,1477,1497,1516,1537,1557,1578,1597,1618,1638,1657,1676,1696,1717,1737,1758,1777,1798,1817,1836,1857,1877,1897],"xSR":741.5,"ySR":469.95,"xT1":424.9,"yT1":0,"xT2":1058.1,"yT2":0,"toosoon":0,"cond_shown":"equaldotsize","ratio_trial":250,"smaller_num":"2","larger_num":"8","correct_side":2,"subjID":"julianandresherrera7","gender":"0","age":"9","school":"4"},{"start_time":1552313721452,"click_time":1552313722916,"finger_time":1552313722276,"fix_duration":574.7693190468713,"trial":11,"RT":824,"MT":640,"sideResp":1,"stimulus":"img/250/equaldotanddens/L/7_Ratio_250_L_8_R_2.png","xmouse":[779,779,779,779,779,779,780,780,781,781,781,781,782,782,782,782,782,782,782,782,782,782,782,782,782,782,784,784,784,784,784,784,784,784,784,784,784,784,782,779,764,728,711,695,680,668,640,623,599,591,587,585,582,578,574,571,569,563,558,552,547,542,540,538,534,524,515,515,515,514,511,507,504,502],"ymouse":[524,524,524,524,524,524,524,524,523,523,523,523,523,523,523,523,523,523,523,523,523,523,523,523,523,523,522,522,522,522,522,521,521,521,521,521,520,519,518,514,501,470,453,434,414,393,343,319,285,273,264,250,242,235,228,222,213,203,197,189,182,171,167,165,161,154,147,135,129,123,117,106,100,95],"timestamp_mouse":[10,24,48,63,84,105,123,145,165,185,205,224,243,263,285,303,323,343,363,383,403,423,444,463,485,504,524,543,565,585,604,624,644,665,684,703,723,745,763,784,804,824,843,864,884,903,924,945,964,984,1003,1023,1044,1064,1083,1104,1124,1143,1163,1183,1203,1224,1243,1263,1283,1303,1324,1344,1363,1383,1404,1424,1443,1464],"xSR":741.5,"ySR":469.95,"xT1":424.9,"yT1":0,"xT2":1058.1,"yT2":0,"toosoon":0,"cond_shown":"equaldotanddens","ratio_trial":250,"smaller_num":"2","larger_num":"8","correct_side":1,"subjID":"julianandresherrera7","gender":"0","age":"9","school":"4"},{"start_time":1552313727144,"click_time":1552313728576,"finger_time":1552313728055,"fix_duration":1465.122101574197,"trial":12,"RT":911,"MT":521,"sideResp":2,"stimulus":"img/900/randomdotsizeEA/L/8_Ratio_900_L_20_R_18.png","xmouse":[785,785,785,785,785,785,785,785,785,785,785,785,785,785,785,785,785,785,785,785,785,785,785,785,785,785,785,785,785,785,785,785,785,785,785,786,787,788,789,790,792,806,814,826,834,843,861,870,882,890,899,914,920,926,930,935,949,955,961,967,974,1008,1034,1048,1060,1070,1084,1090,1094,1097,1099,1100],"ymouse":[517,517,517,517,517,517,517,517,517,517,517,517,517,517,517,517,517,517,517,517,517,517,518,518,518,518,518,518,518,518,518,518,518,518,518,518,518,518,517,516,515,506,500,491,484,476,455,443,430,421,410,390,379,370,362,352,328,318,307,295,285,252,225,209,193,176,147,134,124,112,102,88],"timestamp_mouse":[11,43,52,72,93,112,133,153,171,192,213,231,251,273,292,313,332,353,372,392,413,433,452,471,491,513,532,552,572,593,613,632,653,671,692,711,732,753,773,791,812,831,851,871,892,911,932,951,972,992,1012,1031,1051,1071,1091,1112,1131,1151,1172,1191,1213,1232,1251,1272,1292,1311,1332,1351,1372,1392,1412,1432],"xSR":741.5,"ySR":469.95,"xT1":424.9,"yT1":0,"xT2":1058.1,"yT2":0,"toosoon":0,"cond_shown":"randomdotsizeEA","ratio_trial":900,"smaller_num":"18","larger_num":"20","correct_side":1,"subjID":"julianandresherrera7","gender":"0","age":"9","school":"4"},{"start_time":1552313737548,"click_time":1552313738696,"finger_time":1552313738276,"fix_duration":549.7159830444693,"trial":13,"RT":728,"MT":420,"sideResp":2,"stimulus":"img/900/randomdotsizeEA/R/15_Ratio_900_L_9_R_10.png","xmouse":[813,813,813,813,813,813,813,813,813,813,813,813,813,813,813,813,813,813,813,813,813,813,813,813,813,813,813,813,813,813,813,813,813,813,812,811,810,810,810,810,810,813,819,833,849,865,890,904,920,938,954,978,1002,1025,1050,1067,1083,1097],"ymouse":[496,495,494,494,493,492,491,491,490,490,489,489,489,489,488,488,488,488,488,487,487,487,487,487,487,487,487,486,486,485,484,483,482,480,478,475,466,463,461,459,459,455,446,435,423,413,385,368,350,334,316,269,239,212,185,158,132,87],"timestamp_mouse":[10,42,48,69,88,107,127,147,169,189,207,228,249,267,288,309,328,348,368,387,409,427,448,469,489,509,528,548,569,587,607,628,647,667,688,708,728,747,769,789,808,828,848,867,888,907,927,947,968,988,1009,1028,1048,1068,1088,1107,1127,1147],"xSR":741.5,"ySR":469.95,"xT1":424.9,"yT1":0,"xT2":1058.1,"yT2":0,"toosoon":0,"cond_shown":"randomdotsizeEA","ratio_trial":900,"smaller_num":"9","larger_num":"10","correct_side":2,"subjID":"julianandresherrera7","gender":"0","age":"9","school":"4"},{"start_time":1552313740822,"click_time":1552313742276,"finger_time":1552313741756,"fix_duration":745.6390582569006,"trial":14,"RT":934,"MT":520,"sideResp":2,"stimulus":"img/750/equaldotsize/L/1_Ratio_750_L_20_R_15.png","xmouse":[795,795,795,795,795,795,795,795,795,795,795,795,795,796,797,797,797,797,797,797,798,798,798,798,798,798,798,798,798,798,798,798,798,798,798,798,798,798,798,798,798,798,798,798,799,809,863,1029,1071,1116,1134,1152,1175,1184,1190,1192,1192,1192,1192,1189,1185,1180,1176,1173,1171,1170,1170,1169,1169,1168,1166,1161,1149],"ymouse":[495,495,495,493,493,493,493,493,493,493,493,493,493,491,490,489,488,488,488,488,487,487,487,487,487,487,487,487,487,487,487,487,487,487,487,487,487,487,487,487,487,487,487,487,486,481,457,363,332,291,270,252,220,200,177,155,133,105,91,85,77,72,69,67,67,67,67,67,67,67,67,69,70],"timestamp_mouse":[14,43,55,73,94,113,135,153,173,193,215,234,254,275,294,313,333,353,374,393,414,435,454,473,495,514,534,553,575,593,614,635,653,674,694,713,734,754,773,793,815,834,853,874,895,913,934,954,974,994,1014,1034,1053,1073,1093,1113,1135,1154,1175,1194,1214,1234,1254,1273,1294,1315,1335,1354,1374,1393,1413,1433,1454],"xSR":741.5,"ySR":469.95,"xT1":424.9,"yT1":0,"xT2":1058.1,"yT2":0,"toosoon":0,"cond_shown":"equaldotsize","ratio_trial":750,"smaller_num":"15","larger_num":"20","correct_side":1,"subjID":"julianandresherrera7","gender":"0","age":"9","school":"4"},{"start_time":1552313745009,"click_time":1552313746376,"finger_time":1552313745775,"fix_duration":1491.1501162639995,"trial":15,"RT":766,"MT":601,"sideResp":1,"stimulus":"img/250/equaldotanddens/L/14_Ratio_250_L_12_R_3.png","xmouse":[777,777,777,777,777,777,777,777,777,777,777,777,777,777,777,777,777,777,777,777,777,777,777,777,777,777,777,777,777,777,777,777,777,777,774,766,754,742,736,725,715,710,707,689,678,665,653,644,628,618,609,599,588,568,564,562,560,559,558,558,559,562,566,566,563,556,546,535,522],"ymouse":[510,510,510,510,510,510,510,510,510,510,510,510,510,510,510,510,510,510,510,510,510,510,510,510,510,510,510,510,510,510,510,510,510,510,509,505,501,498,497,493,488,484,481,456,439,424,409,394,365,348,338,328,318,299,294,289,283,278,263,242,223,203,182,141,117,95,74,56,30],"timestamp_mouse":[9,39,47,66,88,106,128,147,168,187,207,228,248,266,287,306,327,348,368,387,407,427,448,467,488,507,526,546,566,588,606,627,648,667,686,706,727,746,766,787,807,826,847,866,886,906,927,946,967,987,1006,1026,1046,1067,1086,1107,1127,1148,1166,1188,1207,1228,1247,1267,1287,1308,1327,1348,1367],"xSR":741.5,"ySR":469.95,"xT1":424.9,"yT1":0,"xT2":1058.1,"yT2":0,"toosoon":0,"cond_shown":"equaldotanddens","ratio_trial":250,"smaller_num":"3","larger_num":"12","correct_side":1,"subjID":"julianandresherrera7","gender":"0","age":"9","school":"4"},{"start_time":1552313748485,"click_time":1552313750076,"finger_time":1552313749475,"fix_duration":1007.5117648632063,"trial":16,"RT":990,"MT":601,"sideResp":2,"stimulus":"img/500/randomdotsizeEA/R/9_Ratio_500_L_2_R_4.png","xmouse":[776,776,776,776,776,776,776,776,776,776,776,776,776,776,776,776,776,776,776,776,776,776,776,776,776,776,776,776,776,776,776,776,776,776,776,776,776,776,776,776,776,776,776,776,776,776,790,815,838,858,894,905,911,914,917,922,927,932,935,935,935,936,938,942,956,969,980,991,1000,1013,1015,1017,1021,1028,1042,1046,1052,1053,1055,1062],"ymouse":[531,531,531,531,531,531,531,531,531,531,531,531,531,531,531,531,531,531,531,531,531,531,531,531,531,531,531,531,531,531,531,531,531,531,531,531,531,531,531,531,531,531,531,531,531,531,524,509,493,479,451,442,432,422,408,372,355,339,322,286,270,253,235,218,190,169,157,147,140,128,123,121,116,110,101,97,94,92,92,90],"timestamp_mouse":[13,40,51,71,90,112,131,151,172,191,210,232,252,270,291,311,330,350,372,392,410,432,450,478,490,511,531,550,570,591,612,630,650,670,691,710,732,750,770,790,812,831,851,871,891,910,930,951,970,990,1011,1031,1051,1072,1091,1111,1130,1151,1170,1191,1210,1232,1251,1271,1290,1312,1330,1351,1370,1391,1410,1430,1450,1471,1490,1511,1531,1551,1571,1591],"xSR":741.5,"ySR":469.95,"xT1":424.9,"yT1":0,"xT2":1058.1,"yT2":0,"toosoon":0,"cond_shown":"randomdotsizeEA","ratio_trial":500,"smaller_num":"2","larger_num":"4","correct_side":2,"subjID":"julianandresherrera7","gender":"0","age":"9","school":"4"},{"start_time":1552313751819,"click_time":1552313753455,"finger_time":1552313752575,"fix_duration":682.7375523577422,"trial":17,"RT":756,"MT":880,"sideResp":1,"stimulus":"img/250/randomdotsizeEA/L/5_Ratio_250_L_24_R_6.png","xmouse":[783,783,783,783,783,783,783,783,783,783,783,783,783,783,783,782,782,781,781,781,781,781,781,781,781,781,781,781,781,781,780,779,777,776,774,773,769,741,713,681,663,649,627,616,609,601,595,586,583,577,573,571,566,563,561,556,547,532,523,512,506,502,495,493,491,490,490,489,488,487,486,486,483,482,480,479,476,471,470,469,469,468],"ymouse":[531,531,531,531,531,531,531,531,531,531,531,531,531,531,531,531,531,530,530,530,530,530,530,530,530,530,530,530,530,530,530,530,530,530,530,531,531,529,520,510,504,500,489,482,477,469,463,452,443,422,404,388,352,334,317,301,284,253,239,219,209,201,187,183,179,173,171,165,161,158,154,148,139,134,129,124,119,109,105,103,102,98],"timestamp_mouse":[16,42,56,76,96,116,136,157,177,197,218,236,257,278,297,317,337,357,377,398,417,436,456,476,496,516,537,556,576,597,617,636,657,676,697,716,737,756,777,797,817,837,857,876,896,917,938,956,977,997,1018,1037,1056,1076,1097,1117,1138,1156,1177,1196,1217,1236,1257,1276,1296,1316,1337,1357,1376,1397,1417,1436,1456,1476,1497,1517,1559,1560,1576,1597,1617,1636],"xSR":741.5,"ySR":469.95,"xT1":424.9,"yT1":0,"xT2":1058.1,"yT2":0,"toosoon":0,"cond_shown":"randomdotsizeEA","ratio_trial":250,"smaller_num":"6","larger_num":"24","correct_side":1,"subjID":"julianandresherrera7","gender":"0","age":"9","school":"4"},{"start_time":1552313755851,"click_time":1552313757636,"finger_time":1552313756875,"fix_duration":1254.2705005983623,"trial":18,"RT":1024,"MT":761,"sideResp":1,"stimulus":"img/750/equaldotsize/R/2_Ratio_750_L_6_R_8.png","xmouse":[793,793,793,793,793,793,793,793,793,793,793,793,793,793,793,793,793,793,793,793,793,794,794,794,794,794,794,794,794,794,794,794,794,794,794,794,794,794,794,794,794,794,794,794,794,794,794,794,803,818,837,878,897,911,916,916,918,918,919,919,919,917,897,874,852,830,783,757,748,742,733,699,681,665,655,649,639,633,624,610,596,570,565,562,559,555,545,533,527,524],"ymouse":[508,508,508,508,508,508,508,508,508,508,508,508,508,508,508,508,508,508,508,508,508,508,508,508,508,508,508,508,508,508,508,508,508,508,508,508,508,508,508,508,508,508,508,508,508,508,508,508,501,488,470,424,405,394,388,386,383,376,371,367,365,363,351,343,337,332,324,318,315,312,307,286,273,261,253,246,228,218,206,188,173,152,147,143,140,136,124,111,103,99],"timestamp_mouse":[10,24,45,65,86,104,125,146,166,184,205,225,246,266,285,304,325,345,365,384,406,425,445,466,485,505,524,546,566,584,604,624,646,664,684,706,726,746,764,784,806,824,844,864,886,904,925,945,964,985,1005,1024,1044,1065,1085,1105,1124,1144,1165,1185,1204,1224,1245,1265,1284,1305,1324,1345,1365,1385,1405,1424,1444,1464,1485,1506,1525,1546,1565,1586,1605,1625,1644,1665,1685,1704,1725,1745,1765,1785],"xSR":741.5,"ySR":469.95,"xT1":424.9,"yT1":0,"xT2":1058.1,"yT2":0,"toosoon":0,"cond_shown":"equaldotsize","ratio_trial":750,"smaller_num":"6","larger_num":"8","correct_side":2,"subjID":"julianandresherrera7","gender":"0","age":"9","school":"4"},{"start_time":1552313758955,"click_time":1552313760256,"finger_time":1552313759856,"fix_duration":396.2725170028566,"trial":19,"RT":901,"MT":400,"sideResp":1,"stimulus":"img/250/equaldotanddens/L/5_Ratio_250_L_24_R_6.png","xmouse":[816,816,816,816,816,816,816,816,816,816,816,816,816,816,816,816,816,816,816,816,816,816,816,816,816,816,816,816,816,816,816,816,816,816,816,816,816,816,816,816,815,814,801,794,788,780,753,737,724,711,696,681,672,667,662,656,641,633,624,615,607,587,576,554,538,522],"ymouse":[503,503,503,503,503,503,503,503,503,503,503,503,503,503,503,503,503,503,503,503,503,503,503,503,503,503,503,503,503,503,503,503,503,503,503,503,503,503,503,503,503,503,500,495,485,469,421,397,378,360,342,318,301,291,282,270,240,227,214,200,187,158,143,121,107,94],"timestamp_mouse":[10,21,41,60,81,101,121,140,162,181,201,220,240,260,281,302,321,340,360,380,402,421,442,461,481,502,520,540,562,580,602,620,641,661,681,701,721,740,761,781,800,820,841,860,881,901,920,940,960,980,1002,1021,1041,1061,1081,1101,1121,1140,1161,1181,1200,1221,1240,1261,1281,1301],"xSR":741.5,"ySR":469.95,"xT1":424.9,"yT1":0,"xT2":1058.1,"yT2":0,"toosoon":0,"cond_shown":"equaldotanddens","ratio_trial":250,"smaller_num":"6","larger_num":"24","correct_side":1,"subjID":"julianandresherrera7","gender":"0","age":"9","school":"4"},{"start_time":1552313766742,"click_time":1552313768676,"finger_time":1552313767597,"fix_duration":343.26103680463103,"trial":20,"RT":855,"MT":1079,"sideResp":1,"stimulus":"img/250/equaldotsize/L/3_Ratio_250_L_8_R_2.png","xmouse":[787,787,787,787,787,787,787,787,787,787,787,787,787,787,787,787,787,787,787,787,787,787,787,787,787,787,787,787,787,787,787,787,787,787,787,787,787,786,785,784,783,782,780,776,766,759,738,727,715,692,655,623,606,604,602,595,583,578,575,572,567,558,548,541,533,530,528,528,527,526,525,522,520,518,518,517,517,517,517,517,517,517,516,514,513,512,509,509,509,509,509,508,506,504,501,499,493],"ymouse":[491,491,491,491,491,491,491,491,491,491,491,491,491,491,491,491,491,491,491,491,491,491,491,491,491,491,491,491,491,491,491,491,491,491,491,491,488,486,482,480,478,473,466,454,439,425,401,387,371,348,327,314,304,298,292,281,255,246,237,229,219,200,185,176,169,166,164,163,161,158,156,150,144,140,137,136,135,135,135,134,134,133,129,127,125,124,121,121,121,121,121,120,118,115,111,109,98],"timestamp_mouse":[14,42,54,74,94,113,133,153,174,194,215,235,254,275,294,313,333,354,374,393,415,434,455,474,494,514,534,555,573,595,615,633,654,675,694,713,734,753,775,794,815,833,855,873,894,914,935,954,974,994,1014,1034,1054,1074,1094,1114,1134,1153,1174,1194,1215,1234,1254,1273,1295,1314,1334,1353,1374,1395,1414,1434,1453,1474,1494,1513,1534,1555,1574,1594,1613,1636,1654,1674,1694,1715,1734,1753,1774,1793,1815,1834,1855,1874,1894,1914,1934],"xSR":741.5,"ySR":469.95,"xT1":424.9,"yT1":0,"xT2":1058.1,"yT2":0,"toosoon":0,"cond_shown":"equaldotsize","ratio_trial":250,"smaller_num":"2","larger_num":"8","correct_side":1,"subjID":"julianandresherrera7","gender":"0","age":"9","school":"4"},{"start_time":1552313771060,"click_time":1552313772176,"finger_time":1552313771916,"fix_duration":1383.986320118409,"trial":21,"RT":856,"MT":260,"sideResp":1,"stimulus":"img/750/equaldotanddens/L/13_Ratio_750_L_8_R_6.png","xmouse":[775,775,775,775,775,775,774,774,774,774,774,774,774,774,774,774,774,774,774,774,774,774,774,774,774,774,774,774,774,774,774,774,774,774,774,774,774,774,774,774,767,755,739,718,688,598,536,517,505,496,485,476,465,454,445,425],"ymouse":[513,513,513,513,513,513,513,513,512,512,512,512,512,512,512,512,512,512,512,512,512,512,512,512,512,512,512,512,512,512,512,512,512,512,512,512,512,512,512,512,503,486,463,436,404,331,294,276,259,242,206,187,169,151,133,99],"timestamp_mouse":[16,36,56,76,96,116,135,155,177,195,216,236,256,275,297,317,337,356,377,395,415,437,456,476,496,517,536,556,576,597,615,636,657,676,697,716,736,755,777,795,816,835,856,876,896,916,936,956,976,996,1016,1035,1056,1076,1096,1116],"xSR":741.5,"ySR":469.95,"xT1":424.9,"yT1":0,"xT2":1058.1,"yT2":0,"toosoon":0,"cond_shown":"equaldotanddens","ratio_trial":750,"smaller_num":"6","larger_num":"8","correct_side":1,"subjID":"julianandresherrera7","gender":"0","age":"9","school":"4"},{"start_time":1552313774028,"click_time":1552313775535,"finger_time":1552313774835,"fix_duration":250,"trial":22,"RT":807,"MT":700,"sideResp":2,"stimulus":"img/250/randomdotsizeEA/R/12_Ratio_250_L_5_R_20.png","xmouse":[768,768,768,768,768,768,768,768,768,768,768,768,768,768,768,768,768,768,768,768,768,768,768,768,768,768,768,768,768,768,768,768,768,768,768,768,771,786,821,837,849,860,876,884,895,906,919,946,962,967,969,971,980,984,992,1005,1019,1037,1046,1052,1057,1061,1068,1069,1071,1071,1073,1077,1079,1082,1083,1084,1086,1087,1087,1089],"ymouse":[498,498,498,498,498,498,498,498,498,498,498,498,498,498,498,498,498,498,498,498,498,498,498,498,498,498,498,498,498,498,498,498,498,498,498,498,498,498,484,473,464,455,443,436,424,411,396,367,346,337,331,325,313,307,297,287,275,250,229,218,209,201,187,180,173,164,154,136,125,119,114,111,105,101,100,98],"timestamp_mouse":[10,43,47,68,87,108,129,149,169,189,209,227,249,269,289,309,328,348,369,387,409,429,448,468,489,509,528,547,568,588,608,627,648,669,687,709,727,748,769,787,807,828,848,867,888,908,929,948,969,988,1008,1028,1048,1067,1088,1108,1129,1148,1169,1188,1208,1228,1247,1268,1287,1308,1329,1348,1368,1388,1408,1428,1448,1467,1488,1507],"xSR":741.5,"ySR":469.95,"xT1":424.9,"yT1":0,"xT2":1058.1,"yT2":0,"toosoon":0,"cond_shown":"randomdotsizeEA","ratio_trial":250,"smaller_num":"5","larger_num":"20","correct_side":2,"subjID":"julianandresherrera7","gender":"0","age":"9","school":"4"},{"start_time":1552313777110,"click_time":1552313778576,"finger_time":1552313777895,"fix_duration":493.61831502246787,"trial":23,"RT":785,"MT":681,"sideResp":1,"stimulus":"img/250/randomdotsizeEA/L/3_Ratio_250_L_8_R_2.png","xmouse":[770,771,771,772,772,773,774,775,775,775,776,778,779,780,781,782,783,784,785,785,786,786,786,786,786,786,786,786,786,786,786,786,786,786,786,786,786,786,776,767,754,741,723,672,657,647,636,622,596,590,584,572,551,511,502,499,497,495,489,488,487,487,487,487,487,487,488,489,490,490,490,490,488,481],"ymouse":[523,522,522,522,521,520,520,520,520,519,519,517,516,516,515,513,513,512,511,511,510,509,509,509,509,509,509,509,509,509,509,509,509,509,509,509,509,508,488,467,443,421,392,320,303,289,276,264,249,245,240,231,218,195,189,187,184,182,175,173,171,168,165,159,153,150,145,138,124,118,112,106,100,86],"timestamp_mouse":[6,26,48,66,86,107,126,146,165,185,206,226,246,265,286,306,326,347,366,387,407,427,446,467,486,505,525,547,567,586,606,627,646,665,686,706,727,745,766,785,806,826,846,867,886,905,925,946,965,986,1006,1025,1047,1065,1085,1106,1127,1145,1166,1185,1207,1226,1247,1266,1285,1306,1325,1346,1366,1385,1407,1427,1446,1466],"xSR":741.5,"ySR":469.95,"xT1":424.9,"yT1":0,"xT2":1058.1,"yT2":0,"toosoon":0,"cond_shown":"randomdotsizeEA","ratio_trial":250,"smaller_num":"2","larger_num":"8","correct_side":1,"subjID":"julianandresherrera7","gender":"0","age":"9","school":"4"},{"start_time":1552313781184,"click_time":1552313782756,"finger_time":1552313782095,"fix_duration":1306.7667793817527,"trial":24,"RT":911,"MT":661,"sideResp":1,"stimulus":"img/500/randomdotsizeEA/L/13_Ratio_500_L_12_R_6.png","xmouse":[780,780,780,780,780,780,781,781,781,781,781,781,781,782,782,782,782,782,782,782,782,782,782,782,782,782,782,782,782,782,782,782,782,782,782,782,782,782,782,782,782,782,781,779,772,763,757,751,744,733,717,700,659,620,588,578,569,563,559,551,550,550,549,549,548,547,542,535,526,513,508,504,502,499,494,491,489,487,485],"ymouse":[493,493,493,494,494,494,494,494,494,494,494,494,494,495,495,495,495,495,495,495,495,495,495,495,495,495,495,495,495,495,495,495,495,495,495,495,495,495,495,495,495,495,495,490,478,465,454,441,429,406,382,362,332,310,286,275,262,251,242,228,224,223,222,218,206,196,183,173,160,150,146,141,137,133,123,115,109,101,96],"timestamp_mouse":[13,42,52,71,92,113,132,152,172,192,213,233,251,272,293,312,332,353,371,393,413,432,453,473,491,513,533,553,573,593,611,633,652,672,693,711,732,753,773,792,812,831,853,872,892,911,932,952,972,992,1013,1032,1052,1072,1092,1112,1133,1151,1172,1192,1213,1232,1251,1271,1292,1312,1332,1352,1372,1392,1412,1432,1452,1472,1492,1513,1531,1553,1572],"xSR":741.5,"ySR":469.95,"xT1":424.9,"yT1":0,"xT2":1058.1,"yT2":0,"toosoon":0,"cond_shown":"randomdotsizeEA","ratio_trial":500,"smaller_num":"6","larger_num":"12","correct_side":1,"subjID":"julianandresherrera7","gender":"0","age":"9","school":"4"},{"start_time":1552313786222,"click_time":1552313787536,"finger_time":1552313787056,"fix_duration":605.262206755865,"trial":25,"RT":834,"MT":480,"sideResp":2,"stimulus":"img/900/equaldotsize/L/10_Ratio_900_L_20_R_18.png","xmouse":[768,768,768,768,769,769,769,769,769,769,769,769,769,769,769,769,769,769,769,769,769,769,769,769,769,769,769,769,769,769,769,769,769,769,769,769,769,772,776,786,798,816,835,845,852,859,864,874,877,880,885,891,918,932,950,969,987,1022,1052,1068,1078,1085,1086,1086,1082,1079],"ymouse":[505,505,505,505,506,506,506,506,506,506,506,506,506,506,506,506,506,506,506,506,506,506,506,506,506,506,506,506,506,506,506,506,506,506,506,506,506,504,498,488,476,460,433,416,398,383,372,359,354,350,342,335,315,307,299,292,285,264,240,220,201,179,138,121,104,93],"timestamp_mouse":[14,44,54,74,94,114,135,154,174,194,215,234,254,274,294,315,334,354,375,394,414,434,454,474,494,514,534,553,574,593,613,633,653,673,693,713,733,754,773,793,814,834,855,874,895,915,935,955,975,994,1014,1034,1055,1074,1095,1115,1135,1154,1175,1194,1214,1235,1254,1274,1294,1314],"xSR":741.5,"ySR":469.95,"xT1":424.9,"yT1":0,"xT2":1058.1,"yT2":0,"toosoon":0,"cond_shown":"equaldotsize","ratio_trial":900,"smaller_num":"18","larger_num":"20","correct_side":1,"subjID":"julianandresherrera7","gender":"0","age":"9","school":"4"},{"start_time":1552313792916,"click_time":1552313794457,"finger_time":1552313793675,"fix_duration":1157.6845119446043,"trial":26,"RT":759,"MT":782,"sideResp":1,"stimulus":"img/750/randomdotsizeEA/L/1_Ratio_750_L_20_R_15.png","xmouse":[773,773,773,773,773,773,773,773,773,773,773,773,773,773,773,773,773,773,773,773,773,773,773,773,773,773,773,773,773,773,773,773,773,773,773,772,769,768,763,761,758,755,754,752,751,751,751,751,751,757,762,770,777,785,787,788,788,786,775,762,748,723,699,662,637,622,606,595,575,567,559,554,549,542,536,532,527,522],"ymouse":[494,494,494,494,494,494,494,494,494,494,494,494,494,494,494,494,494,494,494,494,494,494,494,494,494,494,494,494,494,494,494,494,494,494,493,490,484,477,461,451,442,434,429,422,418,417,415,414,411,402,397,393,390,384,382,379,376,372,358,345,335,310,291,264,244,231,218,205,181,171,162,152,142,124,113,104,95,89],"timestamp_mouse":[9,20,41,61,80,100,120,141,160,180,199,220,240,261,281,301,320,340,361,380,401,419,441,461,480,501,519,540,561,581,601,619,641,661,680,700,720,740,759,781,800,820,840,860,880,899,920,939,960,980,1001,1020,1041,1060,1081,1100,1120,1139,1160,1181,1201,1220,1240,1260,1279,1300,1321,1341,1360,1380,1400,1421,1440,1460,1481,1500,1520,1541],"xSR":741.5,"ySR":469.95,"xT1":424.9,"yT1":0,"xT2":1058.1,"yT2":0,"toosoon":0,"cond_shown":"randomdotsizeEA","ratio_trial":750,"smaller_num":"15","larger_num":"20","correct_side":1,"subjID":"julianandresherrera7","gender":"0","age":"9","school":"4"},{"start_time":1552313796041,"click_time":1552313802736,"finger_time":1552313801976,"fix_duration":764.0374169256962,"trial":27,"RT":5935,"MT":760,"sideResp":1,"stimulus":"img/250/equaldotsize/R/4_Ratio_250_L_3_R_12.png","xmouse":[783,783,783,783,783,783,783,783,783,783,783,783,783,783,783,783,783,783,783,783,783,783,783,783,783,783,783,783,783,783,783,783,783,783,783,783,783,783,783,783,783,783,783,783,783,783,783,783,783,783,783,783,783,783,783,783,783,783,783,783,783,783,783,783,783,783,783,783,783,783,783,783,783,783,783,783,783,783,783,783,783,783,783,783,783,783,783,783,783,783,783,783,783,783,783,783,783,783,783,783,783,783,783,783,783,783,783,783,783,783,783,783,783,783,783,783,783,783,783,784,788,789,789,789,789,789,789,789,789,789,789,789,789,789,789,789,789,789,789,789,789,789,789,789,789,789,789,789,789,789,789,789,789,789,789,789,789,789,789,789,789,789,789,789,789,789,789,789,789,789,789,789,789,789,789,789,789,789,789,789,789,789,789,789,789,789,789,789,789,789,789,789,789,789,789,789,789,789,789,789,789,789,789,789,789,789,789,789,789,789,789,789,789,789,789,789,789,789,789,789,789,789,789,789,789,789,789,789,789,789,789,789,789,789,789,789,789,789,789,789,789,789,789,789,789,789,789,789,789,789,789,789,789,789,789,789,789,789,789,789,789,789,789,789,789,789,789,789,789,789,789,789,789,789,789,789,789,789,789,789,789,789,789,789,789,789,789,789,788,788,787,786,785,784,784,781,778,778,776,776,776,774,773,770,765,758,747,745,741,738,736,725,720,713,710,708,708,706,705,702,697,685,676,669,660,651,620,607,595,580,570,545,533,523,513],"ymouse":[490,490,490,490,490,490,490,490,490,490,490,490,490,490,490,490,490,490,490,490,490,490,490,490,490,490,490,490,490,490,490,490,490,490,490,490,490,490,490,490,490,490,490,490,490,490,490,490,490,490,490,490,490,490,490,490,490,490,490,490,490,490,490,490,490,490,490,490,490,490,490,490,490,490,490,490,490,490,490,490,490,490,490,490,490,490,490,490,490,490,490,490,490,490,490,490,490,490,490,490,490,490,490,490,490,490,490,490,490,490,490,490,490,490,490,490,490,490,491,492,497,497,497,497,497,497,497,497,497,497,497,497,497,497,497,497,497,497,497,497,497,497,497,497,497,497,497,497,497,497,497,497,497,497,497,497,497,497,497,497,497,497,497,497,497,497,497,497,497,497,497,497,497,497,497,497,497,497,497,497,497,497,497,497,497,497,497,497,497,497,497,497,497,497,497,497,497,497,497,497,497,497,497,497,497,497,497,497,497,497,497,497,497,497,497,497,497,497,497,497,497,497,497,497,497,497,497,497,497,497,497,497,497,497,497,497,497,497,497,497,497,497,497,497,497,497,497,497,497,497,497,497,497,497,497,497,497,497,497,497,497,497,497,497,497,497,497,497,497,497,497,498,502,504,505,506,508,509,510,510,510,510,510,510,510,510,510,509,507,503,500,495,493,489,482,474,464,464,461,461,458,448,439,428,415,399,373,363,350,340,330,301,290,279,272,269,267,261,257,250,244,228,222,219,217,215,205,200,194,183,172,141,126,111,98],"timestamp_mouse":[16,45,54,75,95,115,134,156,176,195,214,236,256,274,294,316,335,355,375,396,415,436,456,475,495,515,536,555,576,595,616,635,656,674,696,715,735,754,775,794,816,835,855,874,896,915,935,955,975,994,1014,1035,1055,1075,1096,1115,1135,1156,1176,1196,1216,1235,1256,1275,1295,1315,1334,1356,1376,1396,1414,1435,1456,1475,1495,1516,1536,1556,1575,1594,1615,1634,1656,1676,1696,1716,1736,1756,1775,1796,1816,1836,1855,1876,1895,1916,1936,1955,1976,1995,2016,2035,2056,2074,2096,2116,2135,2156,2176,2195,2216,2235,2255,2275,2295,2314,2335,2356,2376,2396,2416,2435,2456,2474,2495,2515,2535,2555,2576,2594,2615,2635,2656,2675,2696,2715,2736,2755,2776,2796,2814,2836,2855,2874,2895,2915,2934,2956,2974,2995,3016,3035,3056,3075,3096,3115,3134,3155,3175,3196,3215,3234,3256,3274,3296,3314,3336,3356,3375,3395,3415,3435,3455,3474,3495,3515,3534,3555,3575,3596,3615,3636,3655,3675,3695,3715,3736,3756,3774,3796,3814,3835,3856,3875,3895,3915,3935,3954,3976,3996,4015,4035,4055,4076,4096,4114,4134,4155,4174,4196,4214,4234,4256,4276,4294,4316,4336,4355,4375,4396,4415,4435,4456,4476,4496,4515,4534,4556,4576,4596,4615,4634,4655,4674,4696,4716,4734,4756,4775,4796,4815,4835,4855,4875,4896,4916,4935,4956,4975,4995,5015,5034,5055,5076,5096,5114,5135,5154,5174,5196,5214,5234,5255,5274,5296,5315,5335,5356,5376,5394,5415,5435,5455,5475,5494,5515,5535,5555,5576,5595,5615,5635,5656,5676,5695,5715,5735,5754,5775,5794,5814,5835,5855,5875,5895,5916,5935,5955,5975,5995,6014,6034,6054,6076,6095,6116,6135,6156,6174,6195,6215,6235,6255,6275,6295,6315,6335,6355,6375,6395,6415,6434,6455,6475,6495,6516,6536,6555,6575,6594,6615,6635,6655,6675,6695],"xSR":741.5,"ySR":469.95,"xT1":424.9,"yT1":0,"xT2":1058.1,"yT2":0,"toosoon":0,"cond_shown":"equaldotsize","ratio_trial":250,"smaller_num":"3","larger_num":"12","correct_side":2,"subjID":"julianandresherrera7","gender":"0","age":"9","school":"4"},{"start_time":1552313803988,"click_time":1552313806796,"finger_time":1552313805875,"fix_duration":250,"trial":28,"RT":1887,"MT":921,"sideResp":2,"stimulus":"img/750/randomdotsizeEA/R/5_Ratio_750_L_15_R_20.png","xmouse":[767,767,767,767,766,766,766,766,766,766,766,766,765,765,765,765,765,765,765,763,763,763,763,763,763,763,763,763,763,763,763,763,763,763,763,763,763,763,763,763,763,763,763,763,763,763,763,763,763,763,763,763,763,763,763,763,763,763,763,763,763,763,763,763,763,763,763,763,763,763,763,763,763,763,763,765,769,771,774,786,787,787,787,788,788,790,792,794,797,799,802,807,816,826,866,900,924,932,941,946,955,962,967,970,978,982,984,988,991,1003,1008,1013,1016,1019,1025,1029,1033,1038,1041,1046,1047,1049,1050,1052,1056,1056,1056,1056,1056,1056,1056,1056,1056,1056,1056,1056,1056,1056,1056,1056,1061],"ymouse":[500,500,500,501,505,506,506,506,506,506,506,506,507,507,507,507,507,507,507,507,507,507,507,507,507,507,507,507,507,507,507,507,507,507,507,507,507,507,507,507,507,507,507,507,507,507,507,507,507,507,507,507,507,507,507,507,507,507,507,507,507,507,507,507,507,507,507,507,507,507,507,507,507,507,507,509,511,511,513,518,518,518,518,518,518,518,518,518,518,518,517,516,513,510,502,490,470,451,431,413,379,354,337,323,296,288,284,278,274,265,262,258,253,247,233,224,215,204,193,167,151,137,125,114,93,86,75,66,58,48,45,45,45,45,45,45,45,45,44,44,51],"timestamp_mouse":[10,39,48,68,88,109,128,147,169,189,207,228,249,267,289,308,329,348,369,388,408,429,449,467,488,509,529,549,568,588,609,629,648,669,689,708,728,748,769,788,807,828,849,869,889,907,928,949,969,988,1007,1027,1047,1069,1088,1109,1128,1147,1169,1188,1208,1228,1247,1269,1288,1308,1329,1349,1369,1389,1409,1429,1449,1468,1488,1508,1529,1548,1568,1588,1609,1628,1648,1669,1688,1708,1729,1747,1769,1788,1809,1828,1848,1868,1887,1907,1929,1949,1968,1988,2008,2027,2049,2068,2088,2107,2129,2148,2168,2188,2208,2227,2247,2267,2287,2309,2328,2347,2367,2388,2409,2428,2449,2468,2488,2509,2529,2549,2568,2588,2608,2628,2649,2669,2688,2708,2729,2748,2768,2788,2808],"xSR":741.5,"ySR":469.95,"xT1":424.9,"yT1":0,"xT2":1058.1,"yT2":0,"toosoon":0,"cond_shown":"randomdotsizeEA","ratio_trial":750,"smaller_num":"15","larger_num":"20","correct_side":2,"subjID":"julianandresherrera7","gender":"0","age":"9","school":"4"},{"start_time":1552313808738,"click_time":1552313810177,"finger_time":1552313809437,"fix_duration":339.8082831360266,"trial":29,"RT":699,"MT":740,"sideResp":2,"stimulus":"img/500/equaldotanddens/R/6_Ratio_500_L_9_R_18.png","xmouse":[790,790,790,790,790,790,790,790,790,790,790,790,790,790,790,790,790,790,790,790,790,790,790,790,790,790,790,790,790,790,790,790,790,791,801,812,820,835,838,840,843,847,864,877,883,886,888,903,935,979,1028,1076,1106,1107,1107,1107,1107,1107,1108,1109,1110,1110,1111,1111,1111,1111,1111,1112,1113,1114,1117,1120,1125],"ymouse":[502,502,502,502,502,502,502,502,502,502,502,502,502,502,502,502,502,502,502,502,502,502,502,502,502,502,502,502,502,502,502,502,502,496,478,460,444,414,406,401,395,387,361,344,334,326,320,292,252,221,188,161,145,145,145,145,145,145,144,144,142,140,136,134,133,133,132,128,125,123,118,111,82],"timestamp_mouse":[1,18,39,59,77,97,117,138,158,178,199,218,238,258,279,299,318,337,359,378,397,419,439,458,479,499,518,538,558,579,599,618,637,658,678,699,718,738,758,778,798,818,838,858,878,899,919,939,957,978,998,1017,1038,1057,1079,1098,1119,1139,1158,1178,1198,1218,1238,1259,1278,1299,1318,1338,1357,1379,1399,1419,1438],"xSR":741.5,"ySR":469.95,"xT1":424.9,"yT1":0,"xT2":1058.1,"yT2":0,"toosoon":0,"cond_shown":"equaldotanddens","ratio_trial":500,"smaller_num":"9","larger_num":"18","correct_side":2,"subjID":"julianandresherrera7","gender":"0","age":"9","school":"4"},{"start_time":1552313812455,"click_time":1552313813696,"finger_time":1552313813175,"fix_duration":417.466590377243,"trial":30,"RT":720,"MT":521,"sideResp":2,"stimulus":"img/500/equaldotanddens/R/14_Ratio_500_L_5_R_10.png","xmouse":[796,795,794,794,794,793,793,790,789,788,787,787,787,787,787,787,787,787,787,787,787,787,787,787,787,787,787,787,787,787,787,787,787,787,792,798,845,884,899,907,912,922,928,935,945,955,982,992,1005,1018,1031,1056,1068,1077,1086,1092,1105,1114,1120,1123,1124,1125,1125],"ymouse":[518,517,517,517,517,517,517,517,517,517,517,517,517,517,517,517,517,517,517,517,517,517,517,517,517,517,517,517,517,517,517,517,517,517,513,509,475,444,428,417,409,396,391,385,376,367,337,322,305,287,270,235,218,201,183,166,137,121,113,108,106,100,98],"timestamp_mouse":[2,23,49,60,80,100,122,141,161,181,202,221,242,261,282,301,321,340,362,382,400,420,442,462,481,502,522,542,561,580,600,621,641,662,681,700,720,741,761,780,801,821,840,861,881,900,921,941,961,981,1001,1021,1041,1062,1081,1102,1121,1141,1160,1181,1201,1221,1240],"xSR":741.5,"ySR":469.95,"xT1":424.9,"yT1":0,"xT2":1058.1,"yT2":0,"toosoon":0,"cond_shown":"equaldotanddens","ratio_trial":500,"smaller_num":"5","larger_num":"10","correct_side":2,"subjID":"julianandresherrera7","gender":"0","age":"9","school":"4"},{"start_time":1552313815013,"click_time":1552313816597,"finger_time":1552313815797,"fix_duration":555.4860458123164,"trial":31,"RT":784,"MT":800,"sideResp":2,"stimulus":"img/500/equaldotsize/R/3_Ratio_500_L_10_R_20.png","xmouse":[775,775,775,775,775,775,775,775,775,775,775,775,775,775,775,775,775,775,775,775,775,775,775,775,775,775,775,775,775,775,775,775,774,779,788,798,809,818,826,831,835,841,846,854,857,859,862,865,879,885,894,897,899,900,909,918,929,937,951,960,966,973,980,985,988,990,992,994,999,1003,1006,1011,1018,1034,1043,1048,1051,1054,1056,1065],"ymouse":[540,540,540,540,540,540,540,540,540,540,540,540,540,540,540,540,540,540,540,540,540,540,540,540,540,540,540,540,540,540,540,540,540,536,529,520,510,501,481,462,447,433,422,401,394,387,380,373,352,343,332,329,327,325,317,310,301,292,272,260,251,241,232,218,210,202,196,190,177,167,160,153,145,131,124,117,110,102,93,73],"timestamp_mouse":[10,23,44,63,82,104,122,143,163,184,204,224,244,263,284,302,323,344,362,384,403,422,444,464,483,504,524,542,562,582,603,623,643,663,682,704,723,744,762,784,803,824,843,863,883,903,923,944,963,982,1002,1023,1042,1063,1083,1103,1123,1144,1163,1184,1203,1223,1243,1263,1283,1304,1323,1344,1363,1383,1403,1423,1443,1463,1483,1503,1523,1544,1563,1584],"xSR":741.5,"ySR":469.95,"xT1":424.9,"yT1":0,"xT2":1058.1,"yT2":0,"toosoon":0,"cond_shown":"equaldotsize","ratio_trial":500,"smaller_num":"10","larger_num":"20","correct_side":2,"subjID":"julianandresherrera7","gender":"0","age":"9","school":"4"},{"start_time":1552313817686,"click_time":1552313819197,"finger_time":1552313818655,"fix_duration":250,"trial":32,"RT":969,"MT":542,"sideResp":1,"stimulus":"img/900/equaldotanddens/R/7_Ratio_900_L_9_R_10.png","xmouse":[791,791,791,791,791,791,791,791,791,791,791,791,791,791,791,791,791,791,791,791,791,791,791,791,791,791,791,791,791,791,791,791,791,791,791,791,791,791,791,791,791,791,791,791,791,791,791,791,794,800,801,801,798,793,781,702,570,479,399,276,226,178,153,153,153,153,153,153,153,153,153,126,162,250,408,501],"ymouse":[491,491,491,491,491,491,491,491,491,491,491,491,491,491,491,491,491,491,491,491,491,491,491,491,491,491,491,491,491,491,491,491,491,491,491,491,491,491,491,491,491,491,491,491,491,491,491,485,466,415,402,398,395,389,378,320,233,179,129,55,30,11,4,4,4,4,4,4,4,4,4,0,14,43,79,91],"timestamp_mouse":[10,38,50,71,90,110,131,151,171,190,211,230,250,271,290,311,330,350,370,389,411,430,450,471,491,511,530,550,570,590,611,630,651,671,691,711,731,750,771,790,810,831,851,870,889,911,930,951,969,990,1010,1030,1050,1070,1089,1111,1130,1150,1170,1190,1210,1231,1251,1271,1291,1311,1331,1351,1371,1391,1410,1431,1450,1471,1490,1511],"xSR":741.5,"ySR":469.95,"xT1":424.9,"yT1":0,"xT2":1058.1,"yT2":0,"toosoon":0,"cond_shown":"equaldotanddens","ratio_trial":900,"smaller_num":"9","larger_num":"10","correct_side":2,"subjID":"julianandresherrera7","gender":"0","age":"9","school":"4"},{"start_time":1552313822120,"click_time":1552313823376,"finger_time":1552313822576,"fix_duration":1001.3540849695622,"trial":33,"RT":456,"MT":800,"sideResp":2,"stimulus":"img/500/randomdotsizeEA/R/6_Ratio_500_L_9_R_18.png","xmouse":[804,804,805,805,806,806,806,806,806,806,806,806,809,809,811,813,815,821,824,826,828,831,842,854,861,868,875,886,892,900,908,924,969,996,1013,1024,1031,1041,1044,1046,1046,1046,1046,1042,1040,1040,1040,1040,1040,1040,1040,1040,1040,1040,1040,1040,1041,1043,1045,1047,1050,1055,1063],"ymouse":[517,517,517,517,515,514,514,514,514,514,514,513,510,510,508,506,505,500,497,492,488,484,479,474,468,462,455,438,427,416,405,386,345,315,292,268,245,205,185,166,149,133,106,94,90,90,90,90,90,90,90,90,90,89,89,89,89,89,89,88,88,88,87],"timestamp_mouse":[16,41,56,77,96,116,135,156,177,197,215,236,256,276,296,316,336,356,375,397,416,437,456,477,495,517,536,556,577,597,615,635,656,677,696,716,736,756,776,796,816,837,856,875,896,915,935,956,976,997,1016,1037,1056,1077,1095,1115,1135,1156,1175,1196,1216,1237,1256],"xSR":741.5,"ySR":469.95,"xT1":424.9,"yT1":0,"xT2":1058.1,"yT2":0,"toosoon":0,"cond_shown":"randomdotsizeEA","ratio_trial":500,"smaller_num":"9","larger_num":"18","correct_side":2,"subjID":"julianandresherrera7","gender":"0","age":"9","school":"4"},{"start_time":1552313825430,"click_time":1552313827076,"finger_time":1552313826197,"fix_duration":431.8411915672342,"trial":34,"RT":767,"MT":879,"sideResp":1,"stimulus":"img/900/equaldotsize/R/13_Ratio_900_L_18_R_20.png","xmouse":[788,788,788,788,788,788,788,788,788,788,788,788,788,788,788,788,788,788,788,788,788,788,788,788,788,788,788,788,788,788,788,788,788,788,788,788,788,786,784,780,775,769,740,726,710,692,675,639,619,605,593,582,558,551,547,544,543,539,535,532,529,529,529,529,529,528,528,528,528,528,528,528,526,526,526,526,526,526,526,525,525,525,524],"ymouse":[507,507,504,503,502,500,500,500,500,500,500,500,500,500,500,500,500,500,500,500,500,500,500,500,500,500,500,500,500,500,500,500,498,497,495,491,487,474,467,457,445,431,386,366,343,319,295,245,213,193,173,157,126,117,110,106,102,94,88,85,82,82,82,82,82,81,81,81,81,81,80,80,78,78,78,78,78,78,78,78,78,78,78],"timestamp_mouse":[10,25,46,67,87,106,125,147,167,186,205,226,247,266,287,307,326,347,367,385,406,427,445,466,486,507,525,546,567,587,607,626,646,666,685,706,727,746,767,786,806,826,846,865,886,906,927,946,965,986,1007,1025,1046,1066,1085,1106,1126,1146,1165,1185,1207,1227,1246,1266,1286,1305,1327,1346,1367,1387,1406,1426,1446,1466,1487,1507,1527,1546,1567,1586,1607,1627,1646],"xSR":741.5,"ySR":469.95,"xT1":424.9,"yT1":0,"xT2":1058.1,"yT2":0,"toosoon":0,"cond_shown":"equaldotsize","ratio_trial":900,"smaller_num":"18","larger_num":"20","correct_side":2,"subjID":"julianandresherrera7","gender":"0","age":"9","school":"4"},{"start_time":1552313829210,"click_time":1552313830535,"finger_time":1552313829955,"fix_duration":1211.588712574174,"trial":35,"RT":745,"MT":580,"sideResp":1,"stimulus":"img/250/randomdotsizeEA/L/7_Ratio_250_L_8_R_2.png","xmouse":[823,823,823,823,823,823,823,823,823,823,823,823,823,823,823,823,823,823,823,823,823,822,822,822,822,821,821,820,819,818,818,818,818,817,813,808,800,790,763,751,736,720,702,681,675,668,659,646,612,590,580,573,568,558,552,549,546,545,545,545,545,544,542,535,531,527,519],"ymouse":[522,522,522,522,522,521,521,521,521,521,521,521,521,521,521,521,521,521,521,521,520,515,514,514,513,512,511,510,509,509,509,509,509,506,501,492,478,464,424,404,384,363,344,324,313,303,288,270,230,208,197,189,178,161,153,148,143,141,140,140,139,137,130,117,108,100,89],"timestamp_mouse":[7,39,46,66,86,105,127,145,165,186,205,225,245,265,286,305,326,346,365,387,405,427,445,465,486,505,526,546,565,586,606,627,645,666,685,705,726,745,766,785,805,827,846,865,885,905,926,946,965,986,1005,1026,1045,1066,1086,1105,1126,1145,1166,1186,1207,1226,1245,1265,1285,1307,1325],"xSR":741.5,"ySR":469.95,"xT1":424.9,"yT1":0,"xT2":1058.1,"yT2":0,"toosoon":0,"cond_shown":"randomdotsizeEA","ratio_trial":250,"smaller_num":"2","larger_num":"8","correct_side":1,"subjID":"julianandresherrera7","gender":"0","age":"9","school":"4"},{"start_time":1552313833499,"click_time":1552313835175,"finger_time":1552313834335,"fix_duration":323.79436225087477,"trial":36,"RT":836,"MT":840,"sideResp":2,"stimulus":"img/500/equaldotsize/R/14_Ratio_500_L_5_R_10.png","xmouse":[826,826,826,826,826,826,826,826,826,826,826,826,826,826,826,826,826,826,826,826,826,826,826,826,826,826,826,826,826,826,826,826,826,826,826,826,826,827,827,832,836,854,874,924,939,955,965,972,980,984,989,995,997,1004,1007,1010,1013,1016,1030,1046,1064,1081,1097,1112,1118,1121,1121,1121,1121,1121,1121,1121,1121,1121,1121,1121,1121,1121,1121,1121,1121,1121,1121,1119],"ymouse":[551,551,551,551,551,551,551,551,551,551,551,551,551,551,551,551,551,551,551,551,551,551,551,551,551,551,551,551,551,551,551,551,551,551,551,551,551,551,551,543,530,490,444,372,347,319,307,298,290,283,276,266,258,242,239,235,233,230,220,215,205,195,182,158,142,130,121,113,103,101,101,101,101,101,101,101,101,101,101,101,101,100,100,97],"timestamp_mouse":[16,37,56,77,96,117,136,157,176,198,217,236,257,276,297,317,336,358,377,396,417,437,457,477,497,517,536,557,577,597,618,638,656,676,698,717,737,757,776,796,816,836,856,877,898,916,937,956,977,996,1017,1037,1057,1077,1097,1116,1136,1157,1177,1197,1216,1236,1256,1276,1296,1316,1337,1356,1377,1396,1416,1436,1458,1477,1496,1516,1536,1557,1576,1596,1617,1636,1657,1676],"xSR":741.5,"ySR":469.95,"xT1":424.9,"yT1":0,"xT2":1058.1,"yT2":0,"toosoon":0,"cond_shown":"equaldotsize","ratio_trial":500,"smaller_num":"5","larger_num":"10","correct_side":2,"subjID":"julianandresherrera7","gender":"0","age":"9","school":"4"},{"start_time":1552313838853,"click_time":1552313840275,"finger_time":1552313839797,"fix_duration":1294.8375218089188,"trial":37,"RT":944,"MT":478,"sideResp":2,"stimulus":"img/250/randomdotsizeEA/R/8_Ratio_250_L_1_R_4.png","xmouse":[798,801,802,802,802,802,802,802,802,803,803,803,803,803,803,803,803,803,803,803,803,803,803,803,803,803,803,803,803,803,803,803,803,803,803,803,803,803,803,803,803,803,803,803,803,810,829,838,843,848,854,882,909,936,956,970,988,999,1008,1021,1034,1059,1066,1071,1075,1077,1085,1092,1096,1103,1111,1120],"ymouse":[528,523,521,521,521,521,520,520,520,518,518,518,518,518,518,518,518,518,518,518,518,518,518,518,518,518,518,518,518,518,518,518,518,518,518,518,518,518,518,518,518,518,518,517,516,506,486,469,456,441,423,379,348,321,299,280,251,235,221,209,195,178,172,167,162,159,146,132,125,113,102,84],"timestamp_mouse":[2,23,53,62,84,102,123,142,163,183,203,222,242,262,282,303,323,344,362,382,404,424,442,462,483,502,523,544,563,583,602,623,644,662,682,703,723,743,763,782,802,822,844,863,882,903,922,944,963,984,1002,1022,1043,1063,1083,1104,1123,1142,1162,1184,1202,1222,1244,1264,1282,1303,1322,1343,1363,1383,1402,1422],"xSR":741.5,"ySR":469.95,"xT1":424.9,"yT1":0,"xT2":1058.1,"yT2":0,"toosoon":0,"cond_shown":"randomdotsizeEA","ratio_trial":250,"smaller_num":"1","larger_num":"4","correct_side":2,"subjID":"julianandresherrera7","gender":"0","age":"9","school":"4"},{"start_time":1552313842304,"click_time":1552313843616,"finger_time":1552313843117,"fix_duration":927.6957143519033,"trial":38,"RT":813,"MT":499,"sideResp":1,"stimulus":"img/750/equaldotanddens/L/6_Ratio_750_L_24_R_18.png","xmouse":[772,772,772,772,772,772,772,772,772,772,772,772,772,772,772,772,772,772,772,772,772,772,772,772,772,772,772,772,772,772,772,772,772,772,772,772,772,772,772,758,735,712,686,645,631,603,582,565,546,542,540,538,537,535,535,537,541,543,543,543,540,536,531,517,504,497],"ymouse":[531,531,531,531,531,531,531,531,531,531,531,531,531,531,531,531,531,531,531,531,531,531,531,531,531,531,531,531,531,531,531,531,531,531,531,531,531,531,531,522,506,488,468,443,429,409,393,379,354,343,333,323,316,296,287,274,263,251,225,210,195,178,161,130,105,89],"timestamp_mouse":[12,44,51,72,92,113,131,152,173,192,212,232,253,273,292,313,331,352,371,391,412,433,451,472,492,513,531,552,572,592,611,632,651,671,692,712,732,752,772,791,813,831,853,871,893,911,931,951,971,1001,1011,1031,1052,1071,1092,1112,1131,1151,1172,1191,1212,1231,1252,1272,1292,1311],"xSR":741.5,"ySR":469.95,"xT1":424.9,"yT1":0,"xT2":1058.1,"yT2":0,"toosoon":0,"cond_shown":"equaldotanddens","ratio_trial":750,"smaller_num":"18","larger_num":"24","correct_side":1,"subjID":"julianandresherrera7","gender":"0","age":"9","school":"4"},{"start_time":1552313845349,"click_time":1552313846876,"finger_time":1552313846076,"fix_duration":572.0594174158294,"trial":39,"RT":727,"MT":800,"sideResp":1,"stimulus":"img/500/equaldotanddens/L/4_Ratio_500_L_18_R_9.png","xmouse":[794,794,794,794,794,794,794,794,794,794,794,794,794,794,794,794,794,794,794,794,794,794,794,794,794,794,794,794,794,794,794,792,791,785,784,782,777,771,764,757,749,730,719,716,714,711,695,680,667,659,654,639,622,605,590,576,553,544,533,526,525,525,536,545,550,551,551,551,551,551,550,546,544,543,540,536,516],"ymouse":[499,499,499,499,499,499,499,499,499,499,499,499,499,499,499,499,499,499,499,499,499,499,499,499,499,499,499,499,499,499,499,494,491,479,474,472,453,433,412,389,368,335,321,315,312,306,286,271,259,250,242,224,207,194,184,172,140,121,104,93,89,87,80,76,74,73,73,73,73,72,72,71,70,70,70,70,68],"timestamp_mouse":[11,36,48,67,87,106,126,148,168,187,207,227,246,267,288,307,326,347,367,387,408,427,446,466,488,508,527,547,566,586,607,626,647,667,686,706,727,746,766,786,806,827,848,866,887,906,927,946,967,986,1007,1026,1048,1066,1087,1106,1126,1146,1166,1187,1208,1227,1247,1266,1287,1307,1326,1347,1367,1387,1407,1426,1446,1466,1487,1508,1526],"xSR":741.5,"ySR":469.95,"xT1":424.9,"yT1":0,"xT2":1058.1,"yT2":0,"toosoon":0,"cond_shown":"equaldotanddens","ratio_trial":500,"smaller_num":"9","larger_num":"18","correct_side":1,"subjID":"julianandresherrera7","gender":"0","age":"9","school":"4"},{"start_time":1552313848640,"click_time":1552313850276,"finger_time":1552313849675,"fix_duration":663.7318535046608,"trial":40,"RT":1035,"MT":601,"sideResp":1,"stimulus":"img/750/equaldotsize/L/8_Ratio_750_L_4_R_3.png","xmouse":[763,763,763,763,766,769,774,775,775,775,775,777,779,780,781,781,781,781,781,781,781,781,781,781,781,781,781,781,781,781,781,781,781,781,781,781,781,781,781,781,781,781,781,781,779,778,774,771,766,758,747,727,716,705,696,685,670,621,601,583,573,550,544,539,533,525,514,509,507,505,504,501,501,500,498,495,494,494,494,493,493,489],"ymouse":[518,518,518,518,518,518,518,518,518,518,518,518,518,518,518,518,518,518,518,518,518,518,518,518,518,518,518,518,518,518,518,518,518,518,518,518,518,518,518,518,518,518,518,518,517,517,515,513,509,501,491,476,468,458,450,442,430,392,374,358,344,317,304,292,278,265,239,223,218,211,205,190,183,174,162,151,133,127,119,114,111,97],"timestamp_mouse":[16,39,57,76,96,115,135,156,175,197,215,235,255,277,296,315,335,356,376,396,417,437,456,476,497,517,535,556,576,596,616,635,655,676,695,717,735,757,776,795,816,836,856,876,895,915,935,955,975,996,1016,1035,1055,1076,1096,1116,1135,1156,1175,1195,1216,1236,1256,1275,1295,1315,1335,1357,1375,1396,1415,1436,1455,1475,1496,1517,1536,1556,1576,1596,1617,1636],"xSR":741.5,"ySR":469.95,"xT1":424.9,"yT1":0,"xT2":1058.1,"yT2":0,"toosoon":0,"cond_shown":"equaldotsize","ratio_trial":750,"smaller_num":"3","larger_num":"4","correct_side":1,"subjID":"julianandresherrera7","gender":"0","age":"9","school":"4"},{"start_time":1552313852421,"click_time":1552313853575,"finger_time":1552313853136,"fix_duration":1023.467971687029,"trial":41,"RT":715,"MT":439,"sideResp":2,"stimulus":"img/900/equaldotanddens/L/4_Ratio_900_L_20_R_18.png","xmouse":[793,793,793,793,793,793,793,793,793,793,793,793,793,793,793,793,793,793,793,793,793,793,793,793,793,793,793,793,793,793,793,793,793,799,822,883,955,1082,1118,1144,1145,1143,1130,1123,1116,1112,1107,1102,1100,1099,1099,1097,1095,1093,1093,1093,1091,1089],"ymouse":[512,512,512,512,512,512,512,512,512,512,512,512,512,512,512,512,512,512,512,512,512,512,512,512,512,512,512,512,512,512,512,512,512,509,491,458,418,332,299,264,249,235,211,201,191,183,175,161,156,151,147,142,132,124,116,108,100,89],"timestamp_mouse":[20,41,54,74,94,115,135,155,174,194,214,234,254,275,295,316,335,355,374,396,414,435,455,475,494,514,536,554,574,595,614,635,655,675,694,715,735,754,775,794,814,834,854,876,895,915,936,955,975,994,1015,1035,1054,1075,1095,1115,1134,1154],"xSR":741.5,"ySR":469.95,"xT1":424.9,"yT1":0,"xT2":1058.1,"yT2":0,"toosoon":0,"cond_shown":"equaldotanddens","ratio_trial":900,"smaller_num":"18","larger_num":"20","correct_side":1,"subjID":"julianandresherrera7","gender":"0","age":"9","school":"4"},{"start_time":1552313854979,"click_time":1552313856576,"finger_time":1552313856075,"fix_duration":602.3096543383074,"trial":42,"RT":1096,"MT":501,"sideResp":2,"stimulus":"img/250/randomdotsizeEA/R/10_Ratio_250_L_4_R_16.png","xmouse":[779,779,779,780,781,781,781,781,782,783,783,783,783,784,784,784,784,784,784,784,780,775,772,770,769,768,766,763,762,759,758,757,756,756,755,754,754,753,753,753,753,752,752,752,752,752,752,752,752,752,752,752,752,756,778,788,799,818,841,893,908,921,926,929,939,944,947,950,953,960,970,977,988,999,1018,1027,1039,1053,1067,1082],"ymouse":[542,541,541,540,538,537,537,537,537,536,536,534,534,533,532,532,532,532,531,529,522,515,511,509,506,504,501,497,495,492,490,489,488,487,487,486,486,484,484,484,484,483,483,483,483,483,483,483,483,483,483,483,482,478,459,446,434,416,399,360,337,298,271,247,211,201,193,185,180,164,149,141,132,127,118,116,111,106,100,90],"timestamp_mouse":[19,48,56,77,96,117,137,156,177,197,216,236,257,277,296,316,337,358,378,396,417,436,457,476,496,516,537,557,576,596,618,636,657,677,697,716,737,758,777,796,816,836,857,877,896,916,937,956,977,998,1017,1037,1056,1076,1096,1118,1137,1156,1176,1196,1218,1236,1257,1276,1296,1316,1336,1356,1378,1397,1417,1436,1457,1478,1496,1517,1536,1556,1577,1596],"xSR":741.5,"ySR":469.95,"xT1":424.9,"yT1":0,"xT2":1058.1,"yT2":0,"toosoon":0,"cond_shown":"randomdotsizeEA","ratio_trial":250,"smaller_num":"4","larger_num":"16","correct_side":2,"subjID":"julianandresherrera7","gender":"0","age":"9","school":"4"},{"start_time":1552313858249,"click_time":1552313859596,"finger_time":1552313858957,"fix_duration":832.8370346677118,"trial":43,"RT":708,"MT":639,"sideResp":1,"stimulus":"img/250/randomdotsizeEA/L/14_Ratio_250_L_12_R_3.png","xmouse":[797,797,797,797,797,797,797,797,797,797,797,797,797,797,797,797,797,797,797,797,797,797,797,797,797,797,797,797,797,797,797,797,795,787,769,751,690,655,626,614,602,566,547,530,516,508,499,495,493,491,489,488,488,492,495,496,494,493,492,492,491,490,490,490,490,490,490,490],"ymouse":[500,500,500,500,500,500,500,500,500,500,500,500,500,500,500,500,500,500,500,500,500,500,500,500,500,500,500,500,500,500,500,500,499,490,470,450,388,359,336,326,316,288,275,260,247,237,223,214,210,202,195,184,173,161,150,144,127,123,121,120,118,115,113,111,109,107,100,96],"timestamp_mouse":[9,36,46,66,87,106,127,146,168,187,208,226,246,266,286,307,326,348,367,386,407,427,446,467,488,507,527,548,567,587,608,627,647,667,687,708,727,747,766,786,806,826,846,867,886,907,927,946,966,986,1006,1026,1047,1067,1087,1106,1126,1146,1167,1186,1208,1227,1247,1266,1286,1308,1327,1347],"xSR":741.5,"ySR":469.95,"xT1":424.9,"yT1":0,"xT2":1058.1,"yT2":0,"toosoon":0,"cond_shown":"randomdotsizeEA","ratio_trial":250,"smaller_num":"3","larger_num":"12","correct_side":1,"subjID":"julianandresherrera7","gender":"0","age":"9","school":"4"},{"start_time":1552313861486,"click_time":1552313862696,"finger_time":1552313862095,"fix_duration":647.5667104293233,"trial":44,"RT":609,"MT":601,"sideResp":2,"stimulus":"img/250/equaldotanddens/R/9_Ratio_250_L_3_R_12.png","xmouse":[791,791,791,791,791,791,791,791,791,791,791,791,791,791,791,791,791,791,791,791,791,791,791,791,791,791,791,792,798,825,843,856,866,876,889,902,912,921,930,947,953,962,971,978,993,999,1004,1011,1017,1027,1032,1039,1044,1054,1071,1079,1082,1085,1087,1092,1094],"ymouse":[494,494,494,494,494,494,494,494,494,494,494,494,494,494,494,494,494,494,494,494,494,494,494,494,494,494,494,495,495,493,481,468,456,443,420,396,379,360,342,307,293,278,262,249,220,209,198,190,183,173,168,162,157,150,137,129,122,116,111,101,97],"timestamp_mouse":[9,45,50,71,89,110,129,151,170,190,210,230,249,271,289,310,329,351,369,391,409,429,450,469,489,510,529,550,570,589,609,630,650,669,689,709,729,751,770,789,809,829,850,870,889,910,929,950,970,989,1009,1029,1049,1069,1089,1110,1130,1150,1170,1189,1210],"xSR":741.5,"ySR":469.95,"xT1":424.9,"yT1":0,"xT2":1058.1,"yT2":0,"toosoon":0,"cond_shown":"equaldotanddens","ratio_trial":250,"smaller_num":"3","larger_num":"12","correct_side":2,"subjID":"julianandresherrera7","gender":"0","age":"9","school":"4"},{"start_time":1552313865052,"click_time":1552313866276,"finger_time":1552313865715,"fix_duration":1413.1345275393048,"trial":45,"RT":663,"MT":561,"sideResp":1,"stimulus":"img/250/equaldotanddens/L/3_Ratio_250_L_8_R_2.png","xmouse":[793,793,793,793,793,793,793,793,793,793,793,793,793,793,793,793,793,793,793,793,793,793,793,793,793,793,793,793,793,793,793,793,776,735,670,607,527,497,477,459,440,409,400,396,395,393,392,390,387,386,386,388,388,389,391,391,393,394,397,404,414,446],"ymouse":[517,517,517,517,517,517,517,517,517,517,517,517,517,517,517,517,517,517,517,517,517,517,517,517,517,517,517,517,517,517,517,517,504,466,425,389,346,324,310,297,283,258,249,245,241,237,224,203,182,154,126,96,89,83,78,75,70,70,70,69,69,73],"timestamp_mouse":[9,25,45,64,84,104,124,144,164,183,204,225,243,264,284,304,323,344,364,383,405,424,444,465,483,504,524,543,564,583,604,624,643,663,684,703,723,745,763,783,803,823,843,864,884,903,923,943,963,983,1003,1023,1044,1064,1084,1103,1124,1144,1163,1184,1203,1224],"xSR":741.5,"ySR":469.95,"xT1":424.9,"yT1":0,"xT2":1058.1,"yT2":0,"toosoon":0,"cond_shown":"equaldotanddens","ratio_trial":250,"smaller_num":"2","larger_num":"8","correct_side":1,"subjID":"julianandresherrera7","gender":"0","age":"9","school":"4"},{"start_time":1552313867947,"click_time":1552313869275,"finger_time":1552313868796,"fix_duration":250,"trial":46,"RT":849,"MT":479,"sideResp":2,"stimulus":"img/900/equaldotanddens/R/5_Ratio_900_L_9_R_10.png","xmouse":[785,785,785,785,785,784,784,784,784,784,784,784,784,784,784,784,784,784,784,784,784,784,784,784,784,784,784,784,784,784,784,784,784,784,784,784,784,784,784,784,786,788,807,818,829,839,855,862,868,876,884,899,914,926,937,953,979,991,1000,1010,1017,1028,1036,1043,1048,1053,1064],"ymouse":[517,517,517,517,517,517,517,517,517,517,517,517,517,517,517,517,517,517,517,517,517,517,517,517,517,517,517,517,517,517,517,517,517,517,517,517,517,517,517,513,507,502,463,448,432,415,371,347,324,302,284,252,230,214,197,180,151,139,130,123,118,110,103,97,94,90,82],"timestamp_mouse":[10,28,48,68,88,108,128,148,168,188,209,230,249,269,288,308,328,350,368,389,409,430,449,468,488,509,530,550,569,588,608,628,648,668,688,709,728,748,769,789,809,828,849,868,888,909,929,948,968,989,1009,1029,1048,1068,1089,1108,1128,1149,1169,1188,1208,1229,1248,1268,1288,1308,1328],"xSR":741.5,"ySR":469.95,"xT1":424.9,"yT1":0,"xT2":1058.1,"yT2":0,"toosoon":0,"cond_shown":"equaldotanddens","ratio_trial":900,"smaller_num":"9","larger_num":"10","correct_side":2,"subjID":"julianandresherrera7","gender":"0","age":"9","school":"4"},{"start_time":1552313871828,"click_time":1552313873075,"finger_time":1552313872475,"fix_duration":1050.3833217050171,"trial":47,"RT":647,"MT":600,"sideResp":1,"stimulus":"img/750/equaldotsize/L/9_Ratio_750_L_4_R_3.png","xmouse":[748,748,748,748,748,748,748,748,748,748,748,748,748,748,749,749,749,749,749,749,749,749,749,749,749,749,749,749,749,749,749,748,733,713,687,660,628,573,541,526,517,509,494,485,482,480,478,472,470,469,469,470,471,471,472,474,476,483,487,487,487,487,487],"ymouse":[507,507,507,507,507,507,507,507,507,507,507,508,508,508,509,509,509,510,511,511,511,511,511,511,511,511,511,511,511,511,511,511,497,480,461,438,409,363,335,323,314,303,284,274,265,246,227,200,192,183,178,174,167,164,160,152,145,128,116,111,106,100,89],"timestamp_mouse":[9,28,59,67,89,107,128,149,168,187,209,228,247,269,287,307,328,347,368,387,409,427,448,469,487,508,528,549,567,588,608,628,647,668,687,707,727,747,769,787,807,827,847,869,888,907,927,948,968,987,1007,1027,1048,1067,1087,1107,1127,1147,1167,1187,1209,1229,1247],"xSR":741.5,"ySR":469.95,"xT1":424.9,"yT1":0,"xT2":1058.1,"yT2":0,"toosoon":0,"cond_shown":"equaldotsize","ratio_trial":750,"smaller_num":"3","larger_num":"4","correct_side":1,"subjID":"julianandresherrera7","gender":"0","age":"9","school":"4"},{"start_time":1552313874738,"click_time":1552313876075,"finger_time":1552313874777,"fix_duration":921.694841847963,"trial":48,"RT":39,"MT":1298,"sideResp":1,"stimulus":"img/750/equaldotsize/L/8_Ratio_750_L_4_R_3.png","xmouse":[743,739,738,737,737,737,737,737,737,737,737,737,737,737,737,737,737,737,737,737,737,737,737,737,737,737,737,737,737,737,737,736,736,735,734,731,721,718,713,709,698,672,661,658,655,652,643,637,632,628,623,614,609,608,605,599,577,557,545,538,537,536,535,532,523,510,490],"ymouse":[496,492,491,490,490,490,490,490,490,490,490,490,490,490,490,490,490,490,490,490,490,490,490,490,490,490,490,490,490,490,490,489,487,485,482,479,468,463,456,448,433,406,396,392,388,382,366,357,346,335,326,305,293,285,275,261,224,191,165,152,150,149,147,139,127,108,81],"timestamp_mouse":[19,39,58,78,98,117,137,158,177,198,219,238,258,277,297,317,338,357,377,398,417,438,457,477,498,519,537,558,578,597,618,638,657,677,699,717,737,758,779,798,818,837,858,877,897,917,937,957,978,997,1017,1038,1057,1077,1098,1119,1138,1157,1178,1197,1218,1237,1258,1277,1298,1317,1337],"xSR":741.5,"ySR":469.95,"xT1":424.9,"yT1":0,"xT2":1058.1,"yT2":0,"toosoon":0,"cond_shown":"equaldotsize","ratio_trial":750,"smaller_num":"3","larger_num":"4","correct_side":1,"subjID":"julianandresherrera7","gender":"0","age":"9","school":"4"},{"start_time":1552313877068,"click_time":1552313878415,"finger_time":1552313877836,"fix_duration":250,"trial":49,"RT":768,"MT":579,"sideResp":1,"stimulus":"img/250/equaldotanddens/L/14_Ratio_250_L_12_R_3.png","xmouse":[792,792,792,792,792,792,792,792,792,792,792,792,792,792,792,792,792,792,792,792,792,792,792,792,792,792,792,792,792,792,792,792,792,790,788,779,770,752,737,727,701,689,679,668,657,637,628,623,618,612,598,592,588,586,584,582,582,582,582,579,565,556,547,540,535,525,519,516],"ymouse":[500,500,500,500,500,500,500,500,500,500,500,500,500,500,500,500,500,500,500,500,500,500,500,500,500,500,500,500,500,500,500,500,500,501,501,501,497,487,479,473,452,440,429,416,402,376,365,357,350,343,327,316,311,308,304,285,272,258,242,223,188,171,153,139,128,111,101,95],"timestamp_mouse":[9,37,48,67,87,108,128,148,168,188,208,228,248,267,287,307,328,347,368,388,407,427,449,467,488,507,528,547,567,588,607,628,649,668,688,707,728,747,768,788,807,827,847,868,887,908,927,947,967,987,1007,1027,1047,1068,1087,1107,1129,1147,1167,1187,1207,1228,1248,1267,1288,1308,1328,1347],"xSR":741.5,"ySR":469.95,"xT1":424.9,"yT1":0,"xT2":1058.1,"yT2":0,"toosoon":0,"cond_shown":"equaldotanddens","ratio_trial":250,"smaller_num":"3","larger_num":"12","correct_side":1,"subjID":"julianandresherrera7","gender":"0","age":"9","school":"4"},{"start_time":1552313880779,"click_time":1552313882175,"finger_time":1552313881695,"fix_duration":1081.9235803154013,"trial":50,"RT":916,"MT":480,"sideResp":2,"stimulus":"img/750/equaldotanddens/R/11_Ratio_750_L_12_R_16.png","xmouse":[798,798,798,798,798,798,798,798,798,798,798,798,798,798,798,798,798,798,798,798,798,798,798,798,798,798,798,798,798,798,798,798,798,798,798,798,798,798,798,798,798,798,798,801,816,837,862,892,908,931,943,948,954,960,972,978,984,989,992,996,997,998,1000,1002,1006,1009,1016,1025,1037,1059],"ymouse":[528,528,528,528,528,528,528,528,528,528,528,528,528,528,528,528,528,528,528,528,528,528,528,528,528,528,528,528,528,528,528,528,528,528,528,528,528,528,528,528,528,528,528,524,497,469,435,402,382,345,321,307,291,278,246,230,217,199,187,173,166,161,156,151,140,131,119,105,91,66],"timestamp_mouse":[18,39,58,76,97,116,137,158,177,198,217,238,257,276,297,316,337,358,377,397,418,438,456,477,498,517,537,557,576,598,616,636,657,677,696,718,736,758,776,796,817,836,858,877,896,916,936,956,977,997,1018,1036,1056,1076,1096,1116,1137,1157,1177,1196,1217,1236,1257,1277,1296,1317,1337,1358,1377,1396],"xSR":741.5,"ySR":469.95,"xT1":424.9,"yT1":0,"xT2":1058.1,"yT2":0,"toosoon":0,"cond_shown":"equaldotanddens","ratio_trial":750,"smaller_num":"12","larger_num":"16","correct_side":2,"subjID":"julianandresherrera7","gender":"0","age":"9","school":"4"},{"start_time":1552313883229,"click_time":1552313884855,"finger_time":1552313883396,"fix_duration":250,"trial":51,"RT":167,"MT":1459,"sideResp":2,"stimulus":"img/500/equaldotanddens/R/3_Ratio_500_L_10_R_20.png","xmouse":[809,807,803,801,799,797,792,750,734,717,710,701,690,686,683,681,680,680,680,680,680,680,680,680,680,680,680,680,680,680,680,681,683,684,687,696,709,741,759,767,776,785,806,816,828,840,851,875,881,884,887,888,900,911,930,951,971,1004,1019,1027,1031,1033,1036,1037,1038,1040,1041,1048,1048,1051,1053,1057,1065,1069,1076,1079,1082,1087,1092,1095,1099,1101],"ymouse":[516,518,522,523,524,525,526,532,535,537,539,540,540,540,540,540,541,541,541,541,541,541,541,541,541,541,541,541,541,541,541,541,541,541,534,517,504,468,444,429,415,401,377,367,359,352,346,332,326,321,315,309,294,283,269,255,242,223,213,209,207,205,202,200,198,194,189,174,171,167,163,158,147,143,135,130,125,118,111,106,100,95],"timestamp_mouse":[7,26,53,66,87,106,127,146,167,186,206,226,247,266,286,308,327,348,366,387,407,427,447,467,486,507,526,546,566,587,607,627,646,666,687,706,727,746,767,786,807,828,846,866,887,907,926,947,966,986,1006,1026,1046,1067,1087,1107,1126,1146,1167,1186,1207,1227,1246,1268,1288,1308,1328,1346,1366,1386,1407,1426,1446,1466,1486,1507,1527,1546,1567,1586,1608,1626],"xSR":741.5,"ySR":469.95,"xT1":424.9,"yT1":0,"xT2":1058.1,"yT2":0,"toosoon":0,"cond_shown":"equaldotanddens","ratio_trial":500,"smaller_num":"10","larger_num":"20","correct_side":2,"subjID":"julianandresherrera7","gender":"0","age":"9","school":"4"},{"start_time":1552313886417,"click_time":1552313887636,"finger_time":1552313887355,"fix_duration":539.8217011478972,"trial":52,"RT":938,"MT":281,"sideResp":2,"stimulus":"img/500/equaldotanddens/R/2_Ratio_500_L_3_R_6.png","xmouse":[772,772,772,772,772,772,772,772,772,772,772,772,772,772,772,772,772,772,772,772,772,772,772,772,772,772,772,772,772,772,772,772,772,772,772,772,772,772,772,772,772,772,772,772,772,793,814,857,912,928,945,959,970,986,997,1006,1017,1029,1046,1051,1056,1065],"ymouse":[522,522,522,522,522,522,522,522,522,522,522,522,522,522,522,522,522,522,522,522,522,522,522,522,522,522,522,522,522,522,522,522,522,522,522,522,522,522,522,522,522,522,522,522,522,512,500,475,416,392,368,342,321,290,271,252,231,208,155,137,106,78],"timestamp_mouse":[1,19,42,58,78,99,120,138,159,178,200,220,240,259,279,299,319,339,358,379,400,418,438,458,480,498,519,538,558,578,599,618,637,658,678,697,718,737,758,777,798,817,838,857,878,898,917,938,958,978,997,1018,1038,1057,1077,1097,1117,1138,1157,1177,1197,1218],"xSR":741.5,"ySR":469.95,"xT1":424.9,"yT1":0,"xT2":1058.1,"yT2":0,"toosoon":0,"cond_shown":"equaldotanddens","ratio_trial":500,"smaller_num":"3","larger_num":"6","correct_side":2,"subjID":"julianandresherrera7","gender":"0","age":"9","school":"4"},{"start_time":1552313891544,"click_time":1552313892775,"finger_time":1552313892375,"fix_duration":269.8206750904659,"trial":53,"RT":831,"MT":400,"sideResp":2,"stimulus":"img/750/randomdotsizeEA/R/11_Ratio_750_L_12_R_16.png","xmouse":[782,782,782,782,782,782,782,782,782,782,782,782,782,782,782,782,782,782,782,782,782,782,782,782,782,782,782,782,782,782,782,782,782,782,782,782,782,782,787,793,807,848,865,884,905,921,948,958,968,978,988,1003,1010,1022,1030,1038,1058,1070,1077,1083,1088,1098],"ymouse":[516,516,516,516,516,516,516,516,516,516,516,516,516,516,516,516,516,516,516,516,516,516,516,516,516,516,516,516,516,516,516,516,516,516,516,516,516,516,515,510,494,446,426,404,380,361,319,297,279,264,249,229,222,207,198,184,154,138,122,110,102,89],"timestamp_mouse":[10,43,50,70,91,110,131,150,171,190,210,231,250,270,290,310,331,350,370,391,411,431,450,470,490,510,530,551,571,590,611,630,651,670,691,710,730,750,771,790,810,831,851,870,890,910,930,950,970,990,1010,1030,1050,1070,1091,1110,1131,1151,1171,1191,1210,1230],"xSR":741.5,"ySR":469.95,"xT1":424.9,"yT1":0,"xT2":1058.1,"yT2":0,"toosoon":0,"cond_shown":"randomdotsizeEA","ratio_trial":750,"smaller_num":"12","larger_num":"16","correct_side":2,"subjID":"julianandresherrera7","gender":"0","age":"9","school":"4"},{"start_time":1552313894339,"click_time":1552313895635,"finger_time":1552313895474,"fix_duration":623.9387937353387,"trial":54,"RT":1135,"MT":161,"sideResp":2,"stimulus":"img/750/equaldotsize/R/12_Ratio_750_L_3_R_4.png","xmouse":[786,786,786,786,786,786,786,786,786,786,786,786,786,786,786,786,786,786,786,786,786,786,786,786,786,786,786,786,786,786,786,786,786,786,786,786,786,786,786,786,786,786,786,786,786,786,786,786,786,786,786,786,786,789,794,810,864,907,954,994,1026,1079,1102,1114,1122],"ymouse":[519,519,519,519,519,519,519,519,519,519,519,519,519,519,519,519,519,519,519,519,519,519,519,519,519,519,519,519,519,519,519,519,519,519,519,519,519,519,519,519,519,519,519,519,519,519,519,519,519,519,519,519,519,515,509,491,432,392,345,297,257,187,143,117,95],"timestamp_mouse":[15,45,55,76,95,116,137,156,175,196,215,236,255,275,297,316,335,356,375,396,416,436,456,476,495,516,536,555,576,595,615,635,657,676,695,715,736,756,776,796,816,836,856,875,895,915,935,955,976,995,1015,1036,1055,1075,1096,1115,1135,1155,1175,1197,1216,1235,1256,1275,1296],"xSR":741.5,"ySR":469.95,"xT1":424.9,"yT1":0,"xT2":1058.1,"yT2":0,"toosoon":0,"cond_shown":"equaldotsize","ratio_trial":750,"smaller_num":"3","larger_num":"4","correct_side":2,"subjID":"julianandresherrera7","gender":"0","age":"9","school":"4"},{"start_time":1552313897719,"click_time":1552313898915,"finger_time":1552313898554,"fix_duration":823.7185093276535,"trial":55,"RT":835,"MT":361,"sideResp":2,"stimulus":"img/900/equaldotsize/R/7_Ratio_900_L_9_R_10.png","xmouse":[776,776,776,776,776,776,776,776,776,776,776,776,776,776,776,776,776,776,776,776,776,776,776,776,776,776,776,776,776,776,776,776,776,776,776,776,776,776,777,788,822,866,958,995,1027,1037,1044,1053,1055,1057,1057,1059,1060,1061,1063,1063,1063,1063,1063,1063],"ymouse":[563,563,563,563,563,563,563,563,563,563,563,563,563,563,563,563,563,563,563,563,563,563,563,563,563,563,563,563,563,563,563,563,563,563,563,563,563,563,556,534,494,452,362,319,268,244,224,193,187,181,177,172,154,147,141,133,125,111,104,97],"timestamp_mouse":[16,39,55,75,96,116,136,156,176,195,216,236,256,277,296,315,335,356,376,396,416,437,456,476,495,515,535,555,576,595,615,635,657,675,696,716,735,755,776,795,816,835,855,876,895,915,935,955,975,995,1016,1036,1056,1075,1095,1116,1135,1155,1175,1196],"xSR":741.5,"ySR":469.95,"xT1":424.9,"yT1":0,"xT2":1058.1,"yT2":0,"toosoon":0,"cond_shown":"equaldotsize","ratio_trial":900,"smaller_num":"9","larger_num":"10","correct_side":2,"subjID":"julianandresherrera7","gender":"0","age":"9","school":"4"},{"start_time":1552313901156,"click_time":1552313902414,"finger_time":1552313901874,"fix_duration":1237.3381036581666,"trial":56,"RT":718,"MT":540,"sideResp":2,"stimulus":"img/500/equaldotanddens/R/2_Ratio_500_L_3_R_6.png","xmouse":[799,799,799,799,799,799,799,799,799,799,799,799,799,799,799,799,799,799,799,799,799,799,799,799,799,799,799,799,799,799,799,799,799,804,816,831,876,904,924,943,959,977,980,981,983,988,994,998,1004,1011,1016,1026,1032,1037,1048,1059,1085,1097,1105,1108,1110,1111,1112,1113],"ymouse":[514,514,514,514,514,514,514,514,514,514,514,514,514,514,514,514,514,514,514,514,514,514,514,514,514,514,514,514,514,514,514,514,515,513,507,497,459,430,408,388,370,348,344,341,338,329,317,308,297,286,277,259,245,233,216,196,158,142,126,119,113,107,100,95],"timestamp_mouse":[1,18,38,59,79,98,119,138,159,178,198,218,240,258,278,299,319,339,359,379,398,419,438,458,479,498,519,538,559,579,599,618,639,658,678,700,718,738,758,778,798,819,838,858,878,898,918,938,958,978,998,1018,1038,1058,1078,1098,1118,1139,1160,1180,1199,1218,1239,1258],"xSR":741.5,"ySR":469.95,"xT1":424.9,"yT1":0,"xT2":1058.1,"yT2":0,"toosoon":0,"cond_shown":"equaldotanddens","ratio_trial":500,"smaller_num":"3","larger_num":"6","correct_side":2,"subjID":"julianandresherrera7","gender":"0","age":"9","school":"4"},{"start_time":1552313905126,"click_time":1552313906514,"finger_time":1552313905915,"fix_duration":250,"trial":57,"RT":789,"MT":599,"sideResp":1,"stimulus":"img/250/equaldotanddens/L/5_Ratio_250_L_24_R_6.png","xmouse":[790,790,790,790,790,790,790,790,790,790,790,790,790,790,790,790,790,790,790,790,790,790,790,790,790,790,790,790,790,790,790,790,790,790,790,790,786,779,772,765,756,745,723,713,699,687,678,652,644,643,642,641,638,636,631,625,614,602,597,592,587,582,573,567,558,551,545,531,525,519],"ymouse":[500,500,500,500,500,50