[{"start_time":1552327333889,"click_time":1552327336039,"finger_time":1552327335698,"fix_duration":265.4537046728489,"trial":0,"RT":1809,"MT":341,"sideResp":1,"stimulus":[],"xmouse":[797,797,797,797,797,797,797,797,797,797,797,797,797,797,797,797,797,797,797,797,797,797,797,797,797,797,797,796,796,796,796,796,796,796,795,795,795,795,795,795,795,795,795,795,795,795,795,795,795,795,795,795,795,795,795,795,795,795,795,795,795,795,795,795,795,795,795,795,795,795,795,795,795,795,795,795,795,795,795,795,795,795,795,795,795,794,792,791,777,758,724,665,547,514,499,494,492,492,497,500,502,503,504,505,505,504,498,489],"ymouse":[499,499,499,499,499,499,499,499,499,499,499,499,499,499,499,499,499,500,500,500,500,500,500,500,500,500,501,501,501,502,502,502,502,502,502,502,502,502,502,502,502,502,502,502,502,502,502,502,502,502,502,502,502,502,502,502,502,502,502,502,502,502,502,502,502,502,502,502,502,502,502,502,502,502,502,502,502,502,502,502,502,502,502,502,502,502,502,500,490,475,449,403,299,269,249,230,213,198,173,162,151,143,140,134,129,122,110,98],"timestamp_mouse":[9,38,49,68,88,109,129,149,170,188,209,229,250,268,290,309,329,350,370,390,409,428,450,469,488,509,529,549,569,590,609,629,650,668,688,709,730,749,768,789,808,828,849,869,890,908,929,948,968,989,1009,1030,1050,1069,1088,1110,1129,1149,1168,1189,1209,1228,1250,1269,1290,1310,1329,1348,1369,1390,1410,1430,1448,1469,1490,1509,1528,1550,1568,1590,1610,1630,1649,1669,1689,1709,1729,1748,1769,1789,1809,1828,1851,1868,1889,1909,1930,1948,1968,1989,2008,2028,2050,2069,2088,2108,2129,2149],"xSR":741.5,"ySR":469.95,"xT1":424.9,"yT1":0,"xT2":1058.1,"yT2":0,"toosoon":0,"cond_shown":"Incongruent","ratio_trial":200,"L_num":4,"L_den":6,"R_num":14,"R_den":30,"correct_side":1,"subjID":"JulianDavidRoaSanchez22","gender":"0","age":"9","school":"4","test":{"fix_dur":[250,1500],"timestim":1000,"targets_dim":[100,100],"targets_relative_coord":[0.3,0.7],"size_stim":[880,420],"start_dim":[100,100],"size_start":[300,300],"size_fix":60,"samplingrate":20,"img_types":["Congruent","Incongruent"],"ratios":[100,200,300],"rep_conds":19,"nTrials":120,"trials_to_rest":500,"Trials_order":[15,26,77,35,69,20,112,14,47,87,66,106,102,57,27,13,74,1,42,43,81,84,22,59,61,41,23,3,36,64,51,62,67,9,75,17,56,115,33,104,117,95,7,28,63,105,21,65,52,108,86,45,34,73,90,49,18,71,97,82,30,48,72,68,114,53,40,100,96,58,6,98,119,37,25,24,50,107,10,11,44,111,88,70,101,60,92,89,5,79,8,4,12,39,54,113,29,116,80,85,32,118,55,2,0,93,99,38,78,46,83,110,94,91,76,16,109,19,103,31],"cond_shown":["Incongruent","Congruent","Incongruent","Incongruent","Incongruent","Congruent","Congruent","Congruent","Incongruent","Incongruent","Congruent","Congruent","Congruent","Incongruent","Incongruent","Incongruent","Congruent","Incongruent","Congruent","Incongruent","Incongruent","Congruent","Congruent","Incongruent","Incongruent","Incongruent","Incongruent","Incongruent","Congruent","Congruent","Incongruent","Congruent","Incongruent","Incongruent","Incongruent","Incongruent","Congruent","Incongruent","Incongruent","Congruent","Incongruent","Incongruent","Incongruent","Congruent","Incongruent","Incongruent","Incongruent","Incongruent","Congruent","Congruent","Congruent","Incongruent","Congruent","Incongruent","Congruent","Incongruent","Congruent","Incongruent","Incongruent","Congruent","Congruent","Congruent","Congruent","Congruent","Congruent","Incongruent","Congruent","Congruent","Congruent","Congruent","Congruent","Congruent","Incongruent","Incongruent","Incongruent","Congruent","Congruent","Incongruent","Congruent","Incongruent","Congruent","Incongruent","Congruent","Congruent","Incongruent","Congruent","Congruent","Incongruent","Incongruent","Incongruent","Congruent","Congruent","Congruent","Incongruent","Congruent","Incongruent","Incongruent","Congruent","Congruent","Incongruent","Congruent","Congruent","Incongruent","Congruent","Congruent","Incongruent","Incongruent","Congruent","Congruent","Congruent","Incongruent","Congruent","Congruent","Incongruent","Congruent","Congruent","Incongruent","Incongruent","Incongruent","Incongruent"],"ratio_trial":[200,200,300,300,200,200,300,200,300,200,100,300,100,200,200,100,200,100,100,100,200,100,300,300,100,300,300,200,100,300,200,200,100,200,200,300,200,100,200,200,200,300,100,300,200,200,200,300,300,100,200,200,300,100,100,100,100,300,100,300,100,100,100,200,100,300,300,300,100,300,100,200,300,100,100,100,200,300,300,300,200,200,300,300,300,100,200,300,300,100,200,300,100,200,100,300,300,200,200,100,200,300,100,200,100,200,200,200,100,300,300,200,300,100,300,300,100,100,100,100],"left_num":[4,1,4,13,14,15,5,4,13,7,6,1,11,7,7,6,6,6,2,3,11,12,8,13,6,1,13,7,11,4,9,4,11,7,4,8,9,4,4,20,7,3,1,24,9,7,7,3,4,15,4,7,11,6,9,8,2,13,10,5,7,8,4,8,3,7,24,11,6,1,11,4,13,12,12,4,3,13,3,13,15,11,2,5,2,10,7,13,13,2,6,3,6,6,7,8,13,3,3,1,3,3,13,12,4,11,7,6,15,20,4,9,3,1,5,20,9,9,1,6],"right_num":[14,21,2,12,12,4,6,3,12,14,15,7,4,4,8,3,11,3,11,4,3,13,1,12,11,2,12,8,6,13,8,3,9,6,6,9,13,8,6,9,6,4,8,8,8,14,6,4,2,13,3,6,1,11,8,1,6,12,8,7,9,2,6,2,2,8,2,1,5,8,4,3,12,9,9,6,7,12,2,12,4,3,12,6,6,3,18,12,12,8,11,11,5,3,15,9,12,11,11,8,9,2,12,6,6,3,4,7,13,13,2,13,11,8,7,8,14,6,8,11],"left_den":[6,2,20,26,30,25,25,8,26,10,12,20,22,15,10,12,20,12,5,6,20,30,16,26,10,2,26,10,22,20,15,10,22,15,5,10,30,8,5,25,15,6,2,30,15,10,15,6,5,25,8,15,22,10,15,20,5,26,25,25,14,16,8,15,6,10,30,22,20,30,22,10,26,24,24,8,10,26,6,26,25,20,10,25,4,25,15,26,26,4,20,12,20,20,14,10,26,10,10,2,12,6,26,15,8,20,15,12,25,25,20,30,12,2,25,25,15,18,2,10],"right_den":[30,30,4,15,18,10,12,10,15,28,25,20,10,6,16,5,22,5,22,10,4,26,5,15,22,10,15,16,15,26,10,15,15,9,10,18,26,20,10,15,9,20,20,16,10,28,9,20,4,26,10,9,5,22,16,2,12,15,16,14,15,5,10,6,5,20,4,5,25,24,10,15,15,15,15,10,14,15,10,15,10,4,24,12,30,10,27,15,15,20,22,20,25,6,25,18,15,22,22,20,20,10,20,10,10,4,6,10,26,26,4,26,20,20,14,16,28,10,20,22],"correct_side":[1,2,2,2,2,1,2,1,2,1,2,2,1,2,1,2,2,2,2,1,2,2,1,2,1,1,2,1,1,2,2,1,2,2,1,1,2,1,1,1,2,1,1,1,2,1,2,1,1,1,1,2,1,1,1,2,2,2,2,2,2,1,2,1,1,1,1,1,1,2,1,1,2,2,2,2,2,2,1,2,1,2,2,2,1,1,2,2,2,1,2,2,1,2,2,1,2,2,2,1,2,1,2,1,2,2,2,2,1,1,2,2,2,1,2,1,1,2,1,1],"img_shown":["img2/200/Incongruent/L/I_Dist_200_LN_4_LD_6_RN_14_RD_30_0.png","img2/200/Congruent/R/C_Dist_200_LN_1_LD_2_RN_21_RD_30_1.png","img2/300/Incongruent/R/I_Dist_300_LN_4_LD_20_RN_2_RD_4_1.png","img2/300/Incongruent/R/I_Dist_300_LN_13_LD_26_RN_12_RD_15_1.png","img2/200/Incongruent/R/I_Dist_200_LN_14_LD_30_RN_12_RD_18_1.png","img2/200/Congruent/L/C_Dist_200_LN_15_LD_25_RN_4_RD_10_0.png","img2/300/Congruent/R/C_Dist_300_LN_5_LD_25_RN_6_RD_12_1.png","img2/200/Congruent/L/C_Dist_200_LN_4_LD_8_RN_3_RD_10_0.png","img2/300/Incongruent/R/I_Dist_300_LN_13_LD_26_RN_12_RD_15_1.png","img2/200/Incongruent/L/I_Dist_200_LN_7_LD_10_RN_14_RD_28_0.png","img2/100/Congruent/R/C_Dist_100_LN_6_LD_12_RN_15_RD_25_1.png","img2/300/Congruent/R/C_Dist_300_LN_1_LD_20_RN_7_RD_20_1.png","img2/100/Congruent/L/C_Dist_100_LN_11_LD_22_RN_4_RD_10_0.png","img2/200/Incongruent/R/I_Dist_200_LN_7_LD_15_RN_4_RD_6_1.png","img2/200/Incongruent/L/I_Dist_200_LN_7_LD_10_RN_8_RD_16_0.png","img2/100/Incongruent/R/I_Dist_100_LN_6_LD_12_RN_3_RD_5_1.png","img2/200/Congruent/R/C_Dist_200_LN_6_LD_20_RN_11_RD_22_1.png","img2/100/Incongruent/R/I_Dist_100_LN_6_LD_12_RN_3_RD_5_1.png","img2/100/Congruent/R/C_Dist_100_LN_2_LD_5_RN_11_RD_22_1.png","img2/100/Incongruent/L/I_Dist_100_LN_3_LD_6_RN_4_RD_10_0.png","img2/200/Incongruent/R/I_Dist_200_LN_11_LD_20_RN_3_RD_4_1.png","img2/100/Congruent/R/C_Dist_100_LN_12_LD_30_RN_13_RD_26_1.png","img2/300/Congruent/L/C_Dist_300_LN_8_LD_16_RN_1_RD_5_0.png","img2/300/Incongruent/R/I_Dist_300_LN_13_LD_26_RN_12_RD_15_1.png","img2/100/Incongruent/L/I_Dist_100_LN_6_LD_10_RN_11_RD_22_0.png","img2/300/Incongruent/L/I_Dist_300_LN_1_LD_2_RN_2_RD_10_0.png","img2/300/Incongruent/R/I_Dist_300_LN_13_LD_26_RN_12_RD_15_1.png","img2/200/Incongruent/L/I_Dist_200_LN_7_LD_10_RN_8_RD_16_0.png","img2/100/Congruent/L/C_Dist_100_LN_11_LD_22_RN_6_RD_15_0.png","img2/300/Congruent/R/C_Dist_300_LN_4_LD_20_RN_13_RD_26_1.png","img2/200/Incongruent/R/I_Dist_200_LN_9_LD_15_RN_8_RD_10_1.png","img2/200/Congruent/L/C_Dist_200_LN_4_LD_10_RN_3_RD_15_0.png","img2/100/Incongruent/R/I_Dist_100_LN_11_LD_22_RN_9_RD_15_1.png","img2/200/Incongruent/R/I_Dist_200_LN_7_LD_15_RN_6_RD_9_1.png","img2/200/Incongruent/L/I_Dist_200_LN_4_LD_5_RN_6_RD_10_0.png","img2/300/Incongruent/L/I_Dist_300_LN_8_LD_10_RN_9_RD_18_0.png","img2/200/Congruent/R/C_Dist_200_LN_9_LD_30_RN_13_RD_26_1.png","img2/100/Incongruent/L/I_Dist_100_LN_4_LD_8_RN_8_RD_20_0.png","img2/200/Incongruent/L/I_Dist_200_LN_4_LD_5_RN_6_RD_10_0.png","img2/200/Congruent/L/C_Dist_200_LN_20_LD_25_RN_9_RD_15_0.png","img2/200/Incongruent/R/I_Dist_200_LN_7_LD_15_RN_6_RD_9_1.png","img2/300/Incongruent/L/I_Dist_300_LN_3_LD_6_RN_4_RD_20_0.png","img2/100/Incongruent/L/I_Dist_100_LN_1_LD_2_RN_8_RD_20_0.png","img2/300/Congruent/L/C_Dist_300_LN_24_LD_30_RN_8_RD_16_0.png","img2/200/Incongruent/R/I_Dist_200_LN_9_LD_15_RN_8_RD_10_1.png","img2/200/Incongruent/L/I_Dist_200_LN_7_LD_10_RN_14_RD_28_0.png","img2/200/Incongruent/R/I_Dist_200_LN_7_LD_15_RN_6_RD_9_1.png","img2/300/Incongruent/L/I_Dist_300_LN_3_LD_6_RN_4_RD_20_0.png","img2/300/Congruent/L/C_Dist_300_LN_4_LD_5_RN_2_RD_4_0.png","img2/100/Congruent/L/C_Dist_100_LN_15_LD_25_RN_13_RD_26_0.png","img2/200/Congruent/L/C_Dist_200_LN_4_LD_8_RN_3_RD_10_0.png","img2/200/Incongruent/R/I_Dist_200_LN_7_LD_15_RN_6_RD_9_1.png","img2/300/Congruent/L/C_Dist_300_LN_11_LD_22_RN_1_RD_5_0.png","img2/100/Incongruent/L/I_Dist_100_LN_6_LD_10_RN_11_RD_22_0.png","img2/100/Congruent/L/C_Dist_100_LN_9_LD_15_RN_8_RD_16_0.png","img2/100/Incongruent/R/I_Dist_100_LN_8_LD_20_RN_1_RD_2_1.png","img2/100/Congruent/R/C_Dist_100_LN_2_LD_5_RN_6_RD_12_1.png","img2/300/Incongruent/R/I_Dist_300_LN_13_LD_26_RN_12_RD_15_1.png","img2/100/Incongruent/R/I_Dist_100_LN_10_LD_25_RN_8_RD_16_1.png","img2/300/Congruent/R/C_Dist_300_LN_5_LD_25_RN_7_RD_14_1.png","img2/100/Congruent/R/C_Dist_100_LN_7_LD_14_RN_9_RD_15_1.png","img2/100/Congruent/L/C_Dist_100_LN_8_LD_16_RN_2_RD_5_0.png","img2/100/Congruent/R/C_Dist_100_LN_4_LD_8_RN_6_RD_10_1.png","img2/200/Congruent/L/C_Dist_200_LN_8_LD_15_RN_2_RD_6_0.png","img2/100/Congruent/L/C_Dist_100_LN_3_LD_6_RN_2_RD_5_0.png","img2/300/Incongruent/L/I_Dist_300_LN_7_LD_10_RN_8_RD_20_0.png","img2/300/Congruent/L/C_Dist_300_LN_24_LD_30_RN_2_RD_4_0.png","img2/300/Congruent/L/C_Dist_300_LN_11_LD_22_RN_1_RD_5_0.png","img2/100/Congruent/L/C_Dist_100_LN_6_LD_20_RN_5_RD_25_0.png","img2/300/Congruent/R/C_Dist_300_LN_1_LD_30_RN_8_RD_24_1.png","img2/100/Congruent/L/C_Dist_100_LN_11_LD_22_RN_4_RD_10_0.png","img2/200/Congruent/L/C_Dist_200_LN_4_LD_10_RN_3_RD_15_0.png","img2/300/Incongruent/R/I_Dist_300_LN_13_LD_26_RN_12_RD_15_1.png","img2/100/Incongruent/R/I_Dist_100_LN_12_LD_24_RN_9_RD_15_1.png","img2/100/Incongruent/R/I_Dist_100_LN_12_LD_24_RN_9_RD_15_1.png","img2/100/Congruent/R/C_Dist_100_LN_4_LD_8_RN_6_RD_10_1.png","img2/200/Congruent/R/C_Dist_200_LN_3_LD_10_RN_7_RD_14_1.png","img2/300/Incongruent/R/I_Dist_300_LN_13_LD_26_RN_12_RD_15_1.png","img2/300/Congruent/L/C_Dist_300_LN_3_LD_6_RN_2_RD_10_0.png","img2/300/Incongruent/R/I_Dist_300_LN_13_LD_26_RN_12_RD_15_1.png","img2/200/Congruent/L/C_Dist_200_LN_15_LD_25_RN_4_RD_10_0.png","img2/200/Incongruent/R/I_Dist_200_LN_11_LD_20_RN_3_RD_4_1.png","img2/300/Congruent/R/C_Dist_300_LN_2_LD_10_RN_12_RD_24_1.png","img2/300/Congruent/R/C_Dist_300_LN_5_LD_25_RN_6_RD_12_1.png","img2/300/Incongruent/L/I_Dist_300_LN_2_LD_4_RN_6_RD_30_0.png","img2/100/Congruent/L/C_Dist_100_LN_10_LD_25_RN_3_RD_10_0.png","img2/200/Congruent/R/C_Dist_200_LN_7_LD_15_RN_18_RD_27_1.png","img2/300/Incongruent/R/I_Dist_300_LN_13_LD_26_RN_12_RD_15_1.png","img2/300/Incongruent/R/I_Dist_300_LN_13_LD_26_RN_12_RD_15_1.png","img2/100/Incongruent/L/I_Dist_100_LN_2_LD_4_RN_8_RD_20_0.png","img2/200/Congruent/R/C_Dist_200_LN_6_LD_20_RN_11_RD_22_1.png","img2/300/Congruent/R/C_Dist_300_LN_3_LD_12_RN_11_RD_20_1.png","img2/100/Congruent/L/C_Dist_100_LN_6_LD_20_RN_5_RD_25_0.png","img2/200/Incongruent/R/I_Dist_200_LN_6_LD_20_RN_3_RD_6_1.png","img2/100/Congruent/R/C_Dist_100_LN_7_LD_14_RN_15_RD_25_1.png","img2/300/Incongruent/L/I_Dist_300_LN_8_LD_10_RN_9_RD_18_0.png","img2/300/Incongruent/R/I_Dist_300_LN_13_LD_26_RN_12_RD_15_1.png","img2/200/Congruent/R/C_Dist_200_LN_3_LD_10_RN_11_RD_22_1.png","img2/200/Congruent/R/C_Dist_200_LN_3_LD_10_RN_11_RD_22_1.png","img2/100/Incongruent/L/I_Dist_100_LN_1_LD_2_RN_8_RD_20_0.png","img2/200/Congruent/R/C_Dist_200_LN_3_LD_12_RN_9_RD_20_1.png","img2/300/Congruent/L/C_Dist_300_LN_3_LD_6_RN_2_RD_10_0.png","img2/100/Incongruent/R/I_Dist_100_LN_13_LD_26_RN_12_RD_20_1.png","img2/200/Congruent/L/C_Dist_200_LN_12_LD_15_RN_6_RD_10_0.png","img2/100/Congruent/R/C_Dist_100_LN_4_LD_8_RN_6_RD_10_1.png","img2/200/Incongruent/R/I_Dist_200_LN_11_LD_20_RN_3_RD_4_1.png","img2/200/Incongruent/R/I_Dist_200_LN_7_LD_15_RN_4_RD_6_1.png","img2/200/Congruent/R/C_Dist_200_LN_6_LD_12_RN_7_RD_10_1.png","img2/100/Congruent/L/C_Dist_100_LN_15_LD_25_RN_13_RD_26_0.png","img2/300/Congruent/L/C_Dist_300_LN_20_LD_25_RN_13_RD_26_0.png","img2/300/Incongruent/R/I_Dist_300_LN_4_LD_20_RN_2_RD_4_1.png","img2/200/Congruent/R/C_Dist_200_LN_9_LD_30_RN_13_RD_26_1.png","img2/300/Congruent/R/C_Dist_300_LN_3_LD_12_RN_11_RD_20_1.png","img2/100/Incongruent/L/I_Dist_100_LN_1_LD_2_RN_8_RD_20_0.png","img2/300/Congruent/R/C_Dist_300_LN_5_LD_25_RN_7_RD_14_1.png","img2/300/Congruent/L/C_Dist_300_LN_20_LD_25_RN_8_RD_16_0.png","img2/100/Incongruent/L/I_Dist_100_LN_9_LD_15_RN_14_RD_28_0.png","img2/100/Incongruent/R/I_Dist_100_LN_9_LD_18_RN_6_RD_10_1.png","img2/100/Incongruent/L/I_Dist_100_LN_1_LD_2_RN_8_RD_20_0.png","img2/100/Incongruent/L/I_Dist_100_LN_6_LD_10_RN_11_RD_22_0.png"],"dist100_C":[["C_Dist_100_LN_10_LD_25_RN_3_RD_10_0.png","C_Dist_100_LN_11_LD_22_RN_4_RD_10_0.png","C_Dist_100_LN_11_LD_22_RN_6_RD_15_0.png","C_Dist_100_LN_15_LD_25_RN_13_RD_26_0.png","C_Dist_100_LN_3_LD_6_RN_2_RD_5_0.png","C_Dist_100_LN_6_LD_20_RN_5_RD_25_0.png","C_Dist_100_LN_8_LD_16_RN_2_RD_5_0.png","C_Dist_100_LN_9_LD_15_RN_8_RD_16_0.png"],["C_Dist_100_LN_1_LD_2_RN_18_RD_30_1.png","C_Dist_100_LN_1_LD_2_RN_3_RD_5_1.png","C_Dist_100_LN_12_LD_30_RN_13_RD_26_1.png","C_Dist_100_LN_2_LD_5_RN_11_RD_22_1.png","C_Dist_100_LN_2_LD_5_RN_6_RD_12_1.png","C_Dist_100_LN_3_LD_20_RN_4_RD_16_1.png","C_Dist_100_LN_4_LD_10_RN_15_RD_30_1.png","C_Dist_100_LN_4_LD_8_RN_6_RD_10_1.png","C_Dist_100_LN_6_LD_12_RN_15_RD_25_1.png","C_Dist_100_LN_7_LD_14_RN_15_RD_25_1.png","C_Dist_100_LN_7_LD_14_RN_9_RD_15_1.png"]],"dist100_I":[["I_Dist_100_LN_1_LD_2_RN_8_RD_20_0.png","I_Dist_100_LN_2_LD_4_RN_6_RD_15_0.png","I_Dist_100_LN_2_LD_4_RN_8_RD_20_0.png","I_Dist_100_LN_3_LD_5_RN_11_RD_22_0.png","I_Dist_100_LN_3_LD_5_RN_8_RD_16_0.png","I_Dist_100_LN_3_LD_6_RN_4_RD_10_0.png","I_Dist_100_LN_3_LD_9_RN_7_RD_30_0.png","I_Dist_100_LN_4_LD_8_RN_8_RD_20_0.png","I_Dist_100_LN_6_LD_10_RN_11_RD_22_0.png","I_Dist_100_LN_6_LD_10_RN_13_RD_26_0.png","I_Dist_100_LN_6_LD_10_RN_7_RD_14_0.png","I_Dist_100_LN_9_LD_10_RN_20_RD_25_0.png","I_Dist_100_LN_9_LD_15_RN_13_RD_26_0.png","I_Dist_100_LN_9_LD_15_RN_14_RD_28_0.png"],["I_Dist_100_LN_10_LD_25_RN_8_RD_16_1.png","I_Dist_100_LN_10_LD_25_RN_9_RD_18_1.png","I_Dist_100_LN_11_LD_22_RN_9_RD_15_1.png","I_Dist_100_LN_12_LD_24_RN_9_RD_15_1.png","I_Dist_100_LN_12_LD_30_RN_2_RD_4_1.png","I_Dist_100_LN_13_LD_26_RN_12_RD_20_1.png","I_Dist_100_LN_13_LD_26_RN_6_RD_10_1.png","I_Dist_100_LN_17_LD_30_RN_10_RD_15_1.png","I_Dist_100_LN_6_LD_12_RN_3_RD_5_1.png","I_Dist_100_LN_8_LD_16_RN_6_RD_10_1.png","I_Dist_100_LN_8_LD_20_RN_1_RD_2_1.png","I_Dist_100_LN_9_LD_18_RN_6_RD_10_1.png"]],"dist100_S":[["E_Dist_100_LN_2_LD_12_RN_2_RD_30_0.png","E_Dist_100_LN_6_LD_10_RN_6_RD_12_0.png"],["E_Dist_100_LN_6_LD_12_RN_6_RD_10_1.png"]],"dist200_C":[["C_Dist_200_LN_11_LD_22_RN_3_RD_10_0.png","C_Dist_200_LN_12_LD_15_RN_6_RD_10_0.png","C_Dist_200_LN_12_LD_20_RN_6_RD_15_0.png","C_Dist_200_LN_14_LD_28_RN_6_RD_20_0.png","C_Dist_200_LN_15_LD_25_RN_4_RD_10_0.png","C_Dist_200_LN_16_LD_20_RN_12_RD_20_0.png","C_Dist_200_LN_16_LD_30_RN_9_RD_27_0.png","C_Dist_200_LN_20_LD_25_RN_9_RD_15_0.png","C_Dist_200_LN_21_LD_30_RN_2_RD_4_0.png","C_Dist_200_LN_4_LD_10_RN_3_RD_15_0.png","C_Dist_200_LN_4_LD_8_RN_3_RD_10_0.png","C_Dist_200_LN_6_LD_15_RN_3_RD_15_0.png","C_Dist_200_LN_7_LD_21_RN_2_RD_15_0.png","C_Dist_200_LN_8_LD_15_RN_2_RD_6_0.png","C_Dist_200_LN_8_LD_15_RN_3_RD_9_0.png","C_Dist_200_LN_8_LD_15_RN_7_RD_21_0.png","C_Dist_200_LN_9_LD_20_RN_4_RD_16_0.png"],["C_Dist_200_LN_1_LD_2_RN_21_RD_30_1.png","C_Dist_200_LN_13_LD_26_RN_14_RD_20_1.png","C_Dist_200_LN_3_LD_10_RN_11_RD_22_1.png","C_Dist_200_LN_3_LD_10_RN_14_RD_28_1.png","C_Dist_200_LN_3_LD_10_RN_7_RD_14_1.png","C_Dist_200_LN_3_LD_12_RN_9_RD_20_1.png","C_Dist_200_LN_3_LD_6_RN_14_RD_20_1.png","C_Dist_200_LN_5_LD_10_RN_14_RD_20_1.png","C_Dist_200_LN_6_LD_12_RN_7_RD_10_1.png","C_Dist_200_LN_6_LD_20_RN_11_RD_22_1.png","C_Dist_200_LN_7_LD_15_RN_18_RD_27_1.png","C_Dist_200_LN_9_LD_30_RN_13_RD_26_1.png"]],"dist200_I":[["I_Dist_200_LN_1_LD_2_RN_3_RD_10_0.png","I_Dist_200_LN_1_LD_3_RN_2_RD_15_0.png","I_Dist_200_LN_3_LD_4_RN_11_RD_20_0.png","I_Dist_200_LN_4_LD_5_RN_6_RD_10_0.png","I_Dist_200_LN_4_LD_6_RN_14_RD_30_0.png","I_Dist_200_LN_7_LD_10_RN_12_RD_24_0.png","I_Dist_200_LN_7_LD_10_RN_14_RD_28_0.png","I_Dist_200_LN_7_LD_10_RN_8_RD_16_0.png"],["I_Dist_200_LN_11_LD_20_RN_3_RD_4_1.png","I_Dist_200_LN_14_LD_30_RN_12_RD_18_1.png","I_Dist_200_LN_14_LD_30_RN_6_RD_9_1.png","I_Dist_200_LN_3_LD_10_RN_1_RD_2_1.png","I_Dist_200_LN_4_LD_30_RN_1_RD_3_1.png","I_Dist_200_LN_6_LD_20_RN_3_RD_6_1.png","I_Dist_200_LN_7_LD_15_RN_4_RD_6_1.png","I_Dist_200_LN_7_LD_15_RN_6_RD_9_1.png","I_Dist_200_LN_9_LD_15_RN_8_RD_10_1.png"]],"dist200_S":[["E_Dist_200_LN_3_LD_6_RN_3_RD_10_0.png"],["E_Dist_200_LN_3_LD_10_RN_3_RD_6_1.png"]],"dist300_C":[["C_Dist_300_LN_11_LD_22_RN_1_RD_5_0.png","C_Dist_300_LN_11_LD_22_RN_2_RD_10_0.png","C_Dist_300_LN_11_LD_22_RN_4_RD_20_0.png","C_Dist_300_LN_12_LD_24_RN_2_RD_10_0.png","C_Dist_300_LN_18_LD_20_RN_9_RD_15_0.png","C_Dist_300_LN_20_LD_25_RN_13_RD_26_0.png","C_Dist_300_LN_20_LD_25_RN_14_RD_28_0.png","C_Dist_300_LN_20_LD_25_RN_5_RD_10_0.png","C_Dist_300_LN_20_LD_25_RN_8_RD_16_0.png","C_Dist_300_LN_20_LD_25_RN_9_RD_18_0.png","C_Dist_300_LN_24_LD_30_RN_2_RD_4_0.png","C_Dist_300_LN_24_LD_30_RN_8_RD_16_0.png","C_Dist_300_LN_3_LD_6_RN_2_RD_10_0.png","C_Dist_300_LN_4_LD_10_RN_1_RD_10_0.png","C_Dist_300_LN_4_LD_5_RN_2_RD_4_0.png","C_Dist_300_LN_8_LD_16_RN_1_RD_5_0.png","C_Dist_300_LN_9_LD_10_RN_3_RD_5_0.png"],["C_Dist_300_LN_1_LD_20_RN_7_RD_20_1.png","C_Dist_300_LN_1_LD_3_RN_19_RD_30_1.png","C_Dist_300_LN_1_LD_30_RN_8_RD_24_1.png","C_Dist_300_LN_1_LD_5_RN_11_RD_22_1.png","C_Dist_300_LN_1_LD_5_RN_3_RD_6_1.png","C_Dist_300_LN_1_LD_5_RN_6_RD_12_1.png","C_Dist_300_LN_2_LD_10_RN_12_RD_24_1.png","C_Dist_300_LN_2_LD_20_RN_10_RD_25_1.png","C_Dist_300_LN_3_LD_12_RN_11_RD_20_1.png","C_Dist_300_LN_3_LD_6_RN_4_RD_5_1.png","C_Dist_300_LN_4_LD_20_RN_13_RD_26_1.png","C_Dist_300_LN_5_LD_25_RN_6_RD_12_1.png","C_Dist_300_LN_5_LD_25_RN_7_RD_14_1.png","C_Dist_300_LN_7_LD_14_RN_20_RD_25_1.png","C_Dist_300_LN_8_LD_15_RN_10_RD_12_1.png"]],"dist300_I":[["I_Dist_300_LN_1_LD_2_RN_2_RD_10_0.png","I_Dist_300_LN_1_LD_2_RN_3_RD_15_0.png","I_Dist_300_LN_2_LD_4_RN_6_RD_30_0.png","I_Dist_300_LN_3_LD_6_RN_4_RD_20_0.png","I_Dist_300_LN_4_LD_5_RN_6_RD_12_0.png","I_Dist_300_LN_4_LD_5_RN_8_RD_16_0.png","I_Dist_300_LN_7_LD_10_RN_8_RD_20_0.png","I_Dist_300_LN_8_LD_10_RN_14_RD_28_0.png","I_Dist_300_LN_8_LD_10_RN_9_RD_18_0.png"],["I_Dist_300_LN_13_LD_26_RN_12_RD_15_1.png","I_Dist_300_LN_4_LD_20_RN_2_RD_4_1.png"]],"dist300_S":[["E_Dist_300_LN_9_LD_12_RN_9_RD_20_0.png"],["E_Dist_300_LN_18_LD_30_RN_18_RD_20_1.png","E_Dist_300_LN_3_LD_10_RN_3_RD_5_1.png","E_Dist_300_LN_9_LD_20_RN_9_RD_12_1.png"]],"dist500_C":[["C_Dist_500_LN_10_LD_13_RN_7_RD_26_0.png","C_Dist_500_LN_10_LD_15_RN_4_RD_24_0.png","C_Dist_500_LN_12_LD_16_RN_3_RD_12_0.png","C_Dist_500_LN_12_LD_18_RN_4_RD_24_0.png","C_Dist_500_LN_15_LD_18_RN_5_RD_15_0.png","C_Dist_500_LN_15_LD_20_RN_1_RD_4_0.png","C_Dist_500_LN_18_LD_27_RN_1_RD_6_0.png","C_Dist_500_LN_20_LD_24_RN_1_RD_3_0.png","C_Dist_500_LN_20_LD_24_RN_3_RD_9_0.png","C_Dist_500_LN_20_LD_24_RN_7_RD_21_0.png","C_Dist_500_LN_20_LD_28_RN_3_RD_14_0.png","C_Dist_500_LN_21_LD_28_RN_6_RD_24_0.png","C_Dist_500_LN_22_LD_28_RN_2_RD_7_0.png","C_Dist_500_LN_25_LD_30_RN_9_RD_27_0.png","C_Dist_500_LN_4_LD_6_RN_1_RD_6_0.png","C_Dist_500_LN_5_LD_6_RN_2_RD_6_0.png","C_Dist_500_LN_6_LD_9_RN_1_RD_6_0.png","C_Dist_500_LN_7_LD_10_RN_1_RD_5_0.png","C_Dist_500_LN_8_LD_12_RN_1_RD_6_0.png","C_Dist_500_LN_8_LD_12_RN_4_RD_24_0.png"],["C_Dist_500_LN_1_LD_4_RN_12_RD_16_1.png","C_Dist_500_LN_1_LD_4_RN_9_RD_12_1.png","C_Dist_500_LN_1_LD_9_RN_11_RD_18_1.png","C_Dist_500_LN_10_LD_24_RN_22_RD_24_1.png","C_Dist_500_LN_2_LD_12_RN_10_RD_15_1.png","C_Dist_500_LN_2_LD_12_RN_12_RD_18_1.png","C_Dist_500_LN_2_LD_12_RN_4_RD_6_1.png","C_Dist_500_LN_2_LD_24_RN_7_RD_12_1.png","C_Dist_500_LN_2_LD_5_RN_18_RD_20_1.png","C_Dist_500_LN_2_LD_5_RN_9_RD_10_1.png","C_Dist_500_LN_2_LD_8_RN_12_RD_16_1.png","C_Dist_500_LN_2_LD_8_RN_21_RD_28_1.png","C_Dist_500_LN_3_LD_10_RN_4_RD_5_1.png","C_Dist_500_LN_3_LD_12_RN_15_RD_20_1.png","C_Dist_500_LN_3_LD_30_RN_6_RD_10_1.png","C_Dist_500_LN_3_LD_8_RN_14_RD_16_1.png","C_Dist_500_LN_4_LD_16_RN_15_RD_20_1.png","C_Dist_500_LN_4_LD_24_RN_12_RD_18_1.png","C_Dist_500_LN_5_LD_14_RN_6_RD_7_1.png","C_Dist_500_LN_7_LD_21_RN_20_RD_24_1.png","C_Dist_500_LN_7_LD_28_RN_12_RD_16_1.png","C_Dist_500_LN_7_LD_28_RN_9_RD_12_1.png","C_Dist_500_LN_9_LD_27_RN_20_RD_24_1.png"]],"dist500_I":[["I_Dist_500_LN_2_LD_3_RN_4_RD_24_0.png","I_Dist_500_LN_5_LD_6_RN_6_RD_18_0.png","I_Dist_500_LN_7_LD_8_RN_9_RD_24_0.png"],["I_Dist_500_LN_7_LD_21_RN_5_RD_6_1.png"]],"dist500_S":[["E_Dist_500_LN_6_LD_8_RN_6_RD_24_0.png"],["E_Dist_500_LN_2_LD_12_RN_2_RD_3_1.png","E_Dist_500_LN_6_LD_24_RN_6_RD_8_1.png"]]}},{"start_time":1552327339626,"click_time":1552327342219,"finger_time":1552327341899,"fix_duration":846.5805273736,"trial":1,"RT":2273,"MT":320,"sideResp":2,"stimulus":[],"xmouse":[787,787,787,787,787,787,787,787,787,787,787,787,787,787,787,787,787,787,787,787,787,787,787,787,787,787,787,787,787,787,787,787,787,787,787,787,787,787,787,787,787,787,787,787,787,787,787,787,787,787,787,787,787,787,787,787,787,787,787,787,787,787,787,787,787,787,787,787,787,787,787,787,787,787,787,787,787,787,787,787,787,787,787,787,787,787,787,787,787,787,787,787,787,787,787,787,787,787,787,787,787,787,787,787,787,787,787,787,787,787,787,788,798,810,827,842,918,970,985,988,988,988,989,990,993,1002,1023,1036,1049,1067],"ymouse":[509,509,509,509,509,509,509,509,509,509,509,509,509,509,509,509,509,509,509,509,509,509,509,509,509,509,509,509,509,509,509,509,509,509,509,509,509,509,509,509,509,509,509,509,509,509,509,509,509,509,509,509,509,509,509,509,509,509,509,509,509,509,509,509,509,509,509,509,509,509,509,509,509,509,509,509,509,509,509,509,509,509,509,509,509,509,509,509,509,509,509,509,509,509,509,509,509,509,509,509,509,509,509,509,509,509,509,509,509,509,509,504,485,457,419,375,249,177,145,126,118,115,114,113,112,109,102,98,95,89],"timestamp_mouse":[11,31,51,72,92,113,132,151,172,192,213,232,252,271,293,311,331,353,373,392,411,431,452,472,493,512,531,552,572,591,612,632,653,671,692,713,732,753,772,792,812,832,852,872,892,911,931,951,971,992,1012,1032,1052,1071,1091,1112,1132,1153,1172,1192,1213,1232,1251,1271,1291,1312,1332,1352,1371,1392,1413,1432,1452,1472,1492,1512,1532,1553,1571,1592,1613,1632,1651,1672,1691,1713,1732,1752,1772,1791,1812,1832,1852,1871,1891,1913,1932,1951,1972,1993,2013,2032,2051,2071,2093,2112,2132,2152,2172,2192,2212,2232,2251,2273,2293,2313,2333,2351,2373,2391,2412,2432,2451,2472,2493,2511,2533,2551,2572,2592],"xSR":741.5,"ySR":469.95,"xT1":424.9,"yT1":0,"xT2":1058.1,"yT2":0,"toosoon":0,"cond_shown":"Congruent","ratio_trial":200,"L_num":1,"L_den":2,"R_num":21,"R_den":30,"correct_side":2,"subjID":"JulianDavidRoaSanchez22","gender":"0","school":"4","age":"9"},{"start_time":1552327343390,"click_time":1552327345099,"finger_time":1552327344677,"fix_duration":250,"trial":2,"RT":1287,"MT":422,"sideResp":2,"stimulus":[],"xmouse":[778,777,776,776,776,776,776,775,775,774,774,774,774,774,774,774,774,774,774,774,775,776,777,777,777,777,777,779,779,780,780,781,781,781,781,781,781,781,781,781,781,781,781,781,781,781,781,781,781,781,781,781,781,781,781,781,781,781,781,781,781,784,791,806,847,873,894,914,940,1003,1003,1003,1003,1003,1003,1003,1003,1003,1003,1003,1003,1003,1003,1003,1003,1107],"ymouse":[548,548,547,546,546,546,546,545,544,543,543,543,543,543,543,543,543,541,540,537,534,532,530,530,530,529,529,529,530,531,531,531,531,531,531,531,531,531,531,531,531,531,531,531,531,531,531,531,531,531,531,531,531,531,531,531,531,531,531,531,531,530,525,513,472,431,378,317,233,45,45,45,45,45,45,45,45,45,45,45,45,45,45,45,45,9],"timestamp_mouse":[12,33,49,68,88,107,127,147,167,189,209,227,248,269,289,309,329,348,367,389,408,427,447,468,488,508,528,548,568,587,607,629,648,667,688,707,728,749,767,788,807,829,848,867,887,909,928,949,969,989,1007,1028,1049,1068,1088,1107,1127,1148,1169,1188,1208,1228,1248,1268,1287,1308,1327,1348,1368,1388,1408,1427,1447,1469,1488,1508,1528,1549,1569,1587,1609,1628,1649,1669,1688,1709],"xSR":741.5,"ySR":469.95,"xT1":424.9,"yT1":0,"xT2":1058.1,"yT2":0,"toosoon":0,"cond_shown":"Incongruent","ratio_trial":300,"L_num":4,"L_den":20,"R_num":2,"R_den":4,"correct_side":2,"subjID":"JulianDavidRoaSanchez22","gender":"0","school":"4","age":"9"},{"start_time":1552327347145,"click_time":1552327348837,"finger_time":1552327348518,"fix_duration":1064.0287452095947,"trial":3,"RT":1373,"MT":319,"sideResp":2,"stimulus":[],"xmouse":[788,788,788,788,788,788,788,788,788,788,788,788,788,788,788,788,788,788,788,788,788,788,788,788,788,788,788,788,788,788,788,788,788,788,788,788,788,788,788,788,788,788,788,788,788,788,788,788,788,788,788,788,788,788,788,788,788,788,788,788,788,788,788,788,789,790,797,808,826,860,876,886,893,898,908,918,939,951,964,977,1002,1030,1043,1055,1066],"ymouse":[506,506,506,506,506,506,506,506,506,506,506,506,506,506,506,506,506,506,506,506,506,506,506,506,506,506,506,506,506,506,506,506,506,506,506,506,506,506,506,506,506,506,506,506,506,506,506,506,506,506,506,506,506,506,506,506,506,506,506,506,506,506,506,506,506,506,495,481,461,420,396,374,337,315,292,272,236,218,201,182,150,117,104,91,80],"timestamp_mouse":[13,35,52,72,92,114,134,153,173,193,212,232,254,273,292,313,332,353,372,394,414,432,453,472,493,512,533,554,573,592,612,633,653,672,692,713,733,754,773,793,812,832,853,873,894,913,932,954,973,993,1012,1033,1053,1072,1093,1114,1133,1152,1174,1192,1213,1233,1253,1272,1294,1313,1332,1353,1373,1392,1414,1433,1453,1473,1494,1514,1532,1552,1572,1593,1612,1633,1652,1672,1692],"xSR":741.5,"ySR":469.95,"xT1":424.9,"yT1":0,"xT2":1058.1,"yT2":0,"toosoon":0,"cond_shown":"Incongruent","ratio_trial":300,"L_num":13,"L_den":26,"R_num":12,"R_den":15,"correct_side":2,"subjID":"JulianDavidRoaSanchez22","gender":"0","school":"4","age":"9"},{"start_time":1552327351404,"click_time":1552327353319,"finger_time":1552327352717,"fix_duration":483.0547908724915,"trial":4,"RT":1313,"MT":602,"sideResp":2,"stimulus":[],"xmouse":[792,792,792,792,792,792,792,792,792,792,792,792,792,792,792,792,792,792,792,792,792,792,792,792,792,792,792,792,792,792,792,792,792,792,792,792,792,792,792,792,792,792,792,792,792,792,792,792,792,792,792,792,792,792,792,792,792,792,792,792,792,792,793,794,813,831,847,871,903,914,924,935,948,961,992,1003,1009,1014,1017,1024,1030,1033,1036,1038,1038,1038,1039,1040,1043,1044,1046,1047,1049,1051,1057,1059],"ymouse":[546,546,546,546,546,546,546,546,546,546,546,546,546,546,546,546,546,546,546,546,546,546,546,546,546,546,546,546,546,546,546,546,546,546,546,546,546,546,546,546,546,546,546,546,546,546,546,546,546,546,546,546,546,546,546,546,546,546,546,546,546,546,546,544,503,460,415,356,257,221,191,168,150,138,112,105,102,100,99,96,93,89,84,78,76,76,76,75,70,68,66,65,65,63,59,58],"timestamp_mouse":[14,42,54,73,93,114,134,154,175,193,213,234,253,275,293,313,333,353,374,395,414,433,454,475,494,514,534,554,573,595,613,633,653,674,693,715,735,755,773,793,814,834,855,874,893,913,935,955,975,994,1013,1034,1054,1075,1095,1114,1134,1155,1173,1194,1213,1235,1255,1274,1294,1313,1335,1354,1375,1393,1415,1433,1455,1474,1493,1513,1533,1553,1574,1594,1613,1634,1654,1674,1693,1713,1733,1755,1775,1794,1814,1833,1855,1873,1893,1915],"xSR":741.5,"ySR":469.95,"xT1":424.9,"yT1":0,"xT2":1058.1,"yT2":0,"toosoon":0,"cond_shown":"Incongruent","ratio_trial":200,"L_num":14,"L_den":30,"R_num":12,"R_den":18,"correct_side":2,"subjID":"JulianDavidRoaSanchez22","gender":"0","school":"4","age":"9"},{"start_time":1552327354726,"click_time":1552327356719,"finger_time":1552327356117,"fix_duration":526.0224687291063,"trial":5,"RT":1391,"MT":602,"sideResp":1,"stimulus":[],"xmouse":[772,772,772,772,772,772,773,773,773,774,774,774,774,774,774,774,774,774,774,774,774,774,775,775,775,775,775,775,775,775,775,775,776,776,776,776,776,776,776,776,776,776,776,776,776,776,776,776,776,776,776,776,776,776,776,776,776,776,776,776,776,776,776,777,777,778,778,779,779,776,771,765,755,711,671,633,594,578,559,554,551,547,544,541,541,541,540,539,536,535,532,529,527,525,524,522,519,515,509,506],"ymouse":[500,500,500,500,500,500,500,500,500,500,500,500,500,500,500,500,500,500,500,500,500,500,500,500,500,500,500,500,500,500,500,500,500,500,500,500,500,500,500,500,500,500,500,500,500,500,500,500,500,500,500,500,500,500,500,500,500,500,500,500,500,500,500,500,498,495,492,488,476,467,455,441,426,379,352,328,302,285,256,245,232,219,209,195,191,188,185,179,172,166,163,157,154,149,147,143,139,129,107,78],"timestamp_mouse":[13,35,52,72,92,112,131,151,173,192,212,232,252,272,292,312,331,352,371,392,413,432,451,471,492,512,532,551,571,592,613,632,652,673,693,712,731,752,771,792,812,832,851,871,892,913,932,951,971,991,1012,1032,1052,1073,1092,1111,1132,1152,1173,1192,1211,1231,1252,1273,1292,1312,1332,1352,1372,1391,1411,1431,1453,1472,1491,1511,1532,1552,1573,1591,1612,1631,1651,1672,1692,1712,1732,1752,1771,1791,1813,1833,1852,1872,1892,1911,1931,1952,1972,1993],"xSR":741.5,"ySR":469.95,"xT1":424.9,"yT1":0,"xT2":1058.1,"yT2":0,"toosoon":0,"cond_shown":"Congruent","ratio_trial":200,"L_num":15,"L_den":25,"R_num":4,"R_den":10,"correct_side":1,"subjID":"JulianDavidRoaSanchez22","gender":"0","school":"4","age":"9"},{"start_time":1552327358803,"click_time":1552327360357,"finger_time":1552327360098,"fix_duration":1274.9840893184905,"trial":6,"RT":1295,"MT":259,"sideResp":2,"stimulus":[],"xmouse":[804,804,804,804,804,804,804,804,804,804,804,804,804,804,804,804,804,804,804,804,804,804,804,804,804,804,804,804,804,804,804,804,804,804,804,804,804,804,804,804,804,804,804,804,804,804,804,805,805,805,805,805,806,806,806,806,806,806,806,806,806,807,808,810,814,839,852,872,892,907,959,990,1004,1013,1022,1051,1070,1089],"ymouse":[520,520,520,520,520,520,520,520,520,520,520,520,520,520,520,520,520,520,520,520,520,520,520,520,520,520,520,520,520,520,520,520,520,520,520,520,520,520,520,520,520,520,520,520,520,519,517,512,509,505,504,504,503,503,503,501,500,499,497,496,493,489,484,476,462,410,375,336,299,269,190,151,135,126,120,110,104,99],"timestamp_mouse":[14,45,56,75,94,116,135,156,175,195,215,235,256,274,294,315,336,356,376,395,414,434,455,475,495,516,534,554,575,596,616,636,656,674,695,714,735,755,776,796,815,835,854,876,895,916,936,955,975,996,1014,1036,1055,1075,1095,1116,1136,1154,1175,1195,1214,1235,1255,1275,1295,1315,1335,1354,1376,1396,1414,1435,1455,1475,1495,1516,1535,1554],"xSR":741.5,"ySR":469.95,"xT1":424.9,"yT1":0,"xT2":1058.1,"yT2":0,"toosoon":0,"cond_shown":"Congruent","ratio_trial":300,"L_num":5,"L_den":25,"R_num":6,"R_den":12,"correct_side":2,"subjID":"JulianDavidRoaSanchez22","gender":"0","school":"4","age":"9"},{"start_time":1552327363324,"click_time":1552327366518,"finger_time":1552327365597,"fix_duration":763.018015745996,"trial":7,"RT":2273,"MT":921,"sideResp":1,"stimulus":[],"xmouse":[774,774,774,774,774,774,774,774,774,774,774,774,774,774,774,774,774,774,774,774,774,774,774,774,774,774,774,774,774,774,774,774,774,774,774,774,774,774,774,774,774,774,774,774,774,774,774,774,774,774,774,774,774,774,774,774,774,774,774,774,774,774,774,774,774,774,774,774,774,774,774,774,774,774,774,774,774,774,774,774,774,774,775,775,775,775,775,775,775,775,775,775,775,775,775,775,775,775,775,775,775,775,775,775,775,775,775,775,775,773,771,765,761,750,739,711,699,685,675,661,655,649,644,633,625,612,608,602,595,580,569,561,555,548,539,535,530,529,526,524,523,523,522,521,520,520,517,510,500,488,486,482,480,480,479,479,479,478,476,473],"ymouse":[531,531,531,531,531,531,531,531,531,531,531,531,531,531,531,531,531,531,531,531,531,531,531,531,531,531,531,531,531,531,531,531,531,531,531,531,531,531,531,531,531,531,531,531,531,531,531,531,531,531,531,531,531,531,531,531,531,531,531,531,531,531,531,531,531,531,531,531,531,531,531,531,531,531,531,531,531,530,528,525,523,522,520,519,519,519,519,519,519,519,519,519,519,519,519,519,519,519,519,519,518,518,517,515,515,514,513,510,509,503,499,488,482,457,431,376,356,339,328,306,297,283,272,259,249,238,234,229,224,215,211,208,206,204,201,199,198,197,195,195,194,194,193,186,169,154,139,124,112,105,105,105,105,105,105,105,105,104,102,98],"timestamp_mouse":[13,36,53,73,94,114,134,154,172,193,213,234,254,273,293,314,334,353,374,394,413,434,453,473,493,513,534,554,573,594,613,632,653,673,692,714,734,753,773,794,813,833,854,874,893,914,934,953,973,993,1013,1034,1053,1073,1094,1114,1134,1154,1174,1193,1213,1234,1254,1274,1293,1314,1333,1354,1373,1393,1414,1434,1453,1473,1493,1513,1534,1554,1574,1593,1613,1634,1653,1673,1693,1713,1734,1753,1774,1793,1814,1834,1854,1874,1893,1913,1934,1952,1973,1993,2013,2034,2054,2074,2093,2113,2133,2154,2174,2193,2214,2233,2253,2273,2293,2313,2332,2353,2374,2394,2412,2433,2454,2474,2493,2513,2533,2552,2573,2593,2613,2633,2654,2674,2693,2713,2733,2753,2773,2793,2814,2834,2853,2873,2894,2913,2933,2953,2973,2994,3014,3032,3052,3074,3094,3113,3134,3153,3173,3194],"xSR":741.5,"ySR":469.95,"xT1":424.9,"yT1":0,"xT2":1058.1,"yT2":0,"toosoon":0,"cond_shown":"Congruent","ratio_trial":200,"L_num":4,"L_den":8,"R_num":3,"R_den":10,"correct_side":1,"subjID":"JulianDavidRoaSanchez22","gender":"0","school":"4","age":"9"},{"start_time":1552327368899,"click_time":1552327370798,"finger_time":1552327370297,"fix_duration":1120.0830442671179,"trial":8,"RT":1398,"MT":501,"sideResp":2,"stimulus":[],"xmouse":[789,789,789,791,791,791,791,791,791,791,791,791,791,791,791,791,791,791,791,791,791,791,791,791,791,792,792,792,792,792,792,792,792,792,792,792,792,792,792,792,792,792,792,792,792,792,792,792,792,792,792,792,792,792,792,792,792,792,792,792,792,792,792,792,792,792,800,809,817,826,832,837,837,838,846,852,869,874,878,884,887,892,897,903,910,924,934,948,961,978,997,1029,1039,1051,1066],"ymouse":[531,531,531,531,531,531,531,531,531,531,531,531,531,531,531,531,531,531,531,531,531,531,531,531,531,531,531,531,531,531,531,531,531,531,531,531,531,531,531,531,531,532,534,535,535,535,535,535,535,537,537,537,537,537,537,537,537,537,537,537,537,537,537,537,537,533,513,494,474,451,424,343,320,299,278,256,214,197,183,171,166,165,165,164,160,145,138,129,123,114,103,74,62,54,46],"timestamp_mouse":[19,42,58,78,98,119,137,158,178,199,218,238,259,279,298,318,337,359,379,398,418,438,459,478,498,519,539,558,579,598,619,639,658,678,699,719,739,759,778,798,819,838,859,879,899,918,938,958,979,999,1018,1038,1059,1079,1098,1119,1138,1158,1179,1198,1219,1239,1258,1279,1298,1319,1338,1358,1378,1398,1420,1438,1459,1478,1499,1518,1538,1559,1578,1599,1618,1638,1659,1678,1698,1720,1738,1759,1779,1799,1819,1838,1858,1878,1899],"xSR":741.5,"ySR":469.95,"xT1":424.9,"yT1":0,"xT2":1058.1,"yT2":0,"toosoon":0,"cond_shown":"Incongruent","ratio_trial":300,"L_num":13,"L_den":26,"R_num":12,"R_den":15,"correct_side":2,"subjID":"JulianDavidRoaSanchez22","gender":"0","school":"4","age":"9"},{"start_time":1552327373289,"click_time":1552327375837,"finger_time":1552327375118,"fix_duration":250,"trial":9,"RT":1829,"MT":719,"sideResp":1,"stimulus":[],"xmouse":[792,793,793,793,793,793,793,793,793,793,793,793,793,793,793,793,793,793,793,793,793,793,793,793,793,793,793,793,793,794,794,794,794,794,794,794,794,796,797,797,797,797,797,797,797,797,797,797,797,797,797,797,797,797,797,797,797,797,797,797,797,797,797,797,798,798,800,800,800,800,800,801,801,803,803,803,803,803,803,803,804,805,805,807,807,807,807,807,807,807,807,807,807,806,805,804,803,802,801,801,801,801,801,801,801,801,801,801,800,800,797,795,786,781,774,765,751,730,661,631,602,567,531,516,506,500,497,495],"ymouse":[521,521,521,521,521,521,521,521,521,521,521,521,521,521,521,521,521,521,521,521,521,521,521,521,521,521,521,521,521,521,521,521,521,521,521,521,521,521,521,521,521,521,521,521,521,521,521,521,521,521,521,521,521,521,521,521,521,521,521,521,521,521,521,521,521,520,519,519,516,515,514,512,510,508,508,508,507,507,507,505,503,500,493,489,486,482,480,476,474,472,470,468,464,461,460,457,455,453,453,453,453,453,453,453,453,453,453,452,452,450,446,442,430,421,410,396,379,357,310,286,262,224,182,162,143,124,104,88],"timestamp_mouse":[13,36,48,68,89,109,129,149,168,188,209,229,248,269,287,308,327,348,369,389,409,429,448,469,488,508,528,548,569,588,609,628,648,669,688,708,729,748,769,788,809,829,847,869,888,908,929,947,968,988,1008,1028,1048,1069,1088,1107,1128,1148,1169,1189,1209,1228,1248,1268,1288,1308,1328,1348,1369,1388,1409,1427,1448,1468,1487,1509,1529,1548,1569,1588,1609,1628,1648,1669,1689,1708,1729,1748,1769,1788,1808,1829,1848,1867,1888,1909,1927,1949,1969,1988,2009,2029,2049,2069,2089,2108,2128,2149,2169,2187,2208,2228,2249,2268,2288,2309,2329,2349,2369,2388,2408,2428,2449,2468,2488,2508,2528,2548],"xSR":741.5,"ySR":469.95,"xT1":424.9,"yT1":0,"xT2":1058.1,"yT2":0,"toosoon":0,"cond_shown":"Incongruent","ratio_trial":200,"L_num":7,"L_den":10,"R_num":14,"R_den":28,"correct_side":1,"subjID":"JulianDavidRoaSanchez22","gender":"0","school":"4","age":"9"},{"start_time":1552327377354,"click_time":1552327379257,"finger_time":1552327378917,"fix_duration":575.1395866132091,"trial":10,"RT":1563,"MT":340,"sideResp":2,"stimulus":[],"xmouse":[801,801,801,801,801,801,801,801,801,801,801,801,801,801,801,801,801,801,801,801,801,801,801,801,801,801,801,801,801,801,801,801,801,801,801,801,801,801,801,801,801,801,801,801,801,801,801,801,801,801,801,801,801,801,801,801,801,801,801,801,801,801,801,801,801,800,800,800,800,800,800,800,800,800,800,800,800,800,800,800,802,804,806,811,817,843,870,888,905,934,948,964,985,1008,1048,1080],"ymouse":[491,492,492,493,494,496,498,499,499,499,499,499,499,499,499,499,499,499,499,499,499,499,499,499,499,499,499,499,499,499,500,500,500,500,500,500,500,500,500,500,500,500,500,500,500,500,500,500,500,500,500,500,500,500,500,500,500,500,500,500,500,500,500,500,500,498,497,495,492,489,482,480,478,477,476,473,471,470,468,465,458,453,447,437,424,386,351,326,301,259,236,212,186,160,113,68],"timestamp_mouse":[14,40,43,63,84,103,123,143,164,183,203,223,244,263,284,303,323,344,363,383,404,424,444,464,484,504,523,543,563,583,604,624,644,664,683,703,724,744,763,784,804,824,843,864,883,904,924,944,964,984,1003,1024,1043,1063,1083,1103,1123,1144,1163,1184,1204,1223,1243,1263,1284,1304,1323,1343,1364,1382,1403,1424,1444,1463,1482,1503,1523,1544,1563,1584,1603,1623,1643,1662,1683,1704,1723,1744,1763,1785,1803,1823,1843,1864,1882,1903],"xSR":741.5,"ySR":469.95,"xT1":424.9,"yT1":0,"xT2":1058.1,"yT2":0,"toosoon":0,"cond_shown":"Congruent","ratio_trial":100,"L_num":6,"L_den":12,"R_num":15,"R_den":25,"correct_side":2,"subjID":"JulianDavidRoaSanchez22","gender":"0","school":"4","age":"9"},{"start_time":1552327381024,"click_time":1552327383978,"finger_time":1552327382457,"fix_duration":1085.310417528289,"trial":11,"RT":1433,"MT":1521,"sideResp":2,"stimulus":[],"xmouse":[807,807,807,807,807,807,807,807,807,807,807,807,807,807,807,807,807,807,807,807,807,807,807,807,807,807,807,807,807,807,807,807,807,807,807,807,807,807,807,807,807,807,807,807,807,807,807,807,807,807,807,807,807,807,807,807,807,807,807,807,807,807,807,807,807,807,805,803,801,796,793,784,782,779,778,777,777,777,777,777,777,777,777,777,777,777,782,784,785,787,787,787,787,787,787,787,787,787,787,787,787,787,788,791,793,798,824,848,867,885,898,906,910,918,926,934,951,957,962,965,969,978,984,991,999,1005,1015,1018,1020,1022,1028,1036,1037,1038,1040,1041,1043,1044,1045,1045,1045,1046,1047,1048,1049,1051,1056,1060],"ymouse":[499,499,499,499,499,499,499,499,499,499,499,499,499,499,499,499,499,499,499,499,499,499,499,499,499,499,499,499,499,499,499,499,499,499,499,499,499,499,499,499,499,499,499,499,499,499,499,499,499,499,499,499,499,499,499,499,499,499,499,499,499,499,499,499,499,499,498,496,493,486,479,463,458,452,449,447,446,446,446,446,446,446,446,446,447,449,455,457,461,465,474,484,488,490,491,492,494,496,497,498,499,500,500,500,499,490,445,403,362,332,302,275,265,253,241,230,203,194,186,181,174,160,154,145,136,128,118,115,113,108,101,89,85,83,78,76,72,70,68,68,68,67,66,66,65,65,62,61],"timestamp_mouse":[13,35,53,73,93,113,133,153,174,193,212,233,253,274,293,314,334,353,374,393,413,434,453,474,494,513,533,552,574,593,614,633,654,674,694,713,733,753,774,794,813,833,853,874,893,914,933,953,974,994,1013,1033,1065,1072,1092,1114,1134,1154,1174,1193,1213,1233,1252,1274,1293,1312,1333,1354,1373,1393,1413,1433,1454,1473,1494,1514,1534,1552,1574,1594,1613,1634,1654,1674,1694,1713,1734,1754,1773,1793,1813,1833,1853,1873,1894,1914,1934,1952,1972,1993,2014,2033,2053,2073,2093,2113,2133,2153,2174,2193,2214,2234,2253,2273,2293,2314,2334,2353,2374,2393,2413,2433,2453,2473,2494,2512,2533,2553,2574,2593,2613,2633,2652,2673,2694,2713,2734,2753,2774,2793,2814,2834,2853,2874,2894,2914,2934,2953],"xSR":741.5,"ySR":469.95,"xT1":424.9,"yT1":0,"xT2":1058.1,"yT2":0,"toosoon":0,"cond_shown":"Congruent","ratio_trial":300,"L_num":1,"L_den":20,"R_num":7,"R_den":20,"correct_side":2,"subjID":"JulianDavidRoaSanchez22","gender":"0","school":"4","age":"9"},{"start_time":1552327385749,"click_time":1552327388377,"finger_time":1552327387677,"fix_duration":990.7666049156666,"trial":12,"RT":1928,"MT":700,"sideResp":1,"stimulus":[],"xmouse":[787,787,787,788,788,789,789,789,789,789,789,789,789,789,789,789,789,789,789,789,789,789,789,789,789,789,789,789,789,789,789,789,789,790,791,792,792,792,792,793,793,793,793,793,793,793,793,793,793,793,793,793,793,793,793,793,793,793,793,793,793,793,793,793,793,793,793,793,792,790,788,786,785,784,783,782,781,781,781,781,781,781,780,780,780,777,776,776,776,776,776,778,778,780,782,790,797,803,809,811,813,813,813,813,813,813,813,813,813,813,805,796,785,766,740,687,662,642,620,603,570,561,551,542,531,529,528,527,526,525,523],"ymouse":[506,511,512,515,516,518,519,519,519,520,520,521,521,521,521,521,521,521,521,521,521,521,521,521,521,521,521,521,521,521,521,521,521,521,521,520,519,517,517,516,516,516,516,516,516,516,516,516,516,516,516,516,516,516,516,516,516,516,516,516,516,516,516,516,516,516,516,516,515,515,512,511,511,510,509,509,508,508,508,508,508,508,507,507,507,506,505,505,505,504,500,496,494,490,484,458,446,436,425,421,415,415,414,414,413,412,411,410,407,404,392,382,368,349,318,254,230,211,194,177,140,125,113,103,95,93,92,90,90,88,85],"timestamp_mouse":[36,47,68,88,108,129,147,169,189,209,228,249,268,289,308,328,349,369,388,408,428,448,468,488,509,529,549,568,589,609,628,648,668,688,708,728,749,768,789,808,828,849,869,889,909,928,948,969,989,1007,1028,1048,1069,1089,1109,1129,1148,1169,1189,1209,1228,1249,1268,1288,1309,1328,1348,1369,1388,1408,1428,1448,1468,1489,1509,1529,1548,1567,1587,1608,1629,1648,1668,1690,1708,1728,1749,1769,1788,1809,1829,1849,1868,1888,1909,1928,1948,1968,1988,2008,2028,2048,2068,2088,2109,2128,2148,2168,2189,2208,2228,2248,2268,2288,2309,2328,2349,2369,2388,2409,2428,2448,2468,2488,2510,2527,2548,2568,2587,2609,2628],"xSR":741.5,"ySR":469.95,"xT1":424.9,"yT1":0,"xT2":1058.1,"yT2":0,"toosoon":0,"cond_shown":"Congruent","ratio_trial":100,"L_num":11,"L_den":22,"R_num":4,"R_den":10,"correct_side":1,"subjID":"JulianDavidRoaSanchez22","gender":"0","school":"4","age":"9"},{"start_time":1552327389489,"click_time":1552327391577,"finger_time":1552327391257,"fix_duration":250,"trial":13,"RT":1768,"MT":320,"sideResp":1,"stimulus":[],"xmouse":[788,789,789,790,790,790,790,790,790,790,790,790,790,790,790,790,790,790,790,790,790,790,790,790,790,790,790,790,790,790,790,790,790,790,790,790,790,790,790,790,790,790,790,790,790,790,790,790,790,790,790,790,790,790,790,790,790,790,790,790,790,790,790,790,790,790,790,790,790,790,790,790,790,790,790,790,790,790,790,790,790,790,790,789,786,779,768,752,732,658,611,556,508,461,433,423,416,412,411,411,411,411,412,420,442],"ymouse":[511,512,512,513,515,516,516,516,517,517,517,517,517,517,517,517,517,517,518,518,519,519,519,519,519,519,519,519,519,519,519,519,519,519,519,519,519,519,519,519,519,519,520,520,520,520,520,520,520,520,520,520,520,520,520,520,520,520,520,520,520,520,520,520,520,520,521,521,521,521,522,523,523,523,523,524,524,524,524,524,524,524,524,524,522,517,509,496,476,400,353,300,250,195,154,135,123,114,107,100,99,97,97,97,97],"timestamp_mouse":[15,38,48,68,88,108,129,148,168,189,209,228,249,268,289,309,328,347,368,388,409,429,448,468,488,508,529,549,568,587,608,629,649,668,689,708,728,749,768,789,809,829,848,868,889,908,928,949,968,988,1008,1029,1048,1068,1088,1109,1127,1149,1168,1189,1208,1228,1249,1267,1288,1308,1329,1349,1368,1388,1408,1428,1449,1469,1488,1508,1528,1548,1569,1587,1607,1628,1648,1668,1687,1708,1728,1748,1768,1788,1807,1828,1848,1868,1889,1908,1928,1948,1968,1988,2007,2028,2048,2067,2088],"xSR":741.5,"ySR":469.95,"xT1":424.9,"yT1":0,"xT2":1058.1,"yT2":0,"toosoon":0,"cond_shown":"Incongruent","ratio_trial":200,"L_num":7,"L_den":15,"R_num":4,"R_den":6,"correct_side":2,"subjID":"JulianDavidRoaSanchez22","gender":"0","school":"4","age":"9"},{"start_time":1552327396226,"click_time":1552327397958,"finger_time":1552327397636,"fix_duration":585.3779648405194,"trial":14,"RT":1410,"MT":322,"sideResp":1,"stimulus":[],"xmouse":[788,786,786,786,786,786,786,786,786,786,786,786,786,786,786,786,786,787,787,787,787,787,787,789,789,789,790,790,790,790,790,790,790,790,790,790,790,790,790,790,790,790,791,791,791,791,791,791,791,791,791,791,791,791,792,792,792,792,792,792,792,792,792,792,792,792,792,792,792,792,787,779,750,701,677,663,652,646,630,618,604,591,580,545,525,506,491],"ymouse":[515,501,499,497,497,497,497,497,497,497,497,497,497,497,497,498,498,498,498,499,499,500,500,503,505,506,506,506,506,506,506,506,507,507,507,507,507,507,507,507,507,507,508,508,508,508,508,508,508,508,508,508,508,508,508,508,508,508,508,508,508,508,508,508,508,508,505,504,495,485,467,442,373,274,239,219,201,191,163,148,138,130,126,112,106,100,96],"timestamp_mouse":[11,32,53,71,92,112,132,152,172,192,213,231,252,272,291,311,331,352,372,391,412,431,451,470,491,511,532,551,571,591,611,632,651,672,691,711,732,752,771,791,812,832,851,872,891,912,931,952,971,991,1013,1031,1052,1072,1091,1112,1132,1151,1172,1191,1211,1232,1252,1271,1292,1312,1331,1352,1371,1392,1410,1431,1450,1471,1492,1511,1531,1551,1571,1591,1611,1631,1652,1671,1691,1710,1732],"xSR":741.5,"ySR":469.95,"xT1":424.9,"yT1":0,"xT2":1058.1,"yT2":0,"toosoon":0,"cond_shown":"Incongruent","ratio_trial":200,"L_num":7,"L_den":10,"R_num":8,"R_den":16,"correct_side":1,"subjID":"JulianDavidRoaSanchez22","gender":"0","school":"4","age":"9"},{"start_time":1552327399061,"click_time":1552327400837,"finger_time":1552327400397,"fix_duration":362.08641323835235,"trial":15,"RT":1336,"MT":440,"sideResp":1,"stimulus":[],"xmouse":[815,815,814,814,814,814,814,814,813,813,813,813,813,813,813,813,813,813,813,813,813,813,813,812,811,810,810,809,809,809,809,809,809,809,809,809,809,809,809,809,809,809,809,809,809,809,808,807,806,806,806,805,805,805,805,805,805,805,805,805,805,801,796,786,770,750,697,663,633,613,590,584,584,584,584,583,579,574,567,564,557,545,538,528,520,510,497,493,491],"ymouse":[530,530,532,532,532,532,532,532,532,532,532,532,532,532,532,532,532,532,532,532,532,532,532,532,532,534,534,534,534,534,534,534,534,534,534,534,534,534,534,534,534,534,534,533,533,531,529,527,526,523,522,522,522,522,522,522,522,522,522,522,521,518,515,509,500,486,447,412,369,303,194,154,150,146,139,134,124,120,116,115,115,115,114,113,112,109,104,101,97],"timestamp_mouse":[17,35,57,77,97,116,136,157,177,196,216,236,257,276,295,316,336,356,377,397,416,437,455,476,496,517,536,556,576,597,617,636,656,676,697,716,735,757,776,797,817,836,856,875,897,916,937,956,976,996,1016,1036,1057,1077,1097,1117,1135,1156,1176,1197,1216,1236,1256,1277,1296,1316,1336,1356,1377,1396,1416,1436,1456,1476,1496,1516,1536,1556,1577,1595,1616,1636,1656,1675,1696,1715,1736,1755,1776],"xSR":741.5,"ySR":469.95,"xT1":424.9,"yT1":0,"xT2":1058.1,"yT2":0,"toosoon":0,"cond_shown":"Incongruent","ratio_trial":100,"L_num":6,"L_den":12,"R_num":3,"R_den":5,"correct_side":2,"subjID":"JulianDavidRoaSanchez22","gender":"0","school":"4","age":"9"},{"start_time":1552327402485,"click_time":1552327410378,"finger_time":1552327402524,"fix_duration":426.7052109047527,"trial":16,"RT":39,"MT":7854,"sideResp":2,"stimulus":[],"xmouse":[783,778,775,772,769,764,764,764,764,764,764,764,764,765,765,769,770,771,771,772,772,772,772,773,773,773,773,774,774,776,777,778,779,779,779,780,780,781,781,781,781,781,781,781,781,781,781,781,781,781,781,782,782,782,783,783,783,783,782,782,781,781,781,781,781,781,781,781,781,781,781,781,781,781,781,781,781,781,781,781,781,781,781,782,782,782,782,782,782,782,782,782,782,782,782,782,782,782,782,782,782,782,782,782,782,782,782,782,782,782,782,782,782,782,782,782,782,782,782,782,782,782,782,782,782,782,782,782,782,782,783,783,784,784,784,784,784,784,784,784,784,784,784,784,784,784,784,783,782,781,781,781,781,780,779,779,779,778,778,778,778,778,778,778,778,778,778,778,778,778,778,778,778,778,778,778,778,778,778,778,778,778,778,778,778,778,778,778,778,778,778,778,778,778,778,778,778,778,778,778,778,778,778,778,778,778,778,778,778,778,778,778,778,778,778,778,778,778,778,778,778,778,778,778,778,778,778,778,778,778,778,778,778,778,778,778,778,778,778,778,778,778,778,778,778,777,777,777,777,777,777,777,777,777,777,777,777,777,777,777,777,777,777,777,777,777,777,777,777,777,777,777,777,777,777,777,777,777,777,776,776,776,776,776,775,775,775,775,775,775,775,775,775,775,775,775,775,775,775,775,775,775,775,775,775,775,775,775,775,775,775,775,775,775,775,775,775,775,775,775,775,774,774,773,773,772,772,772,772,772,772,772,772,772,772,772,772,772,772,772,772,772,772,772,772,772,772,772,772,772,772,772,772,772,772,772,772,772,772,772,772,772,772,772,772,773,773,774,774,775,776,781,789,799,820,845,861,877,898,911,933,942,958,964,987,1012,1024,1028,1029,1031,1037,1047,1063,1081],"ymouse":[576,585,589,593,598,604,604,604,604,604,604,604,600,593,585,578,577,577,577,576,576,574,570,567,566,564,564,564,563,563,563,563,563,563,563,563,566,571,573,578,582,583,583,583,583,583,583,583,583,581,580,578,577,573,567,554,545,541,539,537,536,536,536,536,536,536,536,536,536,536,536,533,531,529,527,524,523,522,521,519,517,515,514,512,511,511,511,509,509,509,509,509,509,509,509,509,509,509,509,509,509,509,509,508,508,508,508,507,507,505,504,503,503,503,503,503,503,503,503,503,503,503,503,503,503,503,503,503,503,500,494,492,489,487,484,481,481,480,480,480,480,480,480,480,480,480,480,483,485,487,487,489,490,493,495,500,503,505,506,507,508,508,509,510,511,513,513,513,514,514,514,514,514,514,515,516,517,518,518,518,518,518,518,518,518,518,518,518,518,518,518,518,518,518,518,518,518,518,518,518,518,518,518,518,518,518,518,518,518,518,518,518,518,518,518,518,518,518,518,518,518,518,518,518,518,518,518,518,518,518,518,518,518,518,518,518,518,518,518,518,518,518,518,518,518,519,519,519,520,520,520,520,520,520,520,520,520,520,520,520,520,520,520,520,520,520,520,520,520,520,520,520,520,520,520,520,520,520,520,520,520,520,520,521,521,521,521,521,521,521,521,521,521,521,521,521,521,521,521,521,521,521,521,521,521,521,521,521,521,522,522,522,522,522,522,522,522,522,522,523,525,526,527,529,530,531,532,533,533,533,533,533,533,533,533,533,533,533,533,533,533,533,533,533,533,533,533,531,531,530,528,527,527,527,527,527,527,527,527,527,527,527,527,525,525,525,524,524,523,521,520,513,505,497,479,455,440,417,387,367,331,315,293,287,262,227,211,204,200,195,179,152,110,62],"timestamp_mouse":[39,52,72,93,112,132,152,172,193,212,232,252,273,293,314,332,352,371,393,413,432,453,473,492,512,532,553,573,593,613,632,652,673,692,711,732,752,772,793,812,833,852,872,892,913,932,952,973,991,1015,1032,1052,1072,1093,1114,1133,1153,1173,1193,1212,1232,1252,1272,1293,1313,1333,1353,1372,1391,1412,1433,1453,1472,1492,1513,1532,1552,1573,1592,1613,1633,1651,1672,1693,1712,1733,1753,1772,1792,1812,1833,1852,1873,1892,1912,1933,1953,1972,1992,2013,2032,2053,2072,2093,2112,2133,2153,2173,2193,2213,2233,2252,2273,2292,2312,2332,2351,2372,2391,2413,2432,2453,2473,2492,2513,2533,2552,2573,2592,2612,2631,2652,2672,2692,2713,2733,2752,2773,2792,2812,2833,2853,2871,2892,2913,2933,2953,2971,2991,3012,3033,3052,3072,3093,3112,3132,3152,3172,3192,3212,3233,3252,3273,3292,3313,3333,3352,3372,3392,3412,3433,3453,3473,3493,3513,3533,3552,3573,3593,3612,3633,3652,3672,3693,3713,3733,3753,3773,3793,3811,3832,3852,3872,3893,3913,3932,3952,3973,3992,4012,4032,4052,4072,4093,4113,4133,4153,4173,4192,4211,4233,4253,4273,4292,4312,4332,4353,4373,4392,4411,4432,4453,4473,4493,4512,4531,4553,4572,4592,4612,4633,4652,4672,4693,4712,4733,4752,4771,4792,4812,4833,4852,4872,4893,4913,4932,4953,4972,4992,5012,5032,5052,5073,5091,5112,5132,5151,5174,5192,5212,5232,5251,5273,5292,5312,5333,5353,5373,5392,5412,5432,5452,5471,5492,5513,5532,5551,5573,5592,5612,5632,5653,5672,5693,5713,5732,5752,5772,5792,5812,5832,5852,5872,5892,5913,5933,5954,5973,5992,6012,6032,6053,6073,6092,6113,6132,6152,6173,6193,6212,6233,6252,6273,6293,6313,6332,6353,6372,6392,6412,6432,6453,6481,6493,6513,6532,6553,6572,6592,6612,6633,6653,6672,6692,6712,6732,6752,6773,6793,6812,6832,6853,6873,6893,6912,6932,6952,6972,6992,7012,7032,7053,7073,7096,7113,7132,7152,7173,7192,7212,7232,7251,7272,7292,7313,7332,7352,7372,7393,7413,7432,7452,7473,7492,7513,7532,7552,7572,7593,7613,7633,7652,7673,7693,7713,7733,7752,7772,7793,7812,7833,7852,7872,7893],"xSR":741.5,"ySR":469.95,"xT1":424.9,"yT1":0,"xT2":1058.1,"yT2":0,"toosoon":0,"cond_shown":"Congruent","ratio_trial":200,"L_num":6,"L_den":20,"R_num":11,"R_den":22,"correct_side":2,"subjID":"JulianDavidRoaSanchez22","gender":"0","school":"4","age":"9"},{"start_time":1552327412989,"click_time":1552327415098,"finger_time":1552327414517,"fix_duration":250,"trial":17,"RT":1528,"MT":581,"sideResp":1,"stimulus":[],"xmouse":[807,807,807,806,806,806,806,806,806,806,806,806,806,806,806,806,806,806,806,806,806,806,806,806,806,805,805,804,804,804,804,804,804,804,804,804,804,804,804,804,804,804,804,804,804,804,804,804,804,804,804,804,804,804,804,804,804,804,804,804,804,804,804,804,804,803,803,803,802,801,801,800,796,792,789,785,774,742,723,709,701,691,671,665,660,658,654,624,597,568,545,530,518,515,512,506,502,496,494,493,492,491,484,480,477,475],"ymouse":[522,523,526,527,529,529,529,530,530,530,530,530,530,530,530,530,530,530,530,530,530,530,530,528,526,524,520,519,519,519,519,519,519,519,519,519,519,519,519,519,519,519,519,519,519,519,519,519,519,519,519,519,519,519,519,519,518,517,516,516,515,514,514,513,513,512,510,508,506,504,502,499,491,485,479,473,459,433,423,415,401,368,319,305,297,293,287,258,239,221,208,197,185,182,176,168,160,149,145,144,143,141,125,115,106,94],"timestamp_mouse":[10,36,49,68,88,108,128,149,168,188,207,229,248,269,289,309,327,349,369,388,409,428,449,467,488,509,529,548,568,589,608,629,648,668,688,709,727,749,769,788,809,829,848,869,889,909,928,949,969,989,1009,1029,1049,1068,1087,1109,1128,1148,1168,1189,1208,1228,1247,1268,1289,1308,1328,1348,1368,1388,1408,1428,1448,1469,1489,1507,1528,1548,1568,1588,1608,1628,1648,1668,1689,1708,1729,1748,1769,1789,1808,1828,1848,1869,1888,1909,1929,1948,1969,1988,2008,2029,2048,2070,2088,2109],"xSR":741.5,"ySR":469.95,"xT1":424.9,"yT1":0,"xT2":1058.1,"yT2":0,"toosoon":0,"cond_shown":"Incongruent","ratio_trial":100,"L_num":6,"L_den":12,"R_num":3,"R_den":5,"correct_side":2,"subjID":"JulianDavidRoaSanchez22","gender":"0","school":"4","age":"9"},{"start_time":1552327418223,"click_time":1552327420038,"finger_time":1552327419598,"fix_duration":684.8213650217136,"trial":18,"RT":1375,"MT":440,"sideResp":2,"stimulus":[],"xmouse":[781,781,781,781,781,781,781,781,781,781,781,782,784,786,788,791,794,794,794,794,794,795,796,797,797,797,798,798,798,798,798,798,800,800,801,801,801,801,801,801,801,801,801,801,802,802,802,803,803,803,803,803,803,804,804,804,804,805,806,807,810,811,812,813,813,813,813,815,816,819,829,841,852,878,912,940,960,958,946,933,898,896,896,897,898,919,942,972,1008,1041,1067],"ymouse":[495,495,495,495,495,495,496,496,496,496,496,496,495,491,487,479,476,475,475,475,475,475,477,478,479,480,481,481,481,481,481,482,482,481,479,479,479,479,486,489,494,495,495,495,495,495,495,496,496,496,496,496,496,495,494,492,492,491,489,487,481,478,476,473,472,472,472,470,468,466,453,433,412,372,325,288,231,177,126,96,31,26,23,22,20,20,26,34,41,46,49],"timestamp_mouse":[14,35,53,74,94,113,135,154,174,194,214,234,255,275,294,314,334,355,374,395,414,434,455,475,494,514,534,554,575,595,613,635,655,675,695,715,734,755,775,794,814,835,854,874,894,915,935,955,975,995,1014,1035,1054,1075,1094,1114,1134,1154,1175,1195,1215,1233,1254,1275,1295,1314,1335,1354,1375,1394,1415,1434,1454,1474,1494,1515,1535,1554,1575,1594,1616,1634,1654,1675,1694,1716,1734,1754,1775,1794,1815],"xSR":741.5,"ySR":469.95,"xT1":424.9,"yT1":0,"xT2":1058.1,"yT2":0,"toosoon":0,"cond_shown":"Congruent","ratio_trial":100,"L_num":2,"L_den":5,"R_num":11,"R_den":22,"correct_side":2,"subjID":"JulianDavidRoaSanchez22","gender":"0","school":"4","age":"9"},{"start_time":1552327421308,"click_time":1552327423118,"finger_time":1552327422618,"fix_duration":250,"trial":19,"RT":1310,"MT":500,"sideResp":2,"stimulus":[],"xmouse":[796,796,797,797,797,798,798,799,799,799,800,800,801,801,801,801,801,801,801,801,801,801,801,801,801,801,801,801,801,801,801,801,801,801,801,801,801,801,801,801,801,801,801,801,802,802,802,802,802,802,802,802,802,802,802,802,802,802,802,802,802,803,808,813,817,818,827,838,846,857,867,879,908,922,935,945,951,955,957,958,960,963,966,966,969,972,980,1012,1031,1057,1075],"ymouse":[508,508,509,509,509,509,509,509,509,509,509,510,511,514,514,515,515,516,516,517,517,518,518,520,522,525,528,531,531,531,531,531,531,531,531,531,531,531,531,531,531,531,531,530,528,528,528,528,528,528,528,529,529,530,531,531,532,533,533,533,533,531,517,497,480,461,426,402,387,362,339,318,290,280,267,251,235,218,208,200,190,172,166,160,152,145,134,95,84,69,59],"timestamp_mouse":[14,29,50,70,90,109,130,149,169,189,210,228,250,270,290,309,329,349,369,389,408,430,450,469,490,509,528,549,569,590,610,629,650,669,689,709,730,749,770,790,809,830,850,869,889,909,929,950,969,989,1009,1029,1049,1069,1089,1109,1129,1150,1169,1190,1209,1229,1250,1269,1289,1310,1331,1349,1369,1389,1409,1430,1449,1470,1489,1510,1530,1549,1569,1589,1609,1631,1649,1668,1689,1709,1730,1749,1769,1789,1809],"xSR":741.5,"ySR":469.95,"xT1":424.9,"yT1":0,"xT2":1058.1,"yT2":0,"toosoon":0,"cond_shown":"Incongruent","ratio_trial":100,"L_num":3,"L_den":6,"R_num":4,"R_den":10,"correct_side":1,"subjID":"JulianDavidRoaSanchez22","gender":"0","school":"4","age":"9"},{"start_time":1552327424270,"click_time":1552327426377,"finger_time":1552327425117,"fix_duration":250,"trial":20,"RT":847,"MT":1260,"sideResp":1,"stimulus":[],"xmouse":[797,796,796,795,795,795,795,795,795,795,795,795,795,795,795,795,795,795,795,795,795,795,795,795,795,795,795,795,795,795,795,795,796,797,800,801,801,801,800,797,792,785,776,764,749,746,745,745,745,745,745,745,745,745,745,746,747,747,747,747,747,747,747,745,731,716,697,674,649,640,639,635,631,625,621,619,616,613,610,602,597,591,584,577,564,557,551,548,547,545,539,529,520,510,503,502,501,500,500,500,500,500,500,500,500,500],"ymouse":[506,507,507,508,508,508,508,508,508,508,508,508,508,508,508,508,508,508,508,508,508,508,508,508,508,508,508,508,508,508,508,506,506,502,495,491,488,487,485,482,480,476,469,461,451,448,447,447,447,447,447,447,447,447,447,448,450,450,451,451,451,451,450,448,425,405,375,344,304,276,267,257,249,242,236,233,229,225,222,218,215,211,207,204,195,189,184,182,181,179,174,164,153,142,130,126,122,119,117,111,110,107,105,104,101,98],"timestamp_mouse":[14,38,47,66,88,107,128,148,167,187,208,227,248,267,297,307,328,347,367,387,408,426,448,467,487,507,527,547,568,587,607,626,647,668,686,707,727,747,767,787,807,827,847,867,887,907,927,947,968,988,1007,1027,1048,1067,1088,1107,1127,1148,1169,1188,1208,1228,1247,1266,1287,1308,1327,1348,1367,1387,1408,1427,1447,1467,1487,1507,1528,1547,1567,1587,1608,1627,1647,1668,1687,1707,1728,1747,1768,1787,1807,1827,1848,1868,1888,1908,1927,1948,1967,1988,2008,2028,2047,2068,2087,2107],"xSR":741.5,"ySR":469.95,"xT1":424.9,"yT1":0,"xT2":1058.1,"yT2":0,"toosoon":0,"cond_shown":"Incongruent","ratio_trial":200,"L_num":11,"L_den":20,"R_num":3,"R_den":4,"correct_side":2,"subjID":"JulianDavidRoaSanchez22","gender":"0","school":"4","age":"9"},{"start_time":1552327427941,"click_time":1552327429777,"finger_time":1552327429298,"fix_duration":722.1097544736829,"trial":21,"RT":1357,"MT":479,"sideResp":2,"stimulus":[],"xmouse":[798,798,798,798,798,798,798,798,798,798,798,798,798,798,798,803,806,809,812,813,814,815,815,815,815,815,815,815,814,813,813,813,813,812,812,812,811,810,810,809,809,809,809,809,809,809,809,809,809,809,809,809,809,809,809,809,809,809,809,808,808,808,808,808,808,808,808,814,830,860,913,929,940,945,948,953,974,989,1005,1026,1045,1057,1064,1065,1067,1075,1075,1075,1075,1074,1074,1072],"ymouse":[526,526,526,526,526,527,527,529,530,530,530,530,530,530,531,529,525,521,514,509,501,498,497,496,496,496,495,493,492,492,492,492,492,492,492,492,492,492,492,493,493,493,493,493,493,493,493,494,494,494,494,494,494,494,494,494,494,494,494,494,494,494,493,493,492,488,483,468,444,405,350,337,329,325,323,319,304,291,277,263,246,219,199,189,176,132,118,109,105,103,102,99],"timestamp_mouse":[16,36,55,76,97,116,137,155,176,197,216,237,256,276,297,316,337,356,376,397,416,436,456,477,497,516,537,556,577,597,616,637,656,676,696,716,737,756,777,796,816,837,856,876,896,917,937,957,977,996,1017,1037,1056,1076,1096,1117,1137,1157,1175,1196,1217,1237,1256,1276,1296,1317,1336,1357,1377,1396,1418,1436,1456,1476,1496,1517,1537,1557,1575,1597,1616,1636,1656,1676,1697,1718,1736,1756,1776,1796,1815,1836],"xSR":741.5,"ySR":469.95,"xT1":424.9,"yT1":0,"xT2":1058.1,"yT2":0,"toosoon":0,"cond_shown":"Congruent","ratio_trial":100,"L_num":12,"L_den":30,"R_num":13,"R_den":26,"correct_side":2,"subjID":"JulianDavidRoaSanchez22","gender":"0","school":"4","age":"9"},{"start_time":1552327431735,"click_time":1552327433859,"finger_time":1552327433277,"fix_duration":974.3023665067059,"trial":22,"RT":1542,"MT":582,"sideResp":1,"stimulus":[],"xmouse":[801,801,802,803,803,803,803,803,803,803,803,803,803,803,803,804,807,812,812,813,814,815,816,816,816,816,816,816,816,816,816,816,816,816,816,816,816,816,818,818,821,822,822,822,822,822,822,822,822,822,822,822,822,822,821,821,820,817,815,813,812,812,812,812,812,812,812,812,812,812,812,811,808,803,795,783,767,741,727,714,701,688,653,648,641,636,634,628,622,613,601,587,573,571,570,569,567,563,559,556,551,545,538,536,533,528,518],"ymouse":[545,545,543,542,542,542,542,542,542,542,542,542,542,542,542,541,539,536,535,535,535,535,535,535,535,535,535,535,535,535,535,535,535,535,535,535,535,535,529,525,507,498,493,493,493,493,493,493,493,493,493,493,493,494,495,496,498,504,508,511,513,513,513,513,513,513,513,513,513,513,513,514,514,514,510,499,483,439,416,395,376,361,311,303,296,292,291,285,278,269,252,222,168,157,151,146,141,132,126,122,117,111,105,103,101,98,92],"timestamp_mouse":[13,22,42,62,82,103,123,143,163,183,202,222,243,262,281,302,323,342,363,382,403,421,442,463,482,501,522,543,562,581,603,622,642,662,682,702,723,742,763,783,802,822,841,862,882,902,923,942,963,982,1002,1021,1042,1062,1083,1102,1123,1143,1161,1182,1202,1221,1243,1263,1282,1303,1322,1342,1362,1383,1401,1423,1442,1462,1483,1502,1522,1542,1563,1581,1601,1622,1642,1662,1682,1703,1722,1742,1763,1782,1802,1822,1842,1863,1881,1902,1923,1942,1962,1983,2002,2023,2042,2061,2083,2103,2123],"xSR":741.5,"ySR":469.95,"xT1":424.9,"yT1":0,"xT2":1058.1,"yT2":0,"toosoon":0,"cond_shown":"Congruent","ratio_trial":300,"L_num":8,"L_den":16,"R_num":1,"R_den":5,"correct_side":1,"subjID":"JulianDavidRoaSanchez22","gender":"0","school":"4","age":"9"},{"start_time":1552327435329,"click_time":1552327437098,"finger_time":1552327436738,"fix_duration":250,"trial":23,"RT":1409,"MT":360,"sideResp":2,"stimulus":[],"xmouse":[806,806,806,806,805,805,805,805,805,805,802,801,798,797,795,793,791,790,789,789,789,789,789,789,789,788,788,788,788,788,788,788,788,788,788,788,788,788,788,788,788,788,788,788,788,788,788,788,785,784,783,781,780,778,778,778,778,777,776,775,774,773,772,772,772,772,772,772,776,787,799,811,877,938,994,1040,1081,1115,1121,1123,1123,1123,1123,1123,1123,1121,1116,1111,1105],"ymouse":[503,503,503,503,510,521,533,552,554,554,553,550,544,542,539,533,528,526,525,525,525,525,525,525,524,523,523,523,523,523,523,523,523,523,523,523,523,523,523,523,523,523,523,523,523,523,523,525,530,533,538,544,550,553,553,553,551,544,540,537,533,529,523,522,521,520,515,510,496,477,461,432,338,295,272,252,233,212,207,204,203,201,193,163,128,118,109,102,93],"timestamp_mouse":[10,37,48,69,88,108,128,148,168,188,208,228,248,269,288,309,329,348,369,388,408,429,448,469,488,507,529,548,569,588,608,629,648,669,689,707,729,748,769,789,809,828,848,869,889,908,929,948,969,988,1008,1027,1049,1068,1088,1108,1129,1148,1168,1188,1208,1229,1248,1269,1289,1308,1329,1348,1369,1388,1409,1428,1449,1467,1488,1509,1529,1549,1569,1588,1608,1628,1649,1668,1688,1708,1728,1748,1769],"xSR":741.5,"ySR":469.95,"xT1":424.9,"yT1":0,"xT2":1058.1,"yT2":0,"toosoon":0,"cond_shown":"Incongruent","ratio_trial":300,"L_num":13,"L_den":26,"R_num":12,"R_den":15,"correct_side":2,"subjID":"JulianDavidRoaSanchez22","gender":"0","school":"4","age":"9"},{"start_time":1552327439504,"click_time":1552327441479,"finger_time":1552327440918,"fix_duration":1244.1446760424576,"trial":24,"RT":1414,"MT":561,"sideResp":1,"stimulus":[],"xmouse":[810,810,810,810,810,810,810,810,810,810,810,810,810,810,810,810,810,810,810,810,810,810,810,810,810,810,810,810,810,810,810,810,809,808,806,805,804,803,802,802,801,801,801,801,801,800,800,800,799,799,798,797,797,797,797,797,797,797,797,797,797,797,796,795,792,791,788,785,777,742,725,714,700,691,678,670,661,651,643,605,591,577,568,562,543,532,524,520,519,514,512,507,503,498,493,489,485,472,442],"ymouse":[534,534,534,534,534,534,534,534,534,534,534,534,534,534,534,534,534,534,534,534,534,534,534,534,534,534,534,534,534,534,534,534,534,534,534,534,534,534,533,533,533,532,532,532,532,532,532,532,532,532,532,532,532,532,532,532,532,532,532,532,532,531,531,530,526,525,523,521,517,471,404,351,321,306,281,269,258,248,240,220,214,208,203,195,174,164,156,153,151,141,139,135,132,130,126,123,121,113,90],"timestamp_mouse":[13,42,53,73,94,113,132,154,174,194,213,232,253,274,293,312,332,352,373,393,412,434,453,474,494,513,533,553,573,593,613,633,653,674,693,714,734,754,773,794,814,834,854,874,894,913,933,954,973,994,1013,1034,1053,1073,1093,1114,1133,1154,1174,1193,1212,1232,1254,1274,1293,1314,1332,1354,1373,1393,1414,1433,1453,1473,1493,1514,1534,1553,1574,1593,1613,1633,1654,1673,1693,1714,1733,1753,1773,1793,1814,1833,1854,1874,1894,1914,1934,1953,1974],"xSR":741.5,"ySR":469.95,"xT1":424.9,"yT1":0,"xT2":1058.1,"yT2":0,"toosoon":0,"cond_shown":"Incongruent","ratio_trial":100,"L_num":6,"L_den":10,"R_num":11,"R_den":22,"correct_side":1,"subjID":"JulianDavidRoaSanchez22","gender":"0","school":"4","age":"9"},{"start_time":1552327444740,"click_time":1552327446838,"finger_time":1552327446177,"fix_duration":922.6616792031302,"trial":25,"RT":1437,"MT":661,"sideResp":2,"stimulus":[],"xmouse":[800,800,800,800,800,800,800,800,800,801,801,803,803,803,803,803,803,803,803,803,803,803,803,803,803,803,803,803,803,803,803,803,803,804,804,804,805,805,805,805,805,805,805,806,806,806,806,806,806,806,805,804,804,804,804,804,804,804,804,804,804,804,803,802,802,802,802,805,810,818,831,845,905,983,1028,1054,1067,1072,1072,1072,1072,1072,1072,1071,1064,1060,1057,1056,1056,1056,1056,1053,1047,1046,1046,1046,1046,1049,1050,1051,1052,1054,1055,1058,1059],"ymouse":[535,535,535,535,535,535,535,535,535,533,532,530,530,530,530,530,530,530,530,530,530,530,530,530,530,530,530,530,530,530,530,530,530,530,530,530,530,530,530,530,530,530,530,530,531,532,532,532,532,532,532,533,533,533,533,533,533,533,533,533,533,533,533,533,533,533,532,525,516,503,487,468,421,384,359,343,332,308,297,290,282,275,270,261,251,245,239,218,202,185,169,153,127,113,103,90,80,68,65,60,59,57,56,53,52],"timestamp_mouse":[17,37,58,77,98,117,138,157,176,198,218,238,257,276,298,318,337,357,378,398,418,437,458,478,498,518,537,557,577,597,617,637,657,677,697,717,738,757,777,797,818,838,857,876,897,917,938,957,977,997,1018,1037,1058,1078,1098,1117,1138,1156,1177,1198,1218,1237,1257,1277,1297,1317,1337,1358,1378,1398,1417,1437,1458,1477,1497,1517,1538,1559,1577,1597,1617,1638,1659,1677,1698,1717,1737,1758,1777,1798,1818,1838,1859,1876,1897,1917,1937,1959,1978,1998,2017,2037,2057,2076,2098],"xSR":741.5,"ySR":469.95,"xT1":424.9,"yT1":0,"xT2":1058.1,"yT2":0,"toosoon":0,"cond_shown":"Incongruent","ratio_trial":300,"L_num":1,"L_den":2,"R_num":2,"R_den":10,"correct_side":1,"subjID":"JulianDavidRoaSanchez22","gender":"0","school":"4","age":"9"},{"start_time":1552327451951,"click_time":1552327454018,"finger_time":1552327453258,"fix_duration":250,"trial":26,"RT":1307,"MT":760,"sideResp":2,"stimulus":[],"xmouse":[783,784,784,784,784,784,784,784,784,784,784,784,784,784,784,784,784,784,784,784,784,784,784,784,784,784,784,784,784,784,784,782,781,781,781,781,781,781,781,781,781,781,781,781,781,781,781,781,781,781,781,781,780,780,780,780,780,780,780,783,787,791,794,803,809,816,824,833,857,871,884,906,917,937,945,952,958,965,978,982,987,992,996,1004,1009,1020,1023,1025,1037,1045,1046,1046,1046,1046,1047,1047,1048,1049,1049,1051,1054,1056,1058,1059],"ymouse":[553,551,551,549,548,548,548,548,548,548,548,548,548,548,548,548,548,548,548,548,547,546,543,542,541,540,540,540,540,544,547,554,558,564,566,566,566,566,566,566,564,564,564,563,563,563,563,563,563,563,563,562,559,557,554,553,551,547,539,532,524,515,507,489,474,460,443,426,384,361,338,297,270,229,213,200,188,176,156,145,131,120,111,102,91,81,77,73,58,48,46,45,45,45,44,44,44,44,44,44,44,44,44,44],"timestamp_mouse":[9,44,47,67,87,106,126,147,166,185,207,226,246,266,286,307,325,347,367,387,406,427,446,466,487,505,527,546,566,587,606,626,647,666,686,706,726,747,766,786,806,827,846,866,887,907,927,947,966,986,1006,1027,1047,1066,1086,1107,1127,1147,1167,1186,1207,1227,1247,1266,1286,1307,1327,1347,1367,1386,1406,1426,1446,1467,1485,1506,1527,1546,1567,1586,1607,1626,1647,1667,1686,1706,1727,1747,1767,1787,1807,1826,1847,1867,1887,1906,1927,1946,1966,1986,2006,2027,2047,2066],"xSR":741.5,"ySR":469.95,"xT1":424.9,"yT1":0,"xT2":1058.1,"yT2":0,"toosoon":0,"cond_shown":"Incongruent","ratio_trial":300,"L_num":13,"L_den":26,"R_num":12,"R_den":15,"correct_side":2,"subjID":"JulianDavidRoaSanchez22","gender":"0","school":"4","age":"9"},{"start_time":1552327457389,"click_time":1552327459617,"finger_time":1552327458737,"fix_duration":350.89140618823376,"trial":27,"RT":1348,"MT":880,"sideResp":1,"stimulus":[],"xmouse":[792,792,792,792,792,792,791,789,788,786,785,785,785,785,785,785,785,784,784,784,784,783,783,783,783,783,783,783,783,783,783,783,783,783,783,783,783,783,783,783,783,783,783,783,783,783,783,783,783,783,783,782,782,782,782,781,780,779,778,777,777,776,772,769,764,754,743,718,715,713,713,713,713,713,713,713,713,713,713,713,713,713,713,713,713,713,713,713,713,713,713,713,713,713,713,713,713,713,712,710,706,697,659,639,611,577,528,498,489,481,472,465],"ymouse":[545,545,545,546,546,547,548,549,550,552,553,553,553,553,553,553,553,553,553,552,551,551,551,551,551,551,551,551,551,550,549,548,545,544,543,542,541,541,541,541,541,541,541,541,541,541,541,541,541,540,540,540,540,540,539,539,539,538,538,538,537,537,536,532,525,512,497,463,458,451,447,442,440,440,440,440,442,447,448,448,448,448,448,448,448,447,442,439,438,437,436,436,433,431,428,424,420,412,406,395,381,367,320,297,267,238,199,161,142,123,102,85],"timestamp_mouse":[14,27,48,68,89,108,128,148,169,188,209,228,248,267,289,309,329,349,367,389,408,428,447,468,489,509,529,549,569,588,609,629,649,668,688,709,729,749,767,789,809,828,849,869,888,908,928,949,969,988,1009,1028,1049,1069,1088,1109,1128,1148,1169,1189,1209,1228,1248,1269,1289,1309,1328,1348,1368,1388,1409,1428,1448,1467,1488,1508,1528,1548,1568,1588,1607,1629,1649,1668,1689,1709,1728,1748,1768,1789,1809,1829,1848,1868,1888,1908,1929,1949,1969,1989,2008,2028,2048,2068,2088,2108,2128,2148,2169,2189,2209,2227],"xSR":741.5,"ySR":469.95,"xT1":424.9,"yT1":0,"xT2":1058.1,"yT2":0,"toosoon":0,"cond_shown":"Incongruent","ratio_trial":200,"L_num":7,"L_den":10,"R_num":8,"R_den":16,"correct_side":1,"subjID":"JulianDavidRoaSanchez22","gender":"0","school":"4","age":"9"},{"start_time":1552327461453,"click_time":1552327463439,"finger_time":1552327462938,"fix_duration":854.3340737202055,"trial":28,"RT":1485,"MT":501,"sideResp":1,"stimulus":[],"xmouse":[798,798,798,798,798,798,798,798,798,797,797,796,795,795,795,795,795,795,795,795,795,795,795,795,794,794,793,793,793,793,793,793,793,793,793,793,793,792,790,790,789,789,788,787,787,786,786,786,786,786,786,786,786,786,787,787,787,787,787,787,787,788,788,788,788,788,788,788,788,788,788,787,775,748,619,583,568,561,556,545,537,531,526,512,486,452,447,445,443,439,437,436,435,435,435,435,436,437,439,441],"ymouse":[550,550,550,549,546,546,546,546,545,544,541,538,535,534,533,533,533,533,533,533,533,533,533,533,531,530,529,529,529,529,529,529,529,529,529,529,529,528,525,524,521,520,516,514,511,510,510,510,510,510,510,510,510,509,509,509,509,509,509,509,509,509,509,509,509,509,509,509,509,509,509,507,506,499,434,408,395,388,380,346,328,313,307,291,261,209,197,186,179,173,169,168,162,154,143,139,135,124,107,87],"timestamp_mouse":[12,36,43,65,84,105,124,144,164,184,204,223,244,265,283,304,325,344,364,384,404,424,445,465,484,504,524,545,564,584,604,624,645,663,684,705,725,744,765,785,805,825,844,865,884,905,925,945,963,984,1004,1023,1044,1065,1084,1105,1125,1145,1165,1184,1216,1225,1244,1263,1284,1304,1325,1343,1364,1384,1403,1424,1445,1465,1485,1504,1524,1545,1564,1585,1604,1624,1644,1664,1684,1705,1725,1744,1764,1785,1803,1824,1844,1865,1886,1904,1924,1945,1964,1986],"xSR":741.5,"ySR":469.95,"xT1":424.9,"yT1":0,"xT2":1058.1,"yT2":0,"toosoon":0,"cond_shown":"Congruent","ratio_trial":100,"L_num":11,"L_den":22,"R_num":6,"R_den":15,"correct_side":1,"subjID":"JulianDavidRoaSanchez22","gender":"0","school":"4","age":"9"},{"start_time":1552327471352,"click_time":1552327473177,"finger_time":1552327472718,"fix_duration":974.4155823068551,"trial":29,"RT":1366,"MT":459,"sideResp":2,"stimulus":[],"xmouse":[788,790,790,790,790,790,790,790,790,790,790,790,790,790,790,790,790,790,790,790,790,790,790,790,790,790,790,790,790,790,790,790,790,790,790,790,790,790,790,790,790,790,790,790,790,790,790,790,790,790,790,790,790,790,790,790,790,790,790,790,790,790,790,790,790,790,790,790,791,797,836,860,879,899,906,910,919,921,923,925,927,927,927,929,931,936,948,958,970,985,1030,1062],"ymouse":[514,507,507,506,505,505,505,505,505,505,505,505,505,505,505,505,505,505,505,505,505,505,505,505,505,505,505,505,505,505,505,505,505,505,505,505,505,505,505,503,503,503,503,503,503,503,502,502,502,502,502,502,502,502,502,501,501,501,501,501,501,501,501,501,500,495,489,481,469,457,414,393,375,351,336,322,286,268,246,225,202,154,139,125,117,108,96,91,87,83,69,59],"timestamp_mouse":[6,40,45,65,86,105,125,146,166,186,205,225,244,265,286,304,325,346,366,385,405,426,445,465,485,505,526,546,565,586,605,624,646,665,685,705,726,746,766,786,806,826,846,866,885,906,925,946,966,985,1006,1025,1046,1065,1085,1106,1126,1145,1165,1186,1206,1226,1245,1266,1286,1306,1326,1346,1366,1385,1407,1425,1445,1465,1486,1505,1526,1545,1566,1585,1607,1625,1646,1666,1686,1706,1725,1746,1765,1785,1806,1825],"xSR":741.5,"ySR":469.95,"xT1":424.9,"yT1":0,"xT2":1058.1,"yT2":0,"toosoon":0,"cond_shown":"Congruent","ratio_trial":300,"L_num":4,"L_den":20,"R_num":13,"R_den":26,"correct_side":2,"subjID":"JulianDavidRoaSanchez22","gender":"0","school":"4","age":"9"},{"start_time":1552327474760,"click_time":1552327476438,"finger_time":1552327476077,"fix_duration":540.2794992876247,"trial":30,"RT":1317,"MT":361,"sideResp":2,"stimulus":[],"xmouse":[813,813,813,813,813,813,813,813,813,813,813,812,812,812,812,812,812,812,812,812,811,811,810,810,810,810,809,809,809,808,808,808,808,808,808,808,808,808,808,808,808,808,808,808,808,808,808,808,808,808,808,808,808,808,808,808,808,808,808,808,808,808,808,808,815,866,901,918,926,927,933,936,940,945,947,953,958,963,970,990,1049,1071,1086,1094],"ymouse":[532,532,532,532,532,532,532,532,532,532,532,532,532,532,532,532,532,532,532,532,532,532,532,531,531,531,531,531,530,529,528,528,528,528,528,528,529,529,529,529,529,529,529,529,529,529,529,529,529,529,529,529,529,529,529,529,529,529,529,529,529,529,529,527,520,458,395,359,316,296,261,246,232,219,205,176,165,158,154,145,122,111,102,96],"timestamp_mouse":[17,38,58,77,98,117,136,157,178,198,218,237,258,277,296,317,337,357,378,397,417,438,457,478,497,518,536,556,576,597,617,637,658,678,697,718,737,757,778,797,818,838,858,877,897,918,936,957,976,997,1017,1038,1057,1078,1097,1117,1138,1157,1177,1198,1217,1238,1258,1277,1297,1317,1337,1358,1377,1398,1416,1436,1457,1477,1498,1517,1537,1558,1577,1597,1617,1638,1656,1678],"xSR":741.5,"ySR":469.95,"xT1":424.9,"yT1":0,"xT2":1058.1,"yT2":0,"toosoon":0,"cond_shown":"Incongruent","ratio_trial":200,"L_num":9,"L_den":15,"R_num":8,"R_den":10,"correct_side":2,"subjID":"JulianDavidRoaSanchez22","gender":"0","school":"4","age":"9"},{"start_time":1552327481070,"click_time":1552327483897,"finger_time":1552327483037,"fix_duration":250,"trial":31,"RT":1967,"MT":860,"sideResp":1,"stimulus":[],"xmouse":[805,805,805,805,805,805,805,805,805,805,805,805,805,805,805,805,805,805,805,805,805,805,805,805,805,805,805,805,804,804,804,804,804,804,804,804,804,804,804,804,804,804,804,803,803,803,803,803,803,803,803,802,801,801,801,801,801,801,801,801,801,801,801,801,801,801,801,801,800,799,796,786,782,781,781,781,781,781,781,781,781,781,781,781,781,781,781,781,781,781,781,781,781,781,780,778,775,763,726,670,597,557,533,515,505,498,486,480,475,474,474,485,490,493,494,495,492,488,482,479,476,474,473,472,472,472,482,487,489,489,489,489,489,489,489,489,489,488,488,488,491,496],"ymouse":[523,523,523,523,523,523,523,523,523,523,523,523,523,523,523,524,524,524,524,524,524,524,524,524,524,524,525,526,527,527,528,528,528,528,528,528,528,528,529,529,529,529,529,530,530,530,530,530,530,530,530,530,530,530,530,530,530,530,530,530,530,530,530,530,530,530,530,530,530,531,532,537,539,540,540,540,540,540,540,540,540,540,540,540,540,540,540,540,540,540,540,540,540,540,539,536,533,519,484,440,399,380,370,363,359,353,347,343,337,330,320,290,277,264,255,242,222,211,198,190,186,181,178,175,169,161,146,141,139,139,138,134,133,133,132,131,125,122,117,112,104,84],"timestamp_mouse":[13,37,48,68,86,107,128,146,167,187,208,228,248,266,288,308,327,346,368,388,408,428,448,467,486,507,527,547,568,587,607,628,648,667,686,707,728,748,767,788,808,827,848,867,887,908,926,948,968,987,1008,1027,1048,1067,1088,1108,1128,1147,1168,1187,1207,1228,1247,1268,1287,1308,1328,1347,1367,1387,1406,1427,1448,1468,1488,1508,1528,1548,1567,1588,1608,1627,1647,1666,1688,1707,1728,1747,1768,1788,1808,1828,1847,1867,1887,1908,1928,1947,1967,1988,2009,2026,2048,2066,2086,2107,2126,2147,2167,2187,2209,2227,2248,2267,2287,2307,2328,2347,2368,2388,2407,2427,2448,2466,2486,2507,2526,2547,2568,2588,2609,2627,2647,2667,2688,2708,2727,2747,2768,2788,2807,2827],"xSR":741.5,"ySR":469.95,"xT1":424.9,"yT1":0,"xT2":1058.1,"yT2":0,"toosoon":0,"cond_shown":"Congruent","ratio_trial":200,"L_num":4,"L_den":10,"R_num":3,"R_den":15,"correct_side":1,"subjID":"JulianDavidRoaSanchez22","gender":"0","school":"4","age":"9"},{"start_time":1552327485412,"click_time":1552327487438,"finger_time":1552327486777,"fix_duration":250,"trial":32,"RT":1365,"MT":661,"sideResp":2,"stimulus":[],"xmouse":[774,774,774,774,774,774,774,774,774,774,774,774,774,774,774,774,774,774,774,774,774,774,774,774,774,774,774,774,774,774,774,774,775,775,775,775,775,775,775,775,775,775,775,775,775,775,775,775,775,775,775,775,775,775,775,775,775,775,775,775,775,775,775,775,775,777,782,789,799,815,819,824,839,849,864,871,877,882,888,901,908,916,926,932,943,948,953,961,968,983,992,994,997,999,1013,1025,1036,1044,1050,1053,1056,1060],"ymouse":[526,526,526,526,526,526,526,526,526,526,526,526,526,526,526,526,526,526,526,526,526,526,526,526,526,526,526,526,526,526,526,526,526,525,523,522,522,522,522,522,522,522,522,522,522,522,522,522,522,522,522,522,522,522,522,522,522,522,522,522,522,522,522,522,522,517,505,488,467,421,395,362,308,282,247,231,217,205,192,170,160,152,137,129,113,104,97,88,82,70,65,63,61,59,53,47,42,39,36,34,32,30],"timestamp_mouse":[11,26,46,68,86,106,127,146,166,187,206,225,247,267,286,307,327,346,367,386,407,425,447,466,487,505,526,547,567,587,606,626,646,666,685,706,726,746,765,786,806,826,847,865,885,906,926,947,966,986,1006,1026,1045,1066,1086,1107,1126,1147,1166,1185,1206,1227,1246,1267,1286,1307,1327,1346,1365,1387,1406,1427,1447,1467,1486,1506,1527,1546,1566,1587,1605,1625,1647,1665,1686,1705,1726,1747,1766,1787,1805,1827,1846,1867,1887,1907,1926,1946,1966,1986,2008,2026],"xSR":741.5,"ySR":469.95,"xT1":424.9,"yT1":0,"xT2":1058.1,"yT2":0,"toosoon":0,"cond_shown":"Incongruent","ratio_trial":100,"L_num":11,"L_den":22,"R_num":9,"R_den":15,"correct_side":2,"subjID":"JulianDavidRoaSanchez22","gender":"0","school":"4","age":"9"},{"start_time":1552327488910,"click_time":1552327491237,"finger_time":1552327490618,"fix_duration":250,"trial":33,"RT":1708,"MT":619,"sideResp":2,"stimulus":[],"xmouse":[799,799,799,798,798,797,797,797,798,798,798,798,798,798,798,798,798,798,799,799,799,799,799,800,800,798,796,795,794,794,794,794,794,794,794,794,794,794,794,794,794,794,794,794,794,794,794,794,794,794,794,794,794,793,793,793,793,793,793,793,793,793,793,793,793,793,793,793,793,793,793,793,793,793,793,793,793,793,793,793,793,794,801,811,820,846,857,860,860,860,861,862,864,867,868,877,881,888,896,911,933,946,958,964,969,971,975,979,983,999,1013,1024,1034,1042,1051,1058,1061],"ymouse":[526,527,527,528,528,528,530,530,531,533,535,535,536,536,536,536,536,536,536,536,536,536,536,536,534,532,530,529,529,529,529,529,529,529,529,529,529,529,529,529,529,529,529,529,529,529,529,529,529,529,529,529,529,528,528,528,528,528,528,528,528,528,528,528,528,528,528,528,528,528,528,528,528,528,528,528,528,528,528,528,528,525,515,498,476,390,340,300,272,244,177,151,129,112,99,85,80,72,65,57,43,37,33,31,31,30,29,28,27,25,23,21,20,19,18,18,18],"timestamp_mouse":[15,37,48,67,88,108,129,148,168,188,209,228,247,269,288,309,329,347,368,389,408,427,449,467,489,509,529,548,568,587,608,627,648,668,689,708,729,748,768,789,807,828,849,868,889,907,927,947,968,988,1008,1028,1048,1068,1089,1109,1128,1147,1169,1189,1209,1228,1247,1268,1289,1309,1329,1347,1368,1389,1408,1428,1449,1468,1489,1508,1529,1548,1568,1589,1609,1628,1648,1668,1688,1708,1729,1748,1767,1787,1808,1829,1849,1869,1888,1908,1928,1948,1969,1988,2008,2029,2049,2069,2090,2107,2128,2149,2168,2189,2207,2229,2249,2268,2290,2307,2327],"xSR":741.5,"ySR":469.95,"xT1":424.9,"yT1":0,"xT2":1058.1,"yT2":0,"toosoon":0,"cond_shown":"Incongruent","ratio_trial":200,"L_num":7,"L_den":15,"R_num":6,"R_den":9,"correct_side":2,"subjID":"JulianDavidRoaSanchez22","gender":"0","school":"4","age":"9"},{"start_time":1552327492783,"click_time":1552327494918,"finger_time":1552327494179,"fix_duration":304.61045255889485,"trial":34,"RT":1396,"MT":739,"sideResp":2,"stimulus":[],"xmouse":[817,817,817,817,816,816,815,813,812,811,810,809,808,808,807,807,807,807,807,807,807,807,807,807,807,807,807,807,807,807,807,807,807,807,807,807,807,807,807,807,807,807,807,807,807,807,807,807,807,807,807,807,807,807,807,807,807,807,807,807,807,807,807,807,807,806,807,815,826,847,859,869,876,881,883,885,889,891,893,897,900,904,905,908,912,918,943,954,965,974,985,1000,1006,1012,1016,1019,1023,1025,1029,1034,1039,1042,1043,1047,1051,1057,1067],"ymouse":[546,546,546,546,546,546,546,545,545,545,544,544,544,544,544,544,544,544,544,544,544,544,544,544,544,544,544,544,544,544,544,544,544,544,544,544,544,544,544,544,544,544,544,544,544,544,544,544,544,544,544,544,544,544,544,544,544,544,544,544,544,544,544,544,544,543,533,511,483,430,399,359,341,325,311,298,282,276,269,264,260,253,251,246,236,221,177,159,141,126,105,85,78,69,66,63,61,61,61,61,61,61,62,64,65,67,67],"timestamp_mouse":[16,38,55,75,95,116,136,155,176,196,215,235,256,275,295,314,336,356,375,395,414,436,455,475,494,515,536,555,575,595,615,636,654,676,696,715,736,754,775,795,815,836,856,875,894,914,936,956,976,994,1014,1034,1056,1075,1094,1116,1134,1156,1176,1194,1216,1235,1256,1275,1296,1315,1335,1356,1376,1396,1416,1435,1454,1474,1496,1516,1534,1556,1575,1595,1614,1634,1654,1675,1695,1715,1735,1756,1776,1795,1816,1835,1855,1875,1895,1916,1935,1956,1976,1995,2016,2035,2056,2075,2096,2115,2134],"xSR":741.5,"ySR":469.95,"xT1":424.9,"yT1":0,"xT2":1058.1,"yT2":0,"toosoon":0,"cond_shown":"Incongruent","ratio_trial":200,"L_num":4,"L_den":5,"R_num":6,"R_den":10,"correct_side":1,"subjID":"JulianDavidRoaSanchez22","gender":"0","school":"4","age":"9"},{"start_time":1552327498044,"click_time":1552327499720,"finger_time":1552327499339,"fix_duration":1424.701058383182,"trial":35,"RT":1295,"MT":381,"sideResp":2,"stimulus":[],"xmouse":[768,768,768,768,768,768,768,768,768,768,768,768,768,768,768,768,768,768,768,768,767,767,767,767,767,767,767,767,767,767,767,767,767,767,766,764,763,762,762,762,760,760,760,760,760,760,760,760,760,760,759,759,759,759,759,759,759,759,759,759,759,759,759,759,767,776,790,804,850,884,937,988,1021,1041,1044,1044,1044,1044,1044,1045,1046,1047,1051,1074],"ymouse":[541,541,541,539,538,536,534,533,530,528,527,526,524,523,523,523,523,523,523,523,521,521,521,521,521,521,521,521,521,521,521,521,521,521,520,518,517,515,515,515,515,515,515,515,515,514,511,509,508,506,506,505,505,505,505,505,505,505,505,505,505,501,497,488,443,417,386,353,266,205,134,79,46,23,15,14,13,13,12,10,10,9,9,9],"timestamp_mouse":[20,44,55,74,94,113,134,155,174,195,214,234,254,274,295,313,335,354,374,394,415,435,453,473,495,513,533,554,573,593,615,633,654,673,695,715,735,754,773,795,815,834,853,873,895,914,935,954,975,995,1014,1034,1055,1075,1093,1113,1135,1153,1174,1195,1214,1233,1254,1273,1295,1314,1334,1355,1376,1393,1414,1433,1454,1474,1494,1514,1535,1554,1574,1594,1614,1635,1654,1676],"xSR":741.5,"ySR":469.95,"xT1":424.9,"yT1":0,"xT2":1058.1,"yT2":0,"toosoon":0,"cond_shown":"Incongruent","ratio_trial":300,"L_num":8,"L_den":10,"R_num":9,"R_den":18,"correct_side":1,"subjID":"JulianDavidRoaSanchez22","gender":"0","school":"4","age":"9"},{"start_time":1552327503000,"click_time":1552327504879,"finger_time":1552327504337,"fix_duration":501.4134463713951,"trial":36,"RT":1337,"MT":542,"sideResp":2,"stimulus":[],"xmouse":[778,778,778,778,778,778,778,778,778,778,778,778,778,778,778,778,778,778,778,778,778,778,778,778,778,778,778,778,777,777,777,777,777,777,777,777,777,777,777,777,777,777,777,777,777,777,777,777,777,777,777,777,777,777,777,777,777,777,777,777,777,777,777,777,777,777,789,793,800,806,812,824,832,841,855,868,890,898,907,914,922,938,947,953,959,968,973,990,999,1009,1019,1040,1050,1063],"ymouse":[530,530,530,530,530,530,530,530,530,530,530,530,530,530,530,530,530,530,530,530,530,530,530,530,530,530,530,530,529,528,528,528,528,528,528,528,528,528,528,528,528,528,528,528,528,528,528,528,528,528,528,528,528,528,528,528,528,528,528,528,528,528,528,527,516,498,453,432,412,391,372,346,331,319,304,292,267,256,242,229,213,180,161,144,130,113,103,82,72,65,59,50,46,43],"timestamp_mouse":[17,39,59,77,98,118,137,158,179,199,218,239,257,279,299,318,337,359,379,399,418,438,457,477,498,519,537,558,579,598,618,639,657,679,697,718,738,757,779,799,819,838,857,879,898,919,938,957,979,999,1019,1038,1058,1078,1097,1119,1138,1158,1179,1198,1217,1237,1258,1279,1299,1317,1337,1357,1378,1399,1418,1439,1457,1478,1499,1518,1539,1558,1578,1599,1619,1639,1659,1679,1697,1718,1738,1759,1778,1798,1818,1839,1857,1879],"xSR":741.5,"ySR":469.95,"xT1":424.9,"yT1":0,"xT2":1058.1,"yT2":0,"toosoon":0,"cond_shown":"Congruent","ratio_trial":200,"L_num":9,"L_den":30,"R_num":13,"R_den":26,"correct_side":2,"subjID":"JulianDavidRoaSanchez22","gender":"0","school":"4","age":"9"},{"start_time":1552327506470,"click_time":1552327508538,"finger_time":1552327508118,"fix_duration":250,"trial":37,"RT":1648,"MT":420,"sideResp":2,"stimulus":[],"xmouse":[831,831,831,829,828,827,826,825,825,825,825,825,825,825,825,825,824,824,824,824,824,824,823,822,822,821,821,821,820,820,820,820,820,820,820,820,820,820,820,820,820,820,820,820,820,819,819,817,815,811,806,806,806,806,806,806,806,806,804,804,803,801,801,801,801,798,794,792,790,789,789,789,789,788,787,786,786,785,783,777,776,775,774,774,778,782,790,798,809,841,854,866,879,894,919,929,941,952,962,995,1011,1030,1048,1064],"ymouse":[504,504,504,502,501,500,500,499,499,499,499,499,499,499,499,499,499,499,499,499,499,499,499,499,499,499,499,499,500,500,501,502,503,504,504,504,504,504,504,504,504,504,504,504,504,506,506,507,510,514,520,521,521,521,521,521,521,521,521,521,522,522,522,522,522,522,522,522,521,521,521,521,521,520,517,511,506,500,494,484,480,474,466,454,431,418,401,383,365,319,302,284,268,251,222,210,196,184,172,140,127,114,99,88],"timestamp_mouse":[13,36,48,68,88,109,128,149,169,188,208,228,249,269,288,307,337,349,367,388,409,428,447,468,488,509,528,549,568,589,609,629,648,669,688,707,728,748,768,788,809,829,849,868,888,907,927,948,969,989,1008,1028,1047,1068,1088,1109,1129,1148,1169,1189,1208,1229,1249,1268,1288,1308,1329,1348,1369,1388,1407,1429,1449,1468,1489,1508,1529,1547,1568,1589,1608,1628,1648,1669,1689,1709,1729,1749,1768,1788,1808,1828,1848,1869,1888,1908,1928,1948,1969,1988,2008,2028,2049,2068],"xSR":741.5,"ySR":469.95,"xT1":424.9,"yT1":0,"xT2":1058.1,"yT2":0,"toosoon":0,"cond_shown":"Incongruent","ratio_trial":100,"L_num":4,"L_den":8,"R_num":8,"R_den":20,"correct_side":1,"subjID":"JulianDavidRoaSanchez22","gender":"0","school":"4","age":"9"},{"start_time":1552327512088,"click_time":1552327514977,"finger_time":1552327512258,"fix_duration":1267.7580605112285,"trial":38,"RT":170,"MT":2719,"sideResp":2,"stimulus":[],"xmouse":[825,825,825,825,825,825,815,790,712,688,685,687,688,693,695,695,695,695,695,704,712,721,730,739,744,750,753,756,758,758,758,758,758,758,758,758,758,758,758,758,758,758,758,758,758,758,758,758,751,748,747,747,747,747,747,746,746,746,747,749,750,752,754,754,755,757,758,762,767,768,770,773,775,778,779,780,781,782,783,783,784,784,784,784,784,784,784,779,775,761,752,743,735,724,719,715,711,710,708,707,707,707,706,706,705,704,704,704,704,703,703,703,703,703,703,703,703,704,712,719,728,741,757,797,822,855,894,922,970,993,1010,1028,1043,1058,1067,1068,1069,1069,1073,1075,1081,1085,1089,1099,1104],"ymouse":[495,495,495,495,495,495,491,489,486,486,485,482,481,483,487,495,500,506,509,513,516,519,521,521,521,518,514,511,504,501,500,499,499,499,499,499,499,499,499,499,499,498,496,494,494,494,494,494,503,505,506,506,506,506,507,507,507,507,507,507,507,507,506,506,506,506,506,506,506,506,506,506,506,506,506,506,506,505,505,505,504,504,504,504,503,503,502,497,494,484,481,476,473,465,462,460,457,457,456,455,454,454,454,454,453,451,451,450,449,449,448,448,447,447,446,445,442,439,428,419,411,399,387,359,341,317,291,275,244,225,212,196,184,170,156,149,145,143,132,127,118,111,108,100,96],"timestamp_mouse":[13,39,51,69,91,109,130,150,170,191,209,230,251,269,290,309,329,350,370,391,410,431,450,470,489,511,530,550,570,590,611,630,650,670,689,709,730,750,770,791,811,831,849,870,891,911,931,949,970,991,1010,1031,1050,1070,1090,1111,1130,1151,1170,1190,1210,1229,1251,1270,1290,1311,1330,1351,1370,1391,1409,1430,1451,1469,1490,1510,1529,1550,1570,1590,1610,1630,1651,1670,1690,1710,1731,1751,1770,1790,1810,1831,1851,1871,1889,1909,1930,1951,1971,1991,2009,2030,2051,2071,2091,2110,2130,2150,2170,2190,2210,2231,2250,2271,2289,2310,2331,2350,2370,2390,2410,2431,2449,2471,2490,2511,2530,2551,2570,2589,2610,2631,2649,2671,2689,2710,2731,2750,2771,2789,2810,2831,2850,2871,2889],"xSR":741.5,"ySR":469.95,"xT1":424.9,"yT1":0,"xT2":1058.1,"yT2":0,"toosoon":0,"cond_shown":"Incongruent","ratio_trial":200,"L_num":4,"L_den":5,"R_num":6,"R_den":10,"correct_side":1,"subjID":"JulianDavidRoaSanchez22","gender":"0","school":"4","age":"9"},{"start_time":1552327518061,"click_time":1552327519638,"finger_time":1552327518899,"fix_duration":541.0755085375426,"trial":39,"RT":838,"MT":739,"sideResp":1,"stimulus":[],"xmouse":[831,835,836,837,838,838,839,839,839,840,840,840,840,840,840,840,840,840,839,839,839,839,839,839,839,839,838,837,836,836,835,833,831,828,824,822,820,817,811,790,775,759,742,726,690,680,677,676,676,676,675,675,675,675,675,675,675,674,672,657,642,624,603,585,548,545,544,544,549,551,551,551,550,543,531,525,521,517],"ymouse":[519,521,522,523,524,524,525,525,527,527,527,527,527,527,527,527,527,527,526,526,526,526,526,526,525,523,523,522,521,521,519,518,514,509,505,503,501,498,494,479,467,456,444,436,420,417,417,416,416,416,416,416,416,416,416,416,416,414,413,404,396,383,364,340,246,223,209,197,174,153,148,142,137,127,112,106,101,97],"timestamp_mouse":[40,58,77,96,118,137,157,177,198,218,236,257,278,298,316,338,357,377,397,418,436,458,476,497,518,537,557,578,598,617,637,657,677,697,717,736,757,778,797,817,838,857,877,896,916,938,958,977,998,1017,1038,1058,1077,1098,1117,1137,1158,1178,1197,1218,1236,1257,1278,1297,1317,1338,1358,1377,1398,1417,1437,1456,1477,1497,1516,1538,1558,1577],"xSR":741.5,"ySR":469.95,"xT1":424.9,"yT1":0,"xT2":1058.1,"yT2":0,"toosoon":0,"cond_shown":"Congruent","ratio_trial":200,"L_num":20,"L_den":25,"R_num":9,"R_den":15,"correct_side":1,"subjID":"JulianDavidRoaSanchez22","gender":"0","school":"4","age":"9"},{"start_time":1552327521960,"click_time":1552327523938,"finger_time":1552327523258,"fix_duration":1440.2604897825884,"trial":40,"RT":1298,"MT":680,"sideResp":2,"stimulus":[],"xmouse":[756,756,756,756,756,756,756,756,756,756,756,756,756,756,756,756,756,756,756,756,756,756,756,756,756,756,756,756,756,756,756,756,756,756,756,756,756,756,756,756,756,756,756,756,756,756,756,756,756,756,756,756,756,756,756,756,756,756,756,756,757,757,759,760,763,779,799,834,902,945,990,1059,1084,1101,1114,1129,1135,1142,1148,1153,1159,1159,1159,1159,1159,1157,1154,1151,1149,1147,1145,1143,1142,1140,1137,1135,1130,1128,1123],"ymouse":[476,476,476,476,476,476,476,476,476,476,476,476,476,476,476,476,476,476,476,476,476,476,476,476,476,476,476,476,476,476,476,476,476,476,476,476,476,476,476,476,476,476,476,476,476,476,476,476,476,476,476,476,476,476,476,476,476,476,474,474,474,473,472,470,466,450,433,401,346,309,272,219,199,187,178,168,164,160,156,152,147,144,141,140,136,134,128,125,121,119,114,110,107,106,105,105,103,101,99],"timestamp_mouse":[19,38,57,79,98,118,137,158,177,197,217,237,258,278,299,318,338,357,377,399,418,439,459,479,498,517,539,558,577,599,618,637,657,678,698,718,738,758,778,797,818,839,858,879,898,917,938,958,979,998,1018,1038,1057,1079,1099,1118,1137,1158,1179,1198,1218,1238,1259,1278,1298,1319,1338,1358,1379,1398,1419,1439,1459,1478,1498,1518,1539,1559,1578,1598,1618,1637,1658,1679,1698,1719,1737,1758,1779,1799,1818,1838,1858,1877,1898,1919,1938,1958,1978],"xSR":741.5,"ySR":469.95,"xT1":424.9,"yT1":0,"xT2":1058.1,"yT2":0,"toosoon":0,"cond_shown":"Incongruent","ratio_trial":200,"L_num":7,"L_den":15,"R_num":6,"R_den":9,"correct_side":2,"subjID":"JulianDavidRoaSanchez22","gender":"0","school":"4","age":"9"},{"start_time":1552327525569,"click_time":1552327527499,"finger_time":1552327526938,"fix_duration":471.5335922477412,"trial":41,"RT":1369,"MT":561,"sideResp":1,"stimulus":[],"xmouse":[786,783,783,783,783,783,783,783,783,783,783,783,783,783,783,783,783,783,783,783,783,783,783,783,783,783,783,783,783,783,783,783,783,783,783,783,783,783,783,783,783,783,783,783,783,783,783,783,783,783,783,783,783,783,783,783,783,783,783,783,783,783,783,783,783,783,783,781,775,762,734,664,645,627,606,576,502,498,495,493,491,491,491,491,492,494,496,496,494,490,488,484,482,479,476,472,469],"ymouse":[504,502,502,502,502,502,502,502,502,502,502,502,502,502,502,502,502,502,502,502,502,502,502,502,502,502,502,502,502,502,502,502,502,502,502,502,502,502,502,502,502,502,502,502,502,502,502,502,502,502,502,502,502,502,502,502,502,502,502,502,502,502,502,502,502,502,500,489,468,437,394,332,322,315,306,295,285,283,279,273,266,250,242,234,223,191,158,147,139,134,129,122,118,115,111,105,99],"timestamp_mouse":[10,38,50,70,90,109,128,148,170,189,210,228,249,270,289,310,330,349,369,390,409,430,448,469,489,508,530,550,570,590,610,629,650,668,690,709,729,749,769,789,808,829,850,869,889,909,930,950,969,989,1008,1028,1048,1070,1090,1108,1129,1150,1169,1189,1208,1235,1249,1270,1290,1308,1329,1350,1369,1388,1410,1429,1450,1468,1488,1509,1528,1549,1569,1588,1608,1629,1649,1670,1689,1709,1729,1749,1769,1789,1809,1828,1849,1869,1889,1910,1929],"xSR":741.5,"ySR":469.95,"xT1":424.9,"yT1":0,"xT2":1058.1,"yT2":0,"toosoon":0,"cond_shown":"Incongruent","ratio_trial":300,"L_num":3,"L_den":6,"R_num":4,"R_den":20,"correct_side":1,"subjID":"JulianDavidRoaSanchez22","gender":"0","school":"4","age":"9"},{"start_time":1552327528649,"click_time":1552327530579,"finger_time":1552327529917,"fix_duration":250,"trial":42,"RT":1268,"MT":662,"sideResp":1,"stimulus":[],"xmouse":[811,811,811,811,811,811,811,811,811,811,811,811,811,811,811,811,811,811,811,811,811,811,811,811,811,811,811,811,811,811,811,811,811,811,811,811,811,811,811,811,811,811,811,811,811,811,812,812,812,813,813,813,813,813,813,814,814,817,817,818,819,821,826,828,832,835,838,840,840,840,840,840,840,840,840,840,838,834,822,801,762,675,538,475,439,420,413,406,404,404,403,406,416,421,428,433,435],"ymouse":[492,492,492,492,492,492,492,492,492,492,492,492,492,492,492,492,492,492,492,492,492,492,492,492,492,492,492,492,492,492,492,492,492,492,492,492,492,492,492,492,492,492,492,492,492,492,492,492,492,492,492,492,492,492,492,491,491,489,488,486,485,481,473,467,460,452,445,439,437,436,436,436,436,436,436,436,433,429,420,406,384,336,238,209,196,190,187,179,168,165,153,142,126,118,109,102,96],"timestamp_mouse":[12,38,49,70,90,109,128,150,170,189,209,229,248,270,290,309,329,349,369,388,410,429,450,468,489,510,528,549,569,590,608,629,649,670,689,710,729,749,770,790,810,829,848,869,890,908,929,949,968,990,1010,1028,1049,1068,1088,1109,1130,1149,1170,1188,1210,1230,1249,1268,1289,1310,1329,1349,1368,1389,1409,1428,1449,1470,1489,1510,1530,1550,1569,1589,1608,1629,1650,1670,1689,1710,1729,1749,1768,1789,1810,1830,1849,1870,1889,1909,1930],"xSR":741.5,"ySR":469.95,"xT1":424.9,"yT1":0,"xT2":1058.1,"yT2":0,"toosoon":0,"cond_shown":"Incongruent","ratio_trial":100,"L_num":1,"L_den":2,"R_num":8,"R_den":20,"correct_side":1,"subjID":"JulianDavidRoaSanchez22","gender":"0","school":"4","age":"9"},{"start_time":1552327534055,"click_time":1552327535799,"finger_time":1552327535418,"fix_duration":593.1087603438652,"trial":43,"RT":1363,"MT":381,"sideResp":1,"stimulus":[],"xmouse":[811,810,810,809,808,807,807,806,806,806,806,806,806,806,806,806,806,806,806,806,806,806,806,806,806,806,806,806,806,806,806,806,806,806,806,806,806,806,806,806,805,805,805,805,805,805,805,805,805,805,805,805,805,805,805,805,805,80