[{"start_time":1552327946727,"click_time":1552327949656,"finger_time":1552327946738,"fix_duration":1446.7846187264533,"trial":0,"RT":11,"MT":2918,"sideResp":2,"stimulus":"img/500/equaldotsize/R/14_Ratio_500_L_5_R_10.png","xmouse":[797,797,797,797,797,797,797,797,797,797,797,797,797,797,797,797,797,797,797,797,797,797,797,797,797,797,797,796,796,794,790,787,781,781,781,781,783,785,786,786,786,786,786,786,786,786,786,786,787,787,787,787,787,787,787,787,787,787,787,787,787,787,787,788,789,790,791,792,793,793,793,794,794,794,794,794,794,794,794,794,794,794,794,794,794,794,794,794,794,794,794,794,794,794,794,794,794,794,794,794,794,794,794,794,794,794,794,794,794,794,794,797,799,800,800,800,800,789,761,712,652,618,608,608,613,629,660,723,872,938,983,1021,1037,1039,1039,1041,1046,1061,1067,1070,1071,1072,1082,1090,1099,1104,1107],"ymouse":[506,506,506,506,506,506,506,506,506,506,506,506,506,506,506,506,506,506,506,506,506,506,506,506,506,506,506,508,513,527,541,555,598,623,645,657,664,674,676,676,676,676,673,669,665,663,661,659,657,657,657,657,657,657,657,657,657,657,656,655,653,650,642,641,638,636,634,631,629,629,629,628,628,628,628,628,628,628,628,628,628,628,628,628,628,628,628,628,628,628,628,628,628,628,628,628,628,628,628,628,628,628,628,628,628,628,628,628,625,624,621,617,613,611,611,611,610,607,606,606,606,606,606,604,600,588,571,538,452,405,367,319,274,262,252,244,232,205,192,181,171,163,135,123,112,104,95],"timestamp_mouse":[11,29,48,69,90,109,129,149,169,189,209,230,248,269,289,309,329,349,369,388,410,430,448,468,489,509,528,548,569,588,608,628,648,668,688,708,728,748,768,788,809,828,849,869,888,908,928,948,968,988,1008,1030,1050,1070,1089,1109,1128,1150,1169,1189,1208,1229,1249,1268,1288,1308,1329,1348,1370,1388,1409,1429,1449,1468,1490,1510,1529,1549,1569,1590,1608,1629,1649,1669,1688,1709,1728,1748,1770,1789,1808,1830,1849,1869,1889,1909,1930,1948,1968,1988,2010,2028,2049,2070,2089,2109,2128,2149,2168,2189,2209,2229,2248,2269,2290,2309,2329,2349,2369,2389,2409,2429,2449,2468,2488,2510,2528,2548,2568,2588,2608,2628,2648,2668,2689,2708,2730,2748,2768,2789,2808,2829,2848,2868,2889,2910,2929],"xSR":741.5,"ySR":469.95,"xT1":424.9,"yT1":0,"xT2":1058.1,"yT2":0,"toosoon":0,"cond_shown":"equaldotsize","ratio_trial":500,"smaller_num":"5","larger_num":"10","correct_side":2,"subjID":"JulianDavidRoaSanchez22","gender":"0","age":"9","school":"4","test":{"fix_dur":[250,1500],"timestim":300,"targets_dim":[100,100],"targets_relative_coord":[0.3,0.7],"size_stim":[880,420],"start_dim":[100,100],"size_start":[300,300],"size_fix":60,"samplingrate":20,"img_types":["equaldotsize","equaldotanddens","randomdotsizeEA"],"ratios":[250,500,750,900],"rep_conds":9,"nTrials":120,"trials_to_rest":500,"Trials_order":[15,97,61,84,106,49,25,42,31,56,0,89,119,68,14,27,63,12,76,20,90,117,88,39,9,3,51,99,100,77,35,40,4,10,66,19,33,28,94,11,67,108,22,95,59,110,53,65,101,98,62,74,34,46,80,75,36,116,6,82,24,81,37,109,85,17,113,79,52,5,44,57,8,83,54,38,41,71,47,60,91,107,96,86,50,30,93,58,118,64,43,112,23,16,73,2,1,105,92,48,29,104,69,45,18,72,55,103,26,87,21,114,32,70,13,102,78,115,111,7],"cond_shown":["equaldotsize","equaldotanddens","equaldotanddens","equaldotsize","equaldotanddens","equaldotanddens","equaldotanddens","equaldotsize","equaldotanddens","randomdotsizeEA","equaldotsize","randomdotsizeEA","randomdotsizeEA","randomdotsizeEA","randomdotsizeEA","equaldotsize","equaldotsize","equaldotsize","equaldotanddens","randomdotsizeEA","equaldotsize","equaldotsize","equaldotanddens","equaldotsize","equaldotsize","equaldotsize","equaldotsize","equaldotsize","equaldotanddens","randomdotsizeEA","randomdotsizeEA","equaldotanddens","equaldotanddens","equaldotanddens","equaldotsize","equaldotanddens","equaldotsize","equaldotanddens","equaldotanddens","randomdotsizeEA","equaldotanddens","equaldotsize","equaldotanddens","randomdotsizeEA","randomdotsizeEA","randomdotsizeEA","randomdotsizeEA","randomdotsizeEA","randomdotsizeEA","randomdotsizeEA","randomdotsizeEA","randomdotsizeEA","equaldotanddens","equaldotanddens","randomdotsizeEA","equaldotsize","equaldotsize","randomdotsizeEA","equaldotsize","equaldotanddens","equaldotsize","equaldotsize","equaldotanddens","equaldotanddens","equaldotanddens","randomdotsizeEA","randomdotsizeEA","equaldotanddens","equaldotanddens","randomdotsizeEA","randomdotsizeEA","equaldotsize","randomdotsizeEA","randomdotsizeEA","equaldotsize","randomdotsizeEA","randomdotsizeEA","randomdotsizeEA","randomdotsizeEA","equaldotsize","equaldotanddens","randomdotsizeEA","equaldotsize","randomdotsizeEA","randomdotsizeEA","equaldotsize","equaldotsize","equaldotanddens","equaldotanddens","equaldotanddens","equaldotanddens","equaldotanddens","randomdotsizeEA","equaldotanddens","equaldotanddens","randomdotsizeEA","equaldotanddens","equaldotsize","randomdotsizeEA","equaldotsize","randomdotsizeEA","randomdotsizeEA","equaldotsize","equaldotsize","equaldotsize","equaldotsize","equaldotanddens","equaldotanddens","randomdotsizeEA","equaldotsize","equaldotsize","equaldotsize","randomdotsizeEA","equaldotanddens","equaldotanddens","equaldotsize","equaldotsize","equaldotanddens","equaldotsize","equaldotanddens"],"ratio_trial":[500,250,250,250,900,250,250,750,750,750,250,500,900,750,250,500,500,250,500,750,750,900,500,500,900,500,500,500,500,500,900,500,500,900,750,750,900,500,900,900,750,250,900,900,900,250,500,500,500,250,250,250,900,900,750,500,250,750,750,900,250,900,250,250,250,500,500,750,500,500,750,900,750,900,750,250,500,900,900,250,750,900,250,250,250,750,900,900,900,500,750,500,900,500,250,250,250,900,750,250,500,750,900,900,750,250,750,750,250,500,900,750,750,900,250,750,750,750,500,750],"smaller_num":["5","6","3","6","9","2","5","12","9","18","3","2","9","3","3","2","2","2","9","12","6","9","4","10","18","4","9","10","2","6","18","9","2","18","9","15","18","2","18","18","3","4","18","18","18","2","6","1","9","3","6","1","9","9","6","9","2","6","6","18","3","18","3","5","3","10","4","15","6","10","3","18","6","18","15","3","2","18","9","2","6","18","5","3","3","3","18","18","9","3","18","9","18","5","2","2","1","9","9","1","2","9","18","18","15","1","15","12","5","4","9","15","18","18","1","15","15","6","9","6"],"larger_num":["10","24","12","24","10","8","20","16","12","24","12","4","10","4","12","4","4","8","18","16","8","10","8","20","20","8","18","20","4","12","20","18","4","20","12","20","20","4","20","20","4","16","20","20","20","8","12","2","18","12","24","4","10","10","8","18","8","8","8","20","12","20","12","20","12","20","8","20","12","20","4","20","8","20","20","12","4","20","10","8","8","20","20","12","12","4","20","20","10","6","24","18","20","10","8","8","4","10","12","4","4","12","20","20","20","4","20","16","20","8","10","20","24","20","4","20","20","8","18","8"],"correct_side":[2,1,1,2,2,1,2,2,2,1,2,1,1,1,2,2,2,2,2,2,1,2,1,2,2,1,1,2,1,1,1,1,1,1,2,2,2,2,2,2,1,2,1,1,2,1,1,2,2,1,2,2,2,2,1,1,1,1,2,1,2,1,1,2,1,2,1,2,1,2,1,1,1,1,1,1,1,1,2,1,2,1,2,2,1,1,2,1,2,2,1,2,2,1,1,1,2,2,2,2,2,2,1,2,2,2,2,2,2,1,1,2,1,1,2,2,2,1,2,2],"img_shown":["img/500/equaldotsize/R/14_Ratio_500_L_5_R_10.png","img/250/equaldotanddens/L/5_Ratio_250_L_24_R_6.png","img/250/equaldotanddens/L/15_Ratio_250_L_12_R_3.png","img/250/equaldotsize/R/6_Ratio_250_L_6_R_24.png","img/900/equaldotanddens/R/6_Ratio_900_L_9_R_10.png","img/250/equaldotanddens/L/1_Ratio_250_L_8_R_2.png","img/250/equaldotanddens/R/12_Ratio_250_L_5_R_20.png","img/750/equaldotsize/R/11_Ratio_750_L_12_R_16.png","img/750/equaldotanddens/R/15_Ratio_750_L_9_R_12.png","img/750/randomdotsizeEA/L/6_Ratio_750_L_24_R_18.png","img/250/equaldotsize/R/9_Ratio_250_L_3_R_12.png","img/500/randomdotsizeEA/L/10_Ratio_500_L_4_R_2.png","img/900/randomdotsizeEA/L/1_Ratio_900_L_10_R_9.png","img/750/randomdotsizeEA/L/10_Ratio_750_L_4_R_3.png","img/250/randomdotsizeEA/R/4_Ratio_250_L_3_R_12.png","img/500/equaldotsize/R/9_Ratio_500_L_2_R_4.png","img/500/equaldotsize/R/9_Ratio_500_L_2_R_4.png","img/250/equaldotsize/R/13_Ratio_250_L_2_R_8.png","img/500/equaldotanddens/R/6_Ratio_500_L_9_R_18.png","img/750/randomdotsizeEA/R/11_Ratio_750_L_12_R_16.png","img/750/equaldotsize/L/13_Ratio_750_L_8_R_6.png","img/900/equaldotsize/R/7_Ratio_900_L_9_R_10.png","img/500/equaldotanddens/L/8_Ratio_500_L_8_R_4.png","img/500/equaldotsize/R/3_Ratio_500_L_10_R_20.png","img/900/equaldotsize/R/9_Ratio_900_L_18_R_20.png","img/500/equaldotsize/L/8_Ratio_500_L_8_R_4.png","img/500/equaldotsize/L/4_Ratio_500_L_18_R_9.png","img/500/equaldotsize/R/3_Ratio_500_L_10_R_20.png","img/500/equaldotanddens/L/5_Ratio_500_L_4_R_2.png","img/500/randomdotsizeEA/L/11_Ratio_500_L_12_R_6.png","img/900/randomdotsizeEA/L/8_Ratio_900_L_20_R_18.png","img/500/equaldotanddens/L/4_Ratio_500_L_18_R_9.png","img/500/equaldotanddens/L/10_Ratio_500_L_4_R_2.png","img/900/equaldotanddens/L/2_Ratio_900_L_20_R_18.png","img/750/equaldotsize/R/15_Ratio_750_L_9_R_12.png","img/750/equaldotanddens/R/3_Ratio_750_L_15_R_20.png","img/900/equaldotsize/R/12_Ratio_900_L_18_R_20.png","img/500/equaldotanddens/R/9_Ratio_500_L_2_R_4.png","img/900/equaldotanddens/R/12_Ratio_900_L_18_R_20.png","img/900/randomdotsizeEA/R/13_Ratio_900_L_18_R_20.png","img/750/equaldotanddens/L/9_Ratio_750_L_4_R_3.png","img/250/equaldotsize/R/10_Ratio_250_L_4_R_16.png","img/900/equaldotanddens/L/4_Ratio_900_L_20_R_18.png","img/900/randomdotsizeEA/L/4_Ratio_900_L_20_R_18.png","img/900/randomdotsizeEA/R/11_Ratio_900_L_18_R_20.png","img/250/randomdotsizeEA/L/3_Ratio_250_L_8_R_2.png","img/500/randomdotsizeEA/L/13_Ratio_500_L_12_R_6.png","img/500/randomdotsizeEA/R/15_Ratio_500_L_1_R_2.png","img/500/randomdotsizeEA/R/1_Ratio_500_L_9_R_18.png","img/250/randomdotsizeEA/L/14_Ratio_250_L_12_R_3.png","img/250/randomdotsizeEA/R/6_Ratio_250_L_6_R_24.png","img/250/randomdotsizeEA/R/8_Ratio_250_L_1_R_4.png","img/900/equaldotanddens/R/6_Ratio_900_L_9_R_10.png","img/900/equaldotanddens/R/7_Ratio_900_L_9_R_10.png","img/750/randomdotsizeEA/L/13_Ratio_750_L_8_R_6.png","img/500/equaldotsize/L/4_Ratio_500_L_18_R_9.png","img/250/equaldotsize/L/7_Ratio_250_L_8_R_2.png","img/750/randomdotsizeEA/L/13_Ratio_750_L_8_R_6.png","img/750/equaldotsize/R/2_Ratio_750_L_6_R_8.png","img/900/equaldotanddens/L/10_Ratio_900_L_20_R_18.png","img/250/equaldotsize/R/4_Ratio_250_L_3_R_12.png","img/900/equaldotsize/L/4_Ratio_900_L_20_R_18.png","img/250/equaldotanddens/L/15_Ratio_250_L_12_R_3.png","img/250/equaldotanddens/R/12_Ratio_250_L_5_R_20.png","img/250/equaldotanddens/L/14_Ratio_250_L_12_R_3.png","img/500/randomdotsizeEA/R/3_Ratio_500_L_10_R_20.png","img/500/randomdotsizeEA/L/8_Ratio_500_L_8_R_4.png","img/750/equaldotanddens/R/5_Ratio_750_L_15_R_20.png","img/500/equaldotanddens/L/13_Ratio_500_L_12_R_6.png","img/500/randomdotsizeEA/R/3_Ratio_500_L_10_R_20.png","img/750/randomdotsizeEA/L/9_Ratio_750_L_4_R_3.png","img/900/equaldotsize/L/4_Ratio_900_L_20_R_18.png","img/750/randomdotsizeEA/L/14_Ratio_750_L_8_R_6.png","img/900/randomdotsizeEA/L/10_Ratio_900_L_20_R_18.png","img/750/equaldotsize/L/1_Ratio_750_L_20_R_15.png","img/250/randomdotsizeEA/L/14_Ratio_250_L_12_R_3.png","img/500/randomdotsizeEA/L/5_Ratio_500_L_4_R_2.png","img/900/randomdotsizeEA/L/8_Ratio_900_L_20_R_18.png","img/900/randomdotsizeEA/R/7_Ratio_900_L_9_R_10.png","img/250/equaldotsize/L/3_Ratio_250_L_8_R_2.png","img/750/equaldotanddens/R/2_Ratio_750_L_6_R_8.png","img/900/randomdotsizeEA/L/10_Ratio_900_L_20_R_18.png","img/250/equaldotsize/R/12_Ratio_250_L_5_R_20.png","img/250/randomdotsizeEA/R/11_Ratio_250_L_3_R_12.png","img/250/randomdotsizeEA/L/14_Ratio_250_L_12_R_3.png","img/750/equaldotsize/L/10_Ratio_750_L_4_R_3.png","img/900/equaldotsize/R/12_Ratio_900_L_18_R_20.png","img/900/equaldotanddens/L/4_Ratio_900_L_20_R_18.png","img/900/equaldotanddens/R/7_Ratio_900_L_9_R_10.png","img/500/equaldotanddens/R/2_Ratio_500_L_3_R_6.png","img/750/equaldotanddens/L/6_Ratio_750_L_24_R_18.png","img/500/equaldotanddens/R/1_Ratio_500_L_9_R_18.png","img/900/randomdotsizeEA/R/14_Ratio_900_L_18_R_20.png","img/500/equaldotanddens/L/7_Ratio_500_L_10_R_5.png","img/250/equaldotanddens/L/1_Ratio_250_L_8_R_2.png","img/250/randomdotsizeEA/L/3_Ratio_250_L_8_R_2.png","img/250/equaldotanddens/R/8_Ratio_250_L_1_R_4.png","img/900/equaldotsize/R/7_Ratio_900_L_9_R_10.png","img/750/randomdotsizeEA/R/15_Ratio_750_L_9_R_12.png","img/250/equaldotsize/R/8_Ratio_250_L_1_R_4.png","img/500/randomdotsizeEA/R/9_Ratio_500_L_2_R_4.png","img/750/randomdotsizeEA/R/15_Ratio_750_L_9_R_12.png","img/900/equaldotsize/L/4_Ratio_900_L_20_R_18.png","img/900/equaldotsize/R/9_Ratio_900_L_18_R_20.png","img/750/equaldotsize/R/4_Ratio_750_L_15_R_20.png","img/250/equaldotsize/R/8_Ratio_250_L_1_R_4.png","img/750/equaldotanddens/R/3_Ratio_750_L_15_R_20.png","img/750/equaldotanddens/R/11_Ratio_750_L_12_R_16.png","img/250/randomdotsizeEA/R/12_Ratio_250_L_5_R_20.png","img/500/equaldotsize/L/8_Ratio_500_L_8_R_4.png","img/900/equaldotsize/L/1_Ratio_900_L_10_R_9.png","img/750/equaldotsize/R/3_Ratio_750_L_15_R_20.png","img/750/randomdotsizeEA/L/6_Ratio_750_L_24_R_18.png","img/900/equaldotanddens/L/10_Ratio_900_L_20_R_18.png","img/250/equaldotanddens/R/8_Ratio_250_L_1_R_4.png","img/750/equaldotsize/R/5_Ratio_750_L_15_R_20.png","img/750/equaldotsize/R/5_Ratio_750_L_15_R_20.png","img/750/equaldotanddens/L/13_Ratio_750_L_8_R_6.png","img/500/equaldotsize/R/6_Ratio_500_L_9_R_18.png","img/750/equaldotanddens/R/2_Ratio_750_L_6_R_8.png"],"Rat0":[["12_Ratio_0_L_9_R_0.png","13_Ratio_0_L_6_R_0.png","5_Ratio_0_L_2_R_0.png","6_Ratio_0_L_4_R_0.png","8_Ratio_0_L_6_R_0.png"],["1_Ratio_0_L_0_R_17.png","10_Ratio_0_L_0_R_22.png","11_Ratio_0_L_0_R_1.png","14_Ratio_0_L_0_R_24.png","15_Ratio_0_L_0_R_4.png","2_Ratio_0_L_0_R_5.png","3_Ratio_0_L_0_R_17.png","4_Ratio_0_L_0_R_7.png","7_Ratio_0_L_0_R_19.png","9_Ratio_0_L_0_R_15.png"]],"Rat250":[["1_Ratio_250_L_8_R_2.png","14_Ratio_250_L_12_R_3.png","15_Ratio_250_L_12_R_3.png","2_Ratio_250_L_16_R_4.png","3_Ratio_250_L_8_R_2.png","5_Ratio_250_L_24_R_6.png","7_Ratio_250_L_8_R_2.png"],["10_Ratio_250_L_4_R_16.png","11_Ratio_250_L_3_R_12.png","12_Ratio_250_L_5_R_20.png","13_Ratio_250_L_2_R_8.png","4_Ratio_250_L_3_R_12.png","6_Ratio_250_L_6_R_24.png","8_Ratio_250_L_1_R_4.png","9_Ratio_250_L_3_R_12.png"]],"Rat500":[["10_Ratio_500_L_4_R_2.png","11_Ratio_500_L_12_R_6.png","13_Ratio_500_L_12_R_6.png","4_Ratio_500_L_18_R_9.png","5_Ratio_500_L_4_R_2.png","7_Ratio_500_L_10_R_5.png","8_Ratio_500_L_8_R_4.png"],["1_Ratio_500_L_9_R_18.png","12_Ratio_500_L_1_R_2.png","14_Ratio_500_L_5_R_10.png","15_Ratio_500_L_1_R_2.png","2_Ratio_500_L_3_R_6.png","3_Ratio_500_L_10_R_20.png","6_Ratio_500_L_9_R_18.png","9_Ratio_500_L_2_R_4.png"]],"Rat750":[["1_Ratio_750_L_20_R_15.png","10_Ratio_750_L_4_R_3.png","13_Ratio_750_L_8_R_6.png","14_Ratio_750_L_8_R_6.png","6_Ratio_750_L_24_R_18.png","8_Ratio_750_L_4_R_3.png","9_Ratio_750_L_4_R_3.png"],["11_Ratio_750_L_12_R_16.png","12_Ratio_750_L_3_R_4.png","15_Ratio_750_L_9_R_12.png","2_Ratio_750_L_6_R_8.png","3_Ratio_750_L_15_R_20.png","4_Ratio_750_L_15_R_20.png","5_Ratio_750_L_15_R_20.png","7_Ratio_750_L_3_R_4.png"]],"Rat900":[["1_Ratio_900_L_10_R_9.png","10_Ratio_900_L_20_R_18.png","2_Ratio_900_L_20_R_18.png","4_Ratio_900_L_20_R_18.png","8_Ratio_900_L_20_R_18.png"],["11_Ratio_900_L_18_R_20.png","12_Ratio_900_L_18_R_20.png","13_Ratio_900_L_18_R_20.png","14_Ratio_900_L_18_R_20.png","15_Ratio_900_L_9_R_10.png","3_Ratio_900_L_9_R_10.png","5_Ratio_900_L_9_R_10.png","6_Ratio_900_L_9_R_10.png","7_Ratio_900_L_9_R_10.png","9_Ratio_900_L_18_R_20.png"]],"Rat1000":[["10_Ratio_1000_L_16_R_16.png","11_Ratio_1000_L_6_R_6.png","12_Ratio_1000_L_14_R_14.png","13_Ratio_1000_L_20_R_20.png","15_Ratio_1000_L_15_R_15.png","2_Ratio_1000_L_17_R_17.png","4_Ratio_1000_L_9_R_9.png","5_Ratio_1000_L_6_R_6.png","6_Ratio_1000_L_19_R_19.png","8_Ratio_1000_L_14_R_14.png","9_Ratio_1000_L_25_R_25.png"],["1_Ratio_1000_L_1_R_1.png","14_Ratio_1000_L_17_R_17.png","3_Ratio_1000_L_17_R_17.png","7_Ratio_1000_L_6_R_6.png"]]}},{"start_time":1552327950769,"click_time":1552327952917,"finger_time":1552327952796,"fix_duration":250,"trial":1,"RT":2027,"MT":121,"sideResp":1,"stimulus":"img/250/equaldotanddens/L/5_Ratio_250_L_24_R_6.png","xmouse":[775,775,775,775,775,775,775,775,775,775,775,775,776,776,776,776,776,776,776,776,776,776,777,777,777,777,777,777,777,777,777,777,777,777,777,777,777,777,777,777,777,777,777,777,777,777,777,777,777,777,777,777,777,777,777,777,777,777,777,777,777,777,777,777,777,777,777,777,777,777,777,777,777,777,777,777,777,777,777,777,777,777,777,777,777,777,777,777,777,777,777,777,777,777,777,777,775,772,764,757,749,695,647,599,539,467,447,431],"ymouse":[616,616,616,616,616,616,616,616,616,616,616,617,617,617,618,618,618,618,618,618,618,618,619,619,619,619,619,620,621,622,622,623,623,623,623,623,623,623,623,623,623,623,623,623,623,623,623,623,623,623,623,623,623,623,623,623,623,623,623,623,623,626,627,628,629,630,631,632,632,633,634,634,634,634,634,634,634,634,634,634,634,634,634,634,634,634,634,634,634,634,634,634,634,634,634,634,632,627,615,602,581,481,415,345,265,157,118,85],"timestamp_mouse":[10,44,46,66,88,107,127,147,167,186,207,227,247,268,287,307,327,348,367,387,407,426,448,468,487,508,527,548,566,587,607,626,646,667,686,708,727,748,766,786,808,826,847,868,887,907,927,948,966,986,1006,1027,1048,1066,1086,1106,1126,1148,1168,1187,1206,1226,1246,1268,1287,1306,1326,1347,1366,1386,1406,1428,1447,1467,1488,1507,1526,1548,1568,1587,1608,1626,1647,1667,1686,1707,1728,1748,1768,1786,1808,1827,1846,1867,1887,1907,1927,1948,1966,1987,2006,2027,2046,2066,2086,2108,2126,2147],"xSR":741.5,"ySR":573.95,"xT1":424.9,"yT1":0,"xT2":1058.1,"yT2":0,"toosoon":0,"cond_shown":"equaldotanddens","ratio_trial":250,"smaller_num":"6","larger_num":"24","correct_side":1,"subjID":"JulianDavidRoaSanchez22","gender":"0","age":"9","school":"4"},{"start_time":1552327955684,"click_time":1552327956956,"finger_time":1552327956517,"fix_duration":1485.3100975160798,"trial":2,"RT":833,"MT":439,"sideResp":1,"stimulus":"img/250/equaldotanddens/L/15_Ratio_250_L_12_R_3.png","xmouse":[783,784,784,784,784,784,784,784,784,784,784,785,785,785,785,785,785,785,785,785,785,785,785,785,785,785,785,785,785,785,785,785,785,785,785,785,785,785,785,776,756,734,703,659,534,476,439,409,394,388,388,388,387,385,384,384,384,384,385,389,415,420,425],"ymouse":[617,619,619,619,619,619,619,619,619,619,620,621,621,621,621,621,621,621,621,621,621,621,621,621,621,621,621,621,621,621,621,621,621,621,621,621,617,615,611,592,564,533,492,424,260,190,147,98,63,21,12,5,0,0,0,0,0,0,0,0,15,18,22],"timestamp_mouse":[32,53,72,91,112,133,152,172,191,211,232,252,272,293,312,333,352,373,391,412,433,452,472,492,512,531,553,573,591,611,632,652,673,693,711,732,751,771,793,811,833,852,873,891,912,931,952,971,993,1012,1031,1051,1072,1093,1112,1132,1151,1171,1191,1212,1232,1252,1271],"xSR":741.5,"ySR":573.95,"xT1":424.9,"yT1":0,"xT2":1058.1,"yT2":0,"toosoon":0,"cond_shown":"equaldotanddens","ratio_trial":250,"smaller_num":"3","larger_num":"12","correct_side":1,"subjID":"JulianDavidRoaSanchez22","gender":"0","age":"9","school":"4"},{"start_time":1552327958690,"click_time":1552327959736,"finger_time":1552327959375,"fix_duration":952.8242257306118,"trial":3,"RT":685,"MT":361,"sideResp":2,"stimulus":"img/250/equaldotsize/R/6_Ratio_250_L_6_R_24.png","xmouse":[800,800,800,800,800,800,800,800,800,800,800,800,800,800,800,800,800,800,800,800,800,800,800,800,800,800,800,800,800,800,800,800,806,819,848,883,934,951,967,983,997,1000,1002,1003,1003,1004,1006,1007,1013,1016,1025,1058,1070],"ymouse":[631,631,631,631,631,631,631,631,631,631,631,631,631,631,632,634,635,635,635,635,635,635,635,635,635,635,635,635,635,635,635,633,617,586,516,425,321,292,259,219,172,157,145,140,137,136,131,127,114,109,98,72,65],"timestamp_mouse":[10,42,45,67,85,105,126,147,166,185,205,226,245,266,285,307,326,346,366,386,406,426,446,465,485,507,527,547,566,586,605,626,646,665,685,706,725,746,766,785,806,825,845,865,885,906,925,946,965,987,1006,1027,1045],"xSR":741.5,"ySR":573.95,"xT1":424.9,"yT1":0,"xT2":1058.1,"yT2":0,"toosoon":0,"cond_shown":"equaldotsize","ratio_trial":250,"smaller_num":"6","larger_num":"24","correct_side":2,"subjID":"JulianDavidRoaSanchez22","gender":"0","age":"9","school":"4"},{"start_time":1552327960769,"click_time":1552327962996,"finger_time":1552327962477,"fix_duration":250,"trial":4,"RT":1708,"MT":519,"sideResp":2,"stimulus":"img/900/equaldotanddens/R/6_Ratio_900_L_9_R_10.png","xmouse":[797,797,797,797,797,797,797,797,797,797,797,798,800,800,801,801,801,801,801,803,804,807,809,809,809,809,809,809,809,809,809,809,809,809,805,804,802,800,799,799,799,799,799,798,798,798,798,798,798,798,798,798,798,798,798,798,798,798,798,798,797,797,797,797,797,797,797,797,797,797,797,797,796,796,795,794,794,794,794,794,794,794,794,796,800,807,812,819,819,821,825,832,851,861,881,895,908,925,931,941,950,955,964,965,967,969,972,984,997,1014,1036,1060],"ymouse":[622,622,622,622,620,619,619,619,619,619,617,615,610,609,608,608,608,608,608,606,605,603,601,601,601,601,602,603,603,603,603,604,608,610,617,619,622,625,626,627,628,628,629,629,630,630,630,630,630,630,630,630,630,630,630,630,630,630,630,630,631,631,631,631,631,631,630,630,630,630,630,629,627,627,623,621,619,615,614,613,612,611,604,599,589,572,556,529,522,514,500,482,446,431,407,390,374,332,304,264,226,195,134,126,109,104,99,93,91,90,87,84],"timestamp_mouse":[11,26,49,67,86,106,128,148,167,186,207,227,246,267,288,307,326,347,367,386,408,427,446,466,486,508,526,547,568,587,607,626,646,667,686,707,727,747,767,788,806,827,847,867,887,908,928,947,966,987,1008,1027,1047,1066,1087,1107,1126,1146,1166,1187,1207,1226,1246,1267,1286,1308,1326,1346,1367,1387,1408,1428,1447,1468,1487,1508,1526,1546,1568,1587,1606,1626,1646,1667,1687,1708,1726,1747,1768,1787,1807,1828,1846,1868,1887,1907,1927,1947,1966,1987,2006,2027,2046,2067,2086,2107,2127,2146,2166,2187,2207,2227],"xSR":741.5,"ySR":573.95,"xT1":424.9,"yT1":0,"xT2":1058.1,"yT2":0,"toosoon":0,"cond_shown":"equaldotanddens","ratio_trial":900,"smaller_num":"9","larger_num":"10","correct_side":2,"subjID":"JulianDavidRoaSanchez22","gender":"0","age":"9","school":"4"},{"start_time":1552327964538,"click_time":1552327965656,"finger_time":1552327965296,"fix_duration":421.14202990605344,"trial":5,"RT":758,"MT":360,"sideResp":1,"stimulus":"img/250/equaldotanddens/L/1_Ratio_250_L_8_R_2.png","xmouse":[782,783,783,785,785,786,787,787,787,787,787,787,787,787,787,787,787,787,787,787,787,787,787,787,787,787,787,787,787,787,787,787,787,787,786,781,776,760,695,648,601,565,547,542,541,540,538,536,536,536,535,534,530,518,499,493],"ymouse":[648,647,647,647,647,647,647,647,647,645,645,645,645,645,645,645,645,645,645,645,645,645,645,645,645,645,645,645,645,645,645,645,645,645,643,633,609,571,464,403,349,306,283,265,234,223,213,204,190,184,169,156,146,128,107,99],"timestamp_mouse":[17,44,57,77,98,118,137,158,177,197,218,237,259,278,297,317,338,359,378,397,417,438,459,477,498,517,538,557,578,599,617,639,658,678,698,718,739,757,778,797,818,838,857,877,898,917,938,957,978,997,1018,1038,1058,1077,1098,1117],"xSR":741.5,"ySR":573.95,"xT1":424.9,"yT1":0,"xT2":1058.1,"yT2":0,"toosoon":0,"cond_shown":"equaldotanddens","ratio_trial":250,"smaller_num":"2","larger_num":"8","correct_side":1,"subjID":"JulianDavidRoaSanchez22","gender":"0","age":"9","school":"4"},{"start_time":1552327967060,"click_time":1552327968357,"finger_time":1552327967675,"fix_duration":562.3903998204397,"trial":6,"RT":615,"MT":682,"sideResp":2,"stimulus":"img/250/equaldotanddens/R/12_Ratio_250_L_5_R_20.png","xmouse":[793,793,793,793,793,790,789,787,787,787,787,787,787,787,787,787,787,787,787,787,787,787,787,787,787,787,787,788,809,834,862,901,980,1006,1021,1031,1039,1046,1051,1054,1058,1059,1064,1067,1069,1070,1072,1075,1075,1075,1075,1075,1076,1076,1078,1078,1080,1082,1082,1083,1084,1085,1086,1087,1089],"ymouse":[620,620,620,620,620,621,623,624,624,624,624,624,624,625,625,625,625,625,625,625,625,625,625,625,625,625,625,625,609,585,561,522,418,366,331,308,282,254,242,234,226,220,205,195,185,179,173,162,146,140,134,130,126,123,120,118,114,108,107,105,104,102,101,100,99],"timestamp_mouse":[15,37,56,76,95,115,136,156,177,197,216,235,256,275,295,315,336,356,376,396,416,436,457,476,495,516,536,556,577,596,615,635,656,676,696,716,737,756,775,795,815,836,856,875,895,916,937,956,977,995,1015,1035,1057,1076,1097,1115,1137,1156,1175,1196,1216,1235,1256,1276,1296],"xSR":741.5,"ySR":573.95,"xT1":424.9,"yT1":0,"xT2":1058.1,"yT2":0,"toosoon":0,"cond_shown":"equaldotanddens","ratio_trial":250,"smaller_num":"5","larger_num":"20","correct_side":2,"subjID":"JulianDavidRoaSanchez22","gender":"0","age":"9","school":"4"},{"start_time":1552327970015,"click_time":1552327971335,"finger_time":1552327970896,"fix_duration":638.6683803442039,"trial":7,"RT":881,"MT":439,"sideResp":2,"stimulus":"img/750/equaldotsize/R/11_Ratio_750_L_12_R_16.png","xmouse":[784,784,784,784,784,784,784,784,784,784,784,784,784,784,784,784,784,784,784,784,783,780,780,780,780,780,780,780,780,780,780,780,780,780,780,780,780,780,780,780,780,780,782,788,798,826,839,853,877,891,903,937,955,970,980,993,1015,1028,1039,1059,1073,1090,1094,1095,1097,1101,1104],"ymouse":[604,604,604,604,604,604,604,604,604,604,604,604,604,604,604,604,604,604,604,604,604,604,604,604,604,604,604,604,604,604,604,604,604,604,604,604,604,604,604,604,604,604,591,582,560,509,488,468,428,402,380,327,303,285,272,258,238,229,221,202,186,156,145,137,126,113,93],"timestamp_mouse":[10,36,40,61,81,101,121,140,160,180,202,220,240,262,281,302,321,341,361,380,401,421,441,461,482,500,521,542,561,580,601,621,642,660,681,701,721,740,761,780,801,821,840,860,881,902,920,940,960,981,1000,1020,1040,1062,1080,1101,1120,1142,1161,1181,1200,1221,1242,1261,1280,1301,1320],"xSR":741.5,"ySR":573.95,"xT1":424.9,"yT1":0,"xT2":1058.1,"yT2":0,"toosoon":0,"cond_shown":"equaldotsize","ratio_trial":750,"smaller_num":"12","larger_num":"16","correct_side":2,"subjID":"JulianDavidRoaSanchez22","gender":"0","age":"9","school":"4"},{"start_time":1552327973466,"click_time":1552327974397,"finger_time":1552327974256,"fix_duration":1290.8565285322438,"trial":8,"RT":790,"MT":141,"sideResp":2,"stimulus":"img/750/equaldotanddens/R/15_Ratio_750_L_9_R_12.png","xmouse":[817,816,816,815,812,810,809,808,806,806,806,806,806,806,806,806,806,806,806,806,806,806,806,806,806,806,806,806,806,806,806,806,806,806,806,806,806,807,841,887,944,1004,1055,1115,1120,1121,1123],"ymouse":[622,622,622,622,622,623,623,624,624,624,624,624,624,624,624,624,624,624,624,624,624,624,624,624,624,624,624,624,624,624,624,624,624,624,624,624,623,619,577,518,447,367,289,152,118,102,93],"timestamp_mouse":[14,34,50,69,91,110,129,150,170,190,211,229,249,269,290,310,330,349,370,389,410,429,450,470,490,510,530,550,570,591,610,631,650,669,690,711,730,749,770,790,809,829,849,869,889,910,931],"xSR":741.5,"ySR":573.95,"xT1":424.9,"yT1":0,"xT2":1058.1,"yT2":0,"toosoon":0,"cond_shown":"equaldotanddens","ratio_trial":750,"smaller_num":"9","larger_num":"12","correct_side":2,"subjID":"JulianDavidRoaSanchez22","gender":"0","age":"9","school":"4"},{"start_time":1552327976540,"click_time":1552327978197,"finger_time":1552327977856,"fix_duration":1261.0923178947596,"trial":9,"RT":1316,"MT":341,"sideResp":2,"stimulus":"img/750/randomdotsizeEA/L/6_Ratio_750_L_24_R_18.png","xmouse":[785,785,785,785,785,785,785,785,785,785,785,785,785,785,785,785,785,785,785,785,785,785,785,785,785,785,785,785,785,785,785,785,785,785,785,785,785,785,785,785,785,785,785,785,785,785,785,785,785,785,785,785,785,785,785,785,784,784,784,784,784,782,781,780,778,777,778,787,809,843,937,1000,1060,1102,1128,1132,1126,1123,1123,1123,1123,1123,1124],"ymouse":[615,616,618,618,619,619,619,619,619,619,619,619,619,619,619,619,619,619,619,619,619,619,619,619,619,619,619,619,619,619,619,619,619,619,619,619,619,619,619,619,619,619,619,619,619,619,619,619,619,619,616,613,608,604,601,599,598,598,598,598,598,597,596,590,583,556,541,525,498,471,410,363,309,258,209,149,131,124,122,122,115,106,97],"timestamp_mouse":[16,39,56,76,96,117,135,155,177,196,217,237,255,276,296,317,335,355,377,397,416,436,456,477,496,516,536,555,575,595,616,636,657,676,696,715,736,755,777,796,817,836,855,875,895,916,936,957,976,997,1017,1035,1055,1075,1096,1115,1135,1157,1176,1197,1217,1235,1255,1275,1296,1316,1336,1355,1375,1395,1415,1435,1456,1476,1496,1516,1535,1555,1576,1596,1616,1636,1657],"xSR":741.5,"ySR":573.95,"xT1":424.9,"yT1":0,"xT2":1058.1,"yT2":0,"toosoon":0,"cond_shown":"randomdotsizeEA","ratio_trial":750,"smaller_num":"18","larger_num":"24","correct_side":1,"subjID":"JulianDavidRoaSanchez22","gender":"0","age":"9","school":"4"},{"start_time":1552327979604,"click_time":1552327980655,"finger_time":1552327980317,"fix_duration":507.5521529020377,"trial":10,"RT":713,"MT":338,"sideResp":2,"stimulus":"img/250/equaldotsize/R/9_Ratio_250_L_3_R_12.png","xmouse":[762,762,762,762,762,762,762,762,762,762,762,762,762,762,762,762,762,762,763,763,764,764,764,764,764,764,764,764,764,764,764,764,774,794,826,918,1000,1167,1223,1249,1260,1265,1264,1260,1253,1246,1238,1229,1225,1217,1205,1184,1137],"ymouse":[628,626,626,621,618,618,617,617,617,617,617,617,617,617,617,617,617,617,617,619,619,620,620,620,620,620,620,620,620,620,620,620,614,601,576,503,444,337,292,264,241,217,175,151,120,98,82,67,64,62,62,62,62],"timestamp_mouse":[11,46,52,71,91,111,132,151,171,192,213,233,251,272,293,313,332,353,372,392,411,431,452,473,492,513,532,551,572,592,613,631,652,672,692,713,731,751,771,792,811,833,851,871,892,912,931,951,971,992,1012,1032,1051],"xSR":741.5,"ySR":573.95,"xT1":424.9,"yT1":0,"xT2":1058.1,"yT2":0,"toosoon":0,"cond_shown":"equaldotsize","ratio_trial":250,"smaller_num":"3","larger_num":"12","correct_side":2,"subjID":"JulianDavidRoaSanchez22","gender":"0","age":"9","school":"4"},{"start_time":1552327982727,"click_time":1552327984376,"finger_time":1552327983956,"fix_duration":1370.1030149448993,"trial":11,"RT":1229,"MT":420,"sideResp":1,"stimulus":"img/500/randomdotsizeEA/L/10_Ratio_500_L_4_R_2.png","xmouse":[756,756,756,756,756,756,756,756,756,756,756,756,756,756,756,756,756,756,756,756,756,756,756,756,756,756,756,756,756,756,756,756,756,756,756,756,756,756,756,756,756,756,756,756,756,756,756,756,756,756,756,756,756,756,756,756,756,756,756,756,756,755,747,738,727,707,699,675,663,650,636,617,608,597,585,574,564,557,555,550,542,526,482],"ymouse":[637,637,637,637,637,637,637,637,637,637,637,637,637,637,637,637,637,637,637,637,637,637,637,637,637,637,637,637,637,637,637,637,637,637,637,637,637,637,637,637,637,637,637,637,637,637,637,637,637,637,637,637,637,637,637,637,637,637,635,631,619,563,526,489,450,377,355,272,251,229,212,181,167,151,135,122,116,113,112,109,106,97,81],"timestamp_mouse":[9,45,48,69,89,109,128,149,168,189,209,228,249,270,290,309,329,350,370,390,410,429,449,470,489,509,529,549,570,589,610,629,649,669,690,709,729,750,769,790,809,829,850,869,890,910,929,949,969,990,1009,1029,1049,1069,1090,1110,1129,1149,1169,1189,1209,1229,1248,1270,1289,1309,1329,1350,1369,1390,1409,1429,1449,1469,1489,1510,1530,1550,1569,1589,1609,1629,1649],"xSR":741.5,"ySR":573.95,"xT1":424.9,"yT1":0,"xT2":1058.1,"yT2":0,"toosoon":0,"cond_shown":"randomdotsizeEA","ratio_trial":500,"smaller_num":"2","larger_num":"4","correct_side":1,"subjID":"JulianDavidRoaSanchez22","gender":"0","age":"9","school":"4"},{"start_time":1552327986829,"click_time":1552327988676,"finger_time":1552327988276,"fix_duration":250,"trial":12,"RT":1447,"MT":400,"sideResp":2,"stimulus":"img/900/randomdotsizeEA/L/1_Ratio_900_L_10_R_9.png","xmouse":[820,820,820,820,820,820,820,820,820,820,820,820,820,820,820,820,820,820,820,820,820,820,820,820,820,820,820,820,820,820,820,820,820,820,820,820,820,820,820,820,820,820,820,820,820,820,820,820,820,820,820,820,820,820,820,820,820,820,820,820,820,820,820,820,820,820,820,820,820,820,822,829,861,877,897,912,923,943,951,960,965,968,982,988,995,1002,1009,1023,1032,1045,1059,1067,1093],"ymouse":[658,658,658,658,658,658,658,658,658,658,658,658,658,658,658,658,658,658,658,658,658,658,658,658,658,658,658,658,658,658,658,658,658,658,658,658,658,658,658,658,658,658,658,658,658,658,658,658,658,658,658,658,658,658,658,658,658,658,658,658,658,658,658,657,657,657,655,650,648,637,622,602,538,503,463,428,396,325,296,265,251,239,217,206,194,181,169,150,140,129,113,101,62],"timestamp_mouse":[13,26,48,67,88,108,128,148,168,188,208,228,247,267,287,308,327,347,368,387,407,427,447,467,487,508,526,547,568,587,608,627,647,668,687,708,728,747,768,788,807,827,847,867,888,907,927,948,967,987,1008,1028,1048,1068,1088,1108,1128,1147,1167,1188,1207,1227,1247,1267,1287,1306,1328,1347,1368,1387,1408,1427,1447,1468,1487,1507,1528,1547,1568,1587,1608,1627,1647,1667,1688,1707,1728,1746,1768,1788,1808,1827,1847],"xSR":741.5,"ySR":573.95,"xT1":424.9,"yT1":0,"xT2":1058.1,"yT2":0,"toosoon":0,"cond_shown":"randomdotsizeEA","ratio_trial":900,"smaller_num":"9","larger_num":"10","correct_side":1,"subjID":"JulianDavidRoaSanchez22","gender":"0","age":"9","school":"4"},{"start_time":1552327990659,"click_time":1552327992077,"finger_time":1552327991616,"fix_duration":1121.0174945436515,"trial":13,"RT":957,"MT":461,"sideResp":2,"stimulus":"img/750/randomdotsizeEA/L/10_Ratio_750_L_4_R_3.png","xmouse":[775,775,775,775,775,775,776,776,776,776,776,777,778,779,779,779,779,779,779,779,779,779,779,779,779,779,780,780,780,781,781,781,781,781,781,781,781,781,781,781,781,781,781,781,781,782,785,787,789,789,789,785,785,784,784,784,784,784,786,798,853,906,962,1007,1038,1075,1079,1080,1086,1092,1107],"ymouse":[610,610,610,610,610,610,609,609,609,609,609,607,606,605,604,604,604,604,604,604,604,604,604,604,604,604,604,604,604,605,605,605,605,605,605,605,605,605,605,605,605,605,605,605,605,600,582,561,541,525,514,501,500,500,500,500,500,499,495,481,420,363,306,259,220,162,149,137,124,109,77],"timestamp_mouse":[24,38,57,77,98,117,138,158,177,198,217,237,257,277,297,317,338,357,378,397,416,437,458,477,497,517,537,557,578,597,617,637,658,677,697,717,738,758,777,797,817,838,857,877,898,917,938,957,977,997,1017,1037,1057,1078,1097,1117,1138,1157,1178,1197,1217,1237,1258,1277,1297,1317,1338,1357,1377,1397,1417],"xSR":741.5,"ySR":573.95,"xT1":424.9,"yT1":0,"xT2":1058.1,"yT2":0,"toosoon":0,"cond_shown":"randomdotsizeEA","ratio_trial":750,"smaller_num":"3","larger_num":"4","correct_side":1,"subjID":"JulianDavidRoaSanchez22","gender":"0","age":"9","school":"4"},{"start_time":1552327994014,"click_time":1552327995496,"finger_time":1552327995296,"fix_duration":1055.750924848953,"trial":14,"RT":1282,"MT":200,"sideResp":1,"stimulus":"img/250/randomdotsizeEA/R/4_Ratio_250_L_3_R_12.png","xmouse":[779,779,779,779,779,779,779,779,779,779,779,779,780,781,781,781,781,781,781,781,781,781,781,782,782,783,783,783,783,783,783,783,783,783,783,783,783,783,783,783,783,783,783,783,783,783,783,783,783,783,783,783,783,783,783,783,783,783,783,783,783,780,775,766,740,710,699,654,621,551,525,511,503,496,485],"ymouse":[619,619,619,619,619,619,619,619,619,619,619,619,617,616,616,615,615,615,615,615,615,615,615,615,615,614,614,614,614,614,614,614,614,614,614,614,614,614,614,614,614,614,614,614,614,614,614,614,614,614,614,614,614,614,614,614,614,614,614,614,614,606,599,583,538,494,478,415,370,260,210,175,148,119,65],"timestamp_mouse":[10,23,43,62,83,103,122,143,163,182,203,223,242,262,282,302,322,342,362,382,403,422,441,462,483,503,523,542,563,583,603,623,642,662,683,703,723,743,762,783,802,823,842,863,882,902,923,942,963,983,1003,1022,1042,1063,1082,1103,1123,1143,1163,1181,1203,1223,1242,1262,1282,1302,1322,1342,1362,1383,1402,1422,1442,1462,1482],"xSR":741.5,"ySR":573.95,"xT1":424.9,"yT1":0,"xT2":1058.1,"yT2":0,"toosoon":0,"cond_shown":"randomdotsizeEA","ratio_trial":250,"smaller_num":"3","larger_num":"12","correct_side":2,"subjID":"JulianDavidRoaSanchez22","gender":"0","age":"9","school":"4"},{"start_time":1552327998852,"click_time":1552328000276,"finger_time":1552327999896,"fix_duration":954.5588568442095,"trial":15,"RT":1044,"MT":380,"sideResp":2,"stimulus":"img/500/equaldotsize/R/9_Ratio_500_L_2_R_4.png","xmouse":[801,801,801,801,801,801,801,801,801,801,801,801,801,801,801,801,801,801,801,801,801,801,801,801,801,801,801,801,801,801,801,801,801,801,801,801,801,801,801,801,801,801,801,801,801,801,801,803,805,812,822,836,898,929,967,1001,1028,1056,1062,1064,1066,1069,1073,1074,1074,1075,1076,1079,1081,1082,1083,1088],"ymouse":[657,656,656,656,656,656,656,656,656,656,656,656,656,656,656,656,656,656,656,656,656,656,656,656,656,656,656,656,656,656,656,656,656,656,656,656,656,656,656,656,656,656,656,656,656,654,651,645,640,631,617,599,493,449,401,352,307,244,223,203,187,175,158,152,148,144,139,130,121,116,110,94],"timestamp_mouse":[4,31,45,64,85,104,124,145,164,185,205,225,245,264,283,304,324,345,364,384,405,425,444,465,484,505,525,544,564,584,604,625,644,665,684,704,725,744,764,784,805,824,845,864,885,905,924,944,964,984,1004,1025,1044,1065,1084,1104,1124,1144,1164,1184,1205,1225,1244,1264,1284,1304,1325,1344,1365,1384,1404,1424],"xSR":741.5,"ySR":573.95,"xT1":424.9,"yT1":0,"xT2":1058.1,"yT2":0,"toosoon":0,"cond_shown":"equaldotsize","ratio_trial":500,"smaller_num":"2","larger_num":"4","correct_side":2,"subjID":"JulianDavidRoaSanchez22","gender":"0","age":"9","school":"4"},{"start_time":1552328003847,"click_time":1552328005117,"finger_time":1552328004716,"fix_duration":908.0422498821155,"trial":16,"RT":869,"MT":401,"sideResp":2,"stimulus":"img/500/equaldotsize/R/9_Ratio_500_L_2_R_4.png","xmouse":[791,791,795,795,796,797,797,797,797,797,797,797,797,797,797,797,797,797,797,797,797,797,797,797,797,797,797,797,797,797,797,797,797,797,797,797,797,797,797,797,801,814,835,886,902,918,939,961,1012,1028,1030,1034,1037,1043,1048,1053,1059,1068,1090,1097,1102,1104,1104,1105],"ymouse":[645,645,639,638,636,635,635,635,635,635,635,635,635,635,635,635,635,635,635,635,635,635,635,635,635,635,635,635,635,635,635,635,635,635,635,635,635,635,635,635,630,617,598,539,514,484,446,397,291,254,245,226,218,203,195,187,177,167,148,140,129,120,114,98],"timestamp_mouse":[12,29,50,69,89,110,129,149,170,189,210,229,250,269,289,309,329,350,369,389,410,429,448,469,489,510,530,549,569,590,609,629,650,668,690,709,729,749,769,789,809,830,849,869,888,910,929,950,969,989,1010,1030,1049,1069,1089,1109,1129,1150,1169,1189,1209,1229,1249,1270],"xSR":741.5,"ySR":573.95,"xT1":424.9,"yT1":0,"xT2":1058.1,"yT2":0,"toosoon":0,"cond_shown":"equaldotsize","ratio_trial":500,"smaller_num":"2","larger_num":"4","correct_side":2,"subjID":"JulianDavidRoaSanchez22","gender":"0","age":"9","school":"4"},{"start_time":1552328007369,"click_time":1552328008637,"finger_time":1552328008136,"fix_duration":1010.0198439822418,"trial":17,"RT":767,"MT":501,"sideResp":2,"stimulus":"img/250/equaldotsize/R/13_Ratio_250_L_2_R_8.png","xmouse":[787,787,787,787,787,787,787,787,787,787,787,787,787,787,787,787,787,787,787,787,787,787,787,787,787,787,787,787,787,787,787,787,787,787,787,787,789,807,832,863,886,910,949,966,976,987,1000,1028,1048,1067,1071,1072,1070,1070,1069,1069,1069,1066,1066,1065,1065,1065,1065,1065],"ymouse":[638,638,638,638,638,638,638,638,638,638,638,638,638,638,638,638,638,638,638,638,638,638,638,638,638,638,638,638,638,638,638,638,638,638,638,638,639,614,569,520,489,458,401,373,354,335,311,267,231,195,179,166,144,139,131,126,120,111,109,108,107,106,103,95],"timestamp_mouse":[12,33,48,68,87,108,127,147,167,188,208,228,247,268,288,308,327,347,367,388,408,427,448,468,488,507,528,547,567,587,608,627,647,668,687,707,727,747,767,787,807,827,847,867,887,907,927,947,967,987,1007,1027,1047,1067,1087,1108,1127,1147,1167,1188,1208,1229,1247,1268],"xSR":741.5,"ySR":573.95,"xT1":424.9,"yT1":0,"xT2":1058.1,"yT2":0,"toosoon":0,"cond_shown":"equaldotsize","ratio_trial":250,"smaller_num":"2","larger_num":"8","correct_side":2,"subjID":"JulianDavidRoaSanchez22","gender":"0","age":"9","school":"4"},{"start_time":1552328010273,"click_time":1552328014577,"finger_time":1552328014276,"fix_duration":775.6347116867498,"trial":18,"RT":4003,"MT":301,"sideResp":2,"stimulus":"img/500/equaldotanddens/R/6_Ratio_500_L_9_R_18.png","xmouse":[785,785,785,785,785,785,785,785,785,785,785,785,785,785,785,785,785,785,785,785,785,785,785,785,785,785,785,785,785,785,785,785,785,785,785,785,785,785,785,785,785,785,785,785,785,785,785,785,785,785,785,785,785,785,785,785,785,785,785,785,785,785,785,785,785,785,785,785,785,785,785,785,785,785,785,785,785,785,785,785,785,785,785,785,785,785,785,785,785,785,785,785,785,785,785,785,785,785,785,785,785,785,785,785,785,785,785,785,785,785,785,785,785,785,785,785,785,785,785,785,785,785,785,785,785,785,785,785,785,785,785,785,785,785,785,785,785,785,785,785,785,785,785,785,785,785,785,785,785,785,785,785,785,785,785,785,785,785,785,785,785,785,785,785,785,785,785,785,785,785,785,785,785,785,785,785,785,785,785,785,785,785,785,785,785,785,785,785,785,785,785,785,785,785,785,785,785,785,785,804,825,891,971,1100,1116,1159,1187,1210,1228,1230,1228,1219,1205,1176,1160,1137],"ymouse":[593,593,593,593,593,593,593,593,593,593,593,593,593,593,593,593,593,593,593,593,593,593,593,593,593,593,593,593,593,593,593,593,593,593,593,593,593,593,593,593,593,593,593,593,593,593,593,593,593,593,593,593,593,593,593,593,593,593,593,593,593,593,593,593,593,593,593,593,593,593,593,593,593,593,593,593,593,593,593,593,593,593,593,593,593,593,593,593,593,593,593,593,593,593,593,593,593,593,593,593,593,593,593,593,593,593,593,593,593,593,593,593,593,593,593,593,593,593,593,593,593,593,593,593,593,593,593,593,593,593,593,593,593,593,593,593,593,593,593,593,593,593,593,593,593,593,593,593,593,593,593,593,593,593,593,593,593,593,593,593,593,593,593,593,593,593,593,593,593,593,593,593,593,593,593,593,593,593,593,593,593,593,593,593,593,593,593,593,593,593,593,593,593,593,593,593,593,593,593,574,551,473,382,204,182,105,60,22,0,0,0,0,0,0,3,14],"timestamp_mouse":[19,40,42,63,83,103,123,143,164,183,203,223,243,263,284,303,324,344,364,384,404,423,443,464,484,504,523,543,564,583,604,624,644,664,683,704,723,743,764,783,803,823,844,864,884,904,924,944,964,983,1004,1024,1044,1063,1083,1104,1124,1144,1164,1184,1204,1223,1244,1263,1284,1304,1323,1344,1364,1385,1404,1423,1444,1463,1483,1504,1524,1544,1564,1584,1604,1623,1644,1663,1684,1703,1724,1745,1763,1784,1804,1823,1844,1863,1884,1904,1923,1944,1963,1983,2004,2023,2044,2064,2083,2103,2124,2143,2164,2184,2203,2224,2244,2264,2284,2303,2323,2344,2364,2383,2403,2423,2443,2463,2483,2504,2523,2544,2563,2584,2603,2624,2644,2664,2684,2704,2723,2743,2763,2783,2804,2824,2843,2863,2884,2903,2923,2943,2964,2984,3004,3024,3043,3063,3084,3104,3123,3144,3164,3184,3204,3224,3243,3263,3284,3304,3323,3343,3363,3383,3403,3424,3444,3463,3483,3504,3523,3544,3563,3583,3603,3624,3643,3663,3684,3704,3723,3743,3762,3784,3804,3824,3844,3864,3883,3904,3923,3943,3963,3983,4002,4023,4043,4063,4083,4103,4123,4143,4164,4184,4203,4224,4244,4263,4283,4304],"xSR":741.5,"ySR":573.95,"xT1":424.9,"yT1":0,"xT2":1058.1,"yT2":0,"toosoon":0,"cond_shown":"equaldotanddens","ratio_trial":500,"smaller_num":"9","larger_num":"18","correct_side":2,"subjID":"JulianDavidRoaSanchez22","gender":"0","age":"9","school":"4"},{"start_time":1552328016625,"click_time":1552328017736,"finger_time":1552328017518,"fix_duration":908.5133135288412,"trial":19,"RT":893,"MT":218,"sideResp":2,"stimulus":"img/750/randomdotsizeEA/R/11_Ratio_750_L_12_R_16.png","xmouse":[760,760,760,760,760,760,760,760,760,760,760,760,760,760,760,760,760,760,760,760,759,759,759,759,759,759,759,759,759,759,759,759,759,759,759,759,759,759,759,759,760,770,786,809,844,949,994,1006,1014,1018,1032,1040,1049,1058,1071,1078],"ymouse":[631,631,631,632,632,634,634,635,636,637,637,637,637,637,637,637,637,638,638,640,640,641,641,641,641,641,641,641,641,641,641,641,641,641,641,641,641,641,641,641,641,637,627,615,593,481,358,286,234,204,165,152,141,125,103,85],"timestamp_mouse":[13,41,51,71,92,111,132,152,171,191,211,232,251,271,293,311,332,351,371,391,411,431,452,472,492,511,532,551,571,591,611,631,651,672,691,712,731,752,771,791,811,831,851,871,893,911,931,951,971,991,1011,1031,1052,1071,1092,1111],"xSR":741.5,"ySR":573.95,"xT1":424.9,"yT1":0,"xT2":1058.1,"yT2":0,"toosoon":0,"cond_shown":"randomdotsizeEA","ratio_trial":750,"smaller_num":"12","larger_num":"16","correct_side":2,"subjID":"JulianDavidRoaSanchez22","gender":"0","age":"9","school":"4"},{"start_time":1552328019052,"click_time":1552328020238,"finger_time":1552328019816,"fix_duration":514.8866690800903,"trial":20,"RT":764,"MT":422,"sideResp":1,"stimulus":"img/750/equaldotsize/L/13_Ratio_750_L_8_R_6.png","xmouse":[768,768,768,768,768,768,768,768,768,768,768,768,768,768,768,768,768,768,768,768,768,768,768,768,768,768,768,768,768,768,768,768,768,768,768,768,769,770,770,770,760,743,718,689,658,643,638,634,629,615,605,594,587,583,580,567,556,545,533,519],"ymouse":[602,602,602,602,602,602,602,602,602,602,602,602,602,602,603,603,603,603,603,603,603,603,603,603,603,603,603,603,603,603,603,603,603,603,603,603,594,583,570,532,494,435,360,286,205,129,100,78,58,19,2,0,0,0,0,8,11,15,20,25],"timestamp_mouse":[12,41,45,64,84,105,124,144,164,184,205,225,244,265,285,305,324,344,365,384,404,425,445,465,484,505,524,545,565,585,604,625,645,665,684,705,724,744,764,785,804,824,844,865,884,904,924,945,964,984,1005,1024,1044,1064,1084,1104,1124,1144,1164,1185],"xSR":741.5,"ySR":573.95,"xT1":424.9,"yT1":0,"xT2":1058.1,"yT2":0,"toosoon":0,"cond_shown":"equaldotsize","ratio_trial":750,"smaller_num":"6","larger_num":"8","correct_side":1,"subjID":"JulianDavidRoaSanchez22","gender":"0","age":"9","school":"4"},{"start_time":1552328022129,"click_time":1552328023216,"finger_time":1552328022816,"fix_duration":1191.648201635077,"trial":21,"RT":687,"MT":400,"sideResp":2,"stimulus":"img/900/equaldotsize/R/7_Ratio_900_L_9_R_10.png","xmouse":[762,762,762,762,762,762,762,762,762,762,762,762,761,761,761,761,760,760,760,760,760,760,760,759,759,759,759,759,759,759,760,772,782,806,830,849,876,892,927,946,964,991,1003,1014,1022,1030,1040,1045,1046,1046,1046,1047,1050,1054,1059],"ymouse":[632,632,632,632,633,633,634,634,634,634,634,634,635,635,635,635,636,636,636,636,636,636,636,637,637,637,637,637,637,637,635,622,606,575,542,514,466,440,392,372,354,324,307,288,265,247,213,179,160,147,136,112,96,80,62],"timestamp_mouse":[13,38,47,68,87,108,127,148,168,188,207,228,247,267,288,307,328,348,368,388,408,428,447,468,487,508,528,548,567,588,607,627,647,668,687,708,727,747,767,787,807,827,847,868,887,908,927,948,967,988,1007,1027,1048,1068,1087],"xSR":741.5,"ySR":573.95,"xT1":424.9,"yT1":0,"xT2":1058.1,"yT2":0,"toosoon":0,"cond_shown":"equaldotsize","ratio_trial":900,"smaller_num":"9","larger_num":"10","correct_side":2,"subjID":"JulianDavidRoaSanchez22","gender":"0","age":"9","school":"4"},{"start_time":1552328024108,"click_time":1552328025256,"finger_time":1552328024956,"fix_duration":250,"trial":22,"RT":848,"MT":300,"sideResp":1,"stimulus":"img/500/equaldotanddens/L/8_Ratio_500_L_8_R_4.png","xmouse":[775,775,775,775,775,775,775,775,775,775,775,775,775,775,775,775,775,775,775,775,775,775,775,775,775,775,775,775,775,775,775,775,775,775,775,775,775,775,775,775,775,775,757,735,712,682,651,605,578,565,552,541,528,523,517,514,510,502],"ymouse":[640,640,640,640,640,640,640,640,640,640,640,640,640,640,640,640,640,640,640,640,640,640,640,640,640,640,640,640,640,640,640,640,640,640,640,640,640,640,640,640,638,625,567,518,471,420,369,281,231,207,187,173,150,138,125,116,105,86],"timestamp_mouse":[9,29,48,68,88,109,128,149,168,189,208,228,249,269,290,309,329,348,369,389,408,429,449,469,488,509,529,549,569,588,608,628,649,669,688,708,728,748,769,788,809,828,848,868,888,909,928,948,968,989,1008,1028,1048,1068,1089,1108,1128,1147],"xSR":741.5,"ySR":573.95,"xT1":424.9,"yT1":0,"xT2":1058.1,"yT2":0,"toosoon":0,"cond_shown":"equaldotanddens","ratio_trial":500,"smaller_num":"4","larger_num":"8","correct_side":1,"subjID":"JulianDavidRoaSanchez22","gender":"0","age":"9","school":"4"},{"start_time":1552328027628,"click_time":1552328028638,"finger_time":1552328028257,"fix_duration":1471.4647319872126,"trial":23,"RT":629,"MT":381,"sideResp":2,"stimulus":"img/500/equaldotsize/R/3_Ratio_500_L_10_R_20.png","xmouse":[771,771,771,771,771,771,771,771,771,771,771,771,771,771,771,771,771,771,771,771,771,771,771,771,771,771,771,774,776,785,797,906,984,1054,1103,1140,1187,1201,1211,1219,1220,1221,1217,1214,1211,1210,1207,1202,1193,1177,1149],"ymouse":[610,610,610,610,610,610,610,610,610,610,610,610,610,610,610,610,610,610,610,610,610,610,610,610,610,610,610,609,606,596,576,463,395,332,280,241,164,138,117,91,84,59,51,46,43,43,42,42,42,42,41],"timestamp_mouse":[13,28,49,68,88,108,129,148,169,189,209,228,248,269,289,308,328,349,368,389,408,428,448,469,489,508,528,548,569,588,609,629,648,668,688,708,729,748,769,788,809,829,848,868,889,909,929,948,968,988,1009],"xSR":741.5,"ySR":573.95,"xT1":424.9,"yT1":0,"xT2":1058.1,"yT2":0,"toosoon":0,"cond_shown":"equaldotsize","ratio_trial":500,"smaller_num":"10","larger_num":"20","correct_side":2,"subjID":"JulianDavidRoaSanchez22","gender":"0","age":"9","school":"4"},{"start_time":1552328029973,"click_time":1552328031036,"finger_time":1552328030876,"fix_duration":556.1007205955949,"trial":24,"RT":903,"MT":160,"sideResp":2,"stimulus":"img/900/equaldotsize/R/9_Ratio_900_L_18_R_20.png","xmouse":[759,759,759,759,759,759,760,760,760,760,760,760,760,760,760,760,760,760,760,760,760,760,760,760,760,761,761,761,761,761,761,761,761,761,761,764,766,768,769,772,774,775,781,787,794,822,842,863,890,915,970,998,1036,1067],"ymouse":[638,638,638,638,638,638,639,639,639,639,639,639,639,639,639,639,640,640,640,640,640,640,640,640,640,641,641,641,641,641,641,641,641,641,641,639,636,632,627,617,613,611,605,600,594,569,547,517,471,412,281,216,140,98],"timestamp_mouse":[13,39,43,64,83,103,122,144,163,183,204,223,244,264,283,303,324,343,363,383,403,423,443,463,483,504,523,543,564,583,603,623,643,664,683,703,722,744,764,784,804,823,843,863,883,903,922,944,962,984,1004,1024,1043,1063],"xSR":741.5,"ySR":573.95,"xT1":424.9,"yT1":0,"xT2":1058.1,"yT2":0,"toosoon":0,"cond_shown":"equaldotsize","ratio_trial":900,"smaller_num":"18","larger_num":"20","correct_side":2,"subjID":"JulianDavidRoaSanchez22","gender":"0","age":"9","school":"4"},{"start_time":1552328034000,"click_time":1552328035276,"finger_time":1552328034816,"fix_duration":782.9803380533432,"trial":25,"RT":816,"MT":460,"sideResp":1,"stimulus":"img/500/equaldotsize/L/8_Ratio_500_L_8_R_4.png","xmouse":[802,802,802,799,796,794,794,794,794,794,794,794,795,797,797,797,797,798,801,803,805,806,806,806,806,806,806,806,806,806,806,806,806,806,806,806,806,805,791,771,738,692,655,623,615,607,600,594,585,584,584,583,578,565,560,559,558,556,548,541,537,529,526,524],"ymouse":[630,630,632,636,640,642,642,642,642,642,642,642,642,642,642,642,642,642,642,642,642,642,642,642,642,642,642,642,642,642,642,642,642,642,642,642,642,641,627,614,589,550,505,393,336,281,242,211,169,147,135,123,109,92,89,88,88,87,86,84,82,76,73,72],"timestamp_mouse":[16,37,57,76,96,116,137,156,176,195,216,236,256,276,297,316,337,356,376,397,416,436,456,476,496,516,537,556,576,596,616,637,656,676,697,716,737,756,776,796,816,836,856,876,896,916,936,956,976,996,1016,1037,1056,1076,1096,1116,1136,1156,1176,1197,1217,1236,1256,1276],"xSR":741.5,"ySR":573.95,"xT1":424.9,"yT1":0,"xT2":1058.1,"yT2":0,"toosoon":0,"cond_shown":"equaldotsize","ratio_trial":500,"smaller_num":"4","larger_num":"8","correct_side":1,"subjID":"JulianDavidRoaSanchez22","gender":"0","age":"9","school":"4"},{"start_time":1552328036711,"click_time":1552328037856,"finger_time":1552328037456,"fix_duration":774.2326309726612,"trial":26,"RT":745,"MT":400,"sideResp":1,"stimulus":"img/500/equaldotsize/L/4_Ratio_500_L_18_R_9.png","xmouse":[800,800,800,800,800,800,800,800,800,800,800,800,800,800,800,800,800,800,800,800,800,800,800,800,800,800,800,800,800,800,800,800,800,800,800,800,800,796,781,773,765,753,734,674,648,615,594,576,565,543,522,519,513,512,511,509,507,503],"ymouse":[625,625,625,625,625,625,625,625,625,625,625,625,625,625,625,625,625,625,625,625,625,625,625,625,625,625,625,625,625,625,625,625,625,623,616,607,591,569,520,491,462,418,353,258,228,196,180,167,159,135,113,110,106,105,104,103,100,95],"timestamp_mouse":[13,40,46,66,86,106,126,146,165,185,206,226,245,266,285,305,325,345,365,386,405,426,446,465,486,505,525,545,566,585,605,626,645,665,686,705,725,745,766,785,805,825,845,866,885,906,926,945,965,985,1005,1025,1045,1066,1084,1105,1126,1145],"xSR":741.5,"ySR":573.95,"xT1":424.9,"yT1":0,"xT2":1058.1,"yT2":0,"toosoon":0,"cond_shown":"equaldotsize","ratio_trial":500,"smaller_num":"9","larger_num":"18","correct_side":1,"subjID":"JulianDavidRoaSanchez22","gender":"0","age":"9","school":"4"},{"start_time":1552328038907,"click_time":1552328041736,"finger_time":1552328040437,"fix_duration":250,"trial":27,"RT":1530,"MT":1299,"sideResp":2,"stimulus":"img/500/equaldotsize/R/3_Ratio_500_L_10_R_20.png","xmouse":[806,806,806,806,806,806,806,806,806,806,806,806,806,806,806,806,806,806,806,806,806,806,806,806,806,806,806,806,806,806,806,806,806,806,806,806,806,806,806,806,806,806,806,806,806,806,806,806,806,806,806,806,806,806,806,806,806,806,806,806,806,806,806,806,806,806,806,806,806,806,806,806,806,806,806,807,811,816,822,826,826,826,826,826,826,826,826,826,826,826,826,826,826,826,826,826,826,826,816,781,770,761,758,757,757,757,757,757,757,756,754,753,749,748,747,747,747,749,751,772,779,808,829,843,862,868,876,890,906,956,977,983,985,986,990,997,1001,1001,1002,1029,1056,1090],"ymouse":[603,603,603,603,603,603,603,603,603,603,603,603,603,603,603,603,603,603,603,603,603,603,603,603,603,603,603,603,603,603,603,603,603,603,603,603,603,603,603,603,603,603,603,603,603,603,603,603,603,603,603,603,603,603,603,603,603,603,603,603,603,603,603,603,603,603,603,603,603,603,603,603,603,603,602,589,567,538,517,511,511,511,511,511,511,511,511,511,511,511,511,511,511,511,511,510,509,509,520,597,624,641,644,645,645,645,645,645,645,645,643,641,636,633,631,630,628,624,620,587,576,535,507,489,465,450,431,388,334,205,125,81,51,23,0,0,0,0,0,33,53,78],"timestamp_mouse":[21,45,50,69,90,109,130,150,170,189,210,230,249,269,289,310,328,349,370,389,410,430,450,469,489,510,530,550,569,589,609,630,649,670,689,710,730,749,770,789,810,829,850,870,889,910,929,950,970,989,1010,1030,1050,1069,1090,1109,1129,1150,1169,1190,1208,1230,1250,1270,1290,1310,1329,1349,1369,1390,1409,1430,1450,1470,1489,1509,1530,1549,1569,1590,1609,1629,1649,1670,1689,1709,1729,1749,1769,1790,1809,1829,1849,1869,1890,1909,1929,1949,1969,1988,2009,2029,2050,2069,2090,2109,2130,2150,2169,2189,2209,2229,2248,2269,2289,2309,2330,2349,2369,2389,2409,2429,2449,2468,2489,2509,2529,2549,2570,2589,2610,2629,2649,2669,2689,2709,2729,2750,2769,2791,2810,2829],"xSR":741.5,"ySR":573.95,"xT1":424.9,"yT1":0,"xT2":1058.1,"yT2":0,"toosoon":0,"cond_shown":"equaldotsize","ratio_trial":500,"smaller_num":"10","larger_num":"20","correct_side":2,"subjID":"JulianDavidRoaSanchez22","gender":"0","age":"9","school":"4"},{"start_time":1552328044017,"click_time":1552328044997,"finger_time":1552328044776,"fix_duration":1320.9039708399116,"trial":28,"RT":759,"MT":221,"sideResp":1,"stimulus":"img/500/equaldotanddens/L/5_Ratio_500_L_4_R_2.png","xmouse":[787,787,787,787,787,787,787,787,787,787,787,787,787,787,787,787,787,787,787,787,787,787,787,787,787,787,787,787,787,787,787,787,787,790,790,789,787,781,772,766,756,742,725,687,620,588,558,537,510],"ymouse":[639,639,639,639,639,639,639,639,639,639,639,639,639,639,639,639,639,639,639,639,639,639,639,639,639,639,639,639,639,639,639,636,632,604,594,586,577,566,542,525,503,472,429,349,232,176,125,79,17],"timestamp_mouse":[20,39,60,79,100,121,140,159,179,201,220,239,261,280,300,320,339,359,379,401,421,440,461,480,499,521,540,560,579,600,620,640,659,679,700,719,740,759,779,799,820,839,860,879,901,919,939,959,980],"xSR":741.5,"ySR":573.95,"xT1":424.9,"yT1":0,"xT2":1058.1,"yT2":0,"toosoon":0,"cond_shown":"equaldotanddens","ratio_trial":500,"smaller_num":"2","larger_num":"4","correct_side":1,"subjID":"JulianDavidRoaSanchez22","gender":"0","age":"9","school":"4"},{"start_time":1552328046795,"click_time":1552328048596,"finger_time":1552328048216,"fix_duration":1076.2997308316671,"trial":29,"RT":1421,"MT":380,"sideResp":1,"stimulus":"img/500/randomdotsizeEA/L/11_Ratio_500_L_12_R_6.png","xmouse":[769,769,769,769,769,769,769,769,769,769,770,770,770,770,770,770,770,770,770,770,770,770,770,770,770,770,770,770,770,770,770,770,770,770,770,770,770,770,770,770,770,770,770,770,770,770,770,770,770,770,770,770,770,770,770,770,770,770,770,770,770,770,770,770,770,770,770,770,770,770,770,759,753,733,713,693,648,622,608,591,576,559,559,559,558,558,552,546,537,525,512],"ymouse":[613,613,613,613,613,613,613,613,613,613,614,614,614,614,614,614,614,614,614,614,614,614,614,614,614,614,614,614,614,614,614,614,614,614,614,614,614,614,614,614,614,614,614,614,614,614,614,614,614,614,614,614,614,614,614,614,614,614,614,614,614,614,614,614,614,614,614,614,614,614,612,573,553,489,441,393,295,252,220,186,159,128,128,128,127,125,115,106,94,73,52],"timestamp_mouse":[13,27,41,61,81,103,122,142,161,182,203,222,241,263,281,301,321,343,363,382,402,421,441,462,483,503,522,542,563,581,601,623,643,661,681,702,721,741,762,783,802,821,842,861,883,901,921,942,962,982,1003,1023,1042,1061,1082,1102,1121,1141,1162,1182,1203,1223,1242,1262,1282,1303,1321,1341,1362,1381,1401,1421,1442,1461,1482,1502,1522,1542,1562,1582,1602,1621,1641,1661,1682,1701,1721,1741,1762,1781,1801],"xSR":741.5,"ySR":573.95,"xT1":424.9,"yT1":0,"xT2":1058.1,"yT2":0,"toosoon":0,"cond_shown":"randomdotsizeEA","ratio_trial":500,"smaller_num":"6","larger_num":"12","correct_side":1,"subjID":"JulianDavidRoaSanchez22","gender":"0","age":"9","school":"4"},{"start_time":1552328050628,"click_time":1552328052157,"finger_time":1552328051877,"fix_duration":1170.3938069114556,"trial":30,"RT":1249,"MT":280,"sideResp":1,"stimulus":"img/900/randomdotsizeEA/L/8_Ratio_900_L_20_R_18.png","xmouse":[795,795,795,795,795,795,795,795,795,795,795,795,795,795,795,795,795,795,795,795,795,795,795,795,795,795,795,795,795,795,795,795,795,795,795,795,795,795,795,795,795,795,795,795,795,795,795,795,795,795,795,795,795,795,795,795,795,795,795,793,792,786,776,762,737,688,669,655,644,625,617,605,598,586,571,519,498],"ymouse":[617,617,617,617,617,617,617,617,617,617,617,617,617,617,617,617,617,617,617,617,617,617,617,617,617,617,617,617,617,617,617,617,617,617,617,617,617,617,617,617,617,617,617,617,617,617,617,617,617,617,617,617,617,617,617,617,617,617,617,615,607,594,572,540,483,370,329,299,274,230,211,188,173,156,138,100,82],"timestamp_mouse":[14,35,48,69,88,110,129,149,170,190,209,229,249,268,288,308,328,348,369,390,408,428,448,468,490,508,528,549,569,588,608,629,650,669,688,710,729,748,769,788,809,829,848,869,888,909,930,949,969,988,1010,1028,1050,1068,1089,1109,1128,1149,1170,1189,1208,1228,1249,1268,1288,1308,1328,1348,1370,1388,1408,1429,1449,1468,1488,1508,1528],"xSR":741.5,"ySR":573.95,"xT1":424.9,"yT1":0,"xT2":1058.1,"yT2":0,"toosoon":0,"cond_shown":"randomdotsizeEA","ratio_trial":900,"smaller_num":"18","larger_num":"20","correct_side":1,"subjID":"JulianDavidRoaSanchez22","gender":"0","age":"9","school":"4"},{"start_time":1552328055676,"click_time":1552328059077,"finger_time":1552328058736,"fix_duration":1376.8589382332887,"trial":31,"RT":3060,"MT":341,"sideResp":1,"stimulus":"img/500/equaldotanddens/L/4_Ratio_500_L_18_R_9.png","xmouse":[804,804,804,804,804,804,805,805,806,806,807,807,807,807,807,807,807,807,807,807,807,807,807,807,807,807,808,808,809,809,809,809,809,809,809,809,809,809,809,809,809,809,809,809,809,809,809,809,809,809,809,809,809,809,809,809,809,809,809,809,809,809,809,809,809,809,809,809,809,809,809,809,809,809,809,809,809,809,809,809,809,809,809,809,809,809,809,809,809,809,809,809,809,809,809,809,809,809,809,809,809,809,809,810,811,812,813,814,815,816,817,820,822,825,826,828,828,828,828,828,828,828,828,828,828,830,830,831,831,833,834,835,835,836,837,837,837,837,837,837,837,837,837,837,837,837,837,837,837,837,837,837,837,828,810,768,737,711,672,661,652,646,639,620,610,602,593,581,540,503,462],"ymouse":[644,644,644,643,643,641,640,638,636,635,634,634,634,633,633,633,633,633,633,633,633,633,633,633,632,632,630,629,628,628,628,628,628,628,628,628,627,627,627,627,627,627,627,627,627,627,627,627,626,626,626,626,626,626,626,626,626,626,626,626,626,626,626,626,626,626,626,626,626,626,626,626,626,626,626,626,626,626,626,626,626,626,626,626,626,626,626,626,626,626,626,626,626,626,626,626,626,626,626,626,626,626,626,625,624,622,621,620,619,618,616,614,613,611,610,609,609,608,608,608,608,608,608,608,608,608,607,607,607,606,605,604,604,603,603,603,603,603,601,601,601,601,601,601,601,601,601,601,601,601,601,598,594,554,517,440,389,353,301,287,273,255,235,198,185,176,170,162,134,104,65],"timestamp_mouse":[2,21,43,60,82,101,120,141,160,181,200,222,241,261,281,302,321,341,360,381,402,420,441,461,481,501,521,541,560,580,601,620,640,662,681,700,721,742,760,781,801,821,840,862,881,900,921,941,960,980,1001,1020,1041,1060,1082,1100,1120,1140,1162,1181,1202,1221,1241,1260,1281,1300,1320,1340,1360,1381,1402,1421,1440,1460,1482,1501,1521,1541,1561,1581,1601,1620,1640,1661,1680,1702,1721,1741,1760,1780,1802,1820,1841,1861,1880,1900,1921,1942,1961,1980,2000,2022,2041,2061,2080,2100,2122,2141,2160,2181,2200,2220,2242,2261,2280,2301,2320,2342,2361,2381,2400,2420,2441,2461,2481,2500,2521,2541,2561,2580,2601,2621,2640,2661,2681,2701,2721,2741,2761,2781,2801,2821,2840,2861,2881,2902,2920,2941,2961,2982,3001,3020,3041,3060,3081,3100,3120,3140,3160,3180,3201,3221,3241,3260,3280,3300,3320,3340,3361,3381,3401],"xSR":741.5,"ySR":573.95,"xT1":424.9,"yT1":0,"xT2":1058.1,"yT2":0,"toosoon":0,"cond_shown":"equaldotanddens","ratio_trial":500,"smaller_num":"9","larger_num":"18","correct_side":1,"subjID":"JulianDavidRoaSanchez22","gender":"0","age":"9","school":"4"},{"start_time":1552328061709,"click_time":1552328068597,"finger_time":1552328068056,"fix_duration":250,"trial":32,"RT":6347,"MT":541,"sideResp":1,"stimulus":"img/500/equaldotanddens/L/10_Ratio_500_L_4_R_2.png","xmouse":[817,817,817,817,817,817,817,817,817,817,817,817,817,817,817,817,817,817,817,817,817,817,817,817,817,818,818,818,818,818,818,818,818,818,818,818,818,818,818,818,818,818,818,818,818,818,818,818,818,818,818,818,818,818,818,818,818,818,818,818,818,818,818,818,818,818,818,818,818,818,818,818,818,818,818,818,818,818,818,818,818,818,818,818,818,818,818,818,818,818,818,818,818,818,818,818,818,818,818,818,818,818,818,818,818,818,818,818,818,818,818,818,818,818,818,818,818,818,818,818,818,818,818,818,818,818,818,818,818,818,818,818,818,818,818,818,818,818,818,818,818,818,818,818,818,818,818,818,818,818,818,818,818,818,818,818,818,818,818,818,818,818,818,818,818,818,818,818,818,818,818,818,818,818,818,818,818,818,818,818,818,818,818,818,818,818,818,818,818,818,818,818,818,818,818,818,818,818,818,818,818,818,818,818,818,818,818,818,818,818,818,818,818,818,818,818,818,818,818,818,818,818,818,818,818,818,818,818,818,818,818,818,818,818,818,818,818,818,818,818,819,820,821,822,823,823,823,823,823,823,823,823,823,823,823,823,823,823,823,823,823,823,823,823,823,823,823,823,823,823,823,823,823,823,823,823,823,823,823,823,823,823,823,823,823,823,823,823,823,823,823,823,823,823,823,823,823,823,823,823,823,823,823,823,823,823,823,823,823,823,823,822,821,817,813,808,800,785,779,765,756,746,732,720,710,699,683,629,600,586,571,560,547,539,532,528,524,518,515,514,511,510,507,503,498],"ymouse":[631,631,631,631,631,631,631,631,631,631,631,631,631,631,631,631,631,631,631,631,631,631,631,629,629,628,628,628,628,628,628,628,628,628,628,628,628,628,628,628,628,628,628,628,628,628,628,628,628,628,628,628,628,628,628,628,628,628,628,628,628,628,628,628,628,628,628,628,628,628,628,628,628,628,628,628,628,628,628,628,628,628,628,628,628,628,628,628,628,628,628,628,628,628,628,628,628,628,628,628,628,628,628,628,628,628,628,628,628,628,628,628,628,628,628,628,628,628,628,628,628,628,628,628,628,628,628,628,628,628,628,628,628,628,628,628,628,628,628,628,628,628,628,628,628,628,628,628,628,628,628,628,628,628,628,628,628,628,628,628,628,628,628,628,628,628,628,628,628,628,628,628,628,628,628,628,628,628,628,628,628,627,627,627,627,627,626,626,626,626,626,626,626,626,626,626,626,626,626,626,626,626,626,626,626,626,626,626,626,626,626,626,626,626,626,626,626,626,626,626,626,626,626,626,626,626,626,626,626,626,626,626,626,626,626,626,626,626,626,626,625,625,624,621,619,619,619,618,618,618,618,618,618,618,618,618,618,618,618,618,618,618,618,618,618,618,618,618,618,618,618,618,618,618,618,618,618,618,618,618,618,618,618,618,618,618,618,618,618,618,618,618,618,618,618,618,618,618,618,618,618,618,618,618,618,618,618,618,618,618,618,618,617,615,612,607,598,571,555,525,505,485,452,437,425,411,390,318,280,268,255,244,217,198,184,172,161,147,139,133,126,119,108,100,94],"timestamp_mouse":[13,44,49,67,88,107,128,148,167,187,207,227,248,267,288,309,328,348,367,387,408,428,448,467,487,507,527,548,568,588,607,627,647,669,689,708,728,748,767,787,807,828,848,869,887,909,928,948,968,989,1008,1028,1048,1068,1087,1107,1128,1148,1167,1187,1207,1228,1249,1268,1287,1307,1328,1348,1369,1387,1407,1428,1448,1468,1488,1508,1528,1548,1568,1588,1607,1628,1649,1669,1687,1707,1729,1748,1768,1787,1809,1827,1848,1868,1887,1907,1929,1947,1967,1988,2008,2029,2049,2068,2089,2109,2129,2147,2168,2187,2207,2229,2249,2267,2288,2308,2328,2349,2367,2388,2408,2429,2448,2467,2487,2509,2528,2548,2569,2588,2607,2628,2649,2668,2689,2708,2728,2749,2768,2788,2807,2827,2848,2868,2887,2907,2928,2948,2969,2987,3008,3028,3048,3068,3087,3107,3129,3147,3168,3189,3207,3228,3248,3269,3287,3307,3328,3347,3367,3388,3408,3427,3447,3468,3488,3509,3528,3549,3567,3587,3608,3629,3647,3668,3689,3708,3728,3747,3767,3788,3808,3829,3848,3868,3887,3908,3927,3948,3967,3989,4009,4028,4048,4068,4088,4109,4129,4149,4168,4187,4208,4227,4247,4268,4289,4308,4329,4347,4368,4388,4407,4429,4448,4467,4488,4507,4527,4547,4569,4587,4609,4629,4647,4667,4687,4708,4729,4749,4769,4787,4808,4827,4847,4867,4888,4908,4928,4948,4967,4989,5008,5027,5048,5068,5088,5108,5128,5149,5167,5187,5208,5227,5248,5267,5288,5308,5329,5347,5368,5388,5409,5427,5447,5468,5488,5509,5528,5547,5569,5589,5607,5628,5647,5668,5688,5708,5728,5748,5769,5787,5808,5827,5848,5869,5888,5908,5928,5947,5968,5987,6007,6028,6048,6068,6088,6108,6128,6148,6169,6189,6208,6228,6247,6267,6288,6307,6327,6347,6369,6387,6408,6427,6448,6467,6488,6507,6529,6547,6567,6587,6607,6628,6648,6669,6687,6707,6727,6747,6767,6788,6807,6827,6847,6867,6887],"xSR":741.5,"ySR":573.95,"xT1":424.9,"yT1":0,"xT2":1058.1,"yT2":0,"toosoon":0,"cond_shown":"equaldotanddens","ratio_trial":500,"smaller_num":"2","larger_num":"4","correct_side":1,"subjID":"JulianDavidRoaSanchez22","gender":"0","age":"9","school":"4"},{"start_time":1552328070413,"click_time":1552328072096,"finger_time":1552328071578,"fix_duration":315.0155808082712,"trial":33,"RT":1165,"MT":518,"sideResp":2,"stimulus":"img/900/equaldotanddens/L/2_Ratio_900_L_20_R_18.png","xmouse":[773,773,773,773,773,773,773,773,773,773,773,773,773,773,773,773,773,773,773,773,773,773,773,773,773,773,773,773,773,773,773,773,773,773,773,773,773,773,773,773,773,773,773,773,773,773,773,773,773,773,773,773,773,773,773,774,779,798,812,830,851,872,900,947,971,994,1008,1015,1016,1016,1016,1016,1011,1002,1001,1001,1001,1002,1006,1011,1015,1022,1035,1047,1059],"ymouse":[661,661,661,661,661,661,661,661,661,661,661,661,661,661,661,661,661,661,661,661,661,661,661,661,661,661,661,661,661,661,661,661,661,661,661,661,661,661,661,661,661,661,661,661,661,661,661,659,657,654,653,652,652,651,647,642,629,585,553,513,476,441,391,316,284,254,234,213,203,192,180,167,142,123,117,113,111,107,102,97,94,89,83,80,78],"timestamp_mouse":[13,24,44,64,85,105,124,144,163,184,204,224,243,263,284,303,325,344,363,384,405,424,444,463,484,503,523,543,564,583,604,624,643,664,685,703,724,743,765,783,803,824,843,864,884,905,924,944,963,983,1003,1024,1044,1063,1083,1103,1123,1144,1165,1183,1203,1224,1243,1264,1284,1303,1323,1344,1363,1384,1404,1423,1443,1463,1484,1504,1523,1544,1563,1584,1603,1624,1644,1663,1683],"xSR":741.5,"ySR":573.95,"xT1":424.9,"yT1":0,"xT2":1058.1,"yT2":0,"toosoon":0,"cond_shown":"equaldotanddens","ratio_trial":900,"smaller_num":"18","larger_num":"20","correct_side":1,"subjID":"JulianDavidRoaSanchez22","gender":"0","age":"9","school":"4"},{"start_time":1552328075456,"click_time":1552328077016,"finger_time":1552328076457,"fix_duration":597.9863294818276,"trial":34,"RT":1001,"MT":559,"sideResp":2,"stimulus":"img/750/equaldotsize/R/15_Ratio_750_L_9_R_12.png","xmouse":[787,787,787,787,787,787,787,787,787,787,787,787,787,787,787,787,787,787,787,787,787,787,787,787,787,787,787,787,787,787,787,787,787,787,787,787,787,787,787,787,787,787,787,787,787,788,789,790,791,792,793,796,801,807,819,835,917,988,1103,1159,1183,1193,1193,1193,1192,1193,1205,1211,1211,1211,1211,1207,1196,1183,1178,1176,1173,1167,1158],"ymouse":[617,617,617,617,617,617,615,615,615,615,615,615,615,615,615,615,614,613,612,612,612,612,612,611,611,610,610,610,610,610,610,610,610,610,610,610,610,610,610,610,610,610,609,608,607,604,595,585,579,574,569,558,550,540,525,505,436,369,233,169,140,100,86,76,67,52,7,0,0,0,0,3,12,21,25,26,28,30,33],"timestamp_mouse":[2,20,41,61,80,100,120,141,162,181,201,221,242,261,281,300,320,342,361,381,400,421,441,461,480,501,521,541,560,580,600,621,640,661,680,701,720,740,760,780,802,821,841,860,880,902,920,940,961,981,1001,1021,1040,1060,1080,1101,1120,1140,1160,1181,1200,1220,1242,1261,1280,1300,1320,1340,1360,1380,1400,1420,1442,1460,1480,1501,1520,1540,1560],"xSR":741.5,"ySR":573.95,"xT1":424.9,"yT1":0,"xT2":1058.1,"yT2":0,"toosoon":0,"cond_shown":"equaldotsize","ratio_trial":750,"smaller_num":"9","larger_num":"12","correct_side":2,"subjID":"JulianDavidRoaSanchez22","gender":"0","age":"9","school":"4"},{"start_time":1552328079096,"click_time":1552328080436,"finger_time":1552328079916,"fix_duration":1138.4607607573873,"trial":35,"RT":820,"MT":520,"sideResp":2,"stimulus":"img/750/equaldotanddens/R/3_Ratio_750_L_15_R_20.png","xmouse":[793,793,793,793,793,793,793,793,793,793,793,793,793,793,793,793,793,793,793,793,793,793,793,793,793,793,793,793,793,793,793,793,793,793,793,793,799,802,809,834,859,899,972,1062,1257,1302,1320,1326,1319,1308,1293,1275,1267,1249,1231,1226,1222,1218,1211,1194,1186,1180,1176,1176,1173,1166,1155],"ymouse":[605,605,605,605,605,605,605,605,605,605,605,605,605,605,605,605,605,605,605,605,605,605,605,605,605,605,605,605,605,605,605,605,605,605,605,605,601,598,594,577,559,525,464,394,241,209,193,176,143,127,110,90,84,73,65,63,61,58,56,53,52,52,52,52,52,52,52],"timestamp_mouse":[21,41,62,82,102,121,140,160,181,201,221,242,260,280,301,320,340,360,381,400,420,440,461,481,501,520,540,562,580,602,620,641,660,681,702,721,741,760,781,801,820,840,862,881,900,920,941,961,981,1001,1021,1040,1061,1080,1101,1121,1142,1160,1180,1200,1221,1240,1260,1282,1302,1320,1340],"xSR":741.5,"ySR":573.95,"xT1":424.9,"yT1":0,"xT2":1058.1,"yT2":0,"toosoon":0,"cond_shown":"equaldotanddens","ratio_trial":750,"smaller_num":"15","larger_num":"20","correct_side":2,"subjID":"JulianDavidRoaSanchez22","gender":"0","age":"9","school":"4"},{"start_time":1552328081979,"click_time":1552328082996,"finger_time":1552328082676,"fix_duration":680.9650923549847,"trial":36,"RT":697,"MT":320,"sideResp":2,"stimulus":"img/900/equaldotsize/R/12_Ratio_900_L_18_R_20.png","xmouse":[809,809,809,809,809,809,809,809,809,809,809,809,809,809,809,809,809,809,809,809,809,809,809,809,809,809,809,809,809,809,809,809,811,818,833,902,936,976,992,1007,1023,1026,1030,1033,1037,1043,1046,1046,1049,1053,1073],"ymouse":[609,609,609,609,609,609,609,609,609,609,609,609,609,609,609,609,609,609,609,609,609,609,609,609,609,609,609,609,609,608,607,605,600,589,566,470,421,365,330,288,223,196,168,145,128,110,102,100,94,89,70],"timestamp_mouse":[19,38,58,77,98,119,138,158,177,199,217,238,258,277,297,317,338,357,378,399,417,438,458,478,499,517,538,559,577,598,617,637,657,677,697,717,737,757,778,798,817,837,858,877,898,917,938,958,978,997,1017],"xSR":741.5,"ySR":573.95,"xT1":424.9,"yT1":0,"xT2":1058.1,"yT2":0,"toosoon":0,"cond_shown":"equaldotsize","ratio_trial":900,"smaller_num":"18","larger_num":"20","correct_side":2,"subjID":"JulianDavidRoaSanchez22","gender":"0","age":"9","school":"4"},{"start_time":1552328083890,"click_time":1552328084936,"finger_time":1552328084716,"fix_duration":250,"trial":37,"RT":826,"MT":220,"sideResp":2,"stimulus":"img/500/equaldotanddens/R/9_Ratio_500_L_2_R_4.png","xmouse":[821,821,821,821,821,821,821,821,821,821,821,821,821,821,821,822,822,822,822,822,822,822,822,822,823,823,823,823,823,823,823,823,823,823,823,823,823,823,825,827,839,855,875,904,949,1050,1087,1107,1114,1116,1114,1111,1109],"ymouse":[630,629,629,628,628,628,628,628,628,627,626,626,624,624,624,623,623,623,623,623,623,623,623,623,623,623,623,623,622,622,621,621,620,620,620,620,619,619,615,610,583,545,506,458,405,291,246,216,191,168,130,108,96],"timestamp_mouse":[16,40,46,66,86,107,126,148,167,187,206,226,247,266,286,306,327,346,367,387,407,426,447,468,486,506,526,546,566,587,607,626,646,666,687,707,726,746,766,787,807,826,846,868,887,907,926,946,966,987,1006,1026,1046],"xSR":741.5,"ySR":573.95,"xT1":424.9,"yT1":0,"xT2":1058.1,"yT2":0,"toosoon":0,"cond_shown":"equaldotanddens","ratio_trial":500,"smaller_num":"2","larger_num":"4","correct_side":2,"subjID":"JulianDavidRoaSanchez22","gender":"0","age":"9","school":"4"},{"start_time":1552328087166,"click_time":1552328088257,"finger_time":1552328087896,"fix_duration":1368.3554899741298,"trial":38,"RT":730,"MT":361,"sideResp":2,"stimulus":"img/900/equaldotanddens/R/12_Ratio_900_L_18_R_20.png","xmouse":[783,784,784,784,785,785,785,786,786,786,786,786,786,786,786,786,786,786,786,786,786,786,786,786,786,786,786,786,786,786,786,786,789,793,801,816,855,872,891,916,943,968,970,971,971,971,976,980,984,991,997,1011,1021,1039,1066],"ymouse":[626,626,626,626,626,627,627,628,629,629,629,630,630,630,630,630,630,630,630,630,630,630,630,630,630,630,630,630,630,630,630,630,626,621,607,590,538,507,473,426,375,300,273,252,236,220,199,185,171,155,144,128,119,109,98],"timestamp_mouse":[13,38,50,71,92,111,130,152,170,191,210,231,250,271,291,310,330,350,370,390,411,430,451,471,491,510,530,550,571,591,610,630,650,671,690,710,730,750,770,791,810,830,850,871,891,911,931,951,970,990,1010,1030,1050,1071,1091],"xSR":741.5,"ySR":573.95,"xT1":424.9,"yT1":0,"xT2":1058.1,"yT2":0,"toosoon":0,"cond_shown":"equaldotanddens","ratio_trial":900,"smaller_num":"18","larger_num":"20","correct_side":2,"subjID":"JulianDavidRoaSanchez22","gender":"0","age":"9","school":"4"},{"start_time":1552328089551,"click_time":1552328090876,"finger_time":1552328090317,"fix_duration":552.3919390806727,"trial":39,"RT":766,"MT":559,"sideResp":1,"stimulus":"img/900/randomdotsizeEA/R/13_Ratio_900_L_18_R_20.png","xmouse":[809,809,809,809,809,809,809,809,810,811,812,812,813,813,813,813,814,814,814,814,814,814,814,814,814,814,814,814,814,814,814,814,814,814,814,811,805,798,769,736,690,639,575,567,564,559,549,538,508,496,486,484,484,484,484,484,484,484,484,484,484,484,484,484,484,484,484],"ymouse":[631,631,631,631,631,631,632,633,633,634,634,634,634,634,634,634,635,635,636,637,637,637,638,638,638,638,638,638,638,638,638,638,638,637,631,624,611,595,545,493,423,335,228,206,187,176,157,143,120,112,107,105,105,105,105,105,105,105,105,105,105,105,105,105,103,100,99],"timestamp_mouse":[19,38,47,65,85,105,125,147,167,187,205,227,247,265,286,307,325,346,366,385,405,426,445,467,485,506,525,546,565,586,605,627,647,666,685,705,727,746,766,785,805,825,846,865,885,905,925,946,966,985,1005,1025,1046,1066,1086,1107,1125,1146,1165,1186,1207,1225,1246,1265,1287,1305,1325],"xSR":741.5,"ySR":573.95,"xT1":424.9,"yT1":0,"xT2":1058.1,"yT2":0,"toosoon":0,"cond_shown":"randomdotsizeEA","ratio_trial":900,"smaller_num":"18","larger_num":"20","correct_side":2,"subjID":"JulianDavidRoaSanchez22","gender":"0","age":"9","school":"4"},{"start_time":1552328092029,"click_time":1552328093297,"finger_time":1552328092916,"fix_duration":250,"trial":40,"RT":887,"MT":381,"sideResp":2,"stimulus":"img/750/equaldotanddens/L/9_Ratio_750_L_4_R_3.png","xmouse":[754,753,753,753,753,752,752,752,752,752,752,752,753,753,753,753,753,753,754,760,762,764,766,766,766,766,766,766,766,766,766,766,766,768,771,774,776,777,778,781,782,784,789,801,858,906,966,1037,1110,1250,1280,1300,1302,1302,1302,1300,1297,1296,1295,1290,1269,1235,1192,1151],"ymouse":[663,663,663,663,663,663,663,663,663,663,660,658,657,656,656,656,656,656,655,649,647,643,639,639,639,639,639,639,639,639,639,639,639,640,639,636,634,631,630,627,626,624,617,601,503,422,313,220,137,32,5,0,0,0,0,0,0,0,0,0,5,15,27,38],"timestamp_mouse":[13,35,49,67,87,108,127,147,168,187,208,227,247,269,288,307,327,348,367,387,408,427,448,468,488,507,527,547,568,588,607,629,647,667,688,707,728,747,769,788,807,828,848,867,887,907,927,948,968,987,1008,1027,1048,1067,1089,1107,1127,1147,1168,1188,1207,1227,1248,1268],"xSR":741.5,"ySR":573.95,"xT1":424.9,"yT1":0,"xT2":1058.1,"yT2":0,"toosoon":0,"cond_shown":"equaldotanddens","ratio_trial":750,"smaller_num":"3","larger_num":"4","correct_side":1,"subjID":"JulianDavidRoaSanchez22","gender":"0","age":"9","school":"4"},{"start_time":1552328095597,"click_time":1552328096717,"finger_time":1552328096277,"fix_duration":1479.218373098483,"trial":41,"RT":680,"MT":440,"sideResp":2,"stimulus":"img/250/equaldotsize/R/10_Ratio_250_L_4_R_16.png","xmouse":[787,787,786,786,786,786,786,786,786,786,786,786,786,786,788,790,791,791,792,794,794,794,794,794,794,794,794,794,794,794,796,802,813,829,858,927,965,991,1012,1024,1029,1033,1033,1033,1033,1033,1033,1033,1033,1035,1050,1054,1057,1058,1058,1060],"ymouse":[623,616,611,611,610,610,610,610,610,610,610,610,610,610,610,611,611,612,613,614,614,614,614,614,614,614,614,614,614,614,613,601,581,549,501,371,305,257,218,184,154,134,128,125,125,124,121,117,112,104,73,65,57,53,48,44],"timestamp_mouse":[30,39,59,81,100,119,140,159,179,200,220,240,260,279,299,319,339,359,381,401,419,439,460,481,500,520,541,560,580,599,620,639,660,680,699,719,739,759,780,799,820,840,860,879,900,919,939,960,980,1000,1020,1040,1060,1079,1099,1119],"xSR":741.5,"ySR":573.95,"xT1":424.9,"yT1":0,"xT2":1058.1,"yT2":0,"toosoon":0,"cond_shown":"equaldotsize","ratio_trial":250,"smaller_num":"4","larger_num":"16","correct_side":2,"subjID":"JulianDavidRoaSanchez22","gender":"0","age":"9","school":"4"},{"start_time":1552328097952,"click_time":1552328099538,"finger_time":1552328099077,"fix_duration":434.5694792394895,"trial":42,"RT":1125,"MT":461,"sideResp":2,"stimulus":"img/900/equaldotanddens/L/4_Ratio_900_L_20_R_18.png","xmouse":[797,797,797,797,797,797,797,797,797,797,797,797,797,797,797,797,797,798,800,800,800,801,801,803,805,806,808,808,808,809,809,809,809,809,809,809,809,809,809,809,809,809,809,809,809,809,809,809,809,809,809,809,809,809,810,814,825,841,873,958,991,1016,1025,1024,1030,1041,1055,1063,1067,1068,1068,1068,1069,1073,1078,1082,1086,1088,1091,1094],"ymouse":[607,607,607,607,607,607,607,607,607,607,607,607,607,607,607,607,606,606,605,604,604,604,603,602,599,599,598,598,598,597,597,597,597,597,597,597,597,597,597,597,597,597,597,597,597,597,597,597,597,596,595,595,595,595,593,586,568,533,465,308,230,164,107,88,58,36,13,0,0,0,0,0,0,0,0,0,0,0,0,1],"timestamp_mouse":[4,41,45,64,84,106,125,144,164,185,205,224,245,264,285,304,325,345,365,384,404,425,444,464,485,505,526,544,565,584,605,625,644,664,685,705,724,744,766,786,804,825,845,864,885,905,925,945,965,985,1005,1026,1045,1064,1085,1104,1125,1144,1164,1185,1205,1224,1246,1266,1284,1304,1324,1345,1365,1384,1404,1424,1445,1467,1485,1504,1524,1545,1564,1585],"xSR":741.5,"ySR":573.95,"xT1":424.9,"yT1":0,"xT2":1058.1,"yT2":0,"toosoon":0,"cond_shown":"equaldotanddens","ratio_trial":900,"smaller_num":"18","larger_num":"20","correct_side":1,"subjID":"JulianDavidRoaSanchez22","gender":"0","age":"9","school":"4"},{"start_time":1552328101108,"click_time":1552328102037,"finger_time":1552328101896,"fix_duration":250,"trial":43,"RT":788,"MT":141,"sideResp":2,"stimulus":"img/900/randomdotsizeEA/L/4_Ratio_900_L_20_R_18.png","xmouse":[789,790,790,791,792,793,794,795,795,797,797,798,798,800,800,800,801,801,801,801,801,801,801,801,801,801,801,801,801,801,801,801,801,801,801,803,805,809,814,822,833,892,940,1007,1034,1048,1066],"ymouse":[601,601,601,601,601,601,602,603,603,603,603,604,604,604,604,604,605,606,607,609,610,611,611,611,611,611,611,611,611,611,611,613,614,614,614,615,610,597,578,552,513,351,265,143,88,56,22],"timestamp_mouse":[19,43,49,69,89,108,128,148,168,188,209,228,249,270,289,308,329,349,369,388,409,429,450,469,488,509,528,550,568,589,609,628,650,669,689,708,728,748,768,788,808,828,850,868,888,908,928],"xSR":741.5,"ySR":573.95,"xT1":424.9,"yT1":0,"xT2":1058.1,"yT2":0,"toosoon":0,"cond_shown":"randomdotsizeEA","ratio_trial":900,"smaller_num":"18","larger_num":"20","correct_side":1,"subjID":"JulianDavidRoaSanchez22","gender":"0","age":"9","school":"4"},{"start_time":1552328103429,"click_time":1552328104177,"finger_time":1552328103997,"fix_duration":250,"trial":44,"RT":568,"MT":180,"sideResp":1,"stimulus":"img/900/randomdotsizeEA/R/11_Ratio_900_L_18_R_20.png","xmouse":[784,782,780,779,778,777,777,777,777,777,777,777,777,777,777,777,777,777,777,777,778,778,778,778,778,773,766,745,708,623,584,553,533,516,502,490,483],"ymouse":[642,644,646,648,650,651,651,651,651,651,651,651,651,651,651,651,651,651,651,650,649,648,646,644,638,599,574,529,465,333,259,201,169,137,118,102,94],"timestamp_mouse":[32,47,67,87,107,128,149,169,187,207,228,248,268,288,307,328,348,369,389,409,428,447,468,487,507,527,547,568,587,608,627,649,668,688,707,728,748],"xSR":741.5,"ySR":573.95,"xT1":424.9,"yT1":0,"xT2":1058.1,"yT2":0,"toosoon":0,"cond_shown":"randomdotsizeEA","ratio_trial":900,"smaller_num":"18","larger_num":"20","correct_side":2,"subjID":"JulianDavidRoaSanchez22","gender":"0","age":"9","school":"4"},{"start_time":1552328106311,"click_time":1552328107016,"finger_time":1552328106537,"fix_duration":913.8015399399382,"trial":45,"RT":226,"MT":479,"sideResp":2,"stimulus":"img/250/randomdotsizeEA/L/3_Ratio_250_L_8_R_2.png","xmouse":[809,809,810,810,811,812,813,813,814,817,819,855,880,914,947,976,997,1006,1014,1022,1029,1038,1046,1046,1046,1046,1046,1043,1040,1039,1039,1044,1047,1050,1056,1059],"ymouse":[596,595,593,593,593,591,590,590,589,586,584,546,520,486,448,414,378,357,339,319,300,279,253,240,227,212,176,160,149,134,129,105,94,83,73,67],"timestamp_mouse":[6,27,46,66,87,107,126,146,167,186,206,226,245,266,286,305,326,346,366,385,405,425,445,465,486,505,526,545,566,587,607,627,646,666,686,705],"xSR":741.5,"ySR":573.95,"xT1":424.9,"yT1":0,"xT2":1058.1,"yT2":0,"toosoon":0,"cond_shown":"randomdotsizeEA","ratio_trial":250,"smaller_num":"2","larger_num":"8","correct_side":1,"subjID":"JulianDavidRoaSanchez22","gender":"0","age":"9","school":"4"},{"start_time":1552328110485,"click_time":1552328111997,"finger_time":1552328111318,"fix_duration":1186.8708170875593,"trial":46,"RT":833,"MT":679,"sideResp":1,"stimulus":"img/500/randomdotsizeEA/L/13_Ratio_500_L_12_R_6.png","xmouse":[811,811,811,811,811,811,811,811,811,811,811,811,810,810,810,810,810,810,810,810,810,810,810,810,810,810,810,810,810,810,810,810,810,810,810,811,811,812,812,812,809,805,795,780,769,756,741,723,685,675,662,649,637,623,618,615,610,605,587,583,583,581,581,578,576,574,574,574,574,574,574,574,573,552,530,507],"ymouse":[619,619,619,619,619,619,619,619,619,619,619,619,618,618,618,618,618,618,617,617,617,617,617,617,617,617,617,617,617,617,617,617,617,617,616,615,613,612,606,592,577,559,530,480,453,426,401,377,338,323,305,292,283,272,267,263,257,248,222,210,191,167,148,127,122,120,120,120,120,120,120,120,119,87,65,55],"timestamp_mouse":[14,39,53,71,92,113,131,152,173,193,211,233,252,273,293,313,332,351,373,393,413,432,452,473,493,513,532,552,573,592,613,632,653,671,692,713,732,752,771,793,811,833,853,871,892,912,932,952,971,992,1012,1033,1052,1071,1091,1112,1132,1152,1172,1192,1211,1232,1253,1272,1292,1311,1333,1353,1372,1391,1411,1433,1451,1471,1492,1512],"xSR":741.5,"ySR":573.95,"xT1":424.9,"yT1":0,"xT2":1058.1,"yT2":0,"toosoon":0,"cond_shown":"randomdotsizeEA","ratio_trial":500,"smaller_num":"6","larger_num":"12","correct_side":1,"subjID":"JulianDavidRoaSanchez22","gender":"0","age":"9","school":"4"},{"start_time":1552328113189,"click_time":1552328114557,"finger_time":1552328113977,"fix_duration":250,"trial":47,"RT":788,"MT":580,"sideResp":2,"stimulus":"img/500/randomdotsizeEA/R/15_Ratio_500_L_1_R_2.png","xmouse":[805,801,801,801,801,801,801,801,800,799,799,798,797,796,795,795,793,793,793,793,792,792,792,792,792,790,789,789,788,788,788,788,788,788,788,791,796,811,831,905,954,1008,1055,1079,1076,1073,1072,1071,1067,1066,1065,1063,1063,1063,1065,1072,1079,1087,1104,1109,1110,1110,1110,1110,1110,1111,1120,1132,1156],"ymouse":[623,626,626,626,626,626,626,626,626,626,626,626,626,626,626,626,626,626,626,626,627,627,627,627,627,628,629,630,631,631,631,631,631,631,631,628,622,604,584,506,452,383,308,259,228,224,220,214,205,201,195,188,182,172,165,156,149,141,133,131,131,131,131,131,131,129,119,107,87],"timestamp_mouse":[13,30,48,69,88,109,127,149,168,187,208,229,249,267,289,309,328,347,368,389,409,428,447,467,489,509,527,548,568,589,609,627,648,668,688,707,728,748,767,788,808,828,848,867,888,908,928,947,968,988,1008,1028,1048,1068,1087,1107,1129,1147,1168,1188,1208,1229,1249,1268,1287,1307,1328,1348,1368],"xSR":741.5,"ySR":573.95,"xT1":424.9,"yT1":0,"xT2":1058.1,"yT2":0,"toosoon":0,"cond_shown":"randomdotsizeEA","ratio_trial":500,"smaller_num":"1","larger_num":"2","correct_side":2,"subjID":"JulianDavidRoaSanchez22","gender":"0","age":"9","school":"4"},{"start_time":1552328116548,"click_time":1552328118017,"finger_time":1552328117577,"fix_duration":250,"trial":48,"RT":1029,"MT":440,"sideResp":2,"stimulus":"img/500/randomdotsizeEA/R/1_Ratio_500_L_9_R_18.png","xmouse":[777,777,777,777,777,777,777,777,777,777,777,777,777,777,777,777,777,777,777,777,777,777,777,777,777,777,777,777,777,777,777,777,777,777,777,777,777,777,777,777,777,777,777,777,777,777,777,779,781,785,790,810,820,833,838,840,847,850,856,867,878,904,922,965,995,1020,1055,1064,1070,1072,1074,1075,1075,1075],"ymouse":[624,624,624,624,624,624,624,624,624,624,624,624,624,623,623,623,622,622,621,620,620,619,619,618,618,616,615,615,614,613,612,612,612,611,611,611,611,611,611,611,611,611,611,611,611,610,609,607,602,597,586,550,529,499,483,473,458,451,438,418,396,355,324,265,233,209,172,159,148,138,129,110,103,99],"timestamp_mouse":[13,43,49,69,90,110,129,150,169,188,210,228,249,270,289,309,330,350,370,388,408,429,450,470,489,508,529,549,568,588,608,630,648,669,689,710,728,750,769,790,808,829,849,870,888,909,929,948,969,989,1009,1029,1048,1068,1089,1109,1129,1148,1168,1189,1210,1229,1248,1268,1289,1309,1329,1348,1369,1388,1409,1428,1449,1468],"xSR":741.5,"ySR":573.95,"xT1":424.9,"yT1":0,"xT2":1058.1,"yT2":0,"toosoon":0,"cond_shown":"randomdotsizeEA","ratio_trial":500,"smaller_num":"9","larger_num":"18","correct_side":2,"subjID":"JulianDavidRoaSanchez22","gender":"0","age":"9","school":"4"},{"start_time":1552328119797,"click_time":1552328120676,"finger_time":1552328120557,"fix_duration":719.7971364059061,"trial":49,"RT":760,"MT":119,"sideResp":1,"stimulus":"img/250/randomdotsizeEA/L/14_Ratio_250_L_12_R_3.png","xmouse":[773,773,773,773,773,773,773,773,773,773,773,773,773,773,773,773,773,773,773,773,773,773,773,773,773,773,773,773,773,773,774,774,775,775,775,776,776,776,776,745,682,619,554,496,427],"ymouse":[619,619,619,619,619,619,619,619,619,619,619,619,619,619,619,619,619,619,619,619,619,619,619,619,619,619,619,619,619,619,619,618,617,616,608,602,591,575,551,457,333,239,164,121,68],"timestamp_mouse":[10,20,43,60,80,101,119,140,161,180,200,219,240,261,281,299,321,341,360,381,400,421,441,460,480,500,521,540,561,579,600,620,640,659,680,700,720,739,760,780,800,819,840,860,879],"xSR":741.5,"ySR":573.95,"xT1":424.9,"yT1":0,"xT2":1058.1,"yT2":0,"toosoon":0,"cond_shown":"randomdotsizeEA","ratio_trial":250,"smaller_num":"3","larger_num":"12","correct_side":1,"subjID":"JulianDavidRoaSanchez22","gender":"0","age":"9","school":"4"},{"start_time":1552328122994,"click_time":1552328124238,"finger_time":1552328123697,"fix_duration":1375.0093636712984,"trial":50,"RT":703,"MT":541,"sideResp":2,"stimulus":"img/250/randomdotsizeEA/R/6_Ratio_250_L_6_R_24.png","xmouse":[780,780,780,780,780,780,780,780,780,780,780,780,780,780,780,780,780,780,780,780,780,780,780,780,780,780,780,780,780,780,780,780,782,786,804,814,825,840,843,849,865,878,893,907,921,950,964,977,982,989,1000,1007,1013,1017,1021,1031,1034,1037,1040,1047,1054,1057,1060],"ymouse":[599,599,599,599,599,600,601,602,603,603,604,604,604,604,605,605,606,606,606,606,606,606,606,606,606,606,606,606,606,606,606,606,606,602,584,571,559,535,528,513,474,450,426,402,376,319,289,256,247,224,189,173,157,140,127,99,91,84,80,72,64,61,58],"timestamp_mouse":[12,39,43,63,84,103,123,144,163,183,202,223,243,263,283,302,323,342,364,383,403,422,444,463,483,504,524,542,563,583,604,623,644,663,683,703,722,742,762,782,802,823,842,862,883,902,922,942,964,984,1004,1023,1044,1063,1083,1102,1122,1143,1163,1184,1204,1222,1244],"xSR":741.5,"ySR":573.95,"xT1":424.9,"yT1":0,"xT2":1058.1,"yT2":0,"toosoon":0,"cond_shown":"randomdotsizeEA","ratio_trial":250,"smaller_num":"6","larger_num":"24","correct_side":2,"subjID":"JulianDavidRoaSanchez22","gender":"0","age":"9","school":"4"},{"start_time":1552328127043,"click_time":1552328128297,"finger_time":1552328127817,"fix_duration":525.7553524259258,"trial":51,"RT":774,"MT":480,"sideResp":2,"stimulus":"img/250/randomdotsizeEA/R/8_Ratio_250_L_1_R_4.png","xmouse":[795,795,795,795,794,794,794,794,794,794,794,794,794,794,796,796,797,798,798,798,799,799,799,799,799,799,799,799,799,799,801,802,803,804,805,808,815,829,837,843,850,855,874,889,896,903,913,935,946,953,961,968,979,993,1003,1011,1022,1042,1050,1054,1054,1054,1061],"ymouse":[642,643,643,644,646,647,648,648,648,648,648,648,648,648,645,643,642,640,640,640,639,639,639,639,639,639,639,639,639,639,636,635,633,632,629,624,612,585,567,550,528,499,416,360,332,308,287,249,230,213,194,172,140,120,106,91,79,48,36,32,32,32,41],"timestamp_mouse":[13,34,55,74,94,113,133,154,174,195,214,234,255,274,293,313,333,354,374,393,414,435,453,475,494,515,534,553,574,595,614,634,654,675,693,715,733,754,774,795,814,835,853,875,894,915,934,954,975,995,1014,1033,1054,1075,1093,1114,1133,1153,1175,1195,1214,1233,1254],"xSR":741.5,"ySR":573.95,"xT1":424.9,"yT1":0,"xT2":1058.1,"yT2":0,"toosoon":0,"cond_shown":"randomdotsizeEA","ratio_trial":250,"smaller_num":"1","larger_num":"4","correct_side":2,"subjID":"JulianDavidRoaSanchez22","gender":"0","age":"9","school":"4"},{"start_time":1552328131505,"click_time":1552328142897,"finger_time":1552328132438,"fix_duration":965.4756164457226,"trial":52,"RT":933,"MT":10459,"sideResp":2,"stimulus":"img/900/equaldotanddens/R/6_Ratio_900_L_9_R_10.png","xmouse":[794,794,794,794,794,794,794,794,794,794,794,794,794,795,796,797,797,797,797,797,797,797,797,797,797,797,797,797,797,797,797,797,797,797,797,797,797,797,797,797,797,797,797,797,798,798,799,801,803,805,807,808,809,812,815,821,824,829,833,838,841,843,845,847,850,851,852,852,853,854,854,855,855,855,855,853,850,848,845,840,825,816,805,793,781,761,750,739,718,683,667,654,646,640,632,628,623,620,615,608,601,597,595,594,594,594,594,593,593,591,590,588,587,585,583,577,575,574,574,571,571,568,567,566,562,560,558,555,550,543,538,534,528,520,516,511,510,510,510,510,508,506,503,502,500,498,498,498,498,497,497,496,495,495,495,493,492,492,492,492,492,492,492,490,490,485,484,484,484,484,484,484,484,484,484,484,484,484,484,484,484,484,484,484,484,484,484,484,484,484,484,484,484,484,484,484,484,484,484,484,484,484,484,484,484,485,485,487,490,494,497,499,500,500,504,509,511,511,512,512,512,513,514,516,518,519,520,520,520,520,520,520,520,520,520,520,520,520,521,521,523,524,526,528,530,532,532,532,536,542,548,548,548,548,548,548,548,548,549,549,549,549,549,549,549,549,549,549,549,549,549,549,549,549,549,549,549,549,549,549,553,570,602,664,745,981,1047,1088,1111,1118,1120,1120,1120,1122,1126,1134,1136,1136,1136,1136,1136,1136,1136,1136,1136,1136,1136,1136,1136,1136,1136,1136,1135,1133,1119,1077,1032,959,875,786,612,534,462,410,371,361,360,358,357,355,355,355,355,356,365,433,493,569,661,763,1015,1136,1239,1313,1356,1363,1363,1363,1363,1363,1356,1322,1235,1094,903,382,223,135,118,118,160,260,411,595,802,1284,1397,1440,1446,1447,1421,1368,1281,1169,1039,685,577,493,454,442,441,443,454,516,637,1114,1282,1395,1435,1438,1436,1323,1201,1028,836,411,312,294,293,293,308,341,426,540,691,1109,1218,1286,1297,1297,1275,1182,1013,795,547,41,0,2,52,160,568,811,1035,1300,1344,1377,1350,1253,1059,781,55,0,0,0,3,299,539,836,1135,1414,1414,1414,1414,1521,1458,1069,291,0,0,0,0,285,637,1033,1397,1397,1397,1397,1472,1200,440,37,0,0,0,253,515,825,1144,1438,1438,1438,1438,1438,1438,1438,1438,1438,1438,1438,1438,1438,1438,1438,1438,1438,1438,1438,1438,1438,399,248,178,165,165,165,165,165,165,164,160,158,154,149,147,188,247,333,440,555,664,848,922,985,1023,1059,1101,1122,1138,1149,1154,1158,1158,1158,1156,1153,1152,1151,1151,1151,1151,1151,1151,1151,1150,1147,1140,1138,1138,1138,1138,1138,1138,1138,1137,1145,1159,1170,1172,1172,1177,1187,1195,1195,1195,1195,1195,1195,1195,1196,1196,1196,1196,1196,1195,1185,1178,1170,1159,1147],"ymouse":[621,621,621,621,621,621,621,621,621,621,621,621,621,620,618,617,615,614,614,613,613,613,613,613,613,613,613,613,613,613,613,613,613,612,611,611,610,608,605,605,605,601,598,592,579,574,569,561,553,544,542,539,536,533,529,521,517,511,507,501,498,494,491,489,485,483,482,480,479,477,477,475,475,475,474,472,470,468,465,459,443,435,427,419,414,401,393,385,369,353,347,344,339,335,327,325,321,317,315,310,306,304,302,302,302,302,302,301,301,300,297,295,294,292,291,290,289,289,289,287,286,281,277,273,263,256,251,247,241,231,225,220,214,207,203,196,196,196,196,196,190,184,178,172,168,165,165,165,164,160,159,158,156,153,150,145,143,143,143,143,143,143,143,145,145,155,157,157,157,157,157,157,157,157,157,157,157,157,157,157,157,157,157,157,157,157,157,157,157,157,157,157,157,157,157,157,157,157,157,157,157,157,157,157,157,157,157,157,156,156,156,156,164,175,191,226,240,250,252,252,252,253,257,262,265,268,269,269,269,269,269,269,269,269,269,269,269,269,271,272,286,297,306,314,317,319,319,319,319,316,313,313,313,313,313,313,313,313,313,313,316,317,317,317,317,317,317,317,317,317,317,317,317,317,317,317,317,317,317,317,322,326,331,337,346,346,348,351,355,356,356,356,356,356,355,350,349,348,347,345,344,344,344,344,344,344,344,344,344,344,344,344,344,343,335,335,353,384,410,433,458,465,472,480,481,484,485,487,490,495,496,496,497,497,494,475,463,453,445,445,445,445,445,445,445,445,445,445,445,445,443,439,438,438,438,439,462,477,481,482,493,504,521,548,572,615,615,616,616,615,596,576,553,546,546,541,528,519,512,511,510,510,508,504,494,494,494,494,494,493,489,465,464,464,467,524,531,531,531,531,523,518,512,512,514,550,556,558,558,558,551,518,481,461,461,421,413,412,404,404,446,483,515,544,545,545,526,483,424,377,355,355,355,355,356,409,448,493,529,557,557,557,557,579,573,527,522,522,515,515,515,517,546,612,665,665,665,665,752,752,732,686,642,627,627,679,721,773,824,871,871,871,871,871,871,871,871,871,871,871,871,871,871,871,871,871,871,871,871,871,873,856,845,843,843,843,843,843,843,843,839,837,830,817,784,673,601,529,467,418,384,344,333,323,312,300,278,266,253,243,236,220,212,205,196,189,187,186,185,184,184,182,181,180,178,175,170,168,168,168,168,168,168,168,167,135,91,52,0,0,0,0,0,0,0,0,0,0,0,0,0,0,0,1,3,8,12,16,21,24],"timestamp_mouse":[14,43,52,72,92,111,132,153,173,192,212,232,253,272,292,311,332,351,373,392,413,432,451,471,492,513,532,553,573,591,613,632,653,672,692,713,732,752,772,793,813,831,852,872,892,912,933,952,972,992,1013,1031,1051,1071,1092,1111,1132,1152,1173,1193,1211,1232,1251,1272,1293,1312,1332,1353,1373,1392,1412,1431,1452,1471,1491,1512,1532,1552,1572,1591,1612,1631,1651,1672,1693,1712,1732,1752,1772,1793,1812,1831,1851,1872,1892,1912,1933,1952,1973,1991,2012,2031,2052,2072,2093,2112,2132,2152,2172,2193,2211,2232,2251,2272,2291,2312,2331,2352,2373,2393,2412,2432,2452,2472,2493,2511,2531,2551,2572,2593,2611,2632,2652,2672,2691,2712,2732,2753,2773,2792,2812,2833,2851,2872,2892,2911,2932,2952,2973,2993,3012,3032,3051,3071,3092,3112,3133,3153,3172,3192,3212,3233,3253,3271,3291,3312,3332,3353,3372,3392,3411,3431,3452,3472,3493,3512,3532,3552,3573,3593,3613,3632,3652,3673,3692,3712,3732,3751,3772,3792,3813,3832,3852,3871,3891,3913,3933,3952,3973,3993,4012,4032,4053,4071,4093,4111,4133,4152,4172,4192,4211,4231,4251,4271,4292,4312,4332,4352,4372,4393,4412,4431,4452,4473,4492,4512,4533,4552,4571,4591,4612,4631,4651,4672,4692,4713,4732,4752,4773,4793,4813,4832,4852,4872,4892,4911,4932,4952,4973,4993,5012,5032,5051,5072,5093,5113,5132,5153,5173,5192,5213,5233,5252,5272,5292,5313,5333,5353,5373,5393,5413,5437,5452,5471,5493,5513,5531,5552,5571,5592,5612,5633,5652,5673,5692,5712,5732,5752,5772,5793,5812,5832,5852,5871,5891,5912,5931,5952,5972,5991,6012,6033,6052,6073,6093,6113,6132,6152,6172,6192,6213,6232,6252,6273,6291,6311,6331,6352,6373,6392,6412,6432,6452,6472,6491,6512,6533,6551,6572,6592,6613,6633,6652,6671,6692,6712,6732,6752,6773,6793,6812,6833,6853,6872,6893,6912,6931,6951,6971,6993,7012,7033,7052,7071,7092,7112,7132,7152,7173,7193,7212,7231,7252,7273,7293,7312,7333,7352,7373,7391,7411,7431,7453,7473,7492,7512,7533,7552,7573,7593,7612,7632,7652,7672,7691,7711,7732,7752,7773,7793,7812,7833,7853,7873,7892,7912,7932,7951,7971,7992,8011,8031,8052,8072,8091,8111,8132,8152,8172,8191,8212,8232,8252,8271,8291,8312,8331,8352,8373,8393,8412,8432,8451,8472,8492,8511,8533,8552,8571,8591,8611,8631,8651,8672,8692,8712,8732,8752,8773,8793,8812,8831,8852,8871,8892,8911,8931,8952,8972,8992,9012,9032,9052,9072,9092,9112,9131,9152,9171,9192,9212,9231,9253,9272,9293,9313,9332,9352,9371,9393,9413,9432,9452,9472,9493,9513,9531,9553,9571,9591,9612,9631,9652,9673,9692,9713,9731,9752,9772,9793,9814,9831,9852,9873,9893,9912,9932,9952,9972,9991,10012,10032,10051,10071,10091,10112,10132,10151,10171,10191,10211,10231,10251,10271,10293,10312,10332,10351,10372,10392,10413,10432,10453,10472,10492,10512,10532,10552,10571,10591,10613,10633,10652,10671,10693,10713,10732,10752,10772,10793,10811,10833,10852,10872,10892,10913,10932,10951,10972,10993,11011,11032,11053,11072,11092,11113,11132,11152,11172,11192,11212,11233,11253,11272,11293,11313,11331,11351,11373,11391],"xSR":741.5,"ySR":573.95,"xT1":424.9,"yT1":0,"xT2":1058.1,"yT2":0,"toosoon":0,"cond_shown":"equaldotanddens","ratio_trial":900,"smaller_num":"9","larger_num":"10","correct_side":2,"subjID":"JulianDavidRoaSanchez22","gender":"0","age":"9","school":"4"},{"start_time":1552328146383,"click_time":1552328147556,"finger_time":1552328147256,"fix_duration":804.2307210233323,"trial":53,"RT":873,"MT":300,"sideResp":1,"stimulus":"img/900/equaldotanddens/R/7_Ratio_900_L_9_R_10.png","xmouse":[801,801,801,801,801,801,801,801,801,801,801,801,801,801,801,801,801,801,801,801,801,801,801,801,801,801,801,801,801,801,801,801,801,801,801,801,801,801,801,801,799,796,792,770,747,718,688,639,612,600,591,581,560,548,542,539,539,529,509],"ymouse":[616,616,616,616,616,616,616,616,616,616,616,616,616,616,616,616,616,616,616,616,616,616,616,616,616,616,616,616,616,616,616,616,616,616,616,616,616,616,616,617,616,608,590,510,454,394,331,196,103,75,62,47,20,13,11,10,10,12,21],"timestamp_mouse":[13,38,54,75,94,114,134,154,174,194,214,233,254,275,295,313,335,354,374,395,413,434,454,475,494,513,535,554,575,594,615,634,653,673,694,715,735,754,774,795,813,833,853,873,895,915,934,953,973,993,1013,1035,1053,1074,1094,1114,1134,1154,1173],"xSR":741.5,"ySR":573.95,"xT1":424.9,"yT1":0,"xT2":1058.1,"yT2":0,"toosoon":0,"cond_shown":"equaldotanddens","ratio_trial":900,"smaller_num":"9","larger_num":"10","correct_side":2,"subjID":"JulianDavidRoaSanchez22","gender":"0","age":"9","school":"4"},{"start_time":1552328150358,"click_time":1552328151638,"finger_time":1552328150977,"fix_duration":1320.460403009671,"trial":54,"R