[{"start_time":1552313899828,"click_time":1552313901615,"finger_time":1552313900855,"fix_duration":866.7545233411518,"trial":0,"RT":1027,"MT":760,"sideResp":1,"stimulus":"img/500/equaldotanddens/L/7_Ratio_500_L_10_R_5.png","xmouse":[801,801,801,801,801,801,801,801,801,801,801,801,801,801,801,801,801,801,801,801,801,801,801,801,801,801,801,801,801,801,801,801,801,801,801,801,801,801,801,801,801,801,801,801,801,798,798,797,796,781,764,734,700,678,655,645,639,635,633,632,630,628,625,621,609,600,593,587,584,583,582,581,581,580,576,572,563,550,535,498,487,481,465,442,419,418,418,418,421,425],"ymouse":[520,520,520,520,520,520,520,520,520,520,520,520,520,520,520,520,520,520,520,520,520,520,520,520,520,520,520,520,520,520,520,520,520,520,520,520,520,520,520,520,520,520,520,520,520,520,519,519,519,513,500,479,454,436,415,407,398,392,380,367,357,345,334,322,307,294,282,272,252,241,234,229,225,222,209,201,198,190,184,172,166,158,154,149,131,127,121,116,107,97],"timestamp_mouse":[10,42,46,66,88,107,126,148,167,187,207,228,248,268,287,307,327,346,368,387,406,428,448,466,487,507,527,546,567,587,606,626,646,667,687,706,726,748,768,787,808,827,848,867,888,907,928,947,967,986,1007,1027,1048,1067,1087,1107,1126,1148,1167,1187,1208,1228,1247,1266,1287,1306,1328,1347,1368,1386,1407,1427,1446,1467,1487,1507,1527,1548,1567,1587,1607,1626,1647,1666,1686,1708,1728,1747,1767,1786],"xSR":741.5,"ySR":501.8,"xT1":424.9,"yT1":0,"xT2":1058.1,"yT2":0,"toosoon":0,"cond_shown":"equaldotanddens","ratio_trial":500,"smaller_num":"5","larger_num":"10","correct_side":1,"subjID":"keisi Sofia Sanchez Perdomo","gender":"1","age":"8","school":"4","test":{"fix_dur":[250,1500],"timestim":300,"targets_dim":[100,100],"targets_relative_coord":[0.3,0.7],"size_stim":[880,420],"start_dim":[100,100],"size_start":[300,300],"size_fix":60,"samplingrate":20,"img_types":["equaldotsize","equaldotanddens","randomdotsizeEA"],"ratios":[250,500,750,900],"rep_conds":9,"nTrials":120,"trials_to_rest":500,"Trials_order":[76,75,93,107,72,57,99,110,21,61,20,89,91,68,100,104,86,62,66,23,64,113,83,65,108,118,41,14,25,6,70,119,8,19,9,44,31,24,15,117,43,32,67,81,59,58,96,3,98,74,16,13,103,97,63,77,10,54,109,56,114,115,35,53,47,71,18,2,84,106,80,12,45,79,28,4,87,85,48,34,37,51,78,69,5,105,46,1,0,22,17,95,33,30,49,36,42,29,7,38,82,101,26,55,88,40,116,52,111,94,112,27,11,50,39,102,73,92,90,60],"cond_shown":["equaldotanddens","equaldotsize","equaldotsize","randomdotsizeEA","equaldotsize","equaldotsize","equaldotsize","randomdotsizeEA","equaldotsize","equaldotanddens","randomdotsizeEA","randomdotsizeEA","equaldotanddens","randomdotsizeEA","equaldotanddens","randomdotsizeEA","randomdotsizeEA","randomdotsizeEA","equaldotsize","randomdotsizeEA","equaldotanddens","randomdotsizeEA","randomdotsizeEA","randomdotsizeEA","equaldotsize","equaldotanddens","randomdotsizeEA","randomdotsizeEA","equaldotanddens","equaldotsize","equaldotanddens","randomdotsizeEA","randomdotsizeEA","equaldotanddens","equaldotsize","randomdotsizeEA","equaldotanddens","equaldotsize","equaldotsize","equaldotsize","equaldotanddens","randomdotsizeEA","equaldotanddens","equaldotsize","randomdotsizeEA","equaldotanddens","equaldotsize","equaldotsize","randomdotsizeEA","randomdotsizeEA","equaldotanddens","equaldotanddens","equaldotanddens","equaldotanddens","equaldotsize","randomdotsizeEA","equaldotanddens","equaldotsize","equaldotanddens","randomdotsizeEA","equaldotsize","equaldotanddens","randomdotsizeEA","randomdotsizeEA","randomdotsizeEA","randomdotsizeEA","equaldotsize","randomdotsizeEA","equaldotsize","equaldotanddens","randomdotsizeEA","equaldotsize","equaldotsize","equaldotanddens","equaldotanddens","equaldotanddens","equaldotsize","equaldotanddens","equaldotsize","equaldotanddens","equaldotanddens","equaldotsize","equaldotsize","equaldotsize","randomdotsizeEA","equaldotsize","equaldotanddens","equaldotanddens","equaldotsize","equaldotanddens","randomdotsizeEA","randomdotsizeEA","equaldotsize","equaldotsize","equaldotanddens","equaldotsize","equaldotsize","randomdotsizeEA","equaldotanddens","randomdotsizeEA","equaldotanddens","randomdotsizeEA","randomdotsizeEA","equaldotanddens","equaldotanddens","equaldotanddens","randomdotsizeEA","equaldotanddens","equaldotsize","equaldotanddens","equaldotanddens","equaldotsize","randomdotsizeEA","randomdotsizeEA","equaldotsize","equaldotsize","equaldotanddens","randomdotsizeEA","equaldotsize","equaldotsize"],"ratio_trial":[500,500,900,900,250,900,500,250,900,250,750,500,750,750,500,750,250,250,750,900,500,500,900,500,250,900,500,250,250,750,900,900,750,750,900,750,750,250,500,900,750,750,750,900,900,900,250,500,250,250,500,250,750,250,500,500,900,750,250,750,750,750,900,500,900,900,750,250,250,900,750,250,900,750,500,500,500,250,250,900,250,500,750,900,500,900,900,250,250,900,500,900,900,750,250,250,750,500,750,250,900,500,250,750,500,500,750,500,500,900,500,500,900,250,500,750,250,750,750,250],"smaller_num":["5","3","18","18","4","9","9","2","9","3","3","9","9","9","2","15","4","3","6","18","10","2","9","9","3","18","2","2","3","15","9","18","12","3","18","6","6","3","2","9","6","3","15","9","9","9","6","9","5","3","2","2","6","3","1","5","9","3","3","3","15","3","9","1","9","18","9","2","2","18","12","2","9","6","6","9","9","2","2","9","4","4","15","18","6","9","18","2","2","18","1","18","18","15","2","2","6","9","15","4","18","1","2","3","9","6","3","4","5","18","2","1","18","6","9","12","4","12","9","3"],"larger_num":["10","6","20","20","16","10","18","8","10","12","4","18","12","12","4","20","16","12","8","20","20","4","10","18","12","20","4","8","12","20","10","20","16","4","20","8","8","12","4","10","8","4","20","10","10","10","24","18","20","12","4","8","8","12","2","10","10","4","12","4","20","4","10","2","10","20","12","8","8","20","16","8","10","8","12","18","18","8","8","10","16","8","20","20","12","10","20","8","8","20","2","20","20","20","8","8","8","18","20","16","20","2","8","4","18","12","4","8","10","20","4","2","20","24","18","16","16","16","12","12"],"correct_side":[1,2,1,1,2,2,2,1,2,1,1,2,2,2,2,2,1,1,1,2,2,1,2,2,2,1,1,1,2,2,2,1,2,2,1,1,2,2,2,2,1,1,2,1,2,2,2,1,2,1,1,1,1,2,2,1,1,1,1,1,2,1,2,2,2,1,2,1,1,2,2,1,1,1,1,2,1,1,1,2,1,1,2,2,1,1,1,1,2,2,2,1,2,2,1,1,1,1,1,1,1,2,2,1,1,1,1,1,2,2,1,2,1,1,1,2,1,2,2,1],"img_shown":["img/500/equaldotanddens/L/7_Ratio_500_L_10_R_5.png","img/500/equaldotsize/R/2_Ratio_500_L_3_R_6.png","img/900/equaldotsize/L/4_Ratio_900_L_20_R_18.png","img/900/randomdotsizeEA/L/2_Ratio_900_L_20_R_18.png","img/250/equaldotsize/R/10_Ratio_250_L_4_R_16.png","img/900/equaldotsize/R/6_Ratio_900_L_9_R_10.png","img/500/equaldotsize/R/1_Ratio_500_L_9_R_18.png","img/250/randomdotsizeEA/L/3_Ratio_250_L_8_R_2.png","img/900/equaldotsize/R/5_Ratio_900_L_9_R_10.png","img/250/equaldotanddens/L/15_Ratio_250_L_12_R_3.png","img/750/randomdotsizeEA/L/8_Ratio_750_L_4_R_3.png","img/500/randomdotsizeEA/R/1_Ratio_500_L_9_R_18.png","img/750/equaldotanddens/R/15_Ratio_750_L_9_R_12.png","img/750/randomdotsizeEA/R/15_Ratio_750_L_9_R_12.png","img/500/equaldotanddens/R/9_Ratio_500_L_2_R_4.png","img/750/randomdotsizeEA/R/4_Ratio_750_L_15_R_20.png","img/250/randomdotsizeEA/L/2_Ratio_250_L_16_R_4.png","img/250/randomdotsizeEA/L/15_Ratio_250_L_12_R_3.png","img/750/equaldotsize/L/14_Ratio_750_L_8_R_6.png","img/900/randomdotsizeEA/R/12_Ratio_900_L_18_R_20.png","img/500/equaldotanddens/R/3_Ratio_500_L_10_R_20.png","img/500/randomdotsizeEA/L/5_Ratio_500_L_4_R_2.png","img/900/randomdotsizeEA/R/5_Ratio_900_L_9_R_10.png","img/500/randomdotsizeEA/R/1_Ratio_500_L_9_R_18.png","img/250/equaldotsize/R/4_Ratio_250_L_3_R_12.png","img/900/equaldotanddens/L/10_Ratio_900_L_20_R_18.png","img/500/randomdotsizeEA/L/5_Ratio_500_L_4_R_2.png","img/250/randomdotsizeEA/L/7_Ratio_250_L_8_R_2.png","img/250/equaldotanddens/R/9_Ratio_250_L_3_R_12.png","img/750/equaldotsize/R/4_Ratio_750_L_15_R_20.png","img/900/equaldotanddens/R/5_Ratio_900_L_9_R_10.png","img/900/randomdotsizeEA/L/10_Ratio_900_L_20_R_18.png","img/750/randomdotsizeEA/R/11_Ratio_750_L_12_R_16.png","img/750/equaldotanddens/R/7_Ratio_750_L_3_R_4.png","img/900/equaldotsize/L/4_Ratio_900_L_20_R_18.png","img/750/randomdotsizeEA/L/13_Ratio_750_L_8_R_6.png","img/750/equaldotanddens/R/2_Ratio_750_L_6_R_8.png","img/250/equaldotsize/R/11_Ratio_250_L_3_R_12.png","img/500/equaldotsize/R/9_Ratio_500_L_2_R_4.png","img/900/equaldotsize/R/15_Ratio_900_L_9_R_10.png","img/750/equaldotanddens/L/14_Ratio_750_L_8_R_6.png","img/750/randomdotsizeEA/L/10_Ratio_750_L_4_R_3.png","img/750/equaldotanddens/R/3_Ratio_750_L_15_R_20.png","img/900/equaldotsize/L/1_Ratio_900_L_10_R_9.png","img/900/randomdotsizeEA/R/5_Ratio_900_L_9_R_10.png","img/900/equaldotanddens/R/3_Ratio_900_L_9_R_10.png","img/250/equaldotsize/R/6_Ratio_250_L_6_R_24.png","img/500/equaldotsize/L/4_Ratio_500_L_18_R_9.png","img/250/randomdotsizeEA/R/12_Ratio_250_L_5_R_20.png","img/250/randomdotsizeEA/L/14_Ratio_250_L_12_R_3.png","img/500/equaldotanddens/L/5_Ratio_500_L_4_R_2.png","img/250/equaldotanddens/L/1_Ratio_250_L_8_R_2.png","img/750/equaldotanddens/L/13_Ratio_750_L_8_R_6.png","img/250/equaldotanddens/R/4_Ratio_250_L_3_R_12.png","img/500/equaldotsize/R/15_Ratio_500_L_1_R_2.png","img/500/randomdotsizeEA/L/7_Ratio_500_L_10_R_5.png","img/900/equaldotanddens/L/1_Ratio_900_L_10_R_9.png","img/750/equaldotsize/L/8_Ratio_750_L_4_R_3.png","img/250/equaldotanddens/L/14_Ratio_250_L_12_R_3.png","img/750/randomdotsizeEA/L/10_Ratio_750_L_4_R_3.png","img/750/equaldotsize/R/5_Ratio_750_L_15_R_20.png","img/750/equaldotanddens/L/8_Ratio_750_L_4_R_3.png","img/900/randomdotsizeEA/R/3_Ratio_900_L_9_R_10.png","img/500/randomdotsizeEA/R/12_Ratio_500_L_1_R_2.png","img/900/randomdotsizeEA/R/5_Ratio_900_L_9_R_10.png","img/900/randomdotsizeEA/L/2_Ratio_900_L_20_R_18.png","img/750/equaldotsize/R/15_Ratio_750_L_9_R_12.png","img/250/randomdotsizeEA/L/1_Ratio_250_L_8_R_2.png","img/250/equaldotsize/L/1_Ratio_250_L_8_R_2.png","img/900/equaldotanddens/R/11_Ratio_900_L_18_R_20.png","img/750/randomdotsizeEA/R/11_Ratio_750_L_12_R_16.png","img/250/equaldotsize/L/3_Ratio_250_L_8_R_2.png","img/900/equaldotsize/L/1_Ratio_900_L_10_R_9.png","img/750/equaldotanddens/L/13_Ratio_750_L_8_R_6.png","img/500/equaldotanddens/L/13_Ratio_500_L_12_R_6.png","img/500/equaldotanddens/R/6_Ratio_500_L_9_R_18.png","img/500/equaldotsize/L/4_Ratio_500_L_18_R_9.png","img/250/equaldotanddens/L/1_Ratio_250_L_8_R_2.png","img/250/equaldotsize/L/1_Ratio_250_L_8_R_2.png","img/900/equaldotanddens/R/5_Ratio_900_L_9_R_10.png","img/250/equaldotanddens/L/2_Ratio_250_L_16_R_4.png","img/500/equaldotsize/L/8_Ratio_500_L_8_R_4.png","img/750/equaldotsize/R/5_Ratio_750_L_15_R_20.png","img/900/equaldotsize/R/12_Ratio_900_L_18_R_20.png","img/500/randomdotsizeEA/L/13_Ratio_500_L_12_R_6.png","img/900/equaldotsize/L/1_Ratio_900_L_10_R_9.png","img/900/equaldotanddens/L/4_Ratio_900_L_20_R_18.png","img/250/equaldotanddens/L/1_Ratio_250_L_8_R_2.png","img/250/equaldotsize/R/13_Ratio_250_L_2_R_8.png","img/900/equaldotanddens/R/9_Ratio_900_L_18_R_20.png","img/500/randomdotsizeEA/R/15_Ratio_500_L_1_R_2.png","img/900/randomdotsizeEA/L/2_Ratio_900_L_20_R_18.png","img/900/equaldotsize/R/12_Ratio_900_L_18_R_20.png","img/750/equaldotsize/R/4_Ratio_750_L_15_R_20.png","img/250/equaldotanddens/L/3_Ratio_250_L_8_R_2.png","img/250/equaldotsize/L/7_Ratio_250_L_8_R_2.png","img/750/equaldotsize/L/14_Ratio_750_L_8_R_6.png","img/500/randomdotsizeEA/L/4_Ratio_500_L_18_R_9.png","img/750/equaldotanddens/L/1_Ratio_750_L_20_R_15.png","img/250/randomdotsizeEA/L/2_Ratio_250_L_16_R_4.png","img/900/equaldotanddens/L/2_Ratio_900_L_20_R_18.png","img/500/randomdotsizeEA/R/15_Ratio_500_L_1_R_2.png","img/250/randomdotsizeEA/R/13_Ratio_250_L_2_R_8.png","img/750/equaldotanddens/L/10_Ratio_750_L_4_R_3.png","img/500/equaldotanddens/L/4_Ratio_500_L_18_R_9.png","img/500/equaldotanddens/L/11_Ratio_500_L_12_R_6.png","img/750/randomdotsizeEA/L/9_Ratio_750_L_4_R_3.png","img/500/equaldotanddens/L/8_Ratio_500_L_8_R_4.png","img/500/equaldotsize/R/14_Ratio_500_L_5_R_10.png","img/900/equaldotanddens/R/12_Ratio_900_L_18_R_20.png","img/500/equaldotanddens/L/10_Ratio_500_L_4_R_2.png","img/500/equaldotsize/R/15_Ratio_500_L_1_R_2.png","img/900/randomdotsizeEA/L/4_Ratio_900_L_20_R_18.png","img/250/randomdotsizeEA/L/5_Ratio_250_L_24_R_6.png","img/500/equaldotsize/L/4_Ratio_500_L_18_R_9.png","img/750/equaldotsize/R/11_Ratio_750_L_12_R_16.png","img/250/equaldotanddens/L/2_Ratio_250_L_16_R_4.png","img/750/randomdotsizeEA/R/11_Ratio_750_L_12_R_16.png","img/750/equaldotsize/R/15_Ratio_750_L_9_R_12.png","img/250/equaldotsize/L/14_Ratio_250_L_12_R_3.png"],"Rat0":[["12_Ratio_0_L_9_R_0.png","13_Ratio_0_L_6_R_0.png","5_Ratio_0_L_2_R_0.png","6_Ratio_0_L_4_R_0.png","8_Ratio_0_L_6_R_0.png"],["1_Ratio_0_L_0_R_17.png","10_Ratio_0_L_0_R_22.png","11_Ratio_0_L_0_R_1.png","14_Ratio_0_L_0_R_24.png","15_Ratio_0_L_0_R_4.png","2_Ratio_0_L_0_R_5.png","3_Ratio_0_L_0_R_17.png","4_Ratio_0_L_0_R_7.png","7_Ratio_0_L_0_R_19.png","9_Ratio_0_L_0_R_15.png"]],"Rat250":[["1_Ratio_250_L_8_R_2.png","14_Ratio_250_L_12_R_3.png","15_Ratio_250_L_12_R_3.png","2_Ratio_250_L_16_R_4.png","3_Ratio_250_L_8_R_2.png","5_Ratio_250_L_24_R_6.png","7_Ratio_250_L_8_R_2.png"],["10_Ratio_250_L_4_R_16.png","11_Ratio_250_L_3_R_12.png","12_Ratio_250_L_5_R_20.png","13_Ratio_250_L_2_R_8.png","4_Ratio_250_L_3_R_12.png","6_Ratio_250_L_6_R_24.png","8_Ratio_250_L_1_R_4.png","9_Ratio_250_L_3_R_12.png"]],"Rat500":[["10_Ratio_500_L_4_R_2.png","11_Ratio_500_L_12_R_6.png","13_Ratio_500_L_12_R_6.png","4_Ratio_500_L_18_R_9.png","5_Ratio_500_L_4_R_2.png","7_Ratio_500_L_10_R_5.png","8_Ratio_500_L_8_R_4.png"],["1_Ratio_500_L_9_R_18.png","12_Ratio_500_L_1_R_2.png","14_Ratio_500_L_5_R_10.png","15_Ratio_500_L_1_R_2.png","2_Ratio_500_L_3_R_6.png","3_Ratio_500_L_10_R_20.png","6_Ratio_500_L_9_R_18.png","9_Ratio_500_L_2_R_4.png"]],"Rat750":[["1_Ratio_750_L_20_R_15.png","10_Ratio_750_L_4_R_3.png","13_Ratio_750_L_8_R_6.png","14_Ratio_750_L_8_R_6.png","6_Ratio_750_L_24_R_18.png","8_Ratio_750_L_4_R_3.png","9_Ratio_750_L_4_R_3.png"],["11_Ratio_750_L_12_R_16.png","12_Ratio_750_L_3_R_4.png","15_Ratio_750_L_9_R_12.png","2_Ratio_750_L_6_R_8.png","3_Ratio_750_L_15_R_20.png","4_Ratio_750_L_15_R_20.png","5_Ratio_750_L_15_R_20.png","7_Ratio_750_L_3_R_4.png"]],"Rat900":[["1_Ratio_900_L_10_R_9.png","10_Ratio_900_L_20_R_18.png","2_Ratio_900_L_20_R_18.png","4_Ratio_900_L_20_R_18.png","8_Ratio_900_L_20_R_18.png"],["11_Ratio_900_L_18_R_20.png","12_Ratio_900_L_18_R_20.png","13_Ratio_900_L_18_R_20.png","14_Ratio_900_L_18_R_20.png","15_Ratio_900_L_9_R_10.png","3_Ratio_900_L_9_R_10.png","5_Ratio_900_L_9_R_10.png","6_Ratio_900_L_9_R_10.png","7_Ratio_900_L_9_R_10.png","9_Ratio_900_L_18_R_20.png"]],"Rat1000":[["10_Ratio_1000_L_16_R_16.png","11_Ratio_1000_L_6_R_6.png","12_Ratio_1000_L_14_R_14.png","13_Ratio_1000_L_20_R_20.png","15_Ratio_1000_L_15_R_15.png","2_Ratio_1000_L_17_R_17.png","4_Ratio_1000_L_9_R_9.png","5_Ratio_1000_L_6_R_6.png","6_Ratio_1000_L_19_R_19.png","8_Ratio_1000_L_14_R_14.png","9_Ratio_1000_L_25_R_25.png"],["1_Ratio_1000_L_1_R_1.png","14_Ratio_1000_L_17_R_17.png","3_Ratio_1000_L_17_R_17.png","7_Ratio_1000_L_6_R_6.png"]]}},{"start_time":1552313905951,"click_time":1552313907336,"finger_time":1552313906655,"fix_duration":1415.635017618034,"trial":1,"RT":704,"MT":681,"sideResp":2,"stimulus":"img/500/equaldotsize/R/2_Ratio_500_L_3_R_6.png","xmouse":[754,754,754,754,754,754,754,754,754,754,754,754,754,754,754,754,754,754,754,754,754,754,754,754,754,754,754,754,754,754,754,754,754,754,784,845,899,925,957,971,985,996,1010,1048,1057,1058,1060,1060,1059,1056,1054,1051,1048,1046,1046,1055,1063,1071,1075,1075,1075,1075,1075,1075,1075,1075,1075,1076,1077,1078],"ymouse":[525,525,525,525,525,525,525,525,525,525,525,525,525,525,525,525,525,525,525,525,525,525,525,525,525,525,525,525,525,525,525,525,525,525,513,476,444,430,407,389,370,353,337,314,305,297,289,283,273,268,262,253,232,193,169,141,123,110,107,107,107,107,107,106,106,106,106,106,103,99],"timestamp_mouse":[10,34,44,64,84,104,125,144,163,185,204,223,245,264,285,304,323,344,364,385,404,423,443,463,483,505,525,544,565,585,604,625,643,663,684,704,725,744,764,785,805,823,844,863,884,905,924,943,963,984,1004,1024,1045,1064,1084,1103,1124,1143,1163,1184,1204,1225,1245,1264,1284,1304,1324,1344,1364,1384],"xSR":741.5,"ySR":469.95,"xT1":424.9,"yT1":0,"xT2":1058.1,"yT2":0,"toosoon":0,"cond_shown":"equaldotsize","ratio_trial":500,"smaller_num":"3","larger_num":"6","correct_side":2,"subjID":"keisi Sofia Sanchez Perdomo","gender":"1","age":"8","school":"4"},{"start_time":1552313909569,"click_time":1552313910856,"finger_time":1552313910336,"fix_duration":852.4310253635643,"trial":2,"RT":767,"MT":520,"sideResp":1,"stimulus":"img/900/equaldotsize/L/4_Ratio_900_L_20_R_18.png","xmouse":[771,771,771,771,771,771,771,771,771,771,771,771,770,770,770,770,769,769,769,769,769,769,769,769,769,769,769,769,769,769,769,769,769,769,764,760,750,742,740,737,733,722,672,645,616,596,584,568,563,556,552,544,530,526,521,515,509,501,498,492,483,470,465,465,464],"ymouse":[507,507,507,507,507,507,507,507,507,507,507,507,507,507,507,507,507,507,507,507,507,507,507,507,507,507,507,507,507,507,507,507,507,508,508,508,508,508,508,508,504,494,461,443,426,407,380,331,308,287,272,248,207,201,194,188,184,170,165,155,135,115,105,102,99],"timestamp_mouse":[5,27,46,66,86,105,126,147,165,186,207,225,245,267,286,305,326,346,366,386,407,425,446,466,487,506,526,545,567,586,607,626,645,665,685,707,726,745,767,786,806,827,846,866,886,906,926,946,966,986,1006,1026,1045,1066,1086,1105,1126,1146,1166,1186,1207,1227,1245,1267,1287],"xSR":741.5,"ySR":469.95,"xT1":424.9,"yT1":0,"xT2":1058.1,"yT2":0,"toosoon":0,"cond_shown":"equaldotsize","ratio_trial":900,"smaller_num":"18","larger_num":"20","correct_side":1,"subjID":"keisi Sofia Sanchez Perdomo","gender":"1","age":"8","school":"4"},{"start_time":1552313913337,"click_time":1552313914735,"finger_time":1552313914154,"fix_duration":1220.1834960429692,"trial":3,"RT":817,"MT":581,"sideResp":2,"stimulus":"img/900/randomdotsizeEA/L/2_Ratio_900_L_20_R_18.png","xmouse":[800,800,800,800,800,800,800,800,800,800,800,800,800,800,800,800,800,800,800,800,800,800,800,800,800,800,800,800,800,800,800,800,800,800,800,803,805,810,825,841,858,877,912,953,966,979,989,995,1010,1018,1026,1035,1040,1053,1057,1063,1065,1067,1072,1074,1077,1080,1083,1087,1089,1089,1089,1089,1090,1091],"ymouse":[518,518,518,518,518,518,518,518,518,518,518,518,518,518,518,518,518,518,518,518,518,518,518,518,518,518,518,518,518,518,518,518,518,518,518,514,512,506,491,482,471,458,438,411,400,385,368,355,327,313,298,285,273,238,228,219,213,207,193,188,183,172,162,140,128,119,114,108,101,98],"timestamp_mouse":[17,38,59,78,97,119,138,159,179,198,219,237,259,278,298,318,338,358,377,399,419,437,459,479,498,519,539,558,579,598,618,639,658,678,698,718,738,757,778,798,817,838,859,878,898,917,937,958,977,998,1018,1038,1059,1077,1098,1118,1137,1157,1177,1197,1218,1238,1259,1277,1298,1319,1338,1358,1378,1398],"xSR":741.5,"ySR":469.95,"xT1":424.9,"yT1":0,"xT2":1058.1,"yT2":0,"toosoon":0,"cond_shown":"randomdotsizeEA","ratio_trial":900,"smaller_num":"18","larger_num":"20","correct_side":1,"subjID":"keisi Sofia Sanchez Perdomo","gender":"1","age":"8","school":"4"},{"start_time":1552313916291,"click_time":1552313917854,"finger_time":1552313917415,"fix_duration":555.406830898943,"trial":4,"RT":1124,"MT":439,"sideResp":2,"stimulus":"img/250/equaldotsize/R/10_Ratio_250_L_4_R_16.png","xmouse":[795,795,795,794,794,794,794,794,794,794,794,794,794,794,795,795,796,796,796,797,798,798,798,798,798,798,798,798,798,798,798,798,798,798,798,798,798,798,798,798,798,798,798,798,799,799,800,801,801,801,802,804,806,810,813,826,847,858,869,879,885,893,898,903,910,924,944,954,963,974,987,1015,1025,1034,1039,1051,1064,1067,1070],"ymouse":[510,510,510,510,510,509,509,509,509,509,509,509,509,509,509,508,508,508,508,507,506,506,506,506,506,506,506,506,506,506,506,506,506,506,505,505,505,505,504,504,504,504,504,504,502,500,498,497,496,495,494,491,489,485,483,475,459,446,429,407,386,347,326,308,292,267,239,225,212,201,192,175,166,156,147,132,115,107,99],"timestamp_mouse":[11,25,43,65,83,105,125,143,163,185,203,225,243,263,283,305,324,345,363,385,404,423,444,463,485,505,524,545,563,585,604,624,643,664,684,704,723,745,763,784,804,823,843,864,883,903,923,944,963,983,1003,1024,1043,1063,1083,1104,1124,1144,1164,1183,1203,1224,1243,1264,1284,1305,1324,1344,1363,1383,1403,1424,1444,1465,1484,1504,1524,1545,1563],"xSR":741.5,"ySR":469.95,"xT1":424.9,"yT1":0,"xT2":1058.1,"yT2":0,"toosoon":0,"cond_shown":"equaldotsize","ratio_trial":250,"smaller_num":"4","larger_num":"16","correct_side":2,"subjID":"keisi Sofia Sanchez Perdomo","gender":"1","age":"8","school":"4"},{"start_time":1552313920225,"click_time":1552313922014,"finger_time":1552313921194,"fix_duration":1248.7264321497787,"trial":5,"RT":969,"MT":820,"sideResp":1,"stimulus":"img/900/equaldotsize/R/6_Ratio_900_L_9_R_10.png","xmouse":[808,808,808,808,808,808,808,808,808,808,808,808,808,809,809,809,809,809,809,809,809,809,809,809,809,809,809,809,809,809,809,809,809,809,809,809,809,809,809,809,809,809,807,806,795,790,788,788,788,790,794,799,807,818,847,857,862,862,862,862,862,862,862,862,862,857,849,835,808,753,728,709,686,663,618,602,589,587,579,566,556,545,531,517,489,478,469,461,458,455],"ymouse":[539,539,539,539,539,539,539,539,539,539,539,539,539,540,540,540,540,540,540,540,539,539,537,537,537,537,537,537,537,537,537,537,537,537,537,537,537,537,537,534,531,525,517,507,489,481,477,472,466,456,449,443,437,431,418,412,408,408,407,407,407,407,407,407,404,400,394,383,361,313,288,267,253,240,220,213,209,208,205,199,194,189,181,173,153,143,132,121,110,91],"timestamp_mouse":[10,39,51,69,90,110,130,150,169,189,209,229,251,269,290,311,331,350,370,390,410,430,449,469,489,510,531,550,570,590,611,631,651,670,689,709,730,750,769,790,809,829,849,871,889,911,930,950,969,989,1011,1029,1051,1070,1090,1109,1130,1150,1171,1189,1210,1229,1249,1271,1291,1310,1331,1350,1370,1390,1410,1429,1450,1469,1490,1510,1529,1549,1570,1590,1610,1631,1650,1669,1689,1710,1729,1749,1771,1789],"xSR":741.5,"ySR":469.95,"xT1":424.9,"yT1":0,"xT2":1058.1,"yT2":0,"toosoon":0,"cond_shown":"equaldotsize","ratio_trial":900,"smaller_num":"9","larger_num":"10","correct_side":2,"subjID":"keisi Sofia Sanchez Perdomo","gender":"1","age":"8","school":"4"},{"start_time":1552313923874,"click_time":1552313925375,"finger_time":1552313924576,"fix_duration":858.109313279876,"trial":6,"RT":702,"MT":799,"sideResp":2,"stimulus":"img/500/equaldotsize/R/1_Ratio_500_L_9_R_18.png","xmouse":[817,817,817,817,817,817,817,817,817,817,817,817,817,817,817,817,817,817,817,817,817,817,817,817,817,817,817,817,817,817,817,817,819,822,836,843,878,946,975,984,982,974,955,945,940,937,942,957,969,985,1005,1031,1093,1125,1151,1171,1188,1190,1190,1190,1188,1187,1184,1182,1182,1181,1178,1176,1174,1173,1172,1172,1169,1167,1164,1157],"ymouse":[524,524,524,524,524,524,524,524,524,524,524,524,524,524,524,524,524,524,524,524,524,524,524,524,524,524,524,524,524,524,524,524,524,524,518,514,499,470,424,364,327,302,248,219,194,172,158,147,144,142,139,136,118,111,101,88,70,55,50,46,43,42,40,40,40,40,40,40,40,40,40,40,40,40,40,39],"timestamp_mouse":[14,26,45,61,82,101,120,142,162,180,201,220,240,262,280,301,322,342,361,382,400,420,440,462,481,501,521,541,561,580,602,621,641,661,680,702,722,740,761,780,800,821,841,860,881,901,921,940,961,982,1001,1020,1041,1060,1082,1101,1122,1140,1161,1181,1200,1221,1241,1261,1282,1301,1321,1340,1361,1381,1400,1422,1441,1461,1480,1501],"xSR":741.5,"ySR":469.95,"xT1":424.9,"yT1":0,"xT2":1058.1,"yT2":0,"toosoon":0,"cond_shown":"equaldotsize","ratio_trial":500,"smaller_num":"9","larger_num":"18","correct_side":2,"subjID":"keisi Sofia Sanchez Perdomo","gender":"1","age":"8","school":"4"},{"start_time":1552313926616,"click_time":1552313927755,"finger_time":1552313927636,"fix_duration":299.44886951260196,"trial":7,"RT":1020,"MT":119,"sideResp":1,"stimulus":"img/250/randomdotsizeEA/L/3_Ratio_250_L_8_R_2.png","xmouse":[822,822,822,822,822,822,822,822,822,822,822,822,822,822,822,822,822,822,822,822,822,822,822,822,822,822,822,822,822,822,822,822,822,822,822,822,822,822,822,822,822,822,822,822,822,822,822,822,821,820,805,780,724,648,572,460,447,443],"ymouse":[527,527,527,527,527,527,527,527,527,527,527,527,527,527,527,527,527,527,527,527,527,527,527,527,527,527,527,527,527,527,527,527,527,527,527,527,527,527,527,527,527,527,527,527,527,527,527,527,528,528,514,468,389,296,210,123,107,87],"timestamp_mouse":[1,18,39,59,80,98,118,139,158,180,198,219,239,259,278,299,319,339,360,379,399,418,440,458,480,499,518,538,559,579,599,618,639,658,680,699,720,739,759,779,798,818,840,859,879,898,919,938,959,980,998,1020,1039,1059,1079,1098,1119,1138],"xSR":741.5,"ySR":469.95,"xT1":424.9,"yT1":0,"xT2":1058.1,"yT2":0,"toosoon":0,"cond_shown":"randomdotsizeEA","ratio_trial":250,"smaller_num":"2","larger_num":"8","correct_side":1,"subjID":"keisi Sofia Sanchez Perdomo","gender":"1","age":"8","school":"4"},{"start_time":1552313929410,"click_time":1552313930775,"finger_time":1552313930415,"fix_duration":553.9294480448219,"trial":8,"RT":1005,"MT":360,"sideResp":2,"stimulus":"img/900/equaldotsize/R/5_Ratio_900_L_9_R_10.png","xmouse":[783,783,783,783,783,783,783,783,783,783,783,783,783,783,783,783,783,783,783,783,783,783,783,783,783,783,783,783,783,783,783,783,783,783,783,783,783,783,783,783,783,783,784,784,784,784,787,788,794,812,852,873,892,909,919,927,932,944,970,986,1008,1012,1015,1020,1026,1042,1051,1060,1067],"ymouse":[508,508,508,508,508,508,508,508,508,508,508,508,508,508,508,508,508,508,508,508,508,508,507,507,506,506,506,506,505,505,504,504,504,504,504,504,504,503,503,503,503,503,502,502,502,501,498,496,488,471,432,398,357,329,316,304,297,285,242,215,185,177,171,159,150,117,108,103,97],"timestamp_mouse":[10,36,44,64,84,106,126,145,166,185,205,226,246,266,286,305,325,345,366,384,405,425,445,464,486,506,524,545,566,584,606,625,645,665,685,705,724,746,765,785,806,824,845,864,885,905,925,945,966,984,1005,1025,1045,1065,1085,1106,1125,1145,1166,1186,1205,1226,1244,1264,1286,1304,1324,1345,1365],"xSR":741.5,"ySR":469.95,"xT1":424.9,"yT1":0,"xT2":1058.1,"yT2":0,"toosoon":0,"cond_shown":"equaldotsize","ratio_trial":900,"smaller_num":"9","larger_num":"10","correct_side":2,"subjID":"keisi Sofia Sanchez Perdomo","gender":"1","age":"8","school":"4"},{"start_time":1552313932070,"click_time":1552313933456,"finger_time":1552313932935,"fix_duration":354.2039966317895,"trial":9,"RT":865,"MT":521,"sideResp":1,"stimulus":"img/250/equaldotanddens/L/15_Ratio_250_L_12_R_3.png","xmouse":[789,789,789,789,789,789,789,789,789,789,789,789,789,789,789,789,789,789,789,789,789,789,789,790,790,790,791,792,792,792,792,792,792,792,792,792,792,792,792,791,788,784,753,731,692,645,599,458,413,413,413,413,413,413,413,413,413,413,413,413,413,413,413,413,413,403,407,416,420,425],"ymouse":[515,515,515,515,515,515,515,515,515,515,515,515,515,515,515,515,515,515,515,515,515,515,514,512,511,509,507,505,504,504,504,504,504,504,504,504,504,504,503,501,499,498,489,478,455,417,365,102,24,24,24,24,24,24,24,24,24,24,24,24,24,24,24,24,24,15,23,37,42,44],"timestamp_mouse":[10,26,46,66,84,106,126,145,165,185,206,225,246,265,284,304,325,345,364,385,406,424,445,465,486,506,524,545,565,585,606,625,646,666,684,705,725,744,765,785,804,825,845,865,885,905,924,944,964,985,1005,1026,1045,1066,1086,1105,1125,1145,1166,1186,1206,1224,1245,1265,1285,1305,1326,1344,1365,1386],"xSR":741.5,"ySR":469.95,"xT1":424.9,"yT1":0,"xT2":1058.1,"yT2":0,"toosoon":0,"cond_shown":"equaldotanddens","ratio_trial":250,"smaller_num":"3","larger_num":"12","correct_side":1,"subjID":"keisi Sofia Sanchez Perdomo","gender":"1","age":"8","school":"4"},{"start_time":1552313934749,"click_time":1552313936515,"finger_time":1552313935875,"fix_duration":433.8258790838957,"trial":10,"RT":1126,"MT":640,"sideResp":1,"stimulus":"img/750/randomdotsizeEA/L/8_Ratio_750_L_4_R_3.png","xmouse":[776,776,776,776,776,776,776,776,776,776,776,776,776,776,776,776,776,776,779,779,780,780,781,781,781,781,781,781,782,782,782,782,782,782,782,782,782,782,782,782,783,783,783,784,784,785,786,787,787,788,788,790,792,799,802,803,806,809,812,812,812,812,812,812,812,812,812,810,799,786,759,723,665,521,473,446,432,431,430,430,430,428,425,423,420,418,418,422,433],"ymouse":[502,502,502,502,502,502,502,502,502,502,502,502,502,502,502,502,502,502,502,501,498,497,495,493,492,491,491,491,489,489,489,489,489,489,489,489,489,488,488,486,485,484,483,481,481,480,479,478,478,478,477,477,475,472,470,470,468,466,464,464,464,463,463,463,463,463,463,459,450,439,420,396,364,268,225,204,195,193,192,188,178,166,148,127,118,113,107,102,90],"timestamp_mouse":[9,41,45,66,87,107,125,146,167,186,207,227,246,266,286,306,326,347,366,387,406,426,447,466,486,507,527,546,565,586,607,626,647,666,686,706,726,746,765,786,806,826,846,865,887,906,926,945,965,987,1006,1026,1045,1066,1087,1105,1126,1147,1165,1186,1206,1226,1245,1266,1286,1307,1327,1346,1366,1386,1405,1426,1445,1465,1485,1506,1527,1546,1566,1587,1605,1626,1645,1666,1687,1707,1726,1746,1766],"xSR":741.5,"ySR":469.95,"xT1":424.9,"yT1":0,"xT2":1058.1,"yT2":0,"toosoon":0,"cond_shown":"randomdotsizeEA","ratio_trial":750,"smaller_num":"3","larger_num":"4","correct_side":1,"subjID":"keisi Sofia Sanchez Perdomo","gender":"1","age":"8","school":"4"},{"start_time":1552313938884,"click_time":1552313940315,"finger_time":1552313939775,"fix_duration":1246.9361964923983,"trial":11,"RT":891,"MT":540,"sideResp":2,"stimulus":"img/500/randomdotsizeEA/R/1_Ratio_500_L_9_R_18.png","xmouse":[806,807,807,807,810,810,810,811,811,811,811,811,811,811,811,811,811,811,811,811,811,811,811,811,811,811,811,811,811,811,811,811,811,811,816,819,822,824,825,827,830,834,837,841,860,873,903,918,932,944,955,973,982,989,995,1001,1007,1010,1013,1014,1018,1023,1025,1026,1027,1027,1028,1030,1035,1042,1050,1059],"ymouse":[523,523,524,524,524,524,524,525,525,525,525,525,525,525,525,525,525,525,525,525,525,525,525,525,525,525,525,525,525,525,525,525,525,525,518,512,507,504,502,499,497,490,486,479,458,444,421,409,399,389,378,354,341,330,319,306,291,271,262,249,237,218,209,203,195,184,162,147,130,113,98,79],"timestamp_mouse":[13,32,57,71,92,112,131,150,171,191,211,232,250,271,291,311,330,352,372,391,412,432,451,470,492,512,531,551,572,590,611,631,651,671,691,712,730,750,771,791,811,830,852,871,891,910,930,950,970,990,1010,1031,1052,1071,1091,1112,1130,1151,1171,1191,1211,1231,1250,1270,1291,1310,1330,1351,1370,1390,1412,1430],"xSR":741.5,"ySR":469.95,"xT1":424.9,"yT1":0,"xT2":1058.1,"yT2":0,"toosoon":0,"cond_shown":"randomdotsizeEA","ratio_trial":500,"smaller_num":"9","larger_num":"18","correct_side":2,"subjID":"keisi Sofia Sanchez Perdomo","gender":"1","age":"8","school":"4"},{"start_time":1552313941844,"click_time":1552313943335,"finger_time":1552313942775,"fix_duration":366.7678761047064,"trial":12,"RT":931,"MT":560,"sideResp":2,"stimulus":"img/750/equaldotanddens/R/15_Ratio_750_L_9_R_12.png","xmouse":[800,800,800,800,800,800,800,800,800,800,800,800,800,800,800,800,800,800,800,800,800,800,800,800,800,800,800,800,800,800,800,797,794,784,779,773,767,757,751,750,749,749,749,750,756,762,783,802,844,862,876,890,903,928,939,953,963,973,981,982,983,983,984,994,1003,1011,1023,1037,1050,1055,1063,1069,1074,1081,1082],"ymouse":[529,529,528,527,527,527,527,527,527,527,527,527,527,527,527,527,527,527,527,527,527,527,527,527,527,527,527,527,527,527,527,526,524,517,514,511,507,499,493,490,488,487,486,481,479,473,462,453,439,434,427,420,410,385,368,348,334,320,303,301,298,295,292,276,264,249,237,217,177,157,139,124,113,101,99],"timestamp_mouse":[11,32,51,71,92,110,130,150,172,191,211,232,251,270,291,312,331,351,372,391,411,430,451,472,490,511,532,551,570,591,610,631,651,670,691,712,730,751,770,791,812,830,851,870,891,911,931,950,970,991,1011,1031,1050,1071,1091,1112,1131,1150,1170,1192,1211,1231,1250,1270,1292,1310,1330,1351,1371,1391,1412,1431,1451,1470,1491],"xSR":741.5,"ySR":469.95,"xT1":424.9,"yT1":0,"xT2":1058.1,"yT2":0,"toosoon":0,"cond_shown":"equaldotanddens","ratio_trial":750,"smaller_num":"9","larger_num":"12","correct_side":2,"subjID":"keisi Sofia Sanchez Perdomo","gender":"1","age":"8","school":"4"},{"start_time":1552313945545,"click_time":1552313947015,"finger_time":1552313946374,"fix_duration":1267.394756503683,"trial":13,"RT":829,"MT":641,"sideResp":2,"stimulus":"img/750/randomdotsizeEA/R/15_Ratio_750_L_9_R_12.png","xmouse":[793,793,793,793,793,793,793,793,793,793,793,793,793,793,793,793,793,793,793,793,793,793,793,793,793,793,793,793,793,793,793,793,793,793,793,793,790,789,772,760,743,726,697,661,651,645,643,643,650,657,668,685,716,785,829,870,917,962,1037,1055,1065,1068,1072,1078,1080,1082,1083,1083,1082,1080,1076,1072,1069,1061],"ymouse":[503,503,503,503,503,503,503,503,503,503,503,503,503,503,503,503,503,503,503,503,503,503,503,503,503,503,503,503,503,503,503,503,503,503,503,503,503,503,502,500,496,492,483,475,471,467,462,455,436,425,412,385,359,335,321,310,303,293,264,253,243,237,227,205,196,187,177,167,156,147,135,123,103,74],"timestamp_mouse":[11,37,50,70,90,111,130,150,170,190,209,229,249,269,290,310,331,351,370,390,410,430,450,470,490,510,530,550,570,590,610,631,649,670,690,710,729,750,769,790,810,829,849,869,890,909,930,949,970,990,1009,1029,1049,1070,1090,1109,1129,1150,1169,1189,1209,1229,1250,1270,1289,1310,1329,1350,1369,1389,1410,1429,1450,1469],"xSR":741.5,"ySR":469.95,"xT1":424.9,"yT1":0,"xT2":1058.1,"yT2":0,"toosoon":0,"cond_shown":"randomdotsizeEA","ratio_trial":750,"smaller_num":"9","larger_num":"12","correct_side":2,"subjID":"keisi Sofia Sanchez Perdomo","gender":"1","age":"8","school":"4"},{"start_time":1552313949082,"click_time":1552313950394,"finger_time":1552313949935,"fix_duration":1284.87507832088,"trial":14,"RT":853,"MT":459,"sideResp":2,"stimulus":"img/500/equaldotanddens/R/9_Ratio_500_L_2_R_4.png","xmouse":[801,801,801,801,801,801,801,801,801,801,801,801,801,801,801,801,801,801,801,801,801,801,801,801,801,801,801,801,801,801,801,801,801,801,801,801,801,801,801,801,807,833,858,889,932,990,1027,1036,1043,1049,1056,1070,1074,1077,1079,1083,1093,1097,1100,1103,1103,1101,1101,1101,1101,1101],"ymouse":[523,523,523,523,523,523,523,523,523,523,523,523,523,523,523,523,523,523,523,523,523,523,523,523,523,523,523,523,523,523,523,523,523,523,523,523,523,523,523,523,520,510,498,486,466,441,420,412,403,381,358,317,303,295,287,275,243,224,205,176,153,127,116,108,102,88],"timestamp_mouse":[13,39,53,73,93,114,132,152,173,193,214,233,254,274,292,313,332,352,374,394,414,434,453,474,493,514,533,553,574,593,613,632,652,672,694,714,733,753,774,794,813,833,853,873,893,912,933,952,973,993,1012,1033,1053,1073,1092,1112,1132,1153,1172,1194,1214,1233,1253,1273,1292,1312],"xSR":741.5,"ySR":469.95,"xT1":424.9,"yT1":0,"xT2":1058.1,"yT2":0,"toosoon":0,"cond_shown":"equaldotanddens","ratio_trial":500,"smaller_num":"2","larger_num":"4","correct_side":2,"subjID":"keisi Sofia Sanchez Perdomo","gender":"1","age":"8","school":"4"},{"start_time":1552313953852,"click_time":1552313955396,"finger_time":1552313954796,"fix_duration":1056.1726636306391,"trial":15,"RT":944,"MT":600,"sideResp":1,"stimulus":"img/750/randomdotsizeEA/R/4_Ratio_750_L_15_R_20.png","xmouse":[782,782,782,782,782,782,782,782,782,782,782,782,782,782,782,782,782,782,782,782,782,782,782,782,782,782,782,782,782,782,782,782,782,782,782,782,782,782,782,782,777,765,759,755,753,752,749,737,701,677,653,636,627,619,617,614,610,606,591,580,576,571,569,564,563,560,557,554,549,546,542,539,534,527,524,520,516,512],"ymouse":[543,543,543,543,543,543,543,543,543,543,543,543,543,543,543,543,543,543,543,543,543,543,543,543,543,543,543,543,543,543,543,543,543,543,543,543,543,543,543,543,543,544,544,544,544,543,540,535,526,519,511,499,487,464,449,435,407,369,269,230,195,171,162,152,148,145,141,138,133,132,129,126,122,116,112,107,103,99],"timestamp_mouse":[9,37,44,62,82,104,123,143,163,183,203,224,243,262,282,303,323,342,363,382,404,424,442,462,482,503,524,543,563,583,603,623,642,663,683,703,722,744,763,784,803,823,843,863,882,903,922,944,962,983,1004,1022,1042,1062,1083,1104,1123,1143,1163,1183,1202,1224,1244,1263,1283,1303,1323,1342,1362,1383,1402,1423,1443,1463,1483,1502,1522,1544],"xSR":741.5,"ySR":469.95,"xT1":424.9,"yT1":0,"xT2":1058.1,"yT2":0,"toosoon":0,"cond_shown":"randomdotsizeEA","ratio_trial":750,"smaller_num":"15","larger_num":"20","correct_side":2,"subjID":"keisi Sofia Sanchez Perdomo","gender":"1","age":"8","school":"4"},{"start_time":1552313957402,"click_time":1552313958675,"finger_time":1552313958335,"fix_duration":965.9537425061022,"trial":16,"RT":933,"MT":340,"sideResp":1,"stimulus":"img/250/randomdotsizeEA/L/2_Ratio_250_L_16_R_4.png","xmouse":[788,788,788,788,788,788,788,788,788,788,788,788,788,788,788,788,788,788,788,788,788,788,788,788,787,787,787,787,787,787,787,787,787,787,787,787,787,787,787,787,787,787,787,785,781,757,742,723,701,671,634,620,608,598,591,580,575,570,561,545,527,520,516,509],"ymouse":[510,510,510,510,510,510,510,510,510,510,510,510,510,510,510,510,510,510,510,510,511,513,518,522,522,522,522,522,522,522,522,522,522,522,522,522,522,522,522,522,522,522,522,523,520,494,468,436,401,365,322,306,292,280,273,264,261,257,250,231,181,152,122,96],"timestamp_mouse":[12,39,52,73,93,113,133,153,174,192,213,232,253,272,294,313,333,353,372,393,413,433,452,472,492,512,534,552,572,593,613,634,653,673,693,713,732,752,773,793,812,832,852,872,892,913,933,952,973,993,1013,1032,1052,1072,1092,1113,1132,1154,1174,1193,1213,1233,1253,1273],"xSR":741.5,"ySR":469.95,"xT1":424.9,"yT1":0,"xT2":1058.1,"yT2":0,"toosoon":0,"cond_shown":"randomdotsizeEA","ratio_trial":250,"smaller_num":"4","larger_num":"16","correct_side":1,"subjID":"keisi Sofia Sanchez Perdomo","gender":"1","age":"8","school":"4"},{"start_time":1552313960549,"click_time":1552313961874,"finger_time":1552313961435,"fix_duration":872.4592061414166,"trial":17,"RT":886,"MT":439,"sideResp":1,"stimulus":"img/250/randomdotsizeEA/L/15_Ratio_250_L_12_R_3.png","xmouse":[773,773,773,773,774,774,774,776,776,776,776,776,776,776,776,776,776,776,776,776,776,776,776,776,776,776,776,776,776,776,776,776,776,776,776,776,776,776,776,776,776,770,762,742,732,719,702,675,642,626,611,586,580,554,550,547,547,547,546,544,542,540,538,534,531,526,523],"ymouse":[507,507,507,507,507,507,507,507,507,507,507,507,507,507,507,507,507,507,507,507,507,507,507,507,507,507,507,507,507,507,507,507,507,507,507,507,507,507,507,507,507,503,493,474,460,440,407,352,213,158,121,81,73,48,42,39,39,39,37,37,37,37,37,37,37,37,37],"timestamp_mouse":[9,36,45,65,86,105,127,145,165,187,205,226,247,265,285,305,326,346,366,386,406,425,446,467,486,506,525,546,565,585,606,627,646,665,687,706,726,746,765,786,806,826,846,865,886,905,925,945,966,985,1006,1025,1046,1066,1085,1105,1126,1146,1165,1186,1206,1225,1246,1266,1286,1306,1325],"xSR":741.5,"ySR":469.95,"xT1":424.9,"yT1":0,"xT2":1058.1,"yT2":0,"toosoon":0,"cond_shown":"randomdotsizeEA","ratio_trial":250,"smaller_num":"3","larger_num":"12","correct_side":1,"subjID":"keisi Sofia Sanchez Perdomo","gender":"1","age":"8","school":"4"},{"start_time":1552313963589,"click_time":1552313964915,"finger_time":1552313964634,"fix_duration":672.3356115498692,"trial":18,"RT":1045,"MT":281,"sideResp":2,"stimulus":"img/750/equaldotsize/L/14_Ratio_750_L_8_R_6.png","xmouse":[773,773,773,773,773,773,773,773,773,773,773,773,773,773,773,773,773,773,773,773,773,773,773,773,773,773,773,773,773,773,773,773,773,773,773,773,773,773,773,773,773,773,773,773,773,773,773,775,784,788,806,837,852,865,880,898,937,960,982,1009,1049,1091,1109,1123,1133,1141,1148],"ymouse":[532,532,532,532,532,532,532,532,532,532,532,532,532,532,532,532,532,532,532,532,532,532,532,532,532,532,532,532,532,532,532,532,532,532,532,532,532,532,532,532,532,532,532,532,532,531,531,528,519,515,500,475,464,451,440,424,391,372,355,334,294,230,196,166,139,118,94],"timestamp_mouse":[10,40,45,65,87,105,126,147,167,185,206,225,245,266,286,306,326,346,366,387,405,426,445,467,485,505,525,548,566,586,606,625,646,666,686,706,725,747,766,785,806,826,846,866,887,906,926,946,966,985,1005,1026,1045,1066,1085,1105,1125,1145,1166,1186,1205,1226,1245,1267,1286,1306,1325],"xSR":741.5,"ySR":469.95,"xT1":424.9,"yT1":0,"xT2":1058.1,"yT2":0,"toosoon":0,"cond_shown":"equaldotsize","ratio_trial":750,"smaller_num":"6","larger_num":"8","correct_side":1,"subjID":"keisi Sofia Sanchez Perdomo","gender":"1","age":"8","school":"4"},{"start_time":1552313966695,"click_time":1552313967935,"finger_time":1552313967575,"fix_duration":717.5707715936657,"trial":19,"RT":880,"MT":360,"sideResp":2,"stimulus":"img/900/randomdotsizeEA/R/12_Ratio_900_L_18_R_20.png","xmouse":[778,778,778,778,778,778,778,779,779,779,779,779,779,779,779,779,779,779,779,779,779,779,779,779,779,779,779,779,779,779,779,779,779,779,779,779,779,779,779,779,781,791,806,826,860,871,904,911,921,934,952,1009,1048,1084,1118,1133,1147,1150,1150,1150,1150,1150,1150],"ymouse":[522,522,522,522,522,522,522,522,522,522,522,522,522,522,522,522,522,522,522,522,522,522,522,522,522,522,522,522,522,522,522,522,522,522,522,522,522,522,522,522,521,513,502,490,469,462,442,438,430,419,404,365,336,309,275,255,211,185,164,146,131,101,87],"timestamp_mouse":[10,21,41,59,80,100,121,139,159,181,199,219,239,259,280,300,320,339,360,379,400,419,439,460,480,500,520,540,559,581,599,619,640,661,680,699,719,739,761,780,799,820,840,861,880,900,919,940,961,980,1001,1019,1041,1061,1080,1099,1120,1140,1159,1180,1199,1219,1240],"xSR":741.5,"ySR":469.95,"xT1":424.9,"yT1":0,"xT2":1058.1,"yT2":0,"toosoon":0,"cond_shown":"randomdotsizeEA","ratio_trial":900,"smaller_num":"18","larger_num":"20","correct_side":2,"subjID":"keisi Sofia Sanchez Perdomo","gender":"1","age":"8","school":"4"},{"start_time":1552313970007,"click_time":1552313971396,"finger_time":1552313970775,"fix_duration":912.9432274683916,"trial":20,"RT":768,"MT":621,"sideResp":2,"stimulus":"img/500/equaldotanddens/R/3_Ratio_500_L_10_R_20.png","xmouse":[789,789,789,789,789,789,789,789,789,789,789,789,789,789,789,789,789,789,789,789,789,789,789,789,789,789,789,789,789,789,789,789,789,789,790,800,816,837,870,942,1053,1104,1156,1196,1222,1255,1263,1270,1274,1274,1271,1267,1263,1260,1257,1248,1242,1235,1226,1221,1215,1208,1200,1195,1186,1173,1168,1164,1159,1153],"ymouse":[525,525,525,525,525,525,525,525,525,525,525,525,525,525,525,525,525,525,525,525,525,525,525,525,525,525,525,525,525,525,525,525,525,525,526,522,512,496,478,436,374,343,309,275,244,183,161,137,103,91,41,32,23,18,15,10,9,7,6,6,9,14,17,19,21,22,22,22,22,22],"timestamp_mouse":[10,35,48,67,87,108,128,147,167,187,208,228,247,267,287,307,328,347,367,388,409,428,449,468,488,508,528,548,567,587,608,627,647,668,687,708,728,748,768,788,807,827,848,869,888,907,927,948,968,989,1008,1028,1047,1068,1088,1107,1129,1148,1169,1188,1207,1227,1247,1268,1288,1308,1328,1348,1367,1389],"xSR":741.5,"ySR":469.95,"xT1":424.9,"yT1":0,"xT2":1058.1,"yT2":0,"toosoon":0,"cond_shown":"equaldotanddens","ratio_trial":500,"smaller_num":"10","larger_num":"20","correct_side":2,"subjID":"keisi Sofia Sanchez Perdomo","gender":"1","age":"8","school":"4"},{"start_time":1552313973806,"click_time":1552313975015,"finger_time":1552313974655,"fix_duration":250,"trial":21,"RT":849,"MT":360,"sideResp":1,"stimulus":"img/500/randomdotsizeEA/L/5_Ratio_500_L_4_R_2.png","xmouse":[808,808,808,808,808,808,808,808,808,808,808,808,808,808,808,808,808,808,808,808,808,808,808,808,808,808,808,808,808,808,808,808,808,808,808,808,808,808,803,798,780,769,756,745,734,709,699,687,676,665,659,656,653,647,639,620,607,590,539,500,455],"ymouse":[513,513,513,513,513,513,513,513,513,513,513,513,513,513,513,513,513,513,513,513,513,513,513,513,513,513,513,513,513,513,513,513,513,513,513,513,513,513,511,510,491,475,454,435,416,380,363,346,332,318,310,306,299,290,278,251,232,210,150,102,51],"timestamp_mouse":[9,28,49,70,89,110,129,149,169,190,208,229,249,269,289,308,328,348,370,389,410,430,449,468,488,509,529,548,570,588,609,629,648,670,688,708,729,749,769,788,808,829,849,870,889,909,929,949,968,988,1009,1028,1048,1068,1088,1108,1128,1149,1169,1189,1209],"xSR":741.5,"ySR":469.95,"xT1":424.9,"yT1":0,"xT2":1058.1,"yT2":0,"toosoon":0,"cond_shown":"randomdotsizeEA","ratio_trial":500,"smaller_num":"2","larger_num":"4","correct_side":1,"subjID":"keisi Sofia Sanchez Perdomo","gender":"1","age":"8","school":"4"},{"start_time":1552313976259,"click_time":1552313977574,"finger_time":1552313977154,"fix_duration":321.3892279463255,"trial":22,"RT":895,"MT":420,"sideResp":1,"stimulus":"img/900/randomdotsizeEA/R/5_Ratio_900_L_9_R_10.png","xmouse":[793,793,793,793,793,793,793,793,793,793,793,793,793,793,793,793,793,793,793,793,793,793,794,795,795,795,796,797,797,797,797,797,797,797,797,799,799,801,803,804,805,806,814,823,834,851,857,876,879,881,881,881,880,875,868,854,840,805,781,745,700,646,555,505,492,456],"ymouse":[528,528,528,528,528,528,528,528,528,528,528,528,528,528,528,528,528,528,528,528,528,528,528,528,527,527,526,525,525,525,525,525,525,524,524,522,520,518,515,513,511,509,497,485,469,446,439,409,404,400,396,393,381,372,358,339,323,291,276,255,231,197,138,110,104,90],"timestamp_mouse":[16,36,55,76,97,117,135,157,175,196,216,237,256,276,295,316,335,356,377,396,415,436,456,475,495,516,536,555,576,596,617,636,655,675,696,716,736,755,775,796,816,836,856,876,895,917,936,956,976,995,1016,1035,1056,1076,1096,1116,1136,1155,1175,1196,1216,1236,1256,1275,1296,1315],"xSR":741.5,"ySR":469.95,"xT1":424.9,"yT1":0,"xT2":1058.1,"yT2":0,"toosoon":0,"cond_shown":"randomdotsizeEA","ratio_trial":900,"smaller_num":"9","larger_num":"10","correct_side":2,"subjID":"keisi Sofia Sanchez Perdomo","gender":"1","age":"8","school":"4"},{"start_time":1552313979521,"click_time":1552313980896,"finger_time":1552313980394,"fix_duration":804.7404319397642,"trial":23,"RT":873,"MT":502,"sideResp":2,"stimulus":"img/500/randomdotsizeEA/R/1_Ratio_500_L_9_R_18.png","xmouse":[796,796,796,796,796,796,796,796,796,796,796,796,796,796,796,796,796,796,796,796,796,796,796,796,796,796,796,796,796,796,796,796,796,796,796,796,796,796,798,801,806,813,823,841,884,896,911,930,943,961,966,967,967,965,959,958,956,956,956,965,977,998,1028,1038,1070,1077,1085,1096,1108],"ymouse":[511,511,511,511,511,511,511,511,511,511,511,511,511,511,511,511,511,511,511,511,511,511,511,511,511,511,511,511,511,511,511,511,511,511,511,511,511,511,510,508,503,498,489,467,407,380,347,322,301,265,249,235,220,203,188,182,177,172,167,153,145,135,123,121,108,105,103,100,96],"timestamp_mouse":[14,40,54,74,94,114,133,154,173,193,214,234,255,273,294,314,335,354,374,393,414,434,455,474,494,513,535,554,574,593,614,634,654,674,693,714,734,755,773,793,814,834,853,873,894,914,935,954,973,994,1013,1033,1053,1073,1094,1113,1133,1154,1174,1194,1213,1234,1255,1275,1295,1314,1334,1355,1375],"xSR":741.5,"ySR":469.95,"xT1":424.9,"yT1":0,"xT2":1058.1,"yT2":0,"toosoon":0,"cond_shown":"randomdotsizeEA","ratio_trial":500,"smaller_num":"9","larger_num":"18","correct_side":2,"subjID":"keisi Sofia Sanchez Perdomo","gender":"1","age":"8","school":"4"},{"start_time":1552313982721,"click_time":1552313983915,"finger_time":1552313983515,"fix_duration":645.6933294444982,"trial":24,"RT":794,"MT":400,"sideResp":2,"stimulus":"img/250/equaldotsize/R/4_Ratio_250_L_3_R_12.png","xmouse":[756,756,756,756,756,756,756,756,756,756,756,756,756,756,756,756,756,756,756,756,756,756,756,756,756,756,756,756,756,756,756,756,756,756,759,765,780,801,823,865,878,893,911,926,965,986,1000,1007,1008,1008,1008,1009,1012,1017,1026,1033,1038,1044,1054,1081],"ymouse":[525,525,525,525,525,525,525,525,525,525,525,525,525,525,525,525,525,525,525,525,525,525,525,525,525,525,525,525,525,525,525,525,525,525,525,521,514,503,494,472,463,450,429,412,356,322,296,275,258,227,219,210,199,183,160,145,135,126,113,87],"timestamp_mouse":[15,34,54,81,94,114,133,155,174,194,214,235,255,273,294,314,333,354,373,395,414,434,455,475,493,515,534,555,574,593,613,633,654,673,694,714,734,755,773,794,815,835,855,874,893,913,934,954,974,993,1014,1034,1055,1074,1093,1113,1133,1153,1175,1194],"xSR":741.5,"ySR":469.95,"xT1":424.9,"yT1":0,"xT2":1058.1,"yT2":0,"toosoon":0,"cond_shown":"equaldotsize","ratio_trial":250,"smaller_num":"3","larger_num":"12","correct_side":2,"subjID":"keisi Sofia Sanchez Perdomo","gender":"1","age":"8","school":"4"},{"start_time":1552313986387,"click_time":1552313988474,"finger_time":1552313987255,"fix_duration":250,"trial":25,"RT":868,"MT":1219,"sideResp":2,"stimulus":"img/900/equaldotanddens/L/10_Ratio_900_L_20_R_18.png","xmouse":[799,799,799,799,799,799,799,799,799,799,799,799,799,799,799,799,799,799,799,799,799,799,799,799,799,799,799,799,799,799,799,799,799,799,799,799,799,799,799,799,799,793,787,774,756,743,726,723,722,720,719,706,696,684,673,663,649,643,635,631,613,592,583,577,576,575,573,572,572,572,572,572,572,572,572,572,572,572,572,580,616,695,760,831,898,952,1002,1009,1015,1017,1023,1042,1054,1065,1074,1076,1079,1082,1083,1087,1089,1091,1092,1092,1092],"ymouse":[504,504,504,504,504,504,504,504,504,504,504,504,504,504,504,504,504,504,504,504,504,504,504,504,504,504,504,504,504,504,504,504,504,504,504,504,504,504,504,504,503,498,485,444,381,337,290,280,272,264,254,229,217,203,194,188,179,176,171,168,157,143,137,133,132,131,128,127,126,126,126,126,126,126,126,126,126,126,126,125,126,137,145,156,161,167,167,165,160,158,152,137,131,126,122,120,118,115,113,109,105,101,101,100,98],"timestamp_mouse":[11,40,47,67,88,108,129,147,168,189,207,228,247,269,287,307,327,349,369,388,408,429,448,467,487,508,528,549,568,588,607,627,647,667,687,707,727,748,767,787,808,827,848,868,888,907,928,947,968,988,1008,1027,1047,1067,1088,1108,1128,1147,1168,1188,1207,1228,1248,1268,1288,1307,1328,1347,1368,1388,1408,1427,1448,1468,1488,1509,1527,1548,1568,1588,1607,1628,1648,1667,1689,1708,1728,1747,1768,1787,1807,1827,1847,1867,1888,1907,1928,1947,1967,1988,2009,2027,2048,2068,2087],"xSR":741.5,"ySR":469.95,"xT1":424.9,"yT1":0,"xT2":1058.1,"yT2":0,"toosoon":0,"cond_shown":"equaldotanddens","ratio_trial":900,"smaller_num":"18","larger_num":"20","correct_side":1,"subjID":"keisi Sofia Sanchez Perdomo","gender":"1","age":"8","school":"4"},{"start_time":1552313991687,"click_time":1552313992996,"finger_time":1552313992574,"fix_duration":750.4369450012979,"trial":26,"RT":887,"MT":422,"sideResp":1,"stimulus":"img/500/randomdotsizeEA/L/5_Ratio_500_L_4_R_2.png","xmouse":[789,789,789,789,789,789,789,789,789,789,789,789,789,789,789,789,789,789,789,789,789,789,789,789,789,789,789,789,789,789,789,789,789,789,789,789,789,789,789,789,789,789,773,765,740,700,669,658,649,638,627,604,599,599,599,598,591,585,580,573,567,554,546,540,534,524],"ymouse":[516,516,516,516,516,516,516,516,516,516,516,516,516,516,516,516,516,516,516,516,516,516,516,516,516,516,516,516,516,516,516,516,516,516,516,516,516,516,516,516,516,516,501,492,461,414,363,345,328,312,297,274,263,248,238,223,208,201,194,184,174,148,128,114,102,87],"timestamp_mouse":[12,43,48,67,88,107,127,167,167,188,208,228,248,268,288,308,328,349,367,387,408,427,448,467,487,507,528,547,568,587,608,628,647,667,687,708,728,749,767,788,807,828,855,867,887,907,927,948,967,988,1008,1028,1048,1069,1087,1108,1127,1148,1168,1187,1209,1228,1247,1268,1287,1308],"xSR":741.5,"ySR":469.95,"xT1":424.9,"yT1":0,"xT2":1058.1,"yT2":0,"toosoon":0,"cond_shown":"randomdotsizeEA","ratio_trial":500,"smaller_num":"2","larger_num":"4","correct_side":1,"subjID":"keisi Sofia Sanchez Perdomo","gender":"1","age":"8","school":"4"},{"start_time":1552313995656,"click_time":1552313996915,"finger_time":1552313996476,"fix_duration":1498.0054064997485,"trial":27,"RT":820,"MT":439,"sideResp":1,"stimulus":"img/250/randomdotsizeEA/L/7_Ratio_250_L_8_R_2.png","xmouse":[796,796,796,796,796,796,796,796,796,796,796,796,796,796,796,796,796,796,796,796,796,796,796,796,796,796,796,796,796,796,796,796,796,796,796,796,796,796,791,784,774,758,736,674,642,614,595,579,560,551,539,525,513,491,485,481,476,470,460,455,446,439,434,430],"ymouse":[516,516,516,516,516,516,516,516,516,516,516,516,516,516,516,516,516,516,516,516,516,516,516,516,516,516,516,516,516,516,516,516,516,516,516,516,516,516,514,503,483,449,407,323,295,276,264,255,245,241,234,225,218,198,188,181,173,163,148,134,121,110,103,94],"timestamp_mouse":[1,19,38,58,78,98,120,138,159,178,200,218,239,258,278,299,318,338,359,380,399,419,439,459,480,498,518,539,559,578,598,620,640,659,680,699,719,739,758,779,799,820,839,859,879,899,919,938,959,979,999,1018,1039,1058,1078,1099,1118,1139,1159,1179,1199,1218,1240,1259],"xSR":741.5,"ySR":469.95,"xT1":424.9,"yT1":0,"xT2":1058.1,"yT2":0,"toosoon":0,"cond_shown":"randomdotsizeEA","ratio_trial":250,"smaller_num":"2","larger_num":"8","correct_side":1,"subjID":"keisi Sofia Sanchez Perdomo","gender":"1","age":"8","school":"4"},{"start_time":1552313999121,"click_time":1552314000134,"finger_time":1552313999735,"fix_duration":1205.9819156397693,"trial":28,"RT":614,"MT":399,"sideResp":2,"stimulus":"img/250/equaldotanddens/R/9_Ratio_250_L_3_R_12.png","xmouse":[782,782,782,782,782,782,782,782,782,782,782,782,782,782,782,782,782,782,782,782,782,782,782,783,785,785,786,788,792,812,829,845,858,870,883,893,900,912,926,947,958,973,980,996,1017,1031,1047,1062,1075,1098,1104],"ymouse":[506,506,506,506,506,506,506,506,506,506,506,506,506,506,506,506,506,506,506,506,506,506,506,506,505,505,504,501,496,475,456,435,415,387,349,330,316,299,284,256,237,205,192,167,151,143,133,124,116,101,97],"timestamp_mouse":[14,43,54,74,94,113,135,154,175,194,214,234,255,274,295,314,334,354,375,393,413,434,454,474,493,514,533,554,573,594,614,634,654,673,694,713,734,753,774,794,813,834,853,874,893,913,934,954,974,994,1013],"xSR":741.5,"ySR":469.95,"xT1":424.9,"yT1":0,"xT2":1058.1,"yT2":0,"toosoon":0,"cond_shown":"equaldotanddens","ratio_trial":250,"smaller_num":"3","larger_num":"12","correct_side":2,"subjID":"keisi Sofia Sanchez Perdomo","gender":"1","age":"8","school":"4"},{"start_time":1552314001702,"click_time":1552314003214,"finger_time":1552314002715,"fix_duration":386.5895482033286,"trial":29,"RT":1013,"MT":499,"sideResp":2,"stimulus":"img/750/equaldotsize/R/4_Ratio_750_L_15_R_20.png","xmouse":[799,799,799,799,799,799,799,799,799,799,799,799,799,799,799,799,799,799,799,799,799,799,799,799,799,799,799,799,799,799,799,799,799,799,799,799,799,799,799,799,799,799,799,799,799,799,799,799,799,806,853,886,920,949,982,1002,1005,1007,1009,1011,1012,1013,1014,1014,1014,1015,1018,1022,1026,1031,1038,1041,1045,1051,1055,1065],"ymouse":[533,533,533,533,533,533,533,533,533,533,533,533,533,533,533,533,533,533,533,533,533,533,533,533,533,533,533,533,533,533,533,533,533,533,533,533,533,533,533,533,533,533,533,533,533,533,533,533,531,526,489,467,449,437,415,385,370,355,339,328,300,292,282,273,262,224,201,177,159,144,120,111,101,90,85,75],"timestamp_mouse":[13,33,55,73,93,114,133,153,172,194,212,232,253,272,293,314,332,352,372,392,412,432,453,472,492,512,532,553,574,593,613,634,652,673,692,713,734,753,772,792,812,834,854,872,892,912,933,952,973,993,1013,1033,1053,1072,1092,1112,1132,1152,1173,1193,1213,1232,1254,1272,1293,1312,1332,1352,1373,1392,1413,1433,1454,1473,1493,1512],"xSR":741.5,"ySR":469.95,"xT1":424.9,"yT1":0,"xT2":1058.1,"yT2":0,"toosoon":0,"cond_shown":"equaldotsize","ratio_trial":750,"smaller_num":"15","larger_num":"20","correct_side":2,"subjID":"keisi Sofia Sanchez Perdomo","gender":"1","age":"8","school":"4"},{"start_time":1552314004913,"click_time":1552314007115,"finger_time":1552314005994,"fix_duration":755.4583042681485,"trial":30,"RT":1081,"MT":1121,"sideResp":2,"stimulus":"img/900/equaldotanddens/R/5_Ratio_900_L_9_R_10.png","xmouse":[795,795,795,795,795,795,795,795,795,795,795,795,795,795,795,795,795,795,795,795,795,795,795,795,795,795,795,795,795,795,795,795,795,795,793,792,790,788,788,787,783,778,771,761,749,747,747,747,747,747,745,744,743,742,741,741,740,739,737,737,736,735,735,735,735,735,734,732,730,728,720,715,706,703,698,676,666,654,644,638,634,634,634,634,634,634,634,634,645,668,741,804,874,944,1035,1102,1123,1137,1149,1162,1190,1197,1200,1201,1201,1197,1195,1192,1188,1181,1157],"ymouse":[515,515,515,515,515,521,523,525,528,529,529,529,529,529,529,529,529,529,529,529,529,529,529,529,529,530,530,530,530,530,530,530,530,530,530,530,530,530,529,529,526,522,516,508,497,494,492,491,490,489,487,485,485,484,484,484,484,482,480,480,477,475,474,474,473,473,471,467,464,461,445,436,421,414,402,358,331,304,283,275,269,269,269,269,269,269,269,266,262,258,251,247,240,232,214,187,174,163,150,135,109,96,83,72,62,50,48,48,48,48,48],"timestamp_mouse":[9,22,44,61,82,101,122,142,162,181,202,222,242,263,281,301,322,341,362,381,403,423,442,461,482,501,521,543,563,583,602,621,642,661,681,702,722,742,763,782,801,822,842,863,881,901,921,942,961,981,1001,1021,1041,1062,1081,1101,1122,1142,1162,1182,1202,1221,1242,1262,1281,1301,1322,1342,1363,1383,1401,1421,1442,1461,1482,1501,1521,1542,1562,1583,1601,1622,1641,1662,1683,1701,1722,1742,1762,1782,1802,1821,1841,1862,1883,1902,1922,1942,1961,1983,2001,2022,2041,2061,2081,2101,2122,2142,2162,2181,2202],"xSR":741.5,"ySR":469.95,"xT1":424.9,"yT1":0,"xT2":1058.1,"yT2":0,"toosoon":0,"cond_shown":"equaldotanddens","ratio_trial":900,"smaller_num":"9","larger_num":"10","correct_side":2,"subjID":"keisi Sofia Sanchez Perdomo","gender":"1","age":"8","school":"4"},{"start_time":1552314008496,"click_time":1552314009634,"finger_time":1552314009294,"fix_duration":359.1876600514218,"trial":31,"RT":798,"MT":340,"sideResp":1,"stimulus":"img/900/randomdotsizeEA/L/10_Ratio_900_L_20_R_18.png","xmouse":[803,803,803,803,803,803,803,803,803,803,803,803,803,803,803,803,803,803,803,803,803,803,803,803,803,803,803,803,803,803,803,803,803,803,803,803,800,790,780,765,741,731,724,717,712,690,679,667,654,646,632,622,612,596,563,519,495],"ymouse":[526,526,526,526,526,526,526,526,526,526,526,526,526,526,526,526,526,526,526,526,526,526,526,526,526,526,526,526,526,526,526,526,526,526,526,526,526,510,489,462,420,402,389,375,363,328,312,296,281,270,249,235,218,194,149,103,83],"timestamp_mouse":[18,41,59,78,98,119,138,158,178,198,219,240,259,278,299,318,339,359,379,400,419,438,459,478,498,520,538,559,578,598,618,638,660,678,698,719,738,758,779,798,818,839,860,879,899,918,939,959,979,999,1019,1038,1059,1078,1098,1118,1138],"xSR":741.5,"ySR":469.95,"xT1":424.9,"yT1":0,"xT2":1058.1,"yT2":0,"toosoon":0,"cond_shown":"randomdotsizeEA","ratio_trial":900,"smaller_num":"18","larger_num":"20","correct_side":1,"subjID":"keisi Sofia Sanchez Perdomo","gender":"1","age":"8","school":"4"},{"start_time":1552314012216,"click_time":1552314013595,"finger_time":1552314013075,"fix_duration":898.7229723210756,"trial":32,"RT":859,"MT":520,"sideResp":2,"stimulus":"img/750/randomdotsizeEA/R/11_Ratio_750_L_12_R_16.png","xmouse":[774,774,774,774,774,774,774,774,774,774,774,774,774,774,774,774,774,774,774,774,774,774,774,774,774,774,774,774,774,774,774,774,774,774,774,774,774,774,774,777,789,794,800,810,820,842,854,865,880,909,944,959,966,976,983,994,998,1001,1007,1011,1021,1025,1029,1034,1038,1046,1051,1055,1057,1061],"ymouse":[522,522,522,522,522,522,522,522,522,522,522,522,522,522,522,522,522,522,522,522,522,522,522,522,522,522,522,522,522,522,522,522,522,522,522,522,522,522,521,514,493,484,475,464,454,435,426,417,403,376,330,310,296,276,261,233,221,208,195,186,157,141,127,116,107,96,92,89,87,81],"timestamp_mouse":[1,19,45,59,78,99,118,139,158,180,199,219,239,258,279,298,319,339,358,379,398,419,440,459,479,499,518,540,559,578,599,620,640,659,678,698,720,740,759,779,798,819,840,859,878,899,918,939,960,980,999,1018,1038,1059,1079,1098,1119,1139,1159,1178,1198,1219,1238,1258,1278,1299,1319,1339,1359,1379],"xSR":741.5,"ySR":469.95,"xT1":424.9,"yT1":0,"xT2":1058.1,"yT2":0,"toosoon":0,"cond_shown":"randomdotsizeEA","ratio_trial":750,"smaller_num":"12","larger_num":"16","correct_side":2,"subjID":"keisi Sofia Sanchez Perdomo","gender":"1","age":"8","school":"4"},{"start_time":1552314015710,"click_time":1552314016815,"finger_time":1552314016415,"fix_duration":1192.1892347905684,"trial":33,"RT":705,"MT":400,"sideResp":2,"stimulus":"img/750/equaldotanddens/R/7_Ratio_750_L_3_R_4.png","xmouse":[805,805,805,805,805,805,805,805,805,805,805,805,805,805,805,805,805,805,805,805,805,805,805,805,805,805,805,805,805,805,805,805,805,806,811,833,843,857,869,878,889,893,896,902,916,940,952,962,971,980,997,1002,1005,1017,1023,1061],"ymouse":[501,501,501,501,501,501,501,501,501,501,501,501,501,501,501,501,501,501,501,501,501,501,501,501,501,501,501,501,501,501,501,501,501,499,494,469,456,437,419,402,376,366,356,346,324,283,260,236,217,196,166,157,149,131,121,70],"timestamp_mouse":[9,24,45,65,85,105,126,145,165,185,206,225,244,265,285,305,324,346,365,385,405,426,446,464,485,504,525,545,564,584,604,625,645,665,684,705,725,744,764,784,804,824,846,866,885,904,924,944,965,984,1004,1025,1045,1065,1085,1104],"xSR":741.5,"ySR":469.95,"xT1":424.9,"yT1":0,"xT2":1058.1,"yT2":0,"toosoon":0,"cond_shown":"equaldotanddens","ratio_trial":750,"smaller_num":"3","larger_num":"4","correct_side":2,"subjID":"keisi Sofia Sanchez Perdomo","gender":"1","age":"8","school":"4"},{"start_time":1552314020172,"click_time":1552314021255,"finger_time":1552314020914,"fix_duration":1356.400556914381,"trial":34,"RT":742,"MT":341,"sideResp":1,"stimulus":"img/900/equaldotsize/L/4_Ratio_900_L_20_R_18.png","xmouse":[768,768,768,768,768,762,760,760,760,760,760,760,760,759,759,759,759,759,759,759,759,759,759,759,759,759,759,759,759,759,759,760,762,766,768,768,768,757,749,736,722,689,649,637,629,620,612,601,595,588,582,568,542,529,514],"ymouse":[554,554,554,554,554,554,554,554,554,554,554,554,554,553,553,553,553,553,553,553,553,553,553,553,553,553,553,553,553,551,549,545,535,522,509,498,484,450,431,407,379,307,238,214,193,175,159,137,126,117,107,92,73,64,54],"timestamp_mouse":[13,22,42,63,83,103,122,142,163,182,202,222,244,262,282,302,322,343,363,383,403,423,442,463,482,502,522,543,562,582,602,622,642,663,682,703,722,742,762,782,802,823,842,863,883,903,922,942,962,983,1002,1022,1042,1063,1083],"xSR":741.5,"ySR":469.95,"xT1":424.9,"yT1":0,"xT2":1058.1,"yT2":0,"toosoon":0,"cond_shown":"equaldotsize","ratio_trial":900,"smaller_num":"18","larger_num":"20","correct_side":1,"subjID":"keisi Sofia Sanchez Perdomo","gender":"1","age":"8","school":"4"},{"start_time":1552314023526,"click_time":1552314024656,"finger_time":1552314024314,"fix_duration":1110.5032983883943,"trial":35,"RT":788,"MT":342,"sideResp":1,"stimulus":"img/750/randomdotsizeEA/L/13_Ratio_750_L_8_R_6.png","xmouse":[799,799,799,799,799,799,799,799,799,799,799,799,799,799,799,799,799,799,799,799,799,799,799,799,799,799,799,799,799,799,799,799,799,799,799,799,799,796,793,780,767,753,741,727,717,714,710,706,700,683,668,652,628,589,524,490,459],"ymouse":[536,536,536,536,536,536,536,536,536,536,536,536,536,536,536,536,536,536,536,536,536,536,536,536,536,536,536,536,536,536,536,536,536,536,536,536,536,522,509,448,395,353,321,288,268,260,252,245,236,215,201,189,177,160,131,114,95],"timestamp_mouse":[9,41,49,68,89,109,128,149,168,190,209,228,249,269,288,309,329,348,369,389,410,429,449,468,488,510,529,548,568,588,609,629,650,669,688,708,728,749,768,788,809,830,849,868,888,910,930,949,970,988,1008,1028,1049,1068,1089,1109,1130],"xSR":741.5,"ySR":469.95,"xT1":424.9,"yT1":0,"xT2":1058.1,"yT2":0,"toosoon":0,"cond_shown":"randomdotsizeEA","ratio_trial":750,"smaller_num":"6","larger_num":"8","correct_side":1,"subjID":"keisi Sofia Sanchez Perdomo","gender":"1","age":"8","school":"4"},{"start_time":1552314026744,"click_time":1552314028094,"finger_time":1552314027475,"fix_duration":1026.0720778458422,"trial":36,"RT":731,"MT":619,"sideResp":2,"stimulus":"img/750/equaldotanddens/R/2_Ratio_750_L_6_R_8.png","xmouse":[804,804,804,804,804,804,804,804,804,804,804,804,804,804,804,804,804,804,804,804,804,804,805,807,807,807,807,807,807,807,807,807,807,812,821,834,848,865,899,922,963,979,1036,1105,1127,1139,1144,1147,1154,1158,1161,1168,1172,1173,1173,1173,1173,1173,1173,1173,1173,1173,1173,1173,1173,1167,1159,1153],"ymouse":[526,526,526,526,526,526,526,526,526,526,526,526,526,526,526,526,526,526,526,526,526,526,526,526,526,526,526,526,526,526,526,526,526,526,522,517,511,504,477,455,393,360,263,185,168,159,151,143,119,105,96,81,72,60,58,57,55,55,55,55,55,55,55,55,55,52,50,49],"timestamp_mouse":[15,47,50,70,90,110,131,151,172,190,210,231,250,271,290,311,331,350,370,390,411,431,451,470,490,510,531,551,570,590,611,632,651,670,691,710,731,751,770,791,811,831,851,870,890,911,931,950,970,991,1011,1030,1050,1071,1092,1112,1130,1150,1171,1190,1210,1231,1250,1271,1290,1310,1331,1350],"xSR":741.5,"ySR":469.95,"xT1":424.9,"yT1":0,"xT2":1058.1,"yT2":0,"toosoon":0,"cond_shown":"equaldotanddens","ratio_trial":750,"smaller_num":"6","larger_num":"8","correct_side":2,"subjID":"keisi Sofia Sanchez Perdomo","gender":"1","age":"8","school":"4"},{"start_time":1552314032470,"click_time":1552314034015,"finger_time":1552314033255,"fix_duration":253.25528292272205,"trial":37,"RT":785,"MT":760,"sideResp":2,"stimulus":"img/250/equaldotsize/R/11_Ratio_250_L_3_R_12.png","xmouse":[795,795,795,795,795,795,795,795,795,795,795,795,795,795,795,795,795,794,794,794,794,794,794,794,794,794,794,794,794,794,794,796,802,805,806,808,811,828,838,845,850,857,872,881,885,888,892,901,907,913,918,925,944,954,966,981,993,1017,1026,1035,1040,1044,1046,1046,1046,1046,1046,1046,1046,1048,1049,1049,1050,1052,1054,1055,1056,1061],"ymouse":[524,524,524,524,524,524,524,524,524,524,524,524,524,524,524,524,524,525,525,525,525,525,525,525,525,525,525,525,525,525,525,525,522,521,520,518,516,509,504,500,495,488,471,463,460,456,451,433,420,408,396,384,356,342,326,304,286,254,238,224,210,198,176,167,158,151,140,126,119,115,113,112,110,108,105,104,103,99],"timestamp_mouse":[9,25,46,65,84,104,125,144,165,185,204,225,244,264,284,304,324,344,365,384,405,424,445,464,485,506,524,544,564,584,604,624,644,664,684,704,724,744,765,785,804,825,845,864,885,904,924,945,965,984,1005,1024,1045,1064,1085,1106,1125,1145,1165,1184,1205,1224,1244,1264,1285,1305,1324,1345,1365,1385,1405,1425,1444,1464,1484,1505,1524,1544],"xSR":741.5,"ySR":469.95,"xT1":424.9,"yT1":0,"xT2":1058.1,"yT2":0,"toosoon":0,"cond_shown":"equaldotsize","ratio_trial":250,"smaller_num":"3","larger_num":"12","correct_side":2,"subjID":"keisi Sofia Sanchez Perdomo","gender":"1","age":"8","school":"4"},{"start_time":1552314036870,"click_time":1552314037815,"finger_time":1552314037534,"fix_duration":1215.6476878266808,"trial":38,"RT":664,"MT":281,"sideResp":2,"stimulus":"img/500/equaldotsize/R/9_Ratio_500_L_2_R_4.png","xmouse":[830,830,830,830,830,830,830,829,829,829,829,827,824,822,822,822,822,822,822,821,821,821,821,821,822,823,823,824,824,824,825,826,834,842,849,856,863,883,895,914,933,946,971,984,999,1025,1050,1093],"ymouse":[535,535,535,535,535,535,535,535,535,535,535,535,535,535,535,535,535,535,535,535,533,533,531,531,530,529,529,527,526,526,525,523,502,474,458,446,439,398,366,334,302,283,243,209,174,127,82,10],"timestamp_mouse":[10,24,47,64,84,104,124,144,164,185,204,224,244,265,284,305,324,344,365,385,406,424,444,465,485,505,524,544,565,585,604,624,645,664,685,704,724,745,764,784,804,824,845,865,885,904,924,945],"xSR":741.5,"ySR":469.95,"xT1":424.9,"yT1":0,"xT2":1058.1,"yT2":0,"toosoon":0,"cond_shown":"equaldotsize","ratio_trial":500,"smaller_num":"2","larger_num":"4","correct_side":2,"subjID":"keisi Sofia Sanchez Perdomo","gender":"1","age":"8","school":"4"},{"start_time":1552314043662,"click_time":1552314044654,"finger_time":1552314044314,"fix_duration":926.5179626827528,"trial":39,"RT":652,"MT":340,"sideResp":2,"stimulus":"img/900/equaldotsize/R/15_Ratio_900_L_9_R_10.png","xmouse":[790,790,790,790,790,790,790,790,790,790,790,790,790,790,790,790,790,790,790,790,790,790,790,790,790,790,791,793,801,807,820,832,857,876,900,929,962,1003,1009,1012,1014,1015,1018,1019,1023,1026,1029,1044,1056,1068],"ymouse":[520,520,520,520,520,520,520,520,520,520,520,520,520,520,520,520,520,520,520,520,520,520,520,520,520,520,519,519,515,511,505,500,482,463,437,404,359,301,291,286,275,264,238,216,197,182,175,138,119,99],"timestamp_mouse":[13,43,53,72,93,112,132,153,174,193,212,233,253,272,294,313,332,353,373,394,413,432,453,472,492,513,533,554,573,593,612,632,652,672,692,712,732,753,772,793,813,833,852,872,892,913,934,953,973,992],"xSR":741.5,"ySR":469.95,"xT1":424.9,"yT1":0,"xT2":1058.1,"yT2":0,"toosoon":0,"cond_shown":"equaldotsize","ratio_trial":900,"smaller_num":"9","larger_num":"10","correct_side":2,"subjID":"keisi Sofia Sanchez Perdomo","gender":"1","age":"8","school":"4"},{"start_time":1552314046781,"click_time":1552314048075,"finger_time":1552314047614,"fix_duration":1224.0176341144904,"trial":40,"RT":833,"MT":461,"sideResp":1,"stimulus":"img/750/equaldotanddens/L/14_Ratio_750_L_8_R_6.png","xmouse":[812,812,812,812,812,812,812,812,812,812,812,812,812,812,812,812,812,812,812,812,812,812,812,812,812,812,812,812,812,812,812,812,812,812,812,812,812,812,809,800,789,748,720,691,669,657,653,653,654,654,654,640,624,606,585,566,541,531,523,520,518,513,512,509,506],"ymouse":[501,501,501,501,501,501,501,501,501,501,501,501,501,501,501,501,501,501,501,501,501,501,501,501,501,502,502,502,502,502,502,502,502,502,502,502,502,502,500,490,476,439,393,345,308,286,258,252,249,247,244,209,193,180,167,158,143,138,132,126,119,108,105,100,96],"timestamp_mouse":[15,38,54,74,94,113,134,153,174,193,213,233,254,273,294,314,333,354,373,393,414,433,454,474,493,514,533,554,573,594,613,633,653,675,694,713,734,753,774,793,813,833,855,873,893,915,933,953,974,993,1014,1033,1054,1074,1093,1115,1133,1153,1174,1194,1213,1233,1253,1274,1293],"xSR":741.5,"ySR":469.95,"xT1":424.9,"yT1":0,"xT2":1058.1,"yT2":0,"toosoon":0,"cond_shown":"equaldotanddens","ratio_trial":750,"smaller_num":"6","larger_num":"8","correct_side":1,"subjID":"keisi Sofia Sanchez Perdomo","gender":"1","age":"8","school":"4"},{"start_time":1552314049685,"click_time":1552314051115,"finger_time":1552314050735,"fix_duration":569.7006918400355,"trial":41,"RT":1050,"MT":380,"sideResp":2,"stimulus":"img/750/randomdotsizeEA/L/10_Ratio_750_L_4_R_3.png","xmouse":[771,771,771,771,771,771,771,771,771,771,771,771,771,771,770,769,769,769,769,769,769,769,768,768,768,768,768,769,769,769,769,769,769,769,769,769,769,769,769,769,770,770,770,770,770,770,770,770,770,770,772,778,785,798,833,850,955,981,992,995,995,995,996,999,1003,1008,1017,1021,1027,1038,1051,1084],"ymouse":[501,501,501,501,501,501,501,501,501,501,501,501,501,501,499,498,498,498,498,498,498,498,497,495,495,495,493,492,492,492,492,492,492,492,492,492,492,492,492,492,491,491,491,490,490,490,490,490,490,489,487,477,467,457,443,436,397,373,351,345,341,306,273,248,233,207,175,157,139,122,103,70],"timestamp_mouse":[22,30,50,69,89,109,131,150,169,190,209,229,250,270,289,310,329,350,369,389,409,429,451,469,490,510,529,550,570,590,610,629,650,669,691,710,729,749,769,790,810,829,849,869,889,909,929,949,969,990,1009,1030,1050,1069,1089,1109,1130,1150,1169,1190,1209,1229,1250,1270,1290,1309,1330,1349,1369,1390,1409,1430],"xSR":741.5,"ySR":469.95,"xT1":424.9,"yT1":0,"xT2":1058.1,"yT2":0,"toosoon":0,"cond_shown":"randomdotsizeEA","ratio_trial":750,"smaller_num":"3","larger_num":"4","correct_side":1,"subjID":"keisi Sofia Sanchez Perdomo","gender":"1","age":"8","school":"4"},{"start_time":1552314054350,"click_time":1552314056115,"finger_time":1552314055234,"fix_duration":313.6334855588938,"trial":42,"RT":884,"MT":881,"sideResp":2,"stimulus":"img/750/equaldotanddens/R/3_Ratio_750_L_15_R_20.png","xmouse":[769,786,798,820,821,821,821,821,821,821,821,821,821,821,821,821,821,821,821,821,821,821,821,821,821,821,821,821,821,821,821,821,821,821,821,821,821,821,821,821,821,821,822,833,864,897,931,950,972,975,976,979,983,997,1005,1014,1020,1023,1026,1026,1027,1028,1031,1039,1040,1043,1049,1055,1066,1071,1075,1079,1082,1090,1095,1101,1104,1107,1110,1111,1111,1111,1113,1114,1114,1115,1116,1119,1121],"ymouse":[526,524,522,521,521,521,521,521,521,521,521,521,521,521,521,521,521,521,521,521,521,521,521,521,521,521,521,521,521,521,521,521,521,521,521,521,521,521,521,521,521,521,520,512,486,458,430,414,392,386,375,352,329,290,276,265,259,254,246,245,244,242,232,206,203,199,195,190,180,175,170,165,161,152,147,140,135,132,128,126,126,124,119,114,111,108,104,100,94],"timestamp_mouse":[4,26,48,64,84,105,124,145,164,184,204,225,244,264,285,304,324,345,364,385,404,424,445,466,485,504,525,544,564,585,605,625,644,664,684,704,726,744,764,784,804,826,845,864,884,905,924,945,964,984,1005,1024,1045,1065,1085,1105,1124,1144,1164,1186,1205,1226,1246,1265,1285,1304,1325,1346,1364,1384,1405,1425,1444,1465,1485,1505,1524,1544,1565,1585,1605,1624,1645,1664,1685,1705,1725,1745,1765],"xSR":741.5,"ySR":469.95,"xT1":424.9,"yT1":0,"xT2":1058.1,"yT2":0,"toosoon":0,"cond_shown":"equaldotanddens","ratio_trial":750,"smaller_num":"15","larger_num":"20","correct_side":2,"subjID":"keisi Sofia Sanchez Perdomo","gender":"1","age":"8","school":"4"},{"start_time":1552314057545,"click_time":1552314058474,"finger_time":1552314058334,"fix_duration":428.6269665344852,"trial":43,"RT":789,"MT":140,"sideResp":1,"stimulus":"img/900/equaldotsize/L/1_Ratio_900_L_10_R_9.png","xmouse":[766,766,766,766,766,766,766,766,766,766,766,766,766,766,766,766,766,766,766,766,766,766,766,766,766,766,766,766,766,766,766,766,766,766,766,766,766,766,765,765,756,741,696,601,558,526,507],"ymouse":[502,502,502,502,502,502,502,502,502,502,502,502,502,502,502,502,502,502,502,502,502,502,502,502,502,502,502,502,502,502,502,502,502,502,502,502,502,502,498,469,441,396,305,183,139,109,91],"timestamp_mouse":[13,29,49,69,89,109,129,149,169,190,209,230,249,270,289,311,330,349,369,389,409,430,451,469,490,509,531,549,569,590,609,629,649,669,689,710,729,749,770,789,810,830,850,869,890,909,929],"xSR":741.5,"ySR":469.95,"xT1":424.9,"yT1":0,"xT2":1058.1,"yT2":0,"toosoon":0,"cond_shown":"equaldotsize","ratio_trial":900,"smaller_num":"9","larger_num":"10","correct_side":1,"subjID":"keisi Sofia Sanchez Perdomo","gender":"1","age":"8","school":"4"},{"start_time":1552314060086,"click_time":1552314061175,"finger_time":1552314060814,"fix_duration":609.5708156878909,"trial":44,"RT":728,"MT":361,"sideResp":1,"stimulus":"img/900/randomdotsizeEA/R/5_Ratio_900_L_9_R_10.png","xmouse":[796,796,796,796,796,796,796,796,796,796,796,796,796,796,796,796,796,795,795,795,795,795,796,797,797,798,799,799,799,799,799,799,798,797,793,782,760,742,717,687,661,624,617,616,614,613,608,602,591,582,574,556,545,535,518],"ymouse":[500,500,500,500,500,500,500,500,500,500,500,500,500,500,500,500,500,500,499,497,495,494,492,492,492,492,492,492,492,492,492,492,491,491,489,480,447,415,370,317,274,222,212,205,195,189,177,165,153,142,134,112,100,88,76],"timestamp_mouse":[13,41,49,68,88,109,128,149,169,188,210,229,248,268,288,308,328,349,368,389,409,428,449,468,490,509,529,549,568,588,610,629,650,669,689,709,728,749,768,789,808,828,849,869,889,909,928,949,968,989,1009,1029,1048,1069,1089],"xSR":741.5,"ySR":469.95,"xT1":424.9,"yT1":0,"xT2":1058.1,"yT2":0,"toosoon":0,"cond_shown":"randomdotsizeEA","ratio_trial":900,"smaller_num":"9","larger_num":"10","correct_side":2,"subjID":"keisi Sofia Sanchez Perdomo","gender":"1","age":"8","school":"4"},{"start_time":1552314063032,"click_time":1552314063934,"finger_time":1552314063434,"fix_duration":996.450044540162,"trial":45,"RT":402,"MT":500,"sideResp":2,"stimulus":"img/900/equaldotanddens/R/3_Ratio_900_L_9_R_10.png","xmouse":[793,793,793,793,793,793,793,793,793,793,793,793,793,793,793,793,793,793,793,827,849,868,888,905,937,950,963,976,998,1025,1032,1039,1044,1049,1053,1053,1053,1052,1051,1057,1058,1059,1060,1062,1072,1081],"ymouse":[503,503,503,503,503,503,503,503,503,503,503,503,503,503,503,503,503,503,503,483,474,468,463,457,436,421,403,384,355,315,298,281,264,247,222,212,189,181,160,143,139,136,133,127,101,88],"timestamp_mouse":[9,23,43,62,83,102,124,143,163,183,204,223,243,262,283,302,323,342,362,383,402,423,442,464,482,502,523,544,563,583,603,623,643,663,682,703,723,743,762,782,803,823,843,863,882,902],"xSR":741.5,"ySR":469.95,"xT1":424.9,"yT1":0,"xT2":1058.1,"yT2":0,"toosoon":0,"cond_shown":"equaldotanddens","ratio_trial":900,"smaller_num":"9","larger_num":"10","correct_side":2,"subjID":"keisi Sofia Sanchez Perdomo","gender":"1","age":"8","school":"4"},{"start_time":1552314065736,"click_time":1552314066515,"finger_time":1552314066156,"fix_duration":579.5099666874888,"trial":46,"RT":420,"MT":359,"sideResp":1,"stimulus":"img/250/equaldotsize/R/6_Ratio_250_L_6_R_24.png","xmouse":[809,809,809,809,809,809,809,809,809,809,809,809,809,809,809,809,809,811,818,818,815,797,743,688,564,509,471,443,420,418,418,418,418,418,418,418,420,424,442],"ymouse":[531,531,531,531,531,531,531,531,531,531,531,531,531,531,531,531,531,528,502,483,459,425,352,299,205,166,139,116,86,83,81,81,80,80,79,77,76,75,75],"timestamp_mouse":[18,46,58,79,99,119,139,159,180,199,218,239,258,279,298,319,339,359,378,399,420,439,459,478,499,519,539,558,578,598,620,638,659,678,698,719,738,758,779],"xSR":741.5,"ySR":469.95,"xT1":424.9,"yT1":0,"xT2":1058.1,"yT2":0,"toosoon":0,"cond_shown":"equaldotsize","ratio_trial":250,"smaller_num":"6","larger_num":"24","correct_side":2,"subjID":"keisi Sofia Sanchez Perdomo","gender":"1","age":"8","school":"4"},{"start_time":1552314070040,"click_time":1552314071255,"finger_time":1552314070775,"fix_duration":984.6461548057155,"trial":47,"RT":735,"MT":480,"sideResp":1,"stimulus":"img/500/equaldotsize/L/4_Ratio_500_L_18_R_9.png","xmouse":[797,797,797,797,797,797,797,797,797,797,797,797,797,797,797,797,797,797,797,797,797,797,797,797,797,797,797,797,797,797,797,797,797,797,797,797,797,795,749,709,656,601,553,520,520,520,520,520,520,520,520,520,520,520,520,520,520,520,520,520,476],"ymouse":[494,494,494,494,494,494,494,494,494,494,494,494,494,494,494,494,494,494,494,494,494,494,494,494,494,494,494,494,494,494,494,494,494,494,484,473,448,365,245,185,124,68,28,0,0,0,0,0,0,0,0,0,0,0,0,0,0,0,0,0,10],"timestamp_mouse":[14,43,55,75,95,114,134,156,176,195,215,236,256,275,295,314,334,355,376,396,415,434,455,475,495,514,534,554,574,594,614,635,654,674,694,715,735,755,774,795,816,835,855,875,895,915,934,954,974,994,1015,1034,1055,1075,1095,1115,1135,1154,1174,1195,1215],"xSR":741.5,"ySR":469.95,"xT1":424.9,"yT1":0,"xT2":1058.1,"yT2":0,"toosoon":0,"cond_shown":"equaldotsize","ratio_trial":500,"smaller_num":"9","larger_num":"18","correct_side":1,"subjID":"keisi Sofia Sanchez Perdomo","gender":"1","age":"8","school":"4"},{"start_time":1552314074120,"click_time":1552314075974,"finger_time":1552314075095,"fix_duration":622.6583558761217,"trial":48,"RT":975,"MT":879,"sideResp":2,"stimulus":"img/250/randomdotsizeEA/R/12_Ratio_250_L_5_R_20.png","xmouse":[803,803,803,803,803,803,803,803,803,803,803,803,803,803,803,803,803,803,803,803,803,803,803,803,803,803,803,803,803,803,803,803,803,803,803,803,803,803,803,803,803,804,807,810,818,823,830,840,853,885,902,917,941,960,1007,1029,1048,1063,1078,1097,1103,1112,1115,1119,1127,1129,1130,1132,1134,1138,1140,1141,1145,1148,1151,1152,1153,1154,1154,1154,1154,1154,1154,1154,1154,1154,1154,1154,1154,1153,1152,1151,1151],"ymouse":[511,511,511,511,511,511,511,511,511,511,511,511,511,511,511,511,511,511,511,511,511,511,511,511,511,511,511,511,511,511,511,511,511,511,511,511,511,511,511,511,511,511,510,510,506,504,501,497,491,478,470,463,448,436,404,385,365,343,323,286,274,256,250,241,221,216,212,209,205,197,193,189,181,175,161,158,155,153,152,148,147,146,143,141,136,131,126,124,119,109,104,100,97],"timestamp_mouse":[15,49,55,75,94,114,135,156,175,195,214,234,254,275,294,315,335,354,375,394,415,434,455,476,495,515,535,555,575,595,615,635,654,675,694,714,735,755,774,794,814,835,854,874,895,915,934,955,975,995,1014,1035,1054,1075,1094,1115,1134,1154,1175,1194,1214,1234,1255,1275,1295,1315,1335,1355,1374,1394,1414,1434,1455,1475,1495,1514,1534,1555,1574,1595,1614,1635,1654,1674,1695,1715,1735,1755,1775,1794,1815,1834,1854],"xSR":741.5,"ySR":469.95,"xT1":424.9,"yT1":0,"xT2":1058.1,"yT2":0,"toosoon":0,"cond_shown":"randomdotsizeEA","ratio_trial":250,"smaller_num":"5","larger_num":"20","correct_side":2,"subjID":"keisi Sofia Sanchez Perdomo","gender":"1","age":"8","school":"4"},{"start_time":1552314077366,"click_time":1552314079213,"finger_time":1552314078254,"fix_duration":250,"trial":49,"RT":888,"MT":959,"sideResp":1,"stimulus":"img/250/randomdotsizeEA/L/14_Ratio_250_L_12_R_3.png","xmouse":[772,772,772,772,772,772,772,772,772,772,772,772,772,772,772,772,772,772,772,772,772,772,772,772,772,772,772,772,772,772,772,772,772,772,772,772,772,772,772,772,772,772,768,757,742,725,713,700,699,696,692,689,686,686,685,684,682,669,661,650,638,619,594,581,566,556,547,534,533,533,532,531,530,530,528,526,523,514,502,496,481,471,469,468,468,468,468,468,468,468,468,468,467],"ymouse":[496,496,496,496,496,496,496,496,496,496,496,496,496,496,496,496,496,496,496,496,496,496,496,496,496,496,496,496,496,496,496,496,496,496,496,496,496,496,496,496,496,496,496,482,463,441,421,372,341,320,306,299,295,293,291,288,285,272,264,255,248,235,218,209,198,192,185,173,170,167,164,162,158,157,153,151,148,141,134,131,123,115,111,108,108,107,107,105,104,103,102,100,99],"timestamp_mouse":[9,35,48,67,87,109,128,149,168,188,207,229,249,268,289,308,329,347,368,389,409,427,448,468,488,509,528,548,567,588,608,629,648,668,688,708,729,749,767,788,807,829,848,868,888,908,927,947,969,989,1007,1027,1048,1068,1088,1108,1129,1147,1167,1188,1208,1228,1248,1269,1288,1308,1328,1347,1367,1389,1409,1428,1447,1468,1488,1508,1527,1547,1568,1588,1608,1629,1649,1667,1687,1708,1728,1747,1767,1787,1807,1828,1847],"xSR":741.5,"ySR":469.95,"xT1":424.9,"yT1":0,"xT2":1058.1,"yT2":0,"toosoon":0,"cond_shown":"randomdotsizeEA","ratio_trial":250,"smaller_num":"3","larger_num":"12","correct_side":1,"subjID":"keisi Sofia Sanchez Perdomo","gender":"1","age":"8","school":"4"},{"start_time":1552314081011,"click_time":1552314082713,"finger_time":1552314082053,"fix_duration":275.425912879715,"trial":50,"RT":1042,"MT":660,"sideResp":1,"stimulus":"img/500/equaldotanddens/L/5_Ratio_500_L_4_R_2.png","xmouse":[808,808,808,808,808,808,808,808,808,808,808,808,808,808,808,808,807,807,807,807,807,807,807,807,807,807,807,807,807,807,807,807,807,807,807,807,807,807,807,807,807,807,807,807,807,807,805,802,797,792,779,770,756,746,732,721,719,716,715,712,710,710,709,707,705,705,705,703,703,701,696,693,690,686,679,664,654,645,633,622,597,583,563,542,522,483],"ymouse":[556,555,555,555,555,555,555,555,555,555,554,553,553,552,550,545,543,543,543,543,542,541,541,541,541,541,541,541,541,541,541,541,541,541,541,541,541,541,541,541,541,541,541,541,540,537,531,524,513,503,482,470,454,438,419,404,400,395,393,387,380,380,378,374,372,371,368,365,364,360,352,347,344,340,333,317,308,300,284,271,242,225,201,173,145,98],"timestamp_mouse":[10,22,59,63,84,104,124,144,164,182,204,223,243,263,284,304,323,342,364,383,404,423,444,463,484,503,522,544,562,582,603,624,644,664,682,703,724,742,762,782,804,824,843,864,883,903,923,944,963,983,1002,1023,1042,1064,1084,1103,1123,1143,1162,1184,1203,1223,1243,1264,1284,1303,1322,1342,1363,1383,1403,1423,1443,1464,1484,1503,1523,1543,1563,1583,1603,1624,1643,1663,1683,1702],"xSR":741.5,"ySR":469.95,"xT1":424.9,"yT1":0,"xT2":1058.1,"yT2":0,"toosoon":0,"cond_shown":"equaldotanddens","ratio_trial":500,"smaller_num":"2","larger_num":"4","correct_side":1,"subjID":"keisi Sofia Sanchez Perdomo","gender":"1","age":"8","school":"4"},{"start_time":1552314084471,"click_time":1552314086374,"finger_time":1552314085274,"fix_duration":535.6983681171312,"trial":51,"RT":803,"MT":1100,"sideResp":1,"stimulus":"img/250/equaldotanddens/L/1_Ratio_250_L_8_R_2.png","xmouse":[818,818,818,818,818,818,818,818,818,818,818,818,818,818,818,818,818,818,818,818,818,818,818,818,818,818,818,818,818,818,818,818,818,819,819,819,819,808,797,784,768,756,741,736,734,733,731,726,724,719,713,706,692,683,678,672,662,644,628,613,596,582,565,561,556,553,551,547,545,544,544,544,543,542,540,538,535,532,531,531,531,533,534,534,534,534,534,534,534,534,532,531,529,527,525,521],"ymouse":[553,553,553,553,553,553,553,553,553,553,553,553,553,553,553,553,553,553,553,553,553,553,553,553,553,553,553,553,553,553,553,553,553,553,548,541,532,506,488,472,459,447,430,421,410,402,390,372,358,345,331,317,293,283,275,264,250,225,207,193,182,173,163,158,155,152,151,147,144,143,143,143,140,138,135,131,127,121,118,115,113,110,107,107,107,105,103,100,98,97,94,93,89,86,83,77],"timestamp_mouse":[10,23,42,63,82,103,124,143,163,184,204,223,242,264,284,302,323,343,363,384,403,423,444,463,482,504,523,542,563,584,602,622,642,663,683,703,723,743,763,783,803,824,842,862,883,904,923,943,963,982,1004,1022,1042,1062,1083,1104,1123,1143,1163,1183,1203,1223,1243,1262,1283,1304,1323,1343,1363,1384,1403,1424,1442,1463,1483,1503,1523,1543,1563,1583,1603,1622,1642,1663,1683,1703,1723,1743,1763,1783,1802,1822,1842,1863,1884,1903],"xSR":741.5,"ySR":469.95,"xT1":424.9,"yT1":0,"xT2":1058.1,"yT2":0,"toosoon":0,"cond_shown":"equaldotanddens","ratio_trial":250,"smaller_num":"2","larger_num":"8","correct_side":1,"subjID":"keisi Sofia Sanchez Perdomo","gender":"1","age":"8","school":"4"},{"start_time":1552314088691,"click_time":1552314090435,"finger_time":1552314089913,"fix_duration":874.9574804091101,"trial":52,"RT":1222,"MT":522,"sideResp":1,"stimulus":"img/750/equaldotanddens/L/13_Ratio_750_L_8_R_6.png","xmouse":[771,771,771,771,771,771,771,771,771,771,771,771,771,771,771,771,771,771,771,771,771,771,771,771,771,771,771,771,771,771,771,773,776,778,779,781,783,785,785,785,785,785,785,785,786,786,787,788,789,789,789,791,792,792,792,792,792,791,789,786,781,762,753,742,731,713,694,688,684,679,672,655,642,628,604,589,569,566,565,562,558,541,530,518,505,499,487,485],"ymouse":[550,550,550,550,550,550,550,550,550,550,550,550,550,550,550,550,550,550,550,550,550,550,550,550,550,550,550,550,550,550,550,550,550,550,550,550,550,550,550,550,550,550,550,550,549,549,548,547,545,544,543,542,540,539,538,537,532,531,521,507,490,455,438,418,400,369,331,311,288,267,253,224,206,191,170,157,144,143,143,141,139,132,126,119,112,108,100,98],"timestamp_mouse":[9,23,43,63,83,102,124,144,163,184,203,223,243,263,282,302,323,342,363,382,403,424,444,463,483,504,524,543,563,582,602,623,643,663,683,702,723,743,762,784,803,824,842,862,883,902,922,943,962,982,1004,1023,1043,1063,1083,1103,1122,1143,1163,1184,1203,1222,1243,1263,1283,1302,1322,1343,1363,1384,1403,1422,1442,1463,1482,1504,1523,1543,1562,1583,1603,1622,1643,1663,1682,1703,1722,1744],"xSR":741.5,"ySR":469.95,"xT1":424.9,"yT1":0,"xT2":1058.1,"yT2":0,"toosoon":0,"cond_shown":"equaldotanddens","ratio_trial":750,"smaller_num":"6","larger_num":"8","correct_side":1,"subjID":"keisi Sofia Sanchez Perdomo","gender":"1","age":"8","school":"4"},{"start_time":1552314091919,"click_time":1552314093574,"finger_time":1552314092753,"fix_duration":284.0995776416031,"trial":53,"RT":834,"MT":821,"sideResp":2,"stimulus":"img/250/equaldotanddens/R/4_Ratio_250_L_3_R_12.png","xmouse":[781,781,782,782,782,782,783,783,783,783,784,785,786,787,788,788,788,788,788,790,790,790,790,790,790,790,790,790,790,790,790,790,790,790,790,790,792,794,798,812,824,852,864,905,966,996,1026,1059,1083,1126,1146,1161,1172,1180,1190,1194,1198,1200,1201,1206,1207,1209,1209,1209,1209,1209,1209,1207,1201,1178,1165,1150,1147,1141,1138,1137,1137,1137,1137,1137,1140,1142,1145],"ymouse":[541,541,541,541,541,541,541,541,541,541,541,540,539,537,537,537,535,535,535,534,534,534,534,534,534,534,534,534,534,534,534,534,534,534,534,534,532,531,530,526,521,507,500,478,455,445,437,427,417,399,394,389,383,375,362,354,346,339,329,306,296,281,277,266,256,250,246,242,233,210,198,179,173,159,146,140,136,131,125,113,108,104,99],"timestamp_mouse":[15,37,56,76,94,114,136,154,174,196,216,235,256,275,294,314,336,355,376,396,414,434,456,476,495,516,534,554,575,594,615,635,655,674,694,714,735,756,774,794,815,834,854,875,894,915,935,955,975,995,1015,1035,1056,1075,1095,1115,1136,1154,1176,1195,1215,1235,1256,1275,1295,1315,1335,1354,1376,1395,1414,1434,1454,1474,1494,1515,1535,1556,1576,1595,1614,1635,1655],"xSR":741.5,"ySR":469.95,"xT1":424.9,"yT1":0,"xT2":1058.1,"yT2":0,"toosoon":0,"cond_shown":"equaldotanddens","ratio_trial":250,"smaller_num":"3","larger_num":"12","correct_side":2,"subjID":"keisi Sofia Sanchez Perdomo","gender":"1","age":"8","school":"4"},{"start_time":1552314096049,"click_time":1552314097694,"finger_time":1552314097014,"fix_duration":812.7388690617639,"trial":54,"RT":965,"MT":680,"sideResp":2,"stimulus":"img/500/equaldotsize/R/15_Ratio_500_L_1_R_2.png","xmouse":[778,778,778,778,778,778,778,778,778,778,778,778,778,778,778,778,778,778,778,778,778,778,778,778,778,778,778,778,778,778,778,778,778,778,778,778,778,778,778,778,779,781,785,803,815,825,830,841,872,890,908,920,932,954,963,980,986,1003,1022,1029,1035,1040,1046,1057,1063,1068,1073,1077,1084,1086,1089,1092,1097,1103,1108,1113,1117,1123,1135,1140,1145,1149,1152],"ymouse":[558,558,558,558,558,558,558,558,558,558,558,558,558,558,558,558,558,558,558,558,558,558,558,558,558,558,558,558,558,558,558,558,558,558,558,558,558,558,558,558,558,558,556,550,545,542,540,535,523,515,508,501,495,480,473,460,454,438,413,402,389,377,364,338,325,312,298,284,266,260,253,245,236,218,207,196,185,168,142,126,115,102,88],"timestamp_mouse":[14,27,45,65,85,105,126,144,165,184,205,225,244,264,284,305,324,344,366,385,404,426,444,464,484,505,524,546,564,584,604,626,645,664,684,705,725,746,764,786,806,826,845,865,885,905,925,944,965,984,1005,1026,1045,1065,1086,1105,1124,1144,1164,1185,1206,1225,1246,1264,1285,1305,1325,1345,1365,1385,1406,1424,1446,1464,1485,1505,1525,1545,1564,1586,1605,1625,1645],"xSR":741.5,"ySR":469.95,"xT1":424.9,"yT1":0,"xT2":1058.1,"yT2":0,"toosoon":0,"cond_shown":"equaldotsize","ratio_trial":500,"smaller_num":"1","larger_num":"2","correct_side":2,"subjID":"keisi Sofia Sanchez Perdomo","gender":"1","age":"8","school":"4"},{"start_time":1552314099838,"click_time":1552314101894,"finger_time":1552314101013,"fix_duration":442.6411883390067,"trial":55,"RT":1175,"MT":881,"sideResp":1,"stimulus":"img/500/randomdotsizeEA/L/7_Ratio_500_L_10_R_5.png","xmouse":[761,761,761,761,761,761,761,761,761,761,761,761,761,761,761,761,761,761,761,761,761,761,761,761,761,761,761,761,761,761,761,761,761,761,761,761,761,761,761,761,761,761,761,761,761,761,761,761,761,761,761,761,761,761,761,761,761,760,731,696,657,621,595,581,581,581,581,581,581,581,581,581,581,581,579,575,575,574,570,568,568,568,568,568,568,568,568,568,568,568,568,568,568,568,568,568,568,568,563,553,541,530,518],"ymouse":[537,537,537,537,537,537,537,537,537,537,537,537,537,537,537,537,537,537,537,537,537,537,537,537,537,537,537,537,537,537,537,537,537,537,537,537,537,537,537,537,537,537,537,537,537,537,537,537,537,537,537,537,537,537,537,537,537,530,466,414,364,321,295,273,271,270,267,264,257,255,251,249,245,232,220,198,142,95,53,50,50,50,50,50,50,50,50,50,50,50,50,50,50,50,50,50,49,49,49,49,49,49,49],"timestamp_mouse":[16,37,57,75,96,117,136,156,177,196,217,236,257,275,296,316,337,357,377,396,415,437,456,477,496,516,536,556,576,595,617,637,655,675,696,716,736,757,775,795,817,836,856,876,895,917,936,956,976,996,1015,1037,1055,1076,1097,1116,1137,1156,1175,1196,1215,1236,1256,1275,1295,1315,1337,1356,1377,1396,1416,1435,1456,1475,1496,1516,1536,1557,1576,1596,1615,1636,1656,1675,1696,1715,1735,1756,1775,1795,1816,1836,1856,1877,1896,1915,1936,1956,1975,1996,2016,2036,2055],"xSR":741.5,"ySR":469.95,"xT1":424.9,"yT1":0,"xT2":1058.1,"yT2":0,"toosoon":0,"cond_shown":"randomdotsizeEA","ratio_trial":500,"smaller_num":"5","larger_num":"10","correct_side":1,"subjID":"keisi Sofia Sanchez Perdomo","gender":"1","age":"8","school":"4"},{"start_time":1552314103322,"click_time":1552314104713,"finger_time":1552314104294,"fix_duration":286.62674629464544,"trial":56,"RT":972,"MT":419,"sideResp":2,"stimulus":"img/900/equaldotanddens/L/1_Ratio_900_L_10_R_9.png","xmouse":[790,790,790,790,790,790,790,790,790,790,790,790,790,790,790,790,790,790,790,790,790,790,790,790,790,790,790,791,791,791,791,791,791,791,791,791,791,791,791,791,793,795,801,806,812,818,824,836,851,883,900,915,942,959,990,1003,1014,1028,1040,1061,1069,1076,1084,1088,1090,1093,1098,1112,1129,1146],"ymouse":[547,547,547,547,547,547,547,547,547,547,547,547,547,547,547,547,547,547,547,547,547,547,547,547,547,547,547,546,546,546,546,546,546,546,546,546,546,546,546,546,546,545,541,539,537,534,530,524,517,508,504,500,488,481,464,453,441,426,412,379,362,347,327,313,291,272,246,195,130,44],"timestamp_mouse":[17,43,51,73,92,113,132,152,171,192,212,233,253,271,292,312,332,351,372,393,412,433,453,473,492,512,531,552,572,592,613,632,653,671,692,711,733,751,771,791,813,832,854,872,892,912,932,953,972,991,1011,1032,1052,1073,1091,1112,1131,1151,1171,1191,1212,1232,1251,1271,1292,1311,1332,1351,1372,1391],"xSR":741.5,"ySR":469.95,"xT1":424.9,"yT1":0,"xT2":1058.1,"yT2":0,"toosoon":0,"cond_shown":"equaldotanddens","ratio_trial":900,"smaller_num":"9","larger_num":"10","correct_side":1,"subjID":"keisi Sofia Sanchez Perdomo","gender":"1","age":"8","school":"4"},{"start_time":1552314106522,"click_time":1552314108095,"finger_time":1552314107974,"fix_duration":626.2725714000679,"trial":57,"RT":1452,"MT":121,"sideResp":1,"stimulus":"img/750/equaldotsize/L/8_Ratio_750_L_4_R_3.png","xmouse":[767,767,767,767,767,767,767,767,767,767,767,767,767,767,767,767,767,767,767,767,767,767,767,767,767,767,767,767,767,767,767,767,767,767,767,767,767,767,767,767,767,767,767,767,767,767,767,767,767,767,767,767,767,767,767,767,767,767,767,767,767,767,767,767,767,767,767,767,767,767,764,758,741,699,620,574,545,526,514],"ymouse":[501,501,501,501,501,501,501,501,501,501,501,501,501,501,501,501,501,501,501,501,501,501,501,501,501,501,501,501,501,501,501,501,501,501,501,501,501,501,501,501,501,501,501,501,501,501,501,501,501,501,501,501,501,501,501,501,501,501,501,501,501,501,501,501,501,501,501,501,501,501,498,486,445,344,194,130,96,81,75],"timestamp_mouse":[12,37,51,71,91,113,133,152,172,192,212,232,252,272,291,311,332,352,373,393,413,432,453,472,491,511,533,553,571,591,613,631,653,671,692,712,732,753,773,791,812,832,852,872,893,912,933,953,972,992,1012,1032,1051,1071,1093,1112,1133,1151,1171,1192,1212,1231,1253,1272,1293,1312,1333,1351,1372,1393,1413,1432,1452,1472,1491,1512,1532,1552,1573],"xSR":741.5,"ySR":469.95,"xT1":424.9,"yT1":0,"xT2":1058.1,"yT2":0,"toosoon":0,"cond_shown":"equaldotsize","ratio_trial":750,"smaller_num":"3","larger_num":"4","correct_side":1,"subjID":"keisi Sofia Sanchez Perdomo","gender":"1","age":"8","school":"4"},{"start_time":1552314110527,"click_time":1552314112175,"finger_time":1552314111434,"fix_duration":250,"trial":58,"RT":907,"MT":741,"sideResp":1,"stimulus":"img/250/equaldotanddens/L/14_Ratio_250_L_12_R_3.png","xmouse":[821,821,821,821,821,821,821,821,821,821,821,821,821,821,821,821,821,821,821,821,821,821,821,821,821,821,821,821,821,821,821,821,821,821,821,821,821,820,820,819,818,814,803,796,770,757,742,728,715,699,693,691,689,682,673,667,659,654,650,642,639,638,636,635,631,627,621,616,609,600,594,589,584,576,562,557,552,548,544,539,534,531,524],"ymouse":[532,532,532,532,532,532,532,532,532,532,532,532,532,532,532,532,532,532,532,532,532,532,532,532,532,532,532,532,532,532,532,532,532,532,532,532,532,532,532,532,532,530,520,511,478,460,439,419,400,377,368,363,358,342,312,295,275,259,243,221,210,206,197,188,166,155,143,134,127,117,111,107,104,102,96,93,91,88,86,83,79,76,72],"timestamp_mouse":[9,32,47,66,87,106,126,147,166,188,207,226,248,266,286,306,327,347,367,387,406,427,447,466,487,507,528,548,567,587,607,626,646,667,687,708,728,746,766,786,806,828,847,866,886,907,927,947,967,986,1007,1028,1047,1067,1087,1107,1128,1148,1167,1187,1207,1227,1246,1267,1287,1306,1327,1347,1368,1387,1407,1427,1446,1467,1486,1507,1527,1548,1568,1587,1607,1627,1648],"xSR":741.5,"ySR":469.95,"xT1":424.9,"yT1":0,"xT2":1058.1,"yT2":0,"toosoon":0,"cond_shown":"equaldotanddens","ratio_trial":250,"smaller_num":"3","larger_num":"12","correct_side":1,"subjID":"keisi Sofia Sanchez Perdomo","gender":"1","age":"8","school":"4"},{"start_time":1552314114352,"click_time":1552314116914,"finger_time":1552314116133,"fix_duration":796.4499525487862,"trial":59,"RT":1781,"MT":781,"sideResp":2,"stimulus":"img/750/randomdotsizeEA/L/10_Ratio_750_L_4_R_3.png","xmouse":[806,806,806,806,806,806,806,806,806,806,806,806,806,806,806,806,806,806,806,806,806,806,806,806,806,806,806,806,806,806,806,806,806,806,806,806,806,806,806,806,806,806,806,806,806,806,806,806,806,806,806,806,806,806,806,806,806,806,806,806,806,806,806,806,806,806,806,806,806,806,806,806,806,806,806,806,806,806,806,806,806,806,806,806,806,806,806,808,827,843,867,905,927,957,968,979,989,997,1018,1026,1036,1044,1053,1062,1065,1069,1070,1071,1076,1083,1086,1086,1086,1087,1088,1088,1089,1090,1091,1091,1091,1091,1091,1091,1091,1091,1091,1091,1090],"ymouse":[535,535,535,535,535,535,535,535,535,535,535,535,535,535,535,535,535,535,535,535,535,535,535,535,535,535,535,535,535,535,535,535,535,535,535,535,535,535,535,535,535,535,535,535,535,535,535,535,535,535,535,535,535,535,535,535,535,535,535,535,535,535,535,535,535,535,535,535,535,535,535,535,535,535,535,535,535,535,535,535,535,535,535,535,535,535,535,535,531,527,520,508,501,490,485,480,476,470,456,448,440,431,416,391,380,366,355,342,290,246,198,185,175,164,158,155,150,145,130,125,120,118,116,114,112,110,106,101,93],"timestamp_mouse":[19,41,42,61,82,103,121,141,162,181,203,221,242,263,283,301,322,342,362,381,403,421,442,462,483,503,522,542,563,583,601,621,641,662,683,703,722,742,762,783,802,823,842,861,883,903,921,942,963,983,1002,1021,1042,1062,1083,1102,1123,1142,1161,1183,1202,1223,1243,1262,1282,1301,1321,1342,1362,1382,1401,1422,1442,1463,1483,1503,1521,1542,1562,1582,1601,1622,1642,1662,1683,1702,1722,1742,1761,1781,1802,1822,1842,1862,1882,1902,1922,1942,1961,1982,2001,2021,2041,2061,2082,2102,2121,2142,2161,2182,2202,2222,2242,2261,2282,2302,2322,2343,2361,2382,2402,2422,2442,2461,2482,2502,2522,2543,2562],"xSR":741.5,"ySR":469.95,"xT1":424.9,"yT1":0,"xT2":1058.1,"yT2":0,"toosoon":0,"cond_shown":"randomdotsizeEA","ratio_trial":750,"smaller_num":"3","larger_num":"4","correct_side":1,"subjID":"keisi Sofia Sanchez Perdomo","gender":"1","age":"8","school":"4"},{"start_time":1552314118746,"click_time":1552314121114,"finger_time":1552314119994,"fix_duration":250.32014448303175,"trial":60,"RT":1248,"MT":1120,"sideResp":1,"stimulus":"img/750/equaldotsize/R/5_Ratio_750_L_15_R_20.png","xmouse":[754,754,754,757,759,760,760,760,760,760,760,760,760,760,760,760,760,760,760,760,760,760,760,760,760,760,760,760,760,760,760,760,760,760,760,760,760,760,760,760,760,760,760,761,761,764,767,775,784,786,788,790,792,796,800,802,809,817,825,828,840,841,859,879,894,903,908,913,916,916,917,917,917,917,917,917,917,917,916,903,898,881,867,838,825,808,788,769,735,719,707,691,682,662,652,646,643,641,637,635,635,633,629,610,600,590,581,572,559,553,548,544,539,535,533,531,530,528,521],"ymouse":[531,531,531,531,531,531,531,531,531,531,531,531,531,531,531,531,531,531,531,531,531,531,531,531,531,531,531,531,531,531,531,531,531,531,531,531,531,531,531,531,531,531,531,531,531,531,531,529,527,527,525,525,524,523,522,522,519,517,517,515,512,511,500,487,479,471,464,454,437,431,427,425,422,422,422,422,422,419,406,377,365,333,307,260,240,221,199,181,155,143,136,129,127,116,112,110,109,109,108,108,107,107,107,102,101,99,97,95,91,90,89,89,88,87,86,84,82,80,72],"timestamp_mouse":[9,41,48,67,88,108,128,148,169,188,209,229,249,268,288,309,329,349,368,387,407,429,449,467,488,509,529,548,567,589,609,629,647,667,689,709,729,748,767,788,809,828,848,868,889,908,928,948,968,988,1008,1028,1047,1067,1088,1109,1127,1148,1168,1188,1208,1228,1248,1267,1288,1307,1328,1348,1367,1387,1408,1428,1448,1467,1488,1508,1527,1547,1568,1588,1607,1628,1648,1667,1687,1708,1728,1749,1767,1788,1808,1828,1848,1867,1887,1907,1928,1948,1968,1988,2008,2027,2047,2067,2087,2108,2128,2148,2168,2187,2208,2227,2247,2267,2288,2308,2328,2348,2368],"xSR":741.5,"ySR":469.95,"xT1":424.9,"yT1":0,"xT2":1058.1,"yT2":0,"toosoon":0,"cond_shown":"equaldotsize","ratio_trial":750,"smaller_num":"15","larger_num":"20","correct_side":2,"subjID":"k