[{"start_time":1552055545194,"click_time":1552055548015,"finger_time":1552055547374,"fix_duration":1356.2532776006124,"trial":0,"RT":2180,"MT":641,"sideResp":2,"stimulus":"img/500/equaldotsize/R/6_Ratio_500_L_9_R_18.png","xmouse":[768,768,768,768,768,768,768,768,768,768,768,768,768,768,768,768,768,768,768,768,768,768,768,768,768,768,768,768,768,768,768,768,768,768,768,768,768,768,768,768,768,768,768,768,768,768,768,768,768,768,768,768,768,768,768,768,768,768,768,768,768,768,768,768,768,768,768,768,768,768,768,768,768,768,768,768,768,768,768,768,768,768,768,768,768,768,768,768,768,768,768,768,768,768,768,768,768,772,777,809,815,817,817,817,817,818,821,826,835,861,871,882,891,900,917,923,931,938,943,960,973,986,999,1011,1040,1053,1067,1080,1092,1112,1120,1125,1130,1133,1136,1137,1138,1138,1140,1148,1151,1153],"ymouse":[541,541,541,541,541,541,541,541,541,541,541,541,541,541,541,541,541,541,541,541,541,541,541,541,541,541,541,541,541,541,541,541,541,541,541,541,541,541,541,541,541,541,541,541,541,541,541,541,541,541,541,541,541,541,541,541,541,541,541,541,541,541,541,541,541,541,541,541,541,541,541,541,541,541,541,541,541,541,541,541,541,541,541,541,541,541,541,541,541,541,541,541,541,541,541,541,541,540,537,524,522,521,521,521,521,521,521,518,513,501,495,491,485,480,470,465,459,453,449,428,415,399,383,363,320,305,289,272,258,233,222,213,203,192,172,165,158,149,141,114,102,96],"timestamp_mouse":[10,20,56,59,79,101,119,139,161,179,200,221,241,261,279,299,321,340,360,380,401,421,441,459,480,501,521,540,561,580,600,620,639,660,681,700,719,740,760,780,800,821,839,859,881,900,919,941,961,981,1001,1021,1040,1060,1080,1100,1120,1140,1161,1180,1199,1220,1239,1259,1279,1299,1319,1339,1359,1379,1399,1419,1441,1461,1480,1500,1520,1541,1560,1580,1599,1619,1639,1660,1680,1700,1721,1741,1761,1779,1799,1820,1841,1861,1881,1901,1921,1940,1960,1979,2000,2020,2040,2060,2080,2099,2120,2140,2160,2180,2200,2220,2240,2260,2280,2301,2320,2341,2361,2379,2400,2419,2439,2460,2479,2499,2520,2541,2561,2579,2599,2621,2640,2661,2679,2700,2720,2740,2760,2780,2799,2821],"xSR":741.5,"ySR":501.8,"xT1":424.9,"yT1":0,"xT2":1058.1,"yT2":0,"toosoon":0,"cond_shown":"equaldotsize","ratio_trial":500,"smaller_num":"9","larger_num":"18","correct_side":2,"subjID":"lauracamilagarciasanchez5","gender":"1","age":"9","school":"4","test":{"fix_dur":[250,1500],"timestim":300,"targets_dim":[100,100],"targets_relative_coord":[0.3,0.7],"size_stim":[880,420],"start_dim":[100,100],"size_start":[300,300],"size_fix":60,"samplingrate":20,"img_types":["equaldotsize","equaldotanddens","randomdotsizeEA"],"ratios":[250,500,750,900],"rep_conds":9,"nTrials":120,"trials_to_rest":500,"Trials_order":[27,33,3,15,109,105,32,107,8,43,88,56,91,100,74,97,83,53,2,29,12,61,119,52,54,0,95,21,48,103,79,116,63,101,44,22,87,28,102,92,65,30,94,118,71,39,46,40,41,67,42,113,19,66,5,34,115,35,37,45,23,16,58,117,86,62,26,1,98,38,20,50,36,51,47,18,81,11,69,68,57,25,72,96,104,7,14,89,114,60,76,6,99,13,90,108,82,49,17,64,106,84,112,80,111,9,110,78,4,73,24,93,55,77,59,75,85,31,70,10],"cond_shown":["equaldotsize","equaldotsize","equaldotsize","equaldotsize","equaldotanddens","equaldotsize","randomdotsizeEA","randomdotsizeEA","randomdotsizeEA","equaldotanddens","equaldotanddens","randomdotsizeEA","equaldotanddens","equaldotanddens","randomdotsizeEA","equaldotanddens","randomdotsizeEA","randomdotsizeEA","randomdotsizeEA","randomdotsizeEA","equaldotsize","equaldotanddens","randomdotsizeEA","equaldotanddens","equaldotsize","equaldotsize","randomdotsizeEA","equaldotsize","equaldotsize","equaldotanddens","equaldotanddens","randomdotsizeEA","equaldotsize","randomdotsizeEA","randomdotsizeEA","equaldotanddens","equaldotsize","equaldotanddens","equaldotsize","randomdotsizeEA","randomdotsizeEA","equaldotsize","equaldotanddens","equaldotanddens","randomdotsizeEA","equaldotsize","equaldotanddens","equaldotanddens","randomdotsizeEA","equaldotanddens","equaldotsize","randomdotsizeEA","equaldotanddens","equaldotsize","randomdotsizeEA","equaldotanddens","equaldotanddens","randomdotsizeEA","equaldotanddens","equaldotsize","randomdotsizeEA","equaldotanddens","equaldotanddens","equaldotsize","randomdotsizeEA","randomdotsizeEA","randomdotsizeEA","equaldotanddens","randomdotsizeEA","randomdotsizeEA","randomdotsizeEA","randomdotsizeEA","equaldotsize","equaldotsize","randomdotsizeEA","equaldotsize","equaldotsize","randomdotsizeEA","equaldotsize","randomdotsizeEA","equaldotsize","equaldotanddens","equaldotsize","equaldotsize","randomdotsizeEA","equaldotanddens","randomdotsizeEA","randomdotsizeEA","equaldotsize","equaldotsize","equaldotanddens","equaldotsize","equaldotsize","equaldotanddens","equaldotsize","equaldotsize","equaldotanddens","equaldotanddens","randomdotsizeEA","equaldotanddens","equaldotanddens","equaldotsize","equaldotanddens","randomdotsizeEA","equaldotsize","equaldotsize","randomdotsizeEA","equaldotsize","equaldotanddens","equaldotanddens","equaldotsize","equaldotsize","equaldotanddens","randomdotsizeEA","randomdotsizeEA","equaldotsize","equaldotanddens","equaldotanddens","equaldotanddens","equaldotanddens"],"ratio_trial":[500,900,500,500,250,900,750,900,750,750,500,750,750,500,250,250,900,500,250,500,250,250,900,500,750,250,900,900,250,750,750,750,500,500,750,900,500,500,750,750,500,750,900,900,900,500,900,500,500,750,750,500,750,750,500,900,750,900,250,900,900,500,900,900,250,250,250,250,250,250,750,250,250,500,900,750,900,900,900,750,900,250,250,250,750,750,250,500,750,250,500,750,500,250,750,250,900,250,500,500,900,250,500,750,500,900,250,750,500,250,250,900,750,500,900,500,250,750,900,900],"smaller_num":["9","9","5","6","2","9","15","18","9","3","1","3","12","9","1","2","18","2","3","2","3","4","9","1","15","3","18","18","6","3","3","15","10","10","3","9","5","1","15","6","4","12","18","9","9","9","9","2","1","15","18","6","15","3","5","9","15","9","3","18","18","1","18","18","2","2","4","1","3","6","6","1","5","4","18","18","9","9","18","3","9","6","3","6","6","6","5","1","6","6","5","6","9","6","15","4","9","3","1","10","9","3","5","3","2","9","4","6","9","1","2","18","9","10","18","5","6","15","18","18"],"larger_num":["18","10","10","12","8","10","20","20","12","4","2","4","16","18","4","8","20","4","12","4","12","16","10","2","20","12","20","20","24","4","4","20","20","20","4","10","10","2","20","8","8","16","20","10","10","18","10","4","2","20","24","12","20","4","10","10","20","10","12","20","20","2","20","20","8","8","16","4","12","24","8","4","20","8","20","24","10","10","20","4","10","24","12","24","8","8","20","2","8","24","10","8","18","24","20","16","10","12","2","20","10","12","10","4","4","10","16","8","18","4","8","20","12","20","20","10","24","20","20","20"],"correct_side":[2,1,1,1,1,2,2,1,2,1,2,2,2,2,2,1,1,1,2,1,2,1,1,2,2,1,2,2,2,1,1,2,2,2,1,1,1,2,2,1,1,2,2,1,1,2,2,1,2,2,1,1,2,1,2,2,1,2,2,2,1,2,2,2,1,1,1,2,2,2,1,2,2,1,1,1,1,2,2,2,2,2,1,1,1,2,2,2,1,2,1,1,2,2,2,1,1,1,2,2,2,2,2,2,1,1,2,2,2,2,1,1,2,2,1,1,2,2,1,2],"img_shown":["img/500/equaldotsize/R/6_Ratio_500_L_9_R_18.png","img/900/equaldotsize/L/1_Ratio_900_L_10_R_9.png","img/500/equaldotsize/L/7_Ratio_500_L_10_R_5.png","img/500/equaldotsize/L/11_Ratio_500_L_12_R_6.png","img/250/equaldotanddens/L/3_Ratio_250_L_8_R_2.png","img/900/equaldotsize/R/5_Ratio_900_L_9_R_10.png","img/750/randomdotsizeEA/R/5_Ratio_750_L_15_R_20.png","img/900/randomdotsizeEA/L/8_Ratio_900_L_20_R_18.png","img/750/randomdotsizeEA/R/15_Ratio_750_L_9_R_12.png","img/750/equaldotanddens/L/8_Ratio_750_L_4_R_3.png","img/500/equaldotanddens/R/15_Ratio_500_L_1_R_2.png","img/750/randomdotsizeEA/R/7_Ratio_750_L_3_R_4.png","img/750/equaldotanddens/R/11_Ratio_750_L_12_R_16.png","img/500/equaldotanddens/R/1_Ratio_500_L_9_R_18.png","img/250/randomdotsizeEA/R/8_Ratio_250_L_1_R_4.png","img/250/equaldotanddens/L/7_Ratio_250_L_8_R_2.png","img/900/randomdotsizeEA/L/2_Ratio_900_L_20_R_18.png","img/500/randomdotsizeEA/L/5_Ratio_500_L_4_R_2.png","img/250/randomdotsizeEA/R/4_Ratio_250_L_3_R_12.png","img/500/randomdotsizeEA/L/10_Ratio_500_L_4_R_2.png","img/250/equaldotsize/R/9_Ratio_250_L_3_R_12.png","img/250/equaldotanddens/L/2_Ratio_250_L_16_R_4.png","img/900/randomdotsizeEA/L/1_Ratio_900_L_10_R_9.png","img/500/equaldotanddens/R/12_Ratio_500_L_1_R_2.png","img/750/equaldotsize/R/5_Ratio_750_L_15_R_20.png","img/250/equaldotsize/L/14_Ratio_250_L_12_R_3.png","img/900/randomdotsizeEA/R/13_Ratio_900_L_18_R_20.png","img/900/equaldotsize/R/13_Ratio_900_L_18_R_20.png","img/250/equaldotsize/R/6_Ratio_250_L_6_R_24.png","img/750/equaldotanddens/L/8_Ratio_750_L_4_R_3.png","img/750/equaldotanddens/L/10_Ratio_750_L_4_R_3.png","img/750/randomdotsizeEA/R/4_Ratio_750_L_15_R_20.png","img/500/equaldotsize/R/3_Ratio_500_L_10_R_20.png","img/500/randomdotsizeEA/R/3_Ratio_500_L_10_R_20.png","img/750/randomdotsizeEA/L/9_Ratio_750_L_4_R_3.png","img/900/equaldotanddens/L/1_Ratio_900_L_10_R_9.png","img/500/equaldotsize/L/7_Ratio_500_L_10_R_5.png","img/500/equaldotanddens/R/12_Ratio_500_L_1_R_2.png","img/750/equaldotsize/R/5_Ratio_750_L_15_R_20.png","img/750/randomdotsizeEA/L/14_Ratio_750_L_8_R_6.png","img/500/randomdotsizeEA/L/8_Ratio_500_L_8_R_4.png","img/750/equaldotsize/R/11_Ratio_750_L_12_R_16.png","img/900/equaldotanddens/R/12_Ratio_900_L_18_R_20.png","img/900/equaldotanddens/L/1_Ratio_900_L_10_R_9.png","img/900/randomdotsizeEA/L/1_Ratio_900_L_10_R_9.png","img/500/equaldotsize/R/6_Ratio_500_L_9_R_18.png","img/900/equaldotanddens/R/3_Ratio_900_L_9_R_10.png","img/500/equaldotanddens/L/10_Ratio_500_L_4_R_2.png","img/500/randomdotsizeEA/R/12_Ratio_500_L_1_R_2.png","img/750/equaldotanddens/R/5_Ratio_750_L_15_R_20.png","img/750/equaldotsize/L/6_Ratio_750_L_24_R_18.png","img/500/randomdotsizeEA/L/11_Ratio_500_L_12_R_6.png","img/750/equaldotanddens/R/3_Ratio_750_L_15_R_20.png","img/750/equaldotsize/L/8_Ratio_750_L_4_R_3.png","img/500/randomdotsizeEA/R/14_Ratio_500_L_5_R_10.png","img/900/equaldotanddens/R/6_Ratio_900_L_9_R_10.png","img/750/equaldotanddens/L/1_Ratio_750_L_20_R_15.png","img/900/randomdotsizeEA/R/3_Ratio_900_L_9_R_10.png","img/250/equaldotanddens/R/11_Ratio_250_L_3_R_12.png","img/900/equaldotsize/R/9_Ratio_900_L_18_R_20.png","img/900/randomdotsizeEA/L/4_Ratio_900_L_20_R_18.png","img/500/equaldotanddens/R/12_Ratio_500_L_1_R_2.png","img/900/equaldotanddens/R/11_Ratio_900_L_18_R_20.png","img/900/equaldotsize/R/12_Ratio_900_L_18_R_20.png","img/250/randomdotsizeEA/L/7_Ratio_250_L_8_R_2.png","img/250/randomdotsizeEA/L/1_Ratio_250_L_8_R_2.png","img/250/randomdotsizeEA/L/2_Ratio_250_L_16_R_4.png","img/250/equaldotanddens/R/8_Ratio_250_L_1_R_4.png","img/250/randomdotsizeEA/R/11_Ratio_250_L_3_R_12.png","img/250/randomdotsizeEA/R/6_Ratio_250_L_6_R_24.png","img/750/randomdotsizeEA/L/14_Ratio_750_L_8_R_6.png","img/250/randomdotsizeEA/R/8_Ratio_250_L_1_R_4.png","img/250/equaldotsize/R/12_Ratio_250_L_5_R_20.png","img/500/equaldotsize/L/8_Ratio_500_L_8_R_4.png","img/900/randomdotsizeEA/L/2_Ratio_900_L_20_R_18.png","img/750/equaldotsize/L/6_Ratio_750_L_24_R_18.png","img/900/equaldotsize/L/1_Ratio_900_L_10_R_9.png","img/900/randomdotsizeEA/R/3_Ratio_900_L_9_R_10.png","img/900/equaldotsize/R/12_Ratio_900_L_18_R_20.png","img/750/randomdotsizeEA/R/12_Ratio_750_L_3_R_4.png","img/900/equaldotsize/R/7_Ratio_900_L_9_R_10.png","img/250/equaldotanddens/R/6_Ratio_250_L_6_R_24.png","img/250/equaldotsize/L/14_Ratio_250_L_12_R_3.png","img/250/equaldotsize/L/5_Ratio_250_L_24_R_6.png","img/750/randomdotsizeEA/L/14_Ratio_750_L_8_R_6.png","img/750/equaldotanddens/R/2_Ratio_750_L_6_R_8.png","img/250/randomdotsizeEA/R/12_Ratio_250_L_5_R_20.png","img/500/randomdotsizeEA/R/12_Ratio_500_L_1_R_2.png","img/750/equaldotsize/L/13_Ratio_750_L_8_R_6.png","img/250/equaldotsize/R/6_Ratio_250_L_6_R_24.png","img/500/equaldotanddens/L/7_Ratio_500_L_10_R_5.png","img/750/equaldotsize/L/14_Ratio_750_L_8_R_6.png","img/500/equaldotsize/R/6_Ratio_500_L_9_R_18.png","img/250/equaldotanddens/R/6_Ratio_250_L_6_R_24.png","img/750/equaldotsize/R/4_Ratio_750_L_15_R_20.png","img/250/equaldotsize/L/2_Ratio_250_L_16_R_4.png","img/900/equaldotanddens/L/1_Ratio_900_L_10_R_9.png","img/250/equaldotanddens/L/15_Ratio_250_L_12_R_3.png","img/500/randomdotsizeEA/R/12_Ratio_500_L_1_R_2.png","img/500/equaldotanddens/R/3_Ratio_500_L_10_R_20.png","img/900/equaldotanddens/R/3_Ratio_900_L_9_R_10.png","img/250/equaldotsize/R/11_Ratio_250_L_3_R_12.png","img/500/equaldotanddens/R/14_Ratio_500_L_5_R_10.png","img/750/randomdotsizeEA/R/12_Ratio_750_L_3_R_4.png","img/500/equaldotsize/L/5_Ratio_500_L_4_R_2.png","img/900/equaldotsize/L/1_Ratio_900_L_10_R_9.png","img/250/randomdotsizeEA/R/10_Ratio_250_L_4_R_16.png","img/750/equaldotsize/R/2_Ratio_750_L_6_R_8.png","img/500/equaldotanddens/R/1_Ratio_500_L_9_R_18.png","img/250/equaldotanddens/R/8_Ratio_250_L_1_R_4.png","img/250/equaldotsize/L/3_Ratio_250_L_8_R_2.png","img/900/equaldotsize/L/2_Ratio_900_L_20_R_18.png","img/750/equaldotanddens/R/15_Ratio_750_L_9_R_12.png","img/500/randomdotsizeEA/R/3_Ratio_500_L_10_R_20.png","img/900/randomdotsizeEA/L/10_Ratio_900_L_20_R_18.png","img/500/equaldotsize/L/7_Ratio_500_L_10_R_5.png","img/250/equaldotanddens/R/6_Ratio_250_L_6_R_24.png","img/750/equaldotanddens/R/4_Ratio_750_L_15_R_20.png","img/900/equaldotanddens/L/8_Ratio_900_L_20_R_18.png","img/900/equaldotanddens/R/12_Ratio_900_L_18_R_20.png"],"Rat0":[["12_Ratio_0_L_9_R_0.png","13_Ratio_0_L_6_R_0.png","5_Ratio_0_L_2_R_0.png","6_Ratio_0_L_4_R_0.png","8_Ratio_0_L_6_R_0.png"],["1_Ratio_0_L_0_R_17.png","10_Ratio_0_L_0_R_22.png","11_Ratio_0_L_0_R_1.png","14_Ratio_0_L_0_R_24.png","15_Ratio_0_L_0_R_4.png","2_Ratio_0_L_0_R_5.png","3_Ratio_0_L_0_R_17.png","4_Ratio_0_L_0_R_7.png","7_Ratio_0_L_0_R_19.png","9_Ratio_0_L_0_R_15.png"]],"Rat250":[["1_Ratio_250_L_8_R_2.png","14_Ratio_250_L_12_R_3.png","15_Ratio_250_L_12_R_3.png","2_Ratio_250_L_16_R_4.png","3_Ratio_250_L_8_R_2.png","5_Ratio_250_L_24_R_6.png","7_Ratio_250_L_8_R_2.png"],["10_Ratio_250_L_4_R_16.png","11_Ratio_250_L_3_R_12.png","12_Ratio_250_L_5_R_20.png","13_Ratio_250_L_2_R_8.png","4_Ratio_250_L_3_R_12.png","6_Ratio_250_L_6_R_24.png","8_Ratio_250_L_1_R_4.png","9_Ratio_250_L_3_R_12.png"]],"Rat500":[["10_Ratio_500_L_4_R_2.png","11_Ratio_500_L_12_R_6.png","13_Ratio_500_L_12_R_6.png","4_Ratio_500_L_18_R_9.png","5_Ratio_500_L_4_R_2.png","7_Ratio_500_L_10_R_5.png","8_Ratio_500_L_8_R_4.png"],["1_Ratio_500_L_9_R_18.png","12_Ratio_500_L_1_R_2.png","14_Ratio_500_L_5_R_10.png","15_Ratio_500_L_1_R_2.png","2_Ratio_500_L_3_R_6.png","3_Ratio_500_L_10_R_20.png","6_Ratio_500_L_9_R_18.png","9_Ratio_500_L_2_R_4.png"]],"Rat750":[["1_Ratio_750_L_20_R_15.png","10_Ratio_750_L_4_R_3.png","13_Ratio_750_L_8_R_6.png","14_Ratio_750_L_8_R_6.png","6_Ratio_750_L_24_R_18.png","8_Ratio_750_L_4_R_3.png","9_Ratio_750_L_4_R_3.png"],["11_Ratio_750_L_12_R_16.png","12_Ratio_750_L_3_R_4.png","15_Ratio_750_L_9_R_12.png","2_Ratio_750_L_6_R_8.png","3_Ratio_750_L_15_R_20.png","4_Ratio_750_L_15_R_20.png","5_Ratio_750_L_15_R_20.png","7_Ratio_750_L_3_R_4.png"]],"Rat900":[["1_Ratio_900_L_10_R_9.png","10_Ratio_900_L_20_R_18.png","2_Ratio_900_L_20_R_18.png","4_Ratio_900_L_20_R_18.png","8_Ratio_900_L_20_R_18.png"],["11_Ratio_900_L_18_R_20.png","12_Ratio_900_L_18_R_20.png","13_Ratio_900_L_18_R_20.png","14_Ratio_900_L_18_R_20.png","15_Ratio_900_L_9_R_10.png","3_Ratio_900_L_9_R_10.png","5_Ratio_900_L_9_R_10.png","6_Ratio_900_L_9_R_10.png","7_Ratio_900_L_9_R_10.png","9_Ratio_900_L_18_R_20.png"]],"Rat1000":[["10_Ratio_1000_L_16_R_16.png","11_Ratio_1000_L_6_R_6.png","12_Ratio_1000_L_14_R_14.png","13_Ratio_1000_L_20_R_20.png","15_Ratio_1000_L_15_R_15.png","2_Ratio_1000_L_17_R_17.png","4_Ratio_1000_L_9_R_9.png","5_Ratio_1000_L_6_R_6.png","6_Ratio_1000_L_19_R_19.png","8_Ratio_1000_L_14_R_14.png","9_Ratio_1000_L_25_R_25.png"],["1_Ratio_1000_L_1_R_1.png","14_Ratio_1000_L_17_R_17.png","3_Ratio_1000_L_17_R_17.png","7_Ratio_1000_L_6_R_6.png"]]}},{"start_time":1552055550701,"click_time":1552055552914,"finger_time":1552055551575,"fix_duration":625.0638935651921,"trial":1,"RT":874,"MT":1339,"sideResp":1,"stimulus":"img/900/equaldotsize/L/1_Ratio_900_L_10_R_9.png","xmouse":[771,771,771,771,771,771,771,771,771,771,771,771,771,771,771,771,771,771,771,771,771,771,771,771,771,771,771,771,771,771,771,771,771,771,771,771,771,771,771,771,771,771,770,767,764,764,763,761,761,761,760,758,757,755,752,751,751,751,751,751,751,751,751,755,755,755,758,769,786,807,808,808,808,808,808,808,808,808,782,759,742,726,711,696,683,678,676,674,674,674,674,673,669,663,649,637,630,624,614,609,603,598,594,588,585,576,564,554,542,529,515],"ymouse":[533,533,533,533,533,533,533,533,533,533,533,533,533,533,533,533,533,533,533,533,533,533,533,533,533,533,533,533,533,533,533,533,533,533,533,533,533,533,528,514,501,486,474,463,453,449,444,439,434,430,424,413,400,384,379,378,378,377,377,377,377,377,376,372,372,372,370,365,357,349,348,348,348,348,348,348,348,344,283,252,236,222,209,195,176,158,147,139,137,136,135,130,124,117,94,76,68,62,56,56,56,55,54,52,51,47,42,39,34,25,17],"timestamp_mouse":[14,33,53,73,93,113,132,154,173,193,212,234,253,273,292,313,333,353,373,394,413,433,452,473,492,514,533,552,574,594,614,633,653,672,694,714,732,753,773,794,814,833,854,874,893,913,933,954,974,992,1013,1033,1054,1074,1092,1113,1132,1152,1174,1194,1214,1234,1252,1274,1292,1313,1333,1354,1372,1392,1412,1434,1453,1473,1493,1513,1534,1553,1574,1592,1613,1633,1653,1673,1692,1713,1732,1753,1772,1793,1813,1833,1854,1873,1893,1913,1933,1953,1974,1992,2013,2033,2054,2075,2093,2113,2132,2153,2172,2192,2212],"xSR":741.5,"ySR":469.95,"xT1":424.9,"yT1":0,"xT2":1058.1,"yT2":0,"toosoon":0,"cond_shown":"equaldotsize","ratio_trial":900,"smaller_num":"9","larger_num":"10","correct_side":1,"subjID":"lauracamilagarciasanchez5","gender":"1","age":"9","school":"4"},{"start_time":1552055557362,"click_time":1552055558595,"finger_time":1552055558154,"fix_duration":1486.5273654579648,"trial":2,"RT":792,"MT":441,"sideResp":1,"stimulus":"img/500/equaldotsize/L/7_Ratio_500_L_10_R_5.png","xmouse":[768,768,768,768,768,768,768,768,768,768,768,768,768,768,768,768,768,768,768,768,768,768,768,768,768,768,768,768,768,768,768,768,768,768,768,770,772,774,776,776,749,706,698,674,658,648,643,636,631,627,622,615,605,600,596,593,580,566,551,542,530,521],"ymouse":[510,510,510,510,510,510,510,510,510,510,510,510,510,510,510,510,510,510,510,510,510,510,510,510,510,510,510,510,510,510,510,510,510,510,510,509,508,507,500,447,352,257,243,203,176,155,138,116,98,84,71,52,41,39,39,41,44,46,48,49,50,52],"timestamp_mouse":[12,33,64,71,92,113,133,152,171,192,212,233,253,271,292,312,332,353,372,391,413,433,451,471,492,513,532,553,572,592,612,631,653,672,693,713,732,753,772,792,813,831,851,872,892,911,933,952,973,993,1012,1031,1051,1072,1092,1113,1132,1151,1173,1193,1211,1233],"xSR":741.5,"ySR":469.95,"xT1":424.9,"yT1":0,"xT2":1058.1,"yT2":0,"toosoon":0,"cond_shown":"equaldotsize","ratio_trial":500,"smaller_num":"5","larger_num":"10","correct_side":1,"subjID":"lauracamilagarciasanchez5","gender":"1","age":"9","school":"4"},{"start_time":1552055561176,"click_time":1552055562513,"finger_time":1552055561895,"fix_duration":1362.6816406545352,"trial":3,"RT":719,"MT":618,"sideResp":1,"stimulus":"img/500/equaldotsize/L/11_Ratio_500_L_12_R_6.png","xmouse":[777,777,773,772,771,771,771,771,771,771,771,771,771,771,771,771,771,771,771,771,771,771,771,771,771,771,771,771,771,771,771,771,771,770,766,733,708,674,649,630,618,606,604,603,600,597,585,578,571,564,558,542,526,512,504,501,497,497,497,497,497,497,497,497,497,497,501],"ymouse":[512,513,515,515,516,516,516,516,516,516,516,516,516,516,516,516,516,516,516,516,516,516,516,516,516,516,516,516,516,516,516,516,516,516,500,416,359,280,242,208,184,153,147,144,141,136,122,121,119,119,119,121,124,124,124,124,125,125,125,125,125,125,125,124,115,109,89],"timestamp_mouse":[19,38,59,78,98,118,138,159,179,197,217,237,259,279,298,318,338,357,378,398,419,438,458,478,497,518,537,559,579,599,617,637,658,678,699,719,737,758,778,798,817,838,857,878,899,917,937,957,977,997,1018,1038,1058,1078,1098,1117,1137,1157,1177,1197,1217,1237,1257,1277,1297,1319,1337],"xSR":741.5,"ySR":469.95,"xT1":424.9,"yT1":0,"xT2":1058.1,"yT2":0,"toosoon":0,"cond_shown":"equaldotsize","ratio_trial":500,"smaller_num":"6","larger_num":"12","correct_side":1,"subjID":"lauracamilagarciasanchez5","gender":"1","age":"9","school":"4"},{"start_time":1552055564721,"click_time":1552055565795,"finger_time":1552055565314,"fix_duration":1245.1471846790357,"trial":4,"RT":593,"MT":481,"sideResp":1,"stimulus":"img/250/equaldotanddens/L/3_Ratio_250_L_8_R_2.png","xmouse":[772,772,772,772,772,772,772,772,772,772,772,772,772,772,772,772,772,772,772,772,772,772,772,772,772,772,772,771,767,734,719,704,690,675,659,635,628,624,622,614,609,603,598,594,572,559,549,541,535,528,522,515,510,507],"ymouse":[505,505,505,505,505,505,505,505,505,505,505,505,505,505,505,505,505,505,505,505,505,505,505,505,505,505,505,505,501,434,410,383,358,328,301,266,257,252,251,245,241,236,232,228,202,187,175,161,151,137,124,112,103,96],"timestamp_mouse":[12,32,53,73,92,114,133,153,173,194,212,233,252,272,293,313,332,354,373,394,413,434,453,474,493,514,533,553,573,593,614,633,654,674,693,714,733,753,773,793,813,833,854,873,893,914,932,953,972,992,1012,1033,1053,1074],"xSR":741.5,"ySR":469.95,"xT1":424.9,"yT1":0,"xT2":1058.1,"yT2":0,"toosoon":0,"cond_shown":"equaldotanddens","ratio_trial":250,"smaller_num":"2","larger_num":"8","correct_side":1,"subjID":"lauracamilagarciasanchez5","gender":"1","age":"9","school":"4"},{"start_time":1552055568257,"click_time":1552055569016,"finger_time":1552055568914,"fix_duration":1420.8220493242152,"trial":5,"RT":657,"MT":102,"sideResp":1,"stimulus":"img/900/equaldotsize/R/5_Ratio_900_L_9_R_10.png","xmouse":[767,767,767,767,767,767,767,767,767,767,767,767,767,767,767,767,767,767,767,767,767,767,767,767,767,767,767,767,767,767,767,764,745,656,605,553,512,446],"ymouse":[534,534,534,534,534,534,534,534,534,534,534,534,534,534,534,534,534,534,534,534,534,534,534,534,534,534,534,534,534,534,534,509,467,319,256,196,146,57],"timestamp_mouse":[16,36,56,76,97,116,137,157,178,197,216,236,258,277,298,316,338,357,378,396,417,438,457,477,497,518,538,557,578,598,617,636,657,677,697,717,738,759],"xSR":741.5,"ySR":469.95,"xT1":424.9,"yT1":0,"xT2":1058.1,"yT2":0,"toosoon":0,"cond_shown":"equaldotsize","ratio_trial":900,"smaller_num":"9","larger_num":"10","correct_side":2,"subjID":"lauracamilagarciasanchez5","gender":"1","age":"9","school":"4"},{"start_time":1552055571691,"click_time":1552055572554,"finger_time":1552055572274,"fix_duration":1095.6706898379066,"trial":6,"RT":583,"MT":280,"sideResp":2,"stimulus":"img/750/randomdotsizeEA/R/5_Ratio_750_L_15_R_20.png","xmouse":[776,776,776,776,776,776,776,776,776,776,776,776,776,776,776,776,776,776,776,776,776,776,776,776,776,776,776,776,776,785,802,828,891,917,936,957,967,987,995,1010,1025,1038,1058,1062],"ymouse":[476,476,476,476,476,476,476,476,476,476,476,476,476,476,476,476,476,476,476,476,476,476,476,476,476,476,476,476,476,454,427,386,282,239,207,174,160,137,129,117,104,92,81,80],"timestamp_mouse":[13,24,44,75,84,102,124,143,164,183,203,223,243,262,283,302,323,344,362,383,404,422,443,464,484,502,523,544,563,583,603,624,642,663,682,703,723,742,763,783,802,823,842,863],"xSR":741.5,"ySR":469.95,"xT1":424.9,"yT1":0,"xT2":1058.1,"yT2":0,"toosoon":0,"cond_shown":"randomdotsizeEA","ratio_trial":750,"smaller_num":"15","larger_num":"20","correct_side":2,"subjID":"lauracamilagarciasanchez5","gender":"1","age":"9","school":"4"},{"start_time":1552055573887,"click_time":1552055575074,"finger_time":1552055574553,"fix_duration":250,"trial":7,"RT":666,"MT":521,"sideResp":1,"stimulus":"img/900/randomdotsizeEA/L/8_Ratio_900_L_20_R_18.png","xmouse":[798,798,798,798,798,798,798,798,798,798,798,798,798,798,798,798,798,798,798,798,798,798,798,798,798,798,798,798,798,798,798,799,786,763,747,733,722,699,688,679,670,659,628,613,600,594,585,568,552,536,501,473,461,461,461,461,461,463,463,463],"ymouse":[525,525,525,525,525,525,525,525,525,525,525,525,525,525,525,525,525,525,525,525,525,525,525,525,525,525,525,525,525,525,525,524,495,462,440,420,405,366,349,334,320,307,285,278,271,268,263,257,251,242,229,220,209,200,182,166,150,115,103,91],"timestamp_mouse":[9,27,61,67,88,107,128,147,167,187,206,228,247,266,288,307,326,347,368,387,407,426,447,468,488,506,527,547,566,588,607,626,647,666,687,707,728,747,768,786,807,827,848,868,886,906,928,947,967,986,1007,1027,1048,1068,1087,1108,1127,1146,1167,1186],"xSR":741.5,"ySR":469.95,"xT1":424.9,"yT1":0,"xT2":1058.1,"yT2":0,"toosoon":0,"cond_shown":"randomdotsizeEA","ratio_trial":900,"smaller_num":"18","larger_num":"20","correct_side":1,"subjID":"lauracamilagarciasanchez5","gender":"1","age":"9","school":"4"},{"start_time":1552055577914,"click_time":1552055579053,"finger_time":1552055578495,"fix_duration":499.11022262546413,"trial":8,"RT":581,"MT":558,"sideResp":2,"stimulus":"img/750/randomdotsizeEA/R/15_Ratio_750_L_9_R_12.png","xmouse":[792,792,792,792,792,792,791,791,791,791,791,791,791,791,788,788,786,786,786,786,786,786,786,786,786,786,786,786,786,786,786,784,772,768,764,759,753,752,751,751,751,751,754,773,793,818,871,892,910,941,997,1089,1111,1133,1135,1135,1136,1138],"ymouse":[524,524,524,524,524,524,524,524,524,524,524,524,524,524,525,525,526,526,526,526,526,526,526,526,526,526,524,499,474,446,409,372,297,237,200,166,130,123,121,121,121,121,122,125,129,134,148,151,152,153,155,148,139,125,123,114,103,83],"timestamp_mouse":[2,26,40,60,79,100,120,140,160,179,200,220,239,261,281,301,321,341,360,380,400,421,440,460,479,500,521,541,560,581,601,622,639,659,679,699,721,740,759,780,801,821,839,860,881,901,922,939,960,980,1001,1021,1039,1060,1079,1099,1119,1139],"xSR":741.5,"ySR":469.95,"xT1":424.9,"yT1":0,"xT2":1058.1,"yT2":0,"toosoon":0,"cond_shown":"randomdotsizeEA","ratio_trial":750,"smaller_num":"9","larger_num":"12","correct_side":2,"subjID":"lauracamilagarciasanchez5","gender":"1","age":"9","school":"4"},{"start_time":1552055581464,"click_time":1552055582595,"finger_time":1552055582074,"fix_duration":1407.5477367481533,"trial":9,"RT":610,"MT":521,"sideResp":1,"stimulus":"img/750/equaldotanddens/L/8_Ratio_750_L_4_R_3.png","xmouse":[775,775,775,775,775,775,775,775,775,775,775,775,775,775,775,775,775,775,775,775,775,775,775,775,775,775,775,775,775,771,748,720,694,668,635,619,611,600,585,559,551,547,544,544,544,544,544,544,538,532,532,532,532,532,532,532,504],"ymouse":[509,509,509,509,509,509,509,509,509,509,509,509,509,509,509,509,509,509,509,509,509,509,509,509,509,509,509,509,509,500,457,416,384,351,290,254,233,208,173,110,92,81,75,75,75,75,72,48,28,5,5,5,5,5,5,5,32],"timestamp_mouse":[10,30,50,70,89,109,130,150,170,190,209,229,249,270,291,310,331,351,371,390,409,430,450,470,490,511,531,550,570,590,610,630,650,670,689,710,729,749,771,789,810,830,850,870,891,911,931,949,969,990,1011,1030,1049,1069,1090,1109,1131],"xSR":741.5,"ySR":469.95,"xT1":424.9,"yT1":0,"xT2":1058.1,"yT2":0,"toosoon":0,"cond_shown":"equaldotanddens","ratio_trial":750,"smaller_num":"3","larger_num":"4","correct_side":1,"subjID":"lauracamilagarciasanchez5","gender":"1","age":"9","school":"4"},{"start_time":1552055584650,"click_time":1552055585614,"finger_time":1552055585254,"fix_duration":1015.8711134895703,"trial":10,"RT":604,"MT":360,"sideResp":2,"stimulus":"img/500/equaldotanddens/R/15_Ratio_500_L_1_R_2.png","xmouse":[784,784,784,784,784,784,784,784,784,784,784,784,784,784,784,784,784,784,784,784,784,784,784,785,786,792,797,801,807,815,837,846,855,865,881,904,915,925,937,950,976,987,997,1012,1016,1020,1034,1056,1077],"ymouse":[507,507,507,507,507,507,507,507,507,507,507,507,507,507,507,507,507,507,507,507,507,507,507,507,506,503,501,497,489,478,440,418,388,363,320,275,255,238,220,197,151,133,116,97,93,91,86,77,68],"timestamp_mouse":[6,24,44,63,83,103,125,144,164,185,205,224,243,265,284,303,325,345,363,384,404,425,445,463,484,504,525,545,564,584,604,623,645,665,685,705,723,743,763,784,805,823,845,864,885,904,923,944,963],"xSR":741.5,"ySR":469.95,"xT1":424.9,"yT1":0,"xT2":1058.1,"yT2":0,"toosoon":0,"cond_shown":"equaldotanddens","ratio_trial":500,"smaller_num":"1","larger_num":"2","correct_side":2,"subjID":"lauracamilagarciasanchez5","gender":"1","age":"9","school":"4"},{"start_time":1552055587686,"click_time":1552055588935,"finger_time":1552055588094,"fix_duration":1328.1372338198425,"trial":11,"RT":408,"MT":841,"sideResp":1,"stimulus":"img/750/randomdotsizeEA/R/7_Ratio_750_L_3_R_4.png","xmouse":[770,770,770,770,770,770,770,770,770,770,770,770,770,770,770,770,770,770,770,771,783,794,799,801,801,801,801,799,795,779,764,756,749,741,723,716,712,710,706,651,621,599,580,564,533,511,496,482,466,453,439,436,436,436,436,436,436,437,439,448,452,454,455],"ymouse":[502,502,502,502,502,502,502,502,502,502,502,502,503,503,503,503,503,503,503,503,430,352,319,301,269,248,225,210,196,163,144,134,122,108,88,84,83,83,83,91,101,105,109,114,122,125,127,129,130,130,130,130,130,130,130,130,130,129,127,113,108,102,98],"timestamp_mouse":[9,43,49,68,88,108,130,148,169,188,210,228,249,270,289,309,328,349,369,388,408,428,450,469,488,509,529,549,569,588,608,628,648,668,688,709,730,749,769,788,808,828,848,868,888,908,928,948,970,988,1010,1028,1048,1069,1088,1109,1128,1148,1169,1189,1209,1228,1249],"xSR":741.5,"ySR":469.95,"xT1":424.9,"yT1":0,"xT2":1058.1,"yT2":0,"toosoon":0,"cond_shown":"randomdotsizeEA","ratio_trial":750,"smaller_num":"3","larger_num":"4","correct_side":2,"subjID":"lauracamilagarciasanchez5","gender":"1","age":"9","school":"4"},{"start_time":1552055590972,"click_time":1552055591694,"finger_time":1552055591496,"fix_duration":615.3475913304864,"trial":12,"RT":524,"MT":198,"sideResp":2,"stimulus":"img/750/equaldotanddens/R/11_Ratio_750_L_12_R_16.png","xmouse":[786,786,786,786,786,786,786,786,786,786,786,786,786,786,786,786,786,786,787,789,796,799,805,808,810,813,817,825,837,852,889,913,944,972,992,1050,1074],"ymouse":[507,507,507,507,507,507,507,507,507,507,507,507,507,507,507,507,507,507,506,505,502,498,490,486,482,475,469,456,439,419,359,316,261,208,167,66,30],"timestamp_mouse":[10,23,43,68,82,102,124,142,162,183,204,222,242,264,284,302,323,342,363,382,402,422,442,462,482,503,524,543,563,583,603,622,643,662,683,702,722],"xSR":741.5,"ySR":469.95,"xT1":424.9,"yT1":0,"xT2":1058.1,"yT2":0,"toosoon":0,"cond_shown":"equaldotanddens","ratio_trial":750,"smaller_num":"12","larger_num":"16","correct_side":2,"subjID":"lauracamilagarciasanchez5","gender":"1","age":"9","school":"4"},{"start_time":1552055594188,"click_time":1552055595355,"finger_time":1552055594715,"fix_duration":1291.4697544947308,"trial":13,"RT":527,"MT":640,"sideResp":2,"stimulus":"img/500/equaldotanddens/R/1_Ratio_500_L_9_R_18.png","xmouse":[752,752,752,752,752,752,752,752,752,752,752,752,752,752,752,752,752,752,752,752,752,752,754,762,778,788,794,799,802,811,815,820,824,832,842,851,862,870,874,874,879,884,901,913,928,934,942,945,947,947,947,947,948,954,965,1001,1021,1043,1060],"ymouse":[505,505,505,505,505,505,505,505,505,505,505,505,505,505,505,505,505,505,505,505,505,505,503,499,489,482,468,454,441,414,400,385,370,343,308,287,261,242,234,231,222,216,200,191,178,174,169,166,166,166,166,165,165,163,156,131,115,96,78],"timestamp_mouse":[10,26,51,66,86,107,128,148,166,186,206,226,247,266,286,306,327,346,366,386,407,427,447,466,487,506,527,547,566,588,606,626,647,666,688,706,726,746,767,786,807,826,848,867,887,906,926,946,966,987,1007,1026,1047,1066,1087,1106,1126,1146,1166],"xSR":741.5,"ySR":469.95,"xT1":424.9,"yT1":0,"xT2":1058.1,"yT2":0,"toosoon":0,"cond_shown":"equaldotanddens","ratio_trial":500,"smaller_num":"9","larger_num":"18","correct_side":2,"subjID":"lauracamilagarciasanchez5","gender":"1","age":"9","school":"4"},{"start_time":1552055598103,"click_time":1552055599134,"finger_time":1552055598614,"fix_duration":567.1950878767736,"trial":14,"RT":511,"MT":520,"sideResp":2,"stimulus":"img/250/randomdotsizeEA/R/8_Ratio_250_L_1_R_4.png","xmouse":[798,798,798,798,798,798,798,798,798,798,798,798,798,798,798,798,798,798,798,798,798,798,798,800,811,828,844,864,878,900,911,920,930,940,958,977,990,1003,1015,1045,1058,1068,1075,1081,1086,1087,1087,1087,1087,1086,1080,1077],"ymouse":[489,489,489,489,489,489,489,489,489,489,489,489,489,489,489,489,489,489,489,489,489,489,488,487,473,440,414,381,355,315,299,286,272,257,233,210,195,180,167,148,142,137,133,128,125,125,125,125,125,118,105,91],"timestamp_mouse":[11,40,53,71,91,112,132,151,172,191,212,231,252,273,292,312,331,351,373,391,411,432,451,472,491,511,531,552,572,592,612,633,651,671,691,712,731,752,772,792,812,832,852,872,891,911,932,952,972,992,1012,1031],"xSR":741.5,"ySR":469.95,"xT1":424.9,"yT1":0,"xT2":1058.1,"yT2":0,"toosoon":0,"cond_shown":"randomdotsizeEA","ratio_trial":250,"smaller_num":"1","larger_num":"4","correct_side":2,"subjID":"lauracamilagarciasanchez5","gender":"1","age":"9","school":"4"},{"start_time":1552055600367,"click_time":1552055601475,"finger_time":1552055600794,"fix_duration":250,"trial":15,"RT":427,"MT":681,"sideResp":1,"stimulus":"img/250/equaldotanddens/L/7_Ratio_250_L_8_R_2.png","xmouse":[745,745,745,745,745,745,745,745,745,745,745,745,745,745,745,748,754,762,773,781,787,789,789,789,795,800,807,809,809,809,809,802,796,788,772,751,707,686,668,646,618,589,577,576,569,561,559,559,559,559,559,557,550,539,528,519],"ymouse":[524,524,524,524,524,524,524,524,524,524,524,524,524,524,524,524,521,516,506,488,472,463,463,461,452,445,429,423,417,407,399,377,364,344,318,281,204,172,142,112,66,29,16,15,12,10,9,9,9,9,9,10,20,35,50,58],"timestamp_mouse":[9,28,58,68,88,108,127,148,168,188,207,229,248,268,287,307,327,348,367,389,407,427,447,468,488,508,527,547,567,588,609,628,647,668,687,707,727,747,767,787,807,828,847,867,888,907,928,949,968,987,1007,1028,1049,1068,1087,1108],"xSR":741.5,"ySR":469.95,"xT1":424.9,"yT1":0,"xT2":1058.1,"yT2":0,"toosoon":0,"cond_shown":"equaldotanddens","ratio_trial":250,"smaller_num":"2","larger_num":"8","correct_side":1,"subjID":"lauracamilagarciasanchez5","gender":"1","age":"9","school":"4"},{"start_time":1552055603993,"click_time":1552055604814,"finger_time":1552055604634,"fix_duration":1275.0053432971047,"trial":16,"RT":641,"MT":180,"sideResp":2,"stimulus":"img/900/randomdotsizeEA/L/2_Ratio_900_L_20_R_18.png","xmouse":[781,781,781,781,781,781,781,781,781,781,781,781,781,781,781,781,781,781,781,781,781,781,781,781,781,781,781,781,781,781,785,802,853,917,974,1001,1024,1045,1055,1059,1063,1064],"ymouse":[509,509,509,509,509,509,509,509,509,509,509,509,509,509,509,509,509,509,509,509,509,509,509,509,509,509,509,509,509,509,507,484,396,301,231,204,180,139,120,111,102,98],"timestamp_mouse":[11,21,42,61,81,103,122,142,163,182,201,221,241,262,283,301,321,341,361,383,403,422,442,462,482,502,521,543,562,581,601,622,641,661,681,703,721,741,761,782,802,821],"xSR":741.5,"ySR":469.95,"xT1":424.9,"yT1":0,"xT2":1058.1,"yT2":0,"toosoon":0,"cond_shown":"randomdotsizeEA","ratio_trial":900,"smaller_num":"18","larger_num":"20","correct_side":1,"subjID":"lauracamilagarciasanchez5","gender":"1","age":"9","school":"4"},{"start_time":1552055607405,"click_time":1552055608614,"finger_time":1552055608114,"fix_duration":888.3814843412841,"trial":17,"RT":709,"MT":500,"sideResp":1,"stimulus":"img/500/randomdotsizeEA/L/5_Ratio_500_L_4_R_2.png","xmouse":[765,765,765,765,765,765,765,765,765,765,765,765,765,765,765,765,765,765,765,765,765,765,765,765,765,765,765,765,765,765,765,765,765,763,745,566,511,479,457,436,414,413,413,413,413,406,398,385,373,370,371,379,383,383,384,389,394,402,411,421,430],"ymouse":[496,496,496,496,496,496,496,496,496,496,496,496,496,496,496,496,496,496,496,496,496,496,496,496,496,496,496,496,496,496,496,496,496,496,483,378,338,312,294,279,264,263,263,263,263,247,233,215,199,190,173,158,147,138,132,120,113,107,102,93,81],"timestamp_mouse":[9,30,49,70,91,109,130,150,171,190,210,229,250,270,290,311,330,350,369,389,409,430,450,469,489,510,531,550,569,590,609,630,649,670,690,709,730,749,770,789,809,829,849,870,890,909,930,950,970,990,1010,1030,1050,1069,1089,1110,1129,1150,1170,1190,1209],"xSR":741.5,"ySR":469.95,"xT1":424.9,"yT1":0,"xT2":1058.1,"yT2":0,"toosoon":0,"cond_shown":"randomdotsizeEA","ratio_trial":500,"smaller_num":"2","larger_num":"4","correct_side":1,"subjID":"lauracamilagarciasanchez5","gender":"1","age":"9","school":"4"},{"start_time":1552055610193,"click_time":1552055611655,"finger_time":1552055610295,"fix_duration":616.7394793168323,"trial":18,"RT":102,"MT":1360,"sideResp":2,"stimulus":"img/250/randomdotsizeEA/R/4_Ratio_250_L_3_R_12.png","xmouse":[745,745,745,743,742,740,740,740,740,740,740,740,740,740,740,740,740,740,740,740,740,740,740,740,740,740,740,740,740,740,740,744,757,782,791,809,829,840,850,857,863,875,878,880,884,886,887,888,888,888,888,888,887,880,873,872,872,872,873,874,877,887,896,903,912,932,932,945,961,982,1003,1031,1044,1062],"ymouse":[517,517,517,517,518,519,519,519,519,519,519,519,519,519,519,519,519,519,519,519,519,519,519,519,519,519,519,519,519,519,519,499,469,423,407,370,323,296,275,259,244,226,221,218,211,208,206,206,206,206,206,206,205,204,203,203,203,203,203,203,202,198,193,189,183,170,170,161,150,133,116,82,69,58],"timestamp_mouse":[2,25,47,61,82,102,122,141,162,181,202,222,242,262,282,301,322,342,362,382,401,421,441,463,482,503,523,542,562,581,601,622,642,661,682,702,722,741,761,781,802,822,841,862,882,901,921,942,962,981,1002,1022,1041,1062,1081,1102,1122,1142,1162,1182,1202,1223,1241,1261,1282,1301,1323,1343,1362,1381,1402,1423,1441,1462],"xSR":741.5,"ySR":469.95,"xT1":424.9,"yT1":0,"xT2":1058.1,"yT2":0,"toosoon":0,"cond_shown":"randomdotsizeEA","ratio_trial":250,"smaller_num":"3","larger_num":"12","correct_side":2,"subjID":"lauracamilagarciasanchez5","gender":"1","age":"9","school":"4"},{"start_time":1552055613787,"click_time":1552055614674,"finger_time":1552055614335,"fix_duration":949.7042946425848,"trial":19,"RT":548,"MT":339,"sideResp":1,"stimulus":"img/500/randomdotsizeEA/L/10_Ratio_500_L_4_R_2.png","xmouse":[803,803,803,805,805,805,805,805,805,805,805,805,805,805,805,805,805,805,805,805,805,805,805,805,799,791,772,761,749,739,727,718,697,690,683,677,655,638,625,608,594,577,540,527,518],"ymouse":[549,549,549,540,538,537,536,536,536,536,536,536,536,536,536,536,536,536,536,536,536,536,536,536,523,509,481,465,447,430,411,392,341,318,295,268,209,171,134,96,70,48,12,6,5],"timestamp_mouse":[9,42,47,68,88,109,127,148,167,188,208,229,247,267,288,307,328,347,368,389,408,427,448,467,488,508,529,548,568,587,607,627,647,667,687,708,730,747,767,788,808,828,847,867,887],"xSR":741.5,"ySR":469.95,"xT1":424.9,"yT1":0,"xT2":1058.1,"yT2":0,"toosoon":0,"cond_shown":"randomdotsizeEA","ratio_trial":500,"smaller_num":"2","larger_num":"4","correct_side":1,"subjID":"lauracamilagarciasanchez5","gender":"1","age":"9","school":"4"},{"start_time":1552055616179,"click_time":1552055617435,"finger_time":1552055616774,"fix_duration":722.0093052096679,"trial":20,"RT":595,"MT":661,"sideResp":2,"stimulus":"img/250/equaldotsize/R/9_Ratio_250_L_3_R_12.png","xmouse":[794,794,794,794,794,794,794,794,794,794,794,794,794,794,794,794,794,794,794,794,794,794,794,794,794,794,794,795,807,822,831,838,850,856,861,868,875,895,903,910,918,924,942,952,961,972,984,1005,1013,1013,1021,1030,1047,1050,1053,1057,1060,1073,1077,1079,1080,1080,1083],"ymouse":[539,539,539,539,539,539,539,539,539,539,539,539,539,539,539,539,539,539,539,539,539,539,539,539,539,539,539,525,496,468,447,428,394,381,371,359,345,317,304,293,281,272,250,242,232,220,208,187,177,177,170,162,144,140,136,131,128,112,107,102,101,100,95],"timestamp_mouse":[16,48,56,75,96,116,136,156,175,195,215,235,256,277,296,315,335,355,375,396,415,436,455,476,496,515,536,555,575,595,615,636,655,675,695,715,735,755,775,796,815,835,855,876,896,915,936,955,976,996,1015,1037,1055,1077,1097,1116,1136,1155,1175,1195,1216,1235,1256],"xSR":741.5,"ySR":469.95,"xT1":424.9,"yT1":0,"xT2":1058.1,"yT2":0,"toosoon":0,"cond_shown":"equaldotsize","ratio_trial":250,"smaller_num":"3","larger_num":"12","correct_side":2,"subjID":"lauracamilagarciasanchez5","gender":"1","age":"9","school":"4"},{"start_time":1552055619817,"click_time":1552055621114,"finger_time":1552055620454,"fix_duration":1380.8611715711756,"trial":21,"RT":637,"MT":660,"sideResp":1,"stimulus":"img/250/equaldotanddens/L/2_Ratio_250_L_16_R_4.png","xmouse":[776,776,776,776,776,776,776,776,776,776,776,776,776,776,776,776,776,776,776,776,776,776,776,776,776,776,776,776,776,776,774,739,729,727,727,727,726,722,712,694,676,674,673,671,665,645,635,624,607,597,588,572,565,560,555,550,535,527,521,514,506,498,495,490,484],"ymouse":[531,531,531,531,531,531,531,531,531,531,531,531,531,531,531,531,531,531,531,531,531,531,531,531,531,531,531,531,531,531,531,520,517,516,516,516,516,516,514,504,483,480,478,473,465,437,422,408,384,370,355,332,320,309,298,284,246,216,196,177,162,137,126,109,86],"timestamp_mouse":[17,37,57,78,99,118,137,159,178,197,217,239,257,277,297,317,339,357,378,398,417,437,459,478,497,517,539,558,577,598,617,637,657,678,697,717,739,759,777,797,819,837,857,877,898,919,937,957,977,998,1018,1038,1058,1077,1097,1117,1138,1158,1177,1198,1217,1237,1258,1278,1297],"xSR":741.5,"ySR":469.95,"xT1":424.9,"yT1":0,"xT2":1058.1,"yT2":0,"toosoon":0,"cond_shown":"equaldotanddens","ratio_trial":250,"smaller_num":"4","larger_num":"16","correct_side":1,"subjID":"lauracamilagarciasanchez5","gender":"1","age":"9","school":"4"},{"start_time":1552055623287,"click_time":1552055624034,"finger_time":1552055623754,"fix_duration":1130.2922364610647,"trial":22,"RT":467,"MT":280,"sideResp":1,"stimulus":"img/900/randomdotsizeEA/L/1_Ratio_900_L_10_R_9.png","xmouse":[806,803,802,802,802,802,802,802,802,802,802,802,802,802,802,802,802,802,802,802,802,800,795,753,727,700,675,657,625,611,599,588,579,547,533,519,506,494],"ymouse":[512,511,511,511,511,511,511,511,511,511,511,511,511,511,511,511,511,511,511,511,511,511,501,432,399,362,335,316,274,255,237,219,205,159,138,119,101,85],"timestamp_mouse":[7,27,52,67,88,107,128,148,169,189,207,228,249,267,287,307,327,348,367,388,407,427,448,467,488,509,528,548,568,587,607,628,648,667,688,707,729,747],"xSR":741.5,"ySR":469.95,"xT1":424.9,"yT1":0,"xT2":1058.1,"yT2":0,"toosoon":0,"cond_shown":"randomdotsizeEA","ratio_trial":900,"smaller_num":"9","larger_num":"10","correct_side":1,"subjID":"lauracamilagarciasanchez5","gender":"1","age":"9","school":"4"},{"start_time":1552055625467,"click_time":1552055627794,"finger_time":1552055626015,"fix_duration":751.5536549429668,"trial":23,"RT":548,"MT":1779,"sideResp":2,"stimulus":"img/500/equaldotanddens/R/12_Ratio_500_L_1_R_2.png","xmouse":[786,786,786,786,786,786,786,786,786,786,786,786,786,786,786,786,786,786,786,786,786,786,786,786,786,786,788,796,805,825,835,845,856,870,913,939,956,984,1010,1038,1040,1047,1049,1049,1053,1054,1054,1054,1054,1054,1054,1054,1054,1054,1054,1054,1052,1051,1046,1038,1036,1033,1033,1033,1031,1030,1030,1027,1025,1021,1013,1011,1000,990,978,970,963,954,944,918,902,889,870,863,833,823,815,805,794,778,776,776,776,776,776,786,802,815,825,886,920,934,948,969,991,997,1004,1011,1020,1029,1031,1033,1034,1040,1052,1057,1064],"ymouse":[533,533,533,533,533,533,533,533,533,533,533,533,533,533,533,533,533,533,533,533,533,533,533,533,532,522,494,466,438,392,370,346,325,300,238,202,176,143,113,80,77,68,67,67,62,59,58,57,57,57,57,57,57,57,57,57,58,59,61,68,80,97,103,103,107,108,110,116,130,150,166,173,199,240,297,322,347,371,392,414,421,430,449,458,487,498,509,521,532,545,547,547,547,547,547,544,534,504,454,250,203,185,170,153,128,119,109,101,93,87,87,86,86,86,86,85,80],"timestamp_mouse":[18,29,49,68,89,107,127,147,167,187,207,227,248,268,287,307,327,347,367,387,407,428,448,467,487,507,527,548,567,588,607,627,647,667,687,708,727,747,768,787,807,828,849,867,888,909,927,947,967,988,1007,1028,1048,1068,1087,1108,1128,1148,1168,1188,1208,1227,1248,1267,1288,1308,1327,1348,1367,1387,1408,1428,1449,1468,1488,1507,1527,1548,1567,1588,1608,1628,1647,1667,1688,1709,1728,1748,1768,1787,1808,1828,1848,1869,1888,1908,1927,1948,1969,1988,2007,2027,2048,2068,2087,2107,2128,2148,2168,2188,2207,2227,2248,2267,2288,2307,2327],"xSR":741.5,"ySR":469.95,"xT1":424.9,"yT1":0,"xT2":1058.1,"yT2":0,"toosoon":0,"cond_shown":"equaldotanddens","ratio_trial":500,"smaller_num":"1","larger_num":"2","correct_side":2,"subjID":"lauracamilagarciasanchez5","gender":"1","age":"9","school":"4"},{"start_time":1552055630172,"click_time":1552055631316,"finger_time":1552055630835,"fix_duration":1375.3766413717178,"trial":24,"RT":663,"MT":481,"sideResp":1,"stimulus":"img/750/equaldotsize/R/5_Ratio_750_L_15_R_20.png","xmouse":[792,792,792,792,792,792,792,792,792,792,792,792,792,792,792,792,792,792,792,792,792,792,792,792,792,792,792,791,791,780,773,763,746,718,683,641,631,628,626,623,620,612,605,595,579,571,562,555,546,534,515,506,497,494,490,486,484,479],"ymouse":[526,526,526,526,526,526,526,526,526,526,526,526,526,526,526,526,526,526,526,526,526,526,526,526,526,526,526,525,524,520,516,508,491,468,437,398,382,379,374,366,358,342,324,306,266,242,211,195,174,156,127,118,111,111,109,107,106,97],"timestamp_mouse":[11,39,43,63,84,102,123,144,163,183,203,222,242,262,283,302,323,343,363,383,403,424,444,463,483,504,522,543,562,583,603,623,642,663,682,702,722,742,762,784,802,823,842,862,884,902,923,943,963,983,1003,1022,1043,1062,1084,1102,1123,1144],"xSR":741.5,"ySR":469.95,"xT1":424.9,"yT1":0,"xT2":1058.1,"yT2":0,"toosoon":0,"cond_shown":"equaldotsize","ratio_trial":750,"smaller_num":"15","larger_num":"20","correct_side":2,"subjID":"lauracamilagarciasanchez5","gender":"1","age":"9","school":"4"},{"start_time":1552055633077,"click_time":1552055633815,"finger_time":1552055633574,"fix_duration":901.9988088625292,"trial":25,"RT":497,"MT":241,"sideResp":1,"stimulus":"img/250/equaldotsize/L/14_Ratio_250_L_12_R_3.png","xmouse":[812,812,812,812,812,812,812,812,812,812,812,812,812,812,812,812,812,812,812,812,811,797,790,777,748,736,720,715,700,645,613,582,546,517,488,470,460],"ymouse":[538,538,538,538,538,538,538,538,538,538,538,538,538,538,538,538,538,538,538,538,533,506,499,485,463,455,444,439,428,383,350,314,272,226,150,114,90],"timestamp_mouse":[18,38,59,77,99,117,137,157,178,198,217,237,257,278,298,318,338,357,378,398,418,438,458,477,497,520,539,557,578,597,617,637,658,677,697,719,738],"xSR":741.5,"ySR":469.95,"xT1":424.9,"yT1":0,"xT2":1058.1,"yT2":0,"toosoon":0,"cond_shown":"equaldotsize","ratio_trial":250,"smaller_num":"3","larger_num":"12","correct_side":1,"subjID":"lauracamilagarciasanchez5","gender":"1","age":"9","school":"4"},{"start_time":1552055635065,"click_time":1552055636274,"finger_time":1552055635834,"fix_duration":367.5236650376127,"trial":26,"RT":769,"MT":440,"sideResp":1,"stimulus":"img/900/randomdotsizeEA/R/13_Ratio_900_L_18_R_20.png","xmouse":[765,765,765,765,765,765,765,765,765,765,765,765,765,765,765,765,765,765,765,765,765,765,765,766,768,769,770,770,770,770,770,770,770,770,773,783,792,803,815,828,835,851,854,855,856,856,856,852,847,834,775,741,694,646,601,522,500,486,477,475,473],"ymouse":[539,539,539,539,539,539,539,539,539,539,539,539,539,539,539,539,539,539,539,539,539,539,539,539,532,517,515,515,515,515,515,515,515,513,510,502,493,478,463,442,431,412,407,402,400,394,390,381,372,361,331,316,290,260,226,164,142,121,108,104,99],"timestamp_mouse":[9,29,59,69,90,109,130,150,169,190,210,230,249,270,289,310,331,349,370,389,410,430,449,470,490,509,529,549,571,590,610,631,649,669,689,709,729,750,769,789,810,829,850,870,890,909,929,950,970,991,1009,1029,1049,1069,1090,1110,1129,1150,1170,1190,1209],"xSR":741.5,"ySR":469.95,"xT1":424.9,"yT1":0,"xT2":1058.1,"yT2":0,"toosoon":0,"cond_shown":"randomdotsizeEA","ratio_trial":900,"smaller_num":"18","larger_num":"20","correct_side":2,"subjID":"lauracamilagarciasanchez5","gender":"1","age":"9","school":"4"},{"start_time":1552055638026,"click_time":1552055638755,"finger_time":1552055638475,"fix_duration":309.7412424972312,"trial":27,"RT":449,"MT":280,"sideResp":2,"stimulus":"img/900/equaldotsize/R/13_Ratio_900_L_18_R_20.png","xmouse":[765,765,765,765,765,765,765,765,765,765,765,765,765,765,765,765,765,765,765,765,769,775,802,810,814,821,834,860,892,924,952,986,1017,1067,1095,1114,1131],"ymouse":[496,496,496,496,496,496,496,496,496,496,496,496,496,496,496,496,496,496,496,496,493,483,444,437,434,427,415,394,364,335,310,278,241,171,132,103,81],"timestamp_mouse":[10,41,49,68,89,110,129,149,168,189,209,229,248,269,288,308,329,349,370,389,408,429,449,469,489,508,529,550,568,588,608,628,648,668,689,709,729],"xSR":741.5,"ySR":469.95,"xT1":424.9,"yT1":0,"xT2":1058.1,"yT2":0,"toosoon":0,"cond_shown":"equaldotsize","ratio_trial":900,"smaller_num":"18","larger_num":"20","correct_side":2,"subjID":"lauracamilagarciasanchez5","gender":"1","age":"9","school":"4"},{"start_time":1552055640948,"click_time":1552055641695,"finger_time":1552055641475,"fix_duration":1232.112737465981,"trial":28,"RT":527,"MT":220,"sideResp":2,"stimulus":"img/250/equaldotsize/R/6_Ratio_250_L_6_R_24.png","xmouse":[783,783,783,783,783,783,783,783,783,783,783,783,783,783,783,783,783,783,783,783,783,783,783,783,783,794,818,861,876,890,903,922,982,993,1011,1032,1049,1070],"ymouse":[531,531,531,531,531,531,531,531,531,531,531,531,531,531,531,531,531,531,531,531,531,531,531,531,518,495,453,379,350,320,300,273,189,172,147,124,107,85],"timestamp_mouse":[13,27,46,66,87,107,127,147,168,187,207,226,248,267,287,306,327,348,367,387,407,427,446,466,486,507,527,547,567,587,607,627,646,666,686,706,727,746],"xSR":741.5,"ySR":469.95,"xT1":424.9,"yT1":0,"xT2":1058.1,"yT2":0,"toosoon":0,"cond_shown":"equaldotsize","ratio_trial":250,"smaller_num":"6","larger_num":"24","correct_side":2,"subjID":"lauracamilagarciasanchez5","gender":"1","age":"9","school":"4"},{"start_time":1552055643344,"click_time":1552055644414,"finger_time":1552055643914,"fix_duration":767.45838977966,"trial":29,"RT":570,"MT":500,"sideResp":1,"stimulus":"img/750/equaldotanddens/L/8_Ratio_750_L_4_R_3.png","xmouse":[805,805,805,805,805,805,805,805,805,805,805,805,805,805,805,805,805,805,805,805,805,805,805,805,805,805,805,805,793,772,736,703,664,655,647,640,636,632,616,603,590,584,563,553,550,550,550,550,549,549,547,547,536,522],"ymouse":[490,490,490,490,490,490,490,490,490,490,490,490,490,490,490,490,490,490,490,490,490,490,490,490,490,490,490,490,455,425,375,326,249,223,199,174,147,128,86,63,46,37,26,22,20,20,20,20,20,20,20,20,23,27],"timestamp_mouse":[12,36,50,70,91,111,131,150,171,190,210,231,250,270,290,312,331,351,372,391,410,430,450,471,490,511,530,550,570,591,611,630,651,670,690,710,730,750,770,791,811,831,851,871,891,912,931,950,971,990,1011,1031,1050,1070],"xSR":741.5,"ySR":469.95,"xT1":424.9,"yT1":0,"xT2":1058.1,"yT2":0,"toosoon":0,"cond_shown":"equaldotanddens","ratio_trial":750,"smaller_num":"3","larger_num":"4","correct_side":1,"subjID":"lauracamilagarciasanchez5","gender":"1","age":"9","school":"4"},{"start_time":1552055645939,"click_time":1552055646995,"finger_time":1552055646595,"fix_duration":382.35981528675956,"trial":30,"RT":656,"MT":400,"sideResp":1,"stimulus":"img/750/equaldotanddens/L/10_Ratio_750_L_4_R_3.png","xmouse":[796,796,796,796,796,796,796,796,796,796,796,796,794,790,788,788,788,787,787,787,787,787,787,787,787,787,786,786,786,786,783,773,717,677,636,595,569,536,525,516,508,503,499,499,496,495,494,494,494,494,494,494,495],"ymouse":[494,494,494,494,494,494,494,494,494,494,494,493,493,495,495,495,495,496,496,496,496,496,496,496,496,496,496,496,496,496,491,476,403,353,309,267,235,197,181,169,158,150,142,142,137,132,129,126,126,123,116,105,91],"timestamp_mouse":[16,43,56,76,95,117,137,156,175,196,217,236,255,276,297,317,348,355,377,396,416,436,456,476,496,516,535,557,576,596,616,636,656,675,696,715,736,756,775,796,815,836,856,876,896,916,936,956,976,996,1016,1036,1055],"xSR":741.5,"ySR":469.95,"xT1":424.9,"yT1":0,"xT2":1058.1,"yT2":0,"toosoon":0,"cond_shown":"equaldotanddens","ratio_trial":750,"smaller_num":"3","larger_num":"4","correct_side":1,"subjID":"lauracamilagarciasanchez5","gender":"1","age":"9","school":"4"},{"start_time":1552055648696,"click_time":1552055649814,"finger_time":1552055649314,"fix_duration":638.1636294469267,"trial":31,"RT":618,"MT":500,"sideResp":1,"stimulus":"img/750/randomdotsizeEA/R/4_Ratio_750_L_15_R_20.png","xmouse":[763,763,763,763,763,763,763,763,763,763,763,763,763,763,763,763,763,763,763,763,763,763,763,763,763,763,763,763,763,759,746,699,681,664,651,640,623,618,618,616,612,608,604,599,594,590,583,578,573,566,556,537,529,528,527,526,523],"ymouse":[518,518,518,518,518,518,518,518,518,518,518,518,518,518,518,518,518,518,518,518,518,518,518,518,518,518,518,518,518,506,490,434,410,385,362,339,299,287,286,283,270,254,247,234,225,218,199,188,176,162,146,113,98,92,90,89,85],"timestamp_mouse":[1,18,47,58,78,98,119,139,158,179,198,220,239,258,278,299,318,339,359,380,399,419,440,459,479,498,519,539,559,578,599,618,638,660,678,698,719,739,758,778,798,818,838,858,879,898,918,939,958,979,999,1019,1038,1058,1079,1099,1118],"xSR":741.5,"ySR":469.95,"xT1":424.9,"yT1":0,"xT2":1058.1,"yT2":0,"toosoon":0,"cond_shown":"randomdotsizeEA","ratio_trial":750,"smaller_num":"15","larger_num":"20","correct_side":2,"subjID":"lauracamilagarciasanchez5","gender":"1","age":"9","school":"4"},{"start_time":1552055653258,"click_time":1552055654275,"finger_time":1552055653836,"fix_duration":1021.8675242774805,"trial":32,"RT":578,"MT":439,"sideResp":2,"stimulus":"img/500/equaldotsize/R/3_Ratio_500_L_10_R_20.png","xmouse":[805,805,805,805,805,805,805,805,805,805,805,805,805,805,805,805,805,805,804,804,804,804,804,804,804,804,808,826,844,868,891,925,956,966,975,981,989,1005,1010,1016,1023,1031,1038,1041,1042,1043,1045,1046,1050,1055,1063],"ymouse":[539,539,539,539,539,539,539,539,539,539,539,539,539,539,539,539,539,539,539,539,539,539,539,539,539,539,539,531,520,508,494,457,393,369,349,337,320,299,289,278,266,247,230,225,222,217,208,180,157,124,81],"timestamp_mouse":[17,47,56,77,96,117,138,158,177,196,217,237,257,276,297,317,336,356,376,396,416,436,456,477,497,516,537,557,578,596,616,637,656,676,696,717,736,757,776,796,816,836,857,877,896,917,936,956,977,997,1017],"xSR":741.5,"ySR":469.95,"xT1":424.9,"yT1":0,"xT2":1058.1,"yT2":0,"toosoon":0,"cond_shown":"equaldotsize","ratio_trial":500,"smaller_num":"10","larger_num":"20","correct_side":2,"subjID":"lauracamilagarciasanchez5","gender":"1","age":"9","school":"4"},{"start_time":1552055656513,"click_time":1552055657835,"finger_time":1552055657134,"fix_duration":1155.0090556248344,"trial":33,"RT":621,"MT":701,"sideResp":1,"stimulus":"img/500/randomdotsizeEA/R/3_Ratio_500_L_10_R_20.png","xmouse":[761,761,761,761,761,761,761,761,761,761,761,761,761,761,761,761,761,761,761,761,761,761,761,761,761,761,761,761,761,761,760,725,669,595,517,459,409,397,394,393,393,393,393,393,393,392,391,391,401,409,415,424,428,431,432,433,433,433,433,433,433,435,438,440,441,441,452],"ymouse":[536,536,536,536,536,536,536,536,536,536,536,536,536,536,536,536,536,536,536,536,536,536,536,536,536,536,536,536,536,537,538,530,510,469,422,376,328,315,312,311,311,311,311,311,311,305,290,274,244,222,200,162,145,138,132,129,129,129,129,129,129,127,121,115,112,107,88],"timestamp_mouse":[9,21,48,63,82,102,122,142,162,182,201,222,241,262,283,301,321,341,361,382,402,421,442,461,482,501,523,542,562,582,601,621,642,661,682,703,721,742,761,782,802,821,842,863,882,901,922,941,961,981,1001,1021,1042,1062,1081,1103,1121,1141,1161,1182,1203,1221,1241,1261,1281,1301,1322],"xSR":741.5,"ySR":469.95,"xT1":424.9,"yT1":0,"xT2":1058.1,"yT2":0,"toosoon":0,"cond_shown":"randomdotsizeEA","ratio_trial":500,"smaller_num":"10","larger_num":"20","correct_side":2,"subjID":"lauracamilagarciasanchez5","gender":"1","age":"9","school":"4"},{"start_time":1552055661344,"click_time":1552055662421,"finger_time":1552055661934,"fix_duration":488.498265202741,"trial":34,"RT":590,"MT":487,"sideResp":1,"stimulus":"img/750/randomdotsizeEA/L/9_Ratio_750_L_4_R_3.png","xmouse":[797,797,795,792,791,791,791,791,791,791,791,791,791,791,791,791,791,790,790,789,789,789,789,789,789,789,789,789,775,735,701,665,627,575,529,513,499,492,488,474,471,469,468,467,466,466,466,469,472,478,479,480,482,483],"ymouse":[538,538,520,509,505,505,505,505,505,505,505,505,505,505,505,505,505,505,505,505,505,505,505,505,505,505,505,505,488,455,429,403,377,333,283,259,235,223,218,201,198,195,193,186,178,174,171,165,156,138,127,116,107,93],"timestamp_mouse":[16,31,50,71,90,111,130,151,171,191,210,231,251,270,291,311,330,350,370,390,412,431,451,471,490,511,530,551,571,590,610,630,650,671,691,710,730,750,770,791,810,831,852,870,890,910,930,951,970,991,1010,1031,1050,1077],"xSR":741.5,"ySR":469.95,"xT1":424.9,"yT1":0,"xT2":1058.1,"yT2":0,"toosoon":0,"cond_shown":"randomdotsizeEA","ratio_trial":750,"smaller_num":"3","larger_num":"4","correct_side":1,"subjID":"lauracamilagarciasanchez5","gender":"1","age":"9","school":"4"},{"start_time":1552055664248,"click_time":1552055665654,"finger_time":1552055664854,"fix_duration":811.9354263512021,"trial":35,"RT":606,"MT":800,"sideResp":2,"stimulus":"img/900/equaldotanddens/L/1_Ratio_900_L_10_R_9.png","xmouse":[768,768,768,768,768,768,768,768,768,768,768,768,770,771,772,775,778,779,781,781,781,781,781,781,781,782,784,786,791,803,810,822,838,858,888,972,1028,1054,1075,1092,1093,1092,1091,1091,1091,1089,1087,1084,1082,1081,1080,1080,1080,1080,1080,1088,1097,1099,1099,1099,1099,1099,1099,1099,1099,1099,1099,1099,1099,1099,1100],"ymouse":[500,500,500,500,500,500,500,500,500,500,500,500,500,500,499,497,497,496,496,496,496,496,496,496,496,494,494,492,486,472,464,452,440,426,412,376,345,323,306,285,276,266,259,259,256,249,240,226,217,210,200,200,200,197,186,147,117,105,101,101,101,101,101,101,101,101,101,101,100,100,91],"timestamp_mouse":[10,26,46,66,86,106,126,146,166,186,206,226,246,266,287,306,327,347,368,388,408,427,448,468,487,507,527,546,566,586,606,626,646,667,687,706,727,746,767,787,806,826,847,867,887,906,926,947,966,987,1007,1027,1047,1066,1086,1106,1128,1147,1167,1187,1206,1226,1247,1267,1288,1308,1327,1347,1367,1387,1406],"xSR":741.5,"ySR":469.95,"xT1":424.9,"yT1":0,"xT2":1058.1,"yT2":0,"toosoon":0,"cond_shown":"equaldotanddens","ratio_trial":900,"smaller_num":"9","larger_num":"10","correct_side":1,"subjID":"lauracamilagarciasanchez5","gender":"1","age":"9","school":"4"},{"start_time":1552055667977,"click_time":1552055668954,"finger_time":1552055668454,"fix_duration":1161.7809754377545,"trial":36,"RT":477,"MT":500,"sideResp":1,"stimulus":"img/500/equaldotsize/L/7_Ratio_500_L_10_R_5.png","xmouse":[785,785,785,785,785,785,785,785,785,785,785,785,785,785,785,785,785,785,785,785,785,785,785,785,784,773,764,747,717,711,704,696,687,666,655,644,632,624,593,576,560,549,543,539,537,537,533,528,518],"ymouse":[502,502,502,502,502,502,502,502,502,502,502,502,502,502,502,502,502,502,502,502,502,502,497,426,395,367,351,326,278,263,247,230,214,185,172,158,144,132,101,90,81,73,68,65,65,65,65,62,60],"timestamp_mouse":[17,38,58,77,98,118,138,157,177,198,218,238,259,279,298,317,337,357,379,398,418,437,457,477,498,517,537,558,577,598,617,638,658,677,697,717,737,757,777,798,817,838,858,877,897,919,938,957,977],"xSR":741.5,"ySR":469.95,"xT1":424.9,"yT1":0,"xT2":1058.1,"yT2":0,"toosoon":0,"cond_shown":"equaldotsize","ratio_trial":500,"smaller_num":"5","larger_num":"10","correct_side":1,"subjID":"lauracamilagarciasanchez5","gender":"1","age":"9","school":"4"},{"start_time":1552055670442,"click_time":1552055671594,"finger_time":1552055671014,"fix_duration":386.5599724316532,"trial":37,"RT":572,"MT":580,"sideResp":2,"stimulus":"img/500/equaldotanddens/R/12_Ratio_500_L_1_R_2.png","xmouse":[776,776,776,776,776,776,776,776,776,776,776,776,776,776,776,776,776,776,776,776,776,776,776,776,776,776,776,785,788,791,792,792,793,795,798,806,820,838,853,866,889,898,910,923,946,965,993,1001,1007,1014,1021,1027,1032,1041,1054,1065,1069,1071],"ymouse":[503,503,503,503,503,503,503,503,503,503,503,503,503,503,503,503,503,503,503,503,503,503,503,503,503,503,503,476,466,455,453,453,452,450,449,443,434,423,414,407,391,382,369,352,318,291,249,232,215,198,174,166,158,146,129,111,101,96],"timestamp_mouse":[18,36,52,73,93,112,132,153,173,193,212,232,253,273,293,312,333,352,372,392,414,433,452,473,492,512,533,553,572,593,613,633,654,673,693,712,732,752,773,792,812,832,852,873,893,913,933,952,972,992,1012,1032,1052,1072,1092,1113,1132,1152],"xSR":741.5,"ySR":469.95,"xT1":424.9,"yT1":0,"xT2":1058.1,"yT2":0,"toosoon":0,"cond_shown":"equaldotanddens","ratio_trial":500,"smaller_num":"1","larger_num":"2","correct_side":2,"subjID":"lauracamilagarciasanchez5","gender":"1","age":"9","school":"4"},{"start_time":1552055672908,"click_time":1552055673935,"finger_time":1552055673555,"fix_duration":250,"trial":38,"RT":647,"MT":380,"sideResp":2,"stimulus":"img/750/equaldotsize/R/5_Ratio_750_L_15_R_20.png","xmouse":[790,790,790,790,790,790,790,790,790,790,790,790,790,790,790,790,790,791,792,794,795,797,799,800,801,804,809,814,823,828,832,838,858,868,879,886,899,916,922,931,937,945,956,974,985,993,1004,1017,1045,1060,1071,1081],"ymouse":[508,508,508,508,508,508,508,508,508,508,508,508,508,508,508,508,508,508,508,507,506,505,504,504,503,502,499,494,487,484,481,476,453,439,423,405,383,350,333,312,299,284,267,233,216,201,184,168,136,116,103,90],"timestamp_mouse":[12,39,48,67,86,106,126,146,166,188,207,226,246,266,287,306,326,347,367,387,407,426,447,467,487,507,527,546,566,587,607,627,647,667,686,707,727,748,766,786,807,826,846,866,887,906,926,947,966,986,1006,1027],"xSR":741.5,"ySR":469.95,"xT1":424.9,"yT1":0,"xT2":1058.1,"yT2":0,"toosoon":0,"cond_shown":"equaldotsize","ratio_trial":750,"smaller_num":"15","larger_num":"20","correct_side":2,"subjID":"lauracamilagarciasanchez5","gender":"1","age":"9","school":"4"},{"start_time":1552055676526,"click_time":1552055678274,"finger_time":1552055677254,"fix_duration":250,"trial":39,"RT":728,"MT":1020,"sideResp":1,"stimulus":"img/750/randomdotsizeEA/L/14_Ratio_750_L_8_R_6.png","xmouse":[773,773,773,773,773,773,773,773,773,773,773,773,773,773,773,773,773,773,773,773,773,773,773,773,773,773,773,774,779,783,785,785,785,780,770,759,741,704,693,685,680,676,674,664,633,567,567,567,567,567,567,567,567,567,567,567,567,567,567,567,567,567,567,567,567,567,567,567,567,567,327,339,348,348,348,348,348,348,349,350,350,354,383,400,412,423,424,434],"ymouse":[546,546,546,546,547,547,547,547,547,547,547,547,547,547,547,547,547,547,547,547,547,547,547,547,547,547,547,547,544,542,540,534,515,504,492,483,470,438,422,403,374,346,280,215,125,17,17,17,17,17,17,17,17,17,17,17,17,17,17,17,17,17,17,17,17,17,17,17,17,17,4,11,16,16,16,16,16,16,16,16,16,15,11,9,7,6,6,6],"timestamp_mouse":[18,28,49,69,89,108,129,149,168,190,210,228,249,268,288,309,329,348,369,389,409,430,450,468,489,509,528,548,569,588,609,628,648,669,689,709,728,748,768,788,809,829,848,868,888,908,928,948,969,990,1009,1030,1049,1070,1089,1108,1128,1148,1168,1189,1208,1230,1249,1268,1288,1308,1328,1349,1368,1389,1408,1428,1448,1468,1488,1508,1529,1550,1569,1588,1609,1629,1650,1669,1689,1709,1729,1748],"xSR":741.5,"ySR":469.95,"xT1":424.9,"yT1":0,"xT2":1058.1,"yT2":0,"toosoon":0,"cond_shown":"randomdotsizeEA","ratio_trial":750,"smaller_num":"6","larger_num":"8","correct_side":1,"subjID":"lauracamilagarciasanchez5","gender":"1","age":"9","school":"4"},{"start_time":1552055680257,"click_time":1552055680994,"finger_time":1552055680875,"fix_duration":580.5982503357675,"trial":40,"RT":618,"MT":119,"sideResp":2,"stimulus":"img/500/randomdotsizeEA/L/8_Ratio_500_L_8_R_4.png","xmouse":[799,799,799,799,799,799,799,799,799,799,799,799,799,799,799,799,799,799,799,799,799,799,799,799,799,799,799,799,807,823,912,966,1009,1036,1048,1058,1059],"ymouse":[560,560,560,560,560,560,560,560,560,560,560,560,560,560,560,560,560,560,560,560,560,560,560,560,560,560,560,560,539,499,330,234,166,121,100,77,73],"timestamp_mouse":[17,39,58,77,98,117,137,157,177,198,219,238,258,278,297,318,338,359,378,397,417,438,458,478,498,517,537,557,578,598,618,637,658,677,697,719,737],"xSR":741.5,"ySR":469.95,"xT1":424.9,"yT1":0,"xT2":1058.1,"yT2":0,"toosoon":0,"cond_shown":"randomdotsizeEA","ratio_trial":500,"smaller_num":"4","larger_num":"8","correct_side":1,"subjID":"lauracamilagarciasanchez5","gender":"1","age":"9","school":"4"},{"start_time":1552055683699,"click_time":1552055685254,"finger_time":1552055684294,"fix_duration":1422.7919879235183,"trial":41,"RT":595,"MT":960,"sideResp":1,"stimulus":"img/750/equaldotsize/R/11_Ratio_750_L_12_R_16.png","xmouse":[805,805,805,805,805,805,804,803,802,802,802,801,801,801,801,801,801,800,799,798,798,798,798,798,798,798,798,803,807,819,826,834,839,844,857,865,872,880,889,900,901,901,902,902,902,894,879,859,828,807,795,781,765,746,703,690,679,670,655,612,594,584,554,517,484,481,475,471,464,456,450,446,444,444,444,444,445,445],"ymouse":[532,532,532,532,532,532,532,532,532,532,532,531,531,531,531,531,531,531,531,530,530,530,530,530,530,530,526,508,491,457,438,418,401,386,353,341,330,318,306,291,288,288,288,288,287,286,284,281,277,274,272,271,267,263,253,250,247,245,240,220,212,208,194,177,159,157,153,150,145,138,132,127,123,121,111,106,101,94],"timestamp_mouse":[15,42,56,75,95,116,135,156,175,195,216,235,256,275,295,315,335,355,375,397,416,436,455,476,497,516,535,556,575,595,616,636,655,675,695,716,735,756,776,795,816,835,856,875,896,915,935,955,975,995,1016,1035,1056,1077,1095,1115,1136,1155,1176,1197,1215,1236,1256,1276,1296,1316,1337,1357,1376,1396,1416,1436,1456,1475,1496,1516,1535,1555],"xSR":741.5,"ySR":469.95,"xT1":424.9,"yT1":0,"xT2":1058.1,"yT2":0,"toosoon":0,"cond_shown":"equaldotsize","ratio_trial":750,"smaller_num":"12","larger_num":"16","correct_side":2,"subjID":"lauracamilagarciasanchez5","gender":"1","age":"9","school":"4"},{"start_time":1552055688403,"click_time":1552055689696,"finger_time":1552055689094,"fix_duration":1406.3521710347322,"trial":42,"RT":691,"MT":602,"sideResp":2,"stimulus":"img/900/equaldotanddens/R/12_Ratio_900_L_18_R_20.png","xmouse":[763,763,763,763,763,763,763,763,763,763,763,763,763,763,763,763,763,763,763,763,763,763,763,763,763,763,763,763,763,763,767,779,791,806,832,851,877,898,924,936,939,943,948,954,971,983,995,1007,1016,1025,1028,1030,1034,1035,1040,1046,1051,1053,1054,1054,1054,1054,1055,1055,1062],"ymouse":[537,537,537,537,537,537,537,537,537,537,537,537,537,537,537,537,537,537,537,537,537,537,537,537,537,537,537,537,537,537,535,528,514,494,456,431,401,376,345,327,324,320,316,312,298,285,263,237,214,177,160,141,119,111,89,49,28,20,18,18,18,18,18,18,21],"timestamp_mouse":[11,32,51,76,92,113,131,151,172,192,213,233,253,272,291,312,331,352,371,391,412,433,452,472,491,512,532,551,571,592,612,632,651,671,691,711,731,751,772,792,811,831,851,871,892,911,931,952,972,992,1011,1031,1052,1071,1091,1112,1131,1152,1173,1192,1211,1231,1252,1271,1293],"xSR":741.5,"ySR":469.95,"xT1":424.9,"yT1":0,"xT2":1058.1,"yT2":0,"toosoon":0,"cond_shown":"equaldotanddens","ratio_trial":900,"smaller_num":"18","larger_num":"20","correct_side":2,"subjID":"lauracamilagarciasanchez5","gender":"1","age":"9","school":"4"},{"start_time":1552055691525,"click_time":1552055692614,"finger_time":1552055692214,"fix_duration":829.3906259489482,"trial":43,"RT":689,"MT":400,"sideResp":1,"stimulus":"img/900/equaldotanddens/L/1_Ratio_900_L_10_R_9.png","xmouse":[797,797,797,797,797,797,797,797,797,797,797,797,797,797,797,797,797,797,797,797,797,797,797,797,797,797,797,797,797,797,797,797,797,792,762,736,716,695,676,633,610,601,596,589,585,576,570,560,554,545,543,541,537,533,518],"ymouse":[537,537,537,537,537,537,537,537,537,537,537,537,537,537,537,537,537,537,537,537,537,537,537,537,537,537,537,537,537,537,537,537,537,521,456,428,406,388,369,339,323,314,306,289,276,257,239,224,212,188,170,157,143,129,84],"timestamp_mouse":[12,39,50,70,89,110,129,150,170,191,211,231,249,269,289,310,330,350,369,389,409,429,449,470,489,509,529,551,569,589,610,629,650,669,689,710,730,749,770,789,809,830,850,870,889,909,929,949,970,989,1011,1031,1049,1069,1089],"xSR":741.5,"ySR":469.95,"xT1":424.9,"yT1":0,"xT2":1058.1,"yT2":0,"toosoon":0,"cond_shown":"equaldotanddens","ratio_trial":900,"smaller_num":"9","larger_num":"10","correct_side":1,"subjID":"lauracamilagarciasanchez5","gender":"1","age":"9","school":"4"},{"start_time":1552055694064,"click_time":1552055695154,"finger_time":1552055694535,"fix_duration":368.3712356756926,"trial":44,"RT":471,"MT":619,"sideResp":2,"stimulus":"img/900/randomdotsizeEA/L/1_Ratio_900_L_10_R_9.png","xmouse":[809,809,809,809,809,809,809,809,809,809,809,809,809,809,809,809,809,809,808,808,807,805,800,799,797,796,795,794,797,802,804,805,806,806,807,807,807,807,809,818,831,846,881,898,914,930,947,981,993,1004,1012,1019,1042,1051,1059],"ymouse":[553,553,553,553,553,553,553,553,553,553,553,553,553,553,553,553,553,553,552,542,530,519,473,457,446,433,422,403,388,371,360,351,334,326,322,322,322,322,320,316,309,299,262,250,238,222,202,162,144,127,108,94,61,49,40],"timestamp_mouse":[20,30,50,70,90,110,131,151,170,192,210,230,251,270,290,310,330,350,371,392,410,430,450,471,490,510,530,550,571,590,611,630,650,672,691,710,731,750,771,791,811,832,850,871,890,910,930,950,970,990,1010,1030,1050,1071,1090],"xSR":741.5,"ySR":469.95,"xT1":424.9,"yT1":0,"xT2":1058.1,"yT2":0,"toosoon":0,"cond_shown":"randomdotsizeEA","ratio_trial":900,"smaller_num":"9","larger_num":"10","correct_side":1,"subjID":"lauracamilagarciasanchez5","gender":"1","age":"9","school":"4"},{"start_time":1552055697310,"click_time":1552055698394,"finger_time":1552055698014,"fix_duration":393.6595808417619,"trial":45,"RT":704,"MT":380,"sideResp":2,"stimulus":"img/500/equaldotsize/R/6_Ratio_500_L_9_R_18.png","xmouse":[786,786,786,786,786,786,786,786,786,786,786,786,786,786,786,786,786,786,786,786,786,786,786,786,786,786,786,786,786,786,786,786,788,789,804,874,894,899,911,935,963,973,982,994,1012,1047,1059,1069,1075,1077,1083,1084,1088,1090,1091],"ymouse":[512,512,512,512,512,512,512,512,512,512,512,512,512,512,512,512,512,512,512,512,512,512,512,512,512,512,512,512,512,512,512,512,511,510,503,423,395,385,365,332,295,283,272,255,233,202,189,175,166,160,140,130,118,108,97],"timestamp_mouse":[13,42,44,64,84,104,125,145,165,185,204,225,246,264,285,305,325,344,364,385,405,425,445,464,486,505,525,545,565,584,605,625,645,665,685,704,724,745,765,784,805,824,845,864,885,905,924,945,964,985,1006,1024,1045,1064,1084],"xSR":741.5,"ySR":469.95,"xT1":424.9,"yT1":0,"xT2":1058.1,"yT2":0,"toosoon":0,"cond_shown":"equaldotsize","ratio_trial":500,"smaller_num":"9","larger_num":"18","correct_side":2,"subjID":"lauracamilagarciasanchez5","gender":"1","age":"9","school":"4"},{"start_time":1552055700468,"click_time":1552055702655,"finger_time":1552055701454,"fix_duration":1032.1949966096263,"trial":46,"RT":986,"MT":1201,"sideResp":2,"stimulus":"img/900/equaldotanddens/R/3_Ratio_900_L_9_R_10.png","xmouse":[793,793,793,793,793,793,793,793,793,793,793,793,793,793,793,793,793,793,793,793,793,793,793,793,793,793,793,793,793,793,793,793,793,793,793,793,793,793,793,793,793,793,793,793,793,793,793,793,789,776,760,749,730,721,715,709,702,696,673,661,653,638,624,589,573,557,557,557,557,557,557,557,557,557,557,557,557,557,557,557,552,554,554,559,568,578,595,631,667,692,712,732,751,791,822,861,903,925,954,967,984,997,1012,1031,1035,1036,1036,1039,1056,1060],"ymouse":[496,496,496,496,496,496,496,496,496,496,496,496,496,496,496,496,496,496,496,496,496,496,496,496,496,496,496,496,496,496,496,496,496,496,496,496,496,496,496,496,496,496,496,496,496,496,496,496,477,401,362,344,310,293,276,260,240,222,174,150,138,118,93,45,20,3,3,3,3,3,3,3,3,3,3,3,3,3,3,3,2,4,6,7,10,13,19,21,21,21,21,21,21,13,8,7,6,3,2,2,4,4,6,6,6,5,5,4,6,6],"timestamp_mouse":[9,27,48,67,86,108,127,147,166,186,206,226,247,266,287,306,326,348,366,387,407,428,447,466,486,508,526,546,567,587,607,626,646,667,686,707,728,746,767,786,808,827,847,867,886,906,927,947,967,986,1006,1027,1048,1066,1086,1108,1127,1146,1167,1187,1206,1226,1246,1266,1287,1307,1327,1347,1367,1387,1406,1426,1448,1466,1486,1507,1527,1546,1567,1586,1607,1628,1646,1666,1686,1707,1726,1747,1766,1787,1808,1827,1846,1868,1887,1906,1926,1947,1966,1986,2006,2027,2047,2067,2087,2107,2127,2147,2166,2187],"xSR":741.5,"ySR":469.95,"xT1":424.9,"yT1":0,"xT2":1058.1,"yT2":0,"toosoon":0,"cond_shown":"equaldotanddens","ratio_trial":900,"smaller_num":"9","larger_num":"10","correct_side":2,"subjID":"lauracamilagarciasanchez5","gender":"1","age":"9","school":"4"},{"start_time":1552055705669,"click_time":1552055707355,"finger_time":1552055706414,"fix_duration":1391.7986367994065,"trial":47,"RT":745,"MT":941,"sideResp":1,"stimulus":"img/500/equaldotanddens/L/10_Ratio_500_L_4_R_2.png","xmouse":[756,756,756,756,756,756,756,756,756,756,756,756,756,756,756,756,756,756,756,756,756,756,756,756,756,756,756,756,756,756,756,756,756,756,756,756,756,748,732,718,703,684,670,649,643,639,638,631,613,599,585,575,570,563,559,552,541,538,537,537,537,537,537,537,537,537,537,537,537,536,535,535,535,535,535,535,535,535,535,535,534,534,534,534,523],"ymouse":[518,518,518,518,518,518,518,518,518,518,518,518,518,518,518,518,518,518,518,518,518,518,518,518,518,518,518,518,518,518,518,518,518,518,518,518,500,450,405,378,344,317,291,255,244,229,222,196,163,144,128,116,109,99,94,91,88,88,88,88,88,88,88,88,88,88,88,88,88,88,88,88,88,88,88,88,88,88,88,88,87,87,87,87,91],"timestamp_mouse":[9,27,46,65,85,106,125,145,165,186,206,225,247,267,286,305,326,347,365,386,407,426,446,466,485,505,525,546,565,586,606,626,646,666,685,705,726,745,766,785,805,825,847,867,885,906,925,945,966,985,1006,1026,1045,1067,1086,1105,1125,1146,1166,1186,1205,1225,1245,1266,1287,1306,1327,1346,1366,1386,1406,1425,1445,1465,1485,1506,1526,1546,1566,1586,1607,1626,1645,1666,1686],"xSR":741.5,"ySR":469.95,"xT1":424.9,"yT1":0,"xT2":1058.1,"yT2":0,"toosoon":0,"cond_shown":"equaldotanddens","ratio_trial":500,"smaller_num":"2","larger_num":"4","correct_side":1,"subjID":"lauracamilagarciasanchez5","gender":"1","age":"9","school":"4"},{"start_time":1552055711152,"click_time":1552055712535,"finger_time":1552055711914,"fix_duration":776.9070336095632,"trial":48,"RT":762,"MT":621,"sideResp":2,"stimulus":"img/500/randomdotsizeEA/R/12_Ratio_500_L_1_R_2.png","xmouse":[763,763,763,763,763,763,763,763,763,763,763,763,763,763,763,763,763,763,763,763,763,763,763,763,764,767,769,772,775,781,792,796,798,799,800,810,818,827,838,854,878,890,902,919,945,1003,1019,1031,1037,1041,1047,1053,1064,1074,1082,1088,1088,1088,1088,1088,1088,1088,1088,1088,1088,1088,1088,1088,1088,1090],"ymouse":[538,538,538,538,538,538,538,538,538,538,538,538,538,538,538,538,538,538,538,538,538,538,538,538,538,536,535,534,532,529,523,522,521,520,519,510,497,482,467,449,428,417,405,386,364,320,302,284,269,253,208,189,172,157,144,128,124,124,124,124,124,124,124,124,124,124,124,123,101,76],"timestamp_mouse":[9,35,42,62,82,102,122,143,163,183,203,222,242,263,282,302,323,342,363,383,403,423,443,462,483,502,523,543,563,583,602,623,642,662,682,702,722,742,762,782,802,822,842,863,883,902,923,942,962,982,1002,1022,1043,1062,1083,1102,1123,1142,1163,1182,1202,1222,1243,1263,1283,1302,1323,1343,1362,1383],"xSR":741.5,"ySR":469.95,"xT1":424.9,"yT1":0,"xT2":1058.1,"yT2":0,"toosoon":0,"cond_shown":"randomdotsizeEA","ratio_trial":500,"smaller_num":"1","larger_num":"2","correct_side":2,"subjID":"lauracamilagarciasanchez5","gender":"1","age":"9","school":"4"},{"start_time":1552055714411,"click_time":1552055715334,"finger_time":1552055715134,"fix_duration":575.1508221172732,"trial":49,"RT":723,"MT":200,"sideResp":2,"stimulus":"img/750/equaldotanddens/R/5_Ratio_750_L_15_R_20.png","xmouse":[771,771,771,771,771,771,771,771,771,771,771,771,771,771,771,771,771,771,771,771,771,771,771,771,771,771,771,771,771,772,774,783,800,810,827,834,855,882,891,904,916,932,946,982,1010,1046,1086],"ymouse":[522,522,522,522,522,522,522,522,522,522,522,522,522,522,522,522,522,522,522,522,522,522,522,522,522,522,522,522,522,522,521,517,508,503,495,491,479,457,442,421,396,365,333,247,182,114,47],"timestamp_mouse":[9,24,43,63,85,103,125,143,163,183,204,223,243,263,284,303,324,344,364,384,403,423,444,463,484,504,524,544,564,583,603,623,644,663,684,704,723,743,763,784,804,823,843,863,884,904,923],"xSR":741.5,"ySR":469.95,"xT1":424.9,"yT1":0,"xT2":1058.1,"yT2":0,"toosoon":0,"cond_shown":"equaldotanddens","ratio_trial":750,"smaller_num":"15","larger_num":"20","correct_side":2,"subjID":"lauracamilagarciasanchez5","gender":"1","age":"9","school":"4"},{"start_time":1552055717751,"click_time":1552055718795,"finger_time":1552055718194,"fix_duration":875.3997896680593,"trial":50,"RT":443,"MT":601,"sideResp":2,"stimulus":"img/750/equaldotsize/L/6_Ratio_750_L_24_R_18.png","xmouse":[809,809,809,809,809,809,809,809,809,809,809,809,809,809,809,809,809,809,809,810,813,832,842,848,853,859,880,888,890,893,897,909,916,920,925,937,949,957,964,969,990,999,1009,1015,1021,1026,1042,1053,1058,1063,1070,1097,1116],"ymouse":[498,498,498,498,498,498,498,498,498,498,498,498,498,498,498,498,498,498,498,498,496,487,481,477,473,465,444,432,420,409,397,368,354,340,326,295,272,257,245,236,213,204,195,188,181,176,161,151,145,137,128,104,90],"timestamp_mouse":[9,23,44,63,83,103,123,143,164,184,203,224,243,264,284,303,324,344,363,383,405,423,443,464,483,503,523,544,564,583,604,625,644,663,684,705,723,744,763,784,805,823,843,863,883,904,923,944,963,984,1003,1023,1044],"xSR":741.5,"ySR":469.95,"xT1":424.9,"yT1":0,"xT2":1058.1,"yT2":0,"toosoon":0,"cond_shown":"equaldotsize","ratio_trial":750,"smaller_num":"18","larger_num":"24","correct_side":1,"subjID":"lauracamilagarciasanchez5","gender":"1","age":"9","school":"4"},{"start_time":1552055721606,"click_time":1552055722674,"finger_time":1552055722274,"fix_duration":1169.6436150101736,"trial":51,"RT":668,"MT":400,"sideResp":1,"stimulus":"img/500/randomdotsizeEA/L/11_Ratio_500_L_12_R_6.png","xmouse":[760,760,760,760,760,760,760,760,760,760,760,760,760,760,760,760,760,760,760,760,760,760,760,760,760,760,760,760,760,760,760,760,760,739,724,712,698,683,658,650,641,634,622,605,595,584,570,549,531,502,497,493,485,470],"ymouse":[490,490,490,490,490,490,490,490,490,490,490,490,490,490,490,490,490,490,490,490,490,490,490,490,490,490,490,490,490,490,490,490,490,437,412,390,369,349,316,306,295,287,269,248,237,224,208,188,173,147,137,127,111,90],"timestamp_mouse":[10,37,48,68,88,108,129,149,169,189,210,228,249,269,288,309,329,348,369,389,410,429,449,469,489,509,528,549,569,588,609,629,648,668,690,708,729,749,769,788,808,828,849,868,890,908,929,949,968,988,1008,1028,1049,1068],"xSR":741.5,"ySR":469.95,"xT1":424.9,"yT1":0,"xT2":1058.1,"yT2":0,"toosoon":0,"cond_shown":"randomdotsizeEA","ratio_trial":500,"smaller_num":"6","larger_num":"12","correct_side":1,"subjID":"lauracamilagarciasanchez5","gender":"1","age":"9","school":"4"},{"start_time":1552055724703,"click_time":1552055726176,"finger_time":1552055725456,"fix_duration":1045.3628678105606,"trial":52,"RT":753,"MT":720,"sideResp":2,"stimulus":"img/750/equaldotanddens/R/3_Ratio_750_L_15_R_20.png","xmouse":[786,786,786,786,786,786,786,786,786,786,786,786,786,786,786,786,786,786,786,786,786,786,786,786,786,786,786,786,786,786,786,786,786,786,786,786,786,786,791,794,799,802,804,808,823,839,854,857,864,878,887,895,906,916,936,938,959,977,993,1017,1025,1029,1031,1033,1038,1040,1041,1043,1046,1054,1058,1060,1063,1072],"ymouse":[530,530,530,530,530,530,530,530,530,530,528,528,528,528,528,528,528,528,528,528,528,528,528,528,528,528,524,519,515,514,513,511,508,503,491,482,474,466,443,432,420,414,407,402,386,371,358,355,349,334,323,316,309,301,290,287,270,254,238,205,189,175,162,149,137,132,131,127,122,113,108,105,101,86],"timestamp_mouse":[11,48,51,72,92,111,131,152,171,192,212,232,251,271,292,313,332,352,372,392,413,432,452,472,492,511,532,552,571,592,612,632,652,671,691,711,731,753,772,791,812,832,851,873,892,911,931,952,971,991,1012,1031,1051,1071,1091,1112,1132,1152,1171,1191,1212,1232,1251,1273,1291,1312,1331,1351,1372,1391,1412,1433,1452,1473],"xSR":741.5,"ySR":469.95,"xT1":424.9,"yT1":0,"xT2":1058.1,"yT2":0,"toosoon":0,"cond_shown":"equaldotanddens","ratio_trial":750,"smaller_num":"15","larger_num":"20","correct_side":2,"subjID":"lauracamilagarciasanchez5","gender":"1","age":"9","school":"4"},{"start_time":1552055728019,"click_time":1552055729294,"finger_time":1552055728594,"fix_duration":1043.337603960676,"trial":53,"RT":575,"MT":700,"sideResp":1,"stimulus":"img/750/equaldotsize/L/8_Ratio_750_L_4_R_3.png","xmouse":[774,774,774,774,774,774,774,774,774,774,774,774,774,774,774,774,774,774,774,774,774,774,774,773,771,770,767,760,721,687,640,582,516,408,362,336,304,282,241,227,223,220,219,221,232,246,263,279,309,314,325,341,360,386,390,392,397,401,404,405,405,406,410,441],"ymouse":[516,516,516,516,516,516,516,516,516,516,516,516,516,516,516,516,516,516,516,516,516,516,516,516,515,515,514,511,489,465,431,389,342,258,219,195,168,149,104,88,80,76,72,60,54,46,39,32,20,20,20,22,24,28,29,29,30,30,32,32,32,32,32,37],"timestamp_mouse":[16,39,56,76,95,115,136,155,175,195,215,237,256,276,295,315,336,356,375,395,417,435,456,475,496,516,536,556,575,596,616,635,655,675,695,715,736,755,775,795,815,835,855,875,895,916,936,955,976,996,1016,1035,1056,1075,1096,1116,1136,1155,1175,1195,1216,1236,1256,1275],"xSR":741.5,"ySR":469.95,"xT1":424.9,"yT1":0,"xT2":1058.1,"yT2":0,"toosoon":0,"cond_shown":"equaldotsize","ratio_trial":750,"smaller_num":"3","larger_num":"4","correct_side":1,"subjID":"lauracamilagarciasanchez5","gender":"1","age":"9","school":"4"},{"start_time":1552055731022,"click_time":1552055731814,"finger_time":1552055731534,"fix_duration":445.05667002978674,"trial":54,"RT":512,"MT":280,"sideResp":1,"stimulus":"img/500/randomdotsizeEA/R/14_Ratio_500_L_5_R_10.png","xmouse":[753,753,753,753,754,754,754,754,754,754,754,754,754,754,754,754,754,754,754,754,754,754,754,754,750,737,717,708,684,669,647,634,631,631,623,610,592,561,526,513],"ymouse":[488,488,488,488,488,488,488,488,488,488,488,488,488,488,488,488,488,488,488,488,488,488,488,488,478,457,416,397,346,322,289,266,259,259,240,210,181,139,75,52],"timestamp_mouse":[12,47,52,72,93,113,134,152,173,193,212,232,252,272,292,312,333,352,373,392,413,432,452,473,493,512,532,553,572,593,613,634,652,673,692,713,732,752,772,792],"xSR":741.5,"ySR":469.95,"xT1":424.9,"yT1":0,"xT2":1058.1,"yT2":0,"toosoon":0,"cond_shown":"randomdotsizeEA","ratio_trial":500,"smaller_num":"5","larger_num":"10","correct_side":2,"subjID":"lauracamilagarciasanchez5","gender":"1","age":"9","school":"4"},{"start_time":1552055732878,"click_time":1552055733696,"finger_time":1552055733376,"fix_duration":341.771858527563,"trial":55,"RT":498,"MT":320,"sideResp":2,"stimulus":"img/900/equaldotanddens/R/6_Ratio_900_L_9_R_10.png","xmouse":[766,766,766,766,766,766,770,777,785,787,787,787,787,787,787,787,787,787,787,788,795,802,811,816,827,832,833,835,838,840,849,858,864,874,888,926,947,979,1018,1047,1059],"ymouse":[513,513,513,513,513,513,513,509,505,505,505,505,505,505,505,505,505,505,505,502,494,487,479,473,460,445,434,422,404,381,330,303,283,260,235,194,175,149,122,104,98],"timestamp_mouse":[18,36,56,77,96,116,137,156,176,197,216,236,257,278,296,317,337,356,376,397,417,437,457,477,497,517,536,556,576,597,617,636,657,678,696,717,737,756,776,797,818],"xSR":741.5,"ySR":469.95,"xT1":424.9,"yT1":0,"xT2":1058.1,"yT2":0,"toosoon":0,"cond_shown":"equaldotanddens","ratio_trial":900,"smaller_num":"9","larger_num":"10","correct_side":2,"subjID":"lauracamilagarciasanchez5","gender":"1","age":"9","school":"4"},{"start_time":1552055735972,"click_time":1552055737874,"finger_time":1552055737494,"fix_duration":1156.8484973240838,"trial":56,"RT":1522,"MT":380,"sideResp":2,"stimulus":"img/750/equaldotanddens/L/1_Ratio_750_L_20_R_15.png","xmouse":[813,813,813,813,813,813,813,813,813,813,813,813,813,813,813,813,813,813,813,813,813,813,813,813,813,813,813,813,813,813,813,813,813,813,813,813,813,813,813,813,813,813,813,813,813,813,813,813,813,813,813,813,813,813,813,813,813,813,813,813,813,813,813,813,813,813,813,813,813,813,813,813,813,813,813,826,846,882,890,894,896,898,900,903,908,916,923,952,965,975,984,992,1014,1028,1045,1087],"ymouse":[536,536,536,536,536,536,536,536,536,536,536,536,536,536,536,536,536,536,536,536,536,536,536,536,536,536,536,536,536,536,536,536,536,536,536,536,536,536,536,536,536,536,536,536,536,536,536,536,536,536,536,536,536,536,536,536,536,536,536,536,536,536,536,536,536,536,536,536,536,536,536,536,536,536,536,511,474,422,406,397,390,387,382,377,371,359,349,310,294,279,262,246,195,171,142,72],"timestamp_mouse":[11,23,48,62,83,102,123,143,163,182,202,222,243,262,283,302,323,342,362,383,402,423,442,463,483,503,522,543,562,583,602,623,643,663,683,703,722,743,762,783,803,822,843,862,882,902,923,942,963,983,1003,1023,1042,1063,1083,1103,1122,1142,1163,1183,1203,1222,1243,1263,1283,1303,1323,1342,1363,1383,1402,1423,1443,1463,1483,1502,1522,1542,1562,1582,1603,1622,1642,1663,1682,1703,1723,1742,1762,1783,1803,1823,1843,1863,1882,1902],"xSR":741.5,"ySR":469.95,"xT1":424.9,"yT1":0,"xT2":1058.1,"yT2":0,"toosoon":0,"cond_shown":"equaldotanddens","ratio_trial":750,"smaller_num":"15","larger_num":"20","correct_side":1,"subjID":"lauracamilagarciasanchez5","gender":"1","age":"9","school":"4"},{"start_time":1552055743216,"click_time":1552055744275,"finger_time":1552055743715,"fix_duration":540.4722852799918,"trial":57,"RT":499,"MT":560,"sideResp":1,"stimulus":"img/900/randomdotsizeEA/R/3_Ratio_900_L_9_R_10.png","xmouse":[780,780,780,780,780,780,780,780,780,780,780,780,780,780,780,780,780,780,780,780,779,773,759,744,703,685,667,641,632,621,620,620,620,620,618,615,610,606,604,603,603,602,598,579,558,521,510,503,497,494,487,486,486],"ymouse":[502,502,502,502,502,502,502,502,502,502,502,502,502,502,502,502,502,502,502,502,502,499,493,484,454,436,411,375,359,333,329,328,328,324,293,275,258,244,240,238,238,237,232,219,203,169,155,142,129,119,103,101,99],"timestamp_mouse":[18,38,58,78,98,118,139,158,179,199,219,239,259,279,298,318,339,359,379,398,419,439,458,478,499,518,538,558,578,600,618,639,658,679,700,718,739,759,778,799,818,839,859,878,898,919,938,958,978,998,1018,1038,1059],"xSR":741.5,"ySR":469.95,"xT1":424.9,"yT1":0,"xT2":1058.1,"yT2":0,"toosoon":0,"cond_shown":"randomdotsizeEA","ratio_trial":900,"smaller_num":"9","larger_num":"10","correct_side":2,"subjID":"lauracamilagarciasanchez5","gender":"1","age":"9","school":"4"},{"start_time":1552055746147,"click_time":1552055747075,"finger_time":1552055746734,"fix_duration":1149.206232642889,"trial":58,"RT":587,"MT":341,"sideResp":2,"stimulus":"img/250/equaldotanddens/R/11_Ratio_250_L_3_R_12.png","xmouse":[791,791,791,791,791,791,791,791,791,791,791,791,791,791,791,791,791,791,791,791,791,791,791,791,791,791,791,791,792,808,825,848,865,883,927,945,962,980,993,1017,1028,1035,1044,1052,1075,1083,1088],"ymouse":[504,504,504,504,504,504,504,504,504,504,504,504,504,504,504,504,504,504,504,504,504,504,504,504,504,504,504,504,496,458,429,392,361,329,268,244,224,209,196,174,161,155,148,139,112,102,92],"timestamp_mouse":[10,28,47,69,88,108,128,147,168,188,208,228,248,267,287,307,328,347,368,387,407,427,448,468,488,507,528,547,567,587,607,628,648,667,688,707,727,747,767,788,807,827,848,867,887,909,928],"xSR":741.5,"ySR":469.95,"xT1":424.9,"yT1":0,"xT2":1058.1,"yT2":0,"toosoon":0,"cond_shown":"equaldotanddens","ratio_trial":250,"smaller_num":"3","larger_num":"12","correct_side":2,"subjID":"lauracamilagarciasanchez5","gender":"1","age":"9","school":"4"},{"start_time":1552055752201,"click_time":1552055753535,"finger_time":1552055752955,"fix_duration":324.96442314103666,"trial":59,"RT":754,"MT":580,"sideResp":2,"stimulus":"img/900/equaldotsize/R/9_Ratio_900_L_18_R_20.png","xmouse":[796,796,796,796,796,796,796,796,796,796,796,796,796,796,796,796,796,796,796,796,796,796,796,796,796,796,796,796,796,796,796,796,796,796,796,795,797,822,830,836,841,850,873,881,892,907,920,940,955,968,981,1004,1010,1017,1022,1022,1022,1022,1022,1022,1022,1022,1022,1022,1022,1084,1087],"ymouse":[522,522,522,522,522,522,522,522,522,522,522,522,522,522,522,522,522,522,522,522,522,522,522,522,522,522,522,522,522,522,522,522,522,522,522,519,496,422,400,381,362,340,300,283,263,240,217,182,150,128,104,55,34,16,4,4,4,4,4,4,4,4,4,4,4,0,2],"timestamp_mouse":[14,38,54,73,93,114,133,154,173,193,214,233,254,273,293,314,334,354,374,394,414,434,454,474,494,513,533,554,573,593,613,634,653,673,693,713,733,754,774,794,813,833,853,873,894,914,933,953,973,994,1014,1034,1053,1074,1093,1113,1133,1153,1173,1193,1213,1234,1253,1273,1293,1314,1334],"xSR":741.5,"ySR":469.95,"xT1":424.9,"yT1":0,"xT2":1058.1,"yT2":0,"toosoon":0,"cond_shown":"equaldotsize","ratio_trial":900,"smaller_num":"18","larger_num":"20","correct_side":2,"subjID":"lauracamilagarciasanchez5","gender":"1","age":"9","school":"4"},{"start_time":1552055754903,"click_time":1552055756076,"finger_time":1552055755494,"fix_duration":266.51844525271116,"trial":60,"RT":591,"MT":582,"sideResp":1,"stimulus":"img/900/randomdotsizeEA/L/4_Ratio_900_L_20_R_18.png","xmouse":[770,770,770,770,770,770,770,770,770,770,770,770,770,770,770,770,770,770,770,770,770,770,770,770,770,770,768,758,753,737,727,715,700,698,697,697,697,694,691,689,682,672,637,624,616,605,589,563,557,556,556,556,556,556,556,555,553,531,511],"ymouse":[537,537,537,537,537,537,537,537,537,537,537,537,537,537,537,537,537,537,537,537,537,537,537,537,537,537,536,509,492,469,454,436,370,343,316,286,264,229,214,195,174,151,101,85,76,67,53,38,36,36,36,36,36,36,36,36,36,36,39],"timestamp_mouse":[11,43,52,71,92,112,132,151,171,192,211,232,252,272,292,311,332,351,373,392,411,432,451,473,493,512,531,551,572,591,611,632,651,672,691,712,732,751,771,792,812,831,851,871,891,911,932,951,972,992,1011,1031,1052,1071,1092,1111,1131,1151,1173],"xSR":741.5,"ySR":469.95,"xT1":424.9,"yT1":0,"xT2":1058.1,"yT2":0,"toosoon":0,"cond_shown":"randomdotsizeEA","ratio_trial":900,"smaller_num":"18","larger_num":"20","correct_side":1,"subjID":"lauracamilagarciasanchez5","gender":"1","age":"9","school":"4"},{"start_time":1552055758144,"click_time":1552055758915,"finger_time":1552055758675,"fix_duration":1307.6469487049562,"trial":61,"RT":531,"MT":240,"sideResp":2,"stimulus":"img/500/equaldotanddens/R/12_Ratio_500_L_1_R_2.png","xmouse":[779,779,779,779,779,779,779,779,779,779,779,779,779,779,779,779,779,779,779,779,779,779,779,781,785,799,811,826,832,842,888,913,952,989,1025,1063,1119,1134,1145],"ymouse":[517,517,517,517,517,517,517,517,517,517,517,517,517,517,517,517,517,511,500,492,485,485,485,481,477,470,465,459,457,453,425,403,368,321,276,226,139,111,84],"timestamp_mouse":[12,44,50,71,90,112,131,150,170,191,211,231,250,271,291,310,331,350,370,391,411,431,450,471,490,510,531,550,571,590,611,632,650,671,691,711,730,751,771],"xSR":741.5,"ySR":469.95,"xT1":424.9,"yT1":0,"xT2":1058.1,"yT2":0,"toosoon":0,"cond_shown":"equaldotanddens","ratio_trial":500,"smaller_num":"1","larger_num":"2","correct_side":2,"subjID":"lauracamilagarciasanchez5","gender":"1","age":"9","school":"4"},{"start_time":1552055761464,"click_time":1552055762634,"finger_time":1552055762274,"fix_duration":867.5342917075639,"trial":62,"RT":810,"MT":360,"sideResp":1,"stimulus":"img/900/equaldotanddens/R/11_Ratio_900_L_18_R_20.png","xmouse":[767,767,767,767,767,767,767,767,767,767,767,767,767,767,767,767,767,767,767,767,767,767,767,767,767,767,767,767,767,767,767,767,767,767,767,767,767,769,772,773,769,759,738,709,672,612,591,578,571,570,570,570,570,566,537,518,498,470,448],"ymouse":[520,520,520,520,520,520,520,520,520,520,520,520,520,520,520,520,520,520,520,520,520,520,520,520,520,520,520,520,520,520,520,520,520,520,520,520,520,509,496,482,444,425,400,370,331,271,247,232,224,220,220,220,220,220,204,183,151,112,81],"timestamp_mouse":[10,34,51,70,91,111,130,150,170,191,211,230,250,270,290,310,331,352,371,390,411,432,450,471,492,511,531,551,571,590,611,631,650,671,690,711,730,751,771,791,810,830,851,870,890,910,930,950,971,992,1011,1030,1050,1070,1092,1110,1130,1151,1170],"xSR":741.5,"ySR":469.95,"xT1":424.9,"yT1":0,"xT2":1058.1,"yT2":0,"toosoon":0,"cond_shown":"equaldotanddens","ratio_trial":900,"smaller_num":"18","larger_num":"20","correct_side":2,"subjID":"lauracamilagarciasanchez5","gender":"1","age":"9","school":"4"},{"start_time":1552055766050,"click_time":1552055767175,"finger_time":1552055766714,"fix_duration":1153.2632522015963,"trial":63,"RT":664,"MT":461,"sideResp":1,"stimulus":"img/900/equaldotsize/R/12_Ratio_900_L_18_R_20.png","xmouse":[805,805,805,805,805,805,805,805,805,805,806,807,807,807,807,807,807,807,807,807,807,807,807,807,807,807,807,807,807,807,804,800,795,791,782,771,757,726,710,696,691,676,666,655,648,628,590,578,573,571,571,567,563,555,541,526,511],"ymouse":[509,509,509,509,509,509,509,509,509,509,509,505,505,505,505,504,504,504,504,504,504,504,504,504,504,504,504,504,504,502,490,480,471,460,444,425,407,358,336,313,300,271,254,238,228,208,166,151,142,138,134,125,119,109,92,77,64],"timestamp_mouse":[16,32,44,64,84,104,124,144,165,184,205,224,244,264,284,305,325,344,364,385,404,424,444,464,485,504,525,546,564,584,605,624,644,664,685,705,725,744,765,785,804,824,844,864,884,904,925,944,964,985,1004,1025,1045,1065,1084,1105,1125],"xSR":741.5,"ySR":469.95,"xT1":424.9,"yT1":0,"xT2":1058.1,"yT2":0,"toosoon":0,"cond_shown":"equaldotsize","ratio_trial":900,"smaller_num":"18","larger_num":"20","correct_side":2,"subjID":"lauracamilagarciasanchez5","gender":"1","age":"9","school":"4"},{"start_time":1552055769274,"click_time":1552055770354,"finger_time":1552055769894,"fix_duration":757.1401870213936,"trial":64,"RT":620,"MT":460,"sideResp":1,"stimulus":"img/250/randomdotsizeEA/L/7_Ratio_250_L_8_R_2.png","xmouse":[758,758,758,758,758,758,758,758,758,758,758,758,758,758,758,758,758,758,758,758,758,758,758,758,758,758,758,758,758,758,754,734,699,656,613,581,544,533,518,514,496,492,489,489,489,489,489,489,489,489,489,489,489,488,486],"ymouse":[508,508,508,508,508,508,508,508,508,508,508,508,508,508,508,508,508,508,508,508,508,508,508,508,508,508,508,508,508,508,501,463,418,365,312,272,222,203,181,175,139,131,125,124,124,124,124,124,124,124,124,124,124,109,94],"timestamp_mouse":[9,20,41,68,81,101,120,140,161,181,201,220,241,261,280,300,320,340,360,381,401,420,440,460,480,501,520,541,560,581,600,620,640,661,680,700,720,740,761,780,802,820,840,861,881,900,921,940,960,981,1001,1020,1040,1060,1080],"xSR":741.5,"ySR":469.95,"xT1":424.9,"yT1":0,"xT2":1058.1,"yT2":0,"toosoon":0,"cond_shown":"randomdotsizeEA","ratio_trial":250,"smaller_num":"2","larger_num":"8","correct_side":1,"subjID":"lauracamilagarciasanchez5","gender":"1","age":"9","school":"4"},{"start_time":1552055772906,"click_time":1552055773935,"finger_time":1552055773434,"fix_duration":250,"trial":65,"RT":528,"MT":501,"sideResp":1,"stimulus":"img/250/randomdotsizeEA/L/1_Ratio_250_L_8_R_2.png","xmouse":[820,814,812,809,807,805,803,801,800,800,798,797,797,797,797,797,797,797,797,797,797,797,797,797,785,762,737,719,711,704,699,691,681,668,652,649,643,635,620,589,580,578,573,561,541,538,537,537,537,537,527,513],"ymouse":[513,513,514,514,515,515,516,517,517,518,518,519,519,519,519,519,519,519,519,519,519,519,519,519,510,480,446,417,399,372,357,337,314,291,251,231,209,186,165,127,109,100,86,68,50,49,48,48,48,48,43,38],"timestamp_mouse":[11,28,49,69,88,108,128,149,168,189,208,228,248,268,288,308,328,348,369,388,409,428,449,469,487,509,528,549,568,588,609,628,648,668,688,708,729,748,768,789,808,828,848,868,888,908,928,949,969,988,1008,1029],"xSR":741.5,"ySR":469.95,"xT1":424.9,"yT1":0,"xT2":1058.1,"yT2":0,"toosoon":0,"cond_shown":"randomdotsizeEA","ratio_trial":250,"smaller_num":"2","larger_num":"8","correct_side":1,"subjID":"lauracamilagarciasanchez5","gender":"1","age":"9","school":"4"},{"start_time":1552055775202,"click_time":1552055775954,"finger_time":1552055775734,"fix_duration":406.4928574322849,"trial":66,"RT":532,"MT":220,"sideResp":1,"stimulus":"img/250/randomdotsizeEA/L/2_Ratio_250_L_16_R_4.png","xmouse":[762,762,762,762,762,762,762,762,762,762,762,762,762,762,762,762,762,762,762,762,762,762,762,762,762,752,729,708,691,677,655,642,623,605,569,551,534,513],"ymouse":[515,515,515,515,515,515,515,515,515,515,515,515,515,515,515,515,515,515,515,515,515,515,515,515,515,502,469,435,405,381,337,311,276,244,168,136,107,72],"timestamp_mouse":[12,47,53,72,92,113,132,153,172,192,213,233,252,272,292,313,332,353,373,392,412,433,453,473,493,513,532,552,572,593,613,632,652,672,692,713,732,752],"xSR":741.5,"ySR":469.95,"xT1":424.9,"yT1":0,"xT2":1058.1,"yT2":0,"toosoon":0,"cond_shown":"randomdotsizeEA","ratio_trial":250,"smaller_num":"4","larger_num":"16","correct_side":1,"subjID":"lauracamilagarciasanchez5","gender":"1","age":"9","school":"4"},{"start_time":1552055777459,"click_time":1552055778515,"finger_time":1552055777935,"fix_duration":483.92450899398267,"trial":67,"RT":476,"MT":580,"sideResp":2,"stimulus":"img/250/equaldotanddens/R/8_Ratio_250_L_1_R_4.png","xmouse":[756,756,756,756,756,756,756,756,756,756,756,756,756,756,756,756,756,756,758,760,761,763,768,770,772,772,772,773,778,782,787,804,814,834,850,865,879,901,915,928,943,957,992,1011,1026,1038,1052,1056,1059,1062,1064,1070,1080],"ymouse":[521,521,521,521,521,521,521,521,521,521,521,521,521,521,521,521,521,521,511,502,497,490,473,469,466,465,465,464,461,459,456,447,440,423,410,397,386,362,346,333,321,309,281,264,248,231,197,186,175,164,151,134,99],"timestamp_mouse":[17,40,55,75,95,116,135,155,176,196,216,236,255,276,296,315,336,356,376,396,416,436,455,476,496,516,536,555,575,595,615,637,655,675,695,716,735,756,775,796,815,836,856,876,895,916,937,955,976,995,1016,1035,1055],"xSR":741.5,"ySR":469.95,"xT1":424.9,"yT1":0,"xT2":1058.1,"yT2":0,"toosoon":0,"cond_shown":"equaldotanddens","ratio_trial":250,"smaller_num":"1","larger_num":"4","correct_side":2,"subjID":"lauracamilagarciasanchez5","gender":"1","age":"9","school":"4"},{"start_time":1552055780775,"click_time":1552055782014,"finger_time":1552055781314,"fix_duration":1219.382962088181,"trial":68,"RT":539,"MT":700,"sideResp":2,"stimulus":"img/250/randomdotsizeEA/R/11_Ratio_250_L_3_R_12.png","xmouse":[752,752,752,752,752,752,752,752,752,752,752,752,752,752,749,749,749,749,749,749,751,753,755,756,758,758,754,752,746,739,730,725,725,726,728,733,755,767,781,794,807,827,833,841,852,871,901,917,935,950,966,970,976,982,991,1007,1024,1031,1038,1046,1052,1063],"ymouse":[527,527,527,527,527,527,527,527,527,527,527,527,527,527,529,530,530,530,530,530,530,529,528,523,503,472,436,414,393,369,345,320,314,308,304,298,287,283,275,269,263,255,253,249,245,234,217,208,199,190,180,176,172,167,161,148,127,118,107,96,87,67],"timestamp_mouse":[24,44,59,79,100,119,139,159,180,199,220,240,259,280,299,320,339,360,380,400,419,440,460,479,499,519,539,559,580,600,619,640,659,679,699,720,739,760,779,799,819,839,859,879,900,920,940,959,979,999,1022,1040,1059,1080,1098,1120,1139,1160,1179,1199,1220,1239],"xSR":741.5,"ySR":469.95,"xT1":424.9,"yT1":0,"xT2":1058.1,"yT2":0,"toosoon":0,"cond_shown":"randomdotsizeEA","ratio_trial":250,"smaller_num":"3","larger_num":"12","correct_side":2,"subjID":"lauracamilagarciasanchez5","gender":"1","age":"9","school":"4"},{"start_time":1552055784339,"click_time":1552055785834,"finger_time":1552055784955,"fix_duration":1322.8396274898155,"trial":69,"RT":616,"MT":879,"sideResp":2,"stimulus":"img/250/randomdotsizeEA/R/6_Ratio_250_L_6_R_24.png","xmouse":[771,771,771,771,771,771,771,771,771,771,771,771,771,771,771,771,771,771,771,771,771,771,771,771,771,771,771,771,771,771,758,720,680,630,558,543,543,543,543,543,543,549,567,584,624,664,687,702,730,749,770,791,811,828,859,872,878,884,895,903,916,929,942,955,960,969,980,987,999,1004,1012,1020,1029,1053,1060],"ymouse":[500,500,500,500,500,500,500,500,500,500,500,500,500,500,500,500,500,500,500,500,500,500,500,500,500,500,500,500,500,500,467,396,336,270,184,167,167,167,167,167,167,167,168,170,176,182,185,185,183,181,176,170,163,153,138,131,129,126,122,118,114,110,107,103,102,99,95,92,89,87,84,80,77,69,66],"timestamp_mouse":[16,42,55,75,95,115,136,155,175,196,216,235,255,276,295,315,335,355,375,396,415,436,456,476,496,515,535,555,575,596,616,636,655,675,695,715,736,755,776,796,815,836,855,876,895,915,935,955,977,995,1016,1035,1055,1075,1096,1115,1136,1156,1176,1195,1215,1235,1256,1276,1295,1316,1336,1356,1375,1395,141