[{"start_time":1552054936772,"click_time":1552054938843,"finger_time":1552054938141,"fix_duration":1125.4837144203577,"trial":0,"RT":1369,"MT":702,"sideResp":2,"stimulus":[],"xmouse":[805,805,805,805,805,805,805,805,805,805,805,805,805,805,805,805,805,805,805,805,805,805,805,805,805,805,805,805,805,805,805,805,805,805,805,805,805,805,805,805,805,805,805,805,805,805,805,805,805,805,805,805,806,810,818,824,825,825,825,825,825,825,825,825,826,826,829,832,854,867,882,902,926,972,993,1014,1041,1059,1077,1080,1085,1086,1086,1086,1086,1086,1086,1086,1089,1091,1095,1099,1102,1108,1113,1116,1125,1138,1145,1148,1148,1148,1148,1148],"ymouse":[517,517,517,517,517,517,517,517,517,517,517,517,517,517,517,517,517,517,517,517,517,517,517,517,517,517,517,517,517,517,517,517,517,517,517,517,517,517,517,517,517,517,517,517,517,517,517,517,517,517,517,517,517,514,510,507,506,506,506,506,506,506,506,506,506,502,490,484,460,447,435,421,406,382,369,357,340,325,306,302,293,283,276,269,268,268,268,262,237,228,219,212,206,198,193,187,176,156,142,127,124,114,103,93],"timestamp_mouse":[10,48,49,69,89,109,130,150,171,190,210,230,249,270,290,309,329,349,370,390,410,431,450,470,490,510,530,550,570,591,610,630,651,669,691,710,730,749,770,789,810,829,850,869,891,910,930,949,970,990,1010,1031,1050,1070,1089,1110,1130,1149,1169,1190,1209,1229,1249,1271,1289,1309,1329,1349,1369,1391,1411,1429,1450,1470,1489,1509,1529,1550,1570,1589,1610,1630,1650,1669,1689,1709,1730,1750,1770,1790,1809,1830,1849,1870,1891,1911,1930,1949,1969,1991,2010,2029,2049,2070],"xSR":741.5,"ySR":469.95,"xT1":424.9,"yT1":0,"xT2":1058.1,"yT2":0,"toosoon":0,"cond_shown":"Incongruent","ratio_trial":300,"L_num":7,"L_den":10,"R_num":8,"R_den":20,"correct_side":1,"subjID":"lauracamilagarciasanchez5","gender":"1","age":"9","school":"4","test":{"fix_dur":[250,1500],"timestim":1000,"targets_dim":[100,100],"targets_relative_coord":[0.3,0.7],"size_stim":[880,420],"start_dim":[100,100],"size_start":[300,300],"size_fix":60,"samplingrate":20,"img_types":["Congruent","Incongruent"],"ratios":[100,200,300],"rep_conds":19,"nTrials":120,"trials_to_rest":500,"Trials_order":[11,6,113,27,21,115,89,62,65,119,114,68,101,90,61,3,35,24,86,54,9,43,74,73,15,88,111,104,64,39,36,80,8,102,107,10,37,31,100,108,25,44,32,69,110,117,75,77,93,95,30,94,56,7,46,28,96,1,52,84,29,12,98,53,118,87,38,103,14,47,50,59,112,45,72,71,42,91,66,99,85,41,60,16,5,26,19,4,78,57,49,20,0,116,23,33,55,70,58,81,83,97,34,2,82,51,67,109,13,79,18,106,40,105,48,17,76,63,22,92],"cond_shown":["Incongruent","Congruent","Incongruent","Incongruent","Incongruent","Incongruent","Incongruent","Congruent","Incongruent","Incongruent","Congruent","Congruent","Incongruent","Congruent","Incongruent","Incongruent","Incongruent","Congruent","Congruent","Congruent","Incongruent","Incongruent","Congruent","Incongruent","Incongruent","Congruent","Incongruent","Congruent","Congruent","Incongruent","Congruent","Congruent","Congruent","Congruent","Incongruent","Congruent","Incongruent","Incongruent","Congruent","Congruent","Incongruent","Congruent","Congruent","Incongruent","Congruent","Incongruent","Incongruent","Incongruent","Incongruent","Incongruent","Congruent","Congruent","Congruent","Incongruent","Congruent","Congruent","Congruent","Incongruent","Congruent","Congruent","Incongruent","Congruent","Congruent","Incongruent","Congruent","Incongruent","Congruent","Incongruent","Congruent","Incongruent","Congruent","Incongruent","Congruent","Incongruent","Congruent","Incongruent","Congruent","Incongruent","Congruent","Incongruent","Incongruent","Incongruent","Congruent","Congruent","Incongruent","Congruent","Incongruent","Congruent","Congruent","Incongruent","Incongruent","Congruent","Congruent","Congruent","Incongruent","Incongruent","Incongruent","Congruent","Congruent","Incongruent","Incongruent","Incongruent","Congruent","Congruent","Congruent","Incongruent","Incongruent","Incongruent","Incongruent","Incongruent","Congruent","Congruent","Congruent","Incongruent","Congruent","Incongruent","Congruent","Incongruent","Congruent","Congruent"],"ratio_trial":[300,100,300,200,200,100,300,200,300,300,100,200,300,100,100,200,300,100,200,100,200,100,200,100,200,300,200,200,300,200,100,200,200,100,300,300,100,100,300,100,100,200,200,200,200,200,200,300,200,300,100,300,200,100,300,300,100,100,300,100,300,100,200,300,300,200,200,100,200,300,200,300,300,200,100,300,100,100,100,200,100,300,100,300,300,200,100,300,100,200,100,200,100,200,300,200,100,300,300,200,300,100,300,200,300,200,100,100,100,100,100,300,300,200,100,300,300,200,300,200],"left_num":[7,2,4,1,14,10,7,3,4,13,2,12,13,7,12,14,1,9,8,1,14,6,6,3,7,8,7,5,20,14,1,7,13,7,1,9,12,10,9,6,2,3,11,14,15,1,7,13,6,4,9,8,1,9,9,7,6,4,20,8,3,3,9,1,1,7,8,9,12,13,9,13,1,1,9,4,15,9,9,11,9,13,15,1,4,14,13,5,4,3,3,7,2,8,3,7,3,20,5,7,13,1,11,5,24,7,17,6,6,3,3,2,2,1,8,4,20,7,20,16],"right_num":[8,11,8,3,12,9,8,11,2,12,11,6,12,15,9,6,2,8,3,3,12,3,11,7,14,1,8,14,9,6,3,2,14,9,3,3,9,8,3,15,6,7,3,12,4,3,12,12,3,2,8,1,21,13,3,20,15,8,13,2,4,4,13,3,11,8,2,20,6,12,4,12,11,2,8,2,13,20,8,3,13,12,13,11,2,6,6,6,6,1,4,2,6,3,4,6,4,14,6,14,12,8,2,14,2,14,10,11,3,11,4,10,12,2,2,8,13,4,5,12],"left_den":[10,5,5,2,30,25,10,10,20,26,5,20,26,14,24,30,2,15,15,2,30,12,20,9,10,16,10,10,25,30,2,21,26,14,2,10,24,25,10,12,4,10,22,30,25,2,10,26,20,20,15,16,2,15,10,14,12,8,25,16,6,20,30,2,5,10,15,10,20,26,20,26,5,3,15,20,25,10,15,20,15,26,25,5,20,28,26,25,8,10,6,21,5,15,6,15,6,25,25,10,26,2,22,10,30,10,30,10,12,5,20,20,10,3,16,5,25,15,25,20],"right_den":[20,22,16,10,18,18,20,22,4,15,22,15,15,25,15,9,10,16,9,5,18,5,22,30,28,5,16,20,18,9,5,15,20,15,15,5,15,16,5,25,15,14,10,18,10,10,24,15,6,4,16,5,30,26,5,25,25,20,26,5,20,16,26,15,22,16,6,25,15,15,16,15,22,15,16,4,26,25,16,4,26,15,26,22,4,20,10,12,10,2,10,15,12,9,20,9,10,28,12,28,15,20,10,20,4,28,15,22,5,22,16,25,24,15,5,16,26,6,10,20],"correct_side":[1,2,1,1,2,2,1,2,2,2,2,1,2,2,2,2,1,1,1,2,2,2,2,1,1,1,1,2,1,2,2,1,2,2,1,1,2,2,1,2,1,2,1,2,1,1,1,2,2,2,1,1,2,1,1,2,2,1,1,1,1,2,2,1,2,1,1,1,1,2,1,2,2,1,1,2,1,1,1,2,1,2,1,2,2,1,2,2,2,2,1,1,2,1,1,2,1,1,2,1,2,1,1,2,1,1,2,1,2,1,2,2,2,1,1,1,1,2,1,1],"img_shown":["img2/300/Incongruent/L/I_Dist_300_LN_7_LD_10_RN_8_RD_20_0.png","img2/100/Congruent/R/C_Dist_100_LN_2_LD_5_RN_11_RD_22_1.png","img2/300/Incongruent/L/I_Dist_300_LN_4_LD_5_RN_8_RD_16_0.png","img2/200/Incongruent/L/I_Dist_200_LN_1_LD_2_RN_3_RD_10_0.png","img2/200/Incongruent/R/I_Dist_200_LN_14_LD_30_RN_12_RD_18_1.png","img2/100/Incongruent/R/I_Dist_100_LN_10_LD_25_RN_9_RD_18_1.png","img2/300/Incongruent/L/I_Dist_300_LN_7_LD_10_RN_8_RD_20_0.png","img2/200/Congruent/R/C_Dist_200_LN_3_LD_10_RN_11_RD_22_1.png","img2/300/Incongruent/R/I_Dist_300_LN_4_LD_20_RN_2_RD_4_1.png","img2/300/Incongruent/R/I_Dist_300_LN_13_LD_26_RN_12_RD_15_1.png","img2/100/Congruent/R/C_Dist_100_LN_2_LD_5_RN_11_RD_22_1.png","img2/200/Congruent/L/C_Dist_200_LN_12_LD_20_RN_6_RD_15_0.png","img2/300/Incongruent/R/I_Dist_300_LN_13_LD_26_RN_12_RD_15_1.png","img2/100/Congruent/R/C_Dist_100_LN_7_LD_14_RN_15_RD_25_1.png","img2/100/Incongruent/R/I_Dist_100_LN_12_LD_24_RN_9_RD_15_1.png","img2/200/Incongruent/R/I_Dist_200_LN_14_LD_30_RN_6_RD_9_1.png","img2/300/Incongruent/L/I_Dist_300_LN_1_LD_2_RN_2_RD_10_0.png","img2/100/Congruent/L/C_Dist_100_LN_9_LD_15_RN_8_RD_16_0.png","img2/200/Congruent/L/C_Dist_200_LN_8_LD_15_RN_3_RD_9_0.png","img2/100/Congruent/R/C_Dist_100_LN_1_LD_2_RN_3_RD_5_1.png","img2/200/Incongruent/R/I_Dist_200_LN_14_LD_30_RN_12_RD_18_1.png","img2/100/Incongruent/R/I_Dist_100_LN_6_LD_12_RN_3_RD_5_1.png","img2/200/Congruent/R/C_Dist_200_LN_6_LD_20_RN_11_RD_22_1.png","img2/100/Incongruent/L/I_Dist_100_LN_3_LD_9_RN_7_RD_30_0.png","img2/200/Incongruent/L/I_Dist_200_LN_7_LD_10_RN_14_RD_28_0.png","img2/300/Congruent/L/C_Dist_300_LN_8_LD_16_RN_1_RD_5_0.png","img2/200/Incongruent/L/I_Dist_200_LN_7_LD_10_RN_8_RD_16_0.png","img2/200/Congruent/R/C_Dist_200_LN_5_LD_10_RN_14_RD_20_1.png","img2/300/Congruent/L/C_Dist_300_LN_20_LD_25_RN_9_RD_18_0.png","img2/200/Incongruent/R/I_Dist_200_LN_14_LD_30_RN_6_RD_9_1.png","img2/100/Congruent/R/C_Dist_100_LN_1_LD_2_RN_3_RD_5_1.png","img2/200/Congruent/L/C_Dist_200_LN_7_LD_21_RN_2_RD_15_0.png","img2/200/Congruent/R/C_Dist_200_LN_13_LD_26_RN_14_RD_20_1.png","img2/100/Congruent/R/C_Dist_100_LN_7_LD_14_RN_9_RD_15_1.png","img2/300/Incongruent/L/I_Dist_300_LN_1_LD_2_RN_3_RD_15_0.png","img2/300/Congruent/L/C_Dist_300_LN_9_LD_10_RN_3_RD_5_0.png","img2/100/Incongruent/R/I_Dist_100_LN_12_LD_24_RN_9_RD_15_1.png","img2/100/Incongruent/R/I_Dist_100_LN_10_LD_25_RN_8_RD_16_1.png","img2/300/Congruent/L/C_Dist_300_LN_9_LD_10_RN_3_RD_5_0.png","img2/100/Congruent/R/C_Dist_100_LN_6_LD_12_RN_15_RD_25_1.png","img2/100/Incongruent/L/I_Dist_100_LN_2_LD_4_RN_6_RD_15_0.png","img2/200/Congruent/R/C_Dist_200_LN_3_LD_10_RN_7_RD_14_1.png","img2/200/Congruent/L/C_Dist_200_LN_11_LD_22_RN_3_RD_10_0.png","img2/200/Incongruent/R/I_Dist_200_LN_14_LD_30_RN_12_RD_18_1.png","img2/200/Congruent/L/C_Dist_200_LN_15_LD_25_RN_4_RD_10_0.png","img2/200/Incongruent/L/I_Dist_200_LN_1_LD_2_RN_3_RD_10_0.png","img2/200/Incongruent/L/I_Dist_200_LN_7_LD_10_RN_12_RD_24_0.png","img2/300/Incongruent/R/I_Dist_300_LN_13_LD_26_RN_12_RD_15_1.png","img2/200/Incongruent/R/I_Dist_200_LN_6_LD_20_RN_3_RD_6_1.png","img2/300/Incongruent/R/I_Dist_300_LN_4_LD_20_RN_2_RD_4_1.png","img2/100/Congruent/L/C_Dist_100_LN_9_LD_15_RN_8_RD_16_0.png","img2/300/Congruent/L/C_Dist_300_LN_8_LD_16_RN_1_RD_5_0.png","img2/200/Congruent/R/C_Dist_200_LN_1_LD_2_RN_21_RD_30_1.png","img2/100/Incongruent/L/I_Dist_100_LN_9_LD_15_RN_13_RD_26_0.png","img2/300/Congruent/L/C_Dist_300_LN_9_LD_10_RN_3_RD_5_0.png","img2/300/Congruent/R/C_Dist_300_LN_7_LD_14_RN_20_RD_25_1.png","img2/100/Congruent/R/C_Dist_100_LN_6_LD_12_RN_15_RD_25_1.png","img2/100/Incongruent/L/I_Dist_100_LN_4_LD_8_RN_8_RD_20_0.png","img2/300/Congruent/L/C_Dist_300_LN_20_LD_25_RN_13_RD_26_0.png","img2/100/Congruent/L/C_Dist_100_LN_8_LD_16_RN_2_RD_5_0.png","img2/300/Incongruent/L/I_Dist_300_LN_3_LD_6_RN_4_RD_20_0.png","img2/100/Congruent/R/C_Dist_100_LN_3_LD_20_RN_4_RD_16_1.png","img2/200/Congruent/R/C_Dist_200_LN_9_LD_30_RN_13_RD_26_1.png","img2/300/Incongruent/L/I_Dist_300_LN_1_LD_2_RN_3_RD_15_0.png","img2/300/Congruent/R/C_Dist_300_LN_1_LD_5_RN_11_RD_22_1.png","img2/200/Incongruent/L/I_Dist_200_LN_7_LD_10_RN_8_RD_16_0.png","img2/200/Congruent/L/C_Dist_200_LN_8_LD_15_RN_2_RD_6_0.png","img2/100/Incongruent/L/I_Dist_100_LN_9_LD_10_RN_20_RD_25_0.png","img2/200/Congruent/L/C_Dist_200_LN_12_LD_20_RN_6_RD_15_0.png","img2/300/Incongruent/R/I_Dist_300_LN_13_LD_26_RN_12_RD_15_1.png","img2/200/Congruent/L/C_Dist_200_LN_9_LD_20_RN_4_RD_16_0.png","img2/300/Incongruent/R/I_Dist_300_LN_13_LD_26_RN_12_RD_15_1.png","img2/300/Congruent/R/C_Dist_300_LN_1_LD_5_RN_11_RD_22_1.png","img2/200/Incongruent/L/I_Dist_200_LN_1_LD_3_RN_2_RD_15_0.png","img2/100/Congruent/L/C_Dist_100_LN_9_LD_15_RN_8_RD_16_0.png","img2/300/Incongruent/R/I_Dist_300_LN_4_LD_20_RN_2_RD_4_1.png","img2/100/Congruent/L/C_Dist_100_LN_15_LD_25_RN_13_RD_26_0.png","img2/100/Incongruent/L/I_Dist_100_LN_9_LD_10_RN_20_RD_25_0.png","img2/100/Congruent/L/C_Dist_100_LN_9_LD_15_RN_8_RD_16_0.png","img2/200/Incongruent/R/I_Dist_200_LN_11_LD_20_RN_3_RD_4_1.png","img2/100/Incongruent/L/I_Dist_100_LN_9_LD_15_RN_13_RD_26_0.png","img2/300/Incongruent/R/I_Dist_300_LN_13_LD_26_RN_12_RD_15_1.png","img2/100/Congruent/L/C_Dist_100_LN_15_LD_25_RN_13_RD_26_0.png","img2/300/Congruent/R/C_Dist_300_LN_1_LD_5_RN_11_RD_22_1.png","img2/300/Incongruent/R/I_Dist_300_LN_4_LD_20_RN_2_RD_4_1.png","img2/200/Congruent/L/C_Dist_200_LN_14_LD_28_RN_6_RD_20_0.png","img2/100/Incongruent/R/I_Dist_100_LN_13_LD_26_RN_6_RD_10_1.png","img2/300/Congruent/R/C_Dist_300_LN_5_LD_25_RN_6_RD_12_1.png","img2/100/Congruent/R/C_Dist_100_LN_4_LD_8_RN_6_RD_10_1.png","img2/200/Incongruent/R/I_Dist_200_LN_3_LD_10_RN_1_RD_2_1.png","img2/100/Incongruent/L/I_Dist_100_LN_3_LD_6_RN_4_RD_10_0.png","img2/200/Congruent/L/C_Dist_200_LN_7_LD_21_RN_2_RD_15_0.png","img2/100/Congruent/R/C_Dist_100_LN_2_LD_5_RN_6_RD_12_1.png","img2/200/Congruent/L/C_Dist_200_LN_8_LD_15_RN_3_RD_9_0.png","img2/300/Incongruent/L/I_Dist_300_LN_3_LD_6_RN_4_RD_20_0.png","img2/200/Incongruent/R/I_Dist_200_LN_7_LD_15_RN_6_RD_9_1.png","img2/100/Incongruent/L/I_Dist_100_LN_3_LD_6_RN_4_RD_10_0.png","img2/300/Congruent/L/C_Dist_300_LN_20_LD_25_RN_14_RD_28_0.png","img2/300/Congruent/R/C_Dist_300_LN_5_LD_25_RN_6_RD_12_1.png","img2/200/Incongruent/L/I_Dist_200_LN_7_LD_10_RN_14_RD_28_0.png","img2/300/Incongruent/R/I_Dist_300_LN_13_LD_26_RN_12_RD_15_1.png","img2/100/Incongruent/L/I_Dist_100_LN_1_LD_2_RN_8_RD_20_0.png","img2/300/Congruent/L/C_Dist_300_LN_11_LD_22_RN_2_RD_10_0.png","img2/200/Congruent/R/C_Dist_200_LN_5_LD_10_RN_14_RD_20_1.png","img2/300/Congruent/L/C_Dist_300_LN_24_LD_30_RN_2_RD_4_0.png","img2/200/Incongruent/L/I_Dist_200_LN_7_LD_10_RN_14_RD_28_0.png","img2/100/Incongruent/R/I_Dist_100_LN_17_LD_30_RN_10_RD_15_1.png","img2/100/Incongruent/L/I_Dist_100_LN_6_LD_10_RN_11_RD_22_0.png","img2/100/Incongruent/R/I_Dist_100_LN_6_LD_12_RN_3_RD_5_1.png","img2/100/Incongruent/L/I_Dist_100_LN_3_LD_5_RN_11_RD_22_0.png","img2/100/Congruent/R/C_Dist_100_LN_3_LD_20_RN_4_RD_16_1.png","img2/300/Congruent/R/C_Dist_300_LN_2_LD_20_RN_10_RD_25_1.png","img2/300/Congruent/R/C_Dist_300_LN_2_LD_10_RN_12_RD_24_1.png","img2/200/Incongruent/L/I_Dist_200_LN_1_LD_3_RN_2_RD_15_0.png","img2/100/Congruent/L/C_Dist_100_LN_8_LD_16_RN_2_RD_5_0.png","img2/300/Incongruent/L/I_Dist_300_LN_4_LD_5_RN_8_RD_16_0.png","img2/300/Congruent/L/C_Dist_300_LN_20_LD_25_RN_13_RD_26_0.png","img2/200/Incongruent/R/I_Dist_200_LN_7_LD_15_RN_4_RD_6_1.png","img2/300/Congruent/L/C_Dist_300_LN_20_LD_25_RN_5_RD_10_0.png","img2/200/Congruent/L/C_Dist_200_LN_16_LD_20_RN_12_RD_20_0.png"],"dist100_C":[["C_Dist_100_LN_10_LD_25_RN_3_RD_10_0.png","C_Dist_100_LN_11_LD_22_RN_4_RD_10_0.png","C_Dist_100_LN_11_LD_22_RN_6_RD_15_0.png","C_Dist_100_LN_15_LD_25_RN_13_RD_26_0.png","C_Dist_100_LN_3_LD_6_RN_2_RD_5_0.png","C_Dist_100_LN_6_LD_20_RN_5_RD_25_0.png","C_Dist_100_LN_8_LD_16_RN_2_RD_5_0.png","C_Dist_100_LN_9_LD_15_RN_8_RD_16_0.png"],["C_Dist_100_LN_1_LD_2_RN_18_RD_30_1.png","C_Dist_100_LN_1_LD_2_RN_3_RD_5_1.png","C_Dist_100_LN_12_LD_30_RN_13_RD_26_1.png","C_Dist_100_LN_2_LD_5_RN_11_RD_22_1.png","C_Dist_100_LN_2_LD_5_RN_6_RD_12_1.png","C_Dist_100_LN_3_LD_20_RN_4_RD_16_1.png","C_Dist_100_LN_4_LD_10_RN_15_RD_30_1.png","C_Dist_100_LN_4_LD_8_RN_6_RD_10_1.png","C_Dist_100_LN_6_LD_12_RN_15_RD_25_1.png","C_Dist_100_LN_7_LD_14_RN_15_RD_25_1.png","C_Dist_100_LN_7_LD_14_RN_9_RD_15_1.png"]],"dist100_I":[["I_Dist_100_LN_1_LD_2_RN_8_RD_20_0.png","I_Dist_100_LN_2_LD_4_RN_6_RD_15_0.png","I_Dist_100_LN_2_LD_4_RN_8_RD_20_0.png","I_Dist_100_LN_3_LD_5_RN_11_RD_22_0.png","I_Dist_100_LN_3_LD_5_RN_8_RD_16_0.png","I_Dist_100_LN_3_LD_6_RN_4_RD_10_0.png","I_Dist_100_LN_3_LD_9_RN_7_RD_30_0.png","I_Dist_100_LN_4_LD_8_RN_8_RD_20_0.png","I_Dist_100_LN_6_LD_10_RN_11_RD_22_0.png","I_Dist_100_LN_6_LD_10_RN_13_RD_26_0.png","I_Dist_100_LN_6_LD_10_RN_7_RD_14_0.png","I_Dist_100_LN_9_LD_10_RN_20_RD_25_0.png","I_Dist_100_LN_9_LD_15_RN_13_RD_26_0.png","I_Dist_100_LN_9_LD_15_RN_14_RD_28_0.png"],["I_Dist_100_LN_10_LD_25_RN_8_RD_16_1.png","I_Dist_100_LN_10_LD_25_RN_9_RD_18_1.png","I_Dist_100_LN_11_LD_22_RN_9_RD_15_1.png","I_Dist_100_LN_12_LD_24_RN_9_RD_15_1.png","I_Dist_100_LN_12_LD_30_RN_2_RD_4_1.png","I_Dist_100_LN_13_LD_26_RN_12_RD_20_1.png","I_Dist_100_LN_13_LD_26_RN_6_RD_10_1.png","I_Dist_100_LN_17_LD_30_RN_10_RD_15_1.png","I_Dist_100_LN_6_LD_12_RN_3_RD_5_1.png","I_Dist_100_LN_8_LD_16_RN_6_RD_10_1.png","I_Dist_100_LN_8_LD_20_RN_1_RD_2_1.png","I_Dist_100_LN_9_LD_18_RN_6_RD_10_1.png"]],"dist100_S":[["E_Dist_100_LN_2_LD_12_RN_2_RD_30_0.png","E_Dist_100_LN_6_LD_10_RN_6_RD_12_0.png"],["E_Dist_100_LN_6_LD_12_RN_6_RD_10_1.png"]],"dist200_C":[["C_Dist_200_LN_11_LD_22_RN_3_RD_10_0.png","C_Dist_200_LN_12_LD_15_RN_6_RD_10_0.png","C_Dist_200_LN_12_LD_20_RN_6_RD_15_0.png","C_Dist_200_LN_14_LD_28_RN_6_RD_20_0.png","C_Dist_200_LN_15_LD_25_RN_4_RD_10_0.png","C_Dist_200_LN_16_LD_20_RN_12_RD_20_0.png","C_Dist_200_LN_16_LD_30_RN_9_RD_27_0.png","C_Dist_200_LN_20_LD_25_RN_9_RD_15_0.png","C_Dist_200_LN_21_LD_30_RN_2_RD_4_0.png","C_Dist_200_LN_4_LD_10_RN_3_RD_15_0.png","C_Dist_200_LN_4_LD_8_RN_3_RD_10_0.png","C_Dist_200_LN_6_LD_15_RN_3_RD_15_0.png","C_Dist_200_LN_7_LD_21_RN_2_RD_15_0.png","C_Dist_200_LN_8_LD_15_RN_2_RD_6_0.png","C_Dist_200_LN_8_LD_15_RN_3_RD_9_0.png","C_Dist_200_LN_8_LD_15_RN_7_RD_21_0.png","C_Dist_200_LN_9_LD_20_RN_4_RD_16_0.png"],["C_Dist_200_LN_1_LD_2_RN_21_RD_30_1.png","C_Dist_200_LN_13_LD_26_RN_14_RD_20_1.png","C_Dist_200_LN_3_LD_10_RN_11_RD_22_1.png","C_Dist_200_LN_3_LD_10_RN_14_RD_28_1.png","C_Dist_200_LN_3_LD_10_RN_7_RD_14_1.png","C_Dist_200_LN_3_LD_12_RN_9_RD_20_1.png","C_Dist_200_LN_3_LD_6_RN_14_RD_20_1.png","C_Dist_200_LN_5_LD_10_RN_14_RD_20_1.png","C_Dist_200_LN_6_LD_12_RN_7_RD_10_1.png","C_Dist_200_LN_6_LD_20_RN_11_RD_22_1.png","C_Dist_200_LN_7_LD_15_RN_18_RD_27_1.png","C_Dist_200_LN_9_LD_30_RN_13_RD_26_1.png"]],"dist200_I":[["I_Dist_200_LN_1_LD_2_RN_3_RD_10_0.png","I_Dist_200_LN_1_LD_3_RN_2_RD_15_0.png","I_Dist_200_LN_3_LD_4_RN_11_RD_20_0.png","I_Dist_200_LN_4_LD_5_RN_6_RD_10_0.png","I_Dist_200_LN_4_LD_6_RN_14_RD_30_0.png","I_Dist_200_LN_7_LD_10_RN_12_RD_24_0.png","I_Dist_200_LN_7_LD_10_RN_14_RD_28_0.png","I_Dist_200_LN_7_LD_10_RN_8_RD_16_0.png"],["I_Dist_200_LN_11_LD_20_RN_3_RD_4_1.png","I_Dist_200_LN_14_LD_30_RN_12_RD_18_1.png","I_Dist_200_LN_14_LD_30_RN_6_RD_9_1.png","I_Dist_200_LN_3_LD_10_RN_1_RD_2_1.png","I_Dist_200_LN_4_LD_30_RN_1_RD_3_1.png","I_Dist_200_LN_6_LD_20_RN_3_RD_6_1.png","I_Dist_200_LN_7_LD_15_RN_4_RD_6_1.png","I_Dist_200_LN_7_LD_15_RN_6_RD_9_1.png","I_Dist_200_LN_9_LD_15_RN_8_RD_10_1.png"]],"dist200_S":[["E_Dist_200_LN_3_LD_6_RN_3_RD_10_0.png"],["E_Dist_200_LN_3_LD_10_RN_3_RD_6_1.png"]],"dist300_C":[["C_Dist_300_LN_11_LD_22_RN_1_RD_5_0.png","C_Dist_300_LN_11_LD_22_RN_2_RD_10_0.png","C_Dist_300_LN_11_LD_22_RN_4_RD_20_0.png","C_Dist_300_LN_12_LD_24_RN_2_RD_10_0.png","C_Dist_300_LN_18_LD_20_RN_9_RD_15_0.png","C_Dist_300_LN_20_LD_25_RN_13_RD_26_0.png","C_Dist_300_LN_20_LD_25_RN_14_RD_28_0.png","C_Dist_300_LN_20_LD_25_RN_5_RD_10_0.png","C_Dist_300_LN_20_LD_25_RN_8_RD_16_0.png","C_Dist_300_LN_20_LD_25_RN_9_RD_18_0.png","C_Dist_300_LN_24_LD_30_RN_2_RD_4_0.png","C_Dist_300_LN_24_LD_30_RN_8_RD_16_0.png","C_Dist_300_LN_3_LD_6_RN_2_RD_10_0.png","C_Dist_300_LN_4_LD_10_RN_1_RD_10_0.png","C_Dist_300_LN_4_LD_5_RN_2_RD_4_0.png","C_Dist_300_LN_8_LD_16_RN_1_RD_5_0.png","C_Dist_300_LN_9_LD_10_RN_3_RD_5_0.png"],["C_Dist_300_LN_1_LD_20_RN_7_RD_20_1.png","C_Dist_300_LN_1_LD_3_RN_19_RD_30_1.png","C_Dist_300_LN_1_LD_30_RN_8_RD_24_1.png","C_Dist_300_LN_1_LD_5_RN_11_RD_22_1.png","C_Dist_300_LN_1_LD_5_RN_3_RD_6_1.png","C_Dist_300_LN_1_LD_5_RN_6_RD_12_1.png","C_Dist_300_LN_2_LD_10_RN_12_RD_24_1.png","C_Dist_300_LN_2_LD_20_RN_10_RD_25_1.png","C_Dist_300_LN_3_LD_12_RN_11_RD_20_1.png","C_Dist_300_LN_3_LD_6_RN_4_RD_5_1.png","C_Dist_300_LN_4_LD_20_RN_13_RD_26_1.png","C_Dist_300_LN_5_LD_25_RN_6_RD_12_1.png","C_Dist_300_LN_5_LD_25_RN_7_RD_14_1.png","C_Dist_300_LN_7_LD_14_RN_20_RD_25_1.png","C_Dist_300_LN_8_LD_15_RN_10_RD_12_1.png"]],"dist300_I":[["I_Dist_300_LN_1_LD_2_RN_2_RD_10_0.png","I_Dist_300_LN_1_LD_2_RN_3_RD_15_0.png","I_Dist_300_LN_2_LD_4_RN_6_RD_30_0.png","I_Dist_300_LN_3_LD_6_RN_4_RD_20_0.png","I_Dist_300_LN_4_LD_5_RN_6_RD_12_0.png","I_Dist_300_LN_4_LD_5_RN_8_RD_16_0.png","I_Dist_300_LN_7_LD_10_RN_8_RD_20_0.png","I_Dist_300_LN_8_LD_10_RN_14_RD_28_0.png","I_Dist_300_LN_8_LD_10_RN_9_RD_18_0.png"],["I_Dist_300_LN_13_LD_26_RN_12_RD_15_1.png","I_Dist_300_LN_4_LD_20_RN_2_RD_4_1.png"]],"dist300_S":[["E_Dist_300_LN_9_LD_12_RN_9_RD_20_0.png"],["E_Dist_300_LN_18_LD_30_RN_18_RD_20_1.png","E_Dist_300_LN_3_LD_10_RN_3_RD_5_1.png","E_Dist_300_LN_9_LD_20_RN_9_RD_12_1.png"]],"dist500_C":[["C_Dist_500_LN_10_LD_13_RN_7_RD_26_0.png","C_Dist_500_LN_10_LD_15_RN_4_RD_24_0.png","C_Dist_500_LN_12_LD_16_RN_3_RD_12_0.png","C_Dist_500_LN_12_LD_18_RN_4_RD_24_0.png","C_Dist_500_LN_15_LD_18_RN_5_RD_15_0.png","C_Dist_500_LN_15_LD_20_RN_1_RD_4_0.png","C_Dist_500_LN_18_LD_27_RN_1_RD_6_0.png","C_Dist_500_LN_20_LD_24_RN_1_RD_3_0.png","C_Dist_500_LN_20_LD_24_RN_3_RD_9_0.png","C_Dist_500_LN_20_LD_24_RN_7_RD_21_0.png","C_Dist_500_LN_20_LD_28_RN_3_RD_14_0.png","C_Dist_500_LN_21_LD_28_RN_6_RD_24_0.png","C_Dist_500_LN_22_LD_28_RN_2_RD_7_0.png","C_Dist_500_LN_25_LD_30_RN_9_RD_27_0.png","C_Dist_500_LN_4_LD_6_RN_1_RD_6_0.png","C_Dist_500_LN_5_LD_6_RN_2_RD_6_0.png","C_Dist_500_LN_6_LD_9_RN_1_RD_6_0.png","C_Dist_500_LN_7_LD_10_RN_1_RD_5_0.png","C_Dist_500_LN_8_LD_12_RN_1_RD_6_0.png","C_Dist_500_LN_8_LD_12_RN_4_RD_24_0.png"],["C_Dist_500_LN_1_LD_4_RN_12_RD_16_1.png","C_Dist_500_LN_1_LD_4_RN_9_RD_12_1.png","C_Dist_500_LN_1_LD_9_RN_11_RD_18_1.png","C_Dist_500_LN_10_LD_24_RN_22_RD_24_1.png","C_Dist_500_LN_2_LD_12_RN_10_RD_15_1.png","C_Dist_500_LN_2_LD_12_RN_12_RD_18_1.png","C_Dist_500_LN_2_LD_12_RN_4_RD_6_1.png","C_Dist_500_LN_2_LD_24_RN_7_RD_12_1.png","C_Dist_500_LN_2_LD_5_RN_18_RD_20_1.png","C_Dist_500_LN_2_LD_5_RN_9_RD_10_1.png","C_Dist_500_LN_2_LD_8_RN_12_RD_16_1.png","C_Dist_500_LN_2_LD_8_RN_21_RD_28_1.png","C_Dist_500_LN_3_LD_10_RN_4_RD_5_1.png","C_Dist_500_LN_3_LD_12_RN_15_RD_20_1.png","C_Dist_500_LN_3_LD_30_RN_6_RD_10_1.png","C_Dist_500_LN_3_LD_8_RN_14_RD_16_1.png","C_Dist_500_LN_4_LD_16_RN_15_RD_20_1.png","C_Dist_500_LN_4_LD_24_RN_12_RD_18_1.png","C_Dist_500_LN_5_LD_14_RN_6_RD_7_1.png","C_Dist_500_LN_7_LD_21_RN_20_RD_24_1.png","C_Dist_500_LN_7_LD_28_RN_12_RD_16_1.png","C_Dist_500_LN_7_LD_28_RN_9_RD_12_1.png","C_Dist_500_LN_9_LD_27_RN_20_RD_24_1.png"]],"dist500_I":[["I_Dist_500_LN_2_LD_3_RN_4_RD_24_0.png","I_Dist_500_LN_5_LD_6_RN_6_RD_18_0.png","I_Dist_500_LN_7_LD_8_RN_9_RD_24_0.png"],["I_Dist_500_LN_7_LD_21_RN_5_RD_6_1.png"]],"dist500_S":[["E_Dist_500_LN_6_LD_8_RN_6_RD_24_0.png"],["E_Dist_500_LN_2_LD_12_RN_2_RD_3_1.png","E_Dist_500_LN_6_LD_24_RN_6_RD_8_1.png"]]}},{"start_time":1552054942398,"click_time":1552054944462,"finger_time":1552054943182,"fix_duration":1074.8348770275566,"trial":1,"RT":784,"MT":1280,"sideResp":2,"stimulus":[],"xmouse":[786,786,786,786,786,786,786,786,786,786,786,786,786,786,786,786,786,786,786,786,786,786,786,786,786,786,786,786,786,786,786,786,786,792,799,805,809,812,816,819,819,820,820,820,819,818,817,814,814,812,812,812,811,811,811,811,811,811,811,810,810,810,810,806,803,803,803,804,820,828,845,867,938,997,1033,1073,1112,1176,1194,1195,1205,1209,1214,1214,1214,1214,1212,1203,1187,1187,1187,1184,1178,1173,1173,1173,1173,1179,1189,1192,1195,1195,1186,1151],"ymouse":[497,497,497,497,497,497,497,497,497,497,497,497,497,497,497,497,497,497,497,497,497,497,497,497,497,497,497,497,497,497,497,497,497,494,488,484,480,477,471,468,468,467,467,467,467,467,467,468,468,469,469,469,469,469,469,469,469,469,469,469,469,469,469,467,465,465,465,461,448,443,435,424,386,352,332,311,289,238,220,218,202,196,178,177,177,177,175,172,169,169,169,168,165,146,138,135,134,124,96,83,69,55,42,9],"timestamp_mouse":[9,24,45,63,83,103,123,143,164,183,204,225,245,264,283,305,324,343,363,385,403,423,444,463,484,505,524,545,564,583,603,623,645,664,684,705,724,743,764,784,804,824,844,863,884,903,924,945,963,983,1005,1024,1045,1064,1085,1104,1123,1143,1164,1183,1204,1224,1243,1263,1284,1304,1323,1344,1364,1384,1404,1423,1446,1464,1483,1503,1523,1545,1563,1584,1604,1625,1644,1665,1685,1704,1723,1744,1764,1783,1804,1824,1843,1864,1883,1903,1923,1944,1964,1984,2003,2024,2043,2064],"xSR":741.5,"ySR":469.95,"xT1":424.9,"yT1":0,"xT2":1058.1,"yT2":0,"toosoon":0,"cond_shown":"Congruent","ratio_trial":100,"L_num":2,"L_den":5,"R_num":11,"R_den":22,"correct_side":2,"subjID":"lauracamilagarciasanchez5","gender":"1","school":"4","age":"9"},{"start_time":1552054946761,"click_time":1552054948462,"finger_time":1552054947722,"fix_duration":717.858026201391,"trial":2,"RT":961,"MT":740,"sideResp":2,"stimulus":[],"xmouse":[779,779,779,779,780,781,781,781,781,781,781,781,782,783,783,785,786,786,786,786,786,786,786,786,786,786,786,786,786,786,786,786,786,786,786,786,786,786,786,786,786,786,786,786,787,789,790,791,791,791,785,779,768,753,743,715,704,699,699,699,699,699,699,699,699,711,791,896,950,967,970,975,989,1005,1026,1034,1034,1034,1034,1034,1041,1049,1059,1059,1059,1067],"ymouse":[504,504,504,504,503,502,502,502,502,502,502,502,502,502,502,501,501,501,501,501,501,501,501,501,501,501,501,501,501,501,501,501,501,501,501,501,501,501,501,501,501,501,500,499,499,496,492,483,467,445,387,340,282,220,174,103,86,79,78,78,78,78,78,78,77,78,105,135,149,152,152,152,151,148,141,138,138,138,138,138,129,119,108,107,107,98],"timestamp_mouse":[15,30,48,60,80,101,121,140,161,181,200,221,241,260,280,300,322,341,361,380,402,420,441,461,480,501,521,541,561,580,600,620,642,661,680,700,720,742,761,781,801,820,840,860,880,900,921,940,961,980,1002,1020,1040,1060,1080,1100,1120,1140,1161,1180,1201,1222,1242,1260,1281,1300,1321,1341,1360,1381,1401,1420,1441,1461,1481,1501,1521,1542,1561,1581,1600,1620,1640,1660,1680,1701],"xSR":741.5,"ySR":469.95,"xT1":424.9,"yT1":0,"xT2":1058.1,"yT2":0,"toosoon":0,"cond_shown":"Incongruent","ratio_trial":300,"L_num":4,"L_den":5,"R_num":8,"R_den":16,"correct_side":1,"subjID":"lauracamilagarciasanchez5","gender":"1","school":"4","age":"9"},{"start_time":1552054954715,"click_time":1552054958221,"finger_time":1552054957102,"fix_duration":250,"trial":3,"RT":2387,"MT":1119,"sideResp":1,"stimulus":[],"xmouse":[791,790,790,788,787,787,787,786,786,786,786,786,786,786,786,786,786,786,786,786,786,786,786,786,786,786,786,786,786,786,786,786,786,786,786,786,786,786,786,786,786,786,786,786,786,786,786,786,786,786,786,786,786,786,786,786,786,786,786,786,786,786,786,786,786,786,786,786,786,786,786,786,786,786,786,786,786,786,786,786,786,786,786,786,786,786,786,786,786,786,786,786,786,786,786,786,786,786,786,786,786,786,786,786,786,786,786,786,786,785,782,779,769,762,760,759,758,755,746,738,730,723,716,711,709,707,704,701,695,693,689,684,681,677,674,670,667,666,664,662,654,645,632,620,616,612,607,604,597,593,580,561,561,561,561,561,561,561,561,561,561,561,561,561,561,561,561,561,561,561,561,561,561,561,474,477],"ymouse":[526,526,526,526,525,525,525,525,525,525,525,525,525,525,525,525,525,525,525,525,525,525,525,525,525,525,525,525,525,525,525,525,525,525,525,525,525,525,525,525,525,525,525,525,525,525,525,525,525,525,525,525,525,525,525,525,525,525,525,525,525,525,525,525,525,525,525,525,525,525,525,525,525,525,525,525,525,525,525,525,525,525,525,525,525,525,525,525,525,525,525,525,525,525,525,525,525,525,525,525,525,525,525,525,525,525,525,525,525,525,525,523,519,516,516,515,515,514,509,504,499,493,484,477,472,469,464,457,445,439,431,421,410,403,397,392,389,388,385,380,371,357,337,313,303,294,281,271,215,162,90,25,25,25,25,25,25,25,25,25,25,25,25,25,25,25,25,25,25,25,25,25,25,25,0,7],"timestamp_mouse":[9,26,47,67,86,106,126,146,167,189,206,227,248,267,287,306,326,348,366,386,407,428,448,467,486,506,528,546,566,587,607,626,647,667,686,707,726,748,768,788,808,826,847,867,887,907,927,946,967,988,1006,1026,1047,1066,1087,1106,1126,1146,1167,1187,1208,1226,1247,1268,1287,1306,1326,1346,1366,1387,1407,1428,1447,1467,1487,1506,1526,1546,1566,1586,1607,1627,1646,1667,1687,1706,1727,1747,1767,1786,1807,1827,1847,1868,1887,1907,1926,1948,1967,1986,2006,2026,2047,2068,2088,2106,2126,2146,2167,2187,2206,2227,2246,2266,2287,2307,2326,2346,2367,2387,2407,2426,2448,2467,2486,2506,2528,2546,2567,2587,2607,2627,2646,2667,2686,2707,2726,2747,2767,2786,2807,2827,2847,2867,2887,2907,2927,2947,2967,2986,3007,3026,3047,3067,3087,3108,3126,3147,3167,3186,3206,3226,3246,3267,3287,3306,3327,3347,3368,3387,3406,3427,3447,3467,3486,3506],"xSR":741.5,"ySR":469.95,"xT1":424.9,"yT1":0,"xT2":1058.1,"yT2":0,"toosoon":0,"cond_shown":"Incongruent","ratio_trial":200,"L_num":1,"L_den":2,"R_num":3,"R_den":10,"correct_side":1,"subjID":"lauracamilagarciasanchez5","gender":"1","school":"4","age":"9"},{"start_time":1552054962275,"click_time":1552054965081,"finger_time":1552054963701,"fix_duration":631.5100416109955,"trial":4,"RT":1426,"MT":1380,"sideResp":1,"stimulus":[],"xmouse":[747,749,751,751,752,752,752,752,752,753,753,756,756,756,756,756,756,756,756,756,756,756,756,756,756,756,756,756,756,756,756,756,756,756,756,756,756,756,756,756,756,756,756,757,758,759,766,769,774,776,777,778,778,778,778,778,778,778,778,778,778,778,778,778,778,780,783,787,793,803,814,843,853,861,872,883,895,946,965,988,995,1016,1016,1017,1020,1021,1016,1004,984,970,937,914,900,892,881,869,834,819,809,800,774,738,707,676,652,639,632,631,630,629,631,659,679,695,702,703,703,703,698,683,663,627,615,605,598,592,591,590,593,598,611,614,615,615,615,609,580,564,551,537,522],"ymouse":[496,497,497,497,498,498,498,498,498,498,498,499,499,499,499,499,499,499,499,499,499,499,499,499,499,499,499,499,499,499,499,499,499,499,499,499,499,499,499,499,499,499,499,499,500,500,500,501,501,502,502,502,502,502,502,502,502,502,502,502,502,502,502,502,502,502,502,502,502,498,494,471,452,435,417,402,389,330,310,282,269,196,167,150,147,146,143,141,134,131,126,122,120,119,118,115,109,107,106,104,99,93,86,80,77,76,76,76,76,77,81,87,89,92,92,92,92,92,92,90,86,79,76,75,72,71,71,70,70,70,71,71,71,71,71,70,67,63,59,55,48],"timestamp_mouse":[6,27,60,67,86,107,127,147,168,186,207,227,248,267,287,307,327,348,367,388,407,427,447,467,486,507,528,548,567,587,606,627,647,667,687,706,726,747,768,787,807,827,847,867,886,907,927,947,966,986,1006,1026,1046,1068,1086,1107,1126,1147,1167,1187,1206,1226,1247,1267,1287,1306,1326,1347,1366,1387,1407,1426,1448,1467,1486,1507,1526,1547,1568,1587,1607,1627,1646,1666,1686,1707,1727,1746,1767,1788,1807,1826,1847,1867,1887,1907,1927,1947,1967,1986,2007,2027,2046,2068,2086,2106,2126,2147,2166,2187,2207,2226,2246,2268,2286,2306,2327,2346,2366,2387,2408,2427,2446,2467,2487,2507,2526,2547,2567,2587,2606,2626,2647,2667,2686,2707,2727,2748,2766,2787,2806],"xSR":741.5,"ySR":469.95,"xT1":424.9,"yT1":0,"xT2":1058.1,"yT2":0,"toosoon":0,"cond_shown":"Incongruent","ratio_trial":200,"L_num":14,"L_den":30,"R_num":12,"R_den":18,"correct_side":2,"subjID":"lauracamilagarciasanchez5","gender":"1","school":"4","age":"9"},{"start_time":1552054971881,"click_time":1552054974382,"finger_time":1552054973342,"fix_duration":616.5875629476194,"trial":5,"RT":1461,"MT":1040,"sideResp":2,"stimulus":[],"xmouse":[777,777,777,777,777,777,777,777,777,777,777,777,777,777,776,776,776,774,774,774,774,774,774,774,774,773,773,773,773,773,772,772,772,772,772,772,772,772,772,772,772,772,772,772,772,772,772,770,770,770,770,770,770,770,770,770,770,770,770,770,770,770,770,770,770,770,770,770,770,770,770,769,749,737,733,732,732,713,699,685,672,657,652,644,644,644,644,644,644,645,649,650,673,695,723,744,784,821,846,876,898,928,966,981,991,997,1000,1009,1013,1015,1021,1026,1033,1037,1037,1037,1037,1044,1046,1046,1046,1046,1046,1048,1056,1061],"ymouse":[527,527,527,527,527,527,527,527,527,527,527,527,527,527,528,528,528,528,529,529,529,529,529,529,529,529,529,529,529,529,529,529,529,529,529,529,529,529,529,529,529,529,529,529,529,529,529,530,530,530,530,530,530,530,530,530,530,530,530,530,530,530,530,530,530,530,530,530,530,530,530,530,505,491,484,479,474,419,399,384,371,362,357,354,354,354,354,354,354,354,354,354,344,335,321,312,296,280,269,256,240,221,197,185,177,171,162,132,122,120,109,101,86,78,78,78,78,71,70,70,70,70,70,70,70,69],"timestamp_mouse":[9,21,52,61,81,101,121,140,162,182,200,220,240,260,281,302,321,340,361,381,401,420,441,461,482,500,520,542,560,581,601,621,640,661,680,701,721,740,760,781,801,821,841,861,881,901,921,941,961,980,1001,1020,1040,1061,1081,1101,1121,1140,1161,1181,1200,1221,1241,1260,1281,1300,1322,1342,1361,1381,1401,1421,1441,1461,1481,1500,1520,1540,1561,1581,1600,1621,1640,1660,1680,1700,1721,1741,1761,1781,1800,1821,1841,1862,1880,1900,1920,1941,1960,1981,2000,2020,2041,2060,2081,2100,2122,2142,2161,2180,2200,2221,2240,2260,2281,2301,2321,2340,2361,2380,2400,2422,2440,2460,2480,2501],"xSR":741.5,"ySR":469.95,"xT1":424.9,"yT1":0,"xT2":1058.1,"yT2":0,"toosoon":0,"cond_shown":"Incongruent","ratio_trial":100,"L_num":10,"L_den":25,"R_num":9,"R_den":18,"correct_side":2,"subjID":"lauracamilagarciasanchez5","gender":"1","school":"4","age":"9"},{"start_time":1552054976654,"click_time":1552054977941,"finger_time":1552054977622,"fix_duration":250,"trial":6,"RT":968,"MT":319,"sideResp":1,"stimulus":[],"xmouse":[820,820,820,820,820,820,820,820,820,820,820,820,820,820,820,820,820,820,820,820,820,820,820,820,820,820,820,820,820,820,820,820,820,820,820,820,818,813,795,783,774,773,772,772,771,767,759,752,738,730,722,711,708,703,692,648,638,635,631,607,584,562,539,527,478],"ymouse":[519,519,519,519,519,519,519,519,519,519,519,519,519,519,519,519,519,519,519,519,519,519,519,519,519,519,519,519,519,519,519,519,519,519,519,519,522,522,517,513,510,510,510,510,509,507,501,491,446,419,392,368,347,303,270,169,153,148,143,124,105,94,84,84,84],"timestamp_mouse":[13,37,48,68,87,108,128,149,169,189,208,228,248,268,289,307,328,349,367,387,408,427,449,467,487,507,527,549,569,587,607,628,648,667,688,708,728,748,768,787,808,828,847,868,888,907,928,949,968,987,1007,1027,1048,1069,1095,1109,1127,1147,1168,1187,1207,1227,1249,1267,1287],"xSR":741.5,"ySR":469.95,"xT1":424.9,"yT1":0,"xT2":1058.1,"yT2":0,"toosoon":0,"cond_shown":"Incongruent","ratio_trial":300,"L_num":7,"L_den":10,"R_num":8,"R_den":20,"correct_side":1,"subjID":"lauracamilagarciasanchez5","gender":"1","school":"4","age":"9"},{"start_time":1552054979539,"click_time":1552054980822,"finger_time":1552054980642,"fix_duration":334.3073769074647,"trial":7,"RT":1103,"MT":180,"sideResp":1,"stimulus":[],"xmouse":[800,800,800,800,800,800,800,800,800,800,800,800,800,800,800,800,800,800,800,800,800,800,800,800,800,800,800,800,800,800,800,800,800,800,800,800,800,800,800,800,800,800,800,800,800,800,800,800,800,800,800,800,800,800,801,800,763,683,594,550,541,536,536,526,522],"ymouse":[489,489,489,489,489,489,489,489,489,489,489,489,489,489,489,489,489,489,489,489,489,489,489,489,489,489,489,489,489,489,489,489,489,489,489,489,489,489,489,489,489,489,489,489,489,489,489,489,490,490,490,490,490,490,487,436,345,231,131,82,72,64,64,51,47],"timestamp_mouse":[9,23,47,63,82,104,123,143,163,182,203,223,242,263,282,302,324,343,363,384,404,422,443,464,484,502,522,543,564,582,603,624,642,662,683,703,723,742,763,783,803,822,842,862,884,902,923,944,962,983,1002,1023,1044,1064,1082,1103,1122,1144,1163,1182,1202,1222,1243,1262,1283],"xSR":741.5,"ySR":469.95,"xT1":424.9,"yT1":0,"xT2":1058.1,"yT2":0,"toosoon":0,"cond_shown":"Congruent","ratio_trial":200,"L_num":3,"L_den":10,"R_num":11,"R_den":22,"correct_side":2,"subjID":"lauracamilagarciasanchez5","gender":"1","school":"4","age":"9"},{"start_time":1552054984897,"click_time":1552054986562,"finger_time":1552054986301,"fix_duration":1413.7115059142163,"trial":8,"RT":1404,"MT":261,"sideResp":2,"stimulus":[],"xmouse":[769,770,770,772,772,772,772,772,772,772,772,772,772,773,773,773,774,775,775,775,775,775,775,775,775,775,775,775,775,775,775,775,775,775,775,775,776,777,778,780,781,784,785,786,786,786,787,787,790,790,791,792,793,793,793,793,793,793,793,793,793,793,794,796,797,799,800,807,817,837,851,863,872,891,901,914,931,952,995,1013,1027,1038,1046,1059],"ymouse":[532,532,531,531,531,531,531,531,531,531,531,531,531,531,531,531,531,531,531,531,531,531,531,531,531,531,531,531,531,531,531,531,531,531,531,531,531,530,529,528,527,526,525,525,525,525,524,524,522,522,522,521,521,521,521,521,521,521,521,521,521,521,520,519,519,518,518,513,504,485,473,460,453,437,422,403,375,340,248,197,161,125,99,68],"timestamp_mouse":[4,24,46,64,84,104,125,145,165,185,206,224,244,266,284,304,324,346,365,385,405,425,444,465,486,505,524,544,565,585,605,624,644,665,685,705,725,746,764,784,805,825,844,865,884,904,925,945,965,985,1004,1024,1044,1064,1084,1104,1124,1145,1164,1184,1205,1226,1245,1265,1285,1305,1325,1346,1365,1384,1404,1425,1445,1466,1484,1504,1525,1544,1564,1585,1604,1624,1645,1665],"xSR":741.5,"ySR":469.95,"xT1":424.9,"yT1":0,"xT2":1058.1,"yT2":0,"toosoon":0,"cond_shown":"Incongruent","ratio_trial":300,"L_num":4,"L_den":20,"R_num":2,"R_den":4,"correct_side":2,"subjID":"lauracamilagarciasanchez5","gender":"1","school":"4","age":"9"},{"start_time":1552054988798,"click_time":1552054989962,"finger_time":1552054989862,"fix_duration":1235.4006357117814,"trial":9,"RT":1064,"MT":100,"sideResp":2,"stimulus":[],"xmouse":[788,795,799,799,799,799,799,799,799,799,799,799,799,799,799,799,799,799,799,799,799,799,799,799,799,799,799,796,795,794,794,794,794,794,794,793,793,791,790,790,790,790,789,789,789,789,789,789,789,789,789,791,800,888,931,972,1007,1056,1119],"ymouse":[491,487,485,484,484,484,484,484,484,484,484,484,484,484,484,484,484,484,484,484,484,484,484,484,484,484,484,485,485,486,486,486,486,486,486,486,486,487,487,487,487,487,488,488,488,488,488,488,488,488,488,485,476,376,318,256,204,143,64],"timestamp_mouse":[4,23,46,64,84,104,123,143,165,184,204,223,244,263,285,304,324,343,364,383,404,423,443,464,484,505,525,543,565,584,604,624,644,663,684,704,723,744,765,784,804,823,843,864,884,904,924,944,964,983,1003,1023,1045,1064,1084,1103,1124,1145,1164],"xSR":741.5,"ySR":469.95,"xT1":424.9,"yT1":0,"xT2":1058.1,"yT2":0,"toosoon":0,"cond_shown":"Incongruent","ratio_trial":300,"L_num":13,"L_den":26,"R_num":12,"R_den":15,"correct_side":2,"subjID":"lauracamilagarciasanchez5","gender":"1","school":"4","age":"9"},{"start_time":1552054993059,"click_time":1552054994863,"finger_time":1552054994383,"fix_duration":975.7197832858812,"trial":10,"RT":1324,"MT":480,"sideResp":1,"stimulus":[],"xmouse":[759,759,759,759,759,759,759,759,759,759,759,759,759,759,759,759,759,759,759,759,759,759,759,759,759,759,759,759,759,759,759,759,759,759,759,759,759,759,759,759,759,759,759,759,759,759,759,759,759,759,759,759,759,759,759,759,759,760,760,760,760,760,760,760,760,760,760,761,761,761,761,760,758,754,751,747,735,725,718,712,701,693,690,687,682,673,639,606,579,556,494],"ymouse":[490,490,490,490,490,490,490,490,490,490,490,490,490,490,490,490,490,490,490,490,490,490,490,490,490,490,490,490,490,490,490,490,490,490,490,490,490,490,490,490,490,490,490,490,490,490,490,490,490,490,490,490,490,490,490,490,490,489,489,489,489,489,489,489,485,477,453,447,442,436,429,410,400,390,377,363,329,307,293,278,252,235,231,225,218,207,183,164,147,132,99],"timestamp_mouse":[12,38,43,63,83,103,123,144,163,183,203,223,243,264,283,302,322,342,364,382,404,423,443,463,483,502,523,544,563,583,603,622,643,664,683,703,722,743,763,784,803,822,842,863,882,903,923,942,964,983,1003,1022,1042,1063,1082,1103,1124,1143,1162,1183,1202,1224,1242,1263,1282,1303,1324,1342,1362,1382,1403,1422,1442,1462,1483,1503,1523,1543,1564,1582,1603,1632,1643,1663,1682,1702,1722,1742,1764,1782,1804],"xSR":741.5,"ySR":469.95,"xT1":424.9,"yT1":0,"xT2":1058.1,"yT2":0,"toosoon":0,"cond_shown":"Congruent","ratio_trial":100,"L_num":2,"L_den":5,"R_num":11,"R_den":22,"correct_side":2,"subjID":"lauracamilagarciasanchez5","gender":"1","school":"4","age":"9"},{"start_time":1552055002499,"click_time":1552055004402,"finger_time":1552055003302,"fix_duration":1494.798113663985,"trial":11,"RT":803,"MT":1100,"sideResp":1,"stimulus":[],"xmouse":[771,771,771,771,771,772,772,772,772,770,770,769,768,768,766,764,761,761,761,760,759,759,759,759,759,759,759,759,759,759,759,759,759,759,759,759,757,755,751,746,741,741,740,739,739,739,739,739,739,739,739,739,739,739,739,739,739,739,739,739,739,739,739,740,744,750,752,754,758,792,815,838,847,849,856,857,857,857,856,842,834,815,796,778,766,727,711,692,669,624,599,581,556,527,505,482],"ymouse":[483,483,483,483,483,484,484,485,485,486,486,486,486,486,487,488,489,489,489,489,490,490,490,490,490,490,490,490,490,490,490,490,490,490,490,490,491,492,494,496,499,499,499,500,500,500,500,500,500,500,500,500,500,500,500,500,500,500,500,500,500,500,500,500,497,495,493,493,487,425,357,305,288,277,258,253,252,251,248,243,241,238,235,232,228,215,206,197,184,164,153,145,132,118,108,92],"timestamp_mouse":[9,23,42,63,83,102,122,143,163,183,203,223,243,263,283,302,322,342,363,383,403,424,443,463,483,503,523,543,562,584,603,623,643,662,682,702,724,743,762,782,803,823,842,863,882,902,923,942,962,984,1002,1022,1043,1064,1082,1102,1123,1142,1163,1184,1202,1223,1242,1262,1282,1303,1322,1342,1362,1383,1403,1423,1442,1463,1484,1503,1523,1542,1563,1584,1602,1624,1644,1662,1683,1703,1723,1742,1763,1785,1803,1822,1842,1864,1883,1903],"xSR":741.5,"ySR":469.95,"xT1":424.9,"yT1":0,"xT2":1058.1,"yT2":0,"toosoon":0,"cond_shown":"Congruent","ratio_trial":200,"L_num":12,"L_den":20,"R_num":6,"R_den":15,"correct_side":1,"subjID":"lauracamilagarciasanchez5","gender":"1","school":"4","age":"9"},{"start_time":1552055007857,"click_time":1552055009342,"finger_time":1552055008781,"fix_duration":455.6753222238146,"trial":12,"RT":924,"MT":561,"sideResp":2,"stimulus":[],"xmouse":[788,788,788,788,788,788,788,788,788,788,788,788,788,788,788,788,788,788,788,788,788,788,788,788,788,788,788,788,788,788,788,788,788,788,788,788,788,788,788,788,788,788,788,788,788,793,798,811,819,830,842,857,870,875,880,884,891,906,915,927,938,957,981,993,1004,1012,1018,1020,1022,1024,1025,1028,1039,1050,1060],"ymouse":[498,498,498,498,498,498,498,498,498,498,498,498,498,498,498,498,498,498,498,498,498,498,498,498,498,498,498,498,498,498,498,498,498,498,498,498,498,498,498,498,498,498,498,498,495,483,462,417,399,377,357,331,305,291,274,261,239,208,197,183,170,150,127,117,109,102,96,92,89,87,87,84,77,70,64],"timestamp_mouse":[12,25,44,65,85,106,124,144,165,185,204,224,244,264,285,305,325,344,364,386,405,425,445,464,485,504,525,546,566,585,605,626,644,665,685,704,724,744,764,785,805,825,845,865,884,905,924,944,964,985,1004,1025,1044,1064,1084,1105,1125,1144,1164,1184,1205,1224,1245,1265,1285,1305,1325,1345,1364,1384,1405,1424,1445,1465,1484],"xSR":741.5,"ySR":469.95,"xT1":424.9,"yT1":0,"xT2":1058.1,"yT2":0,"toosoon":0,"cond_shown":"Incongruent","ratio_trial":300,"L_num":13,"L_den":26,"R_num":12,"R_den":15,"correct_side":2,"subjID":"lauracamilagarciasanchez5","gender":"1","school":"4","age":"9"},{"start_time":1552055011154,"click_time":1552055012842,"finger_time":1552055012621,"fix_duration":250,"trial":13,"RT":1467,"MT":221,"sideResp":2,"stimulus":[],"xmouse":[782,782,782,782,782,782,782,782,782,782,782,782,782,782,782,782,782,782,782,782,782,782,782,782,782,782,782,782,782,783,784,784,784,784,784,784,784,784,784,784,784,784,784,784,784,784,784,784,784,784,784,784,784,784,784,784,784,784,784,784,784,784,784,785,785,785,785,786,790,795,800,806,817,829,843,854,868,900,923,951,981,1012,1050,1070,1082],"ymouse":[519,519,519,519,519,519,519,519,519,519,519,519,519,519,519,519,519,519,519,519,519,519,519,519,519,519,519,519,519,519,518,518,518,518,518,518,518,518,518,518,518,518,518,518,518,518,518,518,518,518,518,518,518,518,518,518,518,518,518,518,518,518,518,518,518,518,518,518,516,512,507,499,484,467,450,437,420,375,338,297,249,202,141,108,86],"timestamp_mouse":[9,41,47,67,88,107,127,148,169,188,207,228,247,267,287,307,328,347,367,388,408,427,447,468,487,507,527,547,567,588,608,629,648,668,688,709,728,747,768,787,807,828,848,868,888,909,927,948,968,987,1007,1028,1047,1067,1089,1108,1127,1147,1168,1189,1208,1227,1247,1268,1289,1309,1327,1347,1368,1388,1408,1427,1448,1467,1487,1508,1528,1549,1567,1588,1608,1627,1650,1668,1688],"xSR":741.5,"ySR":469.95,"xT1":424.9,"yT1":0,"xT2":1058.1,"yT2":0,"toosoon":0,"cond_shown":"Congruent","ratio_trial":100,"L_num":7,"L_den":14,"R_num":15,"R_den":25,"correct_side":2,"subjID":"lauracamilagarciasanchez5","gender":"1","school":"4","age":"9"},{"start_time":1552055015812,"click_time":1552055017703,"finger_time":1552055016301,"fix_duration":250,"trial":14,"RT":489,"MT":1402,"sideResp":2,"stimulus":[],"xmouse":[765,765,765,765,765,765,765,765,765,765,765,765,765,765,765,765,763,761,759,756,749,747,746,744,741,727,717,710,706,704,702,701,701,701,702,705,708,713,717,721,726,742,749,755,759,767,768,768,768,768,766,763,763,761,760,758,756,756,756,756,756,756,756,756,756,756,756,757,762,767,773,775,777,779,784,804,822,869,891,950,1040,1072,1094,1112,1115,1121,1133,1139,1144,1144,1144,1143,1142,1142,1142],"ymouse":[522,522,522,522,522,522,522,522,522,522,522,522,522,522,522,522,522,523,524,525,525,525,525,525,525,518,512,507,505,503,502,502,502,501,500,499,498,496,493,492,490,483,480,477,476,473,472,472,472,472,473,474,475,476,476,478,479,479,479,479,479,479,479,479,479,479,480,481,483,484,485,485,485,485,483,475,466,440,424,384,310,282,262,245,237,223,187,168,137,135,135,119,108,100,91],"timestamp_mouse":[11,36,50,70,90,110,130,149,169,189,209,229,250,270,289,309,343,350,370,390,410,431,450,470,489,509,529,550,570,589,610,629,650,670,690,709,729,751,769,789,809,829,850,870,890,909,930,950,970,990,1010,1030,1050,1069,1090,1109,1130,1150,1169,1189,1210,1229,1249,1270,1290,1310,1331,1350,1370,1390,1409,1429,1451,1470,1490,1509,1529,1549,1570,1589,1609,1629,1649,1669,1691,1709,1730,1750,1770,1789,1809,1830,1849,1869,1890],"xSR":741.5,"ySR":469.95,"xT1":424.9,"yT1":0,"xT2":1058.1,"yT2":0,"toosoon":0,"cond_shown":"Incongruent","ratio_trial":100,"L_num":12,"L_den":24,"R_num":9,"R_den":15,"correct_side":2,"subjID":"lauracamilagarciasanchez5","gender":"1","school":"4","age":"9"},{"start_time":1552055022966,"click_time":1552055024423,"finger_time":1552055024021,"fix_duration":1403.196329059779,"trial":15,"RT":1055,"MT":402,"sideResp":2,"stimulus":[],"xmouse":[791,791,791,791,791,791,791,791,791,791,791,791,791,791,791,791,791,791,791,791,791,791,791,791,791,791,791,791,791,791,791,791,791,791,790,790,790,790,790,790,790,790,790,790,790,790,790,790,790,790,794,830,880,964,1015,1064,1094,1110,1134,1140,1146,1152,1159,1175,1183,1187,1189,1190,1189,1186,1181,1168,1152],"ymouse":[515,515,515,515,515,515,515,515,515,515,515,515,515,515,515,515,515,515,515,515,515,515,515,515,515,515,515,515,515,515,515,515,515,515,515,515,515,515,515,515,515,515,515,515,515,515,515,515,515,515,512,491,462,385,312,249,212,195,167,160,151,140,127,87,67,52,42,35,33,33,33,36,39],"timestamp_mouse":[15,41,57,75,96,116,135,156,175,195,216,236,256,276,295,316,336,355,376,395,415,435,456,475,495,515,535,555,575,596,616,637,655,675,695,716,735,755,776,795,817,836,856,876,895,917,936,956,976,996,1016,1036,1055,1075,1095,1115,1136,1156,1175,1195,1216,1235,1255,1275,1296,1315,1335,1356,1375,1396,1417,1436,1457],"xSR":741.5,"ySR":469.95,"xT1":424.9,"yT1":0,"xT2":1058.1,"yT2":0,"toosoon":0,"cond_shown":"Incongruent","ratio_trial":200,"L_num":14,"L_den":30,"R_num":6,"R_den":9,"correct_side":2,"subjID":"lauracamilagarciasanchez5","gender":"1","school":"4","age":"9"},{"start_time":1552055026719,"click_time":1552055028542,"finger_time":1552055027063,"fix_duration":397.87730470028157,"trial":16,"RT":344,"MT":1479,"sideResp":1,"stimulus":[],"xmouse":[786,786,786,786,786,786,786,786,786,786,786,786,786,786,786,786,790,793,794,795,795,795,795,795,795,795,795,795,795,795,795,795,795,795,795,795,795,795,795,795,793,791,784,782,780,779,778,777,776,776,776,776,776,776,776,773,767,738,700,670,641,605,589,576,564,557,551,549,546,545,544,543,543,542,542,542,540,501,416,373,366,357,354,352,352,351,353,358,362,370,389,472],"ymouse":[491,491,491,491,491,491,491,491,491,491,491,491,491,491,491,489,476,464,456,454,452,451,451,451,451,451,451,451,451,451,451,451,451,451,451,451,451,451,451,451,452,454,461,466,468,469,472,474,475,476,476,476,476,476,476,477,475,460,436,409,370,312,289,269,247,230,208,201,192,189,186,185,180,178,178,178,175,158,123,106,100,91,83,79,76,70,62,57,55,52,46,22],"timestamp_mouse":[10,23,42,64,82,103,122,142,163,183,202,223,243,263,284,302,322,344,363,383,403,423,442,462,484,503,523,542,564,583,602,623,643,662,683,704,723,743,763,783,802,822,842,862,883,903,923,943,962,983,1002,1023,1042,1062,1083,1102,1123,1143,1163,1183,1203,1224,1242,1262,1283,1302,1322,1342,1362,1383,1402,1423,1443,1462,1482,1503,1523,1542,1563,1583,1602,1622,1642,1662,1683,1702,1723,1743,1762,1783,1803,1823],"xSR":741.5,"ySR":469.95,"xT1":424.9,"yT1":0,"xT2":1058.1,"yT2":0,"toosoon":0,"cond_shown":"Incongruent","ratio_trial":300,"L_num":1,"L_den":2,"R_num":2,"R_den":10,"correct_side":1,"subjID":"lauracamilagarciasanchez5","gender":"1","school":"4","age":"9"},{"start_time":1552055034302,"click_time":1552055036164,"finger_time":1552055035821,"fix_duration":418.2663426105947,"trial":17,"RT":1519,"MT":343,"sideResp":1,"stimulus":[],"xmouse":[783,783,783,783,783,783,783,783,783,783,783,783,783,783,783,783,783,783,783,783,783,783,783,783,783,783,783,783,783,783,783,783,783,783,783,783,783,783,783,783,783,783,783,783,783,783,783,783,783,783,783,783,783,783,783,783,783,783,783,783,783,783,783,783,783,783,783,783,783,783,783,783,783,783,783,784,775,744,653,614,569,544,532,527,527,527,527,527,527,527,527,527,527,512],"ymouse":[524,524,524,524,524,524,524,524,524,524,524,524,524,524,524,524,524,524,524,524,524,524,524,524,524,524,524,524,524,524,524,524,524,524,524,524,524,524,524,524,524,524,524,524,524,524,524,524,524,524,524,524,524,524,524,524,524,524,524,524,524,524,524,524,524,524,524,524,524,524,524,524,524,524,524,522,466,370,163,105,61,31,15,1,1,1,1,1,1,1,1,1,1,7],"timestamp_mouse":[1,20,42,59,79,101,121,140,160,179,199,220,239,260,279,299,320,341,361,380,399,419,440,459,481,499,519,539,559,579,599,620,639,661,680,699,720,739,759,779,799,819,840,860,880,900,919,940,960,980,999,1020,1040,1060,1079,1099,1120,1140,1159,1180,1201,1221,1240,1260,1279,1300,1321,1340,1359,1381,1400,1420,1440,1460,1480,1499,1519,1539,1560,1579,1599,1620,1640,1659,1679,1700,1720,1739,1759,1780,1800,1820,1840,1862],"xSR":741.5,"ySR":469.95,"xT1":424.9,"yT1":0,"xT2":1058.1,"yT2":0,"toosoon":0,"cond_shown":"Congruent","ratio_trial":100,"L_num":9,"L_den":15,"R_num":8,"R_den":16,"correct_side":1,"subjID":"lauracamilagarciasanchez5","gender":"1","school":"4","age":"9"},{"start_time":1552055037914,"click_time":1552055040581,"finger_time":1552055039461,"fix_duration":692.9729117654988,"trial":18,"RT":1547,"MT":1120,"sideResp":1,"stimulus":[],"xmouse":[794,794,794,794,794,794,794,794,794,794,794,794,794,794,794,794,793,793,793,793,793,793,793,793,793,793,793,793,793,793,793,793,793,793,793,793,793,793,793,793,793,793,793,793,793,793,793,793,793,793,793,793,793,793,793,793,793,793,793,793,793,793,793,793,793,793,793,793,793,793,793,793,793,793,793,792,789,774,705,673,643,628,620,612,611,610,609,607,606,606,606,606,606,617,626,626,626,626,626,626,626,626,626,626,626,626,626,626,626,553,549,548,546,544,544,543,543,543,543,543,543,543,542,541,541,541,541,539,535,534,533,531,529,523],"ymouse":[524,524,524,524,524,524,524,524,524,524,524,524,524,524,524,524,524,524,524,524,524,524,524,524,524,524,524,524,524,524,524,524,524,524,524,524,524,524,524,524,524,524,524,524,524,524,524,524,524,524,524,524,524,524,524,524,524,524,524,524,524,524,524,524,524,524,524,524,524,524,524,524,524,524,524,524,513,468,363,320,274,246,229,206,200,193,186,178,169,162,148,133,121,79,38,20,20,20,20,20,20,20,20,20,20,20,20,20,20,1,10,16,18,24,24,24,24,24,24,24,24,24,25,26,26,27,27,28,30,31,34,36,39,45],"timestamp_mouse":[10,44,49,67,87,107,129,148,167,188,207,228,248,268,288,307,327,347,368,388,407,427,448,468,489,507,527,548,568,588,608,628,648,667,687,707,728,748,768,788,807,828,848,867,888,908,927,948,967,988,1008,1028,1048,1067,1088,1108,1128,1147,1167,1187,1208,1227,1247,1267,1287,1309,1328,1348,1368,1387,1407,1428,1447,1467,1488,1507,1528,1547,1567,1587,1608,1627,1649,1668,1688,1707,1727,1747,1767,1788,1807,1827,1849,1867,1889,1908,1927,1947,1968,1987,2008,2027,2047,2067,2088,2107,2128,2149,2167,2187,2207,2228,2247,2268,2288,2308,2328,2347,2368,2389,2407,2427,2447,2467,2488,2508,2528,2547,2567,2587,2608,2628,2648,2667],"xSR":741.5,"ySR":469.95,"xT1":424.9,"yT1":0,"xT2":1058.1,"yT2":0,"toosoon":0,"cond_shown":"Congruent","ratio_trial":200,"L_num":8,"L_den":15,"R_num":3,"R_den":9,"correct_side":1,"subjID":"lauracamilagarciasanchez5","gender":"1","school":"4","age":"9"},{"start_time":1552055042635,"click_time":1552055045162,"finger_time":1552055044342,"fix_duration":670.8044284255869,"trial":19,"RT":1707,"MT":820,"sideResp":1,"stimulus":[],"xmouse":[770,770,770,770,770,770,770,770,770,770,770,770,770,770,770,772,776,781,782,783,783,783,783,783,783,783,783,783,783,783,783,783,783,783,783,783,783,783,783,783,783,784,785,785,785,785,785,785,785,785,785,785,785,785,785,785,785,785,785,785,785,785,785,785,785,785,785,786,786,786,786,786,786,786,786,786,788,791,793,795,797,798,800,801,802,804,807,816,821,827,835,842,849,871,875,882,885,888,888,888,888,888,888,890,892,900,906,918,921,923,927,929,931,931,931,931,931,926,921,915,905,886,791,724,602,532,496],"ymouse":[537,537,537,537,537,537,537,537,537,537,537,537,537,537,537,536,525,514,512,510,510,510,510,510,510,510,510,510,510,510,510,510,510,510,510,510,510,510,510,509,508,506,503,503,503,503,503,502,502,502,502,502,502,502,502,502,502,502,502,502,502,502,502,502,502,501,501,500,499,498,498,498,498,498,498,497,494,489,486,483,481,479,476,474,471,469,464,450,442,432,420,410,397,358,351,338,332,325,325,325,325,325,325,322,317,303,295,278,274,269,265,262,259,259,259,259,259,255,254,251,247,238,198,160,91,51,32],"timestamp_mouse":[9,34,47,66,88,106,127,148,166,186,207,228,246,266,288,306,326,346,366,386,408,427,447,467,486,507,527,546,566,586,607,627,647,666,687,706,727,746,767,786,807,827,846,866,886,907,926,946,966,986,1007,1026,1047,1066,1088,1106,1127,1146,1166,1187,1206,1227,1247,1266,1287,1306,1327,1346,1368,1387,1406,1426,1446,1466,1487,1507,1526,1546,1567,1587,1607,1626,1647,1668,1687,1707,1726,1747,1767,1787,1806,1827,1847,1868,1886,1906,1927,1947,1968,1986,2006,2027,2047,2066,2086,2107,2127,2148,2166,2186,2206,2227,2247,2266,2286,2306,2326,2347,2366,2386,2407,2427,2448,2466,2487,2506,2526],"xSR":741.5,"ySR":469.95,"xT1":424.9,"yT1":0,"xT2":1058.1,"yT2":0,"toosoon":0,"cond_shown":"Congruent","ratio_trial":100,"L_num":1,"L_den":2,"R_num":3,"R_den":5,"correct_side":2,"subjID":"lauracamilagarciasanchez5","gender":"1","school":"4","age":"9"},{"start_time":1552055049646,"click_time":1552055051402,"finger_time":1552055050841,"fix_duration":1023.518741062535,"trial":20,"RT":1195,"MT":561,"sideResp":2,"stimulus":[],"xmouse":[801,801,801,801,801,801,801,801,800,799,798,798,798,798,796,795,793,781,774,770,770,770,770,770,770,770,770,770,770,770,770,770,770,770,770,770,770,770,770,770,770,770,770,770,770,770,770,770,770,770,770,770,770,770,770,771,774,801,820,841,857,878,901,905,913,922,928,937,941,945,948,953,966,969,971,971,971,974,978,987,1001,1018,1029,1033,1039,1045,1053,1061],"ymouse":[506,506,506,506,506,506,506,506,506,506,506,506,506,506,506,506,506,506,506,506,506,506,506,506,506,506,506,506,506,506,506,506,506,506,506,506,506,506,506,506,506,506,506,506,506,506,506,506,506,506,506,506,506,506,506,506,504,484,471,457,445,423,393,386,372,356,340,308,293,279,260,232,139,116,102,95,92,89,87,82,73,64,58,56,53,51,47,44],"timestamp_mouse":[21,41,55,75,96,116,136,155,176,196,216,235,256,276,295,315,336,356,376,395,415,435,456,476,495,515,535,555,575,595,616,636,656,675,697,715,736,755,775,795,816,836,856,876,897,916,936,955,976,995,1015,1035,1055,1076,1096,1116,1136,1156,1176,1195,1216,1235,1256,1275,1295,1315,1335,1356,1375,1395,1415,1436,1455,1476,1495,1515,1536,1555,1575,1596,1616,1636,1655,1675,1696,1716,1735,1756],"xSR":741.5,"ySR":469.95,"xT1":424.9,"yT1":0,"xT2":1058.1,"yT2":0,"toosoon":0,"cond_shown":"Incongruent","ratio_trial":200,"L_num":14,"L_den":30,"R_num":12,"R_den":18,"correct_side":2,"subjID":"lauracamilagarciasanchez5","gender":"1","school":"4","age":"9"},{"start_time":1552055052645,"click_time":1552055054041,"finger_time":1552055053722,"fix_duration":362.8384852011626,"trial":21,"RT":1077,"MT":319,"sideResp":2,"stimulus":[],"xmouse":[818,818,818,818,818,818,818,818,818,818,818,818,818,818,818,818,818,818,818,818,818,818,818,818,818,818,818,818,818,818,818,818,818,818,818,818,818,818,818,818,818,818,818,818,818,818,818,818,818,818,819,822,837,879,921,948,975,1023,1049,1054,1062,1069,1083,1089,1096,1101,1106,1108,1108,1108],"ymouse":[519,519,519,519,519,519,519,519,519,519,519,519,519,519,519,519,519,519,519,519,519,519,519,519,519,519,519,519,519,519,519,519,519,519,519,519,519,519,519,519,519,519,519,519,519,519,519,519,519,519,519,513,497,462,440,419,399,364,344,339,327,311,271,247,222,197,172,148,104,97],"timestamp_mouse":[16,38,57,76,97,118,137,156,177,196,216,237,257,277,297,317,337,357,376,396,417,437,457,477,497,516,537,557,576,598,617,637,656,677,698,717,737,757,776,797,816,837,857,876,897,916,937,956,977,996,1018,1037,1056,1077,1096,1117,1136,1156,1176,1197,1216,1237,1257,1276,1297,1317,1337,1357,1377,1396],"xSR":741.5,"ySR":469.95,"xT1":424.9,"yT1":0,"xT2":1058.1,"yT2":0,"toosoon":0,"cond_shown":"Incongruent","ratio_trial":100,"L_num":6,"L_den":12,"R_num":3,"R_den":5,"correct_side":2,"subjID":"lauracamilagarciasanchez5","gender":"1","school":"4","age":"9"},{"start_time":1552055057023,"click_time":1552055058543,"finger_time":1552055058142,"fix_duration":680.7635538349754,"trial":22,"RT":1119,"MT":401,"sideResp":2,"stimulus":[],"xmouse":[790,790,790,790,790,790,790,790,790,790,790,790,790,790,790,790,790,790,790,790,790,790,790,790,790,790,790,790,790,790,790,790,790,790,790,790,790,790,790,790,790,790,790,790,790,790,790,790,790,790,790,790,790,795,819,844,866,886,903,928,935,944,953,969,992,1006,1007,1013,1019,1031,1033,1035,1040,1043,1053,1064],"ymouse":[518,518,518,518,518,518,518,518,518,518,518,518,518,518,518,518,518,518,518,518,518,518,518,518,518,518,518,518,518,518,518,518,518,518,518,518,518,518,518,518,518,518,518,518,518,518,518,518,518,518,518,518,518,511,475,437,395,352,311,236,218,200,185,168,144,135,134,127,117,97,95,93,91,90,84,77],"timestamp_mouse":[22,43,59,79,99,118,138,159,178,199,219,239,258,278,298,320,338,358,378,398,420,439,459,480,498,518,539,560,578,598,620,639,658,678,698,720,738,758,779,799,818,838,860,878,898,920,939,958,979,999,1019,1039,1059,1080,1100,1119,1138,1158,1178,1198,1218,1239,1258,1279,1299,1319,1340,1359,1378,1398,1419,1438,1459,1479,1498,1519],"xSR":741.5,"ySR":469.95,"xT1":424.9,"yT1":0,"xT2":1058.1,"yT2":0,"toosoon":0,"cond_shown":"Congruent","ratio_trial":200,"L_num":6,"L_den":20,"R_num":11,"R_den":22,"correct_side":2,"subjID":"lauracamilagarciasanchez5","gender":"1","school":"4","age":"9"},{"start_time":1552055060944,"click_time":1552055063282,"finger_time":1552055062022,"fix_duration":1260.9617676079451,"trial":23,"RT":1078,"MT":1260,"sideResp":2,"stimulus":[],"xmouse":[765,765,765,765,765,765,765,765,765,765,765,765,765,765,765,765,765,765,765,765,765,765,765,765,765,765,765,765,765,765,765,765,765,765,765,765,765,765,765,765,765,765,765,765,765,765,765,765,765,765,765,765,765,755,748,740,733,726,717,705,694,691,688,669,653,634,619,605,583,572,563,545,529,509,507,506,506,506,506,506,505,505,507,540,558,577,610,656,681,686,692,709,725,749,757,766,776,788,798,818,828,850,869,892,899,905,915,921,932,936,944,952,964,987,1029,1053,1079],"ymouse":[481,481,481,481,481,481,481,481,481,481,481,481,481,481,481,481,481,481,481,481,481,481,481,481,481,481,481,481,481,481,481,481,481,481,481,481,481,481,481,481,481,481,481,481,481,481,481,481,481,481,481,481,481,450,429,411,395,381,370,352,339,335,332,309,292,276,264,250,230,219,208,182,162,131,125,125,125,125,125,125,124,124,124,133,140,145,155,167,172,173,173,173,173,166,163,160,155,150,145,137,133,125,120,112,109,107,102,100,95,93,90,86,83,75,62,56,49],"timestamp_mouse":[18,43,59,77,97,118,137,159,177,198,218,238,257,279,298,317,338,358,377,397,418,438,459,478,499,519,538,558,577,598,618,637,659,677,698,718,737,758,777,799,818,837,859,878,898,917,938,957,978,999,1017,1039,1058,1078,1097,1117,1139,1158,1178,1198,1218,1238,1258,1278,1297,1317,1338,1357,1378,1397,1417,1437,1458,1478,1498,1518,1538,1559,1578,1599,1617,1638,1657,1677,1697,1717,1738,1757,1778,1797,1817,1838,1858,1878,1897,1918,1939,1958,1978,1998,2018,2038,2058,2078,2098,2117,2137,2159,2178,2197,2217,2238,2257,2277,2298,2317,2337],"xSR":741.5,"ySR":469.95,"xT1":424.9,"yT1":0,"xT2":1058.1,"yT2":0,"toosoon":0,"cond_shown":"Incongruent","ratio_trial":100,"L_num":3,"L_den":9,"R_num":7,"R_den":30,"correct_side":1,"subjID":"lauracamilagarciasanchez5","gender":"1","school":"4","age":"9"},{"start_time":1552055069155,"click_time":1552055071122,"finger_time":1552055070442,"fix_duration":250,"trial":24,"RT":1287,"MT":680,"sideResp":1,"stimulus":[],"xmouse":[797,797,797,797,797,797,797,797,797,797,797,797,797,797,797,797,797,797,797,797,797,797,796,796,796,796,796,796,796,796,796,796,796,796,796,796,796,796,796,796,796,795,795,795,795,795,795,794,792,792,792,792,792,791,790,790,790,790,790,786,776,768,762,757,738,717,708,684,666,620,600,583,565,554,546,546,546,546,546,548,549,549,550,550,537,522,498,482,473,458,453,449,446,444,444,444,448,451,457],"ymouse":[547,547,547,547,547,547,547,547,547,547,547,547,547,547,547,547,546,546,546,546,546,544,543,541,540,540,540,540,540,540,540,540,540,540,540,540,540,540,540,540,540,539,539,539,539,539,539,539,539,539,539,539,539,539,540,540,540,540,540,535,519,505,494,484,459,432,422,393,371,333,325,315,304,296,288,286,277,275,270,256,243,232,218,207,180,167,150,142,137,128,127,124,123,121,118,115,108,103,93],"timestamp_mouse":[9,39,46,66,88,106,127,146,166,187,206,226,247,267,286,307,327,346,366,388,406,427,447,467,487,508,527,547,568,588,606,627,647,666,686,707,728,746,766,788,806,826,847,866,887,906,927,947,968,988,1006,1027,1047,1066,1087,1108,1128,1147,1166,1187,1207,1226,1247,1267,1287,1306,1327,1347,1366,1386,1406,1427,1447,1468,1487,1506,1527,1546,1566,1587,1607,1626,1646,1667,1688,1706,1726,1746,1767,1787,1807,1826,1846,1866,1887,1906,1928,1947,1967],"xSR":741.5,"ySR":469.95,"xT1":424.9,"yT1":0,"xT2":1058.1,"yT2":0,"toosoon":0,"cond_shown":"Incongruent","ratio_trial":200,"L_num":7,"L_den":10,"R_num":14,"R_den":28,"correct_side":1,"subjID":"lauracamilagarciasanchez5","gender":"1","school":"4","age":"9"},{"start_time":1552055073695,"click_time":1552055075362,"finger_time":1552055075041,"fix_duration":250,"trial":25,"RT":1346,"MT":321,"sideResp":1,"stimulus":[],"xmouse":[798,798,798,798,798,798,798,798,798,798,798,798,798,798,798,798,798,798,798,798,798,798,797,797,797,796,796,796,796,796,795,795,795,795,795,795,795,795,795,795,795,795,795,795,795,795,795,795,795,795,795,795,795,795,795,795,795,794,791,786,775,767,764,761,759,758,751,719,689,684,679,671,656,612,596,587,581,574,561,554,549,541,534,522],"ymouse":[523,523,523,523,523,523,523,523,523,523,523,523,523,523,523,523,523,523,523,523,523,523,524,524,524,524,524,524,524,524,525,525,525,525,525,525,525,525,525,525,525,525,525,525,525,525,525,525,525,525,525,525,525,525,525,525,525,525,526,528,533,537,538,539,539,539,539,529,501,481,460,431,387,310,285,263,240,218,179,161,141,118,103,76],"timestamp_mouse":[11,26,64,66,87,106,127,148,166,187,206,228,248,267,286,307,327,346,366,387,408,426,447,467,488,507,526,546,567,586,607,628,646,666,688,708,727,747,766,788,806,827,846,867,886,907,927,947,967,987,1006,1027,1046,1066,1086,1106,1126,1147,1166,1186,1207,1226,1247,1266,1286,1307,1327,1346,1366,1387,1407,1427,1448,1467,1487,1508,1527,1546,1567,1587,1608,1627,1647,1666],"xSR":741.5,"ySR":469.95,"xT1":424.9,"yT1":0,"xT2":1058.1,"yT2":0,"toosoon":0,"cond_shown":"Congruent","ratio_trial":300,"L_num":8,"L_den":16,"R_num":1,"R_den":5,"correct_side":1,"subjID":"lauracamilagarciasanchez5","gender":"1","school":"4","age":"9"},{"start_time":1552055077849,"click_time":1552055079601,"finger_time":1552055079003,"fix_duration":1406.1801172131034,"trial":26,"RT":1154,"MT":598,"sideResp":1,"stimulus":[],"xmouse":[803,803,803,803,803,803,803,803,803,803,803,803,803,803,803,803,803,803,803,803,803,803,803,803,803,803,803,803,803,803,803,803,803,803,803,803,803,803,803,803,803,803,803,803,803,803,803,803,803,803,803,803,803,803,803,803,799,794,786,782,778,771,765,758,750,719,690,674,596,511,360,337,334,334,334,334,334,334,334,334,334,334,335,339,345,391,413,429],"ymouse":[526,526,526,526,526,526,526,526,526,526,526,526,526,526,526,526,526,526,526,526,526,526,526,526,526,526,526,526,526,526,526,526,526,526,526,526,526,526,526,526,526,526,526,526,526,526,526,526,526,526,526,526,526,526,526,526,494,465,423,409,399,385,378,370,361,332,299,284,237,195,108,95,93,92,91,78,67,56,47,40,39,39,37,33,31,25,22,20],"timestamp_mouse":[12,43,53,74,93,113,134,154,173,192,213,232,253,273,294,313,332,353,372,393,413,433,452,472,494,512,532,552,573,592,613,632,653,674,694,714,732,752,773,794,813,832,852,874,893,912,933,952,974,994,1013,1032,1052,1072,1093,1113,1134,1154,1172,1194,1213,1234,1253,1273,1293,1313,1332,1353,1373,1394,1412,1433,1452,1472,1492,1513,1532,1553,1573,1593,1613,1633,1652,1673,1693,1714,1732,1752],"xSR":741.5,"ySR":469.95,"xT1":424.9,"yT1":0,"xT2":1058.1,"yT2":0,"toosoon":0,"cond_shown":"Incongruent","ratio_trial":200,"L_num":7,"L_den":10,"R_num":8,"R_den":16,"correct_side":1,"subjID":"lauracamilagarciasanchez5","gender":"1","school":"4","age":"9"},{"start_time":1552055081586,"click_time":1552055084582,"finger_time":1552055082663,"fix_duration":1063.9061353835252,"trial":27,"RT":1077,"MT":1919,"sideResp":2,"stimulus":[],"xmouse":[813,813,813,813,813,813,813,813,813,813,813,813,813,813,813,813,813,813,813,813,813,813,813,813,813,813,813,813,813,813,813,813,813,813,813,813,813,813,813,813,813,813,813,813,813,813,813,813,813,813,813,816,817,826,829,832,834,835,835,835,835,835,835,835,835,835,835,835,835,835,835,835,835,835,835,835,835,835,835,835,835,834,833,830,815,795,770,747,729,725,725,725,725,725,725,727,730,733,736,745,748,748,748,748,748,745,739,737,737,738,747,755,763,768,781,787,794,803,814,892,957,1023,1080,1137,1221,1242,1242,1242,1242,1242,1242,1242,1242,1242,1242,1242,1242,1242,1242,1242,1242,1242,1242,1242,1242,1242,1242,1242,1162,1152],"ymouse":[515,515,515,515,515,515,515,515,515,515,515,515,515,515,515,515,515,515,515,515,515,515,515,515,515,515,515,515,515,515,515,515,515,515,515,515,515,515,515,515,515,513,507,507,503,502,501,499,495,493,491,485,479,463,458,455,451,450,448,448,448,448,448,448,447,447,447,447,447,447,447,447,447,447,447,447,447,446,445,442,441,440,437,431,409,391,371,358,347,345,345,345,345,345,345,343,341,339,337,333,331,331,331,331,331,331,333,333,333,333,328,323,319,316,310,307,303,298,294,253,223,185,151,111,41,6,6,6,6,6,6,6,6,6,6,6,6,6,6,6,6,6,6,6,6,6,6,6,2,14],"timestamp_mouse":[17,40,56,76,96,115,135,156,177,196,216,235,256,275,296,315,336,355,376,395,415,436,457,477,497,515,535,555,576,595,617,636,656,676,696,715,735,756,777,796,815,836,864,876,896,915,936,955,977,995,1016,1036,1057,1077,1095,1115,1136,1157,1176,1195,1215,1237,1257,1276,1295,1316,1336,1356,1375,1395,1415,1436,1456,1475,1495,1515,1535,1555,1577,1596,1615,1636,1655,1676,1695,1715,1736,1755,1775,1796,1816,1836,1857,1876,1896,1916,1937,1957,1976,1996,2015,2035,2056,2076,2095,2116,2135,2155,2176,2195,2216,2236,2256,2276,2296,2315,2335,2355,2376,2396,2416,2436,2455,2476,2495,2516,2536,2556,2575,2596,2615,2637,2655,2676,2695,2715,2735,2755,2776,2795,2815,2835,2855,2875,2896,2916,2935,2955,2976,2995],"xSR":741.5,"ySR":469.95,"xT1":424.9,"yT1":0,"xT2":1058.1,"yT2":0,"toosoon":0,"cond_shown":"Congruent","ratio_trial":200,"L_num":5,"L_den":10,"R_num":14,"R_den":20,"correct_side":2,"subjID":"lauracamilagarciasanchez5","gender":"1","school":"4","age":"9"},{"start_time":1552055086399,"click_time":1552055087982,"finger_time":1552055087482,"fix_duration":375.3274267373898,"trial":28,"RT":1083,"MT":500,"sideResp":1,"stimulus":[],"xmouse":[798,798,798,798,796,795,795,795,795,795,795,795,795,795,795,795,795,795,795,795,795,795,795,795,795,795,795,795,795,795,795,795,795,795,795,795,795,795,795,795,795,795,795,795,795,795,795,795,795,795,795,795,795,790,774,762,746,732,702,650,629,611,600,593,584,581,579,577,574,572,571,570,565,557,548,544,539,524,515,501],"ymouse":[508,505,503,503,489,489,488,488,488,488,488,488,488,488,488,488,488,488,488,488,488,488,488,488,488,488,488,488,488,488,488,488,488,488,488,488,488,488,488,488,488,488,488,488,488,488,488,488,488,488,488,488,488,480,461,450,434,419,394,357,342,330,320,314,304,300,298,294,287,274,263,248,230,212,186,171,154,122,105,77],"timestamp_mouse":[3,28,54,62,82,103,123,143,164,183,202,222,242,263,282,303,322,343,362,383,403,424,444,463,483,503,522,542,562,584,603,623,643,662,683,704,723,743,762,784,803,823,842,862,883,903,924,944,963,982,1003,1024,1043,1063,1083,1103,1123,1143,1163,1183,1202,1223,1244,1264,1283,1302,1322,1343,1363,1383,1402,1423,1444,1462,1484,1502,1523,1543,1563,1583],"xSR":741.5,"ySR":469.95,"xT1":424.9,"yT1":0,"xT2":1058.1,"yT2":0,"toosoon":0,"cond_shown":"Congruent","ratio_trial":300,"L_num":20,"L_den":25,"R_num":9,"R_den":18,"correct_side":1,"subjID":"lauracamilagarciasanchez5","gender":"1","school":"4","age":"9"},{"start_time":1552055089413,"click_time":1552055090801,"finger_time":1552055090362,"fix_duration":609.4142703439833,"trial":29,"RT":949,"MT":439,"sideResp":1,"stimulus":[],"xmouse":[775,775,775,775,775,775,775,775,775,775,775,775,775,775,775,775,775,775,775,775,775,775,775,775,775,775,775,775,775,775,775,775,775,775,775,775,775,775,775,775,775,775,775,775,775,775,761,738,671,630,584,542,523,475,451,437,429,424,418,417,414,414,414,414,414,414,415,417,420,438],"ymouse":[495,495,495,495,495,495,495,495,495,495,495,495,495,495,495,495,495,495,495,495,495,495,495,495,495,495,495,495,495,495,495,495,495,495,495,495,495,495,495,495,495,495,495,495,495,495,475,442,360,320,279,239,220,167,138,121,112,105,95,91,84,79,74,64,60,59,58,58,58,58],"timestamp_mouse":[13,35,49,69,89,108,128,148,169,188,208,228,249,270,289,309,329,350,370,389,409,428,449,469,488,509,530,549,568,588,610,628,648,670,688,708,728,749,770,790,809,830,850,869,889,910,929,949,969,989,1008,1029,1049,1070,1089,1109,1128,1148,1170,1189,1209,1228,1248,1270,1288,1309,1330,1349,1369,1388],"xSR":741.5,"ySR":469.95,"xT1":424.9,"yT1":0,"xT2":1058.1,"yT2":0,"toosoon":0,"cond_shown":"Incongruent","ratio_trial":200,"L_num":14,"L_den":30,"R_num":6,"R_den":9,"correct_side":2,"subjID":"lauracamilagarciasanchez5","gender":"1","school":"4","age":"9"},{"start_time":1552055098953,"click_time":1552055100583,"finger_time":1552055099021,"fix_duration":1048.0417191660142,"trial":30,"RT":68,"MT":1562,"sideResp":2,"stimulus":[],"xmouse":[743,742,742,740,740,740,740,740,740,740,740,740,740,740,740,740,740,740,740,740,740,740,740,740,740,740,740,740,740,740,740,740,740,740,740,740,740,740,740,740,740,741,744,748,750,751,752,753,758,758,759,759,759,759,759,759,759,759,759,759,759,759,759,760,764,768,772,780,814,836,858,881,904,967,994,1012,1035,1061,1089,1098,1098,1100],"ymouse":[530,530,530,529,529,529,529,529,529,529,529,529,529,529,529,529,529,529,529,529,529,529,529,529,529,529,529,529,529,529,529,529,529,529,529,529,529,529,529,529,529,529,529,529,528,528,528,527,526,526,526,526,526,526,526,526,526,526,526,526,526,526,526,525,523,521,519,516,493,477,457,435,408,323,285,259,227,184,128,103,103,80],"timestamp_mouse":[9,40,48,68,90,108,129,148,168,189,210,230,249,269,289,308,330,349,368,389,409,429,449,469,488,508,529,549,569,589,608,628,649,668,688,708,729,750,768,789,810,830,849,868,888,908,929,948,969,988,1008,1028,1049,1068,1090,1110,1129,1148,1168,1190,1208,1229,1248,1269,1290,1308,1329,1348,1370,1390,1408,1429,1448,1468,1489,1508,1528,1548,1568,1589,1608,1630],"xSR":741.5,"ySR":469.95,"xT1":424.9,"yT1":0,"xT2":1058.1,"yT2":0,"toosoon":0,"cond_shown":"Congruent","ratio_trial":100,"L_num":1,"L_den":2,"R_num":3,"R_den":5,"correct_side":2,"subjID":"lauracamilagarciasanchez5","gender":"1","school":"4","age":"9"},{"start_time":1552055102810,"click_time":1552055105341,"finger_time":1552055104382,"fix_duration":886.2717571697311,"trial":31,"RT":1572,"MT":959,"sideResp":1,"stimulus":[],"xmouse":[778,778,778,778,778,778,778,778,778,778,778,778,778,778,778,778,778,778,778,778,778,778,778,778,778,778,778,778,778,778,778,778,778,778,778,778,778,778,778,778,778,778,778,778,778,778,778,778,778,778,778,778,778,778,778,778,778,778,778,778,778,778,778,778,778,778,778,778,778,778,778,778,778,778,778,784,796,809,828,847,865,905,929,957,990,1030,1040,1046,1048,1053,1058,1059,1059,1059,1059,1059,1059,1059,1057,1056,1052,1043,1034,1019,991,931,902,866,831,785,732,707,686,668,656,637,631,625,608,596,580,574,567,558,552,525,513],"ymouse":[522,522,522,522,522,522,522,522,522,522,522,522,522,522,522,522,522,522,522,522,522,522,522,522,522,522,522,522,522,522,522,522,522,522,522,522,522,522,522,522,522,522,522,522,522,522,522,522,522,522,522,522,522,522,522,522,522,522,522,522,522,522,522,522,522,522,522,522,522,522,522,522,522,522,522,519,500,484,457,435,415,368,341,308,278,237,225,210,204,186,172,172,172,172,172,172,172,172,172,172,173,176,179,183,188,195,200,205,209,206,193,186,181,175,171,162,160,156,146,136,118,109,102,93,86,64,51],"timestamp_mouse":[11,37,51,72,91,112,131,152,172,191,211,233,252,271,291,311,331,353,371,391,412,431,451,471,492,512,531,552,573,592,613,633,652,671,691,712,733,752,771,791,813,833,852,872,892,912,933,952,972,993,1012,1031,1053,1071,1091,1111,1133,1153,1171,1191,1212,1232,1253,1272,1292,1313,1332,1351,1372,1391,1412,1433,1451,1471,1492,1512,1532,1551,1572,1591,1612,1631,1653,1672,1691,1712,1733,1753,1772,1792,1812,1831,1851,1872,1893,1912,1931,1952,1971,1991,2012,2033,2053,2072,2092,2113,2132,2152,2171,2192,2212,2231,2252,2273,2291,2312,2331,2351,2372,2392,2411,2432,2451,2471,2493,2511,2531],"xSR":741.5,"ySR":469.95,"xT1":424.9,"yT1":0,"xT2":1058.1,"yT2":0,"toosoon":0,"cond_shown":"Congruent","ratio_trial":200,"L_num":7,"L_den":21,"R_num":2,"R_den":15,"correct_side":1,"subjID":"lauracamilagarciasanchez5","gender":"1","school":"4","age":"9"},{"start_time":1552055106993,"click_time":1552055109182,"finger_time":1552055108401,"fix_duration":250,"trial":32,"RT":1408,"MT":781,"sideResp":2,"stimulus":[],"xmouse":[772,772,772,772,772,772,772,772,772,772,772,772,772,772,772,772,772,772,772,772,772,772,772,772,772,772,772,772,772,772,772,772,772,772,772,772,772,772,772,772,772,772,772,772,772,772,772,772,772,772,772,772,772,772,772,772,772,772,772,772,772,772,772,772,772,772,772,770,760,747,727,704,653,628,602,576,556,512,502,495,494,493,493,493,493,493,493,493,497,503,510,517,556,586,609,631,689,753,799,856,895,916,940,955,969,984,1001,1042,1055,1066],"ymouse":[541,541,541,541,541,541,541,541,541,541,541,541,541,541,541,541,541,541,541,541,541,541,541,541,541,541,541,541,541,541,541,541,541,541,541,541,541,541,541,541,541,541,541,541,541,541,541,541,541,541,541,541,541,541,541,541,541,541,541,541,541,541,541,541,541,541,541,538,530,521,507,488,434,404,375,345,321,260,242,231,226,225,225,225,225,225,225,224,221,219,216,212,202,193,187,181,173,165,157,138,126,117,105,98,92,85,75,47,36,30],"timestamp_mouse":[10,46,50,69,88,109,129,148,168,188,210,229,248,269,290,309,329,349,370,388,409,428,449,470,489,508,528,550,568,588,608,630,649,669,688,708,729,748,769,789,808,829,848,870,889,909,928,948,970,989,1008,1029,1049,1070,1089,1109,1128,1150,1168,1189,1209,1230,1249,1268,1288,1309,1329,1348,1369,1389,1408,1429,1448,1469,1489,1509,1529,1549,1568,1589,1609,1630,1650,1669,1689,1709,1728,1749,1768,1790,1810,1829,1849,1869,1888,1908,1930,1948,1969,1990,2010,2029,2049,2069,2089,2109,2129,2149,2169,2189],"xSR":741.5,"ySR":469.95,"xT1":424.9,"yT1":0,"xT2":1058.1,"yT2":0,"toosoon":0,"cond_shown":"Congruent","ratio_trial":200,"L_num":13,"L_den":26,"R_num":14,"R_den":20,"correct_side":2,"subjID":"lauracamilagarciasanchez5","gender":"1","school":"4","age":"9"},{"start_time":1552055110713,"click_time":1552055112401,"finger_time":1552055112301,"fix_duration":250,"trial":33,"RT":1588,"MT":100,"sideResp":1,"stimulus":[],"xmouse":[810,802,788,770,769,769,769,769,769,769,769,769,769,769,769,769,769,769,769,769,769,773,775,777,778,778,778,780,780,781,782,783,783,783,783,783,785,785,785,785,785,785,785,785,785,785,785,785,785,785,785,785,785,785,785,785,785,785,785,785,785,785,785,785,785,785,785,785,785,785,785,785,785,785,785,785,785,785,783,748,699,589,552,531,516],"ymouse":[532,520,501,481,479,479,479,479,479,479,479,479,479,479,479,479,479,479,479,479,479,479,480,480,481,482,482,483,484,487,488,491,492,493,494,496,499,500,500,500,500,500,500,500,500,500,500,500,500,500,500,500,500,500,500,500,500,500,500,500,500,500,500,500,500,500,500,500,500,500,500,500,500,500,500,500,500,482,470,410,347,216,164,120,73],"timestamp_mouse":[9,28,48,68,89,108,129,148,169,188,208,228,249,269,290,309,328,348,369,388,409,428,449,470,489,509,529,548,568,589,609,629,648,668,689,710,728,749,768,790,809,830,849,869,889,910,928,948,968,990,1009,1028,1050,1069,1089,1108,1129,1150,1169,1188,1210,1229,1249,1268,1289,1308,1330,1349,1369,1388,1409,1429,1449,1468,1488,1508,1529,1550,1568,1588,1609,1629,1649,1668,1688],"xSR":741.5,"ySR":469.95,"xT1":424.9,"yT1":0,"xT2":1058.1,"yT2":0,"toosoon":0,"cond_shown":"Congruent","ratio_trial":100,"L_num":7,"L_den":14,"R_num":9,"R_den":15,"correct_side":2,"subjID":"lauracamilagarciasanchez5","gender":"1","school":"4","age":"9"},{"start_time":1552055125553,"click_time":1552055127303,"finger_time":1552055126741,"fix_duration":1109.0980179312169,"trial":34,"RT":1188,"MT":562,"sideResp":1,"stimulus":[],"xmouse":[786,785,785,785,785,785,785,785,785,785,785,785,785,785,785,785,785,785,785,785,785,785,785,785,785,785,785,785,785,785,785,785,785,785,785,785,785,785,785,785,785,785,785,785,785,785,785,785,785,785,785,785,785,785,785,785,785,781,770,757,715,687,673,656,636,618,590,577,564,552,543,534,534,534,534,534,534,534,533,532,531,518,511,506,502,501,498,497],"ymouse":[511,510,510,510,510,510,510,510,510,510,510,510,510,510,510,510,510,510,510,510,510,510,510,510,510,510,510,510,510,510,510,510,510,510,510,510,510,510,510,510,510,510,510,510,510,510,510,510,510,510,510,510,510,510,510,510,510,505,486,466,418,393,378,361,346,330,306,295,280,266,254,236,230,225,219,214,199,188,178,163,158,133,122,115,110,107,101,99],"timestamp_mouse":[9,39,49,68,89,109,129,150,169,189,208,228,249,269,289,309,329,350,370,389,409,429,449,470,489,509,528,549,570,589,610,629,649,668,690,710,728,749,768,789,809,830,850,869,889,909,929,950,968,989,1009,1029,1050,1070,1089,1109,1128,1149,1169,1188,1210,1229,1249,1268,1288,1309,1329,1350,1369,1389,1408,1429,1449,1470,1488,1509,1528,1549,1570,1589,1610,1629,1648,1669,1688,1708,1729,1750],"xSR":741.5,"ySR":469.95,"xT1":424.9,"yT1":0,"xT2":1058.1,"yT2":0,"toosoon":0,"cond_shown":"Incongruent","ratio_trial":300,"L_num":1,"L_den":2,"R_num":3,"R_den":15,"correct_side":1,"subjID":"lauracamilagarciasanchez5","gender":"1","school":"4","age":"9"},{"start_time":1552055130085,"click_time":1552055131603,"finger_time":1552055131303,"fix_duration":1341.5870057247732,"trial":35,"RT":1218,"MT":300,"sideResp":1,"stimulus":[],"xmouse":[794,794,794,794,794,794,794,794,794,794,794,794,794,794,794,794,794,794,794,794,794,794,794,794,794,794,794,794,794,794,794,794,794,794,794,794,794,794,794,794,794,794,794,794,794,794,794,794,794,794,794,794,794,794,794,794,791,789,783,769,760,753,741,735,717,700,678,655,633,617,586,576,564,554,528,510],"ymouse":[513,513,514,514,514,514,514,514,514,514,514,514,514,514,514,514,514,514,514,514,514,514,514,514,514,514,514,514,514,514,514,514,514,514,514,514,514,514,514,514,514,514,514,514,514,514,514,514,514,514,514,514,514,514,514,514,510,505,496,472,455,438,411,391,330,281,229,185,148,125,94,85,74,68,52,45],"timestamp_mouse":[18,36,58,77,98,116,138,158,177,196,217,237,256,278,298,318,337,358,377,396,418,438,456,476,497,518,536,557,576,598,617,637,657,677,697,717,738,757,777,798,816,837,856,877,898,917,938,958,978,996,1016,1036,1057,1078,1096,1117,1137,1157,1176,1197,1218,1238,1257,1278,1297,1316,1337,1358,1377,1397,1416,1437,1458,1478,1497,1518],"xSR":741.5,"ySR":469.95,"xT1":424.9,"yT1":0,"xT2":1058.1,"yT2":0,"toosoon":0,"cond_shown":"Congruent","ratio_trial":300,"L_num":9,"L_den":10,"R_num":3,"R_den":5,"correct_side":1,"subjID":"lauracamilagarciasanchez5","gender":"1","school":"4","age":"9"},{"start_time":1552055133592,"click_time":1552055135301,"finger_time":1552055134942,"fix_duration":469.6834154357283,"trial":36,"RT":1350,"MT":359,"sideResp":2,"stimulus":[],"xmouse":[781,781,781,781,781,781,781,781,781,781,781,781,781,781,781,781,781,780,780,779,778,775,772,771,771,771,771,771,771,771,771,771,771,771,771,771,771,771,771,771,771,771,771,771,771,771,771,771,771,771,771,771,771,771,771,771,771,771,771,771,771,771,771,770,770,777,786,796,808,834,847,862,877,890,915,938,954,963,970,987,995,1002,1010,1021,1030,1060],"ymouse":[509,509,509,509,509,509,509,509,509,509,509,509,509,509,509,509,509,510,510,510,510,510,510,510,510,510,510,510,510,510,510,510,510,510,510,510,510,510,510,510,510,510,510,510,510,510,510,510,510,510,510,510,510,510,510,510,510,510,510,510,510,510,510,510,508,495,479,460,437,390,368,343,319,298,260,233,215,199,184,153,138,125,115,102,95,76],"timestamp_mouse":[20,38,49,69,91,110,130,150,171,189,211,230,249,270,290,309,329,350,370,389,409,429,450,471,490,509,531,549,570,590,611,630,650,670,690,710,730,750,769,790,811,831,851,870,890,909,929,950,970,991,1011,1031,1050,1070,1091,1110,1129,1150,1171,1190,1210,1229,1250,1270,1291,1309,1330,1350,1371,1391,1409,1430,1449,1469,1491,1509,1529,1550,1570,1591,1609,1630,1650,1670,1689,1709],"xSR":741.5,"ySR":469.95,"xT1":424.9,"yT1":0,"xT2":1058.1,"yT2":0,"toosoon":0,"cond_shown":"Incongruent","ratio_trial":100,"L_num":12,"L_den":24,"R_num":9,"R_den":15,"correct_side":2,"subjID":"lauracamilagarciasanchez5","gender":"1","school":"4","age":"9"},{"start_time":1552055139564,"click_time":1552055141243,"finger_time":1552055140461,"fix_duration":299.4569913229636,"trial":37,"RT":897,"MT":782,"sideResp":2,"stimulus":[],"xmouse":[765,765,765,765,765,765,765,765,765,765,765,765,765,765,765,765,765,765,765,765,765,765,765,765,765,765,765,765,765,764,762,759,753,751,749,747,746,746,746,746,746,747,753,759,767,773,784,790,795,798,801,803,805,805,806,807,807,808,808,809,810,811,818,824,831,841,859,870,880,890,901,929,941,960,986,1000,1019,1029,1036,1044,1048,1055,1058,1060],"ymouse":[546,546,546,546,546,546,546,546,546,546,546,546,546,545,544,542,542,541,541,541,541,541,541,541,541,541,541,541,539,537,534,527,507,498,490,483,478,478,478,478,477,476,473,470,467,463,456,453,448,445,443,439,436,434,432,430,428,425,423,421,417,412,395,386,372,357,324,309,293,276,259,219,199,174,137,113,71,51,37,25,18,9,8,6],"timestamp_mouse":[17,39,59,79,98,117,137,157,177,197,217,237,257,278,297,318,337,357,378,398,419,439,458,478,498,518,538,558,578,599,619,638,658,678,698,719,737,759,778,798,818,838,858,878,897,919,937,958,977,998,1017,1038,1058,1078,1097,1118,1138,1157,1178,1198,1218,1238,1258,1278,1297,1317,1337,1359,1377,1398,1418,1438,1457,1479,1497,1517,1537,1557,1580,1599,1618,1639,1658,1679],"xSR":741.5,"ySR":469.95,"xT1":424.9,"yT1":0,"xT2":1058.1,"yT2":0,"toosoon":0,"cond_shown":"Incongruent","ratio_trial":100,"L_num":10,"L_den":25,"R_num":8,"R_den":16,"correct_side":2,"subjID":"lauracamilagarciasanchez5","gender":"1","school":"4","age":"9"},{"start_time":1552055144776,"click_time":1552055146881,"finger_time":1552055145801,"fix_duration":1212.9400664911066,"trial":38,"RT":1025,"MT":1080,"sideResp":2,"stimulus":[],"xmouse":[818,818,818,818,818,818,818,818,818,816,814,805,797,796,796,796,796,796,796,796,796,796,796,796,796,796,796,796,796,796,796,796,796,796,796,796,796,796,796,796,795,795,796,796,796,797,798,802,807,815,828,853,914,963,1015,1067,1113,1193,1230,1256,1269,1269,1269,1269,1269,1269,1269,1269,1269,1269,1269,1269,1269,1269,1269,1269,1269,1269,1269,1269,1269,1269,1269,1269,1287,1281,1278,1274,1271,1265,1262,1257,1247,1240,1232,1223,1214,1190,1180,1174,1170,1168,1168,1168,1166,1158],"ymouse":[528,528,528,528,528,528,528,528,528,527,526,523,518,517,517,517,517,517,517,517,517,517,517,517,517,517,517,517,517,517,517,517,517,517,517,517,517,517,517,517,516,515,511,509,509,509,508,505,502,497,488,466,409,363,313,268,227,133,81,38,14,14,14,14,14,14,14,14,14,14,14,14,14,14,14,14,14,14,14,14,14,14,14,14,0,4,5,8,10,12,13,15,19,21,24,28,31,38,40,42,43,44,44,44,44,46],"timestamp_mouse":[10,35,45,65,85,105,127,146,165,187,207,226,245,266,286,306,326,346,365,385,406,426,446,467,485,506,526,546,566,586,607,626,646,667,686,705,727,747,767,786,805,826,846,866,885,905,925,946,967,985,1006,1025,1045,1065,1085,1106,1125,1146,1167,1186,1206,1226,1247,1266,1286,1305,1326,1346,1367,1385,1407,1426,1445,1466,1487,1506,1527,1546,1567,1586,1606,1626,1647,1666,1687,1706,1726,1747,1765,1785,1805,1825,1845,1866,1886,1905,1926,1946,1965,1985,2005,2025,2046,2066,2085,2105],"xSR":741.5,"ySR":469.95,"xT1":424.9,"yT1":0,"xT2":1058.1,"yT2":0,"toosoon":0,"cond_shown":"Congruent","ratio_trial":300,"L_num":9,"L_den":10,"R_num":3,"R_den":5,"correct_side":1,"subjID":"lauracamilagarciasanchez5","gender":"1","school":"4","age":"9"},{"start_time":1552055155789,"click_time":1552055157343,"finger_time":1552055156822,"fix_duration":746.5262735088203,"trial":39,"RT":1033,"MT":521,"sideResp":1,"stimulus":[],"xmouse":[809,809,809,809,809,809,809,809,809,809,809,809,809,809,809,809,809,809,809,809,809,809,809,809,809,809,809,808,808,808,808,808,808,808,808,808,808,808,808,808,808,808,808,808,808,808,808,808,808,803,800,791,784,780,775,769,767,762,759,756,750,744,727,720,713,701,686,658,642,637,614,594,563,548,534,529,526,522],"ymouse":[493,493,493,493,493,493,493,493,493,493,493,493,493,493,493,493,493,493,493,493,493,493,493,493,493,493,493,493,493,493,493,493,493,493,493,493,493,493,493,493,493,493,493,493,493,493,493,493,493,485,478,463,452,443,430,407,392,362,343,324,306,288,252,237,228,216,205,183,174,170,154,143,122,111,101,96,92,88],"timestamp_mouse":[13,45,52,72,93,114,134,153,174,194,214,233,253,273,293,314,333,353,373,392,412,432,453,474,493,514,532,553,572,592,614,634,654,673,693,714,732,754,773,794,812,832,853,873,893,912,933,952,974,993,1013,1033,1053,1073,1093,1113,1133,1153,1173,1192,1213,1233,1254,1272,1292,1312,1333,1353,1372,1394,1413,1434,1454,1474,1492,1513,1532,1553],"xSR":741.5,"ySR":469.95,"xT1":424.9,"yT1":0,"xT2":1058.1,"yT2":0,"toosoon":0,"cond_shown":"Congruent","ratio_trial":100,"L_num":6,"L_den":12,"R_num":15,"R_den":25,"correct_side":2,"subjID":"lauracamilagarciasanchez5","gender":"1","school":"4","age":"9"},{"start_time":1552055160274,"click_time":1552055161921,"finger_time":1552055161562,"fix_duration":250,"trial":40,"RT":1288,"MT":359,"sideResp":2,"stimulus":[],"xmouse":[794,794,794,794,794,794,794,794,794,794,794,794,794,794,794,794,794,794,794,794,794,794,794,794,794,794,794,794,794,794,794,794,794,794,794,794,794,794,794,794,794,794,794,794,794,794,794,794,794,794,794,794,794,794,794,794,794,794,794,794,794,794,801,807,846,869,889,909,949,979,997,1017,1035,1054,1086,1096,1108,1118,1124,1134,1136,1138,1139],"ymouse":[546,546,546,546,546,546,546,546,546,546,546,546,546,546,546,546,546,546,546,546,546,546,546,546,546,546,546,546,546,546,546,546,546,546,546,546,546,546,546,546,546,546,546,546,546,546,546,546,546,546,546,546,546,546,546,546,546,546,546,546,546,546,539,536,509,492,477,460,431,405,390,371,351,328,276,260,236,211,186,131,117,105,98],"timestamp_mouse":[14,30,49,69,88,107,127,147,167,188,207,227,247,268,289,307,327,348,368,388,409,428,449,468,489,508,528,549,569,587,608,627,647,667,688,707,727,747,767,787,807,827,847,868,887,908,929,948,968,988,1008,1029,1048,1067,1087,1107,1128,1147,1167,1187,1207,1228,1247,1267,1288,1308,1328,1348,1369,1387,1408,1429,1449,1468,1488,1508,1528,1548,1567,1588,1607,1628,1647],"xSR":741.5,"ySR":469.95,"xT1":424.9,"yT1":0,"xT2":1058.1,"yT2":0,"toosoon":0,"cond_shown":"Incongruent","ratio_trial":100,"L_num":2,"L_den":4,"R_num":6,"R_den":15,"correct_side":1,"subjID":"lauracamilagarciasanchez5","gender":"1","school":"4","age":"9"},{"start_time":1552055166413,"click_time":1552055167962,"finger_time":1552055167762,"fix_duration":1489.413593513434,"trial":41,"RT":1349,"MT":200,"sideResp":2,"stimulus":[],"xmouse":[761,761,761,761,761,761,761,761,761,761,761,761,761,761,761,761,761,761,761,761,761,761,761,761,761,761,761,761,761,761,761,761,761,761,761,761,761,761,761,761,761,761,761,761,761,761,761,761,761,761,761,761,761,761,761,761,761,761,761,761,761,761,761,761,762,770,788,805,830,848,868,900,954,974,990,1014,1039,1079],"ymouse":[501,501,501,501,501,501,501,501,501,501,501,501,501,501,501,501,501,501,501,501,501,501,501,501,501,501,501,501,501,501,501,501,501,501,501,501,501,501,501,501,501,501,501,501,501,501,501,501,501,501,501,501,501,501,501,501,501,501,501,501,501,501,501,501,498,492,479,466,448,437,422,388,323,299,273,231,184,92],"timestamp_mouse":[10,41,49,69,89,109,129,148,170,189,209,229,250,270,290,310,329,348,370,388,408,429,449,470,489,509,528,549,568,590,609,630,649,669,688,708,728,749,769,790,809,828,848,870,889,908,928,949,970,988,1008,1028,1049,1070,1089,1109,1128,1149,1169,1190,1208,1228,1249,1270,1289,1308,1328,1349,1368,1389,1409,1430,1449,1469,1490,1510,1530,1549],"xSR":741.5,"ySR":469.95,"xT1":424.9,"yT1":0,"xT2":1058.1,"yT2":0,"toosoon":0,"cond_shown":"Congruent","ratio_trial":200,"L_num":3,"L_den":10,"R_num":7,"R_den":14,"correct_side":2,"subjID":"lauracamilagarciasanchez5","gender":"1","school":"4","age":"9"},{"start_time":1552055169462,"click_time":1552055171301,"finger_time":1552055170721,"fix_duration":278.77429236779193,"trial":42,"RT":1259,"MT":580,"sideResp":1,"stimulus":[],"xmouse":[789,789,789,789,789,789,789,789,789,789,789,789,789,789,789,789,789,789,789,789,789,789,789,789,789,789,789,789,789,789,789,789,789,789,789,789,789,789,789,789,789,789,789,789,789,789,789,789,789,789,789,789,789,789,789,789,789,789,789,789,784,773,763,747,741,716,708,699,692,683,675,673,672,668,667,656,650,644,636,629,601,589,586,586,586,585,585,583,576,561,525,512],"ymouse":[501,501,501,501,501,501,501,501,501,501,501,501,501,501,501,501,501,501,501,501,501,501,501,501,501,501,501,501,501,501,501,501,501,501,501,501,501,501,501,501,501,501,501,501,501,501,501,501,501,501,501,501,501,501,501,501,501,501,501,501,493,479,464,434,420,353,313,260,213,181,154,145,135,116,108,85,75,72,68,66,59,55,55,55,55,55,55,55,55,55,55,55],"timestamp_mouse":[20,40,71,79,101,121,139,160,180,200,220,241,259,279,300,320,341,361,379,400,419,440,460,480,499,520,540,561,581,600,620,641,661,681,700,721,740,759,780,801,820,840,860,880,901,920,939,961,981,1000,1019,1041,1059,1081,1101,1119,1139,1159,1181,1199,1219,1239,1259,1280,1299,1320,1340,1361,1381,1400,1419,1439,1460,1480,1500,1520,1540,1559,1581,1601,1619,1641,1660,1680,1701,1720,1739,1760,1780,1800,1820,1839],"xSR":741.5,"ySR":469.95,"xT1":424.9,"yT1":0,"xT2":1058.1,"yT2":0,"toosoon":0,"cond_shown":"Congruent","ratio_trial":200,"L_num":11,"L_den":22,"R_num":3,"R_den":10,"correct_side":1,"subjID":"lauracamilagarciasanchez5","gender":"1","school":"4","age":"9"},{"start_time":1552055173872,"click_time":1552055175302,"finger_time":1552055175043,"fix_duration":1148.764923452855,"trial":43,"RT":1171,"MT":259,"sideResp":2,"stimulus":[],"xmouse":[787,787,787,787,787,787,787,787,787,787,787,787,787,787,787,787,787,787,787,787,787,787,787,787,787,787,787,787,787,787,787,787,787,787,787,787,787,787,787,787,787,787,787,787,787,787,787,787,787,787,787,787,787,787,787,787,787,805,832,852,889,906,933,950,969,999,1016,1035,1052,1069,1102,1120],"ymouse":[515,515,515,515,515,515,515,515,515,515,515,515,515,515,515,515,515,515,515,515,515,515,515,515,515,515,515,515,515,515,515,515,515,515,515,515,515,515,515,515,515,515,515,515,515,515,515,515,515,515,515,515,515,515,515,515,515,484,443,421,385,366,333,310,286,244,219,196,173,151,108,84],"timestamp_mouse":[13,39,49,70,90,111,129,149,171,190,210,230,250,269,289,311,330,349,370,391,409,430,449,470,491,511,529,551,571,590,610,629,649,670,690,710,730,750,770,789,810,831,850,869,890,910,929,950,971,991,1010,1030,1049,1071,1091,1109,1130,1151,1171,1191,1211,1229,1249,1269,1289,1310,1330,1351,1369,1389,1410,1430],"xSR":741.5,"ySR":469.95,"xT1":424.9,"yT1":0,"xT2":1058.1,"yT2":0,"toosoon":0,"cond_shown":"Incongruent","ratio_trial":200,"L_num":14,"L_den":30,"R_num":12,"R_den":18,"correct_side":2,"subjID":"lauracamilagarciasanchez5","gender":"1","school":"4","age":"9"},{"start_time":1552055178661,"click_time":1552055181462,"finger_time":1552055179701,"fix_duration":556.19699758015,"trial":44,"RT":1040,"MT":1761,"sideResp":2,"stimulus":[],"xmouse":[802,802,802,802,802,802,802,802,802,802,802,802,802,802,802,802,802,802,802,802,802,802,802,802,802,802,802,802,802,802,802,802,802,802,802,802,802,802,802,802,802,802,802,802,802,802,802,802,792,780,769,751,733,726,718,713,702,688,681,675,671,663,647,641,636,629,622,599,585,569,538,521,505,505,505,505,505,506,506,508,508,510,510,511,511,511,511,511,511,511,511,511,513,539,577,631,674,751,786,842,891,930,1030,1066,1093,1126,1164,1215,1222,1226,1227,1228,1228,1226,1221,1218,1216,1211,1209,1208,1205,1193,1171,1164,1161,1160,1159,1159,1158,1158,1156,1155,1155,1155,1155,1154,1153,1141,1129,1115,1090],"ymouse":[536,536,536,536,536,536,536,536,536,536,536,536,536,536,536,536,536,536,536,536,536,536,536,536,536,536,536,536,536,536,536,536,536,536,536,536,536,536,536,536,536,536,536,536,536,536,536,535,530,525,518,504,483,474,462,451,437,417,409,401,395,387,369,362,355,345,337,311,296,278,253,241,226,224,220,216,214,206,201,193,185,178,174,173,173,173,173,173,173,173,173,173,171,171,172,177,177,177,177,182,189,195,208,213,213,213,213,209,206,205,204,201,192,190,187,186,186,184,184,183,182,179,172,169,167,166,165,164,163,162,158,156,156,155,155,154,153,147,137,119,71],"timestamp_mouse":[10,20,46,60,81,101,122,141,162,181,201,221,241,260,281,302,322,342,361,381,401,422,441,461,481,502,520,541,560,581,601,622,641,662,682,701,722,740,762,781,802,821,842,861,880,901,920,941,961,982,1001,1021,1040,1061,1081,1101,1121,1141,1161,1181,1200,1222,1241,1260,1280,1302,1322,1340,1360,1380,1402,1421,1440,1460,1481,1500,1520,1541,1561,1581,1601,1620,1640,1661,1681,1701,1720,1740,1761,1780,1800,1820,1840,1860,1880,1901,1921,1941,1960,1982,2002,2022,2041,2061,2080,2100,2120,2141,2162,2182,2201,2221,2241,2261,2281,2300,2320,2340,2361,2381,2400,2421,2440,2461,2481,2501,2522,2540,2561,2580,2601,2621,2640,2660,2682,2701,2722,2741,2761,2781,2801],"xSR":741.5,"ySR":469.95,"xT1":424.9,"yT1":0,"xT2":1058.1,"yT2":0,"toosoon":0,"cond_shown":"Congruent","ratio_trial":200,"L_num":15,"L_den":25,"R_num":4,"R_den":10,"correct_side":1,"subjID":"lauracamilagarciasanchez5","gender":"1","school":"4","age":"9"},{"start_time":1552055187831,"click_time":1552055189822,"finger_time":1552055189321,"fix_duration":1388.0749636106982,"trial":45,"RT":1490,"MT":501,"sideResp":1,"stimulus":[],"xmouse":[778,778,778,778,778,778,778,778,778,778,778,778,778,778,778,778,778,778,778,778,778,778,778,778,778,778,778,778,778,778,778,778,778,778,778,778,778,778,778,778,778,778,778,778,778,778,778,778,778,778,778,778,778,778,778,778,778,778,778,778,778,778,778,778,778,778,778,778,778,778,778,778,778,766,719,687,646,614,593,585,583,581,579,577,568,564,560,554,543,528,525,523,523,523,522,521,521,520,518,511],"ymouse":[504,504,504,504,504,504,504,504,504,504,504,504,504,504,504,504,504,504,504,504,504,504,504,504,504,504,504,504,504,504,504,504,504,504,504,504,504,504,504,504,504,504,504,504,504,504,504,504,504,504,504,504,504,504,504,504,504,504,504,504,504,504,504,504,504,504,504,504,504,504,504,503,500,481,439,411,375,342,308,280,270,264,259,255,242,238,231,222,202,166,153,147,141,136,124,121,117,111,104,92],"timestamp_mouse":[13,36,51,71,90,110,131,150,170,190,211,231,251,270,291,310,331,350,370,391,412,431,450,470,491,511,530,550,571,590,611,630,650,671,690,710,731,751,771,791,811,830,850,871,890,910,931,951,971,990,1012,1030,1050,1070,1091,1111,1131,1151,1171,1190,1210,1231,1251,1270,1291,1311,1331,1351,1371,1392,1411,1430,1451,1470,1490,1510,1531,1551,1570,1591,1610,1630,1651,1670,1690,1710,1730,1750,1770,1790,1810,1830,1851,1870,1890,1911,1930,1951,1971,1990],"xSR":741.5,"ySR":469.95,"xT1":424.9,"yT1":0,"xT2":1058.1,"yT2":0,"toosoon":0,"cond_shown":"Incongruent","ratio_trial":200,"L_num":1,"L_den":2,"R_num":3,"R_den":10,"correct_side":1,"subjID":"lauracamilagarciasanchez5","gender":"1","school":"4","age":"9"},{"start_time":1552055191901,"click_time":1552055193622,"finger_time":1552055193042,"fix_duration":1037.5585972543165,"trial":46,"RT":1141,"MT":580,"sideResp":1,"stimulus":[],"xmouse":[790,790,790,790,790,790,790,790,790,790,790,790,790,790,790,790,790,790,790,790,790,790,790,790,790,790,790,790,790,790,790,790,790,790,790,790,790,790,790,790,790,790,790,790,790,790,790,790,790,790,789,781,771,758,751,748,747,745,742,738,733,719,711,695,682,670,659,634,622,612,597,565,544,535,531,528,527,527,526,526,526,525,525,525,523,519,516],"ymouse":[524,524,524,524,524,524,524,524,524,524,524,524,524,524,524,524,524,524,524,524,524,524,524,524,524,524,524,524,524,524,524,524,524,524,524,524,524,524,524,524,524,524,524,524,524,524,524,524,524,524,521,511,500,487,480,477,474,467,458,449,439,415,402,377,360,343,327,287,269,250,232,195,170,159,151,146,141,141,139,138,136,128,124,124,119,110,97],"timestamp_mouse":[10,20,45,60,81,101,120,141,162,181,201,220,241,261,281,301,320,340,361,381,400,421,441,460,480,501,522,541,560,581,601,620,642,661,681,700,720,740,761,781,801,820,841,861,882,901,921,940,961,981,1001,1021,1041,1061,1080,1102,1120,1141,1160,1180,1200,1221,1240,1260,1281,1300,1320,1340,1360,1381,1401,1420,1440,1460,1481,1500,1522,1540,1561,1581,1601,1622,1640,1661,1680,1701,1721],"xSR":741.5,"ySR":469.95,"xT1":424.9,"yT1":0,"xT2":1058.1,"yT2":0,"toosoon":0,"cond_shown":"Incongruent","ratio_trial":200,"L_num":7,"L_den":10,"R_num":12,"R_den":24,"correct_side":1,"subjID":"lauracamilagarciasanchez5","gender":"1","school":"4","age":"9"},{"start_time":1552055195882,"click_time":1552055197102,"finger_time":1552055196781,"fix_duration":617.0987258567071,"trial":47,"RT":899,"MT":321,"sideResp":2,"stimulus":[],"xmouse":[787,787,787,787,787,787,787,787,787,787,787,787,787,787,787,787,787,787,787,787,787,787,787,787,787,787,787,787,787,787,787,787,787,787,787,787,787,787,787,787,787,787,787,788,796,801,809,818,837,850,868,888,908,967,991,1008,1020,1031,1048,1056,1063,1069],"ymouse":[486,486,486,486,486,486,486,486,486,486,486,486,486,486,486,486,486,486,486,486,486,486,486,486,486,486,486,486,486,486,486,486,486,486,486,486,486,486,486,486,486,486,486,486,475,468,457,447,425,410,392,373,351,269,236,211,188,168,131,115,102,88],"timestamp_mouse":[7,29,45,60,80,100,121,140,160,179,200,220,240,259,281,299,319,339,359,380,401,421,440,459,480,500,519,541,560,579,600,620,639,660,680,699,721,739,760,780,800,821,839,860,880,899,920,939,959,979,1001,1019,1040,1060,1079,1100,1120,1140,1159,1181,1200,1220],"xSR":741.5,"ySR":469.95,"xT1":424.9,"yT1":0,"xT2":1058.1,"yT2":0,"toosoon":0,"cond_shown":"Incongruent","ratio_trial":300,"L_num":13,"L_den":26,"R_num":12,"R_den":15,"correct_side":2,"subjID":"lauracamilagarciasanchez5","gender":"1","school":"4","age":"9"},{"start_time":1552055199390,"click_time":1552055200842,"finger_time":1552055200322,"fix_duration":647.9950036171255,"trial":48,"RT":932,"MT":520,"sideResp":2,"stimulus":[],"xmouse":[804,805,805,805,805,805,805,805,805,805,805,805,805,805,805,805,805,805,805,805,805,805,805,805,805,805,805,805,805,805,805,804,800,798,796,796,796,796,796,796,796,796,796,796,796,796,798,816,822,830,847,855,882,901,905,919,929,942,945,946,948,949,952,963,979,993,1007,1030,1040,1050,1059,1069,1079],"ymouse":[485,484,484,484,484,484,484,484,484,484,484,484,484,484,484,484,484,484,484,484,484,484,484,484,484,484,484,484,484,483,482,479,476,475,473,473,473,473,473,473,473,473,473,473,473,472,468,456,451,445,433,427,405,392,389,377,369,358,354,351,348,345,341,322,292,265,239,183,160,138,117,100,76],"timestamp_mouse":[12,40,51,71,91,112,133,152,172,192,212,232,252,273,292,312,332,352,371,392,411,431,452,471,492,512,532,552,571,592,612,633,651,672,692,712,731,753,773,792,812,831,853,871,892,911,932,952,971,991,1011,1031,1052,1071,1092,1111,1131,1151,1171,1192,1212,1233,1251,1272,1291,1311,1332,1352,1372,1391,1412,1431,1452],"xSR":741.5,"ySR":469.95,"xT1":424.9,"yT1":0,"xT2":1058.1,"yT2":0,"toosoon":0,"cond_shown":"Incongruent","ratio_trial":200,"L_num":6,"L_den":20,"R_num":3,"R_den":6,"correct_side":2,"su