[{"start_time":1552308663654,"click_time":1552308665960,"finger_time":1552308665118,"fix_duration":491.32212597182956,"trial":0,"RT":1464,"MT":842,"sideResp":1,"stimulus":[],"xmouse":[824,824,824,824,824,824,824,824,824,824,824,824,824,824,824,824,824,824,824,824,824,824,824,824,824,824,824,824,824,824,824,824,824,824,824,824,824,824,824,824,824,824,824,824,824,824,824,824,824,824,824,824,824,824,824,824,824,824,824,824,824,824,824,824,824,824,824,824,824,824,824,824,831,846,850,846,832,768,729,680,575,575,575,575,575,575,575,575,575,575,575,575,575,575,575,534,522,493,476,462,451,445,437,436,436,436,436,436,440,445,453,465,491,496,496,494],"ymouse":[528,528,528,528,528,528,528,528,528,528,528,528,528,528,528,528,528,528,528,528,528,528,528,528,528,528,528,528,528,528,528,528,528,528,528,528,528,528,528,528,528,528,528,528,528,528,528,528,528,528,528,528,528,528,528,528,528,528,528,528,528,528,528,528,528,528,528,528,528,528,528,528,516,494,443,396,373,362,380,459,684,684,684,684,684,684,684,684,684,684,684,684,684,684,684,703,663,524,475,451,436,428,402,389,371,346,313,261,246,233,221,209,165,140,116,98],"timestamp_mouse":[10,26,55,64,84,104,126,145,164,185,204,224,244,266,286,305,325,344,366,384,405,425,445,465,485,506,524,545,565,585,605,625,645,665,685,704,725,744,765,786,806,826,845,865,885,905,925,945,965,984,1004,1024,1045,1066,1085,1104,1125,1144,1166,1185,1205,1225,1246,1266,1285,1305,1325,1344,1365,1386,1406,1424,1445,1464,1484,1506,1525,1546,1564,1584,1604,1624,1645,1666,1684,1705,1726,1745,1765,1785,1804,1824,1845,1864,1885,1904,1924,1945,1964,1985,2006,2026,2044,2064,2085,2106,2124,2145,2164,2185,2204,2224,2245,2265,2285,2306],"xSR":741.5,"ySR":500.5,"xT1":424.9,"yT1":0,"xT2":1058.1,"yT2":0,"toosoon":0,"cond_shown":"Congruent","ratio_trial":300,"L_num":8,"L_den":15,"R_num":10,"R_den":12,"correct_side":2,"subjID":"lauracamilamontenegro11","gender":"1","age":"9","school":"4","test":{"fix_dur":[250,1500],"timestim":1000,"targets_dim":[100,100],"targets_relative_coord":[0.3,0.7],"size_stim":[880,420],"start_dim":[100,100],"size_start":[300,300],"size_fix":60,"samplingrate":20,"img_types":["Congruent","Incongruent"],"ratios":[100,200,300],"rep_conds":19,"nTrials":120,"trials_to_rest":500,"Trials_order":[4,93,50,8,61,89,57,99,22,69,49,85,67,54,94,37,73,30,60,103,10,118,13,43,29,84,3,38,86,23,40,51,100,9,11,98,106,114,91,56,14,66,34,17,52,39,64,24,83,80,15,59,109,12,62,107,104,75,25,0,95,5,58,20,105,65,102,112,111,113,78,16,110,44,21,70,32,74,41,63,36,108,68,28,76,82,115,88,92,7,46,117,77,90,18,81,48,19,42,101,35,6,55,79,116,31,97,119,96,71,1,87,26,45,33,27,2,53,72,47],"cond_shown":["Congruent","Incongruent","Congruent","Congruent","Incongruent","Incongruent","Incongruent","Incongruent","Congruent","Incongruent","Incongruent","Incongruent","Incongruent","Congruent","Congruent","Incongruent","Incongruent","Congruent","Congruent","Incongruent","Congruent","Congruent","Incongruent","Incongruent","Incongruent","Congruent","Incongruent","Congruent","Congruent","Incongruent","Congruent","Incongruent","Congruent","Incongruent","Incongruent","Congruent","Congruent","Congruent","Incongruent","Congruent","Congruent","Congruent","Congruent","Incongruent","Congruent","Incongruent","Congruent","Congruent","Incongruent","Congruent","Incongruent","Incongruent","Incongruent","Congruent","Congruent","Incongruent","Congruent","Incongruent","Incongruent","Congruent","Incongruent","Incongruent","Congruent","Congruent","Incongruent","Incongruent","Congruent","Congruent","Incongruent","Incongruent","Congruent","Congruent","Congruent","Congruent","Incongruent","Congruent","Congruent","Congruent","Incongruent","Incongruent","Congruent","Congruent","Congruent","Congruent","Congruent","Congruent","Incongruent","Congruent","Congruent","Incongruent","Congruent","Incongruent","Incongruent","Congruent","Congruent","Incongruent","Congruent","Incongruent","Congruent","Incongruent","Incongruent","Congruent","Incongruent","Incongruent","Congruent","Incongruent","Incongruent","Incongruent","Congruent","Incongruent","Incongruent","Incongruent","Congruent","Incongruent","Incongruent","Incongruent","Congruent","Incongruent","Congruent","Incongruent"],"ratio_trial":[300,200,200,200,100,300,200,200,300,200,100,100,100,100,300,100,100,100,100,100,300,300,100,100,300,100,200,200,200,300,300,200,300,200,300,200,300,100,100,200,200,100,300,300,300,200,300,100,300,200,200,300,100,100,200,300,200,200,100,100,300,300,300,200,200,300,100,300,200,300,100,300,200,200,200,300,200,200,300,200,100,100,200,300,300,300,100,300,200,100,300,200,300,100,100,200,100,100,100,300,300,100,100,100,200,100,100,300,100,300,100,200,200,200,200,200,200,300,100,300],"left_num":[8,11,4,3,6,7,14,4,5,14,2,10,6,9,11,8,12,9,6,4,3,9,9,6,13,2,1,21,13,4,8,11,1,4,7,3,2,9,1,11,16,12,11,8,12,1,3,8,3,3,1,2,6,12,20,2,6,7,12,6,2,4,11,5,4,8,12,3,7,4,4,24,8,8,4,1,3,11,13,7,9,9,7,2,1,4,3,20,13,6,20,14,1,11,11,7,2,3,7,13,4,1,3,10,6,13,9,7,6,4,12,4,13,3,7,4,6,4,11,1],"right_num":[10,3,3,14,13,8,12,1,7,6,6,9,3,8,4,1,2,8,5,8,11,3,6,3,12,11,2,2,14,2,1,3,6,1,8,14,12,8,8,3,12,13,4,9,2,2,11,2,4,14,2,6,13,13,9,6,11,6,9,5,6,2,1,14,14,9,13,4,6,2,6,2,7,7,6,19,9,3,12,4,8,8,18,10,8,13,4,14,14,3,14,6,3,6,4,4,6,4,15,12,8,18,8,9,11,6,6,8,5,8,2,14,14,1,12,14,11,2,6,2],"left_den":[15,20,8,6,10,10,30,30,25,30,4,25,12,15,22,20,30,15,20,8,12,10,18,12,26,5,3,30,26,20,16,20,5,30,10,10,10,15,2,22,20,30,22,10,24,3,12,16,6,10,3,4,10,30,25,4,20,15,24,20,4,20,22,10,6,10,30,6,15,20,8,30,15,15,5,3,12,22,26,15,15,15,15,20,30,20,6,25,26,12,25,30,2,22,22,15,5,6,14,26,5,2,5,25,20,26,18,10,20,5,30,6,26,10,10,6,20,20,22,2],"right_den":[12,4,10,20,26,20,18,3,14,9,15,18,5,16,20,2,4,16,25,20,20,5,10,5,15,22,15,4,20,4,5,4,12,3,20,28,24,16,20,10,20,26,20,18,10,15,20,5,20,28,15,30,26,26,15,30,22,9,15,25,30,4,5,20,30,18,26,5,9,4,10,4,21,21,10,30,20,10,15,6,16,16,27,25,24,26,10,28,20,5,28,9,15,15,10,6,12,10,25,15,16,30,16,18,22,10,10,20,25,16,4,30,20,2,24,30,22,4,15,10],"correct_side":[2,2,1,2,1,1,2,2,2,2,1,2,2,1,1,2,2,1,1,1,2,1,2,2,2,2,1,1,2,2,1,2,2,2,1,2,2,1,1,1,1,2,1,1,1,1,2,1,1,2,1,1,1,2,1,1,2,2,2,1,1,2,1,2,1,1,2,2,2,2,2,1,1,1,1,2,2,1,2,2,1,1,2,2,2,2,1,1,2,2,1,2,1,1,1,2,2,1,2,2,1,2,1,2,2,2,2,1,1,1,2,1,2,2,1,1,2,2,1,1],"img_shown":["img2/300/Congruent/R/C_Dist_300_LN_8_LD_15_RN_10_RD_12_1.png","img2/200/Incongruent/R/I_Dist_200_LN_11_LD_20_RN_3_RD_4_1.png","img2/200/Congruent/L/C_Dist_200_LN_4_LD_8_RN_3_RD_10_0.png","img2/200/Congruent/R/C_Dist_200_LN_3_LD_6_RN_14_RD_20_1.png","img2/100/Incongruent/L/I_Dist_100_LN_6_LD_10_RN_13_RD_26_0.png","img2/300/Incongruent/L/I_Dist_300_LN_7_LD_10_RN_8_RD_20_0.png","img2/200/Incongruent/R/I_Dist_200_LN_14_LD_30_RN_12_RD_18_1.png","img2/200/Incongruent/R/I_Dist_200_LN_4_LD_30_RN_1_RD_3_1.png","img2/300/Congruent/R/C_Dist_300_LN_5_LD_25_RN_7_RD_14_1.png","img2/200/Incongruent/R/I_Dist_200_LN_14_LD_30_RN_6_RD_9_1.png","img2/100/Incongruent/L/I_Dist_100_LN_2_LD_4_RN_6_RD_15_0.png","img2/100/Incongruent/R/I_Dist_100_LN_10_LD_25_RN_9_RD_18_1.png","img2/100/Incongruent/R/I_Dist_100_LN_6_LD_12_RN_3_RD_5_1.png","img2/100/Congruent/L/C_Dist_100_LN_9_LD_15_RN_8_RD_16_0.png","img2/300/Congruent/L/C_Dist_300_LN_11_LD_22_RN_4_RD_20_0.png","img2/100/Incongruent/R/I_Dist_100_LN_8_LD_20_RN_1_RD_2_1.png","img2/100/Incongruent/R/I_Dist_100_LN_12_LD_30_RN_2_RD_4_1.png","img2/100/Congruent/L/C_Dist_100_LN_9_LD_15_RN_8_RD_16_0.png","img2/100/Congruent/L/C_Dist_100_LN_6_LD_20_RN_5_RD_25_0.png","img2/100/Incongruent/L/I_Dist_100_LN_4_LD_8_RN_8_RD_20_0.png","img2/300/Congruent/R/C_Dist_300_LN_3_LD_12_RN_11_RD_20_1.png","img2/300/Congruent/L/C_Dist_300_LN_9_LD_10_RN_3_RD_5_0.png","img2/100/Incongruent/R/I_Dist_100_LN_9_LD_18_RN_6_RD_10_1.png","img2/100/Incongruent/R/I_Dist_100_LN_6_LD_12_RN_3_RD_5_1.png","img2/300/Incongruent/R/I_Dist_300_LN_13_LD_26_RN_12_RD_15_1.png","img2/100/Congruent/R/C_Dist_100_LN_2_LD_5_RN_11_RD_22_1.png","img2/200/Incongruent/L/I_Dist_200_LN_1_LD_3_RN_2_RD_15_0.png","img2/200/Congruent/L/C_Dist_200_LN_21_LD_30_RN_2_RD_4_0.png","img2/200/Congruent/R/C_Dist_200_LN_13_LD_26_RN_14_RD_20_1.png","img2/300/Incongruent/R/I_Dist_300_LN_4_LD_20_RN_2_RD_4_1.png","img2/300/Congruent/L/C_Dist_300_LN_8_LD_16_RN_1_RD_5_0.png","img2/200/Incongruent/R/I_Dist_200_LN_11_LD_20_RN_3_RD_4_1.png","img2/300/Congruent/R/C_Dist_300_LN_1_LD_5_RN_6_RD_12_1.png","img2/200/Incongruent/R/I_Dist_200_LN_4_LD_30_RN_1_RD_3_1.png","img2/300/Incongruent/L/I_Dist_300_LN_7_LD_10_RN_8_RD_20_0.png","img2/200/Congruent/R/C_Dist_200_LN_3_LD_10_RN_14_RD_28_1.png","img2/300/Congruent/R/C_Dist_300_LN_2_LD_10_RN_12_RD_24_1.png","img2/100/Congruent/L/C_Dist_100_LN_9_LD_15_RN_8_RD_16_0.png","img2/100/Incongruent/L/I_Dist_100_LN_1_LD_2_RN_8_RD_20_0.png","img2/200/Congruent/L/C_Dist_200_LN_11_LD_22_RN_3_RD_10_0.png","img2/200/Congruent/L/C_Dist_200_LN_16_LD_20_RN_12_RD_20_0.png","img2/100/Congruent/R/C_Dist_100_LN_12_LD_30_RN_13_RD_26_1.png","img2/300/Congruent/L/C_Dist_300_LN_11_LD_22_RN_4_RD_20_0.png","img2/300/Incongruent/L/I_Dist_300_LN_8_LD_10_RN_9_RD_18_0.png","img2/300/Congruent/L/C_Dist_300_LN_12_LD_24_RN_2_RD_10_0.png","img2/200/Incongruent/L/I_Dist_200_LN_1_LD_3_RN_2_RD_15_0.png","img2/300/Congruent/R/C_Dist_300_LN_3_LD_12_RN_11_RD_20_1.png","img2/100/Congruent/L/C_Dist_100_LN_8_LD_16_RN_2_RD_5_0.png","img2/300/Incongruent/L/I_Dist_300_LN_3_LD_6_RN_4_RD_20_0.png","img2/200/Congruent/R/C_Dist_200_LN_3_LD_10_RN_14_RD_28_1.png","img2/200/Incongruent/L/I_Dist_200_LN_1_LD_3_RN_2_RD_15_0.png","img2/300/Incongruent/L/I_Dist_300_LN_2_LD_4_RN_6_RD_30_0.png","img2/100/Incongruent/L/I_Dist_100_LN_6_LD_10_RN_13_RD_26_0.png","img2/100/Congruent/R/C_Dist_100_LN_12_LD_30_RN_13_RD_26_1.png","img2/200/Congruent/L/C_Dist_200_LN_20_LD_25_RN_9_RD_15_0.png","img2/300/Incongruent/L/I_Dist_300_LN_2_LD_4_RN_6_RD_30_0.png","img2/200/Congruent/R/C_Dist_200_LN_6_LD_20_RN_11_RD_22_1.png","img2/200/Incongruent/R/I_Dist_200_LN_7_LD_15_RN_6_RD_9_1.png","img2/100/Incongruent/R/I_Dist_100_LN_12_LD_24_RN_9_RD_15_1.png","img2/100/Congruent/L/C_Dist_100_LN_6_LD_20_RN_5_RD_25_0.png","img2/300/Incongruent/L/I_Dist_300_LN_2_LD_4_RN_6_RD_30_0.png","img2/300/Incongruent/R/I_Dist_300_LN_4_LD_20_RN_2_RD_4_1.png","img2/300/Congruent/L/C_Dist_300_LN_11_LD_22_RN_1_RD_5_0.png","img2/200/Congruent/R/C_Dist_200_LN_5_LD_10_RN_14_RD_20_1.png","img2/200/Incongruent/L/I_Dist_200_LN_4_LD_6_RN_14_RD_30_0.png","img2/300/Incongruent/L/I_Dist_300_LN_8_LD_10_RN_9_RD_18_0.png","img2/100/Congruent/R/C_Dist_100_LN_12_LD_30_RN_13_RD_26_1.png","img2/300/Congruent/R/C_Dist_300_LN_3_LD_6_RN_4_RD_5_1.png","img2/200/Incongruent/R/I_Dist_200_LN_7_LD_15_RN_6_RD_9_1.png","img2/300/Incongruent/R/I_Dist_300_LN_4_LD_20_RN_2_RD_4_1.png","img2/100/Congruent/R/C_Dist_100_LN_4_LD_8_RN_6_RD_10_1.png","img2/300/Congruent/L/C_Dist_300_LN_24_LD_30_RN_2_RD_4_0.png","img2/200/Congruent/L/C_Dist_200_LN_8_LD_15_RN_7_RD_21_0.png","img2/200/Congruent/L/C_Dist_200_LN_8_LD_15_RN_7_RD_21_0.png","img2/200/Incongruent/L/I_Dist_200_LN_4_LD_5_RN_6_RD_10_0.png","img2/300/Congruent/R/C_Dist_300_LN_1_LD_3_RN_19_RD_30_1.png","img2/200/Congruent/R/C_Dist_200_LN_3_LD_12_RN_9_RD_20_1.png","img2/200/Congruent/L/C_Dist_200_LN_11_LD_22_RN_3_RD_10_0.png","img2/300/Incongruent/R/I_Dist_300_LN_13_LD_26_RN_12_RD_15_1.png","img2/200/Incongruent/R/I_Dist_200_LN_7_LD_15_RN_4_RD_6_1.png","img2/100/Congruent/L/C_Dist_100_LN_9_LD_15_RN_8_RD_16_0.png","img2/100/Congruent/L/C_Dist_100_LN_9_LD_15_RN_8_RD_16_0.png","img2/200/Congruent/R/C_Dist_200_LN_7_LD_15_RN_18_RD_27_1.png","img2/300/Congruent/R/C_Dist_300_LN_2_LD_20_RN_10_RD_25_1.png","img2/300/Congruent/R/C_Dist_300_LN_1_LD_30_RN_8_RD_24_1.png","img2/300/Congruent/R/C_Dist_300_LN_4_LD_20_RN_13_RD_26_1.png","img2/100/Incongruent/L/I_Dist_100_LN_3_LD_6_RN_4_RD_10_0.png","img2/300/Congruent/L/C_Dist_300_LN_20_LD_25_RN_14_RD_28_0.png","img2/200/Congruent/R/C_Dist_200_LN_13_LD_26_RN_14_RD_20_1.png","img2/100/Incongruent/R/I_Dist_100_LN_6_LD_12_RN_3_RD_5_1.png","img2/300/Congruent/L/C_Dist_300_LN_20_LD_25_RN_14_RD_28_0.png","img2/200/Incongruent/R/I_Dist_200_LN_14_LD_30_RN_6_RD_9_1.png","img2/300/Incongruent/L/I_Dist_300_LN_1_LD_2_RN_3_RD_15_0.png","img2/100/Congruent/L/C_Dist_100_LN_11_LD_22_RN_6_RD_15_0.png","img2/100/Congruent/L/C_Dist_100_LN_11_LD_22_RN_4_RD_10_0.png","img2/200/Incongruent/R/I_Dist_200_LN_7_LD_15_RN_4_RD_6_1.png","img2/100/Congruent/R/C_Dist_100_LN_2_LD_5_RN_6_RD_12_1.png","img2/100/Incongruent/L/I_Dist_100_LN_3_LD_6_RN_4_RD_10_0.png","img2/100/Congruent/R/C_Dist_100_LN_7_LD_14_RN_15_RD_25_1.png","img2/300/Incongruent/R/I_Dist_300_LN_13_LD_26_RN_12_RD_15_1.png","img2/300/Incongruent/L/I_Dist_300_LN_4_LD_5_RN_8_RD_16_0.png","img2/100/Congruent/R/C_Dist_100_LN_1_LD_2_RN_18_RD_30_1.png","img2/100/Incongruent/L/I_Dist_100_LN_3_LD_5_RN_8_RD_16_0.png","img2/100/Incongruent/R/I_Dist_100_LN_10_LD_25_RN_9_RD_18_1.png","img2/200/Congruent/R/C_Dist_200_LN_6_LD_20_RN_11_RD_22_1.png","img2/100/Incongruent/R/I_Dist_100_LN_13_LD_26_RN_6_RD_10_1.png","img2/100/Incongruent/R/I_Dist_100_LN_9_LD_18_RN_6_RD_10_1.png","img2/300/Incongruent/L/I_Dist_300_LN_7_LD_10_RN_8_RD_20_0.png","img2/100/Congruent/L/C_Dist_100_LN_6_LD_20_RN_5_RD_25_0.png","img2/300/Incongruent/L/I_Dist_300_LN_4_LD_5_RN_8_RD_16_0.png","img2/100/Incongruent/R/I_Dist_100_LN_12_LD_30_RN_2_RD_4_1.png","img2/200/Incongruent/L/I_Dist_200_LN_4_LD_6_RN_14_RD_30_0.png","img2/200/Congruent/R/C_Dist_200_LN_13_LD_26_RN_14_RD_20_1.png","img2/200/Incongruent/R/I_Dist_200_LN_3_LD_10_RN_1_RD_2_1.png","img2/200/Incongruent/L/I_Dist_200_LN_7_LD_10_RN_12_RD_24_0.png","img2/200/Incongruent/L/I_Dist_200_LN_4_LD_6_RN_14_RD_30_0.png","img2/200/Congruent/R/C_Dist_200_LN_6_LD_20_RN_11_RD_22_1.png","img2/300/Incongruent/R/I_Dist_300_LN_4_LD_20_RN_2_RD_4_1.png","img2/100/Congruent/L/C_Dist_100_LN_11_LD_22_RN_6_RD_15_0.png","img2/300/Incongruent/L/I_Dist_300_LN_1_LD_2_RN_2_RD_10_0.png"],"dist100_C":[["C_Dist_100_LN_10_LD_25_RN_3_RD_10_0.png","C_Dist_100_LN_11_LD_22_RN_4_RD_10_0.png","C_Dist_100_LN_11_LD_22_RN_6_RD_15_0.png","C_Dist_100_LN_15_LD_25_RN_13_RD_26_0.png","C_Dist_100_LN_3_LD_6_RN_2_RD_5_0.png","C_Dist_100_LN_6_LD_20_RN_5_RD_25_0.png","C_Dist_100_LN_8_LD_16_RN_2_RD_5_0.png","C_Dist_100_LN_9_LD_15_RN_8_RD_16_0.png"],["C_Dist_100_LN_1_LD_2_RN_18_RD_30_1.png","C_Dist_100_LN_1_LD_2_RN_3_RD_5_1.png","C_Dist_100_LN_12_LD_30_RN_13_RD_26_1.png","C_Dist_100_LN_2_LD_5_RN_11_RD_22_1.png","C_Dist_100_LN_2_LD_5_RN_6_RD_12_1.png","C_Dist_100_LN_3_LD_20_RN_4_RD_16_1.png","C_Dist_100_LN_4_LD_10_RN_15_RD_30_1.png","C_Dist_100_LN_4_LD_8_RN_6_RD_10_1.png","C_Dist_100_LN_6_LD_12_RN_15_RD_25_1.png","C_Dist_100_LN_7_LD_14_RN_15_RD_25_1.png","C_Dist_100_LN_7_LD_14_RN_9_RD_15_1.png"]],"dist100_I":[["I_Dist_100_LN_1_LD_2_RN_8_RD_20_0.png","I_Dist_100_LN_2_LD_4_RN_6_RD_15_0.png","I_Dist_100_LN_2_LD_4_RN_8_RD_20_0.png","I_Dist_100_LN_3_LD_5_RN_11_RD_22_0.png","I_Dist_100_LN_3_LD_5_RN_8_RD_16_0.png","I_Dist_100_LN_3_LD_6_RN_4_RD_10_0.png","I_Dist_100_LN_3_LD_9_RN_7_RD_30_0.png","I_Dist_100_LN_4_LD_8_RN_8_RD_20_0.png","I_Dist_100_LN_6_LD_10_RN_11_RD_22_0.png","I_Dist_100_LN_6_LD_10_RN_13_RD_26_0.png","I_Dist_100_LN_6_LD_10_RN_7_RD_14_0.png","I_Dist_100_LN_9_LD_10_RN_20_RD_25_0.png","I_Dist_100_LN_9_LD_15_RN_13_RD_26_0.png","I_Dist_100_LN_9_LD_15_RN_14_RD_28_0.png"],["I_Dist_100_LN_10_LD_25_RN_8_RD_16_1.png","I_Dist_100_LN_10_LD_25_RN_9_RD_18_1.png","I_Dist_100_LN_11_LD_22_RN_9_RD_15_1.png","I_Dist_100_LN_12_LD_24_RN_9_RD_15_1.png","I_Dist_100_LN_12_LD_30_RN_2_RD_4_1.png","I_Dist_100_LN_13_LD_26_RN_12_RD_20_1.png","I_Dist_100_LN_13_LD_26_RN_6_RD_10_1.png","I_Dist_100_LN_17_LD_30_RN_10_RD_15_1.png","I_Dist_100_LN_6_LD_12_RN_3_RD_5_1.png","I_Dist_100_LN_8_LD_16_RN_6_RD_10_1.png","I_Dist_100_LN_8_LD_20_RN_1_RD_2_1.png","I_Dist_100_LN_9_LD_18_RN_6_RD_10_1.png"]],"dist100_S":[["E_Dist_100_LN_2_LD_12_RN_2_RD_30_0.png","E_Dist_100_LN_6_LD_10_RN_6_RD_12_0.png"],["E_Dist_100_LN_6_LD_12_RN_6_RD_10_1.png"]],"dist200_C":[["C_Dist_200_LN_11_LD_22_RN_3_RD_10_0.png","C_Dist_200_LN_12_LD_15_RN_6_RD_10_0.png","C_Dist_200_LN_12_LD_20_RN_6_RD_15_0.png","C_Dist_200_LN_14_LD_28_RN_6_RD_20_0.png","C_Dist_200_LN_15_LD_25_RN_4_RD_10_0.png","C_Dist_200_LN_16_LD_20_RN_12_RD_20_0.png","C_Dist_200_LN_16_LD_30_RN_9_RD_27_0.png","C_Dist_200_LN_20_LD_25_RN_9_RD_15_0.png","C_Dist_200_LN_21_LD_30_RN_2_RD_4_0.png","C_Dist_200_LN_4_LD_10_RN_3_RD_15_0.png","C_Dist_200_LN_4_LD_8_RN_3_RD_10_0.png","C_Dist_200_LN_6_LD_15_RN_3_RD_15_0.png","C_Dist_200_LN_7_LD_21_RN_2_RD_15_0.png","C_Dist_200_LN_8_LD_15_RN_2_RD_6_0.png","C_Dist_200_LN_8_LD_15_RN_3_RD_9_0.png","C_Dist_200_LN_8_LD_15_RN_7_RD_21_0.png","C_Dist_200_LN_9_LD_20_RN_4_RD_16_0.png"],["C_Dist_200_LN_1_LD_2_RN_21_RD_30_1.png","C_Dist_200_LN_13_LD_26_RN_14_RD_20_1.png","C_Dist_200_LN_3_LD_10_RN_11_RD_22_1.png","C_Dist_200_LN_3_LD_10_RN_14_RD_28_1.png","C_Dist_200_LN_3_LD_10_RN_7_RD_14_1.png","C_Dist_200_LN_3_LD_12_RN_9_RD_20_1.png","C_Dist_200_LN_3_LD_6_RN_14_RD_20_1.png","C_Dist_200_LN_5_LD_10_RN_14_RD_20_1.png","C_Dist_200_LN_6_LD_12_RN_7_RD_10_1.png","C_Dist_200_LN_6_LD_20_RN_11_RD_22_1.png","C_Dist_200_LN_7_LD_15_RN_18_RD_27_1.png","C_Dist_200_LN_9_LD_30_RN_13_RD_26_1.png"]],"dist200_I":[["I_Dist_200_LN_1_LD_2_RN_3_RD_10_0.png","I_Dist_200_LN_1_LD_3_RN_2_RD_15_0.png","I_Dist_200_LN_3_LD_4_RN_11_RD_20_0.png","I_Dist_200_LN_4_LD_5_RN_6_RD_10_0.png","I_Dist_200_LN_4_LD_6_RN_14_RD_30_0.png","I_Dist_200_LN_7_LD_10_RN_12_RD_24_0.png","I_Dist_200_LN_7_LD_10_RN_14_RD_28_0.png","I_Dist_200_LN_7_LD_10_RN_8_RD_16_0.png"],["I_Dist_200_LN_11_LD_20_RN_3_RD_4_1.png","I_Dist_200_LN_14_LD_30_RN_12_RD_18_1.png","I_Dist_200_LN_14_LD_30_RN_6_RD_9_1.png","I_Dist_200_LN_3_LD_10_RN_1_RD_2_1.png","I_Dist_200_LN_4_LD_30_RN_1_RD_3_1.png","I_Dist_200_LN_6_LD_20_RN_3_RD_6_1.png","I_Dist_200_LN_7_LD_15_RN_4_RD_6_1.png","I_Dist_200_LN_7_LD_15_RN_6_RD_9_1.png","I_Dist_200_LN_9_LD_15_RN_8_RD_10_1.png"]],"dist200_S":[["E_Dist_200_LN_3_LD_6_RN_3_RD_10_0.png"],["E_Dist_200_LN_3_LD_10_RN_3_RD_6_1.png"]],"dist300_C":[["C_Dist_300_LN_11_LD_22_RN_1_RD_5_0.png","C_Dist_300_LN_11_LD_22_RN_2_RD_10_0.png","C_Dist_300_LN_11_LD_22_RN_4_RD_20_0.png","C_Dist_300_LN_12_LD_24_RN_2_RD_10_0.png","C_Dist_300_LN_18_LD_20_RN_9_RD_15_0.png","C_Dist_300_LN_20_LD_25_RN_13_RD_26_0.png","C_Dist_300_LN_20_LD_25_RN_14_RD_28_0.png","C_Dist_300_LN_20_LD_25_RN_5_RD_10_0.png","C_Dist_300_LN_20_LD_25_RN_8_RD_16_0.png","C_Dist_300_LN_20_LD_25_RN_9_RD_18_0.png","C_Dist_300_LN_24_LD_30_RN_2_RD_4_0.png","C_Dist_300_LN_24_LD_30_RN_8_RD_16_0.png","C_Dist_300_LN_3_LD_6_RN_2_RD_10_0.png","C_Dist_300_LN_4_LD_10_RN_1_RD_10_0.png","C_Dist_300_LN_4_LD_5_RN_2_RD_4_0.png","C_Dist_300_LN_8_LD_16_RN_1_RD_5_0.png","C_Dist_300_LN_9_LD_10_RN_3_RD_5_0.png"],["C_Dist_300_LN_1_LD_20_RN_7_RD_20_1.png","C_Dist_300_LN_1_LD_3_RN_19_RD_30_1.png","C_Dist_300_LN_1_LD_30_RN_8_RD_24_1.png","C_Dist_300_LN_1_LD_5_RN_11_RD_22_1.png","C_Dist_300_LN_1_LD_5_RN_3_RD_6_1.png","C_Dist_300_LN_1_LD_5_RN_6_RD_12_1.png","C_Dist_300_LN_2_LD_10_RN_12_RD_24_1.png","C_Dist_300_LN_2_LD_20_RN_10_RD_25_1.png","C_Dist_300_LN_3_LD_12_RN_11_RD_20_1.png","C_Dist_300_LN_3_LD_6_RN_4_RD_5_1.png","C_Dist_300_LN_4_LD_20_RN_13_RD_26_1.png","C_Dist_300_LN_5_LD_25_RN_6_RD_12_1.png","C_Dist_300_LN_5_LD_25_RN_7_RD_14_1.png","C_Dist_300_LN_7_LD_14_RN_20_RD_25_1.png","C_Dist_300_LN_8_LD_15_RN_10_RD_12_1.png"]],"dist300_I":[["I_Dist_300_LN_1_LD_2_RN_2_RD_10_0.png","I_Dist_300_LN_1_LD_2_RN_3_RD_15_0.png","I_Dist_300_LN_2_LD_4_RN_6_RD_30_0.png","I_Dist_300_LN_3_LD_6_RN_4_RD_20_0.png","I_Dist_300_LN_4_LD_5_RN_6_RD_12_0.png","I_Dist_300_LN_4_LD_5_RN_8_RD_16_0.png","I_Dist_300_LN_7_LD_10_RN_8_RD_20_0.png","I_Dist_300_LN_8_LD_10_RN_14_RD_28_0.png","I_Dist_300_LN_8_LD_10_RN_9_RD_18_0.png"],["I_Dist_300_LN_13_LD_26_RN_12_RD_15_1.png","I_Dist_300_LN_4_LD_20_RN_2_RD_4_1.png"]],"dist300_S":[["E_Dist_300_LN_9_LD_12_RN_9_RD_20_0.png"],["E_Dist_300_LN_18_LD_30_RN_18_RD_20_1.png","E_Dist_300_LN_3_LD_10_RN_3_RD_5_1.png","E_Dist_300_LN_9_LD_20_RN_9_RD_12_1.png"]],"dist500_C":[["C_Dist_500_LN_10_LD_13_RN_7_RD_26_0.png","C_Dist_500_LN_10_LD_15_RN_4_RD_24_0.png","C_Dist_500_LN_12_LD_16_RN_3_RD_12_0.png","C_Dist_500_LN_12_LD_18_RN_4_RD_24_0.png","C_Dist_500_LN_15_LD_18_RN_5_RD_15_0.png","C_Dist_500_LN_15_LD_20_RN_1_RD_4_0.png","C_Dist_500_LN_18_LD_27_RN_1_RD_6_0.png","C_Dist_500_LN_20_LD_24_RN_1_RD_3_0.png","C_Dist_500_LN_20_LD_24_RN_3_RD_9_0.png","C_Dist_500_LN_20_LD_24_RN_7_RD_21_0.png","C_Dist_500_LN_20_LD_28_RN_3_RD_14_0.png","C_Dist_500_LN_21_LD_28_RN_6_RD_24_0.png","C_Dist_500_LN_22_LD_28_RN_2_RD_7_0.png","C_Dist_500_LN_25_LD_30_RN_9_RD_27_0.png","C_Dist_500_LN_4_LD_6_RN_1_RD_6_0.png","C_Dist_500_LN_5_LD_6_RN_2_RD_6_0.png","C_Dist_500_LN_6_LD_9_RN_1_RD_6_0.png","C_Dist_500_LN_7_LD_10_RN_1_RD_5_0.png","C_Dist_500_LN_8_LD_12_RN_1_RD_6_0.png","C_Dist_500_LN_8_LD_12_RN_4_RD_24_0.png"],["C_Dist_500_LN_1_LD_4_RN_12_RD_16_1.png","C_Dist_500_LN_1_LD_4_RN_9_RD_12_1.png","C_Dist_500_LN_1_LD_9_RN_11_RD_18_1.png","C_Dist_500_LN_10_LD_24_RN_22_RD_24_1.png","C_Dist_500_LN_2_LD_12_RN_10_RD_15_1.png","C_Dist_500_LN_2_LD_12_RN_12_RD_18_1.png","C_Dist_500_LN_2_LD_12_RN_4_RD_6_1.png","C_Dist_500_LN_2_LD_24_RN_7_RD_12_1.png","C_Dist_500_LN_2_LD_5_RN_18_RD_20_1.png","C_Dist_500_LN_2_LD_5_RN_9_RD_10_1.png","C_Dist_500_LN_2_LD_8_RN_12_RD_16_1.png","C_Dist_500_LN_2_LD_8_RN_21_RD_28_1.png","C_Dist_500_LN_3_LD_10_RN_4_RD_5_1.png","C_Dist_500_LN_3_LD_12_RN_15_RD_20_1.png","C_Dist_500_LN_3_LD_30_RN_6_RD_10_1.png","C_Dist_500_LN_3_LD_8_RN_14_RD_16_1.png","C_Dist_500_LN_4_LD_16_RN_15_RD_20_1.png","C_Dist_500_LN_4_LD_24_RN_12_RD_18_1.png","C_Dist_500_LN_5_LD_14_RN_6_RD_7_1.png","C_Dist_500_LN_7_LD_21_RN_20_RD_24_1.png","C_Dist_500_LN_7_LD_28_RN_12_RD_16_1.png","C_Dist_500_LN_7_LD_28_RN_9_RD_12_1.png","C_Dist_500_LN_9_LD_27_RN_20_RD_24_1.png"]],"dist500_I":[["I_Dist_500_LN_2_LD_3_RN_4_RD_24_0.png","I_Dist_500_LN_5_LD_6_RN_6_RD_18_0.png","I_Dist_500_LN_7_LD_8_RN_9_RD_24_0.png"],["I_Dist_500_LN_7_LD_21_RN_5_RD_6_1.png"]],"dist500_S":[["E_Dist_500_LN_6_LD_8_RN_6_RD_24_0.png"],["E_Dist_500_LN_2_LD_12_RN_2_RD_3_1.png","E_Dist_500_LN_6_LD_24_RN_6_RD_8_1.png"]]}},{"start_time":1552308668423,"click_time":1552308669918,"finger_time":1552308669559,"fix_duration":1263.4269913510627,"trial":1,"RT":1136,"MT":359,"sideResp":2,"stimulus":[],"xmouse":[806,806,806,806,806,806,806,806,806,805,804,804,804,803,803,803,803,803,803,803,803,803,803,803,803,803,803,803,803,803,803,803,803,803,803,803,803,803,803,803,803,803,803,802,802,802,802,802,802,802,802,802,802,804,815,835,868,896,952,968,974,976,979,982,991,997,1003,1006,1011,1012,1014,1014,1019,1030,1090],"ymouse":[542,542,542,542,542,542,542,542,542,542,543,543,543,543,543,543,543,543,543,543,543,543,543,543,543,543,543,543,543,543,543,543,543,543,543,543,543,543,543,543,543,543,543,543,543,543,543,543,543,543,543,543,543,540,526,490,429,364,240,197,172,154,145,137,127,124,122,119,113,111,110,110,110,110,93],"timestamp_mouse":[15,46,56,75,95,116,136,155,177,195,217,236,255,276,295,316,336,355,376,395,417,436,457,476,496,516,537,557,576,596,616,636,656,676,696,715,736,756,775,797,817,836,855,875,895,916,936,956,976,996,1016,1035,1056,1075,1097,1116,1136,1156,1176,1196,1216,1236,1256,1276,1296,1316,1335,1357,1375,1396,1415,1436,1457,1476,1495],"xSR":741.5,"ySR":469.95,"xT1":424.9,"yT1":0,"xT2":1058.1,"yT2":0,"toosoon":0,"cond_shown":"Incongruent","ratio_trial":200,"L_num":11,"L_den":20,"R_num":3,"R_den":4,"correct_side":2,"subjID":"lauracamilamontenegro11","gender":"1","school":"4","age":"9"},{"start_time":1552308671848,"click_time":1552308673699,"finger_time":1552308673598,"fix_duration":327.78126632954695,"trial":2,"RT":1750,"MT":101,"sideResp":2,"stimulus":[],"xmouse":[771,771,771,771,771,771,771,771,771,771,772,773,774,774,774,774,774,774,774,774,774,774,774,774,774,774,774,774,774,774,774,774,774,774,774,774,774,774,774,774,774,774,774,774,774,774,774,774,774,774,774,774,774,774,774,774,774,774,774,774,774,774,775,775,775,775,775,775,775,775,775,775,775,775,775,775,775,775,775,775,775,775,775,776,776,778,781,802,834,877,938,1005,1116],"ymouse":[507,507,507,507,507,507,507,507,507,507,506,505,505,505,505,505,505,505,505,505,505,505,505,505,505,505,505,505,505,505,505,505,505,505,505,505,505,505,505,505,505,505,505,505,505,505,505,505,505,505,505,505,505,505,505,505,505,505,505,505,505,505,505,505,505,505,505,505,505,505,505,505,505,505,505,505,505,505,505,505,505,505,504,503,501,497,492,458,407,329,242,160,33],"timestamp_mouse":[13,43,50,71,90,112,131,151,171,191,211,231,251,271,292,310,331,350,372,390,411,430,451,472,491,511,531,550,570,592,610,631,651,672,691,711,731,751,770,791,812,830,851,871,892,910,930,951,972,991,1011,1030,1052,1070,1091,1111,1132,1151,1171,1192,1211,1232,1250,1270,1290,1310,1332,1350,1370,1391,1411,1431,1450,1470,1490,1512,1532,1552,1571,1591,1611,1630,1652,1671,1690,1711,1731,1750,1770,1790,1810,1832,1850],"xSR":741.5,"ySR":469.95,"xT1":424.9,"yT1":0,"xT2":1058.1,"yT2":0,"toosoon":0,"cond_shown":"Congruent","ratio_trial":200,"L_num":4,"L_den":8,"R_num":3,"R_den":10,"correct_side":1,"subjID":"lauracamilamontenegro11","gender":"1","school":"4","age":"9"},{"start_time":1552308676659,"click_time":1552308677959,"finger_time":1552308677599,"fix_duration":1480.8767639270018,"trial":3,"RT":940,"MT":360,"sideResp":1,"stimulus":[],"xmouse":[781,781,781,781,781,781,781,781,781,781,781,781,781,781,781,781,781,781,781,781,781,781,781,781,781,781,781,781,781,781,781,781,781,781,781,781,781,781,781,781,781,781,781,781,781,776,727,701,680,666,651,642,640,637,636,633,628,627,626,624,622,590,563,527,499],"ymouse":[507,507,507,507,507,507,507,507,507,507,507,507,507,507,507,507,507,507,507,507,507,507,507,507,507,507,507,507,507,507,507,507,507,507,507,507,507,507,507,507,507,507,507,507,499,470,364,300,247,198,138,87,69,56,49,41,30,29,28,28,28,28,30,35,39],"timestamp_mouse":[21,39,60,79,101,120,140,161,180,199,219,241,261,279,299,319,341,361,380,400,420,441,460,480,500,521,539,560,581,599,619,640,660,681,701,720,739,759,780,799,820,840,859,879,900,920,940,959,980,999,1019,1039,1059,1079,1101,1120,1140,1159,1181,1199,1220,1240,1261,1279,1300],"xSR":741.5,"ySR":469.95,"xT1":424.9,"yT1":0,"xT2":1058.1,"yT2":0,"toosoon":0,"cond_shown":"Congruent","ratio_trial":200,"L_num":3,"L_den":6,"R_num":14,"R_den":20,"correct_side":2,"subjID":"lauracamilamontenegro11","gender":"1","school":"4","age":"9"},{"start_time":1552308680321,"click_time":1552308687499,"finger_time":1552308687119,"fix_duration":1179.3796434367616,"trial":4,"RT":6798,"MT":380,"sideResp":1,"stimulus":[],"xmouse":[819,819,819,819,819,819,819,819,819,819,819,819,819,819,819,819,819,819,819,819,819,819,819,819,819,819,819,819,819,819,819,819,819,819,819,819,819,819,819,819,819,819,819,819,819,819,819,819,819,819,819,819,819,819,819,819,819,819,819,819,819,819,819,819,819,819,819,819,819,819,819,819,819,819,819,819,819,819,819,819,819,819,819,819,819,819,819,819,819,819,819,819,819,819,819,819,819,819,819,819,819,819,819,819,819,819,819,819,819,819,819,819,819,819,819,819,819,819,819,819,819,819,819,819,819,819,819,819,819,819,819,819,819,819,819,819,819,819,819,819,819,819,819,819,819,819,819,819,819,819,819,819,819,819,819,819,819,819,819,819,819,819,819,819,819,819,819,819,819,819,819,819,819,819,819,819,819,819,819,819,819,819,819,819,819,819,819,819,819,819,819,819,819,819,819,819,819,819,819,819,819,819,819,819,819,819,819,819,819,819,819,819,819,819,819,819,819,819,819,819,819,819,819,819,819,819,819,819,819,819,819,819,819,819,819,819,819,819,819,819,819,819,819,819,819,819,819,819,819,819,819,819,819,819,819,819,819,819,819,819,819,819,819,819,819,819,819,819,819,819,819,819,819,819,819,819,819,819,819,819,819,819,819,819,819,819,819,819,819,819,819,819,819,819,819,819,819,819,819,819,819,819,819,819,819,819,819,819,819,819,819,819,819,819,819,819,819,819,819,819,819,819,819,819,819,819,819,819,819,819,819,819,819,819,819,819,819,819,807,795,781,759,729,670,646,628,617,606,583,573,562,551,546,539,538,536,532,525,493],"ymouse":[538,538,538,538,538,538,538,538,538,538,538,538,538,538,538,538,538,538,538,538,538,538,538,538,538,538,538,538,538,538,538,538,538,538,538,538,538,538,538,538,538,538,538,538,538,538,538,538,538,538,538,538,538,538,538,538,538,538,538,538,538,538,538,538,538,538,538,538,538,538,538,538,538,538,538,538,538,538,538,538,538,538,538,538,538,538,538,538,538,538,538,538,538,538,538,538,538,538,538,538,538,538,538,538,538,538,538,538,538,538,538,538,538,538,538,538,538,538,538,538,538,538,538,538,538,538,538,538,538,538,538,538,538,538,538,538,538,538,538,538,538,538,538,538,538,538,538,538,538,538,538,538,538,538,538,538,538,538,538,538,538,538,538,538,538,538,538,538,538,538,538,538,538,538,538,538,538,538,538,538,538,538,538,538,538,538,538,538,538,538,538,538,538,538,538,538,538,538,538,538,538,538,538,538,538,538,538,538,538,538,538,538,538,538,538,538,538,538,538,538,538,538,538,538,538,538,538,538,538,538,538,538,538,538,538,538,538,538,538,538,538,538,538,538,538,538,538,538,538,538,538,538,538,538,538,538,538,538,538,538,538,538,538,538,538,538,538,538,538,538,538,538,538,538,538,538,538,538,538,538,538,538,538,538,538,538,538,538,538,538,538,538,538,538,538,538,538,538,538,538,538,538,538,538,538,538,538,538,538,538,538,538,538,538,538,538,538,538,538,538,538,538,538,538,538,538,538,538,538,538,538,538,538,538,538,538,536,530,483,458,434,383,323,217,173,143,122,101,62,49,35,24,19,15,15,15,15,16,27],"timestamp_mouse":[19,55,58,79,97,119,137,158,177,198,217,238,259,277,299,318,337,357,378,398,418,439,457,477,498,517,538,558,577,598,617,637,658,677,698,717,738,758,777,798,818,839,858,878,898,917,938,959,978,997,1018,1037,1058,1079,1098,1117,1137,1158,1178,1199,1218,1239,1259,1278,1297,1318,1339,1358,1378,1398,1418,1437,1457,1478,1498,1518,1539,1558,1578,1599,1617,1638,1658,1677,1699,1717,1737,1758,1779,1797,1818,1838,1859,1878,1897,1918,1937,1958,1977,1997,2017,2038,2058,2078,2098,2119,2137,2157,2177,2197,2218,2238,2259,2278,2298,2318,2337,2359,2378,2398,2417,2439,2458,2477,2497,2518,2539,2558,2578,2599,2617,2638,2658,2678,2699,2718,2737,2758,2779,2799,2818,2838,2857,2878,2897,2918,2939,2958,2978,2998,3019,3038,3058,3078,3098,3119,3137,3159,3177,3198,3218,3237,3258,3277,3297,3319,3339,3358,3377,3399,3419,3438,3459,3477,3498,3519,3538,3557,3578,3598,3619,3639,3657,3679,3698,3719,3738,3757,3778,3799,3819,3838,3857,3878,3897,3917,3939,3957,3977,3998,4017,4037,4058,4079,4099,4117,4138,4159,4178,4198,4218,4238,4258,4277,4298,4318,4338,4359,4378,4398,4418,4438,4457,4478,4497,4519,4538,4557,4578,4597,4618,4638,4659,4677,4697,4717,4739,4759,4778,4798,4818,4837,4859,4877,4899,4918,4938,4958,4977,4997,5017,5039,5057,5077,5099,5118,5137,5159,5178,5199,5217,5239,5258,5278,5299,5319,5338,5358,5377,5399,5418,5438,5457,5478,5498,5519,5539,5559,5578,5598,5617,5637,5658,5677,5697,5717,5738,5757,5778,5799,5819,5838,5860,5878,5898,5919,5939,5958,5978,5997,6018,6038,6058,6078,6098,6119,6138,6157,6178,6199,6217,6238,6257,6277,6299,6317,6338,6357,6377,6399,6418,6438,6457,6477,6498,6517,6539,6559,6578,6599,6617,6638,6657,6678,6698,6719,6739,6758,6777,6798,6817,6837,6858,6877,6898,6917,6938,6958,6978,6997,7018,7038,7058,7078,7097,7117,7138,7159,7177],"xSR":741.5,"ySR":469.95,"xT1":424.9,"yT1":0,"xT2":1058.1,"yT2":0,"toosoon":0,"cond_shown":"Incongruent","ratio_trial":100,"L_num":6,"L_den":10,"R_num":13,"R_den":26,"correct_side":1,"subjID":"lauracamilamontenegro11","gender":"1","school":"4","age":"9"},{"start_time":1552308688912,"click_time":1552308691839,"finger_time":1552308690519,"fix_duration":250,"trial":5,"RT":1607,"MT":1320,"sideResp":2,"stimulus":[],"xmouse":[783,783,783,783,783,783,783,783,783,783,783,783,783,783,783,783,783,783,783,783,783,783,783,783,783,783,783,783,783,783,783,783,783,783,783,783,783,783,783,783,783,783,783,783,783,783,783,783,783,783,783,783,783,783,783,783,783,783,783,783,783,783,783,783,783,783,783,783,783,783,783,783,783,783,783,783,783,783,783,771,761,750,739,731,718,708,701,696,694,694,694,694,694,694,694,694,694,694,694,694,694,694,694,694,694,694,694,694,694,694,694,696,704,714,746,765,786,802,815,824,831,845,865,884,898,917,928,942,960,1005,1016,1022,1026,1029,1033,1036,1038,1041,1042,1044,1044,1044,1045,1046,1052,1057,1064],"ymouse":[507,507,507,507,507,507,507,507,507,507,507,507,507,507,507,507,507,507,507,507,507,507,507,507,507,507,507,507,507,507,507,507,507,507,507,507,507,507,507,507,507,507,507,507,507,507,507,507,507,507,507,507,507,507,507,507,507,507,507,507,507,507,507,507,507,507,507,507,507,507,507,507,507,507,507,507,507,507,505,483,467,448,432,418,396,378,362,354,351,349,349,349,349,349,349,349,349,349,349,349,349,349,349,349,349,349,349,349,349,349,349,350,356,364,379,382,384,386,389,389,389,382,370,356,339,301,278,247,213,133,115,94,78,69,52,47,40,33,28,23,23,23,23,23,27,32,39],"timestamp_mouse":[9,39,46,66,86,108,128,146,166,187,207,227,248,267,287,306,327,348,368,387,407,427,448,468,486,506,528,547,568,586,607,628,648,666,687,707,726,747,767,787,807,826,847,868,886,906,928,946,968,987,1006,1026,1047,1068,1086,1107,1128,1146,1167,1187,1207,1227,1247,1266,1288,1307,1326,1347,1367,1386,1407,1426,1447,1466,1486,1506,1528,1546,1567,1587,1607,1627,1648,1667,1686,1706,1726,1748,1768,1787,1807,1826,1847,1867,1887,1906,1927,1947,1968,1987,2008,2028,2047,2066,2087,2107,2127,2147,2168,2187,2207,2227,2248,2268,2287,2306,2327,2348,2368,2387,2406,2426,2447,2467,2487,2508,2526,2547,2566,2587,2607,2627,2648,2667,2687,2706,2726,2746,2767,2788,2807,2827,2847,2867,2887,2908,2927],"xSR":741.5,"ySR":469.95,"xT1":424.9,"yT1":0,"xT2":1058.1,"yT2":0,"toosoon":0,"cond_shown":"Incongruent","ratio_trial":300,"L_num":7,"L_den":10,"R_num":8,"R_den":20,"correct_side":1,"subjID":"lauracamilamontenegro11","gender":"1","school":"4","age":"9"},{"start_time":1552308693375,"click_time":1552308694720,"finger_time":1552308693680,"fix_duration":496.2218543853077,"trial":6,"RT":305,"MT":1040,"sideResp":1,"stimulus":[],"xmouse":[814,814,813,813,813,813,813,813,813,810,809,807,805,805,805,805,810,811,813,813,813,813,813,813,813,813,813,813,813,813,813,813,813,813,813,813,811,809,808,806,805,805,805,806,807,814,816,817,818,818,819,821,822,822,822,822,822,822,820,817,811,783,750,714,671,625,529,499],"ymouse":[490,490,490,490,490,490,490,490,490,489,488,487,485,483,473,447,404,392,383,381,381,381,381,381,381,381,381,381,381,381,381,381,381,381,381,381,386,391,396,405,419,439,445,449,455,466,472,475,476,477,479,489,491,492,493,495,500,503,505,505,505,489,457,410,356,286,116,51],"timestamp_mouse":[3,24,57,64,84,105,124,144,164,183,205,224,244,264,283,304,324,343,363,384,404,424,444,464,484,504,524,544,565,584,603,623,644,664,684,705,724,743,763,783,804,824,844,863,883,904,923,944,965,983,1004,1024,1044,1064,1085,1104,1124,1144,1164,1184,1203,1224,1245,1265,1284,1305,1323,1345],"xSR":741.5,"ySR":469.95,"xT1":424.9,"yT1":0,"xT2":1058.1,"yT2":0,"toosoon":0,"cond_shown":"Incongruent","ratio_trial":200,"L_num":14,"L_den":30,"R_num":12,"R_den":18,"correct_side":2,"subjID":"lauracamilamontenegro11","gender":"1","school":"4","age":"9"},{"start_time":1552308697430,"click_time":1552308699618,"finger_time":1552308699118,"fix_duration":1429.6827642668898,"trial":7,"RT":1688,"MT":500,"sideResp":2,"stimulus":[],"xmouse":[800,800,800,800,800,800,800,800,800,800,800,800,800,800,800,800,800,800,800,799,798,798,798,798,798,798,797,797,797,796,796,796,795,794,792,791,790,787,786,786,786,786,786,786,786,786,786,786,786,786,786,786,786,786,786,786,786,786,786,786,786,786,786,786,786,786,786,786,786,786,786,786,786,786,786,786,786,786,786,786,786,786,786,791,803,812,824,841,870,884,900,913,920,932,934,936,939,946,961,970,976,983,989,996,1000,1006,1015,1024,1049,1061],"ymouse":[505,505,505,505,505,505,504,502,501,501,501,501,501,501,501,501,501,501,501,501,501,502,502,502,502,502,502,502,502,502,502,502,501,499,496,492,489,485,482,480,480,480,480,480,480,480,480,480,480,480,480,480,480,480,480,480,480,480,480,480,480,480,480,480,480,480,480,480,480,480,480,480,480,480,480,480,480,480,480,480,480,480,479,474,468,463,454,436,387,348,289,247,219,190,185,179,171,161,142,131,127,120,116,110,109,107,105,104,100,97],"timestamp_mouse":[10,41,48,68,89,109,130,149,168,189,208,229,248,268,289,308,328,348,369,389,410,428,448,468,490,508,528,550,568,588,609,628,650,669,688,709,729,749,769,789,808,829,849,869,888,909,929,947,969,989,1009,1027,1048,1068,1089,1109,1129,1149,1167,1189,1207,1229,1249,1268,1287,1309,1329,1348,1368,1387,1409,1428,1449,1468,1489,1509,1529,1548,1569,1588,1608,1629,1649,1668,1688,1708,1728,1749,1768,1787,1807,1829,1848,1868,1889,1908,1929,1948,1968,1988,2008,2029,2048,2068,2089,2109,2128,2149,2168,2188],"xSR":741.5,"ySR":469.95,"xT1":424.9,"yT1":0,"xT2":1058.1,"yT2":0,"toosoon":0,"cond_shown":"Incongruent","ratio_trial":200,"L_num":4,"L_den":30,"R_num":1,"R_den":3,"correct_side":2,"subjID":"lauracamilamontenegro11","gender":"1","school":"4","age":"9"},{"start_time":1552308702475,"click_time":1552308704398,"finger_time":1552308703898,"fix_duration":1275.323777627986,"trial":8,"RT":1423,"MT":500,"sideResp":2,"stimulus":[],"xmouse":[787,787,787,788,788,788,788,788,788,788,788,788,788,788,788,788,788,788,788,788,788,788,788,788,788,788,788,788,788,788,788,788,788,788,788,788,788,788,788,788,788,788,788,788,788,788,788,788,788,788,788,788,788,788,788,788,788,788,788,788,788,788,788,788,788,788,788,788,792,793,804,858,891,925,950,960,964,964,964,965,965,982,990,999,1006,1015,1030,1035,1038,1039,1041,1044,1044,1046,1049,1053,1060],"ymouse":[503,503,503,504,504,504,504,504,504,504,504,504,504,504,504,504,504,504,504,504,504,504,504,504,504,504,504,504,504,504,504,504,504,504,504,504,504,504,504,504,504,504,504,504,504,504,504,504,504,504,504,504,504,504,504,504,504,504,504,504,504,504,504,504,504,504,504,504,502,497,485,413,371,324,293,278,274,274,274,274,274,256,244,232,216,195,159,145,135,129,123,114,111,109,105,100,91],"timestamp_mouse":[10,23,43,63,83,102,123,142,163,184,202,223,242,263,284,303,323,342,363,382,402,424,442,463,484,504,522,544,562,582,603,624,644,664,682,703,723,743,764,783,804,823,842,862,884,904,923,943,962,982,1002,1023,1044,1063,1082,1103,1124,1143,1163,1183,1202,1224,1243,1263,1283,1302,1324,1342,1364,1382,1403,1423,1443,1463,1484,1503,1523,1543,1563,1582,1604,1624,1644,1663,1684,1704,1723,1744,1762,1783,1803,1822,1842,1864,1884,1904,1923],"xSR":741.5,"ySR":469.95,"xT1":424.9,"yT1":0,"xT2":1058.1,"yT2":0,"toosoon":0,"cond_shown":"Congruent","ratio_trial":300,"L_num":5,"L_den":25,"R_num":7,"R_den":14,"correct_side":2,"subjID":"lauracamilamontenegro11","gender":"1","school":"4","age":"9"},{"start_time":1552308705931,"click_time":1552308708198,"finger_time":1552308707739,"fix_duration":250,"trial":9,"RT":1808,"MT":459,"sideResp":2,"stimulus":[],"xmouse":[814,814,814,814,814,814,814,814,814,814,814,814,814,814,814,814,814,814,814,814,814,814,814,814,814,814,814,814,814,814,814,814,814,814,814,814,814,814,814,814,814,814,814,814,814,814,814,814,814,814,814,814,814,814,814,814,814,814,814,814,814,814,814,814,814,814,814,814,814,814,814,814,814,814,814,814,814,814,814,814,814,814,814,814,814,814,814,814,820,830,856,893,933,975,985,992,994,996,1002,1009,1016,1021,1026,1039,1048,1057,1066,1068,1070,1072,1072,1073,1074,1076],"ymouse":[512,512,512,512,512,512,512,512,512,512,512,512,512,512,512,512,512,512,512,512,512,512,512,512,512,512,512,512,512,512,512,512,512,512,512,512,512,512,512,512,512,512,512,512,512,512,512,512,512,512,512,512,512,512,512,512,512,512,512,512,512,512,512,512,512,512,512,512,512,512,512,512,512,512,512,512,512,512,512,512,512,512,512,512,512,512,512,512,503,484,447,394,346,292,275,262,256,253,243,235,224,217,209,186,167,149,136,127,121,116,114,110,105,98],"timestamp_mouse":[10,37,48,66,88,106,128,147,166,188,208,227,247,268,287,306,328,348,367,388,406,428,447,466,486,508,528,546,566,587,607,628,648,667,687,707,726,748,767,786,807,828,847,866,887,906,928,947,967,987,1008,1027,1048,1067,1088,1108,1128,1146,1166,1188,1208,1227,1247,1267,1288,1307,1328,1347,1366,1386,1406,1428,1448,1468,1488,1507,1528,1547,1566,1588,1608,1627,1647,1668,1688,1707,1726,1748,1767,1787,1808,1828,1848,1867,1886,1906,1927,1947,1967,1986,2007,2027,2046,2067,2086,2107,2127,2146,2167,2188,2207,2227,2248,2267],"xSR":741.5,"ySR":469.95,"xT1":424.9,"yT1":0,"xT2":1058.1,"yT2":0,"toosoon":0,"cond_shown":"Incongruent","ratio_trial":200,"L_num":14,"L_den":30,"R_num":6,"R_den":9,"correct_side":2,"subjID":"lauracamilamontenegro11","gender":"1","school":"4","age":"9"},{"start_time":1552308710250,"click_time":1552308711698,"finger_time":1552308711297,"fix_duration":811.9229531782593,"trial":10,"RT":1047,"MT":401,"sideResp":1,"stimulus":[],"xmouse":[803,803,803,803,803,803,803,803,803,803,803,803,803,803,803,803,803,803,803,803,803,803,803,803,803,803,803,803,803,803,803,803,803,803,803,803,803,803,803,803,803,803,803,803,803,803,803,803,797,793,786,775,749,736,724,700,682,665,657,652,645,635,630,622,615,606,595,570,563,558,555,551,524],"ymouse":[506,506,506,506,506,506,506,506,506,506,506,506,506,506,506,506,506,506,506,506,506,506,506,506,506,506,506,506,506,506,506,506,506,506,506,506,506,506,506,506,506,506,506,506,506,506,506,507,503,500,495,487,464,448,427,387,355,320,304,289,271,247,236,208,194,177,157,125,118,113,109,106,87],"timestamp_mouse":[9,28,48,69,87,109,129,149,168,187,208,228,248,267,288,309,329,349,369,389,408,429,448,468,488,509,529,548,568,587,609,629,648,669,688,708,728,747,769,789,809,829,848,868,888,909,928,948,968,988,1008,1028,1047,1068,1088,1108,1129,1148,1167,1188,1209,1228,1248,1268,1288,1308,1328,1348,1367,1387,1408,1428,1448],"xSR":741.5,"ySR":469.95,"xT1":424.9,"yT1":0,"xT2":1058.1,"yT2":0,"toosoon":0,"cond_shown":"Incongruent","ratio_trial":100,"L_num":2,"L_den":4,"R_num":6,"R_den":15,"correct_side":1,"subjID":"lauracamilamontenegro11","gender":"1","school":"4","age":"9"},{"start_time":1552308713449,"click_time":1552308715518,"finger_time":1552308715098,"fix_duration":750.5943952064226,"trial":11,"RT":1649,"MT":420,"sideResp":2,"stimulus":[],"xmouse":[776,776,776,776,776,776,776,776,776,776,776,776,776,776,776,776,776,776,776,776,776,776,776,776,776,776,776,776,776,776,776,776,776,776,776,776,776,776,776,776,776,776,776,776,776,776,776,776,776,776,776,776,776,776,776,776,778,779,780,781,782,783,783,783,784,784,784,786,787,787,787,787,787,787,787,787,787,787,790,793,802,827,872,892,906,921,937,949,953,954,957,960,969,972,974,977,981,986,999,1005,1012,1020,1037,1066],"ymouse":[532,532,532,532,532,532,532,532,532,532,532,532,532,532,532,532,532,532,532,532,532,532,532,532,532,532,532,532,532,532,532,532,532,532,532,532,532,532,532,532,532,532,532,532,532,532,532,532,532,532,532,532,532,532,532,532,532,530,530,529,528,528,527,527,526,526,526,524,524,524,524,523,523,523,523,523,523,523,522,521,518,506,475,449,423,361,304,244,221,204,187,173,148,142,137,130,124,119,110,107,103,101,94,85],"timestamp_mouse":[9,30,63,70,90,109,130,149,168,190,209,230,250,269,289,310,329,349,370,389,409,429,449,470,490,509,529,549,569,589,609,629,650,669,690,709,729,748,770,790,809,829,849,870,890,909,929,950,969,988,1009,1029,1048,1070,1089,1109,1130,1148,1170,1189,1209,1229,1250,1270,1289,1309,1328,1348,1369,1389,1409,1428,1450,1470,1489,1508,1530,1548,1568,1590,1610,1628,1649,1670,1689,1709,1729,1748,1770,1789,1809,1829,1849,1868,1889,1910,1930,1949,1969,1989,2009,2029,2049,2069],"xSR":741.5,"ySR":469.95,"xT1":424.9,"yT1":0,"xT2":1058.1,"yT2":0,"toosoon":0,"cond_shown":"Incongruent","ratio_trial":100,"L_num":10,"L_den":25,"R_num":9,"R_den":18,"correct_side":2,"subjID":"lauracamilamontenegro11","gender":"1","school":"4","age":"9"},{"start_time":1552308717114,"click_time":1552308718538,"finger_time":1552308718098,"fix_duration":356.6819808961027,"trial":12,"RT":984,"MT":440,"sideResp":2,"stimulus":[],"xmouse":[819,819,819,819,819,819,819,819,819,819,819,819,819,819,819,817,816,813,811,806,803,802,801,801,801,801,801,800,800,800,800,800,800,800,800,800,800,800,800,800,800,800,800,800,800,800,800,802,809,866,900,931,954,973,1012,1024,1034,1041,1046,1052,1054,1056,1057,1057,1057,1057,1057,1057,1059,1065,1068,1070],"ymouse":[513,513,513,513,513,513,513,513,513,513,513,513,513,513,513,512,511,508,507,505,505,504,504,504,504,504,504,504,504,504,504,504,504,504,504,504,504,504,504,504,504,504,504,504,504,504,504,502,498,466,447,430,415,399,354,335,315,296,278,236,221,206,195,185,174,169,165,158,139,117,107,99],"timestamp_mouse":[4,23,44,63,84,103,124,144,163,184,203,223,243,264,284,304,324,344,365,384,404,424,443,464,485,504,524,544,563,584,604,624,644,664,685,703,725,743,763,784,804,824,844,863,883,904,925,943,965,984,1004,1025,1045,1064,1084,1104,1124,1144,1163,1184,1204,1224,1245,1263,1284,1303,1324,1344,1364,1384,1405,1424],"xSR":741.5,"ySR":469.95,"xT1":424.9,"yT1":0,"xT2":1058.1,"yT2":0,"toosoon":0,"cond_shown":"Incongruent","ratio_trial":100,"L_num":6,"L_den":12,"R_num":3,"R_den":5,"correct_side":2,"subjID":"lauracamilamontenegro11","gender":"1","school":"4","age":"9"},{"start_time":1552308724506,"click_time":1552308726538,"finger_time":1552308726118,"fix_duration":1368.2077035810826,"trial":13,"RT":1612,"MT":420,"sideResp":1,"stimulus":[],"xmouse":[797,797,797,797,797,797,797,797,797,797,797,797,797,797,797,797,797,797,797,797,797,797,797,797,797,797,797,797,797,797,797,797,797,797,797,797,797,797,797,797,797,797,797,797,797,797,797,797,797,797,797,797,797,797,797,797,797,797,797,797,797,797,797,797,797,797,797,797,797,797,797,797,797,797,797,797,797,797,798,793,782,766,734,712,682,675,670,663,655,638,628,620,611,601,582,574,565,558,551,533,526,519],"ymouse":[510,510,510,510,510,510,510,510,510,510,510,510,510,510,510,510,510,510,510,510,510,510,510,510,510,510,510,510,510,510,510,510,510,510,510,510,510,510,510,510,510,510,510,510,510,510,510,510,510,510,510,510,510,510,510,510,510,510,510,510,510,510,510,510,510,510,510,510,510,510,510,510,510,510,510,510,510,510,509,487,462,419,336,273,194,169,151,134,117,88,75,63,50,39,24,20,17,16,16,19,23,28],"timestamp_mouse":[12,33,52,73,92,113,132,153,173,193,213,231,252,272,292,311,333,352,371,393,411,431,453,473,492,512,533,552,571,592,612,632,651,671,692,711,732,752,773,793,812,832,853,871,893,912,931,951,973,992,1012,1032,1052,1073,1093,1113,1131,1153,1172,1193,1213,1231,1253,1272,1291,1311,1331,1352,1373,1392,1411,1432,1452,1472,1492,1513,1533,1552,1572,1592,1612,1633,1652,1672,1692,1713,1731,1752,1772,1792,1811,1833,1852,1872,1892,1911,1932,1952,1972,1992,2012,2032],"xSR":741.5,"ySR":469.95,"xT1":424.9,"yT1":0,"xT2":1058.1,"yT2":0,"toosoon":0,"cond_shown":"Congruent","ratio_trial":100,"L_num":9,"L_den":15,"R_num":8,"R_den":16,"correct_side":1,"subjID":"lauracamilamontenegro11","gender":"1","school":"4","age":"9"},{"start_time":1552308728158,"click_time":1552308729879,"finger_time":1552308729258,"fix_duration":619.179252382555,"trial":14,"RT":1100,"MT":621,"sideResp":1,"stimulus":[],"xmouse":[823,823,823,823,823,823,823,823,823,823,823,823,823,823,823,823,823,823,823,823,823,823,823,823,823,823,823,823,823,823,823,823,823,823,823,823,823,823,823,823,823,823,823,823,823,823,823,823,823,823,823,823,823,816,806,791,776,750,743,737,725,711,688,683,679,678,677,661,651,637,625,615,601,596,589,574,555,532,532,532,532,532,532,529,529,526,523],"ymouse":[509,509,509,509,509,509,509,509,509,509,509,509,509,509,509,509,509,509,509,509,509,509,509,509,509,509,509,509,509,509,509,509,509,509,509,509,509,509,509,509,509,509,509,509,509,509,509,509,509,509,509,509,509,498,485,464,439,377,358,336,309,274,240,231,227,225,222,191,173,153,136,121,97,89,80,65,52,38,38,38,38,38,38,38,38,38,40],"timestamp_mouse":[10,21,42,60,79,101,121,141,159,181,201,220,241,259,281,300,321,340,361,381,400,419,441,460,481,501,521,540,559,579,601,620,640,661,679,701,721,741,761,780,801,820,839,860,881,900,921,941,959,980,1000,1019,1040,1061,1081,1100,1121,1140,1160,1180,1201,1221,1239,1261,1279,1300,1320,1340,1359,1379,1400,1420,1440,1461,1480,1499,1521,1540,1560,1580,1600,1619,1640,1660,1681,1701,1721],"xSR":741.5,"ySR":469.95,"xT1":424.9,"yT1":0,"xT2":1058.1,"yT2":0,"toosoon":0,"cond_shown":"Congruent","ratio_trial":300,"L_num":11,"L_den":22,"R_num":4,"R_den":20,"correct_side":1,"subjID":"lauracamilamontenegro11","gender":"1","school":"4","age":"9"},{"start_time":1552308731694,"click_time":1552308732798,"finger_time":1552308732417,"fix_duration":815.2552920337117,"trial":15,"RT":723,"MT":381,"sideResp":2,"stimulus":[],"xmouse":[813,813,813,813,813,813,813,813,813,813,813,813,813,813,813,813,813,813,813,813,813,813,813,813,813,813,813,813,813,813,813,813,813,813,817,841,860,879,899,913,936,945,956,966,972,981,985,990,994,999,1015,1025,1033,1043,1050,1059],"ymouse":[511,511,511,511,511,511,511,511,511,511,511,511,511,511,511,511,511,511,511,511,511,511,511,511,511,511,511,511,511,511,511,511,511,510,507,485,472,456,432,408,340,290,254,232,215,187,176,165,156,147,121,109,99,88,78,69],"timestamp_mouse":[11,39,45,64,85,103,124,145,164,185,205,224,244,265,285,304,323,343,365,384,405,423,445,465,483,503,524,545,565,584,604,625,643,665,685,703,723,745,765,785,804,825,844,864,883,905,925,945,965,985,1005,1023,1044,1065,1085,1103],"xSR":741.5,"ySR":469.95,"xT1":424.9,"yT1":0,"xT2":1058.1,"yT2":0,"toosoon":0,"cond_shown":"Incongruent","ratio_trial":100,"L_num":8,"L_den":20,"R_num":1,"R_den":2,"correct_side":2,"subjID":"lauracamilamontenegro11","gender":"1","school":"4","age":"9"},{"start_time":1552308735041,"click_time":1552308735998,"finger_time":1552308735738,"fix_duration":1061.2056867064944,"trial":16,"RT":697,"MT":260,"sideResp":2,"stimulus":[],"xmouse":[792,793,793,793,793,793,793,793,793,793,793,793,793,793,793,793,793,793,793,793,793,793,793,793,793,793,793,793,793,793,793,794,807,823,843,865,890,944,963,980,990,1002,1029,1038,1045,1049,1053,1061],"ymouse":[531,531,531,531,531,531,531,531,531,531,531,531,531,531,531,531,531,531,531,531,531,531,531,531,531,531,531,531,531,531,531,531,525,514,499,473,428,321,268,220,187,161,118,105,95,87,77,57],"timestamp_mouse":[18,43,58,77,97,116,138,158,178,197,218,236,257,277,298,317,337,357,378,397,417,436,458,478,497,517,537,558,578,597,618,636,656,678,697,717,738,758,777,796,818,837,856,877,897,918,937,956],"xSR":741.5,"ySR":469.95,"xT1":424.9,"yT1":0,"xT2":1058.1,"yT2":0,"toosoon":0,"cond_shown":"Incongruent","ratio_trial":100,"L_num":12,"L_den":30,"R_num":2,"R_den":4,"correct_side":2,"subjID":"lauracamilamontenegro11","gender":"1","school":"4","age":"9"},{"start_time":1552308738461,"click_time":1552308739958,"finger_time":1552308739819,"fix_duration":1402.8040440789428,"trial":17,"RT":1358,"MT":139,"sideResp":1,"stimulus":[],"xmouse":[797,797,797,797,797,797,797,797,797,797,797,797,797,797,797,797,797,797,797,797,797,801,803,803,805,805,806,806,806,806,806,806,806,806,806,807,807,808,808,808,808,808,808,808,808,808,808,808,808,808,808,808,808,808,808,808,807,806,806,806,806,806,806,806,806,806,802,792,778,755,723,604,579,552,522],"ymouse":[512,512,512,512,512,512,512,512,512,512,512,512,512,512,512,512,512,512,512,512,509,500,495,492,488,486,483,483,483,483,483,483,483,483,483,481,480,477,475,475,475,475,475,475,475,475,475,475,475,475,475,475,475,475,475,475,475,475,475,475,475,475,475,475,475,475,473,466,452,426,387,230,185,140,93],"timestamp_mouse":[16,37,58,77,96,116,137,157,177,198,217,236,257,278,298,316,338,356,377,396,417,437,458,478,498,517,537,557,577,598,617,636,658,676,697,718,737,758,777,797,817,836,856,877,896,916,937,958,977,996,1017,1037,1058,1077,1097,1116,1137,1157,1177,1198,1218,1237,1257,1278,1298,1317,1337,1358,1377,1397,1418,1437,1457,1477,1497],"xSR":741.5,"ySR":469.95,"xT1":424.9,"yT1":0,"xT2":1058.1,"yT2":0,"toosoon":0,"cond_shown":"Congruent","ratio_trial":100,"L_num":9,"L_den":15,"R_num":8,"R_den":16,"correct_side":1,"subjID":"lauracamilamontenegro11","gender":"1","school":"4","age":"9"},{"start_time":1552308741768,"click_time":1552308744198,"finger_time":1552308743119,"fix_duration":688.951168125161,"trial":18,"RT":1351,"MT":1079,"sideResp":2,"stimulus":[],"xmouse":[791,791,791,791,791,791,791,791,791,791,791,791,791,791,791,791,791,791,791,791,791,791,791,791,791,791,791,791,791,791,791,791,791,791,791,791,791,791,791,791,791,791,791,792,792,792,793,793,793,793,793,793,793,793,793,793,793,793,793,793,793,793,793,793,793,790,758,728,686,647,615,578,565,560,556,553,552,552,552,552,552,552,552,552,552,552,559,568,581,599,612,641,655,668,682,693,718,728,740,749,755,761,763,765,768,774,798,808,816,823,831,866,896,921,942,960,986,994,1003,1012,1030,1065],"ymouse":[543,543,543,543,543,543,543,543,543,543,543,543,543,543,543,543,543,543,543,543,543,543,543,543,543,543,543,543,543,543,543,543,543,543,543,543,543,543,543,543,543,543,543,541,540,539,538,538,538,538,538,538,538,538,538,538,538,538,538,538,538,538,538,538,537,531,498,470,428,389,351,296,271,254,240,229,218,218,218,218,218,218,218,218,218,218,228,241,257,277,292,326,343,357,371,380,407,420,434,443,449,452,453,453,453,453,435,419,400,376,348,270,226,192,167,147,110,101,92,84,76,62],"timestamp_mouse":[10,44,50,71,90,111,129,151,171,189,210,229,250,271,290,309,329,351,371,390,411,431,451,470,490,509,531,550,571,591,611,630,651,669,690,711,730,750,770,789,811,830,850,870,891,910,930,950,971,991,1010,1030,1049,1070,1089,1111,1131,1151,1169,1189,1211,1230,1249,1270,1291,1310,1330,1351,1370,1390,1410,1430,1450,1470,1491,1510,1530,1549,1569,1590,1610,1630,1650,1670,1690,1711,1730,1749,1770,1790,1811,1829,1850,1870,1891,1910,1930,1949,1970,1990,2011,2030,2050,2070,2090,2110,2130,2151,2171,2190,2211,2230,2251,2271,2290,2310,2330,2349,2371,2390,2410,2430],"xSR":741.5,"ySR":469.95,"xT1":424.9,"yT1":0,"xT2":1058.1,"yT2":0,"toosoon":0,"cond_shown":"Congruent","ratio_trial":100,"L_num":6,"L_den":20,"R_num":5,"R_den":25,"correct_side":1,"subjID":"lauracamilamontenegro11","gender":"1","school":"4","age":"9"},{"start_time":1552308757129,"click_time":1552308758018,"finger_time":1552308757779,"fix_duration":1430.2985846785202,"trial":19,"RT":650,"MT":239,"sideResp":1,"stimulus":[],"xmouse":[812,812,812,812,812,812,812,812,812,812,812,812,812,812,812,812,812,812,812,812,812,812,812,812,812,812,812,812,812,812,814,814,814,805,796,781,756,718,622,598,582,569,555,527,521],"ymouse":[511,511,511,511,511,511,511,511,511,511,511,511,511,511,511,511,511,511,511,511,511,511,511,511,511,511,511,511,506,499,488,478,466,437,416,390,354,304,190,161,137,120,100,70,64],"timestamp_mouse":[10,48,49,68,90,110,130,148,170,190,208,229,250,270,290,310,329,350,369,390,410,430,450,469,489,510,530,549,568,589,609,630,650,669,688,709,729,750,769,790,810,829,848,869,888],"xSR":741.5,"ySR":469.95,"xT1":424.9,"yT1":0,"xT2":1058.1,"yT2":0,"toosoon":0,"cond_shown":"Incongruent","ratio_trial":100,"L_num":4,"L_den":8,"R_num":8,"R_den":20,"correct_side":1,"subjID":"lauracamilamontenegro11","gender":"1","school":"4","age":"9"},{"start_time":1552308759771,"click_time":1552308761378,"finger_time":1552308760817,"fix_duration":311.29836088521176,"trial":20,"RT":1046,"MT":561,"sideResp":1,"stimulus":[],"xmouse":[815,815,815,815,815,815,815,815,815,815,815,815,815,815,815,815,815,815,814,813,813,813,813,813,813,813,813,813,813,813,813,813,813,813,813,813,813,813,813,813,813,813,813,813,813,813,813,812,807,796,783,747,727,712,704,701,699,697,695,689,677,646,635,626,623,621,615,611,607,601,594,569,552,537,523,514,504,504,504,504,501],"ymouse":[500,500,500,500,500,501,501,501,501,501,501,501,501,501,501,501,501,502,503,503,504,504,504,504,504,504,504,504,504,504,504,504,504,504,504,504,504,504,504,504,504,504,504,504,504,504,504,504,501,495,489,473,464,456,449,443,438,434,429,419,399,352,336,324,316,312,304,298,290,283,274,244,227,214,201,189,168,160,147,123,90],"timestamp_mouse":[9,26,56,65,87,107,127,146,165,186,207,226,247,265,287,306,326,346,366,386,406,425,447,466,487,507,526,546,566,586,607,627,647,667,687,706,726,747,766,785,806,827,847,866,886,907,926,947,966,987,1006,1027,1046,1067,1087,1106,1126,1146,1166,1187,1206,1227,1247,1267,1287,1306,1326,1346,1366,1386,1407,1426,1446,1466,1486,1507,1526,1547,1566,1587,1607],"xSR":741.5,"ySR":469.95,"xT1":424.9,"yT1":0,"xT2":1058.1,"yT2":0,"toosoon":0,"cond_shown":"Congruent","ratio_trial":300,"L_num":3,"L_den":12,"R_num":11,"R_den":20,"correct_side":2,"subjID":"lauracamilamontenegro11","gender":"1","school":"4","age":"9"},{"start_time":1552308764141,"click_time":1552308765557,"finger_time":1552308765297,"fix_duration":1442.5656053758532,"trial":21,"RT":1156,"MT":260,"sideResp":2,"stimulus":[],"xmouse":[789,789,789,789,790,790,790,791,791,791,791,791,791,791,791,791,791,791,791,791,791,791,791,791,791,791,791,791,791,791,791,791,791,791,791,791,791,791,791,791,791,791,791,791,791,791,791,791,791,791,791,791,791,791,791,795,799,850,884,929,970,1003,1047,1062,1080,1095,1110,1130,1132,1132,1133],"ymouse":[508,508,508,508,509,509,509,509,509,509,509,509,509,509,509,509,509,509,509,509,509,509,509,509,509,509,509,509,509,509,509,509,509,509,509,509,509,509,509,509,509,509,509,509,509,509,509,509,509,509,509,509,509,509,509,509,509,482,457,401,324,251,190,178,166,157,145,117,109,104,99],"timestamp_mouse":[16,45,56,77,96,116,136,156,176,197,217,237,257,276,296,316,337,357,377,397,416,436,457,476,496,515,537,556,576,597,617,636,657,675,697,716,736,756,775,797,817,837,856,876,895,917,937,956,976,997,1017,1036,1056,1076,1097,1116,1137,1156,1177,1196,1216,1236,1256,1276,1296,1316,1336,1355,1377,1397,1416],"xSR":741.5,"ySR":469.95,"xT1":424.9,"yT1":0,"xT2":1058.1,"yT2":0,"toosoon":0,"cond_shown":"Congruent","ratio_trial":300,"L_num":9,"L_den":10,"R_num":3,"R_den":5,"correct_side":1,"subjID":"lauracamilamontenegro11","gender":"1","school":"4","age":"9"},{"start_time":1552308767136,"click_time":1552308769237,"finger_time":1552308768597,"fix_duration":437.5790723608122,"trial":22,"RT":1461,"MT":640,"sideResp":2,"stimulus":[],"xmouse":[795,795,795,796,796,796,796,796,796,796,798,798,798,798,798,799,799,799,799,799,800,800,800,800,800,800,800,800,800,800,800,800,800,800,801,801,801,801,801,801,801,801,801,801,801,801,801,801,802,802,802,802,802,802,802,802,802,802,802,801,800,800,800,800,800,800,800,800,800,800,799,797,792,750,731,716,711,710,710,710,710,710,710,710,710,710,710,710,710,719,736,757,777,814,826,835,845,858,907,946,991,1029,1063,1112,1124,1134],"ymouse":[527,527,527,527,527,527,527,527,527,527,527,527,527,527,527,527,527,527,525,525,524,524,524,524,524,524,524,523,523,523,523,523,523,523,522,522,522,522,522,522,522,522,522,522,522,522,522,521,518,517,515,514,512,511,511,510,510,510,509,509,508,507,507,507,507,507,507,507,507,507,506,504,501,467,448,433,427,426,426,426,426,426,426,426,426,426,426,426,426,432,441,452,460,474,477,479,480,480,450,412,349,283,217,127,106,91],"timestamp_mouse":[10,23,41,61,82,102,121,140,162,181,202,221,242,262,280,302,321,342,361,382,401,421,440,461,482,501,520,541,561,581,601,622,642,661,682,701,720,742,761,782,800,822,842,861,882,901,922,942,961,980,1002,1022,1041,1061,1081,1101,1121,1142,1161,1180,1201,1222,1241,1262,1281,1302,1321,1342,1362,1381,1401,1421,1441,1461,1481,1501,1522,1541,1561,1581,1602,1621,1642,1661,1680,1701,1722,1741,1761,1782,1801,1821,1841,1861,1881,1901,1921,1942,1961,1980,2001,2021,2041,2061,2082,2101],"xSR":741.5,"ySR":469.95,"xT1":424.9,"yT1":0,"xT2":1058.1,"yT2":0,"toosoon":0,"cond_shown":"Incongruent","ratio_trial":100,"L_num":9,"L_den":18,"R_num":6,"R_den":10,"correct_side":2,"subjID":"lauracamilamontenegro11","gender":"1","school":"4","age":"9"},{"start_time":1552308779630,"click_time":1552308781178,"finger_time":1552308780697,"fix_duration":1311.146185026536,"trial":23,"RT":1067,"MT":481,"sideResp":2,"stimulus":[],"xmouse":[793,793,793,793,793,793,793,793,793,793,793,793,793,793,793,793,793,793,793,793,793,793,793,793,793,793,793,793,793,793,793,793,793,793,793,793,793,793,793,793,793,793,793,793,793,793,793,793,793,800,807,829,838,907,932,947,956,960,964,965,966,968,971,1002,1016,1020,1021,1021,1025,1030,1035,1039,1042,1044,1044,1045,1057,1082],"ymouse":[532,532,532,532,532,532,532,532,532,532,532,532,532,532,532,532,532,532,532,532,532,532,532,532,532,532,532,532,532,532,532,532,532,532,532,532,532,532,532,532,532,532,532,532,532,532,532,532,532,526,521,498,485,379,319,289,265,250,233,228,224,218,207,155,137,131,130,130,125,119,113,110,108,108,108,108,103,83],"timestamp_mouse":[12,35,47,67,87,108,127,147,167,188,207,227,248,268,288,307,327,348,368,387,407,427,447,468,488,508,527,548,567,588,608,627,647,668,688,707,727,747,767,787,808,828,848,868,887,908,928,947,968,986,1008,1027,1047,1067,1087,1108,1126,1148,1168,1186,1207,1227,1247,1267,1288,1307,1328,1348,1367,1388,1407,1428,1447,1467,1487,1507,1528,1548],"xSR":741.5,"ySR":469.95,"xT1":424.9,"yT1":0,"xT2":1058.1,"yT2":0,"toosoon":0,"cond_shown":"Incongruent","ratio_trial":100,"L_num":6,"L_den":12,"R_num":3,"R_den":5,"correct_side":2,"subjID":"lauracamilamontenegro11","gender":"1","school":"4","age":"9"},{"start_time":1552308782630,"click_time":1552308784117,"finger_time":1552308783657,"fix_duration":250,"trial":24,"RT":1027,"MT":460,"sideResp":2,"stimulus":[],"xmouse":[820,820,821,821,821,821,821,821,821,821,821,821,821,821,821,819,818,817,808,805,802,799,797,797,797,796,795,793,793,793,793,793,793,793,793,793,793,793,793,793,793,793,793,793,793,793,793,793,796,804,816,833,867,924,949,977,993,1009,1025,1029,1030,1031,1031,1031,1031,1031,1031,1031,1031,1031,1032,1034,1038,1053,1084],"ymouse":[500,500,500,500,500,501,501,502,502,502,503,503,503,503,503,502,502,501,501,505,509,515,521,524,524,525,525,525,524,524,524,524,524,524,524,524,524,524,524,524,524,524,524,524,524,524,523,520,511,499,484,464,420,353,322,290,270,247,220,214,209,205,202,200,200,200,200,200,192,184,171,151,142,114,77],"timestamp_mouse":[7,28,51,67,88,107,127,147,168,187,207,227,247,268,287,307,327,348,367,388,407,428,447,468,487,508,528,548,567,587,608,628,647,668,687,708,728,747,767,788,807,828,848,867,888,908,928,947,967,987,1007,1026,1047,1067,1088,1107,1127,1147,1167,1197,1207,1228,1247,1267,1287,1306,1327,1347,1367,1387,1407,1428,1447,1467,1487],"xSR":741.5,"ySR":469.95,"xT1":424.9,"yT1":0,"xT2":1058.1,"yT2":0,"toosoon":0,"cond_shown":"Incongruent","ratio_trial":300,"L_num":13,"L_den":26,"R_num":12,"R_den":15,"correct_side":2,"subjID":"lauracamilamontenegro11","gender":"1","school":"4","age":"9"},{"start_time":1552308785208,"click_time":1552308797998,"finger_time":1552308797837,"fix_duration":250,"trial":25,"RT":12629,"MT":161,"sideResp":2,"stimulus":[],"xmouse":[788,788,788,788,788,788,787,786,786,786,786,786,786,786,788,788,788,788,788,788,788,788,788,788,788,788,788,788,788,788,788,788,788,788,788,788,788,788,788,788,788,788,788,788,788,788,788,788,788,788,788,788,788,788,788,788,788,788,788,788,788,788,788,788,788,788,788,788,788,788,788,788,788,788,788,788,788,788,788,788,788,788,788,788,788,788,788,788,788,788,788,788,788,788,788,788,788,788,788,788,788,788,788,788,788,788,788,788,788,788,788,788,788,788,788,788,788,788,788,788,788,788,788,788,788,788,788,788,788,788,788,788,788,788,788,788,788,788,788,788,788,788,788,788,788,788,789,789,792,792,792,792,792,792,792,792,792,792,792,792,792,792,792,792,791,791,791,791,791,791,790,790,790,790,790,790,789,789,789,789,789,789,789,789,789,789,789,789,789,789,789,789,789,789,789,789,789,789,789,789,789,789,789,789,789,789,789,789,789,789,789,789,789,789,789,789,789,789,789,789,789,789,789,789,789,789,789,789,789,789,789,789,789,789,789,789,789,789,789,789,789,789,789,789,789,789,789,789,789,789,789,789,789,789,789,789,789,789,789,789,789,789,789,789,789,789,789,789,789,789,789,789,789,789,789,789,789,789,789,789,789,789,789,789,789,789,789,789,789,789,790,790,791,791,792,792,792,792,792,793,794,794,794,794,794,795,795,795,795,795,795,795,795,795,795,795,795,795,795,795,795,795,795,795,795,795,795,795,795,795,795,795,795,795,797,797,797,798,798,798,798,798,798,798,798,798,798,798,798,798,798,798,798,798,798,798,798,798,798,798,798,798,798,798,798,798,798,798,798,798,798,798,798,798,798,798,798,798,798,798,798,798,798,798,798,798,798,798,798,798,798,798,798,798,798,798,798,798,798,798,798,798,798,798,798,798,798,798,798,798,798,798,798,798,798,798,798,798,798,798,798,798,798,798,798,798,798,798,798,798,798,798,798,798,798,798,798,798,798,798,798,798,798,798,799,799,799,799,799,799,799,799,799,799,799,799,799,799,799,799,799,799,799,799,799,799,799,799,799,799,799,799,799,799,799,799,799,799,799,799,799,799,799,799,799,799,799,799,799,799,799,799,799,799,799,799,800,800,800,800,800,800,800,800,800,800,800,800,800,800,800,800,800,800,801,801,801,801,801,801,801,801,801,801,801,801,801,801,801,801,801,801,801,801,801,801,801,801,801,801,801,801,801,801,801,801,801,801,801,801,801,801,802,804,811,813,814,815,816,817,817,817,817,817,817,817,817,815,814,810,807,805,802,802,802,802,802,802,802,802,801,801,801,801,801,801,801,801,801,801,801,801,801,801,801,801,801,801,801,801,801,801,801,801,801,801,801,801,801,801,800,799,798,797,797,797,797,797,797,797,797,797,797,797,797,797,797,797,797,808,825,847,873,903,985,1035,1077,1106,1117,1123],"ymouse":[501,501,501,501,501,501,504,509,512,513,513,513,513,512,508,508,508,508,508,508,508,508,508,508,508,508,508,508,508,508,508,508,508,508,508,508,508,508,508,508,508,508,508,508,508,508,508,508,508,508,508,508,508,508,508,508,508,508,508,508,508,508,508,508,508,508,508,508,508,508,508,508,508,508,508,508,508,508,508,508,508,508,508,508,508,508,508,508,508,508,508,508,508,508,508,508,508,508,508,508,508,508,508,508,508,508,508,508,508,508,508,508,508,508,508,508,508,508,508,508,508,508,508,508,508,508,508,508,508,508,508,508,508,508,508,508,508,508,508,508,508,508,508,508,508,508,506,502,497,493,492,492,492,492,492,492,492,492,492,492,492,492,492,492,494,494,495,495,495,496,496,496,496,496,496,497,498,498,498,498,498,498,498,498,498,498,498,498,498,498,498,498,498,498,498,498,498,498,498,498,498,498,498,498,498,498,498,498,498,498,498,498,498,498,498,498,498,498,498,498,498,498,498,498,498,498,498,498,498,498,498,498,498,498,498,498,498,498,498,498,498,498,498,498,498,498,498,498,498,498,498,498,498,498,498,498,498,498,498,498,498,498,498,498,498,498,498,498,498,498,498,498,498,498,498,498,498,498,498,498,498,498,498,498,498,498,498,498,498,498,497,497,495,494,493,493,493,492,492,492,491,490,489,489,489,489,489,489,488,488,488,488,488,488,488,488,488,488,488,488,488,488,488,488,488,488,488,488,488,488,488,488,488,488,486,486,486,485,485,485,485,485,485,485,485,485,485,485,485,485,485,485,485,485,485,485,485,485,485,485,485,485,485,485,485,485,485,485,485,485,485,485,485,485,485,485,485,485,485,485,485,485,485,485,485,485,485,485,485,485,485,485,485,485,485,485,485,485,485,485,485,485,485,485,485,485,485,485,485,485,485,485,485,485,485,485,485,485,485,485,485,485,485,485,485,485,485,485,485,485,485,485,485,485,485,484,483,482,482,482,481,481,481,481,480,480,479,479,479,479,479,479,479,479,479,479,479,479,479,479,479,479,479,479,479,479,479,479,479,479,479,479,479,479,479,479,479,479,479,479,479,479,479,479,479,479,479,479,479,479,479,479,479,479,479,479,477,477,476,476,476,476,476,476,476,476,476,476,476,476,476,476,476,476,475,475,475,475,475,475,475,475,475,475,475,475,475,475,475,475,475,475,475,475,475,475,475,475,475,475,475,475,475,475,475,475,475,475,475,475,475,475,475,475,477,478,479,479,481,486,488,489,490,490,492,494,497,501,504,512,515,519,523,524,524,524,524,524,524,524,525,525,525,525,525,524,524,524,524,524,524,524,524,524,524,524,524,524,524,524,524,524,524,524,524,524,524,524,524,524,522,522,521,519,519,519,519,519,519,519,519,519,519,519,519,519,519,519,513,491,471,447,421,390,272,216,168,126,102,74],"timestamp_mouse":[10,28,49,70,89,108,130,150,169,189,210,229,249,269,289,310,330,349,370,389,409,429,449,470,489,508,530,549,570,590,609,630,649,670,690,709,728,749,770,789,809,830,849,869,889,909,928,948,970,990,1009,1029,1049,1070,1089,1110,1130,1150,1168,1189,1209,1229,1250,1269,1289,1310,1329,1350,1369,1390,1409,1430,1449,1470,1490,1510,1529,1549,1569,1590,1610,1630,1648,1670,1690,1710,1729,1750,1769,1789,1809,1830,1849,1868,1889,1910,1930,1949,1970,1989,2010,2030,2049,2070,2089,2110,2130,2149,2170,2190,2210,2229,2249,2269,2289,2310,2330,2349,2369,2389,2408,2429,2450,2470,2489,2510,2530,2548,2570,2589,2610,2630,2650,2670,2690,2709,2729,2748,2769,2790,2810,2829,2848,2870,2890,2909,2929,2949,2969,2989,3009,3030,3050,3069,3090,3110,3130,3148,3170,3189,3209,3229,3250,3268,3289,3310,3330,3350,3370,3389,3409,3430,3449,3470,3489,3509,3530,3550,3570,3589,3610,3629,3649,3670,3690,3709,3730,3750,3769,3790,3809,3829,3849,3869,3890,3909,3930,3950,3970,3989,4009,4030,4048,4069,4089,4110,4128,4150,4170,4189,4210,4229,4249,4269,4289,4310,4329,4349,4369,4389,4409,4429,4449,4469,4489,4510,4529,4550,4570,4588,4608,4630,4649,4669,4689,4710,4729,4749,4770,4789,4810,4828,4850,4870,4889,4909,4929,4949,4968,4988,5010,5029,5050,5069,5089,5109,5130,5150,5169,5190,5210,5230,5249,5270,5289,5310,5330,5348,5370,5389,5410,5429,5450,5470,5490,5510,5529,5550,5569,5589,5610,5628,5650,5670,5689,5710,5730,5750,5769,5789,5810,5829,5850,5870,5889,5909,5930,5949,5969,5989,6009,6030,6049,6069,6089,6110,6129,6149,6169,6189,6210,6230,6249,6270,6289,6309,6330,6350,6369,6389,6410,6430,6450,6470,6489,6510,6529,6549,6568,6590,6609,6630,6650,6670,6690,6709,6728,6749,6770,6790,6809,6830,6850,6869,6889,6909,6930,6950,6970,6988,7009,7029,7050,7069,7089,7109,7130,7150,7170,7189,7210,7229,7250,7269,7289,7310,7328,7349,7370,7389,7409,7430,7449,7469,7490,7509,7530,7549,7569,7589,7609,7630,7650,7669,7689,7709,7730,7749,7770,7789,7810,7829,7849,7870,7890,7909,7928,7949,7970,7989,8009,8030,8049,8069,8089,8110,8129,8150,8170,8190,8210,8229,8250,8270,8290,8308,8330,8350,8369,8389,8410,8430,8449,8470,8488,8510,8530,8549,8569,8589,8610,8630,8648,8670,8689,8709,8728,8749,8770,8788,8809,8828,8850,8869,8889,8910,8929,8950,8969,8989,9009,9028,9050,9069,9089,9110,9129,9150,9170,9189,9209,9230,9248,9270,9289,9310,9329,9348,9369,9389,9408,9430,9450,9469,9490,9509,9529,9549,9569,9589,9609,9630,9650,9670,9689,9710,9728,9750,9769,9789,9810,9830,9849,9869,9889,9910,9930,9949,9969,9989,10009,10030,10050,10070,10090,10109,10130,10149,10168,10189,10210,10229,10249,10270,10288,10309,10329,10349,10370,10389,10409,10429,10449,10470,10489,10509,10529,10550,10569,10588,10610,10630,10649,10669,10690,10710,10729,10749,10770,10789,10809,10830,10850,10868,10889,10909,10930,10950,10969,10989,11010,11029,11050,11070,11089,11110,11129,11150,11169,11189,11210,11230,11250,11270,11290,11310,11329,11349,11369,11389,11409,11429,11449,11470,11488,11510,11530,11550,11569,11588,11609,11629,11650,11669,11690,11709,11730,11750,11769,11789,11810,11830,11849,11869,11889,11909,11929,11949,11970,11989,12009,12030,12050,12069,12088,12108,12130,12150,12170,12189,12209,12229,12249,12270,12290,12309,12330,12350,12369,12390,12409,12430,12449,12469,12489,12510,12529,12549,12569,12588,12610,12629,12650,12670,12689,12710,12729,12750,12770,12789],"xSR":741.5,"ySR":469.95,"xT1":424.9,"yT1":0,"xT2":1058.1,"yT2":0,"toosoon":0,"cond_shown":"Congruent","ratio_trial":100,"L_num":2,"L_den":5,"R_num":11,"R_den":22,"correct_side":2,"subjID":"lauracamilamontenegro11","gender":"1","school":"4","age":"9"},{"start_time":1552308799443,"click_time":1552308800678,"finger_time":1552308800097,"fix_duration":405.2144584672411,"trial":26,"RT":654,"MT":581,"sideResp":1,"stimulus":[],"xmouse":[789,789,789,789,789,789,789,789,789,789,789,789,789,789,789,789,789,789,790,790,791,791,793,793,793,793,793,793,793,793,789,784,765,755,747,743,738,728,719,706,692,676,633,620,607,595,583,557,546,534,522,521,520,520,520,520,520,520,520,519,519,517],"ymouse":[516,516,516,516,516,516,516,516,516,516,516,516,516,516,516,516,516,516,515,514,512,511,509,508,507,507,505,504,497,492,480,471,440,428,415,405,397,373,353,332,308,285,220,203,187,173,160,136,126,117,107,107,105,105,104,103,103,103,103,102,102,98],"timestamp_mouse":[13,39,54,75,95,114,134,155,175,195,215,234,255,275,295,315,335,355,374,395,415,435,454,475,494,515,534,554,574,594,614,634,654,675,694,715,734,754,774,794,814,835,854,875,894,914,934,954,974,994,1014,1035,1054,1075,1094,1114,1135,1154,1175,1194,1214,1234],"xSR":741.5,"ySR":469.95,"xT1":424.9,"yT1":0,"xT2":1058.1,"yT2":0,"toosoon":0,"cond_shown":"Incongruent","ratio_trial":200,"L_num":1,"L_den":3,"R_num":2,"R_den":15,"correct_side":1,"subjID":"lauracamilamontenegro11","gender":"1","school":"4","age":"9"},{"start_time":1552308802665,"click_time":1552308803898,"finger_time":1552308803457,"fix_duration":1125.4771899399752,"trial":27,"RT":792,"MT":441,"sideResp":2,"stimulus":[],"xmouse":[786,786,786,786,786,786,786,786,786,786,787,788,788,789,789,789,789,789,789,789,789,789,789,789,789,789,789,789,789,789,789,789,790,790,790,791,794,801,813,836,876,977,1005,1024,1037,1045,1051,1053,1055,1055,1056,1056,1056,1056,1056,1056,1056,1056,1056,1056,1056,1059],"ymouse":[508,508,508,508,508,508,508,508,508,508,507,507,505,505,505,505,505,505,505,505,505,505,505,505,505,505,505,505,505,505,505,505,504,504,504,503,500,494,479,446,382,206,160,126,105,88,71,67,62,61,60,60,60,60,60,60,60,60,60,60,59,58],"timestamp_mouse":[13,39,52,72,92,112,131,151,173,192,213,232,252,272,292,313,331,351,373,392,413,433,453,471,493,512,532,553,572,593,613,632,652,673,693,712,732,752,772,792,812,832,853,872,893,912,932,951,972,993,1012,1032,1053,1073,1091,1111,1132,1151,1173,1192,1213,1233],"xSR":741.5,"ySR":469.95,"xT1":424.9,"yT1":0,"xT2":1058.1,"yT2":0,"toosoon":0,"cond_shown":"Congruent","ratio_trial":200,"L_num":21,"L_den":30,"R_num":2,"R_den":4,"correct_side":1,"subjID":"lauracamilamontenegro11","gender":"1","school":"4","age":"9"},{"start_time":1552308806081,"click_time":1552308807697,"finger_time":1552308806897,"fix_duration":1142.8903831579078,"trial":28,"RT":816,"MT":800,"sideResp":2,"stimulus":[],"xmouse":[791,791,791,791,791,791,791,791,791,791,791,791,791,791,791,791,791,791,791,791,791,791,791,791,791,791,791,791,791,791,791,791,791,791,791,791,791,791,787,785,778,775,773,772,771,771,771,771,771,771,771,771,771,771,771,771,771,771,771,771,771,771,771,773,777,784,787,790,795,798,801,802,803,806,815,845,879,911,952,1005,1077],"ymouse":[501,501,501,501,501,501,501,501,501,501,501,501,501,501,501,501,501,501,501,501,501,501,501,501,501,501,501,501,501,501,501,501,501,501,501,501,497,491,482,479,465,459,453,451,449,448,448,448,448,448,448,448,448,448,448,448,448,448,448,448,448,448,450,452,458,470,475,483,491,495,501,502,502,502,502,478,442,393,316,218,7],"timestamp_mouse":[17,41,56,76,96,116,135,157,175,196,216,236,257,277,297,317,337,356,376,397,417,437,457,476,497,517,537,556,577,597,616,637,655,677,697,715,737,756,777,797,816,837,856,876,896,916,936,956,976,997,1016,1036,1056,1076,1096,1116,1136,1156,1176,1197,1217,1236,1256,1276,1297,1315,1336,1357,1376,1396,1416,1435,1457,1477,1497,1515,1536,1556,1576,1597,1616],"xSR":741.5,"ySR":469.95,"xT1":424.9,"yT1":0,"xT2":1058.1,"yT2":0,"toosoon":0,"cond_shown":"Congruent","ratio_trial":200,"L_num":13,"L_den":26,"R_num":14,"R_den":20,"correct_side":2,"subjID":"lauracamilamontenegro11","gender":"1","school":"4","age":"9"},{"start_time":1552308810710,"click_time":1552308812077,"finger_time":1552308811958,"fix_duration":810.3433614589055,"trial":29,"RT":1248,"MT":119,"sideResp":2,"stimulus":[],"xmouse":[789,789,789,789,789,790,790,790,790,793,797,801,805,809,814,816,817,818,819,819,819,820,820,820,820,820,820,820,820,820,820,820,820,820,820,820,820,821,822,824,824,824,824,824,824,825,825,826,826,826,826,827,827,827,827,827,827,827,827,829,832,839,853,868,938,980,1015,1043,1072],"ymouse":[489,489,489,489,489,490,490,490,490,490,490,490,490,490,490,490,490,490,490,490,490,490,490,490,490,490,490,490,490,490,490,490,490,490,490,490,490,490,489,488,488,488,488,488,488,487,487,486,486,486,486,485,485,485,485,485,485,485,485,483,480,475,464,446,344,280,218,134,56],"timestamp_mouse":[11,40,47,68,90,107,128,148,167,187,208,227,247,267,288,308,327,346,368,388,408,427,448,467,488,508,527,547,566,587,608,627,646,667,688,707,727,747,767,787,807,827,848,868,887,908,928,947,968,987,1007,1027,1047,1066,1087,1107,1128,1147,1167,1187,1207,1227,1248,1267,1288,1307,1327,1347,1366],"xSR":741.5,"ySR":469.95,"xT1":424.9,"yT1":0,"xT2":1058.1,"yT2":0,"toosoon":0,"cond_shown":"Incongruent","ratio_trial":300,"L_num":4,"L_den":20,"R_num":2,"R_den":4,"correct_side":2,"subjID":"lauracamilamontenegro11","gender":"1","school":"4","age":"9"},{"start_time":1552308813740,"click_time":1552308816458,"finger_time":1552308813778,"fix_duration":361.14378987466654,"trial":30,"RT":38,"MT":2680,"sideResp":1,"stimulus":[],"xmouse":[786,777,762,759,757,757,757,757,757,757,757,757,757,758,760,760,762,765,766,769,771,774,775,775,775,775,775,775,775,775,775,775,775,775,775,776,777,777,777,777,777,777,777,777,777,777,777,778,778,778,779,779,779,779,779,779,779,780,781,782,782,782,783,783,783,783,783,783,783,783,783,783,783,783,783,783,783,783,783,783,783,783,783,783,783,783,784,785,785,785,785,785,785,785,785,785,785,785,785,785,785,785,785,785,786,786,786,786,786,786,786,786,786,786,786,786,777,739,701,663,630,599,579,576,575,574,568,559,555,554,551,549,541,538,532,523],"ymouse":[562,581,608,616,620,621,621,621,621,621,621,621,621,620,615,614,610,600,597,589,580,574,550,538,535,534,534,534,534,534,534,534,534,534,534,534,535,537,537,537,537,537,537,537,537,537,537,537,537,537,537,537,537,537,537,537,537,537,537,537,537,537,537,537,537,537,537,537,537,537,537,537,537,537,537,537,537,537,537,537,537,537,537,537,537,537,536,535,535,535,535,535,535,535,535,535,535,535,535,535,535,535,535,534,533,533,533,533,533,533,533,533,533,533,530,526,513,460,405,348,294,255,217,213,208,203,191,169,161,156,151,142,125,120,110,99],"timestamp_mouse":[17,38,58,77,97,117,138,157,177,197,217,238,257,278,297,317,338,357,378,397,417,438,457,477,497,518,538,556,577,598,617,638,657,678,697,716,737,757,777,797,818,838,857,877,898,918,938,957,977,998,1017,1037,1058,1077,1098,1118,1138,1157,1177,1197,1217,1237,1257,1277,1298,1317,1337,1357,1378,1397,1417,1438,1457,1478,1498,1517,1537,1557,1578,1596,1617,1637,1657,1677,1698,1718,1737,1758,1776,1796,1818,1837,1857,1878,1898,1918,1938,1958,1977,1997,2018,2038,2058,2077,2098,2116,2137,2158,2178,2197,2218,2237,2258,2278,2297,2318,2338,2357,2377,2397,2418,2437,2458,2477,2497,2516,2537,2557,2577,2597,2618,2638,2657,2677,2698,2718],"xSR":741.5,"ySR":469.95,"xT1":424.9,"yT1":0,"xT2":1058.1,"yT2":0,"toosoon":0,"cond_shown":"Congruent","ratio_trial":300,"L_num":8,"L_den":16,"R_num":1,"R_den":5,"correct_side":1,"subjID":"lauracamilamontenegro11","gender":"1","school":"4","age":"9"},{"start_time":1552308817775,"click_time":1552308818998,"finger_time":1552308818558,"fix_duration":535.4695780343786,"trial":31,"RT":783,"MT":440,"sideResp":2,"stimulus":[],"xmouse":[772,772,772,772,772,772,772,772,772,772,772,772,772,772,772,772,772,772,772,772,772,772,772,772,772,772,772,772,772,772,772,772,772,772,772,772,774,785,795,818,840,873,887,899,912,924,941,944,948,949,954,959,963,965,970,980,1002,1032,1043,1049,1055,1059],"ymouse":[514,514,514,514,514,514,514,514,514,514,514,514,514,514,514,514,514,514,514,514,514,514,514,514,514,514,514,514,514,514,514,514,514,514,514,514,514,504,489,457,415,353,322,292,268,250,217,208,200,193,185,172,168,165,159,149,134,116,109,106,101,96],"timestamp_mouse":[12,37,43,63,82,103,122,142,162,183,201,222,242,263,282,302,322,343,361,381,403,422,442,462,483,502,522,543,562,582,603,622,642,663,682,703,721,743,763,783,803,822,843,863,881,902,922,942,962,982,1002,1022,1042,1062,1082,1103,1122,1143,1162,1183,1201,1222],"xSR":741.5,"ySR":469.95,"xT1":424.9,"yT1":0,"xT2":1058.1,"yT2":0,"toosoon":0,"cond_shown":"Incongruent","ratio_trial":200,"L_num":11,"L_den":20,"R_num":3,"R_den":4,"correct_side":2,"subjID":"lauracamilamontenegro11","gender":"1","school":"4","age":"9"},{"start_time":1552308821250,"click_time":1552308828456,"finger_time":1552308822176,"fix_duration":1251.783853899544,"trial":32,"RT":926,"MT":6280,"sideResp":1,"stimulus":[],"xmouse":[789,789,789,789,789,789,789,789,789,789,789,789,789,789,789,789,789,789,789,789,789,789,790,791,791,792,792,792,792,792,792,792,792,792,792,792,792,792,792,792,792,792,792,790,780,770,732,651,620,608,606,605,604,604,604,604,604,604,601,597,597,597,597,597,597,597,597,597,597,597,597,597,597,597,597,597,597,597,597,597,597,597,597,597,597,597,597,597,597,597,597,597,597,597,597,597,597,597,597,597,597,597,597,597,597,597,597,597,597,597,597,597,597,597,597,597,597,597,597,597,597,597,597,597,597,597,597,597,597,597,597,597,597,597,597,597,597,597,597,597,597,597,597,597,597,597,597,597,597,597,597,597,597,597,597,597,597,597,597,597,597,597,597,597,597,597,597,597,597,597,597,597,597,597,597,597,597,597,597,597,597,597,597,597,597,597,597,597,597,597,597,597,597,597,597,597,597,597,597,597,597,597,597,597,597,597,597,597,597,597,597,597,597,597,597,597,597,597,597,597,597,597,597,597,597,597,597,597,597,597,597,597,597,597,597,597,597,597,597,597,597,597,597,597,597,597,597,597,597,597,597,597,597,597,597,597,597,597,597,597,597,597,597,597,597,597,597,597,597,597,597,597,597,597,597,597,597,597,597,597,597,597,597,597,597,597,597,597,597,597,597,597,597,597,597,597,597,597,597,597,597,597,597,597,597,597,597,597,597,596,594,588,585,585,585,585,584,579,573,573,573,573,573,573,572,572,577,607,637,672,704,721,739,745,751,758,764,771,772,773,774,776,776,775,775,774,772,770,769,769,769,766,749,734,715,691,669,605,558,502,447],"ymouse":[540,540,540,540,540,540,540,540,540,540,540,540,540,540,540,540,540,540,540,538,538,538,537,536,534,534,533,533,533,533,533,533,533,533,533,533,533,533,533,533,533,533,533,532,526,502,447,345,310,299,299,299,299,299,299,299,299,299,293,289,289,289,289,289,289,289,289,289,289,289,289,289,289,289,289,289,289,289,289,289,289,289,289,289,289,289,289,289,289,289,289,289,289,289,289,289,289,289,289,289,289,289,289,289,289,289,289,289,289,289,289,289,289,289,289,289,289,289,289,289,289,289,289,289,289,289,289,289,289,289,289,289,289,289,289,289,289,289,289,289,289,289,289,289,289,289,289,289,289,289,289,289,289,289,289,289,289,289,289,289,289,289,289,289,289,289,289,289,289,289,289,289,289,289,289,289,289,289,289,289,289,289,289,289,289,289,289,289,289,289,289,289,289,289,289,289,289,289,289,289,289,289,289,289,289,289,289,289,289,289,289,289,289,289,289,289,289,289,289,289,289,289,289,289,289,289,289,289,289,289,289,289,289,289,289,289,289,289,289,289,289,289,289,289,289,289,289,289,289,289,289,289,289,289,289,289,289,289,289,289,289,289,289,289,289,289,289,289,289,289,289,289,289,289,289,289,289,289,289,289,289,289,289,289,289,289,289,289,289,289,289,289,289,289,289,289,289,289,289,289,289,289,289,289,289,289,289,289,289,288,288,299,334,334,334,334,335,296,277,274,274,274,274,274,274,278,293,327,349,370,390,402,418,425,432,439,446,457,460,464,471,482,499,501,504,505,508,512,513,513,513,511,489,469,440,397,355,243,180,116,63],"timestamp_mouse":[10,38,47,66,86,107,127,146,166,186,206,227,246,266,286,306,327,346,367,386,406,426,446,466,487,507,527,547,566,586,606,627,646,668,686,707,726,747,767,787,807,827,846,867,887,906,926,946,966,986,1007,1026,1046,1067,1086,1107,1127,1146,1167,1187,1206,1226,1246,1266,1287,1307,1326,1346,1368,1387,1406,1427,1446,1466,1486,1506,1527,1546,1567,1586,1607,1626,1646,1666,1687,1706,1728,1746,1767,1786,1806,1827,1847,1867,1887,1907,1927,1947,1966,1987,2006,2026,2046,2066,2086,2107,2126,2147,2167,2186,2206,2226,2247,2267,2286,2306,2326,2346,2366,2386,2407,2426,2446,2467,2486,2507,2527,2547,2567,2586,2606,2627,2647,2666,2687,2707,2726,2747,2767,2788,2807,2827,2847,2866,2886,2907,2927,2947,2967,2986,3006,3027,3047,3067,3087,3108,3126,3146,3166,3187,3207,3226,3247,3268,3287,3307,3327,3346,3366,3386,3407,3426,3447,3466,3488,3507,3527,3546,3567,3586,3606,3627,3647,3667,3686,3707,3726,3746,3767,3787,3808,3827,3846,3867,3887,3907,3927,3947,3966,3986,4007,4027,4046,4066,4087,4107,4126,4146,4167,4187,4206,4227,4247,4267,4287,4306,4327,4347,4367,4386,4406,4427,4446,4467,4486,4507,4526,4547,4567,4587,4606,4628,4646,4667,4687,4707,4727,4746,4767,4787,4806,4827,4847,4867,4886,4907,4927,4947,4966,4986,5006,5027,5046,5067,5087,5107,5126,5146,5168,5186,5207,5226,5246,5267,5287,5307,5326,5346,5367,5387,5407,5427,5446,5467,5487,5506,5526,5547,5566,5586,5607,5627,5646,5667,5686,5706,5727,5746,5767,5786,5807,5827,5847,5868,5887,5906,5926,5947,5967,5987,6007,6027,6046,6067,6087,6106,6128,6147,6167,6186,6207,6227,6246,6266,6287,6306,6327,6347,6368,6388,6407,6427,6446,6466,6487,6507,6527,6546,6566,6586,6606,6627,6646,6666,6686,6707,6726,6746,6766,6786,6806,6827,6846,6867,6887,6907,6926,6946,6966,6986,7006,7027,7046,7066,7086,7107,7127,7147,7166,7187,7206],"xSR":741.5,"ySR":469.95,"xT1":424.9,"yT1":0,"xT2":1058.1,"yT2":0,"toosoon":0,"cond_shown":"Congruent","ratio_trial":300,"L_num":1,"L_den":5,"R_num":6,"R_den":12,"correct_side":2,"subjID":"lauracamilamontenegro11","gender":"1","school":"4","age":"9"},{"start_time":1552308829708,"click_time":1552308831216,"finger_time":1552308830377,"fix_duration":250,"trial":33,"RT":669,"MT":839,"sideResp":1,"stimulus":[],"xmouse":[784,784,784,786,786,786,786,786,786,786,786,786,786,786,786,786,786,786,786,786,786,786,786,786,786,786,787,787,787,788,789,790,793,795,796,796,796,796,796,796,796,796,796,797,797,798,799,799,800,800,800,800,800,800,800,800,800,800,800,800,800,800,800,800,793,781,765,734,726,689,679,667,644,612,537,516],"ymouse":[497,497,497,497,497,497,497,497,497,497,497,497,497,497,497,497,497,497,497,497,497,497,497,496,495,493,492,491,489,486,483,478,473,469,466,465,465,465,465,465,465,465,465,464,463,462,461,460,460,460,460,460,460,460,460,460,460,460,460,460,460,460,459,458,446,433,416,390,382,343,325,296,242,174,43,18],"timestamp_mouse":[13,39,49,69,89,108,128,148,169,188,208,228,249,269,289,309,328,348,369,389,408,428,448,468,488,508,529,549,568,588,608,628,648,669,688,709,729,749,769,789,809,829,848,870,888,909,928,948,969,989,1008,1028,1048,1069,1088,1109,1128,1149,1169,1189,1208,1229,1248,1269,1288,1308,1328,1349,1369,1388,1409,1428,1449,1469,1488,1508],"xSR":741.5,"ySR":469.95,"xT1":424.9,"yT1":0,"xT2":1058.1,"yT2":0,"toosoon":0,"cond_shown":"Incongruent","ratio_trial":200,"L_num":4,"L_den":30,"R_num":1,"R_den":3,"correct_side":2,"subjID":"lauracamilamontenegro11","gender":"1","school":"4","age":"9"},{"start_time":1552308832889,"click_time":1552308833916,"finger_time":1552308833596,"fix_duration":429.98539284436487,"trial":34,"RT":707,"MT":320,"sideResp":1,"stimulus":[],"xmouse":[774,774,775,775,775,775,775,775,775,775,775,775,775,775,775,775,775,775,777,780,787,789,791,792,792,792,792,792,792,792,792,792,790,785,776,753,747,743,741,740,713,686,659,637,612,583,573,564,552,537,488,475],"ymouse":[511,511,510,510,510,510,510,510,510,510,510,510,510,510,510,510,510,510,507,504,498,495,492,492,492,492,492,492,492,492,490,488,483,478,472,453,442,431,423,412,359,327,297,273,241,201,187,173,158,145,108,98],"timestamp_mouse":[8,34,48,67,88,108,129,148,169,188,207,228,248,268,288,308,328,347,368,387,407,427,447,467,489,507,527,547,568,587,607,628,648,668,688,707,728,748,769,788,807,828,847,868,888,907,927,947,967,987,1008,1027],"xSR":741.5,"ySR":469.95,"xT1":424.9,"yT1":0,"xT2":1058.1,"yT2":0,"toosoon":0,"cond_shown":"Incongruent","ratio_trial":300,"L_num":7,"L_den":10,"R_num":8,"R_den":20,"correct_side":1,"subjID":"lauracamilamontenegro11","gender":"1","school":"4","age":"9"},{"start_time":1552308834988,"click_time":1552308837137,"finger_time":1552308836577,"fix_duration":250,"trial":35,"RT":1589,"MT":560,"sideResp":2,"stimulus":[],"xmouse":[790,790,790,790,790,790,790,790,790,790,791,792,792,792,792,792,792,792,792,792,793,794,795,795,795,796,796,796,796,796,796,796,796,796,796,796,796,796,796,796,796,796,796,796,796,796,796,796,796,796,796,796,796,796,796,796,796,796,796,796,796,796,796,796,796,796,796,796,796,796,796,796,796,796,796,801,807,817,831,848,881,894,904,912,922,931,938,945,951,954,954,954,955,961,966,990,997,1004,1009,1016,1053,1073,1092,1101,1101,1108,1118,1135],"ymouse":[515,515,515,515,515,515,515,515,515,515,514,513,513,513,513,513,513,513,513,513,513,512,512,512,511,510,510,510,510,510,510,510,510,510,510,510,510,510,510,510,510,510,510,510,510,510,510,510,510,510,510,510,510,510,510,510,510,510,510,510,510,510,510,510,510,510,510,510,510,510,510,510,510,510,510,506,502,494,484,471,435,416,398,381,358,322,299,278,255,232,204,200,196,184,178,158,156,155,155,155,162,166,168,169,169,143,121,92],"timestamp_mouse":[9,41,49,69,89,109,128,148,168,188,208,228,248,269,288,309,328,348,368,389,409,428,449,469,489,508,529,549,569,589,609,629,648,669,688,708,729,748,769,789,808,830,849,869,888,908,928,949,969,988,1008,1028,1049,1068,1088,1108,1128,1149,1169,1188,1209,1229,1248,1269,1289,1308,1328,1349,1369,1389,1408,1429,1449,1468,1488,1508,1528,1548,1568,1589,1608,1628,1648,1668,1688,1708,1729,1749,1768,1788,1808,1830,1848,1869,1888,1908,1928,1949,1968,1988,2008,2028,2049,2069,2089,2108,2129,2149],"xSR":741.5,"ySR":469.95,"xT1":424.9,"yT1":0,"xT2":1058.1,"yT2":0,"toosoon":0,"cond_shown":"Congruent","ratio_trial":200,"L_num":3,"L_den":10,"R_num":14,"R_den":28,"correct_side":2,"subjID":"lauracamilamontenegro11","gender":"1","school":"4","age":"9"},{"start_time":1552308838738,"click_time":1552308840436,"finger_time":1552308840296,"fix_duration":519.9827029681635,"trial":36,"RT":1558,"MT":140,"sideResp":2,"stimulus":[],"xmouse":[780,780,780,780,780,780,780,780,780,780,780,780,780,780,780,780,780,782,782,782,782,782,782,782,782,782,782,782,782,782,782,782,782,782,782,782,782,782,782,782,782,782,782,782,782,782,782,782,782,782,782,782,782,782,782,782,782,782,782,782,782,782,782,782,782,782,782,782,782,782,782,782,782,783,784,787,794,830,853,887,954,1004,1066,1074,1074],"ymouse":[507,507,507,507,507,507,507,507,507,507,507,507,507,507,507,507,507,507,507,507,507,507,507,507,507,507,507,507,507,507,507,507,507,507,507,507,507,507,507,507,507,507,507,507,507,507,507,507,507,507,507,507,507,507,507,507,507,507,507,507,507,507,507,507,507,507,507,507,507,507,507,507,507,507,505,500,490,445,416,378,295,224,121,101,93],"timestamp_mouse":[18,38,58,79,99,120,139,160,178,199,219,238,259,279,298,318,339,359,379,399,418,438,459,478,499,519,539,559,578,598,618,639,659,679,699,719,738,759,778,798,818,838,858,878,898,919,939,959,979,998,1019,1039,1058,1079,1098,1118,1139,1158,1178,1199,1219,1238,1258,1279,1298,1318,1338,1358,1379,1399,1418,1438,1459,1478,1499,1520,1538,1558,1578,1598,1619,1639,1659,1679,1698],"xSR":741.5,"ySR":469.95,"xT1":424.9,"yT1":0,"xT2":1058.1,"yT2":0,"toosoon":0,"cond_shown":"Congruent","ratio_trial":300,"L_num":2,"L_den":10,"R_num":12,"R_den":24,"correct_side":2,"subjID":"lauracamilamontenegro11","gender":"1","school":"4","age":"9"},{"start_time":1552308841668,"click_time":1552308843238,"finger_time":1552308842576,"fix_duration":250,"trial":37,"RT":908,"MT":662,"sideResp":2,"stimulus":[],"xmouse":[792,792,792,792,792,792,792,792,792,792,792,792,792,791,791,791,791,791,791,791,791,791,791,791,791,791,791,791,791,791,791,791,791,791,791,791,791,791,791,791,791,793,798,806,815,823,837,843,849,857,870,889,899,910,922,933,941,958,964,970,980,993,998,1003,1011,1022,1041,1048,1056,1062,1065,1065,1065,1065,1066,1067,1069,1069,1072],"ymouse":[489,489,491,493,494,495,497,498,499,501,503,507,508,509,510,510,510,510,510,510,510,511,512,512,513,514,515,515,515,515,515,515,515,515,515,515,515,515,515,515,515,509,502,488,475,463,443,434,425,414,396,366,348,330,311,294,279,248,234,220,203,182,173,166,160,155,147,141,131,124,120,118,118,116,113,111,105,100,95],"timestamp_mouse":[19,28,48,68,89,108,128,150,168,188,208,228,248,268,288,308,328,348,368,388,408,428,449,469,489,508,528,548,568,589,608,628,649,668,689,708,728,749,768,788,809,828,849,869,888,908,928,948,969,989,1009,1028,1048,1069,1089,1109,1128,1149,1169,1188,1209,1228,1249,1268,1289,1309,1328,1348,1369,1389,1409,1428,1448,1469,1488,1509,1528,1549,1569],"xSR":741.5,"ySR":469.95,"xT1":424.9,"yT1":0,"xT2":1058.1,"yT2":0,"toosoon":0,"cond_shown":"Congruent","ratio_trial":100,"L_num":9,"L_den":15,"R_num":8,"R_den":16,"correct_side":1,"subjID":"lauracamilamontenegro11","gender":"1","school":"4","age":"9"},{"start_time":1552308852140,"click_time":1552308853636,"finger_time":1552308852917,"fix_duration":942.454927104274,"trial":38,"RT":777,"MT":719,"sideResp":1,"stimulus":[],"xmouse":[765,765,765,765,765,765,765,765,766,766,766,766,766,766,766,766,766,766,766,766,768,768,768,769,769,769,769,769,769,769,769,769,769,769,769,769,770,779,782,784,785,786,786,786,786,786,786,786,786,786,786,786,786,786,786,786,786,786,780,773,769,769,769,769,769,769,769,768,760,745,711,664,569,530,498],"ymouse":[484,484,484,484,484,484,484,484,484,484,484,484,484,484,484,484,484,484,484,484,483,483,483,482,482,482,482,482,482,482,482,482,482,482,482,482,481,472,468,465,464,464,463,463,463,463,463,463,463,463,463,463,463,463,463,463,463,462,460,460,458,458,458,458,458,458,458,457,445,420,371,310,167,105,52],"timestamp_mouse":[16,39,56,76,98,116,136,157,177,196,216,237,256,276,296,316,337,356,377,397,417,437,456,477,497,516,537,556,576,598,616,636,656,676,696,716,736,756,777,796,817,837,856,876,896,917,936,957,976,997,1017,1038,1056,1076,1097,1117,1136,1157,1176,1197,1217,1236,1257,1276,1297,1316,1337,1356,1376,1396,1416,1436,1456,1477,1496],"xSR":741.5,"ySR":469.95,"xT1":424.9,"yT1":0,"xT2":1058.1,"yT2":0,"toosoon":0,"cond_shown":"Incongruent","ratio_trial":100,"L_num":1,"L_den":2,"R_num":8,"R_den":20,"correct_side":1,"subjID":"lauracamilamontenegro11","gender":"1","school":"4","age":"9"},{"start_time":1552308881272,"click_time":1552308882855,"finger_time":1552308882756,"fix_duration":1395.826727658383,"trial":39,"RT":1484,"MT":99,"sideResp":1,"stimulus":[],"xmouse":[765,765,765,765,765,765,765,765,765,765,765,765,765,765,765,765,765,765,765,765,765,765,765,765,765,765,765,765,765,765,765,765,765,765,765,765,765,765,765,765,765,765,765,765,765,765,765,765,765,765,765,765,765,765,765,765,765,765,765,765,765,765,765,765,765,765,765,765,765,765,765,765,765,753,738,712,680,649,595,497],"ymouse":[525,525,525,525,525,525,525,525,525,525,525,525,525,525,525,525,525,525,525,525,525,525,525,525,525,525,525,525,525,525,525,525,525,525,525,525,525,525,525,525,525,525,525,525,525,525,525,525,525,525,525,525,525,525,525,525,525,525,525,525,525,525,525,525,525,525,525,525,525,525,525,525,525,513,501,475,366,271,160,6],"timestamp_mouse":[10,24,43,63,85,104,123,143,163,185,205,224,244,263,283,305,325,345,364,384,404,424,444,464,483,504,525,543,564,585,604,623,643,665,685,703,724,743,763,784,804,823,843,863,885,904,923,944,963,985,1003,1024,1044,1063,1083,1104,1125,1144,1163,1184,1203,1224,1245,1264,1283,1303,1323,1345,1364,1383,1403,1424,1444,1464,1484,1505,1523,1544,1563,1583],"xSR":741.5,"ySR":469.95,"xT1":424.9,"yT1":0,"xT2":1058.1,"yT2":0,"toosoon":0,"cond_shown":"Congruent","ratio_trial":200,"L_num":11,"L_den":22,"R_num":3,"R_den":10,"correct_side":1,"subjID":"lauracamilamontenegro11","gender":"1","school":"4","age":"9"},{"start_time":1552308885315,"click_time":1552308887395,"finger_time":1552308886797,"fix_duration":1238.6921552448646,"trial":40,"RT":1482,"MT":598,"sideResp":1,"stimulus":[],"xmouse":[791,791,791,791,791,791,791,791,791,791,791,791,791,791,791,791,791,791,791,791,791,791,791,791,791,791,791,791,791,791,791,791,791,791,791,791,791,791,791,791,791,791,791,791,791,791,791,791,791,791,791,791,791,791,791,791,791,791,791,791,791,791,791,791,791,791,791,791,791,791,791,791,790,786,762,754,744,736,733,723,708,702,696,691,679,674,669,666,659,644,640,635,627,615,585,568,553,544,535,523,516,509,506,502,496],"ymouse":[488,488,488,488,488,488,488,488,488,488,488,488,488,488,488,488,488,488,488,488,488,488,488,488,488,488,488,488,488,488,488,488,488,488,488,488,488,488,488,488,488,488,488,488,488,488,488,488,488,488,488,488,488,488,488,488,488,488,488,488,488,488,488,488,488,488,488,488,488,488,488,488,488,483,468,463,458,447,443,422,395,382,366,348,314,294,276,259,238,200,195,193,190,187,178,173,169,165,161,154,147,140,132,118,75],"timestamp_mouse":[13,22,46,60,80,100,121,141,160,181,200,220,240,261,281,300,320,341,360,380,401,421,440,460,481,501,521,542,561,581,600,621,641,662,681,701,720,742,761,780,800,822,842,860,881,900,921,942,961,981,1000,1020,1042,1061,1080,1101,1120,1140,1161,1182,1201,1221,1240,1262,1281,1302,1321,1341,1360,1380,1401,1421,1442,1461,1482,1501,1522,1541,1562,1580,1601,1621,1640,1661,1680,1700,1720,1741,1761,1780,1802,1821,1840,1862,1880,1901,1920,1940,1961,1980,2001,2022,2042,2061,2080],"xSR":741.5,"ySR":469.95,"xT1":424.9,"yT1":0,"xT2":1058.1,"yT2":0,"toosoon":0,"cond_shown":"Congruent","ratio_trial":200,"L_num":16,"L_den":20,"R_num":12,"R_den":20,"correct_side":1,"subjID":"lauracamilamontenegro11","gender":"1","school":"4","age":"9"},{"start_time":1552308888780,"click_time":1552308890536,"finger_time":1552308890176,"fix_duration":522.647450975783,"trial":41,"RT":1396,"MT":360,"sideResp":2,"stimulus":[],"xmouse":[810,810,810,810,810,810,810,810,810,810,810,810,810,810,810,810,810,810,810,810,810,810,810,810,810,810,810,810,810,810,810,810,810,810,810,810,810,810,810,810,810,810,810,810,810,810,810,810,810,810,810,810,810,810,810,810,810,810,810,810,810,810,810,810,810,810,810,814,823,842,911,948,983,1008,1020,1020,1020,1023,1024,1028,1036,1039,1043,1045,1048,1052,1056,1059],"ymouse":[523,523,523,523,523,523,523,523,523,523,523,523,523,523,523,523,523,523,523,523,523,523,523,523,523,523,523,523,523,523,523,523,523,523,523,523,523,523,523,523,523,523,523,523,523,523,523,523,523,523,523,523,523,523,523,523,523,523,523,523,523,523,523,523,523,523,523,518,503,471,320,241,170,130,115,114,114,111,108,102,85,79,73,68,63,59,55,54],"timestamp_mouse":[16,50,56,76,96,116,135,156,176,196,216,235,256,276,296,315,335,356,376,396,415,436,455,477,496,515,536,557,576,595,617,635,657,677,696,716,736,755,776,795,816,836,857,876,895,915,935,955,976,996,1017,1037,1056,1075,1096,1116,1136,1155,1176,1195,1216,1235,1256,1276,1295,1316,1336,1356,1376,1396,1415,1435,1456,1475,1495,1515,1536,1557,1576,1596,1616,1636,1656,1676,1695,1715,1735,1756],"xSR":741.5,"ySR":469.95,"xT1":424.9,"yT1":0,"xT2":1058.1,"yT2":0,"toosoon":0,"cond_shown":"Congruent","ratio_trial":100,"L_num":12,"L_den":30,"R_num":13,"R_den":26,"correct_side":2,"subjID":"lauracamilamontenegro11","gender":"1","school":"4","age":"9"},{"start_time":1552308900920,"click_time":1552308902457,"finger_time":1552308902015,"fix_duration":1103.7162377066809,"trial":42,"RT":1095,"MT":442,"sideResp":1,"stimulus":[],"xmouse":[806,806,806,806,806,806,806,806,806,806,806,806,806,806,806,806,806,806,806,806,806,806,806,806,806,806,806,806,806,806,806,806,806,806,806,806,806,806,806,806,806,806,806,806,806,806,806,806,805,804,803,802,800,780,745,698,646,582,548,545,540,537,534,529,524,517,508,495,486,485,485,485,485,486,486,486,486],"ymouse":[492,492,492,492,492,492,492,492,492,492,492,492,492,492,492,492,492,492,492,492,492,492,492,492,492,492,492,492,492,492,492,492,492,492,492,492,492,492,492,492,492,492,492,492,492,492,492,492,492,492,492,492,492,470,443,409,372,325,290,283,272,263,253,235,225,212,196,169,139,128,122,115,111,107,106,103,96],"timestamp_mouse":[16,40,55,76,95,115,136,157,175,197,216,236,255,276,296,317,336,356,375,395,416,435,455,475,496,515,535,556,575,596,616,635,656,676,696,716,735,755,775,797,816,836,855,876,896,916,936,956,976,996,1015,1035,1056,1075,1095,1116,1135,1155,1175,1196,1215,1235,1255,1275,1295,1315,1335,1356,1375,1397,1417,1435,1456,1475,1495,1516,1537],"xSR":741.5,"ySR":469.95,"xT1":424.9,"yT1":0,"xT2":1058.1,"yT2":0,"toosoon":0,"cond_shown":"Congruent","ratio_trial":300,"L_num":11,"L_den":22,"R_num":4,"R_den":20,"correct_side":1,"subjID":"lauracamilamontenegro11","gender":"1","school":"4","age":"9"},{"start_time":1552308904789,"click_time":1552308905876,"finger_time":1552308905537,"fix_duration":1411.26541437752,"trial":43,"RT":748,"MT":339,"sideResp":1,"stimulus":[],"xmouse":[799,799,799,799,799,799,799,799,799,799,799,799,799,799,799,799,799,799,799,799,799,799,799,799,799,799,799,799,799,799,799,799,798,798,798,776,755,728,700,684,662,652,638,621,601,571,565,561,558,556,552,548,542,534,521],"ymouse":[512,512,512,512,512,513,513,513,513,513,513,513,513,513,513,513,513,513,513,513,513,