[{"start_time":1552309463508,"click_time":1552309464955,"finger_time":1552309464915,"fix_duration":250,"trial":0,"RT":1407,"MT":40,"sideResp":2,"stimulus":"img/500/randomdotsizeEA/R/2_Ratio_500_L_3_R_6.png","xmouse":[817,817,817,817,817,817,817,817,817,817,817,817,817,817,817,817,817,817,817,817,817,817,817,817,817,817,817,817,817,817,817,817,817,817,817,817,817,817,817,817,817,817,817,817,817,817,817,817,817,817,817,817,817,817,817,817,817,817,817,817,817,817,817,817,819,819,819,820,821,908,994,1125],"ymouse":[544,544,544,544,544,544,544,544,544,544,544,544,544,544,544,544,544,544,544,544,544,544,544,544,544,544,544,544,544,544,544,544,544,544,544,544,544,544,544,544,544,544,544,544,544,544,544,544,544,544,544,544,544,544,544,544,544,544,544,544,543,543,543,542,541,541,541,540,538,328,147,33],"timestamp_mouse":[7,49,68,86,107,128,146,167,188,207,228,247,268,287,307,327,347,367,387,407,427,447,466,486,508,528,548,568,587,606,628,648,668,687,707,728,747,766,788,807,827,846,867,888,907,926,947,967,986,1008,1028,1047,1066,1087,1108,1126,1146,1168,1186,1208,1227,1248,1267,1287,1306,1326,1347,1367,1387,1407,1426,1447],"xSR":741.5,"ySR":501.8,"xT1":424.9,"yT1":0,"xT2":1058.1,"yT2":0,"toosoon":0,"cond_shown":"randomdotsizeEA","ratio_trial":500,"smaller_num":"3","larger_num":"6","correct_side":2,"subjID":"lauracamilamontegro11","gender":"1","age":"9","school":"4","test":{"fix_dur":[250,1500],"timestim":300,"targets_dim":[100,100],"targets_relative_coord":[0.3,0.7],"size_stim":[880,420],"start_dim":[100,100],"size_start":[300,300],"size_fix":60,"samplingrate":20,"img_types":["equaldotsize","equaldotanddens","randomdotsizeEA"],"ratios":[250,500,750,900],"rep_conds":9,"nTrials":120,"trials_to_rest":500,"Trials_order":[17,26,74,45,85,107,58,18,86,77,119,99,48,1,61,104,69,78,96,0,68,105,87,71,41,89,94,73,4,115,106,97,51,72,65,103,113,49,14,114,8,34,36,44,54,81,101,55,22,42,64,28,95,43,20,6,108,25,11,62,40,70,46,50,88,32,31,38,100,82,59,13,56,21,47,15,118,93,7,57,109,98,39,12,76,102,116,3,63,67,23,80,37,91,19,30,83,84,92,24,112,117,5,110,27,111,66,16,29,33,35,90,75,10,52,9,53,2,60,79],"cond_shown":["randomdotsizeEA","randomdotsizeEA","randomdotsizeEA","equaldotsize","equaldotanddens","randomdotsizeEA","equaldotanddens","equaldotsize","randomdotsizeEA","randomdotsizeEA","randomdotsizeEA","equaldotsize","equaldotsize","equaldotanddens","equaldotanddens","randomdotsizeEA","equaldotsize","equaldotsize","equaldotsize","equaldotsize","randomdotsizeEA","equaldotsize","equaldotsize","randomdotsizeEA","randomdotsizeEA","randomdotsizeEA","equaldotanddens","equaldotanddens","equaldotanddens","equaldotanddens","equaldotanddens","equaldotanddens","equaldotsize","equaldotsize","randomdotsizeEA","equaldotanddens","randomdotsizeEA","equaldotanddens","randomdotsizeEA","equaldotsize","randomdotsizeEA","equaldotanddens","equaldotsize","randomdotsizeEA","equaldotsize","equaldotsize","randomdotsizeEA","equaldotanddens","equaldotanddens","equaldotsize","equaldotanddens","equaldotanddens","randomdotsizeEA","equaldotanddens","randomdotsizeEA","equaldotsize","equaldotsize","equaldotanddens","randomdotsizeEA","randomdotsizeEA","equaldotanddens","equaldotanddens","equaldotanddens","randomdotsizeEA","equaldotanddens","randomdotsizeEA","equaldotanddens","randomdotsizeEA","equaldotanddens","equaldotanddens","randomdotsizeEA","equaldotanddens","randomdotsizeEA","equaldotsize","randomdotsizeEA","equaldotsize","equaldotanddens","equaldotsize","equaldotanddens","equaldotsize","equaldotanddens","randomdotsizeEA","equaldotsize","equaldotsize","equaldotanddens","equaldotsize","randomdotsizeEA","equaldotsize","equaldotsize","equaldotanddens","randomdotsizeEA","randomdotsizeEA","equaldotanddens","equaldotanddens","equaldotanddens","equaldotsize","randomdotsizeEA","equaldotsize","randomdotsizeEA","equaldotsize","equaldotanddens","equaldotsize","randomdotsizeEA","randomdotsizeEA","equaldotsize","equaldotsize","equaldotsize","equaldotanddens","randomdotsizeEA","equaldotsize","randomdotsizeEA","equaldotsize","equaldotsize","equaldotanddens","equaldotanddens","equaldotsize","randomdotsizeEA","randomdotsizeEA","equaldotsize","equaldotanddens"],"ratio_trial":[500,250,250,900,250,900,900,750,250,500,900,500,250,250,250,750,900,750,250,250,750,900,500,900,500,500,900,250,500,750,900,250,500,250,500,750,500,250,250,750,750,900,250,750,750,900,500,750,900,750,500,500,900,750,750,750,250,250,900,250,500,900,900,250,500,750,750,250,500,900,900,250,750,900,900,500,900,900,750,900,250,250,500,250,500,750,750,500,500,750,900,750,250,750,750,750,900,250,750,250,500,900,500,250,500,500,750,500,500,900,900,750,500,900,500,900,500,250,250,750],"smaller_num":["3","4","3","9","4","9","18","6","2","9","9","2","2","2","6","15","9","6","3","6","3","18","3","9","9","5","18","2","6","3","9","2","2","3","5","15","2","3","2","3","6","18","1","6","9","9","2","3","9","3","4","6","18","15","6","15","1","2","9","4","3","9","9","1","5","18","3","3","9","9","18","3","3","9","18","6","18","18","3","18","2","5","9","2","2","15","3","10","4","3","9","6","3","12","18","3","18","3","6","3","2","9","2","2","2","2","3","6","2","18","9","3","4","18","2","18","5","4","2","15"],"larger_num":["6","16","12","10","16","10","20","8","8","18","10","4","8","8","24","20","10","8","12","24","4","20","6","10","18","10","20","8","12","4","10","8","4","12","10","20","4","12","8","4","8","20","4","8","12","10","4","4","10","4","8","12","20","20","8","20","4","8","10","16","6","10","10","4","10","24","4","12","18","10","20","12","4","10","20","12","20","20","4","20","8","20","18","8","4","20","4","20","8","4","10","8","12","16","24","4","20","12","8","12","4","10","4","8","4","4","4","12","4","20","10","4","8","20","4","20","10","16","8","20"],"correct_side":[2,1,1,1,2,1,1,1,1,2,1,2,1,1,1,2,2,1,2,1,1,2,2,2,1,2,1,1,1,1,2,1,1,1,2,2,2,2,1,2,1,1,2,2,2,1,1,1,1,1,1,1,1,2,1,1,2,1,2,2,2,2,2,2,1,1,1,1,1,2,1,2,2,2,2,1,1,1,1,1,2,2,2,1,2,2,1,2,1,1,1,1,1,2,1,2,1,1,2,2,1,1,1,1,2,2,2,1,1,1,2,2,1,1,1,1,1,1,1,2],"img_shown":["img/500/randomdotsizeEA/R/2_Ratio_500_L_3_R_6.png","img/250/randomdotsizeEA/L/2_Ratio_250_L_16_R_4.png","img/250/randomdotsizeEA/L/15_Ratio_250_L_12_R_3.png","img/900/equaldotsize/L/1_Ratio_900_L_10_R_9.png","img/250/equaldotanddens/R/10_Ratio_250_L_4_R_16.png","img/900/randomdotsizeEA/L/1_Ratio_900_L_10_R_9.png","img/900/equaldotanddens/L/8_Ratio_900_L_20_R_18.png","img/750/equaldotsize/L/14_Ratio_750_L_8_R_6.png","img/250/randomdotsizeEA/L/1_Ratio_250_L_8_R_2.png","img/500/randomdotsizeEA/R/6_Ratio_500_L_9_R_18.png","img/900/randomdotsizeEA/L/1_Ratio_900_L_10_R_9.png","img/500/equaldotsize/R/9_Ratio_500_L_2_R_4.png","img/250/equaldotsize/L/3_Ratio_250_L_8_R_2.png","img/250/equaldotanddens/L/7_Ratio_250_L_8_R_2.png","img/250/equaldotanddens/L/5_Ratio_250_L_24_R_6.png","img/750/randomdotsizeEA/R/3_Ratio_750_L_15_R_20.png","img/900/equaldotsize/R/5_Ratio_900_L_9_R_10.png","img/750/equaldotsize/L/13_Ratio_750_L_8_R_6.png","img/250/equaldotsize/R/4_Ratio_250_L_3_R_12.png","img/250/equaldotsize/L/5_Ratio_250_L_24_R_6.png","img/750/randomdotsizeEA/L/9_Ratio_750_L_4_R_3.png","img/900/equaldotsize/R/11_Ratio_900_L_18_R_20.png","img/500/equaldotsize/R/2_Ratio_500_L_3_R_6.png","img/900/randomdotsizeEA/R/15_Ratio_900_L_9_R_10.png","img/500/randomdotsizeEA/L/4_Ratio_500_L_18_R_9.png","img/500/randomdotsizeEA/R/14_Ratio_500_L_5_R_10.png","img/900/equaldotanddens/L/4_Ratio_900_L_20_R_18.png","img/250/equaldotanddens/L/7_Ratio_250_L_8_R_2.png","img/500/equaldotanddens/L/11_Ratio_500_L_12_R_6.png","img/750/equaldotanddens/L/8_Ratio_750_L_4_R_3.png","img/900/equaldotanddens/R/3_Ratio_900_L_9_R_10.png","img/250/equaldotanddens/L/3_Ratio_250_L_8_R_2.png","img/500/equaldotsize/L/10_Ratio_500_L_4_R_2.png","img/250/equaldotsize/L/15_Ratio_250_L_12_R_3.png","img/500/randomdotsizeEA/R/14_Ratio_500_L_5_R_10.png","img/750/equaldotanddens/R/5_Ratio_750_L_15_R_20.png","img/500/randomdotsizeEA/R/9_Ratio_500_L_2_R_4.png","img/250/equaldotanddens/R/4_Ratio_250_L_3_R_12.png","img/250/randomdotsizeEA/L/3_Ratio_250_L_8_R_2.png","img/750/equaldotsize/R/7_Ratio_750_L_3_R_4.png","img/750/randomdotsizeEA/L/13_Ratio_750_L_8_R_6.png","img/900/equaldotanddens/L/4_Ratio_900_L_20_R_18.png","img/250/equaldotsize/R/8_Ratio_250_L_1_R_4.png","img/750/randomdotsizeEA/R/2_Ratio_750_L_6_R_8.png","img/750/equaldotsize/R/15_Ratio_750_L_9_R_12.png","img/900/equaldotsize/L/1_Ratio_900_L_10_R_9.png","img/500/randomdotsizeEA/L/10_Ratio_500_L_4_R_2.png","img/750/equaldotanddens/L/8_Ratio_750_L_4_R_3.png","img/900/equaldotanddens/L/1_Ratio_900_L_10_R_9.png","img/750/equaldotsize/L/9_Ratio_750_L_4_R_3.png","img/500/equaldotanddens/L/8_Ratio_500_L_8_R_4.png","img/500/equaldotanddens/L/11_Ratio_500_L_12_R_6.png","img/900/randomdotsizeEA/L/2_Ratio_900_L_20_R_18.png","img/750/equaldotanddens/R/4_Ratio_750_L_15_R_20.png","img/750/randomdotsizeEA/L/14_Ratio_750_L_8_R_6.png","img/750/equaldotsize/L/1_Ratio_750_L_20_R_15.png","img/250/equaldotsize/R/8_Ratio_250_L_1_R_4.png","img/250/equaldotanddens/L/3_Ratio_250_L_8_R_2.png","img/900/randomdotsizeEA/R/5_Ratio_900_L_9_R_10.png","img/250/randomdotsizeEA/R/10_Ratio_250_L_4_R_16.png","img/500/equaldotanddens/R/2_Ratio_500_L_3_R_6.png","img/900/equaldotanddens/R/3_Ratio_900_L_9_R_10.png","img/900/equaldotanddens/R/15_Ratio_900_L_9_R_10.png","img/250/randomdotsizeEA/R/8_Ratio_250_L_1_R_4.png","img/500/equaldotanddens/L/7_Ratio_500_L_10_R_5.png","img/750/randomdotsizeEA/L/6_Ratio_750_L_24_R_18.png","img/750/equaldotanddens/L/8_Ratio_750_L_4_R_3.png","img/250/randomdotsizeEA/L/14_Ratio_250_L_12_R_3.png","img/500/equaldotanddens/L/4_Ratio_500_L_18_R_9.png","img/900/equaldotanddens/R/15_Ratio_900_L_9_R_10.png","img/900/randomdotsizeEA/L/8_Ratio_900_L_20_R_18.png","img/250/equaldotanddens/R/11_Ratio_250_L_3_R_12.png","img/750/randomdotsizeEA/R/7_Ratio_750_L_3_R_4.png","img/900/equaldotsize/R/6_Ratio_900_L_9_R_10.png","img/900/randomdotsizeEA/R/12_Ratio_900_L_18_R_20.png","img/500/equaldotsize/L/13_Ratio_500_L_12_R_6.png","img/900/equaldotanddens/L/10_Ratio_900_L_20_R_18.png","img/900/equaldotsize/L/2_Ratio_900_L_20_R_18.png","img/750/equaldotanddens/L/8_Ratio_750_L_4_R_3.png","img/900/equaldotsize/L/10_Ratio_900_L_20_R_18.png","img/250/equaldotanddens/R/13_Ratio_250_L_2_R_8.png","img/250/randomdotsizeEA/R/12_Ratio_250_L_5_R_20.png","img/500/equaldotsize/R/1_Ratio_500_L_9_R_18.png","img/250/equaldotsize/L/3_Ratio_250_L_8_R_2.png","img/500/equaldotanddens/R/9_Ratio_500_L_2_R_4.png","img/750/equaldotsize/R/5_Ratio_750_L_15_R_20.png","img/750/randomdotsizeEA/L/8_Ratio_750_L_4_R_3.png","img/500/equaldotsize/R/3_Ratio_500_L_10_R_20.png","img/500/equaldotsize/L/8_Ratio_500_L_8_R_4.png","img/750/equaldotanddens/L/9_Ratio_750_L_4_R_3.png","img/900/randomdotsizeEA/L/1_Ratio_900_L_10_R_9.png","img/750/randomdotsizeEA/L/14_Ratio_750_L_8_R_6.png","img/250/equaldotanddens/L/15_Ratio_250_L_12_R_3.png","img/750/equaldotanddens/R/11_Ratio_750_L_12_R_16.png","img/750/equaldotanddens/L/6_Ratio_750_L_24_R_18.png","img/750/equaldotsize/R/12_Ratio_750_L_3_R_4.png","img/900/randomdotsizeEA/L/4_Ratio_900_L_20_R_18.png","img/250/equaldotsize/L/14_Ratio_250_L_12_R_3.png","img/750/randomdotsizeEA/R/2_Ratio_750_L_6_R_8.png","img/250/equaldotsize/R/4_Ratio_250_L_3_R_12.png","img/500/equaldotanddens/L/5_Ratio_500_L_4_R_2.png","img/900/equaldotsize/L/1_Ratio_900_L_10_R_9.png","img/500/randomdotsizeEA/L/10_Ratio_500_L_4_R_2.png","img/250/randomdotsizeEA/L/3_Ratio_250_L_8_R_2.png","img/500/equaldotsize/R/9_Ratio_500_L_2_R_4.png","img/500/equaldotsize/R/9_Ratio_500_L_2_R_4.png","img/750/equaldotsize/R/12_Ratio_750_L_3_R_4.png","img/500/equaldotanddens/L/13_Ratio_500_L_12_R_6.png","img/500/randomdotsizeEA/L/10_Ratio_500_L_4_R_2.png","img/900/equaldotsize/L/10_Ratio_900_L_20_R_18.png","img/900/randomdotsizeEA/R/6_Ratio_900_L_9_R_10.png","img/750/equaldotsize/R/7_Ratio_750_L_3_R_4.png","img/500/equaldotsize/L/8_Ratio_500_L_8_R_4.png","img/900/equaldotanddens/L/2_Ratio_900_L_20_R_18.png","img/500/equaldotanddens/L/10_Ratio_500_L_4_R_2.png","img/900/equaldotsize/L/4_Ratio_900_L_20_R_18.png","img/500/randomdotsizeEA/L/7_Ratio_500_L_10_R_5.png","img/250/randomdotsizeEA/L/2_Ratio_250_L_16_R_4.png","img/250/equaldotsize/L/3_Ratio_250_L_8_R_2.png","img/750/equaldotanddens/R/5_Ratio_750_L_15_R_20.png"],"Rat0":[["12_Ratio_0_L_9_R_0.png","13_Ratio_0_L_6_R_0.png","5_Ratio_0_L_2_R_0.png","6_Ratio_0_L_4_R_0.png","8_Ratio_0_L_6_R_0.png"],["1_Ratio_0_L_0_R_17.png","10_Ratio_0_L_0_R_22.png","11_Ratio_0_L_0_R_1.png","14_Ratio_0_L_0_R_24.png","15_Ratio_0_L_0_R_4.png","2_Ratio_0_L_0_R_5.png","3_Ratio_0_L_0_R_17.png","4_Ratio_0_L_0_R_7.png","7_Ratio_0_L_0_R_19.png","9_Ratio_0_L_0_R_15.png"]],"Rat250":[["1_Ratio_250_L_8_R_2.png","14_Ratio_250_L_12_R_3.png","15_Ratio_250_L_12_R_3.png","2_Ratio_250_L_16_R_4.png","3_Ratio_250_L_8_R_2.png","5_Ratio_250_L_24_R_6.png","7_Ratio_250_L_8_R_2.png"],["10_Ratio_250_L_4_R_16.png","11_Ratio_250_L_3_R_12.png","12_Ratio_250_L_5_R_20.png","13_Ratio_250_L_2_R_8.png","4_Ratio_250_L_3_R_12.png","6_Ratio_250_L_6_R_24.png","8_Ratio_250_L_1_R_4.png","9_Ratio_250_L_3_R_12.png"]],"Rat500":[["10_Ratio_500_L_4_R_2.png","11_Ratio_500_L_12_R_6.png","13_Ratio_500_L_12_R_6.png","4_Ratio_500_L_18_R_9.png","5_Ratio_500_L_4_R_2.png","7_Ratio_500_L_10_R_5.png","8_Ratio_500_L_8_R_4.png"],["1_Ratio_500_L_9_R_18.png","12_Ratio_500_L_1_R_2.png","14_Ratio_500_L_5_R_10.png","15_Ratio_500_L_1_R_2.png","2_Ratio_500_L_3_R_6.png","3_Ratio_500_L_10_R_20.png","6_Ratio_500_L_9_R_18.png","9_Ratio_500_L_2_R_4.png"]],"Rat750":[["1_Ratio_750_L_20_R_15.png","10_Ratio_750_L_4_R_3.png","13_Ratio_750_L_8_R_6.png","14_Ratio_750_L_8_R_6.png","6_Ratio_750_L_24_R_18.png","8_Ratio_750_L_4_R_3.png","9_Ratio_750_L_4_R_3.png"],["11_Ratio_750_L_12_R_16.png","12_Ratio_750_L_3_R_4.png","15_Ratio_750_L_9_R_12.png","2_Ratio_750_L_6_R_8.png","3_Ratio_750_L_15_R_20.png","4_Ratio_750_L_15_R_20.png","5_Ratio_750_L_15_R_20.png","7_Ratio_750_L_3_R_4.png"]],"Rat900":[["1_Ratio_900_L_10_R_9.png","10_Ratio_900_L_20_R_18.png","2_Ratio_900_L_20_R_18.png","4_Ratio_900_L_20_R_18.png","8_Ratio_900_L_20_R_18.png"],["11_Ratio_900_L_18_R_20.png","12_Ratio_900_L_18_R_20.png","13_Ratio_900_L_18_R_20.png","14_Ratio_900_L_18_R_20.png","15_Ratio_900_L_9_R_10.png","3_Ratio_900_L_9_R_10.png","5_Ratio_900_L_9_R_10.png","6_Ratio_900_L_9_R_10.png","7_Ratio_900_L_9_R_10.png","9_Ratio_900_L_18_R_20.png"]],"Rat1000":[["10_Ratio_1000_L_16_R_16.png","11_Ratio_1000_L_6_R_6.png","12_Ratio_1000_L_14_R_14.png","13_Ratio_1000_L_20_R_20.png","15_Ratio_1000_L_15_R_15.png","2_Ratio_1000_L_17_R_17.png","4_Ratio_1000_L_9_R_9.png","5_Ratio_1000_L_6_R_6.png","6_Ratio_1000_L_19_R_19.png","8_Ratio_1000_L_14_R_14.png","9_Ratio_1000_L_25_R_25.png"],["1_Ratio_1000_L_1_R_1.png","14_Ratio_1000_L_17_R_17.png","3_Ratio_1000_L_17_R_17.png","7_Ratio_1000_L_6_R_6.png"]]}},{"start_time":1552309467145,"click_time":1552309468214,"finger_time":1552309467634,"fix_duration":968.7211750264448,"trial":1,"RT":489,"MT":580,"sideResp":1,"stimulus":"img/250/randomdotsizeEA/L/2_Ratio_250_L_16_R_4.png","xmouse":[785,785,785,785,785,785,785,785,785,785,785,785,785,785,785,785,785,785,785,785,784,785,792,820,852,891,968,1046,1068,1085,1097,1105,1114,1115,1114,1107,1095,1079,1021,962,882,796,718,627,607,588,577,545,533,528,527,527,527,523],"ymouse":[550,550,550,550,550,550,550,550,550,550,550,550,550,550,550,550,550,550,550,550,549,545,531,487,448,408,353,305,289,276,262,245,209,193,181,169,160,155,146,131,117,96,76,61,59,55,51,46,46,46,46,46,46,45],"timestamp_mouse":[9,40,51,71,89,110,129,150,171,190,211,230,251,271,291,311,330,350,371,390,410,430,449,469,489,509,530,551,569,589,610,629,652,670,691,710,731,750,770,789,810,830,850,869,891,910,931,951,969,990,1011,1031,1050,1069],"xSR":741.5,"ySR":469.95,"xT1":424.9,"yT1":0,"xT2":1058.1,"yT2":0,"toosoon":0,"cond_shown":"randomdotsizeEA","ratio_trial":250,"smaller_num":"4","larger_num":"16","correct_side":1,"subjID":"lauracamilamontegro11","gender":"1","age":"9","school":"4"},{"start_time":1552309469834,"click_time":1552309470654,"finger_time":1552309470355,"fix_duration":538.1398069903747,"trial":2,"RT":521,"MT":299,"sideResp":1,"stimulus":"img/250/randomdotsizeEA/L/15_Ratio_250_L_12_R_3.png","xmouse":[768,768,768,768,768,768,768,768,768,768,768,768,768,768,768,768,768,768,768,768,768,768,768,768,759,747,726,700,663,656,655,651,640,630,618,614,608,599,590,556,537,518],"ymouse":[530,530,530,530,530,530,530,530,530,530,530,530,530,530,530,530,530,530,530,530,530,530,529,527,507,491,465,429,345,306,277,245,197,171,143,133,122,110,98,72,60,50],"timestamp_mouse":[14,24,41,63,81,100,120,142,160,181,201,220,242,261,281,302,321,342,362,382,401,421,442,461,480,500,521,541,563,580,601,621,641,662,681,701,722,741,762,780,801,820],"xSR":741.5,"ySR":469.95,"xT1":424.9,"yT1":0,"xT2":1058.1,"yT2":0,"toosoon":0,"cond_shown":"randomdotsizeEA","ratio_trial":250,"smaller_num":"3","larger_num":"12","correct_side":1,"subjID":"lauracamilamontegro11","gender":"1","age":"9","school":"4"},{"start_time":1552309472100,"click_time":1552309472975,"finger_time":1552309472774,"fix_duration":664.8991517562465,"trial":3,"RT":674,"MT":201,"sideResp":1,"stimulus":"img/900/equaldotsize/L/1_Ratio_900_L_10_R_9.png","xmouse":[777,777,777,777,777,777,777,777,777,777,777,777,777,777,777,777,777,777,777,777,777,777,777,777,777,777,777,777,777,777,779,780,781,781,776,758,747,720,700,678,625,591,551,508],"ymouse":[504,504,504,504,504,504,504,504,504,504,504,504,504,504,504,504,504,504,504,504,504,504,504,504,504,504,504,504,504,504,501,491,478,457,432,368,330,267,226,189,130,103,80,62],"timestamp_mouse":[14,35,55,75,96,114,136,154,175,196,216,235,254,276,295,314,334,355,375,394,415,435,454,474,495,516,536,554,575,594,615,635,656,674,694,714,735,754,775,795,815,834,854,875],"xSR":741.5,"ySR":469.95,"xT1":424.9,"yT1":0,"xT2":1058.1,"yT2":0,"toosoon":0,"cond_shown":"equaldotsize","ratio_trial":900,"smaller_num":"9","larger_num":"10","correct_side":1,"subjID":"lauracamilamontegro11","gender":"1","age":"9","school":"4"},{"start_time":1552309475176,"click_time":1552309493555,"finger_time":1552309492514,"fix_duration":1200.6177126574498,"trial":4,"RT":17338,"MT":1041,"sideResp":1,"stimulus":"img/250/equaldotanddens/R/10_Ratio_250_L_4_R_16.png","xmouse":[768,768,768,768,768,768,768,768,768,768,768,768,768,768,768,768,768,768,768,768,768,768,768,768,768,768,768,768,768,768,768,768,768,768,768,768,768,768,768,768,768,768,768,768,768,768,768,768,768,768,768,768,768,768,768,768,768,768,768,768,768,768,768,768,768,768,768,768,768,768,768,768,768,768,768,768,768,768,768,768,768,768,768,768,768,768,768,768,768,768,768,768,768,768,768,768,768,768,768,768,768,768,768,768,768,768,768,768,768,768,768,768,768,768,768,768,768,768,768,768,768,768,768,768,768,768,768,768,768,768,768,768,768,768,768,768,768,768,768,768,768,768,768,768,768,768,768,768,768,768,768,768,768,768,768,768,768,768,768,768,768,768,768,768,768,768,768,768,768,768,768,768,768,768,768,768,768,768,768,768,768,768,768,768,768,768,768,768,768,768,768,768,768,768,768,768,768,768,768,768,768,768,768,768,768,768,768,768,768,768,768,768,768,768,768,768,768,768,768,768,768,768,768,768,768,768,768,768,768,768,768,768,768,768,768,768,768,768,768,768,768,768,768,768,768,768,768,768,768,768,768,768,768,768,768,768,768,768,768,768,768,768,768,768,768,768,768,768,768,768,768,768,768,768,768,768,768,768,768,768,768,768,768,768,768,768,768,768,768,768,768,768,768,768,768,768,768,768,768,768,768,768,768,768,768,768,768,768,768,768,768,768,768,768,768,768,768,768,768,768,768,768,768,768,768,768,768,768,768,768,768,768,768,768,768,768,768,768,768,768,768,768,768,768,768,768,768,768,768,768,768,768,768,768,768,768,768,768,768,768,768,768,768,768,768,768,768,768,768,768,768,768,768,768,768,768,768,768,768,768,768,768,768,768,768,768,768,768,768,768,768,768,768,768,768,768,768,768,768,768,768,768,768,768,768,768,768,768,768,768,768,768,768,768,768,768,768,768,768,768,768,768,768,768,768,768,768,768,768,768,768,768,768,768,768,768,768,768,768,768,768,768,768,768,768,768,768,768,768,768,768,768,768,768,768,768,768,768,768,768,768,768,768,768,768,768,768,768,768,768,768,768,768,768,768,768,768,768,768,768,768,768,768,768,768,768,768,768,768,768,768,768,768,768,768,768,768,768,768,768,768,768,768,768,768,768,768,768,768,768,768,768,768,768,768,768,768,768,768,768,768,768,768,768,768,768,768,768,768,768,768,768,768,768,768,768,768,768,768,768,768,768,768,768,768,768,768,768,768,768,768,768,768,768,768,768,768,768,768,768,768,768,768,768,768,768,768,768,768,768,768,768,768,768,768,768,768,768,768,768,768,768,768,768,768,768,768,768,768,768,768,768,768,768,768,768,768,768,768,768,768,768,768,768,768,768,768,768,768,768,768,768,768,768,768,768,768,768,768,768,768,768,768,768,768,768,768,768,768,768,768,768,768,768,768,768,768,768,768,768,768,768,768,768,768,768,768,768,768,768,768,768,768,768,768,768,768,768,768,768,768,768,768,768,768,768,768,768,768,768,768,768,768,768,768,768,768,768,768,768,768,768,768,768,768,768,768,768,768,768,768,768,768,768,768,768,768,768,768,768,768,768,768,768,768,768,768,768,768,768,768,768,768,768,768,768,768,768,768,768,768,768,768,768,768,768,768,768,768,768,768,768,768,768,768,768,768,768,768,768,768,768,768,768,768,768,768,768,768,768,768,768,768,768,768,768,768,768,768,768,768,768,768,768,768,768,768,768,768,768,768,768,768,768,768,768,768,768,768,768,768,768,768,768,768,768,768,768,768,768,768,768,768,768,768,768,768,768,768,768,768,768,768,768,768,768,768,768,768,768,768,768,768,768,768,768,768,768,768,768,768,768,768,768,768,768,768,768,768,768,768,768,768,768,768,768,768,768,768,768,768,768,768,768,768,768,768,768,768,768,768,768,768,768,768,768,768,768,768,768,768,768,768,768,771,772,775,780,791,802,814,815,815,815,815,815,815,815,815,815,813,805,796,792,791,790,788,787,787,787,787,787,788,789,789,790,794,796,796,796,796,796,795,786,764,735,667,634,613,602,591,573,553,546,524,511,492,481,470],"ymouse":[490,490,490,490,490,490,490,490,490,490,490,490,490,490,490,490,490,490,490,490,490,490,490,490,490,490,490,490,490,490,490,490,490,490,490,490,490,490,490,490,490,490,490,490,490,490,490,490,490,490,490,490,490,490,490,490,490,490,490,490,490,490,490,490,490,490,490,490,490,490,490,490,490,490,490,490,490,490,490,490,490,490,490,490,490,490,490,490,490,490,490,490,490,490,490,490,490,490,490,490,490,490,490,490,490,490,490,490,490,490,490,490,490,490,490,490,490,490,490,490,490,490,490,490,490,490,490,490,490,490,490,490,490,490,490,490,490,490,490,490,490,490,490,490,490,490,490,490,490,490,490,490,490,490,490,490,490,490,490,490,490,490,490,490,490,490,490,490,490,490,490,490,490,490,490,490,490,490,490,490,490,490,490,490,490,490,490,490,490,490,490,490,490,490,490,490,490,490,490,490,490,490,490,490,490,490,490,490,490,490,490,490,490,490,490,490,490,490,490,490,490,490,490,490,490,490,490,490,490,490,490,490,490,490,490,490,490,490,490,490,490,490,490,490,490,490,490,490,490,490,490,490,490,490,490,490,490,490,490,490,490,490,490,490,490,490,490,490,490,490,490,490,490,490,490,490,490,490,490,490,490,490,490,490,490,490,490,490,490,490,490,490,490,490,490,490,490,490,490,490,490,490,490,490,490,490,490,490,490,490,490,490,490,490,490,490,490,490,490,490,490,490,490,490,490,490,490,490,490,490,490,490,490,490,490,490,490,490,490,490,490,490,490,490,490,490,490,490,490,490,490,490,490,490,490,490,490,490,490,490,490,490,490,490,490,490,490,490,490,490,490,490,490,490,490,490,490,490,490,490,490,490,490,490,490,490,490,490,490,490,490,490,490,490,490,490,490,490,490,490,490,490,490,490,490,490,490,490,490,490,490,490,490,490,490,490,490,490,490,490,490,490,490,490,490,490,490,490,490,490,490,490,490,490,490,490,490,490,490,490,490,490,490,490,490,490,490,490,490,490,490,490,490,490,490,490,490,490,490,490,490,490,490,490,490,490,490,490,490,490,490,490,490,490,490,490,490,490,490,490,490,490,490,490,490,490,490,490,490,490,490,490,490,490,490,490,490,490,490,490,490,490,490,490,490,490,490,490,490,490,490,490,490,490,490,490,490,490,490,490,490,490,490,490,490,490,490,490,490,490,490,490,490,490,490,490,490,490,490,490,490,490,490,490,490,490,490,490,490,490,490,490,490,490,490,490,490,490,490,490,490,490,490,490,490,490,490,490,490,490,490,490,490,490,490,490,490,490,490,490,490,490,490,490,490,490,490,490,490,490,490,490,490,490,490,490,490,490,490,490,490,490,490,490,490,490,490,490,490,490,490,490,490,490,490,490,490,490,490,490,490,490,490,490,490,490,490,490,490,490,490,490,490,490,490,490,490,490,490,490,490,490,490,490,490,490,490,490,490,490,490,490,490,490,490,490,490,490,490,490,490,490,490,490,490,490,490,490,490,490,490,490,490,490,490,490,490,490,490,490,490,490,490,490,490,490,490,490,490,490,490,490,490,490,490,490,490,490,490,490,490,490,490,490,490,490,490,490,490,490,490,490,490,490,490,490,490,490,490,490,490,490,490,490,490,490,490,490,490,490,490,490,490,490,490,490,490,490,490,490,490,490,490,490,490,490,490,490,490,490,490,490,490,490,490,490,490,490,490,490,490,490,490,490,490,490,490,490,490,490,490,490,490,490,490,490,490,490,490,490,490,490,490,490,490,490,490,490,490,490,490,490,490,490,490,490,490,490,490,490,490,490,490,490,490,490,490,490,490,490,490,490,490,490,490,490,490,490,490,490,490,490,490,490,490,490,490,490,490,490,490,490,490,490,490,490,490,490,490,490,490,490,490,490,490,490,490,490,490,490,490,490,490,490,490,490,490,490,490,490,490,490,490,492,496,496,456,447,447,452,467,475,476,476,476,476,476,476,476,476,476,476,476,479,479,479,481,482,482,484,485,488,490,492,493,495,499,501,502,502,502,502,494,475,445,404,313,270,240,224,210,188,170,163,144,133,112,103,98],"timestamp_mouse":[19,40,73,80,98,118,138,158,180,200,220,238,259,278,298,320,338,359,380,398,420,440,459,480,500,520,538,559,579,598,620,640,658,679,699,720,739,759,780,799,818,838,860,879,899,920,938,959,978,998,1019,1040,1059,1080,1099,1118,1140,1159,1178,1198,1220,1240,1259,1280,1299,1319,1338,1358,1379,1398,1420,1439,1460,1480,1500,1520,1538,1558,1580,1600,1619,1640,1659,1678,1699,1720,1739,1758,1778,1800,1820,1838,1859,1879,1900,1920,1938,1958,1979,2000,2020,2038,2058,2080,2098,2119,2140,2159,2179,2199,2219,2239,2259,2279,2299,2319,2340,2360,2379,2399,2419,2438,2459,2480,2499,2519,2539,2559,2580,2598,2618,2638,2659,2679,2698,2718,2738,2759,2780,2800,2818,2840,2858,2878,2899,2918,2939,2958,2978,2998,3020,3038,3058,3080,3099,3118,3138,3158,3178,3199,3219,3239,3258,3280,3299,3319,3339,3359,3378,3403,3419,3438,3460,3479,3500,3520,3538,3559,3580,3600,3620,3638,3659,3678,3699,3720,3740,3759,3780,3799,3819,3838,3859,3878,3899,3920,3939,3958,3979,3998,4020,4040,4059,4079,4099,4118,4139,4160,4178,4199,4220,4240,4260,4278,4299,4320,4340,4359,4378,4400,4420,4439,4459,4480,4498,4519,4540,4559,4579,4600,4619,4638,4659,4678,4700,4720,4738,4759,4779,4799,4820,4838,4860,4879,4900,4919,4938,4959,4980,4999,5019,5038,5060,5079,5098,5119,5139,5159,5180,5199,5218,5238,5259,5278,5299,5320,5339,5360,5378,5398,5419,5440,5459,5479,5499,5520,5539,5559,5578,5599,5619,5640,5659,5679,5699,5719,5739,5760,5779,5799,5818,5838,5859,5878,5898,5919,5939,5959,5978,5998,6020,6040,6059,6079,6100,6119,6140,6158,6179,6200,6220,6239,6258,6278,6299,6320,6339,6358,6380,6400,6419,6438,6459,6479,6500,6518,6538,6558,6580,6600,6620,6638,6659,6680,6698,6719,6739,6759,6779,6799,6820,6839,6859,6879,6899,6919,6940,6960,6980,6999,7019,7040,7059,7079,7098,7118,7140,7159,7180,7199,7220,7240,7259,7280,7299,7319,7339,7360,7378,7398,7420,7439,7459,7479,7499,7519,7538,7558,7578,7599,7618,7640,7660,7679,7698,7719,7739,7759,7780,7800,7819,7838,7859,7880,7899,7920,7940,7959,7979,7998,8018,8038,8058,8079,8100,8120,8140,8159,8178,8200,8219,8240,8260,8279,8299,8319,8338,8359,8380,8400,8420,8438,8459,8478,8498,8520,8538,8558,8578,8598,8620,8638,8658,8679,8700,8719,8738,8759,8780,8798,8818,8838,8859,8878,8898,8919,8939,8960,8978,8999,9019,9040,9059,9079,9098,9119,9139,9160,9179,9198,9218,9239,9260,9278,9299,9318,9339,9360,9379,9400,9419,9438,9459,9478,9499,9519,9539,9560,9580,9599,9620,9638,9659,9680,9700,9719,9738,9759,9778,9800,9820,9838,9859,9880,9900,9920,9940,9959,9979,10000,10019,10040,10059,10079,10098,10119,10140,10159,10179,10198,10218,10239,10260,10278,10298,10320,10338,10359,10380,10400,10419,10438,10460,10480,10499,10518,10538,10558,10578,10599,10618,10640,10659,10679,10699,10719,10738,10759,10779,10800,10820,10840,10859,10879,10898,10920,10940,10959,10979,11000,11020,11038,11059,11079,11100,11119,11140,11159,11180,11199,11219,11238,11260,11279,11300,11319,11338,11359,11379,11398,11420,11440,11459,11478,11498,11518,11538,11560,11579,11599,11618,11639,11659,11679,11700,11719,11738,11759,11778,11799,11820,11838,11860,11880,11900,11920,11940,11959,11980,11999,12020,12038,12060,12080,12100,12120,12138,12159,12178,12199,12220,12239,12259,12279,12299,12319,12338,12359,12379,12399,12418,12438,12459,12479,12498,12518,12539,12559,12579,12599,12620,12638,12658,12679,12700,12719,12740,12759,12780,12799,12818,12838,12859,12879,12899,12920,12939,12958,12979,12999,13020,13038,13059,13078,13100,13120,13138,13160,13180,13198,13218,13238,13260,13279,13299,13320,13338,13359,13380,13399,13419,13440,13458,13478,13499,13520,13538,13558,13579,13600,13619,13638,13658,13678,13700,13720,13740,13758,13778,13799,13820,13840,13859,13879,13898,13920,13940,13960,13979,13999,14018,14038,14058,14080,14099,14119,14138,14160,14179,14200,14219,14239,14258,14280,14300,14320,14340,14359,14379,14398,14420,14440,14459,14480,14499,14519,14538,14558,14579,14600,14620,14640,14658,14679,14699,14720,14739,14759,14779,14799,14819,14838,14860,14880,14899,14920,14940,14960,14978,14998,15019,15040,15059,15080,15099,15120,15140,15160,15179,15199,15219,15240,15258,15278,15299,15320,15339,15360,15379,15399,15419,15440,15459,15480,15500,15519,15538,15560,15580,15600,15619,15640,15660,15679,15699,15718,15740,15758,15779,15798,15819,15840,15859,15878,15899,15920,15939,15960,15979,15998,16019,16040,16059,16080,16099,16118,16139,16159,16180,16199,16218,16238,16259,16279,16299,16318,16339,16360,16379,16400,16419,16440,16459,16478,16498,16518,16540,16559,16580,16599,16618,16640,16659,16680,16698,16718,16740,16760,16779,16799,16820,16839,16859,16879,16900,16918,16938,16959,16980,17000,17019,17039,17058,17080,17099,17120,17140,17159,17178,17199,17219,17240,17259,17279,17299,17318,17338,17359,17378,17399,17421,17438,17460,17479,17498,17519,17540,17558,17578,17598,17618,17639,17659,17679,17700,17719,17738,17760,17779,17800,17819,17839,17860,17879,17898,17919,17940,17958,17980,17999,18019,18040,18059,18079,18099,18119,18139,18158,18178,18199,18218,18238,18259,18279,18299,18320,18338,18358,18379],"xSR":741.5,"ySR":469.95,"xT1":424.9,"yT1":0,"xT2":1058.1,"yT2":0,"toosoon":0,"cond_shown":"equaldotanddens","ratio_trial":250,"smaller_num":"4","larger_num":"16","correct_side":2,"subjID":"lauracamilamontegro11","gender":"1","age":"9","school":"4"},{"start_time":1552309494681,"click_time":1552309495575,"finger_time":1552309495236,"fix_duration":405.52067244520464,"trial":5,"RT":555,"MT":339,"sideResp":2,"stimulus":"img/900/randomdotsizeEA/L/1_Ratio_900_L_10_R_9.png","xmouse":[798,798,798,798,799,800,801,801,801,801,801,801,801,801,801,801,801,801,801,801,803,804,807,810,813,819,827,843,865,922,1019,1060,1093,1122,1154,1185,1211,1213,1213,1214,1215,1207,1195,1176,1148],"ymouse":[554,554,554,554,553,552,552,552,552,552,552,552,552,552,552,552,552,552,552,552,550,548,544,540,537,532,526,518,502,452,339,284,237,200,160,131,102,96,94,90,74,64,55,51,50],"timestamp_mouse":[14,38,54,75,94,115,133,153,174,193,215,234,254,273,294,314,334,354,374,395,414,433,454,474,493,515,534,555,573,594,616,634,653,675,694,715,733,753,773,793,815,833,853,873,894],"xSR":741.5,"ySR":469.95,"xT1":424.9,"yT1":0,"xT2":1058.1,"yT2":0,"toosoon":0,"cond_shown":"randomdotsizeEA","ratio_trial":900,"smaller_num":"9","larger_num":"10","correct_side":1,"subjID":"lauracamilamontegro11","gender":"1","age":"9","school":"4"},{"start_time":1552309497776,"click_time":1552309498455,"finger_time":1552309498255,"fix_duration":1340.1080538009335,"trial":6,"RT":479,"MT":200,"sideResp":1,"stimulus":"img/900/equaldotanddens/L/8_Ratio_900_L_20_R_18.png","xmouse":[814,814,814,814,814,814,814,814,814,814,814,814,814,814,814,814,814,811,808,805,799,784,773,755,720,667,617,597,578,563,543,535,527,518],"ymouse":[533,533,533,533,533,533,533,533,533,533,533,533,533,533,533,533,533,533,533,532,529,512,492,461,411,323,231,194,156,126,90,76,61,47],"timestamp_mouse":[19,41,60,79,98,120,139,159,179,200,219,240,258,279,299,318,340,359,380,399,420,439,458,479,498,518,538,558,578,599,621,639,660,679],"xSR":741.5,"ySR":469.95,"xT1":424.9,"yT1":0,"xT2":1058.1,"yT2":0,"toosoon":0,"cond_shown":"equaldotanddens","ratio_trial":900,"smaller_num":"18","larger_num":"20","correct_side":1,"subjID":"lauracamilamontegro11","gender":"1","age":"9","school":"4"},{"start_time":1552309500367,"click_time":1552309500896,"finger_time":1552309500754,"fix_duration":951.6602781925252,"trial":7,"RT":387,"MT":142,"sideResp":1,"stimulus":"img/750/equaldotsize/L/14_Ratio_750_L_8_R_6.png","xmouse":[783,783,783,783,783,783,783,784,786,787,788,789,789,789,789,789,789,789,788,777,752,666,616,573,549,533,519],"ymouse":[507,507,507,507,507,507,507,509,511,513,515,515,515,515,515,515,515,503,482,442,385,236,168,107,65,36,4],"timestamp_mouse":[10,28,47,68,89,108,127,148,168,187,207,228,248,268,288,307,329,348,367,387,407,429,448,468,488,508,529],"xSR":741.5,"ySR":469.95,"xT1":424.9,"yT1":0,"xT2":1058.1,"yT2":0,"toosoon":0,"cond_shown":"equaldotsize","ratio_trial":750,"smaller_num":"6","larger_num":"8","correct_side":1,"subjID":"lauracamilamontegro11","gender":"1","age":"9","school":"4"},{"start_time":1552309503206,"click_time":1552309504075,"finger_time":1552309503655,"fix_duration":1249.2824037870212,"trial":8,"RT":449,"MT":420,"sideResp":1,"stimulus":"img/250/randomdotsizeEA/L/1_Ratio_250_L_8_R_2.png","xmouse":[750,750,750,750,750,750,750,750,750,750,750,750,750,750,750,750,750,750,748,747,746,745,741,738,737,737,739,745,753,766,810,830,852,857,867,873,868,858,846,826,750,681,567,499],"ymouse":[494,494,494,494,494,494,494,494,494,494,494,494,494,494,494,494,494,494,494,486,479,473,463,452,445,432,424,416,408,399,370,353,329,321,296,260,245,229,215,205,175,150,104,74],"timestamp_mouse":[10,40,48,69,90,109,128,149,169,188,209,228,250,270,290,309,328,349,369,390,408,428,449,470,489,509,529,548,568,590,608,629,649,668,688,708,729,749,769,789,809,828,848,868],"xSR":741.5,"ySR":469.95,"xT1":424.9,"yT1":0,"xT2":1058.1,"yT2":0,"toosoon":0,"cond_shown":"randomdotsizeEA","ratio_trial":250,"smaller_num":"2","larger_num":"8","correct_side":1,"subjID":"lauracamilamontegro11","gender":"1","age":"9","school":"4"},{"start_time":1552309545380,"click_time":1552309546395,"finger_time":1552309545835,"fix_duration":1205.5816805284474,"trial":9,"RT":455,"MT":560,"sideResp":1,"stimulus":"img/500/randomdotsizeEA/R/6_Ratio_500_L_9_R_18.png","xmouse":[778,778,778,778,778,778,778,778,778,778,778,778,778,778,778,778,778,778,778,778,778,766,750,732,705,689,634,585,525,469,444,437,437,436,436,436,442,444,448,452,459,461,462,465,468,471,471,475,476,478,479],"ymouse":[508,508,508,508,508,508,508,508,508,508,508,508,508,508,508,508,508,508,508,508,506,484,461,435,392,363,297,266,235,202,192,188,188,187,187,183,171,167,161,157,150,146,145,138,133,122,118,112,106,102,97],"timestamp_mouse":[14,41,54,74,93,115,134,154,175,194,215,235,255,275,295,314,335,355,374,395,414,434,455,474,495,515,534,554,574,594,614,635,655,674,695,714,734,754,774,794,816,834,854,875,894,915,934,954,975,994,1015],"xSR":741.5,"ySR":469.95,"xT1":424.9,"yT1":0,"xT2":1058.1,"yT2":0,"toosoon":0,"cond_shown":"randomdotsizeEA","ratio_trial":500,"smaller_num":"9","larger_num":"18","correct_side":2,"subjID":"lauracamilamontegro11","gender":"1","age":"9","school":"4"},{"start_time":1552309547647,"click_time":1552309548694,"finger_time":1552309548134,"fix_duration":250,"trial":10,"RT":487,"MT":560,"sideResp":1,"stimulus":"img/900/randomdotsizeEA/L/1_Ratio_900_L_10_R_9.png","xmouse":[794,794,794,794,794,794,794,794,794,794,794,794,795,795,795,795,795,795,795,795,795,794,792,791,791,795,806,824,828,830,830,830,830,830,830,823,808,735,673,625,588,559,533,519,501,483,470,464,458,458,458,458,458],"ymouse":[537,537,537,537,537,537,537,537,537,537,537,537,537,537,537,537,537,537,534,533,532,529,524,495,469,437,401,356,342,331,324,317,312,302,295,284,271,247,234,221,209,195,174,162,150,137,126,120,110,108,103,100,98],"timestamp_mouse":[11,35,48,68,87,108,126,148,168,187,207,227,247,268,288,307,328,348,366,387,407,427,447,468,487,507,527,549,567,587,607,627,647,668,688,707,727,749,767,788,808,827,848,866,886,907,927,947,966,988,1008,1027,1047],"xSR":741.5,"ySR":469.95,"xT1":424.9,"yT1":0,"xT2":1058.1,"yT2":0,"toosoon":0,"cond_shown":"randomdotsizeEA","ratio_trial":900,"smaller_num":"9","larger_num":"10","correct_side":1,"subjID":"lauracamilamontegro11","gender":"1","age":"9","school":"4"},{"start_time":1552309550764,"click_time":1552309552014,"finger_time":1552309551515,"fix_duration":1007.2366145159059,"trial":11,"RT":751,"MT":499,"sideResp":2,"stimulus":"img/500/equaldotsize/R/9_Ratio_500_L_2_R_4.png","xmouse":[770,770,770,770,771,771,771,771,771,771,771,771,771,771,771,771,771,771,771,771,771,771,771,771,771,771,771,771,771,771,771,771,771,771,771,772,772,782,786,789,798,809,846,869,896,945,1009,1031,1044,1050,1054,1057,1063,1068,1069,1073,1078,1080,1082,1084,1085,1085,1090],"ymouse":[490,490,490,490,491,491,491,491,491,491,491,491,491,491,491,491,491,491,491,491,491,491,491,491,491,491,491,491,491,491,491,491,491,491,491,488,485,463,452,439,421,399,342,315,290,253,220,210,203,198,194,191,181,172,169,161,145,135,126,118,113,108,89],"timestamp_mouse":[11,36,51,69,91,111,130,150,171,190,211,230,250,271,291,310,331,351,370,390,411,430,450,470,490,511,530,550,570,591,610,631,651,671,690,710,730,751,770,790,810,830,850,870,890,911,931,951,970,990,1010,1030,1050,1071,1090,1110,1132,1150,1171,1190,1210,1230,1250],"xSR":741.5,"ySR":469.95,"xT1":424.9,"yT1":0,"xT2":1058.1,"yT2":0,"toosoon":0,"cond_shown":"equaldotsize","ratio_trial":500,"smaller_num":"2","larger_num":"4","correct_side":2,"subjID":"lauracamilamontegro11","gender":"1","age":"9","school":"4"},{"start_time":1552309554054,"click_time":1552309555014,"finger_time":1552309554694,"fix_duration":1078.789852484281,"trial":12,"RT":640,"MT":320,"sideResp":1,"stimulus":"img/250/equaldotsize/L/3_Ratio_250_L_8_R_2.png","xmouse":[802,802,802,802,802,802,802,802,802,802,802,802,802,802,802,802,802,802,802,802,802,802,802,802,802,802,802,797,780,771,745,726,690,674,654,636,627,610,603,597,590,586,579,574,565,554,526,512],"ymouse":[517,517,517,517,517,517,517,517,517,517,517,517,517,517,517,517,517,517,517,517,517,517,517,517,517,517,517,517,512,507,486,462,394,354,308,263,230,182,166,156,142,135,126,120,114,107,94,88],"timestamp_mouse":[20,43,60,80,100,120,140,160,181,200,221,240,261,281,300,321,340,360,380,400,420,441,461,481,500,521,541,560,580,600,620,640,660,680,700,720,741,759,780,800,820,840,860,880,900,920,942,960],"xSR":741.5,"ySR":469.95,"xT1":424.9,"yT1":0,"xT2":1058.1,"yT2":0,"toosoon":0,"cond_shown":"equaldotsize","ratio_trial":250,"smaller_num":"2","larger_num":"8","correct_side":1,"subjID":"lauracamilamontegro11","gender":"1","age":"9","school":"4"},{"start_time":1552309557064,"click_time":1552309557914,"finger_time":1552309557814,"fix_duration":1028.9133910907208,"trial":13,"RT":750,"MT":100,"sideResp":1,"stimulus":"img/250/equaldotanddens/L/7_Ratio_250_L_8_R_2.png","xmouse":[796,796,796,796,796,796,796,798,800,802,805,805,805,805,805,805,805,805,805,805,805,805,805,805,805,805,805,805,805,805,805,805,805,805,801,797,782,731,699,661,590,542,474],"ymouse":[521,521,521,521,521,521,521,521,522,523,523,523,523,523,523,523,523,523,523,523,523,523,523,523,523,523,523,523,523,523,523,523,523,523,508,500,472,382,328,276,201,157,83],"timestamp_mouse":[11,30,62,70,91,110,131,150,171,191,211,231,250,270,291,310,331,351,377,391,410,431,450,470,490,510,531,550,570,589,610,631,651,670,691,710,730,750,770,790,811,830,850],"xSR":741.5,"ySR":469.95,"xT1":424.9,"yT1":0,"xT2":1058.1,"yT2":0,"toosoon":0,"cond_shown":"equaldotanddens","ratio_trial":250,"smaller_num":"2","larger_num":"8","correct_side":1,"subjID":"lauracamilamontegro11","gender":"1","age":"9","school":"4"},{"start_time":1552309559247,"click_time":1552309560035,"finger_time":1552309559895,"fix_duration":250,"trial":14,"RT":648,"MT":140,"sideResp":1,"stimulus":"img/250/equaldotanddens/L/5_Ratio_250_L_24_R_6.png","xmouse":[782,782,782,782,782,782,782,782,782,782,782,782,782,782,782,782,782,782,782,782,782,782,781,781,780,780,780,778,778,777,771,760,712,668,620,582,548,508,504,504],"ymouse":[499,499,499,499,499,499,499,499,499,499,499,499,499,499,499,499,499,499,499,499,499,499,499,499,498,498,498,496,496,495,491,482,439,390,329,265,206,125,109,96],"timestamp_mouse":[9,39,48,67,87,108,128,148,168,188,207,228,248,268,288,308,328,348,367,387,406,428,447,468,487,507,527,547,568,587,607,627,648,667,688,707,727,749,767,788],"xSR":741.5,"ySR":469.95,"xT1":424.9,"yT1":0,"xT2":1058.1,"yT2":0,"toosoon":0,"cond_shown":"equaldotanddens","ratio_trial":250,"smaller_num":"6","larger_num":"24","correct_side":1,"subjID":"lauracamilamontegro11","gender":"1","age":"9","school":"4"},{"start_time":1552309562564,"click_time":1552309563396,"finger_time":1552309562915,"fix_duration":1448.9969575598602,"trial":15,"RT":351,"MT":481,"sideResp":1,"stimulus":"img/750/randomdotsizeEA/R/3_Ratio_750_L_15_R_20.png","xmouse":[814,814,814,814,814,814,814,814,814,813,813,813,811,810,807,798,786,736,707,692,678,672,663,659,652,638,627,615,610,608,605,601,597,589,573,559,544,520,511,506,501,490],"ymouse":[533,533,533,533,533,533,533,534,534,534,534,534,534,534,534,534,529,495,472,450,430,415,387,371,356,330,315,295,288,285,281,272,268,257,237,221,201,161,141,124,105,68],"timestamp_mouse":[10,32,51,71,90,111,130,150,171,191,210,231,250,270,290,310,331,351,370,392,410,430,450,470,490,511,531,550,570,590,611,631,650,670,691,711,730,749,770,789,810,832],"xSR":741.5,"ySR":469.95,"xT1":424.9,"yT1":0,"xT2":1058.1,"yT2":0,"toosoon":0,"cond_shown":"randomdotsizeEA","ratio_trial":750,"smaller_num":"15","larger_num":"20","correct_side":2,"subjID":"lauracamilamontegro11","gender":"1","age":"9","school":"4"},{"start_time":1552309564604,"click_time":1552309565654,"finger_time":1552309565454,"fix_duration":389.6178141153829,"trial":16,"RT":850,"MT":200,"sideResp":2,"stimulus":"img/900/equaldotsize/R/5_Ratio_900_L_9_R_10.png","xmouse":[786,786,786,786,786,787,787,787,787,786,786,786,786,786,786,786,786,786,786,786,786,786,786,786,786,786,786,786,786,786,786,786,786,786,786,786,786,786,786,786,786,788,803,819,875,912,945,973,1000,1038,1047,1053,1063],"ymouse":[494,494,494,494,494,494,494,495,496,498,499,499,500,501,501,501,501,501,501,501,501,501,501,501,501,501,501,501,501,501,501,501,501,501,501,501,501,501,501,501,497,493,469,441,343,293,248,205,167,101,81,68,55],"timestamp_mouse":[10,31,50,71,90,110,131,150,171,191,209,231,249,270,290,310,330,350,371,390,411,430,451,471,491,510,531,550,571,591,611,630,651,671,689,711,730,750,770,792,810,831,850,870,892,910,930,950,970,991,1010,1031,1050],"xSR":741.5,"ySR":469.95,"xT1":424.9,"yT1":0,"xT2":1058.1,"yT2":0,"toosoon":0,"cond_shown":"equaldotsize","ratio_trial":900,"smaller_num":"9","larger_num":"10","correct_side":2,"subjID":"lauracamilamontegro11","gender":"1","age":"9","school":"4"},{"start_time":1552309567492,"click_time":1552309568614,"finger_time":1552309568115,"fix_duration":937.4136627559686,"trial":17,"RT":623,"MT":499,"sideResp":1,"stimulus":"img/750/equaldotsize/L/13_Ratio_750_L_8_R_6.png","xmouse":[789,789,789,789,789,789,789,789,789,789,789,789,789,789,789,789,789,789,789,789,789,789,789,789,789,789,789,789,788,781,771,739,719,703,691,671,664,658,650,639,631,610,599,585,571,557,537,532,531,530,528,518,516,514,513,511,507],"ymouse":[500,500,500,500,500,500,500,500,500,500,500,500,500,500,500,500,500,500,500,500,500,500,500,500,500,500,500,499,498,491,476,427,399,377,359,329,316,302,288,270,260,231,213,195,176,159,139,134,134,132,129,122,120,117,113,108,99],"timestamp_mouse":[9,21,50,63,83,103,123,143,163,183,202,222,242,262,283,303,323,342,363,382,402,422,442,462,482,503,522,542,562,583,602,623,642,662,682,704,722,742,762,782,802,822,843,862,881,902,922,943,962,982,1003,1021,1042,1063,1081,1102,1121],"xSR":741.5,"ySR":469.95,"xT1":424.9,"yT1":0,"xT2":1058.1,"yT2":0,"toosoon":0,"cond_shown":"equaldotsize","ratio_trial":750,"smaller_num":"6","larger_num":"8","correct_side":1,"subjID":"lauracamilamontegro11","gender":"1","age":"9","school":"4"},{"start_time":1552309570085,"click_time":1552309571254,"finger_time":1552309570795,"fix_duration":250,"trial":18,"RT":710,"MT":459,"sideResp":2,"stimulus":"img/250/equaldotsize/R/4_Ratio_250_L_3_R_12.png","xmouse":[771,771,774,776,778,779,779,780,780,780,781,783,785,787,789,790,791,792,792,792,792,792,792,792,792,792,792,792,792,792,792,792,795,797,806,838,859,884,905,932,943,965,975,986,998,1013,1020,1022,1025,1028,1031,1034,1039,1046,1052,1057,1057,1058,1059],"ymouse":[540,540,539,536,535,532,531,531,531,530,529,527,524,521,518,517,514,513,511,511,511,511,511,511,511,511,511,511,511,511,511,511,508,506,498,463,438,402,365,313,287,243,226,211,195,166,149,134,112,101,89,82,75,68,61,56,56,55,55],"timestamp_mouse":[20,30,49,69,88,110,129,149,170,189,209,230,249,270,289,311,330,350,370,390,409,429,450,469,490,509,530,549,569,590,610,629,649,669,689,710,729,750,769,789,809,829,849,869,889,911,929,950,969,990,1011,1029,1049,1070,1089,1111,1129,1149,1169],"xSR":741.5,"ySR":469.95,"xT1":424.9,"yT1":0,"xT2":1058.1,"yT2":0,"toosoon":0,"cond_shown":"equaldotsize","ratio_trial":250,"smaller_num":"3","larger_num":"12","correct_side":2,"subjID":"lauracamilamontegro11","gender":"1","age":"9","school":"4"},{"start_time":1552309573885,"click_time":1552309574575,"finger_time":1552309574415,"fix_duration":1209.1073459254803,"trial":19,"RT":530,"MT":160,"sideResp":1,"stimulus":"img/250/equaldotsize/L/5_Ratio_250_L_24_R_6.png","xmouse":[780,779,779,779,779,779,779,779,779,779,779,779,779,779,779,779,779,779,779,779,779,779,779,777,773,747,725,701,664,639,590,565,536,516,499],"ymouse":[521,529,533,534,534,534,534,534,534,534,534,534,533,533,533,533,533,533,533,533,534,535,535,535,529,488,458,423,363,319,210,165,124,100,78],"timestamp_mouse":[11,31,51,70,90,109,129,149,170,189,210,229,250,268,290,310,330,350,369,390,411,429,449,469,489,510,530,549,569,590,610,629,649,669,689],"xSR":741.5,"ySR":469.95,"xT1":424.9,"yT1":0,"xT2":1058.1,"yT2":0,"toosoon":0,"cond_shown":"equaldotsize","ratio_trial":250,"smaller_num":"6","larger_num":"24","correct_side":1,"subjID":"lauracamilamontegro11","gender":"1","age":"9","school":"4"},{"start_time":1552309576318,"click_time":1552309577696,"finger_time":1552309577315,"fix_duration":623.0999830390138,"trial":20,"RT":997,"MT":381,"sideResp":1,"stimulus":"img/750/randomdotsizeEA/L/9_Ratio_750_L_4_R_3.png","xmouse":[824,824,824,824,824,824,824,824,824,824,824,824,824,824,824,824,824,824,824,824,824,824,824,824,824,824,824,824,824,824,824,824,824,824,824,824,824,824,824,824,824,824,824,824,824,823,820,794,748,644,616,600,592,585,581,579,578,578,576,573,571,571,571,567,561,556,542,528,496],"ymouse":[490,490,490,491,494,494,495,495,495,495,495,495,495,495,495,495,495,495,495,495,495,495,495,495,495,495,495,495,495,495,495,495,495,496,496,496,496,496,496,496,496,496,496,496,496,497,497,497,491,459,446,431,414,374,356,340,325,304,290,269,254,238,218,184,167,153,131,118,93],"timestamp_mouse":[16,46,56,77,97,117,136,156,177,197,216,236,256,277,297,316,336,357,376,397,416,437,457,476,496,516,537,555,576,597,616,636,657,677,697,717,737,757,776,797,816,837,856,877,897,917,936,956,976,997,1017,1036,1057,1077,1096,1117,1136,1157,1176,1197,1217,1236,1256,1277,1296,1317,1336,1357,1378],"xSR":741.5,"ySR":469.95,"xT1":424.9,"yT1":0,"xT2":1058.1,"yT2":0,"toosoon":0,"cond_shown":"randomdotsizeEA","ratio_trial":750,"smaller_num":"3","larger_num":"4","correct_side":1,"subjID":"lauracamilamontegro11","gender":"1","age":"9","school":"4"},{"start_time":1552309578995,"click_time":1552309580074,"finger_time":1552309579854,"fix_duration":320.8405804825476,"trial":21,"RT":859,"MT":220,"sideResp":2,"stimulus":"img/900/equaldotsize/R/11_Ratio_900_L_18_R_20.png","xmouse":[774,775,775,775,775,775,775,775,775,775,775,775,775,775,775,775,775,775,775,775,775,775,775,775,775,775,775,775,775,775,775,775,775,775,775,775,775,776,777,783,798,820,843,900,940,1009,1035,1053,1067,1088,1096,1106,1114,1124],"ymouse":[525,529,529,529,529,529,529,529,529,529,529,529,529,529,529,529,529,529,529,529,529,529,529,529,529,529,529,529,529,529,529,529,529,529,529,529,529,529,529,524,516,503,487,445,413,321,278,238,203,154,134,115,102,84],"timestamp_mouse":[28,52,59,79,100,118,139,160,179,199,219,240,259,279,299,319,339,359,380,400,420,439,459,480,500,519,539,560,579,600,619,640,659,680,700,720,739,759,778,801,819,839,859,879,901,919,939,959,979,1001,1019,1040,1060,1079],"xSR":741.5,"ySR":469.95,"xT1":424.9,"yT1":0,"xT2":1058.1,"yT2":0,"toosoon":0,"cond_shown":"equaldotsize","ratio_trial":900,"smaller_num":"18","larger_num":"20","correct_side":2,"subjID":"lauracamilamontegro11","gender":"1","age":"9","school":"4"},{"start_time":1552309581993,"click_time":1552309584974,"finger_time":1552309584175,"fix_duration":957.0316361857376,"trial":22,"RT":2182,"MT":799,"sideResp":1,"stimulus":"img/500/equaldotsize/R/2_Ratio_500_L_3_R_6.png","xmouse":[791,791,791,791,791,791,791,791,791,791,791,791,791,791,791,791,792,794,796,798,798,797,797,797,797,797,797,794,794,794,792,790,790,790,789,788,786,785,785,785,785,785,785,785,785,785,785,785,785,785,785,785,785,785,785,785,785,785,785,785,785,785,785,785,785,785,785,785,785,785,785,784,784,785,791,801,803,803,803,803,803,804,804,804,804,802,800,800,800,800,800,799,799,799,796,785,778,778,778,778,778,778,778,782,784,784,785,785,783,782,782,781,781,781,781,781,781,781,780,780,779,778,776,774,772,771,770,768,765,757,729,710,666,650,608,536,451,415,392,372,351,347,347,347,353,368,379,390,409,430],"ymouse":[539,539,539,539,539,539,539,539,539,539,539,539,539,539,539,539,538,536,535,535,534,534,534,534,534,534,534,533,533,533,533,531,531,531,529,529,528,528,528,528,528,528,528,528,528,528,528,528,528,528,528,528,528,528,528,528,528,528,528,528,528,528,528,528,528,528,528,528,528,528,528,531,535,542,546,546,546,546,546,546,546,547,548,549,549,549,549,549,549,549,549,547,545,544,544,553,566,566,566,566,566,566,565,563,563,563,564,566,569,570,570,571,571,571,571,571,571,571,571,570,565,562,558,556,551,548,537,531,525,518,495,481,449,437,406,356,282,250,223,195,153,135,122,111,93,71,59,52,45,40],"timestamp_mouse":[10,22,42,62,81,100,122,142,161,182,201,222,242,262,282,302,321,341,362,382,402,422,442,461,482,502,520,542,561,581,602,622,641,661,681,701,722,742,762,782,802,822,842,862,883,902,922,942,962,982,1001,1022,1041,1061,1082,1101,1121,1141,1162,1181,1202,1221,1241,1262,1281,1301,1322,1342,1362,1381,1402,1421,1441,1462,1482,1502,1522,1542,1561,1582,1602,1621,1641,1662,1681,1702,1722,1742,1762,1782,1802,1822,1841,1862,1881,1901,1922,1942,1961,1981,2002,2021,2041,2061,2082,2101,2121,2141,2162,2182,2201,2222,2241,2262,2281,2302,2342,2343,2361,2382,2402,2421,2442,2461,2481,2501,2522,2541,2561,2582,2602,2621,2642,2661,2682,2701,2721,2741,2762,2781,2802,2821,2842,2861,2881,2902,2921,2941,2962,2981],"xSR":741.5,"ySR":469.95,"xT1":424.9,"yT1":0,"xT2":1058.1,"yT2":0,"toosoon":0,"cond_shown":"equaldotsize","ratio_trial":500,"smaller_num":"3","larger_num":"6","correct_side":2,"subjID":"lauracamilamontegro11","gender":"1","age":"9","school":"4"},{"start_time":1552309589569,"click_time":1552309590615,"finger_time":1552309590236,"fix_duration":1352.556120983046,"trial":23,"RT":667,"MT":379,"sideResp":2,"stimulus":"img/900/randomdotsizeEA/R/15_Ratio_900_L_9_R_10.png","xmouse":[789,789,789,789,789,789,789,789,789,789,789,789,789,789,789,789,789,789,789,789,789,789,789,789,790,790,790,790,790,790,793,793,802,817,822,855,922,953,979,994,999,999,999,999,999,999,999,999,999,999,999,999,1100],"ymouse":[517,517,517,517,517,517,517,517,517,517,517,517,517,517,517,517,517,517,517,517,517,517,516,516,516,516,516,516,515,514,509,504,476,440,423,351,222,147,83,28,9,9,9,9,9,9,9,9,9,9,9,9,5],"timestamp_mouse":[10,25,46,65,85,105,126,146,165,186,206,225,246,265,286,305,327,345,364,386,405,426,445,465,486,506,526,546,565,585,605,625,646,666,685,706,726,745,766,785,806,826,845,866,886,905,926,945,965,985,1005,1025,1046],"xSR":741.5,"ySR":469.95,"xT1":424.9,"yT1":0,"xT2":1058.1,"yT2":0,"toosoon":0,"cond_shown":"randomdotsizeEA","ratio_trial":900,"smaller_num":"9","larger_num":"10","correct_side":2,"subjID":"lauracamilamontegro11","gender":"1","age":"9","school":"4"},{"start_time":1552309592033,"click_time":1552309592914,"finger_time":1552309592574,"fix_duration":297.0472286185979,"trial":24,"RT":541,"MT":340,"sideResp":1,"stimulus":"img/500/randomdotsizeEA/L/4_Ratio_500_L_18_R_9.png","xmouse":[800,800,800,800,800,800,800,801,801,802,802,805,809,812,814,815,817,819,820,820,820,820,822,822,822,822,822,821,820,812,802,788,765,747,704,680,660,644,620,607,595,568,546,509,463],"ymouse":[509,510,511,511,511,511,511,511,511,511,511,511,508,506,505,504,502,501,501,501,501,499,493,488,477,473,471,467,464,445,427,405,375,355,297,261,233,210,177,162,151,137,123,110,84],"timestamp_mouse":[1,21,47,62,80,102,122,141,162,181,201,221,241,262,281,301,322,340,362,382,402,422,442,461,482,501,521,541,561,581,601,621,641,661,682,702,721,741,762,780,801,821,842,862,881],"xSR":741.5,"ySR":469.95,"xT1":424.9,"yT1":0,"xT2":1058.1,"yT2":0,"toosoon":0,"cond_shown":"randomdotsizeEA","ratio_trial":500,"smaller_num":"9","larger_num":"18","correct_side":1,"subjID":"lauracamilamontegro11","gender":"1","age":"9","school":"4"},{"start_time":1552309599411,"click_time":1552309600414,"finger_time":1552309600195,"fix_duration":1414.1818027126055,"trial":25,"RT":784,"MT":219,"sideResp":1,"stimulus":"img/500/randomdotsizeEA/R/14_Ratio_500_L_5_R_10.png","xmouse":[786,786,786,786,786,786,786,787,788,788,790,791,792,793,794,794,795,795,795,795,795,795,795,795,795,795,795,795,795,795,795,795,795,794,793,787,780,769,757,728,706,667,652,593,549,516,509,502,499,495,490],"ymouse":[549,549,549,549,549,549,548,548,548,548,548,550,551,551,553,554,554,554,554,555,555,555,555,555,555,555,555,555,555,555,555,555,554,553,552,540,528,509,485,421,382,315,293,235,205,170,152,136,124,110,95],"timestamp_mouse":[8,23,43,64,84,104,124,143,164,183,204,224,244,264,284,303,323,343,363,383,404,424,444,464,484,503,523,543,564,584,604,623,643,663,683,704,723,743,763,784,803,823,843,864,883,902,924,943,964,983,1003],"xSR":741.5,"ySR":469.95,"xT1":424.9,"yT1":0,"xT2":1058.1,"yT2":0,"toosoon":0,"cond_shown":"randomdotsizeEA","ratio_trial":500,"smaller_num":"5","larger_num":"10","correct_side":2,"subjID":"lauracamilamontegro11","gender":"1","age":"9","school":"4"},{"start_time":1552309602026,"click_time":1552309603954,"finger_time":1552309603634,"fix_duration":611.3929972024274,"trial":26,"RT":1608,"MT":320,"sideResp":2,"stimulus":"img/900/equaldotanddens/L/4_Ratio_900_L_20_R_18.png","xmouse":[781,781,781,781,781,781,781,781,781,781,781,781,781,781,781,781,781,781,781,781,781,781,781,781,781,781,781,781,781,781,781,781,781,781,781,781,781,781,781,781,781,781,781,781,781,781,781,781,781,781,781,781,781,781,781,781,781,781,781,781,781,781,781,781,781,781,781,781,781,781,781,781,781,781,781,781,781,783,788,796,813,874,921,963,1010,1019,1024,1027,1028,1030,1031,1034,1038,1047,1051,1055,1059],"ymouse":[505,505,505,505,505,505,505,505,505,505,505,505,505,505,505,505,505,505,505,505,505,505,505,503,503,503,503,503,503,503,503,503,503,503,503,503,503,503,503,503,503,503,503,503,503,503,503,503,503,503,503,503,503,503,503,503,503,503,503,503,503,503,503,503,503,503,503,503,503,503,503,503,503,503,503,503,503,502,494,481,460,375,321,270,206,179,164,153,148,147,145,142,135,120,113,107,97],"timestamp_mouse":[11,43,49,68,88,108,129,148,168,189,208,228,248,268,289,309,328,348,368,389,408,428,448,468,489,508,528,548,568,587,607,629,648,668,689,708,727,747,767,787,807,827,849,867,888,908,927,948,969,987,1008,1028,1047,1068,1089,1115,1129,1148,1167,1188,1209,1227,1248,1267,1288,1309,1329,1348,1368,1388,1408,1428,1448,1468,1487,1508,1527,1547,1568,1587,1608,1628,1649,1667,1687,1707,1728,1747,1769,1787,1808,1829,1847,1869,1887,1908,1928],"xSR":741.5,"ySR":469.95,"xT1":424.9,"yT1":0,"xT2":1058.1,"yT2":0,"toosoon":0,"cond_shown":"equaldotanddens","ratio_trial":900,"smaller_num":"18","larger_num":"20","correct_side":1,"subjID":"lauracamilamontegro11","gender":"1","age":"9","school":"4"},{"start_time":1552309605732,"click_time":1552309607074,"finger_time":1552309606473,"fix_duration":916.3724221744095,"trial":27,"RT":741,"MT":601,"sideResp":1,"stimulus":"img/250/equaldotanddens/L/7_Ratio_250_L_8_R_2.png","xmouse":[794,794,794,795,797,797,797,797,797,797,797,797,798,798,799,800,800,801,801,801,801,801,801,801,801,801,801,801,801,801,801,801,801,801,801,797,792,765,734,658,634,621,610,583,566,552,540,531,526,523,517,506,484,457,404,391,386,388,401,408,416,418,418,418,418,418,419,425],"ymouse":[498,498,498,498,498,498,498,498,498,498,498,498,497,497,497,496,495,495,495,494,494,494,494,494,494,494,494,494,494,494,494,494,494,494,494,488,481,446,411,313,273,251,235,203,189,178,169,153,137,134,131,130,127,124,109,101,86,66,31,19,9,6,6,6,6,6,6,15],"timestamp_mouse":[1,31,41,61,82,101,122,142,161,182,201,222,241,263,281,301,322,342,362,382,401,423,443,462,483,502,521,543,561,582,601,622,642,661,682,701,722,741,761,781,801,821,843,862,881,902,922,942,963,981,1001,1022,1041,1063,1081,1103,1123,1143,1162,1181,1201,1221,1242,1263,1282,1302,1322,1342],"xSR":741.5,"ySR":469.95,"xT1":424.9,"yT1":0,"xT2":1058.1,"yT2":0,"toosoon":0,"cond_shown":"equaldotanddens","ratio_trial":250,"smaller_num":"2","larger_num":"8","correct_side":1,"subjID":"lauracamilamontegro11","gender":"1","age":"9","school":"4"},{"start_time":1552309608860,"click_time":1552309609796,"finger_time":1552309609473,"fix_duration":664.3378474051553,"trial":28,"RT":613,"MT":323,"sideResp":1,"stimulus":"img/500/equaldotanddens/L/11_Ratio_500_L_12_R_6.png","xmouse":[781,780,780,780,780,780,777,776,775,775,775,775,775,775,774,774,774,774,774,772,772,771,771,769,768,768,763,761,758,753,744,736,717,702,685,659,609,592,581,572,564,552,545,535,525,515,501],"ymouse":[511,510,509,509,509,509,509,507,505,503,502,502,502,502,502,502,502,502,502,501,501,498,497,495,494,493,490,487,482,474,464,452,426,406,381,347,276,252,237,222,204,178,164,147,131,116,97],"timestamp_mouse":[14,35,54,75,103,114,134,153,174,195,214,234,254,275,294,314,334,354,373,393,413,434,453,474,493,514,535,555,574,594,613,633,653,673,693,713,735,753,775,795,813,834,853,874,893,914,936],"xSR":741.5,"ySR":469.95,"xT1":424.9,"yT1":0,"xT2":1058.1,"yT2":0,"toosoon":0,"cond_shown":"equaldotanddens","ratio_trial":500,"smaller_num":"6","larger_num":"12","correct_side":1,"subjID":"lauracamilamontegro11","gender":"1","age":"9","school":"4"},{"start_time":1552309611146,"click_time":1552309612095,"finger_time":1552309611994,"fix_duration":250,"trial":29,"RT":848,"MT":101,"sideResp":2,"stimulus":"img/750/equaldotanddens/L/8_Ratio_750_L_4_R_3.png","xmouse":[823,823,823,821,821,821,821,821,821,821,821,821,821,821,821,821,821,821,821,821,821,821,821,821,821,821,821,821,821,820,820,820,820,820,820,820,820,820,819,819,819,826,875,943,1018,1080,1109,1111],"ymouse":[538,538,538,536,535,534,533,533,533,533,533,533,533,533,533,533,533,533,533,533,533,533,532,532,532,532,532,532,532,532,532,532,532,532,532,532,531,530,527,523,516,499,420,327,224,144,103,76],"timestamp_mouse":[9,38,48,69,88,108,128,148,169,187,209,228,249,268,288,308,329,348,367,387,409,428,448,467,487,508,527,547,567,587,609,627,648,668,689,709,727,747,769,787,808,827,848,867,888,909,928,949],"xSR":741.5,"ySR":469.95,"xT1":424.9,"yT1":0,"xT2":1058.1,"yT2":0,"toosoon":0,"cond_shown":"equaldotanddens","ratio_trial":750,"smaller_num":"3","larger_num":"4","correct_side":1,"subjID":"lauracamilamontegro11","gender":"1","age":"9","school":"4"},{"start_time":1552309614234,"click_time":1552309615254,"finger_time":1552309614895,"fix_duration":1057.5163147947383,"trial":30,"RT":661,"MT":359,"sideResp":2,"stimulus":"img/900/equaldotanddens/R/3_Ratio_900_L_9_R_10.png","xmouse":[806,806,806,806,806,806,806,806,806,806,806,806,806,809,811,814,816,817,818,819,819,819,819,818,816,813,811,808,808,808,806,803,795,787,784,784,787,798,854,903,983,1003,1063,1096,1104,1109,1115,1117,1119,1121,1124,1126],"ymouse":[516,516,516,516,516,516,516,516,516,516,516,516,516,515,513,510,509,507,505,503,503,503,503,503,508,512,514,518,519,519,518,510,493,456,433,412,393,375,325,301,267,258,234,213,202,186,163,144,132,111,103,96],"timestamp_mouse":[1,20,43,59,81,100,120,140,160,181,199,220,239,261,281,299,319,340,360,380,399,421,441,459,480,499,519,539,561,579,599,619,640,661,680,699,720,739,760,779,800,819,839,861,879,901,921,939,960,980,999,1020],"xSR":741.5,"ySR":469.95,"xT1":424.9,"yT1":0,"xT2":1058.1,"yT2":0,"toosoon":0,"cond_shown":"equaldotanddens","ratio_trial":900,"smaller_num":"9","larger_num":"10","correct_side":2,"subjID":"lauracamilamontegro11","gender":"1","age":"9","school":"4"},{"start_time":1552309617179,"click_time":1552309618195,"finger_time":1552309617733,"fix_duration":964.2894041802008,"trial":31,"RT":554,"MT":462,"sideResp":1,"stimulus":"img/250/equaldotanddens/L/3_Ratio_250_L_8_R_2.png","xmouse":[819,821,821,821,821,821,821,821,821,821,821,821,821,821,821,821,821,821,821,821,821,821,822,822,821,814,787,772,755,741,728,728,728,727,717,701,665,644,627,612,598,594,589,580,572,563,560,556,550,541,523],"ymouse":[541,540,540,540,540,540,540,540,540,540,540,540,540,540,540,540,540,540,540,540,540,540,540,538,534,524,487,467,444,409,363,352,341,317,294,268,223,208,197,189,183,180,176,167,157,144,139,132,124,113,93],"timestamp_mouse":[14,36,55,74,95,114,135,154,175,195,215,235,255,274,295,316,334,354,376,394,414,434,455,476,495,514,535,554,575,596,615,634,654,674,695,716,735,755,776,795,816,835,854,874,896,916,934,955,976,995,1016],"xSR":741.5,"ySR":469.95,"xT1":424.9,"yT1":0,"xT2":1058.1,"yT2":0,"toosoon":0,"cond_shown":"equaldotanddens","ratio_trial":250,"smaller_num":"2","larger_num":"8","correct_side":1,"subjID":"lauracamilamontegro11","gender":"1","age":"9","school":"4"},{"start_time":1552309633694,"click_time":1552309634613,"finger_time":1552309634453,"fix_duration":659.5943335652082,"trial":32,"RT":759,"MT":160,"sideResp":1,"stimulus":"img/500/equaldotsize/L/10_Ratio_500_L_4_R_2.png","xmouse":[807,807,807,807,807,807,807,807,807,807,807,807,807,807,807,807,807,807,807,807,807,807,807,807,807,807,807,807,807,807,807,807,807,807,807,807,800,784,756,688,550,505,482,476,476,471,461],"ymouse":[529,529,529,529,529,529,529,529,529,529,529,529,529,529,529,529,529,529,529,529,529,529,529,529,529,529,529,529,529,529,529,529,529,529,527,526,505,485,453,387,281,245,218,197,170,107,74],"timestamp_mouse":[2,20,40,59,80,100,120,140,159,179,201,220,239,260,281,300,319,340,359,379,400,419,440,460,480,499,521,541,559,580,601,621,639,659,681,699,720,740,759,779,801,819,840,861,879,900,919],"xSR":741.5,"ySR":469.95,"xT1":424.9,"yT1":0,"xT2":1058.1,"yT2":0,"toosoon":0,"cond_shown":"equaldotsize","ratio_trial":500,"smaller_num":"2","larger_num":"4","correct_side":1,"subjID":"lauracamilamontegro11","gender":"1","age":"9","school":"4"},{"start_time":1552309635632,"click_time":1552309636495,"finger_time":1552309636153,"fix_duration":256.36949064632597,"trial":33,"RT":521,"MT":342,"sideResp":1,"stimulus":"img/250/equaldotsize/L/15_Ratio_250_L_12_R_3.png","xmouse":[758,758,758,758,758,758,758,758,758,758,758,760,761,762,765,767,768,771,774,775,775,775,775,775,771,757,739,718,682,657,634,619,609,602,598,596,593,589,583,564,550,540,526,517],"ymouse":[540,540,540,540,540,540,540,540,540,540,540,540,542,542,543,543,542,538,531,529,528,528,528,525,516,502,486,465,399,345,301,263,233,201,187,178,169,160,147,113,94,80,65,55],"timestamp_mouse":[2,23,44,61,81,103,122,142,162,181,203,221,242,262,283,301,321,342,362,383,401,422,441,462,482,501,521,542,563,582,602,621,641,663,682,701,722,741,762,782,802,821,841,863],"xSR":741.5,"ySR":469.95,"xT1":424.9,"yT1":0,"xT2":1058.1,"yT2":0,"toosoon":0,"cond_shown":"equaldotsize","ratio_trial":250,"smaller_num":"3","larger_num":"12","correct_side":1,"subjID":"lauracamilamontegro11","gender":"1","age":"9","school":"4"},{"start_time":1552309640026,"click_time":1552309640674,"finger_time":1552309640415,"fix_duration":430.00532467517905,"trial":34,"RT":389,"MT":259,"sideResp":1,"stimulus":"img/500/randomdotsizeEA/R/14_Ratio_500_L_5_R_10.png","xmouse":[796,796,796,796,796,796,796,796,796,796,796,796,796,796,796,796,792,785,763,750,732,724,699,659,634,597,562,538,520,520,520,520,520],"ymouse":[534,534,534,534,534,534,534,534,534,534,534,534,534,534,534,533,526,514,486,469,446,439,414,372,335,286,234,196,157,143,131,119,99],"timestamp_mouse":[15,40,48,68,87,107,127,148,168,188,208,227,248,267,287,309,328,347,369,389,408,427,449,468,488,508,527,548,569,588,608,628,648],"xSR":741.5,"ySR":469.95,"xT1":424.9,"yT1":0,"xT2":1058.1,"yT2":0,"toosoon":0,"cond_shown":"randomdotsizeEA","ratio_trial":500,"smaller_num":"5","larger_num":"10","correct_side":2,"subjID":"lauracamilamontegro11","gender":"1","age":"9","school":"4"},{"start_time":1552309642410,"click_time":1552309643395,"finger_time":1552309643175,"fix_duration":793.111663756732,"trial":35,"RT":765,"MT":220,"sideResp":2,"stimulus":"img/750/equaldotanddens/R/5_Ratio_750_L_15_R_20.png","xmouse":[792,792,792,792,792,792,792,792,792,792,792,792,792,792,793,793,793,793,793,793,793,793,793,793,793,793,793,793,793,793,793,793,793,793,794,800,808,823,851,954,1001,1044,1066,1086,1097,1100,1100,1101,1101,1100],"ymouse":[544,544,544,544,544,544,544,544,544,544,544,544,544,544,544,544,544,544,544,544,544,544,544,544,544,544,544,544,544,544,544,544,544,544,544,540,532,514,480,335,260,197,160,135,122,119,115,110,105,93],"timestamp_mouse":[9,23,45,64,84,105,125,143,164,184,205,223,244,263,285,304,324,343,363,384,403,423,443,463,484,503,523,545,563,584,604,623,645,663,683,705,724,744,765,785,804,824,843,863,884,904,924,945,963,985],"xSR":741.5,"ySR":469.95,"xT1":424.9,"yT1":0,"xT2":1058.1,"yT2":0,"toosoon":0,"cond_shown":"equaldotanddens","ratio_trial":750,"smaller_num":"15","larger_num":"20","correct_side":2,"subjID":"lauracamilamontegro11","gender":"1","age":"9","school":"4"},{"start_time":1552309645305,"click_time":1552309647174,"finger_time":1552309646294,"fix_duration":869.7360192952499,"trial":36,"RT":989,"MT":880,"sideResp":2,"stimulus":"img/500/randomdotsizeEA/R/9_Ratio_500_L_2_R_4.png","xmouse":[768,768,768,768,768,768,768,768,768,768,768,768,768,768,768,768,768,768,768,768,768,768,768,768,768,768,768,768,768,768,768,768,768,768,768,768,768,768,768,768,768,768,768,768,768,771,776,799,815,830,850,860,868,879,900,917,933,947,962,971,972,972,972,974,978,980,982,985,986,996,999,1005,1009,1012,1013,1013,1015,1016,1018,1023,1040,1046,1046,1046,1051,1053,1056,1058,1058,1058,1058,1058,1058,1059],"ymouse":[507,507,507,507,507,507,507,507,507,507,507,507,507,507,507,507,507,507,507,507,507,507,507,507,507,507,507,507,507,507,507,507,507,507,507,507,507,507,507,507,507,507,507,507,507,507,505,490,476,461,419,385,362,345,325,311,298,287,275,263,261,261,260,258,254,251,248,242,242,234,232,229,228,227,227,227,227,227,226,219,178,145,126,119,106,102,99,98,98,98,98,98,98,98],"timestamp_mouse":[12,35,50,69,89,108,129,148,170,189,208,229,250,270,288,309,329,348,370,389,409,428,448,469,488,508,530,548,569,589,610,629,648,669,688,710,729,749,768,789,810,829,849,869,889,908,929,949,969,989,1010,1029,1049,1070,1090,1108,1128,1148,1168,1189,1209,1229,1249,1269,1289,1308,1328,1348,1370,1390,1408,1429,1449,1468,1489,1509,1528,1548,1569,1589,1609,1628,1649,1669,1689,1708,1729,1748,1770,1789,1809,1829,1848,1869],"xSR":741.5,"ySR":469.95,"xT1":424.9,"yT1":0,"xT2":1058.1,"yT2":0,"toosoon":0,"cond_shown":"randomdotsizeEA","ratio_trial":500,"smaller_num":"2","larger_num":"4","correct_side":2,"subjID":"lauracamilamontegro11","gender":"1","age":"9","school":"4"},{"start_time":1552309648961,"click_time":1552309650335,"finger_time":1552309649834,"fix_duration":766.4540237587034,"trial":37,"RT":873,"MT":501,"sideResp":2,"stimulus":"img/250/equaldotanddens/R/4_Ratio_250_L_3_R_12.png","xmouse":[782,782,782,782,782,782,782,782,782,782,782,782,782,782,782,782,782,782,782,782,782,782,782,782,782,782,782,782,782,782,782,782,782,782,782,782,782,782,782,782,782,777,753,677,655,643,758,837,916,956,956,956,956,956,956,956,956,956,956,956,956,956,1211,1200,1186,1181,1177,1165,1149],"ymouse":[518,518,518,518,518,518,518,518,518,518,518,518,518,518,518,518,518,518,518,518,518,518,518,518,518,518,518,518,518,518,518,518,518,518,518,518,518,518,518,518,518,509,477,394,378,275,140,84,33,8,8,8,8,8,8,8,8,8,8,8,8,8,5,12,15,16,16,16,17],"timestamp_mouse":[12,38,52,73,93,114,133,153,173,192,213,232,252,272,293,312,333,353,374,393,414,433,452,474,492,513,533,554,572,593,613,634,653,673,694,712,733,754,773,793,812,833,854,873,893,913,934,952,973,993,1012,1032,1052,1072,1092,1113,1132,1153,1173,1194,1214,1234,1252,1272,1293,1313,1332,1352,1374],"xSR":741.5,"ySR":469.95,"xT1":424.9,"yT1":0,"xT2":1058.1,"yT2":0,"toosoon":0,"cond_shown":"equaldotanddens","ratio_trial":250,"smaller_num":"3","larger_num":"12","correct_side":2,"subjID":"lauracamilamontegro11","gender":"1","age":"9","school":"4"},{"start_time":1552309695233,"click_time":1552309696493,"finger_time":1552309695933,"fix_duration":678.1397572135023,"trial":38,"RT":700,"MT":560,"sideResp":1,"stimulus":"img/250/randomdotsizeEA/L/3_Ratio_250_L_8_R_2.png","xmouse":[792,792,792,792,792,792,792,792,792,792,792,792,792,792,792,792,792,792,792,792,792,792,792,792,792,792,792,792,792,792,792,792,792,791,765,707,616,502,313,277,271,271,271,271,271,271,271,271,271,271,271,271,403,416,416,416,416,416,416,417,417,419,423,452],"ymouse":[536,536,536,536,536,536,536,536,536,536,536,536,536,536,536,536,536,536,537,539,540,540,540,540,540,540,540,540,540,540,540,540,540,540,532,499,444,362,165,82,28,11,11,11,11,11,11,11,11,11,11,11,12,23,25,25,26,26,26,27,28,28,29,42],"timestamp_mouse":[10,20,42,59,80,100,121,139,159,181,199,219,239,261,279,300,321,340,360,381,401,420,439,459,479,501,519,540,559,580,600,620,639,660,680,700,721,740,761,779,800,821,840,861,881,900,920,940,959,980,999,1019,1040,1061,1080,1099,1120,1139,1160,1179,1200,1219,1240,1260],"xSR":741.5,"ySR":469.95,"xT1":424.9,"yT1":0,"xT2":1058.1,"yT2":0,"toosoon":0,"cond_shown":"randomdotsizeEA","ratio_trial":250,"smaller_num":"2","larger_num":"8","correct_side":1,"subjID":"lauracamilamontegro11","gender":"1","age":"9","school":"4"},{"start_time":1552309697819,"click_time":1552309698934,"finger_time":1552309698593,"fix_duration":323.5779001579866,"trial":39,"RT":774,"MT":341,"sideResp":2,"stimulus":"img/750/equaldotsize/R/7_Ratio_750_L_3_R_4.png","xmouse":[802,802,802,802,802,802,802,802,802,802,802,802,802,802,802,802,802,802,802,802,802,802,802,802,802,802,802,802,802,802,802,802,802,803,806,809,816,824,849,871,911,969,1062,1155,1171,1173,1171,1169,1165,1164,1164,1164,1164,1164,1164,1123],"ymouse":[535,535,535,535,535,535,535,535,535,535,535,535,535,535,535,535,535,535,535,535,535,535,535,535,535,535,536,536,536,536,536,536,535,532,526,519,507,492,454,424,376,309,210,103,67,46,30,19,5,2,2,2,2,2,2,7],"timestamp_mouse":[14,41,54,74,93,113,134,153,174,194,215,235,255,274,293,314,335,353,374,395,414,434,454,473,493,514,535,554,574,595,614,634,654,674,694,713,733,755,774,793,813,833,853,875,893,914,933,954,974,995,1014,1034,1054,1074,1095,1115],"xSR":741.5,"ySR":469.95,"xT1":424.9,"yT1":0,"xT2":1058.1,"yT2":0,"toosoon":0,"cond_shown":"equaldotsize","ratio_trial":750,"smaller_num":"3","larger_num":"4","correct_side":2,"subjID":"lauracamilamontegro11","gender":"1","age":"9","school":"4"},{"start_time":1552309701214,"click_time":1552309702094,"finger_time":1552309701913,"fix_duration":1239.2064202381418,"trial":40,"RT":699,"MT":181,"sideResp":1,"stimulus":"img/750/randomdotsizeEA/L/13_Ratio_750_L_8_R_6.png","xmouse":[770,770,770,770,770,770,770,770,770,770,770,770,770,770,770,770,770,770,770,770,771,771,771,771,771,771,771,771,771,771,771,771,769,766,739,721,705,692,673,664,641,602,556,460],"ymouse":[489,489,489,489,489,489,489,489,489,489,489,489,489,489,489,489,489,489,489,489,488,487,486,486,486,486,486,486,486,486,486,486,486,486,473,464,453,439,389,347,253,191,141,85],"timestamp_mouse":[25,39,59,79,99,119,139,158,178,199,218,238,258,280,298,319,340,358,378,400,419,439,459,479,499,519,540,560,579,599,619,639,659,679,699,718,739,760,780,798,819,839,859,880],"xSR":741.5,"ySR":469.95,"xT1":424.9,"yT1":0,"xT2":1058.1,"yT2":0,"toosoon":0,"cond_shown":"randomdotsizeEA","ratio_trial":750,"smaller_num":"6","larger_num":"8","correct_side":1,"subjID":"lauracamilamontegro11","gender":"1","age":"9","school":"4"},{"start_time":1552309703475,"click_time":1552309704754,"finger_time":1552309704372,"fix_duration":600.1406029038529,"trial":41,"RT":897,"MT":382,"sideResp":2,"stimulus":"img/900/equaldotanddens/L/4_Ratio_900_L_20_R_18.png","xmouse":[778,778,778,778,778,778,778,778,778,778,778,778,778,778,778,778,778,778,778,778,778,778,778,778,778,778,778,778,778,778,778,778,778,778,778,778,778,778,778,779,780,794,807,822,835,854,861,871,882,910,931,954,960,964,969,983,1001,1024,1046,1084,1113,1118,1118,1117],"ymouse":[517,517,517,517,517,517,517,517,517,517,517,517,517,517,517,517,517,517,517,517,517,517,517,517,517,517,517,517,517,517,517,517,517,517,517,517,517,517,517,516,516,506,495,476,452,398,374,349,324,282,251,213,199,189,184,175,173,171,171,163,146,130,113,95],"timestamp_mouse":[17,37,57,77,99,118,138,158,177,198,218,239,257,277,297,318,338,357,379,399,419,438,458,477,499,517,538,558,579,598,618,639,659,679,698,718,737,757,778,798,818,839,857,879,897,919,938,958,978,998,1018,1037,1057,1078,1098,1119,1137,1159,1179,1198,1218,1237,1258,1279],"xSR":741.5,"ySR":469.95,"xT1":424.9,"yT1":0,"xT2":1058.1,"yT2":0,"toosoon":0,"cond_shown":"equaldotanddens","ratio_trial":900,"smaller_num":"18","larger_num":"20","correct_side":1,"subjID":"lauracamilamontegro11","gender":"1","age":"9","school":"4"},{"start_time":1552309709175,"click_time":1552309710294,"finger_time":1552309709993,"fix_duration":862.032328497544,"trial":42,"RT":818,"MT":301,"sideResp":2,"stimulus":"img/250/equaldotsize/R/8_Ratio_250_L_1_R_4.png","xmouse":[786,786,786,786,786,785,785,785,785,785,785,785,785,785,785,785,785,785,785,785,785,785,785,785,785,785,785,785,785,785,785,785,785,785,785,785,785,796,806,828,897,934,953,961,964,973,980,987,997,1008,1024,1053,1067,1071,1075,1081],"ymouse":[509,509,509,509,509,513,515,517,518,518,518,518,518,518,518,518,518,518,518,518,518,518,518,518,518,518,518,518,518,518,518,518,518,518,518,518,518,516,514,508,470,429,388,341,317,274,256,239,222,205,187,152,131,124,112,98],"timestamp_mouse":[18,47,57,79,98,118,137,158,177,197,218,239,257,279,298,319,339,357,378,398,418,439,458,478,498,517,538,558,578,598,617,638,658,679,698,719,738,757,777,798,818,837,858,877,899,918,937,958,977,998,1018,1037,1057,1079,1099,1118],"xSR":741.5,"ySR":469.95,"xT1":424.9,"yT1":0,"xT2":1058.1,"yT2":0,"toosoon":0,"cond_shown":"equaldotsize","ratio_trial":250,"smaller_num":"1","larger_num":"4","correct_side":2,"subjID":"lauracamilamontegro11","gender":"1","age":"9","school":"4"},{"start_time":1552309712758,"click_time":1552309713933,"finger_time":1552309713654,"fix_duration":362.7002809440041,"trial":43,"RT":896,"MT":279,"sideResp":2,"stimulus":"img/750/randomdotsizeEA/R/2_Ratio_750_L_6_R_8.png","xmouse":[789,789,789,789,789,789,789,789,789,789,789,789,789,789,789,789,789,789,789,789,789,789,789,789,789,789,789,789,789,789,789,789,789,789,789,788,788,788,788,788,788,793,804,817,825,839,871,901,929,949,968,987,1026,1046,1069,1078,1083,1083,1083],"ymouse":[525,525,525,525,525,525,525,525,525,525,525,525,525,525,525,525,525,525,525,525,525,525,525,525,525,525,525,525,525,525,525,525,525,525,525,525,525,525,525,525,525,521,509,489,467,410,334,297,265,248,232,216,183,170,151,137,108,100,94],"timestamp_mouse":[15,37,54,74,94,116,136,154,175,196,216,235,256,276,296,314,334,356,374,395,415,435,455,476,494,514,535,555,574,594,616,635,655,675,695,716,735,755,775,796,816,835,854,875,896,915,936,954,975,995,1015,1034,1054,1074,1094,1115,1135,1155,1175],"xSR":741.5,"ySR":469.95,"xT1":424.9,"yT1":0,"xT2":1058.1,"yT2":0,"toosoon":0,"cond_shown":"randomdotsizeEA","ratio_trial":750,"smaller_num":"6","larger_num":"8","correct_side":2,"subjID":"lauracamilamontegro11","gender":"1","age":"9","school":"4"},{"start_time":1552309714966,"click_time":1552309716493,"finger_time":1552309716013,"fix_duration":250,"trial":44,"RT":1047,"MT":480,"sideResp":2,"stimulus":"img/750/equaldotsize/R/15_Ratio_750_L_9_R_12.png","xmouse":[765,765,765,765,765,765,765,765,764,764,764,765,765,765,765,765,765,765,765,765,771,796,808,814,814,814,814,815,815,815,815,815,811,806,795,789,784,774,771,769,769,767,765,764,764,764,764,764,764,764,764,779,802,842,900,925,943,948,953,961,969,985,988,991,993,997,1007,1021,1038,1050,1055,1055,1056,1056,1057,1058,1059],"ymouse":[526,526,526,526,526,525,524,524,525,530,539,544,544,544,544,544,544,544,544,544,545,545,545,547,547,547,549,550,551,551,551,552,552,552,552,552,552,546,543,541,539,529,522,515,508,502,502,502,502,502,501,489,469,425,343,286,184,163,144,129,113,78,61,52,48,48,48,51,56,58,58,59,60,60,60,60,60],"timestamp_mouse":[6,26,48,67,86,107,128,147,166,187,206,228,248,268,287,307,327,346,367,388,406,427,447,467,487,508,527,546,568,586,606,626,648,667,687,707,726,747,767,786,808,827,847,868,888,906,927,946,968,988,1007,1027,1047,1066,1087,1108,1127,1146,1167,1186,1206,1228,1247,1267,1286,1306,1328,1346,1367,1386,1407,1428,1447,1468,1487,1507,1527],"xSR":741.5,"ySR":469.95,"xT1":424.9,"yT1":0,"xT2":1058.1,"yT2":0,"toosoon":0,"cond_shown":"equaldotsize","ratio_trial":750,"smaller_num":"9","larger_num":"12","correct_side":2,"subjID":"lauracamilamontegro11","gender":"1","age":"9","school":"4"},{"start_time":1552309717833,"click_time":1552309718512,"finger_time":1552309718313,"fix_duration":358.3917728515936,"trial":45,"RT":480,"MT":199,"sideResp":1,"stimulus":"img/900/equaldotsize/L/1_Ratio_900_L_10_R_9.png","xmouse":[796,796,796,796,796,796,796,796,796,796,796,796,797,798,798,798,798,798,798,798,794,784,773,760,728,714,703,689,643,617,594,579,556,505,481],"ymouse":[525,525,525,525,525,525,525,525,525,525,525,525,525,524,524,524,524,523,521,517,513,501,490,477,435,418,398,374,302,266,232,208,169,101,77],"timestamp_mouse":[1,20,40,59,79,99,119,140,159,179,201,221,239,259,281,300,319,339,360,381,400,420,439,459,480,500,520,541,560,579,599,620,641,660,679],"xSR":741.5,"ySR":469.95,"xT1":424.9,"yT1":0,"xT2":1058.1,"yT2":0,"toosoon":0,"cond_shown":"equaldotsize","ratio_trial":900,"smaller_num":"9","larger_num":"10","correct_side":1,"subjID":"lauracamilamontegro11","gender":"1","age":"9","school":"4"},{"start_time":1552309719934,"click_time":1552309720633,"finger_time":1552309720553,"fix_duration":439.9773132726838,"trial":46,"RT":619,"MT":80,"sideResp":1,"stimulus":"img/500/randomdotsizeEA/L/10_Ratio_500_L_4_R_2.png","xmouse":[778,778,778,778,778,778,778,778,778,778,778,778,778,778,778,779,779,779,779,779,779,779,779,779,779,779,779,779,768,752,718,670,621,530,483],"ymouse":[522,522,522,522,522,522,522,522,522,522,522,522,522,522,522,522,522,522,522,522,522,522,522,522,522,522,522,521,506,487,453,397,333,156,37],"timestamp_mouse":[20,43,58,80,98,119,138,159,178,199,220,240,260,279,298,319,338,358,379,398,419,440,459,478,499,518,538,559,579,599,619,639,659,679,699],"xSR":741.5,"ySR":469.95,"xT1":424.9,"yT1":0,"xT2":1058.1,"yT2":0,"toosoon":0,"cond_shown":"randomdotsizeEA","ratio_trial":500,"smaller_num":"2","larger_num":"4","correct_side":1,"subjID":"lauracamilamontegro11","gender":"1","age":"9","school":"4"},{"start_time":1552309722550,"click_time":1552309723594,"finger_time":1552309723154,"fix_duration":696.158588595948,"trial":47,"RT":604,"MT":440,"sideResp":2,"stimulus":"img/750/equaldotanddens/L/8_Ratio_750_L_4_R_3.png","xmouse":[792,792,792,792,792,792,792,788,786,783,782,782,782,782,782,782,782,782,782,781,781,781,781,781,781,781,781,775,763,752,743,737,723,717,714,714,718,724,725,726,731,742,784,809,838,883,915,981,1005,1032,1052,1068,1081],"ymouse":[490,490,490,490,491,492,493,500,506,511,515,515,515,515,515,515,515,515,515,516,516,516,516,516,516,516,516,507,492,479,467,454,424,409,398,388,373,365,365,365,365,365,361,356,342,305,270,196,174,151,132,111,76],"timestamp_mouse":[12,24,43,64,83,102,123,142,164,184,203,222,243,263,282,302,323,343,363,382,403,424,443,463,482,504,523,543,564,584,604,624,644,662,682,703,723,743,762,782,803,823,843,862,882,902,922,944,962,982,1004,1023,1044],"xSR":741.5,"ySR":469.95,"xT1":424.9,"yT1":0,"xT2":1058.1,"yT2":0,"toosoon":0,"cond_shown":"equaldotanddens","ratio_trial":750,"smaller_num":"3","larger_num":"4","correct_side":1,"subjID":"lauracamilamontegro11","gender":"1","age":"9","school":"4"},{"start_time":1552309724684,"click_time":1552309725714,"finger_time":1552309724873,"fix_duration":250,"trial":48,"RT":189,"MT":841,"sideResp":1,"stimulus":"img/900/equaldotanddens/L/1_Ratio_900_L_10_R_9.png","xmouse":[780,770,766,766,762,762,764,764,764,764,765,765,765,765,765,766,766,766,768,769,769,769,769,769,769,769,769,769,770,770,770,770,765,749,723,675,661,649,627,606,553,537,534,534,534,534,533,531,529,529,527,515],"ymouse":[494,480,478,478,476,476,475,473,471,469,468,468,468,467,467,467,467,467,468,469,469,469,469,469,469,469,469,469,469,469,466,455,436,401,340,254,235,220,190,162,102,86,83,82,82,82,81,81,81,81,81,80],"timestamp_mouse":[8,30,60,68,88,109,128,150,169,189,210,228,248,269,289,310,328,349,368,388,409,428,448,470,489,509,529,549,568,588,609,628,650,668,689,710,728,748,769,788,809,828,849,869,888,909,928,949,968,988,1009,1029],"xSR":741.5,"ySR":469.95,"xT1":424.9,"yT1":0,"xT2":1058.1,"yT2":0,"toosoon":0,"cond_shown":"equaldotanddens","ratio_trial":900,"smaller_num":"9","larger_num":"10","correct_side":1,"subjID":"lauracamilamontegro11","gender":"1","age":"9","school":"4"},{"start_time":1552309728577,"click_time":1552309729812,"finger_time":1552309729114,"fix_duration":601.7567119236032,"trial":49,"RT":537,"MT":698,"sideResp":1,"stimulus":"img/750/equaldotsize/L/9_Ratio_750_L_4_R_3.png","xmouse":[787,787,787,787,787,787,787,787,787,787,787,787,787,787,787,787,787,785,785,785,784,783,781,780,774,764,731,713,697,680,652,640,625,612,594,577,571,563,554,541,503,481,459,452,452,449,445,444,443,443,451,480,503,524,547,554,554,551,544,537,531,519],"ymouse":[500,500,500,500,500,500,500,500,500,500,500,500,500,500,500,500,501,502,502,502,502,502,501,501,497,489,458,436,413,392,344,317,293,272,249,234,228,218,208,194,159,144,134,132,132,131,129,128,127,126,120,110,107,105,99,87,78,70,61,57,53,50],"timestamp_mouse":[17,47,56,77,95,115,136,155,176,195,215,236,255,276,296,316,335,355,376,396,415,435,457,477,495,515,537,556,576,595,616,635,656,677,695,717,735,755,776,796,817,835,855,876,896,916,936,955,976,996,1015,1035,1056,1076,1096,1117,1135,1157,1176,1197,1216,1235],"xSR":741.5,"ySR":469.95,"xT1":424.9,"yT1":0,"xT2":1058.1,"yT2":0,"toosoon":0,"cond_shown":"equaldotsize","ratio_trial":750,"smaller_num":"3","larger_num":"4","correct_side":1,"subjID":"lauracamilamontegro11","gender":"1","age":"9","school":"4"},{"start_time":1552309731878,"click_time":1552309732754,"finger_time":1552309732653,"fix_duration":1384.4602221191521,"trial":50,"RT":775,"MT":101,"sideResp":1,"stimulus":"img/500/equaldotanddens/L/8_Ratio_500_L_8_R_4.png","xmouse":[745,745,746,749,754,756,758,759,763,769,770,771,771,771,771,771,771,771,771,771,771,771,771,771,771,773,775,782,785,794,797,797,797,797,797,798,797,775,702,633,515,484,473,471],"ymouse":[492,492,492,492,493,493,493,493,488,481,478,477,477,477,477,477,477,477,477,477,477,477,477,477,478,483,490,505,511,523,526,526,526,526,526,526,511,473,374,293,156,121,105,99],"timestamp_mouse":[14,34,54,74,94,115,136,156,176,194,214,234,256,274,295,315,336,354,375,394,415,436,455,475,494,515,534,555,576,595,615,635,655,675,695,714,734,754,775,795,816,834,854,876],"xSR":741.5,"ySR":469.95,"xT1":424.9,"yT1":0,"xT2":1058.1,"yT2":0,"toosoon":0,"cond_shown":"equaldotanddens","ratio_trial":500,"smaller_num":"4","larger_num":"8","correct_side":1,"subjID":"lauracamilamontegro11","gender":"1","age":"9","school":"4"},{"start_time":1552309734346,"click_time":1552309739394,"finger_time":1552309738993,"fix_duration":250,"trial":51,"RT":4647,"MT":401,"sideResp":1,"stimulus":"img/500/equaldotanddens/L/11_Ratio_500_L_12_R_6.png","xmouse":[823,823,822,819,816,815,815,815,813,813,812,812,812,809,808,808,807,806,805,804,803,801,799,795,793,791,789,788,787,787,786,785,785,784,782,781,781,780,780,779,779,779,779,778,776,775,774,774,774,774,774,773,773,773,773,773,773,773,773,773,773,773,773,773,773,773,773,773,773,773,773,773,773,773,773,773,773,773,773,773,773,773,773,773,773,773,773,773,773,773,773,773,773,773,773,773,773,773,773,773,773,773,773,773,773,773,773,773,773,773,773,773,773,773,773,773,773,773,773,773,773,773,773,773,773,773,773,773,773,773,773,773,773,773,773,773,773,773,773,773,773,773,773,773,773,773,773,773,773,773,773,773,773,773,773,773,773,773,773,773,773,773,774,774,774,774,774,774,774,774,774,774,774,774,774,774,774,774,774,774,774,774,774,774,774,774,774,774,774,774,774,774,774,774,774,774,774,774,774,774,774,774,774,774,774,774,774,774,774,774,774,774,774,774,773,773,773,773,773,773,773,773,773,773,773,773,773,773,773,773,772,769,742,725,711,699,693,673,661,647,634,623,619,611,607,599,580,555,548,541,535,529,523],"ymouse":[528,528,528,527,526,526,526,526,526,525,525,525,525,525,524,524,523,523,521,520,519,516,513,507,504,500,498,497,496,496,496,495,495,494,492,490,489,488,488,488,488,488,488,488,489,493,499,505,507,508,509,509,510,511,512,513,514,515,515,515,515,515,515,515,515,515,515,515,516,517,517,517,517,517,517,518,519,520,521,521,522,522,522,522,522,522,522,522,522,522,522,522,522,522,522,522,522,522,522,522,522,522,522,522,522,522,522,522,522,522,522,522,522,522,522,522,522,522,522,522,522,522,522,522,522,522,522,522,522,522,522,522,522,522,522,522,522,522,522,522,522,522,522,522,522,522,522,522,522,522,522,522,522,522,522,522,522,522,522,523,523,523,521,520,520,520,520,520,520,520,520,520,520,520,520,520,520,520,520,520,520,520,520,520,520,520,520,520,520,520,520,520,520,520,520,520,520,520,520,520,520,520,520,520,520,520,520,520,520,520,520,520,520,520,521,521,521,521,521,521,521,521,521,521,521,521,521,521,521,521,517,512,466,443,424,405,391,360,347,334,319,302,295,284,275,262,235,199,182,165,145,119,70],"timestamp_mouse":[19,28,46,67,87,107,126,146,166,187,206,228,246,267,287,307,327,347,367,388,406,426,447,468,487,507,527,547,567,588,606,626,648,668,686,707,727,746,767,787,807,828,847,866,886,906,927,946,968,987,1007,1026,1047,1068,1086,1106,1126,1148,1166,1187,1207,1226,1246,1266,1286,1306,1326,1346,1367,1387,1408,1426,1446,1466,1487,1506,1526,1546,1567,1588,1608,1627,1646,1667,1688,1707,1726,1746,1767,1788,1806,1828,1846,1866,1887,1908,1926,1948,1967,1986,2006,2027,2048,2067,2086,2107,2127,2147,2166,2187,2206,2227,2248,2268,2288,2308,2327,2348,2367,2387,2407,2426,2446,2467,2486,2508,2527,2548,2567,2586,2607,2627,2646,2667,2688,2707,2726,2746,2767,2786,2806,2827,2846,2866,2888,2906,2928,2946,2967,2986,3008,3028,3046,3067,3087,3108,3128,3146,3167,3186,3208,3226,3246,3268,3288,3307,3327,3346,3366,3388,3408,3427,3446,3466,3487,3506,3527,3547,3566,3588,3606,3626,3646,3668,3687,3707,3726,3747,3767,3788,3807,3826,3847,3867,3887,3908,3926,3947,3966,3987,4008,4028,4046,4067,4086,4108,4128,4147,4167,4188,4207,4227,4247,4268,4286,4306,4327,4347,4367,4386,4406,4428,4447,4467,4487,4507,4528,4548,4567,4586,4607,4627,4647,4666,4686,4706,4727,4748,4766,4787,4807,4827,4847,4866,4886,4908,4927,4948,4966,4987,5007,5026,5048],"xSR":741.5,"ySR":469.95,"xT1":424.9,"yT1":0,"xT2":1058.1,"yT2":0,"toosoon":0,"cond_shown":"equaldotanddens","ratio_trial":500,"smaller_num":"6","larger_num":"12","correct_side":1,"subjID":"lauracamilamontegro11","gender":"1","age":"9","school":"4"},{"start_time":1552309741268,"click_time":1552309742073,"finger_time":1552309741793,"fix_duration":913.1940886746814,"trial":52,"RT":525,"MT":280,"sideResp":1,"stimulus":"img/900/randomdotsizeEA/L/2_Ratio_900_L_20_R_18.png","xmouse":[788,788,788,788,788,788,788,788,788,788,788,788,788,788,788,788,788,788,788,788,788,788,788,785,779,771,748,733,721,707,687,653,630,607,584,561,512,497,488,485,485],"ymouse":[510,510,510,510,510,510,510,510,510,510,510,510,510,510,510,510,510,510,510,510,509,506,502,497,488,476,452,439,429,415,392,351,323,296,269,243,183,162,141,110,85],"timestamp_mouse":[10,25,49,65,84,106,124,144,165,185,206,225,244,264,285,305,326,344,364,385,406,425,446,464,485,505,525,544,564,585,605,626,645,664,684,704,725,745,765,785,805],"xSR":741.5,"ySR":469.95,"xT1":424.9,"yT1":0,"xT2":1058.1,"yT2":0,"toosoon":0,"cond_shown":"randomdotsizeEA","ratio_trial":900,"smaller_num":"18","larger_num":"20","correct_side":1,"subjID":"lauracamilamontegro11","gender":"1","age":"9","school":"4"},{"start_time":1552309743723,"click_time":1552309744393,"finger_time":1552309744032,"fix_duration":887.878779887469,"trial":53,"RT":309,"MT":361,"sideResp":1,"stimulus":"img/750/equaldotanddens/R/4_Ratio_750_L_15_R_20.png","xmouse":[801,801,801,801,801,801,801,801,801,801,801,801,800,797,784,762,746,730,698,685,674,663,647,607,582,561,543,528,521,505,494,481,467,455],"ymouse":[499,499,499,499,499,499,499,499,499,498,496,495,493,490,481,467,455,441,407,388,371,353,323,258,233,210,195,177,167,145,131,116,101,85],"timestamp_mouse":[10,29,51,70,89,111,129,149,169,191,211,229,249,269,290,309,330,350,370,389,410,429,450,470,490,510,530,549,570,589,609,629,649,670],"xSR":741.5,"ySR":469.95,"xT1":424.9,"yT1":0,"xT2":1058.1,"yT2":0,"toosoon":0,"cond_shown":"equaldotanddens","ratio_trial":750,"smaller_num":"15","larger_num":"20","correct_side":2,"subjID":"lauracamilamontegro11","gender":"1","age":"9","school":"4"},{"start_time":1552309745364,"click_time":1552309746253,"finger_time":1552309745833,"fix_duration":250,"trial":54,"RT":469,"MT":420,"sideResp":2,"stimulus":"img/750/randomdotsizeEA/L/14_Ratio_750_L_8_R_6.png","xmouse":[803,803,803,803,803,803,803,803,803,803,803,803,803,803,803,803,803,802,801,801,799,795,792,792,794,841,901,925,944,960,974,988,1005,1008,1008,1008,1009,1026,1035,1043,1050,1055,1057,1058,1059],"ymouse":[517,518,521,521,521,521,521,521,521,521,521,522,524,526,526,526,526,527,527,527,525,507,484,442,408,308,287,283,281,278,272,258,206,176,150,124,112,87,76,67,60,50,47,46,45],"timestamp_mouse":[9,28,49,68,89,110,129,148,169,188,210,229,248,269,290,309,329,349,369,388,410,429,449,469,490,509,529,549,568,588,609,628,648,669,690,710,729,749,769,788,809,830,849,869,889],"xSR":741.5,"ySR":469.95,"xT1":424.9,"yT1":0,"xT2":1058.1,"yT2":0,"toosoon":0,"cond_shown":"randomdotsizeEA","ratio_trial":750,"smaller_num":"6","larger_num":"8","correct_side":1,"subjID":"lauracamilamontegro11","gender":"1","age":"9","school":"4"},{"start_time":1552309748289,"click_time":1552309749452,"finger_time":1552309749053,"fix_duration":1094.7325639727032,"trial":55,"RT":764,"MT":399,"sideResp":1,"stimulus":"img/750/equaldotsize/L/1_Ratio_750_L_20_R_15.png","xmouse":[795,795,795,795,795,795,795,795,795,795,795,795,795,795,795,795,795,795,795,795,795,795,795,795,795,795,795,795,795,795,795,795,795,795,795,792,782,771,743,715,680,665,650,635,620,609,597,592,588,580,575,567,563,560,555,544,539,534,523],"ymouse":[511,511,511,511,511,511,511,511,511,511,511,511,511,511,511,511,511,511,511,511,511,511,511,511,511,511,511,511,511,511,511,511,511,511,511,507,493,474,430,391,336,311,287,266,246,224,186,166,150,129,120,109,104,101,98,90,86,82,73],"timestamp_mouse":[14,28,45,64,84,104,123,143,164,183,203,225,243,263,283,303,325,343,363,385,403,424,444,465,484,504,524,545,563,584,605,625,644,664,685,704,725,743,764,784,804,823,844,863,884,904,925,944,963,983,1004,1024,1043,1063,1084,1104,1123,1143,1163],"xSR":741.5,"ySR":469.95,"xT1":424.9,"yT1":0,"xT2":1058.1,"yT2":0,"toosoon":0,"cond_shown":"equaldotsize","ratio_trial":750,"smaller_num":"15","larger_num":"20","correct_side":1,"subjID":"lauracamilamontegro11","gender":"1","age":"9","school":"4"},{"start_time":1552309750886,"click_time":1552309752074,"finger_time":1552309751853,"fix_duration":411.50395597479906,"trial":56,"RT":967,"MT":221,"sideResp":2,"stimulus":"img/250/equaldotsize/R/8_Ratio_250_L_1_R_4.png","xmouse":[782,782,782,782,782,782,783,783,783,783,783,783,783,783,783,783,783,783,783,783,783,783,783,783,783,783,783,783,783,783,783,783,783,783,783,783,783,783,783,783,783,783,784,786,786,788,793,797,805,812,834,854,880,912,943,998,1015,1041,1054,1060],"ymouse":[488,489,489,489,489,489,489,489,489,489,489,489,489,489,489,490,492,492,492,492,492,492,493,493,493,493,493,493,493,493,493,493,494,494,494,494,494,494,494,494,494,494,494,493,492,491,484,478,467,455,418,385,339,274,216,136,116,91,74,61],"timestamp_mouse":[13,40,46,67,86,108,128,146,166,188,207,227,248,268,286,307,326,346,366,388,407,426,447,467,488,507,527,548,567,587,606,627,646,668,687,707,727,746,767,786,808,828,847,867,887,907,927,946,967,986,1007,1026,1046,1067,1087,1107,1126,1147,1166,1187],"xSR":741.5,"ySR":469.95,"xT1":424.9,"yT1":0,"xT2":1058.1,"yT2":0,"toosoon":0,"cond_shown":"equaldotsize","ratio_trial":250,"smaller_num":"1","larger_num":"4","correct_side":2,"subjID":"lauracamilamontegro11","gender":"1","age":"9","school":"4"},{"start_time":1552309753744,"click_time":1552309754673,"finger_time":1552309754253,"fix_duration":250,"trial":57,"RT":509,"MT":420,"sideResp":1,"stimulus":"img/250/equaldotanddens/L/3_Ratio_250_L_8_R_2.png","xmouse":[758,759,759,760,760,760,760,760,760,760,760,760,760,761,761,761,761,761,761,761,761,761,761,756,742,703,671,627,614,599,583,565,529,520,518,518,517,516,516,515,514,510,496,489,487,486,484],"ymouse":[510,510,510,510,510,510,510,510,510,510,510,510,510,511,511,511,511,511,511,511,511,511,510,500,483,434,399,351,331,310,288,265,225,216,213,208,203,190,183,176,169,157,128,115,109,103,93],"timestamp_mouse":[12,34,49,68,89,108,130,148,168,188,208,229,248,269,290,309,329,349,370,388,408,429,449,468,489,509,529,550,568,588,609,628,649,668,688,709,729,749,768,789,808,828,849,868,888,910,929],"xSR":741.5,"ySR":469.95,"xT1":424.9,"yT1":0,"xT2":1058.1,"yT2":0,"toosoon":0,"cond_shown":"equaldotanddens","ratio_trial":250,"smaller_num":"2","larger_num":"8","correct_side":1,"subjID":"lauracamilamontegro11","gender":"1","age":"9","school":"4"},{"start_time":1552309756308,"click_time":1552309757533,"finger_time":1552309757192,"fix_duration":332.1180041196409,"trial":58,"RT":884,"MT":341,"sideResp":1,"stimulus":"img/900/randomdotsizeEA/R/5_Ratio_900_L_9_R_10.png","xmouse":[786,786,786,786,786,786,786,786,786,786,786,786,786,786,786,786,786,786,786,785,785,784,784,784,784,784,784,784,784,784,784,784,784,784,784,786,788,790,792,792,792,792,791,790,767,752,732,711,685,673,668,668,668,669,661,638,611,587,560,541,533,524],"ymouse":[504,504,504,504,505,512,514,514,514,514,514,514,514,514,514,514,514,514,514,513,511,509,507,505,501,501,501,501,501,501,501,501,501,501,501,499,497,494,490,488,488,487,484,483,467,460,447,432,407,384,335,312,288,268,218,171,123,90,61,39,31,26],"timestamp_mouse":[11,24,50,65,86,105,124,145,164,186,205,225,245,264,286,305,324,344,366,384,405,426,445,465,485,504,524,545,565,584,605,625,645,664,685,704,724,745,764,785,805,826,845,865,884,904,924,944,965,984,1004,1024,1044,1065,1085,1104,1125,1144,1165,1185,1204,1225],"xSR":741.5,"ySR":469.95,"xT1":424.9,"yT1":0,"xT2":1058.1,"yT2":0,"toosoon":0,"cond_shown":"randomdotsizeEA","ratio_trial":900,"smaller_num":"9","larger_num":"10","correct_side":2,"subjID":"lauracamilamontegro11","gender":"1","age":"9","school":"4"},{"start_time":1552309758799,"click_time":1552309760153,"finger_time":1552309759572,"fix_duration":284.81770260073694,"trial":59,"RT":773,"MT":581,"sideResp":2,"stimulus":"img/250/randomdotsizeEA/R/10_Ratio_250_L_4_R_16.png","xmouse":[803,803,803,803,803,803,803,803,803,803,803,803,803,803,803,803,803,803,803,803,803,802,802,802,801,801,801,801,801,801,801,801,801,801,802,805,811,819,828,850,861,869,875,884,896,904,913,918,924,931,933,940,942,950,956,972,978,985,990,995,1006,1012,1022,1037,1047,1056,1058,1061],"ymouse":[515,515,515,515,515,515,515,515,515,515,515,515,515,515,515,515,515,515,515,515,515,515,515,515,515,515,515,515,514,512,511,509,507,505,498,491,483,471,459,424,410,395,380,358,331,316,301,288,275,248,234,214,209,195,184,170,164,158,152,145,132,127,119,109,103,95,93,91],"timestamp_mouse":[14,41,54,73,93,115,135,153,173,193,214,233,253,274,294,314,333,353,374,393,413,433,454,473,494,513,534,553,574,594,614,633,653,673,694,714,734,754,773,795,813,833,854,874,894,913,934,954,974,995,1013,1034,1054,1074,1093,1114,1133,1154,1174,1194,1214,1233,1254,1273,1294,1314,1333,1354],"xSR":741.5,"ySR":469.95,"xT1":424.9,"yT1":0,"xT2":1058.1,"yT2":0,"toosoon":0,"cond_shown":"randomdotsizeEA","ratio_trial":250,"smaller_num":"4","larger_num":"16","correct_side":2,"subjID":"lauracamilamontegro11","gender":"1","age":"9","school":"4"},{"start_time":1552309761700,"click_time":1552309763272,"finger_time":1552309762453,"fix_duration":385.1892269687668,"trial":60,"RT":753,"MT":819,"sideResp":2,"stimulus":"img/500/equaldotanddens/R/2_Ratio_500_L_3_R_6.png","xmouse":[778,778,778,778,778,778,778,778,778,778,778,778,778,778,778,778,778,778,778,778,778,778,778,778,778,778,778,778,778,778,778,778,778,779,781,784,787,789,790,792,798,801,805,808,819,822,824,827,830,837,840,845,849,856,883,895,910,919,932,950,960,966,975,981,985,992,993,995,996,1000,1002,1008,1017,1030,1054,1056,1056,1056,1059],"ymouse":[502,502,502,502,502,502,502,502,502,502,502,502,502,502,502,502,502,502,502,502,502,502,502,502,502,502,502,502,502,502,502,502,502,500,495,489,480,465,458,450,434,427,422,418,401,398,394,386,381,369,360,350,339,325,286,265,243,222,200,177,169,161,153,147,142,130,124,117,114,109,106,104,101,99,97,96,96,96,95],"timestamp_mouse":[15,39,52,73,93,114,133,153,173,192,213,233,254,273,294,313,334,352,373,392,414,433,452,473,493,514,534,552,572,593,613,634,653,672,692,713,733,753,773,793,813,832,853,872,893,913,932,952,972,993,1013,1033,1052,1073,1094,1112,1133,1153,1172,1193,1212,1233,1252,1272,1292,1312,1333,1353,1374,1393,1412,1432,1453,1473,1494,1512,1533,1553,1572],"xSR":741.5,"ySR":469.95,"xT1":424.9,"yT1":0,"xT2":1058.1,"yT2":0,"toosoon":0,"cond_shown":"equaldotanddens","ratio_trial":500,"smaller_num":"3","larger_num":"6","correct_side":2,"subjID":"lauracamilamontegro11","gender":"1","age":"9","school":"4"},{"start_time":1552309764544,"click_time":1552309765832,"finger_time":1552309765352,"fix_duration":250,"trial":61,"RT":808,"MT":480,"sideResp":1,"stimulus":"img/900/equaldotanddens/R/3_Ratio_900_L_9_R_10.png","xmouse":[781,780,780,780,780,780,780,780,780,780,780,780,780,779,779,774,773,773,772,772,772,772,772,772,772,772,772,772,772,772,772,772,772,770,769,768,767,763,759,751,739,720,676,660,649,646,633,608,595,587,582,578,569,561,555,547,544,537,532,524,517,510,503,490,484],"ymouse":[554,554,554,554,554,554,554,554,554,554,554,554,554,553,553,552,552,551,551,551,551,551,551,551,551,551,551,551,551,551,551,551,551,551,550,550,550,550,548,545,538,524,497,484,467,460,428,386,368,354,343,329,293,276,262,243,233,210,196,177,162,149,132,104,91],"timestamp_mouse":[13,34,49,70,89,109,129,148,170,188,209,228,249,270,289,310,328,348,368,388,408,429,449,469,488,509,528,548,569,588,608,628,649,668,689,708,728,749,768,789,808,830,850,868,889,908,929,949,968,989,1009,1029,1049,1068,1088,1109,1128,1149,1168,1189,1208,1229,1249,1269,1288],"xSR":741.5,"ySR":469.95,"xT1":424.9,"yT1":0,"xT2":1058.1,"yT2":0,"toosoon":0,"cond_shown":"equaldo