[{"start_time":1552068533745,"click_time":1552068535804,"finger_time":1552068535263,"fix_duration":678.3296869053648,"trial":0,"RT":1518,"MT":541,"sideResp":2,"stimulus":[],"xmouse":[793,793,793,793,793,793,793,793,793,793,793,793,793,793,793,793,793,793,793,793,793,793,793,793,793,793,793,793,793,793,793,793,793,793,793,793,793,793,793,793,793,793,793,793,793,793,793,793,793,793,793,793,793,793,793,793,793,793,793,793,793,793,793,793,793,793,793,793,793,793,793,793,793,793,799,827,869,909,943,987,995,997,997,997,997,997,997,997,1002,1011,1012,1015,1018,1023,1055,1074,1086,1091,1092,1093,1093,1093,1092,1092],"ymouse":[545,545,545,545,545,545,545,545,545,545,545,545,545,545,545,545,545,545,545,545,545,545,545,545,545,545,545,545,545,545,545,545,545,545,545,545,545,545,545,545,545,545,545,545,545,545,545,545,545,545,545,545,545,545,545,545,545,545,545,545,545,545,545,545,545,545,545,545,545,545,545,545,545,545,539,512,462,411,364,272,227,202,186,181,180,180,178,176,168,155,152,149,148,146,145,145,142,140,139,137,128,121,112,97],"timestamp_mouse":[10,18,56,58,78,99,118,139,159,177,198,219,238,259,277,298,319,338,359,378,398,418,439,459,478,497,519,539,557,578,598,619,637,657,678,697,718,738,758,778,799,817,838,859,878,898,918,939,959,979,998,1018,1037,1059,1078,1097,1118,1139,1159,1178,1198,1219,1239,1258,1278,1298,1318,1339,1358,1378,1397,1419,1439,1457,1478,1497,1518,1537,1557,1579,1597,1618,1639,1658,1678,1697,1717,1737,1757,1779,1797,1818,1837,1857,1878,1898,1918,1938,1958,1978,1999,2017,2037,2058],"xSR":741.5,"ySR":501.8,"xT1":424.9,"yT1":0,"xT2":1058.1,"yT2":0,"toosoon":0,"cond_shown":"Congruent","ratio_trial":200,"L_num":7,"L_den":15,"R_num":18,"R_den":27,"correct_side":2,"subjID":"LauraCamilaRobayoRodriguez15","gender":"1","age":"9","school":"4","test":{"fix_dur":[250,1500],"timestim":1000,"targets_dim":[100,100],"targets_relative_coord":[0.3,0.7],"size_stim":[880,420],"start_dim":[100,100],"size_start":[300,300],"size_fix":60,"samplingrate":20,"img_types":["Congruent","Incongruent"],"ratios":[100,200,300],"rep_conds":19,"nTrials":120,"trials_to_rest":500,"Trials_order":[14,16,96,57,32,62,94,100,54,56,82,85,11,109,36,28,10,44,106,84,69,76,95,19,43,108,0,34,33,40,58,30,20,61,42,118,119,2,90,53,46,99,45,38,55,80,88,13,103,87,49,7,50,47,18,64,9,112,67,79,71,59,75,93,31,111,70,5,17,27,92,12,22,48,15,91,24,51,1,21,114,39,110,104,77,66,81,29,102,6,68,65,63,60,74,52,117,89,98,83,86,26,25,116,107,4,78,8,72,113,35,101,23,105,115,3,73,37,41,97],"cond_shown":["Congruent","Congruent","Congruent","Incongruent","Congruent","Congruent","Congruent","Congruent","Congruent","Congruent","Congruent","Incongruent","Incongruent","Incongruent","Congruent","Congruent","Congruent","Congruent","Congruent","Congruent","Incongruent","Congruent","Incongruent","Incongruent","Incongruent","Congruent","Congruent","Congruent","Incongruent","Congruent","Congruent","Congruent","Congruent","Incongruent","Congruent","Congruent","Incongruent","Congruent","Congruent","Incongruent","Congruent","Incongruent","Incongruent","Congruent","Incongruent","Congruent","Congruent","Incongruent","Incongruent","Incongruent","Incongruent","Incongruent","Congruent","Incongruent","Congruent","Congruent","Incongruent","Congruent","Incongruent","Incongruent","Incongruent","Incongruent","Incongruent","Incongruent","Incongruent","Incongruent","Congruent","Incongruent","Incongruent","Incongruent","Congruent","Congruent","Congruent","Congruent","Incongruent","Incongruent","Congruent","Incongruent","Incongruent","Incongruent","Congruent","Incongruent","Congruent","Congruent","Incongruent","Congruent","Incongruent","Incongruent","Congruent","Congruent","Congruent","Incongruent","Incongruent","Congruent","Congruent","Congruent","Incongruent","Incongruent","Congruent","Incongruent","Congruent","Congruent","Incongruent","Congruent","Incongruent","Congruent","Congruent","Congruent","Congruent","Incongruent","Incongruent","Incongruent","Incongruent","Incongruent","Incongruent","Incongruent","Incongruent","Incongruent","Incongruent","Incongruent"],"ratio_trial":[200,300,100,200,200,200,300,300,100,200,300,100,300,100,100,300,300,200,300,100,200,300,300,100,100,100,100,300,200,300,300,100,200,100,100,300,300,200,100,300,300,200,200,200,100,200,300,100,100,200,100,100,200,300,100,300,200,300,100,100,300,300,200,200,100,200,300,300,300,200,200,100,300,100,200,100,100,200,100,200,100,200,200,200,300,100,200,300,100,100,200,300,200,100,200,300,200,300,200,300,200,200,100,200,300,300,100,200,100,300,300,300,300,200,100,200,100,100,300,100],"left_num":[7,18,10,7,15,8,20,3,11,3,8,6,1,12,12,11,20,3,8,15,9,20,4,3,8,10,6,1,7,4,2,7,9,3,6,1,8,13,7,4,20,1,7,6,10,6,1,8,6,4,10,13,3,1,2,3,3,3,6,6,2,2,1,3,9,3,3,7,4,11,6,7,20,3,3,12,11,6,12,4,4,7,3,4,4,11,7,13,11,1,6,2,3,4,9,20,14,4,7,7,12,9,6,7,4,3,3,6,11,13,13,8,13,14,9,4,9,9,4,6],"right_num":[18,9,3,12,4,3,14,2,4,14,10,11,2,9,13,2,8,14,1,13,8,14,8,8,1,3,15,3,4,13,10,15,13,7,15,7,9,14,9,2,13,2,14,7,8,3,19,6,3,14,9,6,7,3,6,2,11,2,3,13,6,6,3,11,6,1,2,8,2,3,7,9,13,2,1,9,4,3,9,1,15,8,7,3,2,6,8,12,6,3,7,6,11,15,4,8,6,2,18,8,6,4,3,18,2,2,4,3,4,12,12,9,12,12,20,14,14,6,6,13],"left_den":[15,20,25,10,25,15,25,6,22,10,15,10,2,24,30,22,25,10,16,25,15,25,5,5,20,25,12,5,15,20,20,14,30,9,12,20,10,26,14,20,25,3,10,12,25,15,3,16,12,6,25,26,10,2,5,6,4,6,12,10,4,4,2,4,18,10,6,10,20,20,12,14,25,6,10,24,22,20,24,30,10,10,10,10,20,22,10,26,22,2,12,4,4,10,20,25,30,20,15,10,15,20,12,15,20,6,20,15,22,26,26,10,26,30,10,6,15,18,5,10],"right_den":[27,15,10,24,10,9,28,10,10,28,12,22,10,15,26,10,16,28,5,26,10,28,16,16,2,10,25,6,6,26,25,25,26,30,25,20,18,20,15,4,26,15,28,10,16,15,30,10,5,30,18,10,14,15,12,10,20,10,5,26,30,30,10,20,10,2,10,20,4,4,10,15,26,5,2,15,10,6,15,3,30,16,14,15,4,15,16,15,15,5,10,30,20,30,16,16,9,4,27,20,10,16,5,27,4,10,16,15,10,15,15,18,15,18,25,30,28,10,12,26],"correct_side":[2,1,1,1,1,1,1,1,1,2,2,1,1,2,2,1,1,2,1,1,2,1,1,1,2,1,2,2,2,2,2,2,2,1,2,2,1,2,2,2,1,1,1,2,2,1,2,2,2,1,2,2,2,1,2,1,1,1,2,1,1,1,1,1,2,2,1,1,2,2,2,2,1,1,2,2,1,2,2,2,2,1,2,1,2,1,1,2,1,2,2,1,1,2,1,1,2,2,2,1,1,1,2,2,2,1,2,1,1,2,2,1,2,2,1,1,1,2,1,1],"img_shown":["img2/200/Congruent/R/C_Dist_200_LN_7_LD_15_RN_18_RD_27_1.png","img2/300/Congruent/L/C_Dist_300_LN_18_LD_20_RN_9_RD_15_0.png","img2/100/Congruent/L/C_Dist_100_LN_10_LD_25_RN_3_RD_10_0.png","img2/200/Incongruent/L/I_Dist_200_LN_7_LD_10_RN_12_RD_24_0.png","img2/200/Congruent/L/C_Dist_200_LN_15_LD_25_RN_4_RD_10_0.png","img2/200/Congruent/L/C_Dist_200_LN_8_LD_15_RN_3_RD_9_0.png","img2/300/Congruent/L/C_Dist_300_LN_20_LD_25_RN_14_RD_28_0.png","img2/300/Congruent/L/C_Dist_300_LN_3_LD_6_RN_2_RD_10_0.png","img2/100/Congruent/L/C_Dist_100_LN_11_LD_22_RN_4_RD_10_0.png","img2/200/Congruent/R/C_Dist_200_LN_3_LD_10_RN_14_RD_28_1.png","img2/300/Congruent/R/C_Dist_300_LN_8_LD_15_RN_10_RD_12_1.png","img2/100/Incongruent/L/I_Dist_100_LN_6_LD_10_RN_11_RD_22_0.png","img2/300/Incongruent/L/I_Dist_300_LN_1_LD_2_RN_2_RD_10_0.png","img2/100/Incongruent/R/I_Dist_100_LN_12_LD_24_RN_9_RD_15_1.png","img2/100/Congruent/R/C_Dist_100_LN_12_LD_30_RN_13_RD_26_1.png","img2/300/Congruent/L/C_Dist_300_LN_11_LD_22_RN_2_RD_10_0.png","img2/300/Congruent/L/C_Dist_300_LN_20_LD_25_RN_8_RD_16_0.png","img2/200/Congruent/R/C_Dist_200_LN_3_LD_10_RN_14_RD_28_1.png","img2/300/Congruent/L/C_Dist_300_LN_8_LD_16_RN_1_RD_5_0.png","img2/100/Congruent/L/C_Dist_100_LN_15_LD_25_RN_13_RD_26_0.png","img2/200/Incongruent/R/I_Dist_200_LN_9_LD_15_RN_8_RD_10_1.png","img2/300/Congruent/L/C_Dist_300_LN_20_LD_25_RN_14_RD_28_0.png","img2/300/Incongruent/L/I_Dist_300_LN_4_LD_5_RN_8_RD_16_0.png","img2/100/Incongruent/L/I_Dist_100_LN_3_LD_5_RN_8_RD_16_0.png","img2/100/Incongruent/R/I_Dist_100_LN_8_LD_20_RN_1_RD_2_1.png","img2/100/Congruent/L/C_Dist_100_LN_10_LD_25_RN_3_RD_10_0.png","img2/100/Congruent/R/C_Dist_100_LN_6_LD_12_RN_15_RD_25_1.png","img2/300/Congruent/R/C_Dist_300_LN_1_LD_5_RN_3_RD_6_1.png","img2/200/Incongruent/R/I_Dist_200_LN_7_LD_15_RN_4_RD_6_1.png","img2/300/Congruent/R/C_Dist_300_LN_4_LD_20_RN_13_RD_26_1.png","img2/300/Congruent/R/C_Dist_300_LN_2_LD_20_RN_10_RD_25_1.png","img2/100/Congruent/R/C_Dist_100_LN_7_LD_14_RN_15_RD_25_1.png","img2/200/Congruent/R/C_Dist_200_LN_9_LD_30_RN_13_RD_26_1.png","img2/100/Incongruent/L/I_Dist_100_LN_3_LD_9_RN_7_RD_30_0.png","img2/100/Congruent/R/C_Dist_100_LN_6_LD_12_RN_15_RD_25_1.png","img2/300/Congruent/R/C_Dist_300_LN_1_LD_20_RN_7_RD_20_1.png","img2/300/Incongruent/L/I_Dist_300_LN_8_LD_10_RN_9_RD_18_0.png","img2/200/Congruent/R/C_Dist_200_LN_13_LD_26_RN_14_RD_20_1.png","img2/100/Congruent/R/C_Dist_100_LN_7_LD_14_RN_9_RD_15_1.png","img2/300/Incongruent/R/I_Dist_300_LN_4_LD_20_RN_2_RD_4_1.png","img2/300/Congruent/L/C_Dist_300_LN_20_LD_25_RN_13_RD_26_0.png","img2/200/Incongruent/L/I_Dist_200_LN_1_LD_3_RN_2_RD_15_0.png","img2/200/Incongruent/L/I_Dist_200_LN_7_LD_10_RN_14_RD_28_0.png","img2/200/Congruent/R/C_Dist_200_LN_6_LD_12_RN_7_RD_10_1.png","img2/100/Incongruent/R/I_Dist_100_LN_10_LD_25_RN_8_RD_16_1.png","img2/200/Congruent/L/C_Dist_200_LN_6_LD_15_RN_3_RD_15_0.png","img2/300/Congruent/R/C_Dist_300_LN_1_LD_3_RN_19_RD_30_1.png","img2/100/Incongruent/R/I_Dist_100_LN_8_LD_16_RN_6_RD_10_1.png","img2/100/Incongruent/R/I_Dist_100_LN_6_LD_12_RN_3_RD_5_1.png","img2/200/Incongruent/L/I_Dist_200_LN_4_LD_6_RN_14_RD_30_0.png","img2/100/Incongruent/R/I_Dist_100_LN_10_LD_25_RN_9_RD_18_1.png","img2/100/Incongruent/R/I_Dist_100_LN_13_LD_26_RN_6_RD_10_1.png","img2/200/Congruent/R/C_Dist_200_LN_3_LD_10_RN_7_RD_14_1.png","img2/300/Incongruent/L/I_Dist_300_LN_1_LD_2_RN_3_RD_15_0.png","img2/100/Congruent/R/C_Dist_100_LN_2_LD_5_RN_6_RD_12_1.png","img2/300/Congruent/L/C_Dist_300_LN_3_LD_6_RN_2_RD_10_0.png","img2/200/Incongruent/L/I_Dist_200_LN_3_LD_4_RN_11_RD_20_0.png","img2/300/Congruent/L/C_Dist_300_LN_3_LD_6_RN_2_RD_10_0.png","img2/100/Incongruent/R/I_Dist_100_LN_6_LD_12_RN_3_RD_5_1.png","img2/100/Incongruent/L/I_Dist_100_LN_6_LD_10_RN_13_RD_26_0.png","img2/300/Incongruent/L/I_Dist_300_LN_2_LD_4_RN_6_RD_30_0.png","img2/300/Incongruent/L/I_Dist_300_LN_2_LD_4_RN_6_RD_30_0.png","img2/200/Incongruent/L/I_Dist_200_LN_1_LD_2_RN_3_RD_10_0.png","img2/200/Incongruent/L/I_Dist_200_LN_3_LD_4_RN_11_RD_20_0.png","img2/100/Incongruent/R/I_Dist_100_LN_9_LD_18_RN_6_RD_10_1.png","img2/200/Incongruent/R/I_Dist_200_LN_3_LD_10_RN_1_RD_2_1.png","img2/300/Congruent/L/C_Dist_300_LN_3_LD_6_RN_2_RD_10_0.png","img2/300/Incongruent/L/I_Dist_300_LN_7_LD_10_RN_8_RD_20_0.png","img2/300/Incongruent/R/I_Dist_300_LN_4_LD_20_RN_2_RD_4_1.png","img2/200/Incongruent/R/I_Dist_200_LN_11_LD_20_RN_3_RD_4_1.png","img2/200/Congruent/R/C_Dist_200_LN_6_LD_12_RN_7_RD_10_1.png","img2/100/Congruent/R/C_Dist_100_LN_7_LD_14_RN_9_RD_15_1.png","img2/300/Congruent/L/C_Dist_300_LN_20_LD_25_RN_13_RD_26_0.png","img2/100/Congruent/L/C_Dist_100_LN_3_LD_6_RN_2_RD_5_0.png","img2/200/Incongruent/R/I_Dist_200_LN_3_LD_10_RN_1_RD_2_1.png","img2/100/Incongruent/R/I_Dist_100_LN_12_LD_24_RN_9_RD_15_1.png","img2/100/Congruent/L/C_Dist_100_LN_11_LD_22_RN_4_RD_10_0.png","img2/200/Incongruent/R/I_Dist_200_LN_6_LD_20_RN_3_RD_6_1.png","img2/100/Incongruent/R/I_Dist_100_LN_12_LD_24_RN_9_RD_15_1.png","img2/200/Incongruent/R/I_Dist_200_LN_4_LD_30_RN_1_RD_3_1.png","img2/100/Congruent/R/C_Dist_100_LN_4_LD_10_RN_15_RD_30_1.png","img2/200/Incongruent/L/I_Dist_200_LN_7_LD_10_RN_8_RD_16_0.png","img2/200/Congruent/R/C_Dist_200_LN_3_LD_10_RN_7_RD_14_1.png","img2/200/Congruent/L/C_Dist_200_LN_4_LD_10_RN_3_RD_15_0.png","img2/300/Incongruent/R/I_Dist_300_LN_4_LD_20_RN_2_RD_4_1.png","img2/100/Congruent/L/C_Dist_100_LN_11_LD_22_RN_6_RD_15_0.png","img2/200/Incongruent/L/I_Dist_200_LN_7_LD_10_RN_8_RD_16_0.png","img2/300/Incongruent/R/I_Dist_300_LN_13_LD_26_RN_12_RD_15_1.png","img2/100/Congruent/L/C_Dist_100_LN_11_LD_22_RN_6_RD_15_0.png","img2/100/Congruent/R/C_Dist_100_LN_1_LD_2_RN_3_RD_5_1.png","img2/200/Congruent/R/C_Dist_200_LN_6_LD_12_RN_7_RD_10_1.png","img2/300/Incongruent/L/I_Dist_300_LN_2_LD_4_RN_6_RD_30_0.png","img2/200/Incongruent/L/I_Dist_200_LN_3_LD_4_RN_11_RD_20_0.png","img2/100/Congruent/R/C_Dist_100_LN_4_LD_10_RN_15_RD_30_1.png","img2/200/Congruent/L/C_Dist_200_LN_9_LD_20_RN_4_RD_16_0.png","img2/300/Congruent/L/C_Dist_300_LN_20_LD_25_RN_8_RD_16_0.png","img2/200/Incongruent/R/I_Dist_200_LN_14_LD_30_RN_6_RD_9_1.png","img2/300/Incongruent/R/I_Dist_300_LN_4_LD_20_RN_2_RD_4_1.png","img2/200/Congruent/R/C_Dist_200_LN_7_LD_15_RN_18_RD_27_1.png","img2/300/Incongruent/L/I_Dist_300_LN_7_LD_10_RN_8_RD_20_0.png","img2/200/Congruent/L/C_Dist_200_LN_12_LD_15_RN_6_RD_10_0.png","img2/200/Congruent/L/C_Dist_200_LN_9_LD_20_RN_4_RD_16_0.png","img2/100/Incongruent/R/I_Dist_100_LN_6_LD_12_RN_3_RD_5_1.png","img2/200/Congruent/R/C_Dist_200_LN_7_LD_15_RN_18_RD_27_1.png","img2/300/Incongruent/R/I_Dist_300_LN_4_LD_20_RN_2_RD_4_1.png","img2/300/Congruent/L/C_Dist_300_LN_3_LD_6_RN_2_RD_10_0.png","img2/100/Congruent/R/C_Dist_100_LN_3_LD_20_RN_4_RD_16_1.png","img2/200/Congruent/L/C_Dist_200_LN_6_LD_15_RN_3_RD_15_0.png","img2/100/Congruent/L/C_Dist_100_LN_11_LD_22_RN_4_RD_10_0.png","img2/300/Incongruent/R/I_Dist_300_LN_13_LD_26_RN_12_RD_15_1.png","img2/300/Incongruent/R/I_Dist_300_LN_13_LD_26_RN_12_RD_15_1.png","img2/300/Incongruent/L/I_Dist_300_LN_8_LD_10_RN_9_RD_18_0.png","img2/300/Incongruent/R/I_Dist_300_LN_13_LD_26_RN_12_RD_15_1.png","img2/200/Incongruent/R/I_Dist_200_LN_14_LD_30_RN_12_RD_18_1.png","img2/100/Incongruent/L/I_Dist_100_LN_9_LD_10_RN_20_RD_25_0.png","img2/200/Incongruent/L/I_Dist_200_LN_4_LD_6_RN_14_RD_30_0.png","img2/100/Incongruent/L/I_Dist_100_LN_9_LD_15_RN_14_RD_28_0.png","img2/100/Incongruent/R/I_Dist_100_LN_9_LD_18_RN_6_RD_10_1.png","img2/300/Incongruent/L/I_Dist_300_LN_4_LD_5_RN_6_RD_12_0.png","img2/100/Incongruent/L/I_Dist_100_LN_6_LD_10_RN_13_RD_26_0.png"],"dist100_C":[["C_Dist_100_LN_10_LD_25_RN_3_RD_10_0.png","C_Dist_100_LN_11_LD_22_RN_4_RD_10_0.png","C_Dist_100_LN_11_LD_22_RN_6_RD_15_0.png","C_Dist_100_LN_15_LD_25_RN_13_RD_26_0.png","C_Dist_100_LN_3_LD_6_RN_2_RD_5_0.png","C_Dist_100_LN_6_LD_20_RN_5_RD_25_0.png","C_Dist_100_LN_8_LD_16_RN_2_RD_5_0.png","C_Dist_100_LN_9_LD_15_RN_8_RD_16_0.png"],["C_Dist_100_LN_1_LD_2_RN_18_RD_30_1.png","C_Dist_100_LN_1_LD_2_RN_3_RD_5_1.png","C_Dist_100_LN_12_LD_30_RN_13_RD_26_1.png","C_Dist_100_LN_2_LD_5_RN_11_RD_22_1.png","C_Dist_100_LN_2_LD_5_RN_6_RD_12_1.png","C_Dist_100_LN_3_LD_20_RN_4_RD_16_1.png","C_Dist_100_LN_4_LD_10_RN_15_RD_30_1.png","C_Dist_100_LN_4_LD_8_RN_6_RD_10_1.png","C_Dist_100_LN_6_LD_12_RN_15_RD_25_1.png","C_Dist_100_LN_7_LD_14_RN_15_RD_25_1.png","C_Dist_100_LN_7_LD_14_RN_9_RD_15_1.png"]],"dist100_I":[["I_Dist_100_LN_1_LD_2_RN_8_RD_20_0.png","I_Dist_100_LN_2_LD_4_RN_6_RD_15_0.png","I_Dist_100_LN_2_LD_4_RN_8_RD_20_0.png","I_Dist_100_LN_3_LD_5_RN_11_RD_22_0.png","I_Dist_100_LN_3_LD_5_RN_8_RD_16_0.png","I_Dist_100_LN_3_LD_6_RN_4_RD_10_0.png","I_Dist_100_LN_3_LD_9_RN_7_RD_30_0.png","I_Dist_100_LN_4_LD_8_RN_8_RD_20_0.png","I_Dist_100_LN_6_LD_10_RN_11_RD_22_0.png","I_Dist_100_LN_6_LD_10_RN_13_RD_26_0.png","I_Dist_100_LN_6_LD_10_RN_7_RD_14_0.png","I_Dist_100_LN_9_LD_10_RN_20_RD_25_0.png","I_Dist_100_LN_9_LD_15_RN_13_RD_26_0.png","I_Dist_100_LN_9_LD_15_RN_14_RD_28_0.png"],["I_Dist_100_LN_10_LD_25_RN_8_RD_16_1.png","I_Dist_100_LN_10_LD_25_RN_9_RD_18_1.png","I_Dist_100_LN_11_LD_22_RN_9_RD_15_1.png","I_Dist_100_LN_12_LD_24_RN_9_RD_15_1.png","I_Dist_100_LN_12_LD_30_RN_2_RD_4_1.png","I_Dist_100_LN_13_LD_26_RN_12_RD_20_1.png","I_Dist_100_LN_13_LD_26_RN_6_RD_10_1.png","I_Dist_100_LN_17_LD_30_RN_10_RD_15_1.png","I_Dist_100_LN_6_LD_12_RN_3_RD_5_1.png","I_Dist_100_LN_8_LD_16_RN_6_RD_10_1.png","I_Dist_100_LN_8_LD_20_RN_1_RD_2_1.png","I_Dist_100_LN_9_LD_18_RN_6_RD_10_1.png"]],"dist100_S":[["E_Dist_100_LN_2_LD_12_RN_2_RD_30_0.png","E_Dist_100_LN_6_LD_10_RN_6_RD_12_0.png"],["E_Dist_100_LN_6_LD_12_RN_6_RD_10_1.png"]],"dist200_C":[["C_Dist_200_LN_11_LD_22_RN_3_RD_10_0.png","C_Dist_200_LN_12_LD_15_RN_6_RD_10_0.png","C_Dist_200_LN_12_LD_20_RN_6_RD_15_0.png","C_Dist_200_LN_14_LD_28_RN_6_RD_20_0.png","C_Dist_200_LN_15_LD_25_RN_4_RD_10_0.png","C_Dist_200_LN_16_LD_20_RN_12_RD_20_0.png","C_Dist_200_LN_16_LD_30_RN_9_RD_27_0.png","C_Dist_200_LN_20_LD_25_RN_9_RD_15_0.png","C_Dist_200_LN_21_LD_30_RN_2_RD_4_0.png","C_Dist_200_LN_4_LD_10_RN_3_RD_15_0.png","C_Dist_200_LN_4_LD_8_RN_3_RD_10_0.png","C_Dist_200_LN_6_LD_15_RN_3_RD_15_0.png","C_Dist_200_LN_7_LD_21_RN_2_RD_15_0.png","C_Dist_200_LN_8_LD_15_RN_2_RD_6_0.png","C_Dist_200_LN_8_LD_15_RN_3_RD_9_0.png","C_Dist_200_LN_8_LD_15_RN_7_RD_21_0.png","C_Dist_200_LN_9_LD_20_RN_4_RD_16_0.png"],["C_Dist_200_LN_1_LD_2_RN_21_RD_30_1.png","C_Dist_200_LN_13_LD_26_RN_14_RD_20_1.png","C_Dist_200_LN_3_LD_10_RN_11_RD_22_1.png","C_Dist_200_LN_3_LD_10_RN_14_RD_28_1.png","C_Dist_200_LN_3_LD_10_RN_7_RD_14_1.png","C_Dist_200_LN_3_LD_12_RN_9_RD_20_1.png","C_Dist_200_LN_3_LD_6_RN_14_RD_20_1.png","C_Dist_200_LN_5_LD_10_RN_14_RD_20_1.png","C_Dist_200_LN_6_LD_12_RN_7_RD_10_1.png","C_Dist_200_LN_6_LD_20_RN_11_RD_22_1.png","C_Dist_200_LN_7_LD_15_RN_18_RD_27_1.png","C_Dist_200_LN_9_LD_30_RN_13_RD_26_1.png"]],"dist200_I":[["I_Dist_200_LN_1_LD_2_RN_3_RD_10_0.png","I_Dist_200_LN_1_LD_3_RN_2_RD_15_0.png","I_Dist_200_LN_3_LD_4_RN_11_RD_20_0.png","I_Dist_200_LN_4_LD_5_RN_6_RD_10_0.png","I_Dist_200_LN_4_LD_6_RN_14_RD_30_0.png","I_Dist_200_LN_7_LD_10_RN_12_RD_24_0.png","I_Dist_200_LN_7_LD_10_RN_14_RD_28_0.png","I_Dist_200_LN_7_LD_10_RN_8_RD_16_0.png"],["I_Dist_200_LN_11_LD_20_RN_3_RD_4_1.png","I_Dist_200_LN_14_LD_30_RN_12_RD_18_1.png","I_Dist_200_LN_14_LD_30_RN_6_RD_9_1.png","I_Dist_200_LN_3_LD_10_RN_1_RD_2_1.png","I_Dist_200_LN_4_LD_30_RN_1_RD_3_1.png","I_Dist_200_LN_6_LD_20_RN_3_RD_6_1.png","I_Dist_200_LN_7_LD_15_RN_4_RD_6_1.png","I_Dist_200_LN_7_LD_15_RN_6_RD_9_1.png","I_Dist_200_LN_9_LD_15_RN_8_RD_10_1.png"]],"dist200_S":[["E_Dist_200_LN_3_LD_6_RN_3_RD_10_0.png"],["E_Dist_200_LN_3_LD_10_RN_3_RD_6_1.png"]],"dist300_C":[["C_Dist_300_LN_11_LD_22_RN_1_RD_5_0.png","C_Dist_300_LN_11_LD_22_RN_2_RD_10_0.png","C_Dist_300_LN_11_LD_22_RN_4_RD_20_0.png","C_Dist_300_LN_12_LD_24_RN_2_RD_10_0.png","C_Dist_300_LN_18_LD_20_RN_9_RD_15_0.png","C_Dist_300_LN_20_LD_25_RN_13_RD_26_0.png","C_Dist_300_LN_20_LD_25_RN_14_RD_28_0.png","C_Dist_300_LN_20_LD_25_RN_5_RD_10_0.png","C_Dist_300_LN_20_LD_25_RN_8_RD_16_0.png","C_Dist_300_LN_20_LD_25_RN_9_RD_18_0.png","C_Dist_300_LN_24_LD_30_RN_2_RD_4_0.png","C_Dist_300_LN_24_LD_30_RN_8_RD_16_0.png","C_Dist_300_LN_3_LD_6_RN_2_RD_10_0.png","C_Dist_300_LN_4_LD_10_RN_1_RD_10_0.png","C_Dist_300_LN_4_LD_5_RN_2_RD_4_0.png","C_Dist_300_LN_8_LD_16_RN_1_RD_5_0.png","C_Dist_300_LN_9_LD_10_RN_3_RD_5_0.png"],["C_Dist_300_LN_1_LD_20_RN_7_RD_20_1.png","C_Dist_300_LN_1_LD_3_RN_19_RD_30_1.png","C_Dist_300_LN_1_LD_30_RN_8_RD_24_1.png","C_Dist_300_LN_1_LD_5_RN_11_RD_22_1.png","C_Dist_300_LN_1_LD_5_RN_3_RD_6_1.png","C_Dist_300_LN_1_LD_5_RN_6_RD_12_1.png","C_Dist_300_LN_2_LD_10_RN_12_RD_24_1.png","C_Dist_300_LN_2_LD_20_RN_10_RD_25_1.png","C_Dist_300_LN_3_LD_12_RN_11_RD_20_1.png","C_Dist_300_LN_3_LD_6_RN_4_RD_5_1.png","C_Dist_300_LN_4_LD_20_RN_13_RD_26_1.png","C_Dist_300_LN_5_LD_25_RN_6_RD_12_1.png","C_Dist_300_LN_5_LD_25_RN_7_RD_14_1.png","C_Dist_300_LN_7_LD_14_RN_20_RD_25_1.png","C_Dist_300_LN_8_LD_15_RN_10_RD_12_1.png"]],"dist300_I":[["I_Dist_300_LN_1_LD_2_RN_2_RD_10_0.png","I_Dist_300_LN_1_LD_2_RN_3_RD_15_0.png","I_Dist_300_LN_2_LD_4_RN_6_RD_30_0.png","I_Dist_300_LN_3_LD_6_RN_4_RD_20_0.png","I_Dist_300_LN_4_LD_5_RN_6_RD_12_0.png","I_Dist_300_LN_4_LD_5_RN_8_RD_16_0.png","I_Dist_300_LN_7_LD_10_RN_8_RD_20_0.png","I_Dist_300_LN_8_LD_10_RN_14_RD_28_0.png","I_Dist_300_LN_8_LD_10_RN_9_RD_18_0.png"],["I_Dist_300_LN_13_LD_26_RN_12_RD_15_1.png","I_Dist_300_LN_4_LD_20_RN_2_RD_4_1.png"]],"dist300_S":[["E_Dist_300_LN_9_LD_12_RN_9_RD_20_0.png"],["E_Dist_300_LN_18_LD_30_RN_18_RD_20_1.png","E_Dist_300_LN_3_LD_10_RN_3_RD_5_1.png","E_Dist_300_LN_9_LD_20_RN_9_RD_12_1.png"]],"dist500_C":[["C_Dist_500_LN_10_LD_13_RN_7_RD_26_0.png","C_Dist_500_LN_10_LD_15_RN_4_RD_24_0.png","C_Dist_500_LN_12_LD_16_RN_3_RD_12_0.png","C_Dist_500_LN_12_LD_18_RN_4_RD_24_0.png","C_Dist_500_LN_15_LD_18_RN_5_RD_15_0.png","C_Dist_500_LN_15_LD_20_RN_1_RD_4_0.png","C_Dist_500_LN_18_LD_27_RN_1_RD_6_0.png","C_Dist_500_LN_20_LD_24_RN_1_RD_3_0.png","C_Dist_500_LN_20_LD_24_RN_3_RD_9_0.png","C_Dist_500_LN_20_LD_24_RN_7_RD_21_0.png","C_Dist_500_LN_20_LD_28_RN_3_RD_14_0.png","C_Dist_500_LN_21_LD_28_RN_6_RD_24_0.png","C_Dist_500_LN_22_LD_28_RN_2_RD_7_0.png","C_Dist_500_LN_25_LD_30_RN_9_RD_27_0.png","C_Dist_500_LN_4_LD_6_RN_1_RD_6_0.png","C_Dist_500_LN_5_LD_6_RN_2_RD_6_0.png","C_Dist_500_LN_6_LD_9_RN_1_RD_6_0.png","C_Dist_500_LN_7_LD_10_RN_1_RD_5_0.png","C_Dist_500_LN_8_LD_12_RN_1_RD_6_0.png","C_Dist_500_LN_8_LD_12_RN_4_RD_24_0.png"],["C_Dist_500_LN_1_LD_4_RN_12_RD_16_1.png","C_Dist_500_LN_1_LD_4_RN_9_RD_12_1.png","C_Dist_500_LN_1_LD_9_RN_11_RD_18_1.png","C_Dist_500_LN_10_LD_24_RN_22_RD_24_1.png","C_Dist_500_LN_2_LD_12_RN_10_RD_15_1.png","C_Dist_500_LN_2_LD_12_RN_12_RD_18_1.png","C_Dist_500_LN_2_LD_12_RN_4_RD_6_1.png","C_Dist_500_LN_2_LD_24_RN_7_RD_12_1.png","C_Dist_500_LN_2_LD_5_RN_18_RD_20_1.png","C_Dist_500_LN_2_LD_5_RN_9_RD_10_1.png","C_Dist_500_LN_2_LD_8_RN_12_RD_16_1.png","C_Dist_500_LN_2_LD_8_RN_21_RD_28_1.png","C_Dist_500_LN_3_LD_10_RN_4_RD_5_1.png","C_Dist_500_LN_3_LD_12_RN_15_RD_20_1.png","C_Dist_500_LN_3_LD_30_RN_6_RD_10_1.png","C_Dist_500_LN_3_LD_8_RN_14_RD_16_1.png","C_Dist_500_LN_4_LD_16_RN_15_RD_20_1.png","C_Dist_500_LN_4_LD_24_RN_12_RD_18_1.png","C_Dist_500_LN_5_LD_14_RN_6_RD_7_1.png","C_Dist_500_LN_7_LD_21_RN_20_RD_24_1.png","C_Dist_500_LN_7_LD_28_RN_12_RD_16_1.png","C_Dist_500_LN_7_LD_28_RN_9_RD_12_1.png","C_Dist_500_LN_9_LD_27_RN_20_RD_24_1.png"]],"dist500_I":[["I_Dist_500_LN_2_LD_3_RN_4_RD_24_0.png","I_Dist_500_LN_5_LD_6_RN_6_RD_18_0.png","I_Dist_500_LN_7_LD_8_RN_9_RD_24_0.png"],["I_Dist_500_LN_7_LD_21_RN_5_RD_6_1.png"]],"dist500_S":[["E_Dist_500_LN_6_LD_8_RN_6_RD_24_0.png"],["E_Dist_500_LN_2_LD_12_RN_2_RD_3_1.png","E_Dist_500_LN_6_LD_24_RN_6_RD_8_1.png"]]}},{"start_time":1552068537756,"click_time":1552068539204,"finger_time":1552068539083,"fix_duration":449.9374356982151,"trial":1,"RT":1327,"MT":121,"sideResp":1,"stimulus":[],"xmouse":[820,820,820,820,820,820,820,820,820,820,819,819,819,819,819,818,818,818,818,818,818,818,818,818,818,818,818,818,818,818,818,818,818,818,818,818,818,818,818,818,818,818,818,818,818,818,818,818,818,818,818,818,818,818,818,818,818,818,818,818,818,818,818,815,802,782,750,725,687,576,519,473,438],"ymouse":[520,520,520,520,520,520,520,520,520,520,521,521,521,521,521,521,521,521,521,521,521,521,521,521,521,521,521,521,521,521,521,521,521,521,521,521,521,521,521,521,521,521,521,521,521,521,521,521,521,521,521,521,521,521,521,521,521,521,521,521,521,521,521,521,502,478,441,404,356,225,171,132,94],"timestamp_mouse":[10,39,47,66,87,107,127,148,166,187,208,227,246,268,286,307,326,347,367,387,406,428,447,467,486,506,528,548,568,586,607,628,646,667,687,706,727,748,766,786,808,828,846,868,886,907,928,947,966,988,1007,1027,1048,1066,1088,1108,1128,1147,1166,1188,1208,1228,1246,1267,1286,1308,1327,1347,1368,1387,1406,1428,1448],"xSR":741.5,"ySR":469.95,"xT1":424.9,"yT1":0,"xT2":1058.1,"yT2":0,"toosoon":0,"cond_shown":"Congruent","ratio_trial":300,"L_num":18,"L_den":20,"R_num":9,"R_den":15,"correct_side":1,"subjID":"LauraCamilaRobayoRodriguez15","gender":"1","school":"4","age":"9"},{"start_time":1552068541587,"click_time":1552068542902,"finger_time":1552068542023,"fix_duration":923.8879028522942,"trial":2,"RT":436,"MT":879,"sideResp":2,"stimulus":[],"xmouse":[809,809,809,809,809,809,809,809,809,809,809,809,809,809,809,809,809,809,809,809,809,809,808,808,808,808,808,808,808,808,808,808,808,808,807,806,806,806,806,805,805,805,805,805,806,826,861,988,1058,1120,1162,1190,1190,1190,1190,1190,1190,1190,1190,1190,1190,1190,1190,1190,1190,1064],"ymouse":[484,484,484,484,484,484,484,484,484,484,484,484,484,484,484,484,483,478,476,473,470,467,463,462,462,462,462,462,462,462,462,462,462,462,461,461,461,461,461,459,459,459,459,459,456,451,440,369,293,203,116,11,11,11,11,11,11,11,11,11,11,11,11,11,11,18],"timestamp_mouse":[25,40,55,75,95,115,137,155,176,196,216,236,256,277,295,316,335,355,375,396,415,436,455,476,496,515,536,556,577,596,617,636,656,675,695,716,735,757,776,795,816,836,856,875,895,915,935,956,975,996,1015,1036,1056,1075,1096,1116,1136,1155,1175,1196,1215,1235,1256,1275,1295,1315],"xSR":741.5,"ySR":469.95,"xT1":424.9,"yT1":0,"xT2":1058.1,"yT2":0,"toosoon":0,"cond_shown":"Congruent","ratio_trial":100,"L_num":10,"L_den":25,"R_num":3,"R_den":10,"correct_side":1,"subjID":"LauraCamilaRobayoRodriguez15","gender":"1","school":"4","age":"9"},{"start_time":1552068545796,"click_time":1552068549803,"finger_time":1552068548302,"fix_duration":250,"trial":3,"RT":2506,"MT":1501,"sideResp":1,"stimulus":[],"xmouse":[768,768,768,768,768,768,768,768,768,768,768,768,768,768,768,768,768,768,768,768,768,768,768,768,768,768,768,768,768,768,768,768,768,768,768,768,768,768,768,768,768,768,768,768,768,768,768,768,768,768,768,768,768,768,768,768,768,768,768,768,768,768,768,768,768,768,768,768,768,768,768,768,768,768,768,768,768,768,768,768,768,768,768,768,768,768,768,768,768,768,768,768,768,768,768,768,768,768,768,768,768,768,768,768,768,768,768,768,768,768,768,768,768,768,768,768,768,768,768,768,768,768,768,766,766,771,775,776,769,761,752,742,729,722,717,714,710,707,705,704,701,698,689,665,644,620,598,580,555,541,537,527,519,503,498,497,496,495,495,494,492,492,491,491,491,491,491,491,491,491,491,491,491,491,491,491,491,491,491,491,491,491,491,491,491,491,491,491,491,491,491,491,491,491,491,491,490,490,488,488,488],"ymouse":[546,546,546,546,546,546,546,546,546,546,546,546,546,546,546,546,546,546,546,546,546,546,546,546,546,546,546,546,546,546,546,546,546,546,546,546,546,546,546,546,546,546,546,546,546,546,546,546,546,546,546,546,546,546,546,546,546,546,546,546,546,546,546,546,546,546,546,546,546,546,546,546,546,546,546,546,546,546,546,546,546,546,546,546,546,546,546,546,546,546,546,546,546,546,546,546,546,546,546,546,546,546,546,546,546,546,546,546,546,546,546,546,546,546,546,546,546,546,546,546,546,546,546,526,496,462,430,402,348,322,297,275,251,240,236,231,227,223,221,221,220,218,214,204,197,190,186,182,171,163,160,152,147,134,131,130,128,128,125,122,119,119,117,117,117,117,117,117,117,117,117,116,116,116,116,116,116,116,116,116,116,116,115,113,112,110,109,109,108,108,108,108,107,106,105,104,103,102,100,100,98],"timestamp_mouse":[9,27,61,68,87,107,128,146,166,187,207,227,248,268,288,307,327,347,366,388,407,426,448,468,486,506,527,547,567,586,606,628,648,667,687,707,727,747,768,786,808,826,847,867,886,907,928,947,966,986,1007,1028,1048,1066,1088,1107,1127,1148,1166,1187,1208,1227,1248,1267,1287,1306,1328,1348,1367,1387,1407,1426,1446,1466,1488,1507,1526,1547,1568,1588,1607,1627,1647,1668,1687,1707,1726,1746,1768,1788,1807,1827,1846,1868,1887,1906,1928,1947,1966,1987,2006,2027,2046,2068,2088,2107,2128,2147,2166,2188,2206,2228,2248,2268,2287,2308,2326,2346,2368,2386,2407,2428,2446,2467,2486,2506,2526,2546,2567,2586,2607,2627,2647,2667,2686,2706,2726,2746,2767,2787,2807,2827,2847,2867,2886,2908,2927,2947,2967,2986,3007,3028,3047,3067,3088,3106,3126,3148,3166,3187,3207,3227,3247,3266,3287,3307,3326,3347,3368,3388,3406,3427,3447,3467,3487,3506,3528,3548,3567,3587,3607,3627,3648,3667,3687,3707,3728,3747,3767,3788,3808,3828,3847,3867,3886,3907,3930,3947,3966,3987,4007],"xSR":741.5,"ySR":469.95,"xT1":424.9,"yT1":0,"xT2":1058.1,"yT2":0,"toosoon":0,"cond_shown":"Incongruent","ratio_trial":200,"L_num":7,"L_den":10,"R_num":12,"R_den":24,"correct_side":1,"subjID":"LauraCamilaRobayoRodriguez15","gender":"1","school":"4","age":"9"},{"start_time":1552068551996,"click_time":1552068554243,"finger_time":1552068553363,"fix_duration":1192.2449843198347,"trial":4,"RT":1367,"MT":880,"sideResp":1,"stimulus":[],"xmouse":[794,794,794,794,794,794,794,794,794,794,794,794,794,794,794,794,794,794,794,794,794,794,794,794,794,794,794,794,794,794,794,794,794,794,794,794,794,794,794,794,794,794,794,794,794,794,794,794,794,794,794,794,794,794,794,794,794,794,794,794,794,794,794,794,794,798,804,818,835,838,838,838,837,837,837,837,839,842,844,848,850,858,866,878,883,888,894,908,917,930,938,942,943,943,943,943,943,943,943,943,943,943,943,943,943,943,933,921,790,717,635,549,478],"ymouse":[507,507,507,507,507,507,507,507,507,507,507,507,507,507,507,507,507,507,507,507,507,507,507,507,507,507,507,507,507,507,507,507,507,507,507,507,507,507,507,507,507,507,507,507,507,507,507,507,507,507,507,507,507,507,507,507,507,507,507,507,507,507,507,507,507,498,492,474,443,437,434,431,427,397,376,354,332,317,309,298,290,276,257,229,220,210,200,179,167,149,138,134,130,130,130,130,130,130,130,130,130,130,130,130,130,131,132,132,120,110,99,88,77],"timestamp_mouse":[14,37,47,67,88,107,128,147,166,188,207,227,248,266,288,308,328,347,366,387,408,427,447,468,488,508,527,548,567,587,608,628,648,667,688,708,728,746,768,787,806,827,848,866,886,907,928,947,968,988,1007,1027,1047,1068,1087,1108,1127,1148,1167,1188,1206,1228,1248,1266,1287,1307,1327,1348,1367,1386,1407,1426,1447,1468,1486,1508,1527,1548,1567,1586,1607,1626,1646,1668,1686,1707,1727,1747,1766,1786,1806,1827,1848,1867,1888,1907,1928,1947,1968,1987,2007,2027,2048,2067,2087,2108,2126,2147,2167,2187,2207,2227,2247],"xSR":741.5,"ySR":469.95,"xT1":424.9,"yT1":0,"xT2":1058.1,"yT2":0,"toosoon":0,"cond_shown":"Congruent","ratio_trial":200,"L_num":15,"L_den":25,"R_num":4,"R_den":10,"correct_side":1,"subjID":"LauraCamilaRobayoRodriguez15","gender":"1","school":"4","age":"9"},{"start_time":1552068557391,"click_time":1552068559084,"finger_time":1552068558764,"fix_duration":1307.7823659062437,"trial":5,"RT":1373,"MT":320,"sideResp":1,"stimulus":[],"xmouse":[827,827,827,827,827,827,827,827,827,827,827,827,827,827,827,827,827,827,827,827,827,827,827,827,827,827,827,827,827,827,827,827,827,827,827,827,827,827,827,827,827,827,827,827,827,827,827,827,827,827,827,827,827,827,827,827,827,827,827,827,827,827,827,827,827,827,821,801,765,681,642,610,597,597,597,597,597,597,597,597,597,597,597,597,475],"ymouse":[525,525,525,525,525,525,525,525,525,525,525,525,525,525,525,525,525,525,525,525,525,525,525,525,525,525,525,525,525,525,525,525,525,525,525,525,525,525,525,525,525,525,525,525,525,525,525,525,525,525,525,525,525,525,525,525,525,525,525,525,525,525,525,525,525,525,525,502,421,197,100,32,11,11,11,11,11,11,11,11,11,11,11,11,10],"timestamp_mouse":[11,41,52,73,93,113,133,153,172,193,213,232,253,272,293,311,333,352,373,393,413,433,453,472,493,513,532,552,572,592,613,632,653,673,692,712,733,751,773,793,812,832,851,872,892,911,932,953,972,993,1012,1033,1051,1073,1093,1113,1131,1152,1173,1193,1213,1233,1252,1272,1293,1312,1331,1353,1373,1392,1412,1433,1453,1472,1493,1512,1531,1552,1571,1593,1612,1631,1652,1673,1692],"xSR":741.5,"ySR":469.95,"xT1":424.9,"yT1":0,"xT2":1058.1,"yT2":0,"toosoon":0,"cond_shown":"Congruent","ratio_trial":200,"L_num":8,"L_den":15,"R_num":3,"R_den":9,"correct_side":1,"subjID":"LauraCamilaRobayoRodriguez15","gender":"1","school":"4","age":"9"},{"start_time":1552068561160,"click_time":1552068562884,"finger_time":1552068562463,"fix_duration":476.206589295147,"trial":6,"RT":1303,"MT":421,"sideResp":1,"stimulus":[],"xmouse":[792,792,792,792,792,792,792,792,792,792,792,792,792,792,792,792,792,792,792,792,792,792,792,792,792,792,792,792,792,792,792,792,792,792,792,792,792,792,792,792,792,792,792,792,792,792,792,792,792,792,792,792,792,792,792,792,792,792,792,792,792,792,792,784,778,762,757,722,708,693,681,652,637,617,596,580,563,536,534,533,533,533,532,531,529,527,522],"ymouse":[522,522,522,522,522,522,522,522,522,522,522,522,522,522,522,522,522,522,522,522,522,522,522,522,522,522,522,522,522,522,522,522,522,522,522,522,522,522,522,522,522,522,522,522,522,522,522,522,522,522,522,522,522,522,522,522,522,522,522,522,522,522,522,505,492,465,453,397,371,345,325,284,264,235,204,182,156,117,114,113,113,113,111,108,106,103,97],"timestamp_mouse":[12,25,44,63,84,102,123,143,163,184,202,224,243,263,283,303,323,344,363,383,403,423,443,463,482,502,522,544,563,583,603,623,643,662,684,704,724,743,764,784,804,823,843,863,884,903,923,944,962,984,1003,1023,1042,1064,1083,1102,1124,1144,1163,1184,1204,1224,1243,1264,1283,1303,1323,1344,1363,1383,1403,1423,1443,1464,1483,1503,1522,1544,1563,1583,1602,1624,1642,1663,1684,1703,1723],"xSR":741.5,"ySR":469.95,"xT1":424.9,"yT1":0,"xT2":1058.1,"yT2":0,"toosoon":0,"cond_shown":"Congruent","ratio_trial":300,"L_num":20,"L_den":25,"R_num":14,"R_den":28,"correct_side":1,"subjID":"LauraCamilaRobayoRodriguez15","gender":"1","school":"4","age":"9"},{"start_time":1552068564811,"click_time":1552068566603,"finger_time":1552068566163,"fix_duration":1047.5834436309551,"trial":7,"RT":1352,"MT":440,"sideResp":1,"stimulus":[],"xmouse":[812,812,812,812,812,812,812,812,812,812,812,812,812,812,812,812,812,812,812,812,812,812,812,812,812,812,812,812,812,812,812,812,812,812,812,812,812,812,812,812,812,815,819,821,825,825,825,825,825,825,825,825,825,825,825,825,825,825,825,825,825,825,825,825,815,804,791,774,757,736,679,630,573,556,529,521,518,517,516,513,512,512,512,512,512,512,512,512,511,509],"ymouse":[551,551,551,551,551,551,551,551,551,551,551,551,551,551,551,551,551,551,551,551,551,551,551,551,551,551,551,551,551,551,551,551,551,551,551,551,551,551,551,551,546,533,522,512,501,500,500,500,500,500,500,500,500,500,500,500,500,500,500,500,500,500,499,498,490,482,471,455,437,409,320,246,171,149,119,111,108,107,105,103,102,102,102,102,102,102,102,102,101,97],"timestamp_mouse":[13,37,52,71,93,112,132,153,172,193,212,232,253,273,291,313,331,351,371,391,412,432,452,472,492,512,533,552,572,593,613,631,652,672,692,713,732,753,772,792,812,831,852,871,892,911,933,952,973,993,1012,1032,1052,1072,1091,1113,1132,1153,1172,1193,1213,1232,1253,1272,1293,1311,1332,1352,1372,1392,1413,1431,1453,1472,1492,1511,1531,1552,1572,1592,1613,1632,1652,1673,1692,1712,1732,1753,1772,1792],"xSR":741.5,"ySR":469.95,"xT1":424.9,"yT1":0,"xT2":1058.1,"yT2":0,"toosoon":0,"cond_shown":"Congruent","ratio_trial":300,"L_num":3,"L_den":6,"R_num":2,"R_den":10,"correct_side":1,"subjID":"LauraCamilaRobayoRodriguez15","gender":"1","school":"4","age":"9"},{"start_time":1552068568395,"click_time":1552068570463,"finger_time":1552068570063,"fix_duration":250,"trial":8,"RT":1668,"MT":400,"sideResp":1,"stimulus":[],"xmouse":[776,776,776,776,776,776,776,776,776,774,763,755,752,751,751,751,751,750,749,749,749,749,749,749,749,749,749,749,749,749,749,749,749,749,749,749,749,749,749,749,749,749,749,749,749,749,749,749,749,750,750,751,751,751,751,751,751,751,751,751,751,751,751,751,751,751,751,751,751,751,751,751,751,753,754,757,757,758,759,760,761,761,761,758,754,739,730,721,716,713,708,704,700,691,682,671,647,633,616,595,545,522,513,510],"ymouse":[518,518,518,518,518,518,518,518,518,518,518,519,520,520,520,520,520,520,520,520,520,520,520,520,520,520,520,520,520,520,520,520,520,520,520,520,520,521,521,521,521,521,522,522,522,522,522,522,522,522,522,523,523,524,524,524,524,524,524,524,524,524,524,524,524,524,524,524,524,524,524,524,524,522,520,514,513,513,511,510,499,492,482,468,445,396,374,357,344,336,324,311,297,278,264,250,224,207,187,164,124,107,101,96],"timestamp_mouse":[13,41,48,68,88,108,129,149,168,188,208,228,247,268,288,309,329,348,369,389,408,429,447,469,488,509,528,548,568,588,608,628,648,669,688,708,727,749,769,789,808,828,847,869,888,908,927,947,967,987,1008,1027,1048,1067,1087,1108,1129,1147,1167,1187,1207,1227,1247,1267,1287,1307,1327,1347,1368,1387,1409,1429,1447,1469,1488,1508,1528,1547,1568,1589,1608,1628,1647,1668,1687,1708,1727,1749,1768,1788,1808,1827,1848,1868,1887,1908,1928,1948,1968,1988,2009,2028,2048,2067],"xSR":741.5,"ySR":469.95,"xT1":424.9,"yT1":0,"xT2":1058.1,"yT2":0,"toosoon":0,"cond_shown":"Congruent","ratio_trial":100,"L_num":11,"L_den":22,"R_num":4,"R_den":10,"correct_side":1,"subjID":"LauraCamilaRobayoRodriguez15","gender":"1","school":"4","age":"9"},{"start_time":1552068572067,"click_time":1552068573444,"finger_time":1552068573083,"fix_duration":623.0674976909455,"trial":9,"RT":1016,"MT":361,"sideResp":2,"stimulus":[],"xmouse":[796,795,795,795,795,795,792,791,789,788,787,787,787,787,787,787,787,787,787,787,787,787,787,787,787,787,787,787,787,787,787,787,787,787,787,787,787,787,787,787,787,787,787,788,793,798,806,819,826,836,847,872,882,888,890,890,890,890,890,890,890,890,893,899,911,917,946,1017,1063],"ymouse":[523,523,523,523,523,523,519,516,515,514,514,514,514,514,514,514,514,514,514,514,514,514,514,514,514,514,514,514,514,514,514,514,514,514,514,514,514,514,514,514,514,514,514,512,508,503,496,486,480,470,452,405,380,361,350,344,340,340,340,340,340,335,329,319,302,292,245,117,35],"timestamp_mouse":[17,35,57,76,97,117,137,157,175,195,216,237,255,277,296,316,336,357,376,397,417,437,456,477,496,516,537,556,577,596,616,635,655,675,696,716,736,757,775,797,816,835,856,877,895,917,936,957,976,995,1016,1037,1055,1076,1095,1117,1137,1155,1176,1197,1216,1238,1256,1275,1296,1316,1336,1356,1377],"xSR":741.5,"ySR":469.95,"xT1":424.9,"yT1":0,"xT2":1058.1,"yT2":0,"toosoon":0,"cond_shown":"Congruent","ratio_trial":200,"L_num":3,"L_den":10,"R_num":14,"R_den":28,"correct_side":2,"subjID":"LauraCamilaRobayoRodriguez15","gender":"1","school":"4","age":"9"},{"start_time":1552068576901,"click_time":1552068578384,"finger_time":1552068577842,"fix_duration":475.7029503722531,"trial":10,"RT":941,"MT":542,"sideResp":2,"stimulus":[],"xmouse":[774,774,774,774,774,774,774,774,775,775,775,775,775,775,775,775,775,775,775,775,775,775,775,775,775,775,775,775,775,775,775,775,775,775,775,775,775,775,775,775,775,775,775,775,775,775,780,818,846,870,886,907,918,926,933,939,951,958,963,970,973,977,979,983,985,989,992,993,993,993,993,995,1026,1041,1062],"ymouse":[525,525,525,525,525,525,525,525,522,521,520,519,519,519,519,519,519,519,519,519,519,519,519,519,519,519,519,519,519,519,519,519,519,519,519,519,519,519,519,519,519,519,519,519,519,517,509,451,414,381,359,330,305,287,268,249,210,189,173,155,142,124,116,110,102,94,88,87,87,87,87,85,78,76,75],"timestamp_mouse":[19,39,42,63,82,102,121,141,162,182,202,223,242,262,283,302,322,341,363,382,402,422,442,462,483,503,521,542,562,581,603,623,641,662,683,702,722,743,762,781,802,822,843,863,881,902,922,941,962,981,1002,1022,1042,1062,1082,1101,1123,1142,1161,1183,1202,1223,1241,1262,1281,1303,1322,1342,1363,1383,1403,1422,1443,1462,1483],"xSR":741.5,"ySR":469.95,"xT1":424.9,"yT1":0,"xT2":1058.1,"yT2":0,"toosoon":0,"cond_shown":"Congruent","ratio_trial":300,"L_num":8,"L_den":15,"R_num":10,"R_den":12,"correct_side":2,"subjID":"LauraCamilaRobayoRodriguez15","gender":"1","school":"4","age":"9"},{"start_time":1552068580633,"click_time":1552068582925,"finger_time":1552068582344,"fix_duration":909.4591630463378,"trial":11,"RT":1711,"MT":581,"sideResp":2,"stimulus":[],"xmouse":[791,791,791,791,791,791,791,791,791,791,791,791,791,791,791,791,791,791,791,791,791,791,791,791,791,791,791,791,791,791,791,791,791,791,791,791,791,791,791,791,791,791,791,791,791,791,791,791,791,791,791,791,791,791,791,791,791,791,791,791,791,791,791,791,791,791,791,791,791,791,791,791,791,791,791,791,791,791,791,791,791,791,791,791,796,830,850,872,899,926,980,1006,1021,1036,1042,1053,1058,1060,1061,1062,1065,1067,1068,1070,1071,1072,1073,1074,1075,1077,1081,1084,1086,1088,1088],"ymouse":[503,503,503,503,503,503,503,503,503,503,503,503,503,503,503,503,503,503,503,503,503,503,503,503,503,503,503,503,503,503,503,503,503,503,503,503,503,503,503,503,503,503,503,503,503,503,503,503,503,503,503,503,503,503,503,503,503,503,503,503,503,503,503,503,503,503,503,503,503,503,503,503,503,503,503,503,503,503,503,503,503,503,503,503,498,461,443,425,395,356,288,258,239,216,205,183,171,163,159,156,149,143,141,134,130,128,126,126,123,120,112,108,104,100,99],"timestamp_mouse":[10,42,50,71,89,110,131,150,170,190,211,230,251,271,291,311,330,350,370,390,409,431,450,469,490,511,531,550,570,590,610,630,650,671,691,710,731,751,770,791,810,830,850,870,889,911,931,950,971,990,1010,1029,1050,1071,1091,1110,1131,1150,1170,1190,1210,1231,1250,1270,1291,1311,1331,1349,1369,1390,1411,1429,1450,1470,1491,1511,1530,1551,1571,1590,1611,1631,1651,1670,1691,1711,1729,1749,1770,1790,1810,1831,1850,1869,1889,1910,1929,1949,1971,1991,2010,2031,2050,2070,2089,2110,2130,2150,2170,2190,2210,2230,2250,2270,2291],"xSR":741.5,"ySR":469.95,"xT1":424.9,"yT1":0,"xT2":1058.1,"yT2":0,"toosoon":0,"cond_shown":"Incongruent","ratio_trial":100,"L_num":6,"L_den":10,"R_num":11,"R_den":22,"correct_side":1,"subjID":"LauraCamilaRobayoRodriguez15","gender":"1","school":"4","age":"9"},{"start_time":1552068586197,"click_time":1552068589344,"finger_time":1552068587443,"fix_duration":352.5524870866564,"trial":12,"RT":1246,"MT":1901,"sideResp":1,"stimulus":[],"xmouse":[782,782,782,782,782,782,782,782,782,782,782,782,782,782,782,782,782,782,782,782,782,782,782,782,782,782,782,782,782,782,782,782,781,781,781,781,780,780,779,779,779,779,779,779,779,779,779,779,779,779,779,779,779,779,779,779,779,779,779,778,775,767,754,746,733,712,685,651,592,577,568,558,546,542,540,539,539,538,537,537,537,535,535,535,535,535,535,535,535,535,535,535,535,535,535,535,535,535,535,535,535,535,573,599,626,654,674,706,715,725,738,754,798,818,841,867,890,934,954,975,997,1021,1057,1094,1105,1108,1108,1108,1108,1108,1108,1108,1108,1108,1108,1108,1104,1084,1014,962,892,788,756,654,640,637,633,632,621,611,604,596,590,568,558,546,529,514],"ymouse":[511,511,511,511,511,511,511,511,511,511,511,511,511,511,511,511,511,511,511,511,511,511,511,511,511,511,511,511,511,511,511,511,512,512,512,512,512,512,512,512,512,512,512,512,512,512,512,512,512,512,512,512,512,512,512,512,512,512,512,512,511,499,468,451,427,390,349,309,253,236,223,210,192,185,183,180,179,178,177,176,176,174,174,174,174,174,174,174,174,174,174,174,174,174,174,174,174,174,174,174,174,174,164,158,155,152,151,148,147,146,146,146,146,146,146,146,146,146,144,142,141,138,129,119,116,115,115,115,115,115,115,115,115,115,115,115,115,115,109,93,75,53,44,30,28,28,28,28,31,33,34,37,39,48,50,53,55,61],"timestamp_mouse":[7,26,52,67,87,107,126,145,167,186,206,225,246,267,287,307,327,347,366,387,405,426,446,467,485,507,525,546,566,586,605,626,646,666,687,706,726,746,767,787,806,825,847,866,887,907,926,945,966,986,1006,1027,1047,1066,1085,1106,1126,1146,1165,1186,1206,1227,1246,1267,1286,1307,1326,1346,1366,1385,1407,1426,1446,1466,1486,1506,1526,1546,1565,1586,1607,1627,1646,1666,1687,1707,1726,1747,1765,1787,1806,1826,1846,1866,1887,1906,1926,1946,1966,1987,2007,2027,2047,2066,2086,2106,2126,2147,2165,2186,2206,2226,2247,2266,2286,2306,2327,2346,2366,2386,2406,2427,2446,2467,2486,2506,2526,2547,2566,2587,2607,2625,2647,2666,2686,2706,2726,2747,2765,2786,2806,2826,2846,2866,2886,2907,2925,2946,2967,2986,3005,3027,3046,3067,3086,3107,3126,3146],"xSR":741.5,"ySR":469.95,"xT1":424.9,"yT1":0,"xT2":1058.1,"yT2":0,"toosoon":0,"cond_shown":"Incongruent","ratio_trial":300,"L_num":1,"L_den":2,"R_num":2,"R_den":10,"correct_side":1,"subjID":"LauraCamilaRobayoRodriguez15","gender":"1","school":"4","age":"9"},{"start_time":1552068591918,"click_time":1552068593643,"finger_time":1552068593463,"fix_duration":452.5386831084476,"trial":13,"RT":1545,"MT":180,"sideResp":2,"stimulus":[],"xmouse":[802,802,802,802,802,802,802,802,802,802,802,802,802,802,802,802,802,802,802,802,802,802,802,802,802,802,802,802,802,802,802,802,802,802,802,802,802,802,802,802,801,801,801,801,801,801,801,801,801,801,801,801,801,801,801,801,801,801,801,801,801,801,801,801,801,801,801,801,801,801,801,801,801,801,801,801,806,855,901,939,960,992,1064,1094,1114,1134,1144],"ymouse":[517,517,517,517,517,517,517,517,517,517,517,517,517,517,517,517,517,517,517,517,517,517,517,517,517,517,517,517,517,517,517,517,517,517,517,517,517,517,517,517,517,517,517,517,517,517,517,517,517,517,517,517,517,517,517,517,517,517,517,517,517,517,517,517,517,517,517,517,517,517,517,517,517,517,517,517,513,485,455,424,403,360,250,194,151,100,75],"timestamp_mouse":[9,26,45,66,86,104,124,145,166,186,204,226,246,266,285,306,326,346,366,386,405,426,445,464,486,506,526,544,565,586,604,625,644,664,685,706,725,745,765,785,806,825,846,866,885,906,926,946,965,986,1005,1026,1045,1065,1085,1104,1126,1145,1166,1185,1206,1226,1246,1264,1285,1306,1325,1346,1365,1386,1405,1426,1446,1464,1486,1506,1524,1545,1564,1585,1605,1625,1646,1666,1685,1705,1725],"xSR":741.5,"ySR":469.95,"xT1":424.9,"yT1":0,"xT2":1058.1,"yT2":0,"toosoon":0,"cond_shown":"Incongruent","ratio_trial":100,"L_num":12,"L_den":24,"R_num":9,"R_den":15,"correct_side":2,"subjID":"LauraCamilaRobayoRodriguez15","gender":"1","school":"4","age":"9"},{"start_time":1552068595515,"click_time":1552068597664,"finger_time":1552068596983,"fix_duration":530.7355231043335,"trial":14,"RT":1468,"MT":681,"sideResp":2,"stimulus":[],"xmouse":[761,761,761,761,761,761,761,761,761,761,761,761,761,761,761,761,761,761,761,761,761,761,761,761,761,761,761,761,761,761,761,761,761,761,761,761,761,761,761,761,761,761,761,761,761,761,761,761,761,761,761,761,761,761,761,761,761,761,761,761,761,761,761,761,764,770,777,790,791,794,795,798,820,843,880,911,938,968,975,980,983,984,987,990,993,999,1006,1024,1032,1040,1047,1052,1056,1064,1065,1066,1067,1067,1068,1069,1070,1072,1073,1075,1075,1076,1078,1079],"ymouse":[543,543,543,543,543,543,543,543,543,543,543,543,543,543,543,543,543,543,543,543,543,543,543,543,543,543,543,543,543,543,543,543,543,543,543,543,543,543,543,543,543,543,543,543,543,543,543,543,543,543,543,543,543,543,543,543,543,543,543,543,543,543,543,543,540,534,528,519,518,516,514,513,491,463,410,369,335,293,279,271,265,263,256,250,244,235,223,195,180,166,158,149,141,127,125,123,122,120,117,116,114,111,109,106,104,102,100,97],"timestamp_mouse":[18,28,47,69,87,108,128,149,169,188,208,228,248,269,289,308,328,349,368,387,409,428,447,467,489,509,528,548,569,589,608,628,649,668,689,709,727,748,768,788,809,829,848,869,889,909,927,949,969,988,1007,1028,1048,1069,1089,1109,1129,1149,1169,1189,1208,1229,1248,1268,1287,1309,1328,1348,1367,1388,1408,1429,1448,1468,1488,1509,1528,1549,1568,1588,1608,1629,1649,1667,1688,1708,1728,1749,1768,1788,1807,1828,1867,1869,1887,1909,1927,1949,1968,1988,2008,2028,2049,2068,2088,2109,2128,2149],"xSR":741.5,"ySR":469.95,"xT1":424.9,"yT1":0,"xT2":1058.1,"yT2":0,"toosoon":0,"cond_shown":"Congruent","ratio_trial":100,"L_num":12,"L_den":30,"R_num":13,"R_den":26,"correct_side":2,"subjID":"LauraCamilaRobayoRodriguez15","gender":"1","school":"4","age":"9"},{"start_time":1552068601430,"click_time":1552068602643,"finger_time":1552068602243,"fix_duration":1126.5111748014674,"trial":15,"RT":813,"MT":400,"sideResp":1,"stimulus":[],"xmouse":[789,789,789,789,789,789,789,789,789,789,789,789,789,789,789,789,789,789,789,789,789,789,789,789,789,789,789,789,789,789,789,789,789,789,789,789,789,789,789,794,798,798,789,769,749,717,695,662,650,642,634,627,615,610,603,597,588,577,545,532,524],"ymouse":[515,515,515,515,515,515,515,515,515,515,515,515,515,515,515,515,515,515,515,515,515,515,515,515,515,515,515,515,515,515,515,515,515,515,515,515,515,515,515,478,430,389,303,250,201,134,99,61,51,46,39,33,24,21,19,18,17,17,16,16,16],"timestamp_mouse":[13,42,54,73,93,113,133,153,173,193,213,234,254,274,293,313,332,353,373,393,412,434,454,472,494,514,534,554,573,593,614,632,654,674,692,714,734,752,773,793,813,832,853,873,894,913,933,953,972,993,1013,1032,1053,1073,1093,1112,1132,1152,1172,1193,1212],"xSR":741.5,"ySR":469.95,"xT1":424.9,"yT1":0,"xT2":1058.1,"yT2":0,"toosoon":0,"cond_shown":"Congruent","ratio_trial":300,"L_num":11,"L_den":22,"R_num":2,"R_den":10,"correct_side":1,"subjID":"LauraCamilaRobayoRodriguez15","gender":"1","school":"4","age":"9"},{"start_time":1552068604788,"click_time":1552068605763,"finger_time":1552068605503,"fix_duration":864.7615000069434,"trial":16,"RT":715,"MT":260,"sideResp":1,"stimulus":[],"xmouse":[803,803,803,803,803,803,803,803,803,803,803,803,803,803,803,803,803,803,803,803,803,803,803,803,803,803,803,803,803,803,803,803,803,803,801,785,760,717,666,616,607,607,606,606,586,570,553,535,517],"ymouse":[510,510,510,510,510,510,510,510,510,510,510,510,510,510,510,510,510,510,510,510,510,510,510,510,510,510,510,510,510,510,510,510,510,510,507,425,345,256,180,113,101,100,99,98,86,73,59,47,37],"timestamp_mouse":[15,44,56,74,95,116,135,154,174,195,215,236,254,274,294,316,336,354,376,396,416,435,455,474,496,515,536,556,575,596,615,635,656,674,694,715,735,755,775,795,814,835,855,875,896,915,936,956,975],"xSR":741.5,"ySR":469.95,"xT1":424.9,"yT1":0,"xT2":1058.1,"yT2":0,"toosoon":0,"cond_shown":"Congruent","ratio_trial":300,"L_num":20,"L_den":25,"R_num":8,"R_den":16,"correct_side":1,"subjID":"LauraCamilaRobayoRodriguez15","gender":"1","school":"4","age":"9"},{"start_time":1552068608025,"click_time":1552068609424,"finger_time":1552068608983,"fix_duration":900.5472559922174,"trial":17,"RT":958,"MT":441,"sideResp":2,"stimulus":[],"xmouse":[773,773,773,773,773,773,773,773,773,773,773,773,773,773,773,773,773,773,773,773,773,773,773,773,773,773,773,773,773,773,773,773,773,773,773,773,773,773,773,773,773,773,773,779,787,796,803,815,861,895,924,960,979,1012,1025,1035,1042,1042,1042,1042,1042,1042,1042,1042,1042,1042,1042,1042,1042,1067],"ymouse":[506,506,506,506,506,506,506,506,506,506,506,506,506,506,506,506,506,506,506,506,506,506,506,506,506,506,506,506,506,506,506,506,506,506,506,506,506,506,506,506,506,506,506,502,493,483,473,457,376,319,276,217,183,100,49,22,0,0,0,0,0,0,0,0,0,0,0,0,0,18],"timestamp_mouse":[18,42,59,78,98,119,138,158,179,198,219,238,258,279,299,318,339,357,378,399,418,439,457,478,499,519,538,557,578,597,619,639,659,679,698,719,739,758,779,799,819,839,858,879,897,919,937,958,978,999,1019,1037,1058,1078,1098,1118,1138,1158,1178,1198,1218,1239,1259,1278,1298,1318,1339,1359,1377,1399],"xSR":741.5,"ySR":469.95,"xT1":424.9,"yT1":0,"xT2":1058.1,"yT2":0,"toosoon":0,"cond_shown":"Congruent","ratio_trial":200,"L_num":3,"L_den":10,"R_num":14,"R_den":28,"correct_side":2,"subjID":"LauraCamilaRobayoRodriguez15","gender":"1","school":"4","age":"9"},{"start_time":1552068612330,"click_time":1552068614623,"finger_time":1552068613103,"fix_duration":784.3046651263148,"trial":18,"RT":773,"MT":1520,"sideResp":1,"stimulus":[],"xmouse":[795,795,795,795,795,795,795,795,795,795,795,795,795,795,795,795,795,795,795,795,795,795,795,795,795,795,795,795,795,795,795,795,795,795,796,799,800,801,804,806,808,813,820,842,866,887,907,929,960,968,973,975,975,975,975,976,978,981,990,996,1000,1005,1008,1010,1012,1012,1012,1012,1012,1012,1011,1001,986,960,927,912,897,883,859,851,845,837,829,824,792,767,747,726,687,672,658,646,635,618,614,610,605,602,597,594,590,586,583,579,577,577,577,576,569,566,562,558,548,526,512],"ymouse":[492,492,492,492,492,492,492,492,492,492,492,492,492,492,492,492,492,492,492,492,492,492,492,492,492,492,492,492,492,492,492,492,492,492,487,478,473,471,467,465,461,455,446,420,397,378,360,342,317,310,306,304,304,304,303,303,301,297,286,279,270,261,254,249,243,243,243,243,243,243,242,242,242,238,232,230,226,222,215,212,211,209,206,205,192,182,174,167,156,153,150,146,143,137,136,135,134,133,131,129,127,125,124,118,117,116,115,112,104,99,94,90,81,68,60],"timestamp_mouse":[14,40,53,73,93,114,132,154,174,193,213,232,254,273,293,314,334,354,372,394,412,434,452,473,493,514,534,554,573,594,614,634,653,673,693,713,734,753,773,793,813,833,855,874,894,913,933,953,974,993,1013,1033,1054,1073,1093,1113,1133,1153,1173,1193,1213,1233,1253,1273,1294,1314,1333,1354,1374,1394,1414,1433,1454,1472,1494,1513,1534,1554,1574,1593,1613,1634,1654,1673,1694,1713,1733,1753,1774,1793,1813,1834,1854,1873,1893,1913,1933,1953,1973,1993,2012,2033,2054,2074,2093,2113,2133,2153,2173,2193,2214,2232,2254,2274,2293],"xSR":741.5,"ySR":469.95,"xT1":424.9,"yT1":0,"xT2":1058.1,"yT2":0,"toosoon":0,"cond_shown":"Congruent","ratio_trial":300,"L_num":8,"L_den":16,"R_num":1,"R_den":5,"correct_side":1,"subjID":"LauraCamilaRobayoRodriguez15","gender":"1","school":"4","age":"9"},{"start_time":1552068615855,"click_time":1552068617683,"finger_time":1552068617024,"fix_duration":250,"trial":19,"RT":1169,"MT":659,"sideResp":2,"stimulus":[],"xmouse":[806,806,806,806,806,806,806,806,806,806,806,806,806,806,806,806,806,806,806,806,806,806,806,806,806,806,806,806,806,804,801,799,799,797,797,797,797,797,797,797,797,797,797,797,797,797,797,797,797,797,797,797,797,797,797,797,801,810,829,840,848,855,871,882,893,902,915,940,949,958,965,975,986,1013,1025,1033,1038,1042,1043,1043,1043,1043,1043,1043,1043,1043,1043,1043,1043,1043,1047,1060],"ymouse":[565,565,565,565,565,565,565,565,565,565,565,565,565,565,565,565,565,565,565,565,565,565,565,565,565,565,565,565,564,562,560,559,558,558,557,557,557,557,557,557,557,557,557,557,557,557,557,557,557,557,557,557,557,557,551,543,530,502,450,419,402,391,367,351,333,314,292,240,222,206,196,181,167,125,103,84,73,66,65,65,65,65,65,65,65,65,65,65,65,65,65,66],"timestamp_mouse":[10,47,48,69,89,108,128,149,168,188,208,228,248,268,289,308,328,348,367,389,408,429,448,469,489,508,528,549,569,588,609,627,649,668,687,708,728,749,768,789,809,828,848,868,888,909,928,948,969,989,1008,1028,1047,1067,1087,1109,1128,1148,1169,1188,1207,1228,1250,1268,1289,1308,1328,1350,1369,1388,1408,1428,1448,1468,1488,1508,1528,1548,1568,1588,1608,1628,1649,1668,1689,1708,1729,1749,1768,1787,1809,1828],"xSR":741.5,"ySR":469.95,"xT1":424.9,"yT1":0,"xT2":1058.1,"yT2":0,"toosoon":0,"cond_shown":"Congruent","ratio_trial":100,"L_num":15,"L_den":25,"R_num":13,"R_den":26,"correct_side":1,"subjID":"LauraCamilaRobayoRodriguez15","gender":"1","school":"4","age":"9"},{"start_time":1552068623492,"click_time":1552068625425,"finger_time":1552068624864,"fix_duration":1328.7397538313894,"trial":20,"RT":1372,"MT":561,"sideResp":2,"stimulus":[],"xmouse":[784,784,784,784,784,784,784,784,784,784,784,784,784,784,784,784,784,784,784,784,784,784,784,784,784,784,784,784,784,784,784,784,784,784,784,784,784,784,784,784,784,784,784,784,784,784,784,784,784,784,784,784,784,784,784,784,784,784,784,784,784,784,784,784,787,789,794,813,826,841,862,899,946,966,985,1008,1057,1079,1096,1109,1124,1131,1142,1148,1154,1158,1160,1161,1161,1161,1161,1161,1161,1161,1161,1161,1151],"ymouse":[512,512,512,512,512,512,512,512,512,512,512,512,512,512,512,512,512,512,512,512,512,512,512,512,512,512,512,512,512,512,512,512,512,512,512,512,512,512,512,512,512,512,512,512,512,512,512,512,512,512,512,512,512,512,512,512,512,512,512,512,512,512,512,512,511,510,504,483,467,449,424,391,352,338,319,299,260,239,220,206,186,177,157,146,136,128,123,119,118,118,118,118,118,118,116,114,99],"timestamp_mouse":[11,35,51,72,92,112,131,152,172,192,212,231,251,271,292,311,332,351,371,391,412,431,450,471,491,512,531,551,571,592,611,631,652,671,691,711,730,751,771,791,811,832,851,871,892,911,931,952,971,992,1011,1032,1051,1072,1092,1112,1132,1150,1171,1192,1212,1231,1252,1270,1292,1311,1331,1351,1372,1390,1412,1431,1451,1471,1491,1511,1533,1550,1571,1591,1611,1632,1651,1671,1691,1711,1731,1751,1772,1791,1811,1831,1850,1870,1891,1911,1933],"xSR":741.5,"ySR":469.95,"xT1":424.9,"yT1":0,"xT2":1058.1,"yT2":0,"toosoon":0,"cond_shown":"Incongruent","ratio_trial":200,"L_num":9,"L_den":15,"R_num":8,"R_den":10,"correct_side":2,"subjID":"LauraCamilaRobayoRodriguez15","gender":"1","school":"4","age":"9"},{"start_time":1552068626885,"click_time":1552068628343,"finger_time":1552068627863,"fix_duration":260.2644773457059,"trial":21,"RT":978,"MT":480,"sideResp":1,"stimulus":[],"xmouse":[778,778,778,778,778,778,778,778,778,778,778,778,778,778,778,778,778,778,778,778,778,778,778,778,778,778,778,778,778,778,778,778,778,778,778,778,778,778,778,778,778,778,778,778,778,778,778,778,777,773,770,768,768,768,768,768,768,767,766,766,766,766,765,764,762,760,757,736,716,666,618,576,515],"ymouse":[505,505,505,505,505,505,505,505,505,505,505,505,505,505,505,505,505,505,505,505,505,505,505,505,505,505,505,505,505,505,505,505,505,505,505,505,505,505,505,505,505,505,505,505,505,505,503,488,468,456,450,445,440,440,439,438,437,435,434,434,434,433,431,428,425,421,413,369,321,223,153,93,7],"timestamp_mouse":[18,38,58,79,99,117,139,158,179,198,218,238,259,278,298,319,337,358,378,398,418,438,459,479,498,519,538,558,579,599,619,639,658,679,698,719,738,759,777,798,819,839,859,878,898,918,938,957,978,998,1018,1038,1057,1078,1098,1117,1138,1158,1179,1199,1217,1238,1258,1279,1299,1318,1339,1358,1378,1398,1417,1438,1458],"xSR":741.5,"ySR":469.95,"xT1":424.9,"yT1":0,"xT2":1058.1,"yT2":0,"toosoon":0,"cond_shown":"Congruent","ratio_trial":300,"L_num":20,"L_den":25,"R_num":14,"R_den":28,"correct_side":1,"subjID":"LauraCamilaRobayoRodriguez15","gender":"1","school":"4","age":"9"},{"start_time":1552068632033,"click_time":1552068634664,"finger_time":1552068633944,"fix_duration":889.0517458828207,"trial":22,"RT":1911,"MT":720,"sideResp":1,"stimulus":[],"xmouse":[793,793,793,793,793,793,793,793,793,793,793,793,793,793,793,793,793,793,793,793,793,793,793,793,793,793,793,793,793,793,793,793,793,793,793,793,793,793,793,793,793,793,793,793,793,793,793,793,793,793,793,793,793,793,793,793,793,793,793,793,793,793,793,793,793,793,793,793,793,793,793,793,793,793,793,793,793,793,793,793,793,793,793,793,793,793,793,793,793,793,793,788,780,773,763,748,707,685,661,629,615,594,586,580,577,575,570,565,561,551,544,532,528,521,519,514,508,505,501,497,495,495,495,495,495,495,495,495,495,495,495,494],"ymouse":[545,545,545,545,545,545,545,545,545,545,545,545,545,545,545,545,545,545,545,545,545,545,545,545,545,545,545,545,545,545,545,545,545,545,545,545,545,545,545,545,545,545,545,545,545,545,545,545,545,545,545,545,545,545,545,545,545,545,545,545,545,545,545,545,545,545,545,545,545,545,545,545,545,545,545,545,545,545,545,545,545,545,545,545,545,545,545,545,545,545,545,530,513,496,474,434,358,321,279,228,203,173,163,158,156,155,153,151,150,147,145,142,139,137,135,133,127,125,121,115,113,110,110,109,107,106,104,103,102,100,100,99],"timestamp_mouse":[11,40,50,70,90,111,131,150,171,190,210,230,250,270,290,311,329,350,371,391,410,430,451,471,489,509,531,551,570,591,611,630,651,669,690,711,730,751,770,790,809,831,851,870,891,911,930,951,971,991,1011,1030,1050,1070,1090,1111,1130,1151,1170,1191,1211,1231,1251,1270,1291,1311,1331,1349,1371,1390,1410,1430,1451,1471,1489,1511,1530,1551,1571,1590,1611,1631,1649,1670,1691,1710,1731,1750,1770,1791,1810,1831,1850,1870,1890,1911,1930,1950,1970,1990,2012,2030,2050,2071,2090,2110,2130,2149,2169,2191,2210,2230,2250,2271,2290,2310,2330,2350,2371,2390,2410,2430,2450,2470,2490,2510,2529,2550,2571,2590,2610,2631],"xSR":741.5,"ySR":469.95,"xT1":424.9,"yT1":0,"xT2":1058.1,"yT2":0,"toosoon":0,"cond_shown":"Incongruent","ratio_trial":300,"L_num":4,"L_den":5,"R_num":8,"R_den":16,"correct_side":1,"subjID":"LauraCamilaRobayoRodriguez15","gender":"1","school":"4","age":"9"},{"start_time":1552068637749,"click_time":1552068639504,"finger_time":1552068639123,"fix_duration":1464.40519497516,"trial":23,"RT":1374,"MT":381,"sideResp":1,"stimulus":[],"xmouse":[776,776,776,776,776,776,776,776,776,776,776,776,776,776,776,776,776,776,776,776,776,776,776,776,776,776,776,776,776,776,776,776,776,776,776,776,776,776,776,776,776,776,776,776,776,776,776,776,776,776,776,776,776,776,776,776,776,776,776,776,776,776,776,776,776,776,776,775,772,759,725,710,701,689,677,657,647,638,631,627,616,610,602,589,575,544,531,517],"ymouse":[489,489,489,489,489,489,490,490,490,490,490,490,490,490,490,490,490,490,490,490,490,490,490,490,490,490,490,490,490,490,490,490,490,490,490,490,490,490,490,490,490,490,490,490,490,490,490,490,490,490,490,490,490,490,490,490,490,490,490,490,490,490,490,490,490,490,490,479,466,427,364,336,318,299,279,247,235,224,216,211,201,196,189,179,166,132,113,95],"timestamp_mouse":[14,45,54,75,94,114,134,154,175,194,214,235,255,274,295,313,335,355,375,393,413,435,454,474,494,514,534,555,574,595,615,634,654,675,694,714,734,754,775,794,814,834,854,874,895,914,934,954,974,995,1015,1035,1055,1074,1093,1114,1134,1155,1174,1195,1214,1233,1255,1274,1294,1314,1334,1354,1374,1395,1415,1434,1454,1474,1493,1514,1533,1554,1573,1593,1615,1633,1654,1674,1694,1715,1735,1755],"xSR":741.5,"ySR":469.95,"xT1":424.9,"yT1":0,"xT2":1058.1,"yT2":0,"toosoon":0,"cond_shown":"Incongruent","ratio_trial":100,"L_num":3,"L_den":5,"R_num":8,"R_den":16,"correct_side":1,"subjID":"LauraCamilaRobayoRodriguez15","gender":"1","school":"4","age":"9"},{"start_time":1552068641369,"click_time":1552068642944,"finger_time":1552068642064,"fix_duration":663.4823303366896,"trial":24,"RT":695,"MT":880,"sideResp":2,"stimulus":[],"xmouse":[790,791,791,791,791,791,791,791,791,791,791,791,791,791,791,791,791,791,791,791,791,791,791,791,791,791,791,791,791,791,796,808,825,840,861,866,868,869,869,869,869,869,869,869,869,869,869,869,869,869,869,870,873,878,885,906,918,934,954,994,1073,1099,1132,1156,1184,1192,1195,1197,1198,1198,1198,1198,1198,1198,1197,1190,1178,1168,1151],"ymouse":[510,510,510,510,510,510,510,510,510,510,510,510,510,510,510,510,510,510,510,510,510,510,510,510,510,510,510,510,510,510,510,503,488,470,443,438,433,432,431,431,431,431,431,431,431,431,431,431,431,431,431,428,425,420,409,372,351,330,305,265,192,162,132,105,64,50,43,40,38,37,37,37,37,37,37,37,40,43,48],"timestamp_mouse":[15,45,55,74,95,115,134,154,173,195,215,235,255,275,294,315,335,354,375,393,413,435,455,474,493,514,535,555,574,594,613,633,654,674,695,714,734,754,774,796,814,834,855,875,894,915,934,955,974,995,1014,1034,1054,1074,1094,1114,1135,1153,1175,1194,1214,1233,1254,1274,1295,1314,1335,1355,1375,1395,1415,1434,1453,1475,1495,1514,1534,1554,1574],"xSR":741.5,"ySR":469.95,"xT1":424.9,"yT1":0,"xT2":1058.1,"yT2":0,"toosoon":0,"cond_shown":"Incongruent","ratio_trial":100,"L_num":8,"L_den":20,"R_num":1,"R_den":2,"correct_side":2,"subjID":"LauraCamilaRobayoRodriguez15","gender":"1","school":"4","age":"9"},{"start_time":1552068644395,"click_time":1552068646543,"finger_time":1552068645182,"fix_duration":250,"trial":25,"RT":787,"MT":1361,"sideResp":1,"stimulus":[],"xmouse":[787,787,788,788,788,788,788,788,788,788,788,788,788,788,788,788,788,788,788,788,788,788,788,788,788,788,788,788,788,788,788,788,788,788,788,788,788,788,788,762,747,735,728,724,723,723,722,722,722,721,719,717,716,716,716,716,716,716,716,716,716,716,716,716,716,716,716,717,717,717,717,717,717,717,717,717,717,717,717,716,711,705,695,683,649,639,623,613,606,595,595,595,595,595,595,595,595,595,595,595,595,595,595,595,595,595,595,509],"ymouse":[545,545,545,545,545,545,545,545,545,545,545,545,545,545,545,545,545,545,545,545,545,545,545,545,545,545,545,545,545,545,545,545,545,545,545,545,545,545,547,578,593,604,609,611,613,613,613,613,613,613,615,617,618,618,618,618,618,618,618,618,618,618,618,618,618,616,612,609,606,606,606,606,606,606,606,600,596,594,593,588,584,572,550,514,370,288,183,120,71,13,13,13,13,13,13,13,13,13,13,13,13,13,13,13,13,13,13,2],"timestamp_mouse":[13,35,48,68,88,108,128,148,168,189,209,228,247,269,288,308,329,348,369,389,408,429,449,468,489,508,529,548,569,589,608,628,648,668,689,708,729,748,768,787,807,828,848,869,888,908,928,948,968,988,1008,1028,1048,1068,1088,1109,1129,1149,1168,1189,1208,1228,1249,1268,1288,1308,1328,1348,1368,1388,1409,1428,1448,1469,1488,1509,1528,1548,1569,1588,1609,1629,1649,1669,1688,1709,1728,1749,1768,1788,1808,1828,1848,1869,1888,1909,1929,1948,1969,1988,2008,2028,2048,2068,2088,2109,2127,2148],"xSR":741.5,"ySR":469.95,"xT1":424.9,"yT1":0,"xT2":1058.1,"yT2":0,"toosoon":0,"cond_shown":"Congruent","ratio_trial":100,"L_num":10,"L_den":25,"R_num":3,"R_den":10,"correct_side":1,"subjID":"LauraCamilaRobayoRodriguez15","gender":"1","school":"4","age":"9"},{"start_time":1552068649240,"click_time":1552068650863,"finger_time":1552068650563,"fix_duration":935.0008920029954,"trial":26,"RT":1323,"MT":300,"sideResp":2,"stimulus":[],"xmouse":[766,766,766,766,766,766,766,766,766,766,766,766,766,766,766,766,766,766,766,766,766,766,766,766,766,766,766,766,766,766,766,766,766,766,766,766,766,766,766,766,766,766,766,766,766,766,766,766,766,766,766,766,766,766,766,766,766,766,766,766,766,766,766,766,766,770,774,781,807,824,846,869,905,965,988,1008,1024,1040,1046,1050,1055,1060],"ymouse":[475,475,475,475,475,475,475,475,475,475,475,475,475,475,475,475,475,475,475,475,475,475,475,475,475,475,475,475,475,475,475,475,475,475,475,475,475,475,475,475,475,475,475,475,475,475,475,475,475,475,475,475,475,475,475,475,475,475,475,475,475,475,475,475,475,472,469,460,431,412,382,342,283,191,160,136,118,92,80,70,60,50],"timestamp_mouse":[9,24,48,64,84,103,124,143,163,183,203,223,243,264,283,303,323,343,363,383,403,423,443,463,483,503,522,543,562,584,604,623,643,664,683,704,723,744,764,784,803,823,844,863,884,904,923,944,964,983,1003,1023,1044,1063,1083,1104,1122,1143,1163,1184,1203,1224,1243,1263,1283,1303,1323,1343,1363,1383,1402,1423,1443,1463,1483,1503,1523,1545,1562,1583,1603,1622],"xSR":741.5,"ySR":469.95,"xT1":424.9,"yT1":0,"xT2":1058.1,"yT2":0,"toosoon":0,"cond_shown":"Congruent","ratio_trial":100,"L_num":6,"L_den":12,"R_num":15,"R_den":25,"correct_side":2,"subjID":"LauraCamilaRobayoRodriguez15","gender":"1","school":"4","age":"9"},{"start_time":1552068653231,"click_time":1552068654603,"finger_time":1552068654424,"fix_duration":1245.1952147031104,"trial":27,"RT":1193,"MT":179,"sideResp":2,"stimulus":[],"xmouse":[814,814,814,814,814,814,814,814,814,814,814,814,814,815,815,816,816,816,817,817,817,817,817,817,817,817,817,818,818,818,818,818,818,818,818,818,818,818,818,818,818,818,818,818,818,818,818,818,818,818,818,818,818,818,818,818,818,820,831,847,859,874,888,929,966,1005,1041,1070,1120],"ymouse":[503,503,503,503,503,503,503,503,503,503,503,503,503,504,504,504,504,504,503,503,502,502,502,502,502,502,502,502,502,502,502,502,502,502,502,502,502,502,502,502,502,502,502,502,502,502,502,502,502,502,502,502,502,502,502,502,502,500,483,455,434,413,391,344,301,237,180,139,67],"timestamp_mouse":[12,33,52,72,92,113,132,152,173,192,212,232,253,272,293,312,332,353,372,393,413,431,453,473,492,513,533,552,572,593,612,632,653,673,693,713,732,751,773,793,812,832,853,873,891,913,932,953,972,991,1011,1033,1052,1072,1093,1112,1133,1152,1172,1193,1211,1233,1252,1272,1291,1312,1332,1353,1372],"xSR":741.5,"ySR":469.95,"xT1":424.9,"yT1":0,"xT2":1058.1,"yT2":0,"toosoon":0,"cond_shown":"Congruent","ratio_trial":300,"L_num":1,"L_den":5,"R_num":3,"R_den":6,"correct_side":2,"subjID":"LauraCamilaRobayoRodriguez15","gender":"1","school":"4","age":"9"},{"start_time":1552068656280,"click_time":1552068657784,"finger_time":1552068657544,"fix_duration":854.74077259014,"trial":28,"RT":1264,"MT":240,"sideResp":2,"stimulus":[],"xmouse":[784,784,784,784,784,784,784,784,784,784,784,784,784,784,784,784,784,784,784,784,784,784,784,784,784,784,784,784,784,784,784,784,784,784,784,784,784,784,784,784,784,784,784,784,784,784,784,784,784,784,784,784,784,784,784,784,784,784,788,792,797,807,814,821,829,842,862,878,901,921,945,991,1015,1034,1047,1062],"ymouse":[556,556,556,556,556,556,556,556,556,556,556,556,556,556,556,556,556,556,556,556,556,556,556,556,556,556,556,556,556,556,556,556,556,556,556,556,556,556,556,556,556,556,556,556,556,556,556,556,556,556,556,556,556,556,556,556,556,556,554,545,532,502,485,468,451,424,374,336,287,236,193,114,78,51,31,6],"timestamp_mouse":[11,35,43,63,84,104,123,143,163,183,204,224,243,263,282,303,323,343,362,383,403,424,443,462,483,504,523,543,563,583,604,623,643,663,683,703,723,744,764,784,803,823,842,863,884,903,923,943,963,984,1004,1023,1044,1063,1083,1103,1123,1143,1162,1184,1203,1224,1242,1264,1283,1303,1324,1343,1363,1383,1404,1424,1443,1463,1483,1503],"xSR":741.5,"ySR":469.95,"xT1":424.9,"yT1":0,"xT2":1058.1,"yT2":0,"toosoon":0,"cond_shown":"Incongruent","ratio_trial":200,"L_num":7,"L_den":15,"R_num":4,"R_den":6,"correct_side":2,"subjID":"LauraCamilaRobayoRodriguez15","gender":"1","school":"4","age":"9"},{"start_time":1552068659669,"click_time":1552068661264,"finger_time":1552068660802,"fix_duration":363.77253811420553,"trial":29,"RT":1133,"MT":462,"sideResp":2,"stimulus":[],"xmouse":[798,798,798,798,798,798,798,798,798,798,798,798,798,798,798,798,798,798,798,798,798,798,798,798,798,798,798,798,798,798,798,798,798,798,798,798,798,798,798,798,798,798,798,798,798,798,798,798,798,798,798,798,798,798,798,798,799,842,873,902,933,960,1019,1019,1019,1019,1019,1019,1019,1019,1019,1019,1019,1019,1019,1019,1019,1019,1103,1098],"ymouse":[471,471,471,471,471,471,471,471,471,471,471,471,471,471,471,471,471,471,471,471,471,471,471,471,471,471,471,471,471,471,471,471,471,471,471,471,471,471,471,471,471,471,471,471,471,471,471,471,471,471,471,471,471,471,471,471,461,381,311,234,166,107,3,3,3,3,3,3,3,3,3,3,3,3,3,3,3,3,0,13],"timestamp_mouse":[14,34,54,75,95,115,134,155,174,194,215,233,255,275,294,314,335,355,374,395,415,435,455,474,495,514,535,555,575,593,614,635,654,674,694,715,734,753,775,795,814,835,853,875,894,915,934,955,974,994,1014,1035,1055,1074,1095,1115,1133,1153,1174,1194,1214,1234,1254,1274,1294,1315,1335,1355,1374,1394,1414,1435,1454,1474,1493,1515,1534,1554,1574,1595],"xSR":741.5,"ySR":469.95,"xT1":424.9,"yT1":0,"xT2":1058.1,"yT2":0,"toosoon":0,"cond_shown":"Congruent","ratio_trial":300,"L_num":4,"L_den":20,"R_num":13,"R_den":26,"correct_side":2,"subjID":"LauraCamilaRobayoRodriguez15","gender":"1","school":"4","age":"9"},{"start_time":1552068662717,"click_time":1552068664363,"finger_time":1552068663483,"fix_duration":451.56506650957454,"trial":30,"RT":766,"MT":880,"sideResp":2,"stimulus":[],"xmouse":[786,786,786,786,786,786,786,786,786,786,786,786,786,786,786,786,786,786,786,786,786,786,786,786,786,786,786,786,786,786,786,786,786,786,792,806,817,829,841,851,872,883,888,893,896,899,899,899,899,899,899,899,899,899,899,899,899,899,899,899,899,899,899,900,904,917,925,937,951,978,1030,1043,1050,1053,1054,1054,1054,1054,1055,1055,1056,1057,1059],"ymouse":[540,540,540,540,540,540,540,540,540,540,540,540,540,540,540,540,540,540,540,540,540,540,540,540,540,540,540,540,540,540,540,540,540,540,535,510,492,473,457,439,405,385,375,368,362,356,355,354,354,354,354,354,354,354,354,354,354,354,354,354,354,354,354,353,346,330,319,301,275,215,114,99,91,86,84,84,84,84,84,84,83,82,82],"timestamp_mouse":[20,44,45,67,86,105,126,147,166,187,206,226,246,267,286,305,327,347,367,387,406,427,447,465,486,507,526,546,566,586,607,627,647,667,685,706,726,747,766,787,806,827,846,866,886,906,925,947,966,987,1007,1026,1046,1066,1086,1107,1126,1147,1167,1187,1206,1226,1246,1266,1287,1306,1325,1346,1366,1385,1407,1427,1446,1466,1486,1507,1526,1547,1566,1586,1606,1626,1646],"xSR":741.5,"ySR":469.95,"xT1":424.9,"yT1":0,"xT2":1058.1,"yT2":0,"toosoon":0,"cond_shown":"Congruent","ratio_trial":300,"L_num":2,"L_den":20,"R_num":10,"R_den":25,"correct_side":2,"subjID":"LauraCamilaRobayoRodriguez15","gender":"1","school":"4","age":"9"},{"start_time":1552068666718,"click_time":1552068668823,"finger_time":1552068668343,"fix_duration":1094.401321674438,"trial":31,"RT":1625,"MT":480,"sideResp":2,"stimulus":[],"xmouse":[771,771,771,771,771,771,771,771,771,771,771,771,771,771,771,771,771,771,771,771,771,771,771,771,771,771,771,771,771,771,771,771,771,771,771,771,771,771,771,771,771,771,771,772,773,773,773,773,773,773,773,773,773,773,773,773,773,773,773,773,773,773,773,773,773,773,773,773,773,773,773,773,773,773,773,773,773,773,773,775,777,786,789,794,800,836,867,897,920,948,976,987,996,1004,1010,1017,1024,1028,1036,1041,1045,1054,1057,1058,1058,1060],"ymouse":[501,501,501,501,501,501,501,501,501,501,501,501,501,501,501,501,501,501,501,501,501,501,501,501,501,501,501,501,501,501,501,501,501,501,501,501,501,501,501,501,501,501,501,501,501,499,499,498,498,498,498,498,498,498,498,498,498,498,498,498,498,498,498,498,498,498,498,498,498,498,498,498,498,498,498,498,498,498,495,485,473,435,418,405,386,324,273,234,212,188,158,144,133,125,120,115,109,105,96,90,86,80,78,78,77,77],"timestamp_mouse":[13,35,45,65,85,105,126,145,165,186,205,226,244,266,285,306,324,346,366,385,406,425,445,465,486,506,524,545,566,586,606,626,645,665,686,706,725,744,766,786,804,826,845,865,885,906,925,946,966,985,1004,1026,1046,1065,1085,1105,1126,1146,1165,1186,1204,1226,1246,1265,1286,1305,1326,1345,1366,1386,1405,1426,1446,1466,1486,1505,1525,1546,1565,1585,1605,1625,1645,1665,1684,1707,1725,1745,1765,1786,1807,1825,1845,1865,1885,1905,1925,1945,1965,1986,2006,2026,2045,2065,2085,2105],"xSR":741.5,"ySR":469.95,"xT1":424.9,"yT1":0,"xT2":1058.1,"yT2":0,"toosoon":0,"cond_shown":"Congruent","ratio_trial":100,"L_num":7,"L_den":14,"R_num":15,"R_den":25,"correct_side":2,"subjID":"LauraCamilaRobayoRodriguez15","gender":"1","school":"4","age":"9"},{"start_time":1552068670886,"click_time":1552068672843,"finger_time":1552068672504,"fix_duration":922.7785021062891,"trial":32,"RT":1618,"MT":339,"sideResp":2,"stimulus":[],"xmouse":[793,793,793,793,793,793,793,793,793,793,793,793,793,793,793,793,793,793,793,793,793,793,793,793,793,793,793,793,793,793,793,793,793,793,793,793,793,793,793,793,793,793,793,793,793,793,793,793,793,793,793,793,793,793,793,793,793,793,793,793,793,793,793,793,793,793,793,793,793,793,793,793,793,793,793,793,793,793,795,805,817,831,868,890,906,926,949,995,1021,1032,1039,1045,1053,1058,1061,1063,1066,1071],"ymouse":[507,507,507,507,507,507,507,507,507,507,507,507,507,507,507,507,507,507,507,507,507,507,507,507,507,507,507,507,507,507,507,507,507,507,507,507,507,507,507,507,507,507,507,507,507,507,507,507,507,507,507,507,507,507,507,507,507,507,507,507,507,507,507,507,507,507,507,507,507,507,507,507,507,507,507,507,507,507,502,486,469,446,395,367,340,316,279,229,196,176,158,144,124,116,109,105,100,93],"timestamp_mouse":[17,47,57,76,98,118,137,157,177,197,217,238,256,277,297,319,338,358,378,397,416,437,457,477,496,517,538,558,578,598,618,637,658,677,698,717,737,757,777,797,818,837,857,878,898,918,938,958,978,998,1018,1037,1057,1076,1098,1118,1137,1156,1178,1198,1217,1238,1258,1278,1297,1318,1337,1357,1377,1398,1417,1437,1458,1478,1498,1517,1538,1556,1578,1597,1618,1637,1657,1677,1697,1718,1737,1757,1778,1797,1817,1837,1857,1877,1897,1917,1937,1957],"xSR":741.5,"ySR":469.95,"xT1":424.9,"yT1":0,"xT2":1058.1,"yT2":0,"toosoon":0,"cond_shown":"Congruent","ratio_trial":200,"L_num":9,"L_den":30,"R_num":13,"R_den":26,"correct_side":2,"subjID":"LauraCamilaRobayoRodriguez15","gender":"1","school":"4","age":"9"},{"start_time":1552068674117,"click_time":1552068676424,"finger_time":1552068675863,"fix_duration":250,"trial":33,"RT":1746,"MT":561,"sideResp":2,"stimulus":[],"xmouse":[763,763,763,763,763,763,763,763,763,763,763,763,763,763,763,763,763,763,763,763,763,763,763,763,763,764,764,765,765,765,765,765,765,765,765,765,765,765,765,765,765,765,766,767,767,767,767,767,767,767,767,767,767,767,767,767,767,767,767,767,767,767,767,767,767,767,767,767,767,767,767,767,767,767,767,767,767,767,767,767,767,767,767,767,769,771,788,825,846,864,882,931,963,986,1002,1022,1041,1056,1061,1066,1072,1080,1082,1082,1083,1084,1085,1088,1090,1091,1092,1092,1092,1092,1092,1093],"ymouse":[542,542,542,542,542,542,542,542,542,542,542,542,542,542,541,541,541,541,541,541,541,541,541,541,541,540,540,540,540,540,540,540,540,540,540,540,540,540,539,535,531,526,519,516,515,514,514,514,514,514,514,514,514,514,514,514,514,514,514,514,514,514,514,514,514,514,514,514,514,514,514,514,514,514,514,514,514,514,514,514,514,514,514,514,512,508,488,458,440,419,396,333,293,262,242,224,204,183,175,168,159,142,136,133,130,127,125,115,110,106,103,101,100,100,100,99],"timestamp_mouse":[9,41,46,67,86,107,126,146,165,186,207,226,247,267,286,307,327,347,366,386,406,427,447,465,487,506,525,546,566,587,607,626,646,666,687,707,726,747,766,787,806,825,845,866,887,907,927,946,966,987,1007,1026,1045,1067,1087,1107,1126,1145,1167,1186,1206,1226,1245,1267,1287,1306,1326,1346,1367,1387,1406,1426,1446,1466,1487,1506,1526,1546,1566,1586,1607,1627,1647,1666,1686,1706,1725,1746,1766,1786,1805,1827,1846,1866,1886,1906,1926,1946,1966,1986,2006,2027,2046,2067,2086,2106,2126,2146,2166,2186,2206,2227,2246,2267,2285,2307],"xSR":741.5,"ySR":469.95,"xT1":424.9,"yT1":0,"xT2":1058.1,"yT2":0,"toosoon":0,"cond_shown":"Incongruent","ratio_trial":100,"L_num":3,"L_den":9,"R_num":7,"R_den":30,"correct_side":1,"subjID":"LauraCamilaRobayoRodriguez15","gender":"1","school":"4","age":"9"},{"start_time":1552068680297,"click_time":1552068681703,"finger_time":1552068681363,"fix_duration":630.3998065348736,"trial":34,"RT":1066,"MT":340,"sideResp":2,"stimulus":[],"xmouse":[771,771,771,774,776,776,776,776,776,776,776,776,776,776,776,776,776,776,776,776,776,776,776,776,776,776,776,776,776,776,776,776,776,776,776,776,776,776,776,776,777,777,777,777,777,777,777,777,777,777,779,783,792,814,830,840,851,863,894,914,932,953,970,1003,1027,1042,1058,1074,1114,1131,1141],"ymouse":[512,512,512,512,510,510,510,510,510,510,510,510,510,510,510,510,510,510,510,510,510,510,510,510,510,510,510,510,510,510,510,510,510,510,510,510,510,510,510,510,510,510,510,510,510,510,510,510,510,510,509,498,482,447,424,411,399,389,364,350,335,319,304,272,244,228,209,190,136,108,82],"timestamp_mouse":[20,28,47,67,86,105,126,146,166,186,207,226,247,266,287,307,326,347,367,386,406,426,447,467,486,507,527,546,565,587,607,627,646,666,687,706,727,746,767,787,806,827,845,867,886,906,927,947,967,985,1005,1026,1046,1066,1086,1106,1126,1146,1166,1186,1206,1226,1246,1267,1286,1306,1325,1345,1366,1387,1406],"xSR":741.5,"ySR":469.95,"xT1":424.9,"yT1":0,"xT2":1058.1,"yT2":0,"toosoon":0,"cond_shown":"Congruent","ratio_trial":100,"L_num":6,"L_den":12,"R_num":15,"R_den":25,"correct_side":2,"subjID":"LauraCamilaRobayoRodriguez15","gender":"1","school":"4","age":"9"},{"start_time":1552068683336,"click_time":1552068685065,"finger_time":1552068684903,"fix_duration":250,"trial":35,"RT":1567,"MT":162,"sideResp":2,"stimulus":[],"xmouse":[772,772,772,772,772,772,772,772,772,772,772,772,772,772,772,772,772,772,772,772,772,772,772,772,772,772,772,772,772,772,772,772,772,772,772,772,772,772,772,772,772,772,772,772,772,772,772,772,772,772,772,772,772,772,772,772,772,772,772,772,772,772,772,772,772,772,772,772,772,772,772,772,772,772,772,772,777,800,826,866,932,959,1003,1021,1036,1049,1074],"ymouse":[546,546,546,546,546,546,546,546,546,546,546,546,546,546,546,546,546,546,546,546,546,546,546,546,546,546,546,546,546,546,546,546,546,546,546,546,546,546,546,546,546,546,546,546,546,546,546,546,546,546,546,546,546,546,546,546,546,546,546,546,546,546,546,546,546,546,546,546,546,546,546,546,546,546,546,546,534,486,422,350,260,209,130,97,70,50,20],"timestamp_mouse":[13,26,46,68,88,108,127,146,168,188,207,227,248,267,287,308,327,348,367,388,407,428,446,468,488,507,526,547,566,588,608,627,647,668,688,707,727,747,767,787,808,827,847,868,887,907,927,947,968,987,1007,1028,1047,1068,1087,1107,1128,1148,1167,1187,1208,1228,1247,1268,1287,1308,1328,1346,1368,1388,1408,1428,1447,1467,1488,1506,1528,1547,1567,1587,1607,1627,1647,1667,1687,1707,1729],"xSR":741.5,"ySR":469.95,"xT1":424.9,"yT1":0,"xT2":1058.1,"yT2":0,"toosoon":0,"cond_shown":"Congruent","ratio_trial":300,"L_num":1,"L_den":20,"R_num":7,"R_den":20,"correct_side":2,"subjID":"LauraCamilaRobayoRodriguez15","gender":"1","school":"4","age":"9"},{"start_time":1552068688535,"click_time":1552068690903,"finger_time":1552068689942,"fix_duration":371.66001391450897,"trial":36,"RT":1407,"MT":961,"sideResp":1,"stimulus":[],"xmouse":[773,773,773,773,773,773,773,773,773,773,773,773,773,773,773,773,773,773,773,773,773,773,773,773,773,773,773,773,773,773,773,773,773,773,773,773,773,773,773,773,773,773,773,773,773,773,773,773,773,773,773,773,773,773,773,773,773,773,773,773,773,773,773,773,773,773,773,773,766,754,739,726,715,713,713,711,710,708,702,698,691,679,645,629,616,607,597,582,572,567,563,559,545,538,534,531,528,524,522,521,521,520,519,518,515,515,515,515,515,515,515,515,515,515,515,515,515,515,513],"ymouse":[518,518,518,518,518,518,518,518,518,518,518,518,518,518,518,518,518,518,518,518,518,518,518,518,518,518,518,518,518,518,518,518,518,518,518,518,518,518,518,518,518,518,518,518,518,518,518,518,518,518,518,518,518,518,518,518,518,518,518,518,518,518,518,518,518,518,518,518,494,472,452,433,414,407,401,394,389,382,375,370,365,358,334,320,307,291,275,235,202,184,170,160,133,123,115,109,106,103,102,102,102,102,102,101,101,101,101,101,101,101,101,101,101,101,101,101,101,101,96],"timestamp_mouse":[11,43,49,68,88,109,128,148,169,188,208,229,249,268,288,309,329,348,369,389,408,428,449,469,489,510,528,548,568,588,608,628,649,669,688,708,728,748,768,787,809,829,849,868,888,908,928,948,968,988,1008,1029,1049,1068,1087,1108,1128,1148,1168,1187,1208,1229,1248,1269,1289,1307,1328,1348,1369,1388,1407,1428,1448,1468,1488,1508,1528,1548,1569,1588,1608,1628,1648,1669,1688,1707,1729,1749,1769,1788,1808,1828,1849,1868,1889,1908,1929,1949,1969,1988,2009,2029,2048,2067,2089,2109,2129,2148,2168,2188,2207,2227,2249,2269,2288,2308,2328,2347,2367],"xSR":741.5,"ySR":469.95,"xT1":424.9,"yT1":0,"xT2":1058.1,"yT2":0,"toosoon":0,"cond_shown":"Incongruent","ratio_trial":300,"L_num":8,"L_den":10,"R_num":9,"R_den":18,"correct_side":1,"subjID":"LauraCamilaRobayoRodriguez15","gender":"1","school":"4","age":"9"},{"start_time":1552068693928,"click_time":1552068695563,"finger_time":1552068695122,"fix_duration":1464.3040698710008,"trial":37,"RT":1194,"MT":441,"sideResp":1,"stimulus":[],"xmouse":[776,776,776,776,776,776,776,776,776,776,776,776,776,776,776,776,776,776,776,776,776,776,776,776,776,776,776,776,776,776,776,776,776,776,776,776,776,776,776,776,776,776,776,776,776,776,776,776,776,776,776,776,776,776,776,776,776,776,777,777,776,771,763,751,740,723,680,640,589,569,553,543,542,542,541,535,533,532,530,529,526,524],"ymouse":[511,511,511,511,511,511,511,511,511,511,511,511,511,511,511,511,511,511,511,511,511,511,511,511,511,511,511,511,511,511,511,511,511,511,511,511,511,511,511,511,511,511,511,511,511,511,511,511,511,511,511,511,511,511,511,511,511,511,502,467,436,411,388,339,303,253,174,107,48,33,22,15,14,14,13,12,12,12,12,14,17,20],"timestamp_mouse":[15,42,56,75,94,116,134,155,176,196,216,236,255,276,296,316,335,355,376,395,415,436,456,475,494,516,535,555,575,595,616,636,656,676,695,716,735,756,776,795,816,836,855,874,896,916,935,956,975,994,1015,1035,1056,1076,1095,1114,1136,1154,1175,1194,1216,1235,1254,1275,1296,1316,1335,1355,1375,1395,1416,1435,1455,1475,1496,1516,1535,1556,1575,1595,1615,1634],"xSR":741.5,"ySR":469.95,"xT1":424.9,"yT1":0,"xT2":1058.1,"yT2":0,"toosoon":0,"cond_shown":"Congruent","ratio_trial":200,"L_num":13,"L_den":26,"R_num":14,"R_den":20,"correct_side":2,"subjID":"LauraCamilaRobayoRodriguez15","gender":"1","school":"4","age":"9"},{"start_time":1552068708966,"click_time":1552068710324,"finger_time":1552068709943,"fix_duration":921.1345690652308,"trial":38,"RT":977,"MT":381,"sideResp":2,"stimulus":[],"xmouse":[782,782,782,782,782,782,782,782,782,782,782,782,782,782,782,782,782,782,782,782,782,782,782,782,782,782,782,782,782,782,782,782,782,782,782,782,782,782,782,782,782,782,782,782,783,788,806,840,884,899,911,918,929,936,942,947,950,964,971,976,981,989,994,1014,1023,1040,1055,1064],"ymouse":[522,522,522,522,522,522,522,522,522,522,522,522,522,522,522,522,522,522,522,522,522,522,522,522,522,522,522,522,522,522,522,522,522,522,522,522,522,522,522,522,522,522,522,522,521,520,507,488,464,454,444,433,412,404,395,389,382,346,323,298,265,228,192,118,90,54,24,4],"timestamp_mouse":[18,42,57,77,97,117,137,158,177,196,217,237,257,277,298,317,338,358,377,398,417,437,458,477,497,517,538,557,578,598,618,637,657,677,697,717,738,757,777,797,816,837,857,877,897,917,937,957,977,996,1017,1037,1058,1077,1097,1116,1138,1158,1177,1197,1217,1237,1256,1277,1297,1317,1338,1357],"xSR":741.5,"ySR":469.95,"xT1":424.9,"yT1":0,"xT2":1058.1,"yT2":0,"toosoon":0,"cond_shown":"Congruent","ratio_trial":100,"L_num":7,"L_den":14,"R_num":9,"R_den":15,"correct_side":2,"subjID":"LauraCamilaRobayoRodriguez15","gender":"1","school":"4","age":"9"},{"start_time":1552068712598,"click_time":1552068713904,"finger_time":1552068713323,"fix_duration":1251.8664832973648,"trial":39,"RT":725,"MT":581,"sideResp":2,"stimulus":[],"xmouse":[797,797,797,797,797,797,797,797,797,797,797,797,797,797,797,797,797,797,797,797,797,797,797,797,797,797,797,797,797,797,797,797,797,801,824,838,911,1023,1088,1134,1155,1165,1167,1167,1167,1167,1167,1167,1167,1167,1166,1164,1153,1148,1143,1137,1135,1129,1127,1127,1126,1124,1124,1123,1122,1119],"ymouse":[508,508,508,508,508,508,508,508,508,508,508,508,508,508,508,508,508,508,508,508,508,508,508,508,508,508,508,508,508,508,508,508,508,504,488,478,435,370,327,284,258,243,238,238,238,238,238,238,230,217,203,191,161,149,140,127,121,113,111,109,109,107,107,105,100,92],"timestamp_mouse":[9,25,46,66,85,106,125,146,165,185,205,225,246,266,285,306,325,344,365,385,404,426,445,464,485,505,526,545,566,584,605,625,646,666,685,705,725,746,765,785,805,825,845,865,885,906,925,945,965,986,1005,1025,1045,1065,1085,1105,1125,1144,1165,1186,1205,1225,1245,1266,1286,1306],"xSR":741.5,"ySR":469.95,"xT1":424.9,"yT1":0,"xT2":1058.1,"yT2":0,"toosoon":0,"cond_shown":"Incongruent","ratio_trial":300,"L_num":4,"L_den":20,"R_num":2,"R_den":4,"correct_side":2,"subjID":"LauraCamilaRobayoRodriguez15","gender":"1","school":"4","age":"9"},{"start_time":1552068716165,"click_time":1552068717984,"finger_time":1552068717543,"fix_duration":1159.6429740193616,"trial":40,"RT":1378,"MT":441,"sideResp":1,"stimulus":[],"xmouse":[799,799,799,799,799,799,799,799,799,799,799,799,799,799,799,799,799,799,799,799,799,799,799,799,799,799,799,799,799,799,799,799,799,799,799,799,799,799,799,799,799,799,799,799,799,799,799,799,799,799,799,799,799,799,799,799,799,799,799,799,799,799,799,799,799,799,799,799,800,800,800,800,799,784,774,752,712,651,572,553,541,539,539,538,538,536,533,531,528,526,524],"ymouse":[507,507,507,507,507,507,507,507,507,507,507,507,507,507,507,507,507,507,507,507,507,507,507,507,507,507,507,507,507,507,507,507,507,507,507,507,507,507,507,507,507,507,507,507,507,507,507,507,507,507,507,507,507,507,507,507,507,507,507,507,507,507,507,507,507,507,505,499,467,462,462,462,461,447,432,397,331,249,175,162,154,153,153,153,149,139,128,121,109,104,95],"timestamp_mouse":[18,45,58,78,99,119,137,159,178,198,219,237,258,279,299,318,339,359,379,398,419,439,458,479,497,518,539,559,578,598,619,637,659,678,698,718,738,758,778,798,819,839,858,878,898,918,939,958,978,998,1018,1038,1058,1077,1099,1118,1139,1158,1178,1198,1219,1238,1259,1278,1297,1319,1339,1358,1378,1399,1418,1438,1459,1479,1498,1517,1538,1558,1578,1599,1618,1638,1659,1679,1698,1718,1738,1758,1778,1797,1818],"xSR":741.5,"ySR":469.95,"xT1":424.9,"yT1":0,"xT2":1058.1,"yT2":0,"toosoon":0,"cond_shown":"Congruent","ratio_trial":300,"L_num":20,"L_den":25,"R_num":13,"R_den":26,"correct_side":1,"subjID":"LauraCamilaRobayoRodriguez15","gender":"1","school":"4","age":"9"},{"start_time":1552068719726,"click_time":1552068721844,"finger_time":1552068721443,"fix_duration":601.9707556951608,"trial":41,"RT":1717,"MT":401,"sideResp":1,"stimulus":[],"xmouse":[802,802,802,802,802,802,802,802,802,802,802,802,802,802,802,802,802,801,801,800,799,794,792,791,789,789,789,789,789,789,789,788,787,787,786,785,785,785,785,785,785,785,785,785,785,785,785,785,785,785,785,785,785,785,785,785,785,785,785,785,785,785,785,785,785,785,785,785,785,785,785,785,785,785,785,785,785,785,785,785,785,785,785,784,783,775,728,693,658,624,577,577,577,577,577,577,577,577,577,577,577,577,577,577,503,503],"ymouse":[524,524,524,524,524,524,524,524,524,524,524,524,524,524,524,524,524,524,524,523,523,523,523,523,523,523,523,523,523,523,523,519,515,510,506,505,505,505,505,505,505,505,505,505,505,505,505,505,505,504,504,502,500,499,498,498,498,498,498,498,498,498,498,498,498,498,498,498,498,498,498,498,498,498,498,498,498,498,498,498,498,498,498,489,475,412,216,152,103,63,4,4,4,4,4,4,4,4,4,4,4,4,4,4,0,4],"timestamp_mouse":[17,38,58,77,97,118,138,158,178,197,218,238,257,277,297,317,338,357,378,398,417,438,458,476,496,517,538,557,578,598,618,637,656,677,698,718,738,758,778,797,818,838,857,877,897,917,938,957,977,997,1018,1036,1057,1078,1097,1116,1138,1157,1178,1198,1218,1237,1257,1278,1298,1317,1337,1356,1378,1398,1417,1438,1457,1478,1498,1517,1538,1558,1578,1598,1618,1637,1658,1677,1698,1717,1737,1757,1777,1797,1818,1836,1856,1878,1898,1918,1937,1957,1977,1998,2018,2037,2058,2077,2097,2117],"xSR":741.5,"ySR":469.95,"xT1":424.9,"yT1":0,"xT2":1058.1,"yT2":0,"toosoon":0,"cond_shown":"Incongruent","ratio_trial":200,"L_num":1,"L_den":3,"R_num":2,"R_den":15,"correct_side":1,"subjID":"LauraCamilaRobayoRodriguez15","gender":"1","school":"4","age":"9"},{"start_time":1552068724295,"click_time":1552068726303,"finger_time":1552068725623,"fix_duration":1028.5452694131543,"trial":42,"RT":1328,"MT":680,"sideResp":1,"stimulus":[],"xmouse":[783,783,783,783,783,783,783,783,783,783,783,783,783,784,784,784,785,786,786,786,786,786,786,786,786,786,786,786,786,786,786,787,787,787,787,787,787,787,787,787,787,787,787,787,787,787,787,787,787,787,787,787,787,787,787,787,787,787,787,787,787,787,787,787,787,787,787,787,775,759,746,733,720,693,684,678,671,661,651,637,629,618,609,574,565,556,549,542,536,534,532,532,532,532,532,531,531,531,529,526,521],"ymouse":[499,499,499,499,499,499,499,499,499,499,499,499,499,499,498,498,498,497,497,497,496,496,495,495,495,495,495,495,495,495,495,495,495,495,495,495,495,495,495,495,495,495,495,495,495,495,495,495,495,495,495,494,494,494,494,494,494,494,494,494,494,494,494,494,493,481,456,423,333,293,265,244,227,204,199,197,193,186,178,168,163,154,146,122,113,106,99,92,82,80,77,76,76,76,76,76,76,76,76,75,73],"timestamp_mouse":[14,39,48,68,87,109,129,148,169,188,208,228,249,269,288,308,329,349,369,389,408,429,449,468,489,509,528,549,568,587,609,628,648,667,689,708,729,749,767,788,807,828,848,869,888,910,928,949,968,989,1008,1028,1048,1068,1088,1109,1128,1149,1167,1189,1208,1228,1248,1268,1288,1308,1328,1348,1368,1388,1408,1428,1448,1469,1488,1508,1529,1548,1568,1588,1608,1628,1648,1668,1688,1708,1728,1748,1769,1788,1809,1829,1848,1868,1889,1908,1928,1949,1968,1988,2008],"xSR":741.5,"ySR":469.95,"xT1":424.9,"yT1":0,"xT2":1058.1,"yT2":0,"toosoon":0,"cond_shown":"Incongruent","ratio_trial":200,"L_num":7,"L_den":10,"R_num":14,"R_den":28,"correct_side":1,"subjID":"LauraCamilaRobayoRodriguez15","gender":"1","school":"4","age":"9"},{"start_time":1552068727795,"click_time":1552068730265,"finger_time":1552068729883,"fix_duration":250,"trial":43,"RT":2088,"MT":382,"sideResp":1,"stimulus":[],"xmouse":[817,817,817,817,817,817,817,817,817,817,817,817,817,817,817,817,817,817,817,818,819,819,820,820,821,821,821,822,823,825,825,826,826,826,826,826,826,826,826,826,826,826,826,826,826,826,826,826,826,826,826,826,826,826,826,826,826,826,826,826,826,826,826,826,826,826,826,826,826,826,826,826,826,826,826,826,826,826,826,826,826,826,826,826,826,826,826,826,826,826,826,826,826,826,826,826,826,826,826,826,826,826,826,826,811,774,758,695,578,521,521,521,521,521,521,521,521,521,521,521,521,521,521,445],"ymouse":[526,526,526,526,526,526,526,526,526,526,526,526,526,526,526,526,526,525,524,523,522,521,520,520,519,519,519,518,517,515,513,512,510,509,506,506,506,505,505,505,505,505,504,504,504,504,503,503,503,503,503,503,503,503,503,503,503,503,503,503,503,503,503,503,503,503,503,503,503,503,503,503,503,503,503,503,503,503,503,503,503,503,503,503,503,503,503,503,503,503,503,503,503,503,503,503,503,503,503,503,503,503,503,498,467,383,352,240,74,0,0,0,0,0,0,0,0,0,0,0,0,0,0,16],"timestamp_mouse":[9,39,47,67,88,108,129,148,168,189,209,228,249,268,289,308,329,349,368,389,408,428,449,469,488,507,529,548,568,587,608,629,649,668,689,709,729,748,769,789,809,829,849,869,888,908,928,948,967,988,1008,1028,1049,1069,1089,1107,1129,1149,1168,1189,1209,1229,1248,1269,1288,1308,1329,1349,1369,1389,1407,1429,1448,1469,1489,1508,1529,1549,1568,1589,1608,1629,1649,1669,1688,1709,1729,1749,1768,1789,1809,1828,1847,1869,1889,1908,1929,1948,1967,1989,2009,2029,2047,2068,2088,2108,2128,2148,2170,2188,2208,2228,2248,2269,2288,2308,2328,2348,2368,2389,2409,2428,2448,2470],"xSR":741.5,"ySR":469.95,"xT1":424.9,"yT1":0,"xT2":1058.1,"yT2":0,"toosoon":0,"cond_shown":"Congruent","ratio_trial":200,"L_num":6,"L_den":12,"R_num":7,"R_den":10,"correct_side":2,"subjID":"LauraCamilaRobayoRodriguez15","gender":"1","school":"4","age":"9"},{"start_time":1552068741535,"click_time":1552068743343,"finger_time":1552068742984,"fix_duration":831.4719571885084,"trial":44,"RT":1449,"MT":359,"sideResp":2,"stimulus":[],"xmouse":[784,784,784,784,784,784,784,784,784,784,784,784,784,784,784,784,784,784,784,784,784,784,784,784,784,784,784,784,784,784,784,784,784,784,784,784,784,784,784,784,784,784,784,784,784,784,784,784,784,784,784,784,784,784,784,784,784,784,784,784,784,784,784,784,784,784,784,784,784,784,790,795,804,829,848,862,874,887,914,929,941,953,965,991,1012,1023,1033,1042,1053,1056,1060],"ymouse":[500,500,500,500,500,500,500,500,500,500,500,500,500,500,500,500,500,500,500,500,500,500,500,500,500,500,500,500,500,500,500,500,500,500,500,500,500,500,500,500,500,500,500,500,500,500,500,500,500,500,500,500,500,500,500,500,500,500,500,500,500,500,500,500,500,500,500,500,500,500,484,474,454,411,379,354,333,313,272,251,235,216,200,167,142,129,117,105,93,90,88],"timestamp_mouse":[9,36,49,68,89,109,128,148,168,188,209,229,248,267,288,309,328,348,369,389,408,428,448,468,489,508,529,549,569,588,609,628,647,668,688,709,729,749,769,789,809,829,848,867,888,909,929,949,969,988,1007,1029,1047,1068,1089,1108,1128,1149,1169,1188,1208,1229,1249,1268,1289,1309,1328,1349,1368,1389,1409,1428,1449,1468,1488,1508,1529,1548,1568,1588,1608,1628,1647,1669,1688,1708,1729,1749,1768,1788,1808],"xSR":741.5,"ySR":469.95,"xT1":424.9,"yT1":0,"xT2":1058.1,"yT2":0,"toosoon":0,"cond_shown":"Incongruent","ratio_trial":100,"L_num":10,"L_den":25,"R_num":8,"R_den":16,"correct_side":2,"subjID":"LauraCamilaRobayoRodriguez15","gender":"1","school":"4","age":"9"},{"start_time":1552068745337,"click_time":1552068747863,"finger_time":1552068747543,"fix_duration":551.7290474781786,"trial":45,"RT":2206,"MT":320,"sideResp":1,"stimulus":[],"xmouse":[782,782,782,784,784,784,785,785,785,785,785,785,785,785,785,785,785,785,785,785,785,785,785,785,785,785,785,785,785,785,785,785,785,785,785,785,785,785,785,785,785,785,785,785,785,789,794,800,811,815,817,819,819,819,819,819,819,819,819,819,819,819,819,819,819,819,819,819,819,819,819,817,814,813,812,810,809,808,806,804,801,799,795,793,787,785,782,779,777,777,776,775,774,773,773,773,773,773,773,773,773,773,773,773,773,770,768,767,763,755,752,743,738,723,691,669,644,618,593,553,531,504,490,478,460,457,456],"ymouse":[537,537,537,537,537,537,538,538,538,539,539,539,539,539,539,539,539,539,539,539,539,539,539,539,539,539,539,539,539,539,539,539,539,539,539,539,539,539,539,539,539,539,539,539,539,537,526,518,500,495,492,490,490,490,490,490,490,490,490,490,490,490,490,490,490,490,490,490,490,490,490,490,491,491,493,493,493,494,495,496,498,499,503,505,508,509,511,513,513,513,514,514,514,514,514,514,514,514,514,514,514,514,514,514,514,511,508,503,493,474,464,442,433,401,355,330,306,282,254,215,196,167,149,132,106,100,99],"timestamp_mouse":[13,36,47,67,86,105,127,147,166,185,206,226,247,266,287,307,327,346,365,386,407,427,446,466,487,505,526,546,567,586,607,626,647,667,687,706,726,747,767,786,807,827,846,867,886,906,926,946,967,986,1006,1026,1046,1067,1086,1107,1126,1146,1167,1187,1207,1225,1247,1267,1287,1307,1327,1347,1366,1387,1407,1426,1447,1466,1486,1506,1526,1546,1567,1586,1607,1627,1646,1666,1686,1706,1726,1746,1766,1786,1807,1826,1847,1866,1897,1906,1927,1947,1967,1987,2006,2027,2046,2067,2085,2106,2127,2147,2166,2186,2206,2225,2246,2266,2286,2307,2327,2346,2366,2386,2406,2425,2446,2466,2485,2506,2526],"xSR":741.5,"ySR":469.95,"xT1":424.9,"yT1":0,"xT2":1058.1,"yT2":0,"toosoon":0,"cond_shown":"Congruent","ratio_trial":200,"L_num":6,"L_den":15,"R_num":3,"R_den":15,"correct_side":1,"subjID":"LauraCamilaRobayoRodriguez15","gender":"1","school":"4","age":"9"},{"start_time":1552068749667,"click_time":1552068751042,"finger_time":1552068750763,"fix_duration":1002.999449768561,"trial":46,"RT":1096,"MT":279,"sideResp":1,"stimulus":[],"xmouse":[815,815,815,815,815,815,815,815,815,815,815,815,815,815,815,815,815,815,815,815,815,815,815,815,815,815,815,815,815,815,815,815,815,815,815,815,815,815,816,816,817,818,818,819,819,819,819,819,819,818,815,813,802,793,786,780,768,738,724,708,692,675,644,621,591,571,553,528,523],"ymouse":[558,558,558,558,558,558,558,558,558,558,558,558,558,558,558,558,558,558,558,558,558,558,558,558,558,558,558,558,558,558,558,558,558,558,558,558,558,558,557,555,551,550,545,543,542,541,540,539,537,534,529,523,501,476,453,426,393,326,300,278,256,233,186,147,103,73,48,27,24],"timestamp_mouse":[16,36,56,76,97,115,136,156,176,197,217,236,257,276,297,316,335,356,377,397,417,436,455,477,497,515,537,556,576,597,617,637,657,677,696,717,737,757,776,796,817,836,855,877,897,917,937,957,976,997,1016,1037,1055,1076,1096,1117,1135,1156,1176,1196,1216,1237,1256,1277,1296,1316,1336,1356,1375],"xSR":741.5,"ySR":469.95,"xT1":424.9,"yT1":0,"xT2":1058.1,"yT2":0,"toosoon":0,"cond_shown":"Congruent","ratio_trial":300,"L_num":1,"L_den":3,"R_num":19,"R_den":30,"correct_side":2,"subjID":"LauraCamilaRobayoRodriguez15","gender":"1","school":"4","age":"9"},{"start_time":1552068758235,"click_time":1552068760143,"finger_time":1552068760064,"fix_duration":1310.805482529949,"trial":47,"RT":1829,"MT":79,"sideResp":2,"stimulus":[],"xmouse":[800,800,800,800,800,800,800,800,800,800,800,800,800,800,800,800,800,800,800,800,800,800,800,800,800,800,800,800,800,800,800,800,800,800,800,800,800,800,800,800,800,800,800,800,800,800,800,800,800,800,800,800,800,800,800,800,800,800,800,800,800,800,800,800,800,800,800,800,800,800,800,800,800,800,800,800,800,800,800,800,800,800,800,800,800,800,800,800,800,801,807,826,864,920,977,1086],"ymouse":[509,509,509,509,509,509,509,509,509,509,509,509,509,509,509,509,509,509,509,509,509,509,509,509,509,509,509,509,509,509,509,509,509,509,509,509,509,509,509,509,509,509,509,509,509,509,509,509,509,509,509,509,509,509,509,509,509,509,509,509,509,509,509,509,509,509,509,509,509,509,509,509,509,509,509,509,509,509,509,509,509,509,509,509,509,509,509,509,509,507,476,406,340,271,196,31],"timestamp_mouse":[13,37,48,68,88,108,128,147,169,187,209,228,249,269,289,309,329,348,369,388,409,429,447,469,489,509,529,549,569,588,609,628,649,668,687,707,729,748,769,789,808,829,848,869,889,909,928,949,968,988,1008,1028,1048,1068,1088,1109,1128,1147,1168,1188,1209,1228,1248,1269,1289,1309,1328,1348,1367,1388,1408,1428,1448,1469,1489,1508,1527,1549,1569,1588,1608,1628,1649,1669,1689,1708,1728,1749,1769,1788,1808,1829,1848,1868,1887,1908],"xSR":741.5,"ySR":469.95,"xT1":424.9,"yT1":0,"xT2":1058.1,"yT2":0,"toosoon":0,"cond_shown":"Incongruent","ratio_trial":100,"L_num":8,"L_den":16,"R_num":6,"R_den":10,"correct_side":2,"subjID":"LauraCamilaRobayoRodriguez15","gender":"1","school":"4","age":"9"},{"start_time":1552068763321,"click_time":1552068765443,"finger_time":1552068764823,"fix_duration":517.1728427047025,"trial":48,"RT":1502,"MT":620,"sideResp":2,"stimulus":[],"xmouse":[795,795,795,795,795,795,795,795,795,795,795,795,795,795,795,795,795,795,795,795,795,795,795,795,795,795,795,795,795,795,795,795,795,795,795,795,795,795,795,795,795,795,795,795,795,795,795,795,795,795,795,795,795,795,795,795,795,795,795,795,795,795,795,795,795,795,795,795,795,795,795,801,806,815,826,849,869,927,960,988,1008,1026,1051,1060,1066,1070,1071,1072,1073,1074,1077,1078,1084,1087,1087,1087,1087,1087,1087,1087,1087,1087,1087,1087,1087,1087,1087],"ymouse":[545,545,545,545,545,545,545,545,545,545,545,545,545,545,545,545,545,545,545,545,545,545,545,545,545,545,545,545,545,545,545,545,545,545,545,545,545,545,545,545,545,545,545,545,545,545,545,545,545,545,545,545,545,545,545,545,545,545,545,545,545,545,545,545,545,545,545,545,545,545,543,537,531,522,511,485,463,398,368,340,319,297,267,257,252,246,243,239,236,232,224,214,186,162,154,136,119,114,111,110,110,109,107,107,105,102,97],"timestamp_mouse":[9,23,42,62,82,102,122,142,163,183,202,223,243,263,282,303,323,343,363,383,402,421,443,462,483,503,521,543,562,582,603,623,643,662,683,702,723,742,762,782,803,823,843,863,883,903,921,943,963,983,1002,1024,1042,1063,1083,1103,1121,1142,1163,1183,1203,1223,1242,1262,1283,1303,1323,1343,1361,1383,1402,1423,1442,1463,1482,1502,1521