[{"start_time":1552069304109,"click_time":1552069304445,"finger_time":1552069304123,"fix_duration":900.038202677375,"trial":0,"RT":14,"MT":322,"sideResp":2,"stimulus":"img/750/equaldotanddens/L/9_Ratio_750_L_4_R_3.png","xmouse":[771,771,771,771,771,771,771,771,772,773,776,782,792,823,937,1042,1114],"ymouse":[538,538,538,538,538,538,538,538,538,537,536,531,519,439,260,146,58],"timestamp_mouse":[14,35,55,76,96,115,134,154,175,194,215,235,256,275,295,315,335],"xSR":741.5,"ySR":501.8,"xT1":424.9,"yT1":0,"xT2":1058.1,"yT2":0,"toosoon":0,"cond_shown":"equaldotanddens","ratio_trial":750,"smaller_num":"3","larger_num":"4","correct_side":1,"subjID":"LauraCamilaRobayoRodriguez15","gender":"1","age":"9","school":"4","test":{"fix_dur":[250,1500],"timestim":300,"targets_dim":[100,100],"targets_relative_coord":[0.3,0.7],"size_stim":[880,420],"start_dim":[100,100],"size_start":[300,300],"size_fix":60,"samplingrate":20,"img_types":["equaldotsize","equaldotanddens","randomdotsizeEA"],"ratios":[250,500,750,900],"rep_conds":9,"nTrials":120,"trials_to_rest":500,"Trials_order":[91,68,63,83,102,39,86,119,36,90,73,76,12,10,82,21,18,15,22,118,99,72,24,95,7,45,54,71,89,111,65,87,27,55,32,59,5,105,96,92,41,62,64,69,78,84,116,53,107,17,80,14,19,42,101,60,114,113,1,79,103,49,100,11,104,88,35,8,46,97,23,30,0,47,112,38,56,106,115,26,34,75,29,33,50,81,70,31,93,40,9,44,110,66,94,51,28,77,43,13,108,58,6,48,25,67,4,74,16,61,20,109,37,52,85,98,2,3,57,117],"cond_shown":["equaldotanddens","randomdotsizeEA","equaldotsize","randomdotsizeEA","equaldotsize","equaldotsize","randomdotsizeEA","randomdotsizeEA","equaldotsize","equaldotsize","equaldotanddens","equaldotanddens","equaldotsize","equaldotanddens","equaldotanddens","equaldotsize","equaldotsize","equaldotsize","equaldotanddens","equaldotanddens","equaldotsize","equaldotsize","equaldotsize","randomdotsizeEA","equaldotanddens","equaldotsize","equaldotsize","randomdotsizeEA","randomdotsizeEA","equaldotsize","randomdotsizeEA","equaldotsize","equaldotsize","equaldotanddens","randomdotsizeEA","randomdotsizeEA","randomdotsizeEA","equaldotsize","equaldotsize","randomdotsizeEA","randomdotsizeEA","randomdotsizeEA","equaldotanddens","equaldotsize","equaldotsize","equaldotsize","randomdotsizeEA","randomdotsizeEA","randomdotsizeEA","randomdotsizeEA","randomdotsizeEA","randomdotsizeEA","equaldotanddens","equaldotsize","randomdotsizeEA","equaldotsize","equaldotsize","randomdotsizeEA","equaldotanddens","equaldotanddens","equaldotanddens","equaldotanddens","equaldotanddens","randomdotsizeEA","randomdotsizeEA","equaldotanddens","randomdotsizeEA","randomdotsizeEA","equaldotanddens","equaldotanddens","randomdotsizeEA","equaldotsize","equaldotsize","randomdotsizeEA","equaldotanddens","randomdotsizeEA","randomdotsizeEA","equaldotanddens","equaldotanddens","randomdotsizeEA","equaldotanddens","equaldotsize","randomdotsizeEA","equaldotsize","randomdotsizeEA","equaldotsize","equaldotanddens","equaldotanddens","equaldotsize","equaldotanddens","equaldotsize","randomdotsizeEA","randomdotsizeEA","equaldotsize","equaldotanddens","equaldotsize","equaldotanddens","randomdotsizeEA","equaldotanddens","equaldotanddens","equaldotsize","equaldotanddens","equaldotsize","equaldotsize","equaldotanddens","equaldotanddens","equaldotanddens","randomdotsizeEA","equaldotanddens","equaldotanddens","randomdotsizeEA","equaldotanddens","equaldotanddens","equaldotanddens","equaldotanddens","randomdotsizeEA","randomdotsizeEA","equaldotsize","equaldotsize","equaldotsize"],"ratio_trial":[750,750,500,900,750,500,250,900,250,750,250,500,250,900,900,900,750,500,900,900,500,250,250,900,750,900,750,900,500,500,500,500,500,750,750,900,500,900,250,750,500,250,500,900,750,250,750,500,900,500,750,250,750,750,500,250,750,500,250,750,750,250,500,900,750,500,900,750,900,250,900,750,250,900,500,250,750,900,750,250,900,500,500,900,250,900,900,750,900,500,900,750,250,750,900,500,500,500,750,250,250,900,750,250,250,750,500,250,500,250,750,250,250,500,250,250,250,500,900,900],"smaller_num":["3","6","9","18","6","2","3","18","2","15","2","2","4","18","18","18","6","3","18","9","9","3","2","18","15","9","12","18","2","6","2","4","5","9","6","18","5","9","2","3","2","3","5","18","3","2","3","5","18","2","3","2","15","3","6","3","15","1","5","3","3","5","9","18","3","1","18","3","18","3","18","12","3","9","6","3","15","18","3","2","18","2","3","18","1","18","18","15","18","6","9","6","3","3","9","6","5","5","15","3","3","9","3","6","3","12","5","2","3","3","6","3","2","9","2","6","6","2","9","18"],"larger_num":["4","8","18","20","8","4","12","20","8","20","8","4","16","20","20","20","8","6","20","10","18","12","8","20","20","10","16","20","4","12","4","8","10","12","8","20","10","10","8","4","4","12","10","20","4","8","4","10","20","4","4","8","20","4","12","12","20","2","20","4","4","20","18","20","4","2","20","4","20","12","20","16","12","10","12","12","20","20","4","8","20","4","6","20","4","20","20","20","20","12","10","8","12","4","10","12","10","10","20","12","12","10","4","24","12","16","10","8","6","12","8","12","8","18","8","24","24","4","10","20"],"correct_side":[1,2,2,1,1,1,2,1,1,2,1,1,2,2,1,1,1,2,1,2,2,1,1,1,2,2,2,1,1,1,2,1,1,2,1,2,2,1,1,2,1,1,2,1,1,1,1,1,1,1,2,2,2,1,1,2,2,2,2,1,2,2,2,2,2,2,2,1,1,2,1,2,1,2,1,1,2,2,1,1,2,2,2,1,2,1,2,2,2,1,2,1,2,1,2,1,1,1,2,2,2,1,1,1,2,2,2,1,2,1,1,1,1,1,1,2,1,2,2,1],"img_shown":["img/750/equaldotanddens/L/9_Ratio_750_L_4_R_3.png","img/750/randomdotsizeEA/R/2_Ratio_750_L_6_R_8.png","img/500/equaldotsize/R/6_Ratio_500_L_9_R_18.png","img/900/randomdotsizeEA/L/4_Ratio_900_L_20_R_18.png","img/750/equaldotsize/L/13_Ratio_750_L_8_R_6.png","img/500/equaldotsize/L/10_Ratio_500_L_4_R_2.png","img/250/randomdotsizeEA/R/11_Ratio_250_L_3_R_12.png","img/900/randomdotsizeEA/L/10_Ratio_900_L_20_R_18.png","img/250/equaldotsize/L/7_Ratio_250_L_8_R_2.png","img/750/equaldotsize/R/3_Ratio_750_L_15_R_20.png","img/250/equaldotanddens/L/3_Ratio_250_L_8_R_2.png","img/500/equaldotanddens/L/10_Ratio_500_L_4_R_2.png","img/250/equaldotsize/R/10_Ratio_250_L_4_R_16.png","img/900/equaldotanddens/R/13_Ratio_900_L_18_R_20.png","img/900/equaldotanddens/L/2_Ratio_900_L_20_R_18.png","img/900/equaldotsize/L/4_Ratio_900_L_20_R_18.png","img/750/equaldotsize/L/13_Ratio_750_L_8_R_6.png","img/500/equaldotsize/R/2_Ratio_500_L_3_R_6.png","img/900/equaldotanddens/L/4_Ratio_900_L_20_R_18.png","img/900/equaldotanddens/R/5_Ratio_900_L_9_R_10.png","img/500/equaldotsize/R/6_Ratio_500_L_9_R_18.png","img/250/equaldotsize/L/14_Ratio_250_L_12_R_3.png","img/250/equaldotsize/L/7_Ratio_250_L_8_R_2.png","img/900/randomdotsizeEA/L/2_Ratio_900_L_20_R_18.png","img/750/equaldotanddens/R/4_Ratio_750_L_15_R_20.png","img/900/equaldotsize/R/7_Ratio_900_L_9_R_10.png","img/750/equaldotsize/R/11_Ratio_750_L_12_R_16.png","img/900/randomdotsizeEA/L/10_Ratio_900_L_20_R_18.png","img/500/randomdotsizeEA/L/5_Ratio_500_L_4_R_2.png","img/500/equaldotsize/L/13_Ratio_500_L_12_R_6.png","img/500/randomdotsizeEA/R/9_Ratio_500_L_2_R_4.png","img/500/equaldotsize/L/8_Ratio_500_L_8_R_4.png","img/500/equaldotsize/L/7_Ratio_500_L_10_R_5.png","img/750/equaldotanddens/R/15_Ratio_750_L_9_R_12.png","img/750/randomdotsizeEA/L/14_Ratio_750_L_8_R_6.png","img/900/randomdotsizeEA/R/13_Ratio_900_L_18_R_20.png","img/500/randomdotsizeEA/R/14_Ratio_500_L_5_R_10.png","img/900/equaldotsize/L/1_Ratio_900_L_10_R_9.png","img/250/equaldotsize/L/7_Ratio_250_L_8_R_2.png","img/750/randomdotsizeEA/R/7_Ratio_750_L_3_R_4.png","img/500/randomdotsizeEA/L/10_Ratio_500_L_4_R_2.png","img/250/randomdotsizeEA/L/14_Ratio_250_L_12_R_3.png","img/500/equaldotanddens/R/14_Ratio_500_L_5_R_10.png","img/900/equaldotsize/L/4_Ratio_900_L_20_R_18.png","img/750/equaldotsize/L/8_Ratio_750_L_4_R_3.png","img/250/equaldotsize/L/1_Ratio_250_L_8_R_2.png","img/750/randomdotsizeEA/L/10_Ratio_750_L_4_R_3.png","img/500/randomdotsizeEA/L/7_Ratio_500_L_10_R_5.png","img/900/randomdotsizeEA/L/8_Ratio_900_L_20_R_18.png","img/500/randomdotsizeEA/L/10_Ratio_500_L_4_R_2.png","img/750/randomdotsizeEA/R/7_Ratio_750_L_3_R_4.png","img/250/randomdotsizeEA/R/13_Ratio_250_L_2_R_8.png","img/750/equaldotanddens/R/4_Ratio_750_L_15_R_20.png","img/750/equaldotsize/L/9_Ratio_750_L_4_R_3.png","img/500/randomdotsizeEA/L/13_Ratio_500_L_12_R_6.png","img/250/equaldotsize/R/9_Ratio_250_L_3_R_12.png","img/750/equaldotsize/R/5_Ratio_750_L_15_R_20.png","img/500/randomdotsizeEA/R/12_Ratio_500_L_1_R_2.png","img/250/equaldotanddens/R/12_Ratio_250_L_5_R_20.png","img/750/equaldotanddens/L/10_Ratio_750_L_4_R_3.png","img/750/equaldotanddens/R/7_Ratio_750_L_3_R_4.png","img/250/equaldotanddens/R/12_Ratio_250_L_5_R_20.png","img/500/equaldotanddens/R/6_Ratio_500_L_9_R_18.png","img/900/randomdotsizeEA/R/9_Ratio_900_L_18_R_20.png","img/750/randomdotsizeEA/R/12_Ratio_750_L_3_R_4.png","img/500/equaldotanddens/R/12_Ratio_500_L_1_R_2.png","img/900/randomdotsizeEA/R/12_Ratio_900_L_18_R_20.png","img/750/randomdotsizeEA/L/10_Ratio_750_L_4_R_3.png","img/900/equaldotanddens/L/10_Ratio_900_L_20_R_18.png","img/250/equaldotanddens/R/11_Ratio_250_L_3_R_12.png","img/900/randomdotsizeEA/L/10_Ratio_900_L_20_R_18.png","img/750/equaldotsize/R/11_Ratio_750_L_12_R_16.png","img/250/equaldotsize/L/14_Ratio_250_L_12_R_3.png","img/900/randomdotsizeEA/R/6_Ratio_900_L_9_R_10.png","img/500/equaldotanddens/L/11_Ratio_500_L_12_R_6.png","img/250/randomdotsizeEA/L/15_Ratio_250_L_12_R_3.png","img/750/randomdotsizeEA/R/3_Ratio_750_L_15_R_20.png","img/900/equaldotanddens/R/11_Ratio_900_L_18_R_20.png","img/750/equaldotanddens/L/10_Ratio_750_L_4_R_3.png","img/250/randomdotsizeEA/L/7_Ratio_250_L_8_R_2.png","img/900/equaldotanddens/R/13_Ratio_900_L_18_R_20.png","img/500/equaldotsize/R/9_Ratio_500_L_2_R_4.png","img/500/randomdotsizeEA/R/2_Ratio_500_L_3_R_6.png","img/900/equaldotsize/L/2_Ratio_900_L_20_R_18.png","img/250/randomdotsizeEA/R/8_Ratio_250_L_1_R_4.png","img/900/equaldotsize/L/8_Ratio_900_L_20_R_18.png","img/900/equaldotanddens/R/13_Ratio_900_L_18_R_20.png","img/750/equaldotanddens/R/4_Ratio_750_L_15_R_20.png","img/900/equaldotsize/R/11_Ratio_900_L_18_R_20.png","img/500/equaldotanddens/L/11_Ratio_500_L_12_R_6.png","img/900/equaldotsize/R/5_Ratio_900_L_9_R_10.png","img/750/randomdotsizeEA/L/14_Ratio_750_L_8_R_6.png","img/250/randomdotsizeEA/R/9_Ratio_250_L_3_R_12.png","img/750/equaldotsize/L/9_Ratio_750_L_4_R_3.png","img/900/equaldotanddens/R/15_Ratio_900_L_9_R_10.png","img/500/equaldotsize/L/11_Ratio_500_L_12_R_6.png","img/500/equaldotanddens/L/7_Ratio_500_L_10_R_5.png","img/500/randomdotsizeEA/L/7_Ratio_500_L_10_R_5.png","img/750/equaldotanddens/R/3_Ratio_750_L_15_R_20.png","img/250/equaldotanddens/R/11_Ratio_250_L_3_R_12.png","img/250/equaldotsize/R/4_Ratio_250_L_3_R_12.png","img/900/equaldotanddens/L/1_Ratio_900_L_10_R_9.png","img/750/equaldotsize/L/8_Ratio_750_L_4_R_3.png","img/250/equaldotsize/L/5_Ratio_250_L_24_R_6.png","img/250/equaldotanddens/R/9_Ratio_250_L_3_R_12.png","img/750/equaldotanddens/R/11_Ratio_750_L_12_R_16.png","img/500/equaldotanddens/R/14_Ratio_500_L_5_R_10.png","img/250/randomdotsizeEA/L/7_Ratio_250_L_8_R_2.png","img/500/equaldotanddens/R/2_Ratio_500_L_3_R_6.png","img/250/equaldotanddens/L/14_Ratio_250_L_12_R_3.png","img/750/randomdotsizeEA/L/14_Ratio_750_L_8_R_6.png","img/250/equaldotanddens/L/14_Ratio_250_L_12_R_3.png","img/250/equaldotanddens/L/3_Ratio_250_L_8_R_2.png","img/500/equaldotanddens/L/4_Ratio_500_L_18_R_9.png","img/250/equaldotanddens/L/3_Ratio_250_L_8_R_2.png","img/250/randomdotsizeEA/R/6_Ratio_250_L_6_R_24.png","img/250/randomdotsizeEA/L/5_Ratio_250_L_24_R_6.png","img/500/equaldotsize/R/9_Ratio_500_L_2_R_4.png","img/900/equaldotsize/R/5_Ratio_900_L_9_R_10.png","img/900/equaldotsize/L/8_Ratio_900_L_20_R_18.png"],"Rat0":[["12_Ratio_0_L_9_R_0.png","13_Ratio_0_L_6_R_0.png","5_Ratio_0_L_2_R_0.png","6_Ratio_0_L_4_R_0.png","8_Ratio_0_L_6_R_0.png"],["1_Ratio_0_L_0_R_17.png","10_Ratio_0_L_0_R_22.png","11_Ratio_0_L_0_R_1.png","14_Ratio_0_L_0_R_24.png","15_Ratio_0_L_0_R_4.png","2_Ratio_0_L_0_R_5.png","3_Ratio_0_L_0_R_17.png","4_Ratio_0_L_0_R_7.png","7_Ratio_0_L_0_R_19.png","9_Ratio_0_L_0_R_15.png"]],"Rat250":[["1_Ratio_250_L_8_R_2.png","14_Ratio_250_L_12_R_3.png","15_Ratio_250_L_12_R_3.png","2_Ratio_250_L_16_R_4.png","3_Ratio_250_L_8_R_2.png","5_Ratio_250_L_24_R_6.png","7_Ratio_250_L_8_R_2.png"],["10_Ratio_250_L_4_R_16.png","11_Ratio_250_L_3_R_12.png","12_Ratio_250_L_5_R_20.png","13_Ratio_250_L_2_R_8.png","4_Ratio_250_L_3_R_12.png","6_Ratio_250_L_6_R_24.png","8_Ratio_250_L_1_R_4.png","9_Ratio_250_L_3_R_12.png"]],"Rat500":[["10_Ratio_500_L_4_R_2.png","11_Ratio_500_L_12_R_6.png","13_Ratio_500_L_12_R_6.png","4_Ratio_500_L_18_R_9.png","5_Ratio_500_L_4_R_2.png","7_Ratio_500_L_10_R_5.png","8_Ratio_500_L_8_R_4.png"],["1_Ratio_500_L_9_R_18.png","12_Ratio_500_L_1_R_2.png","14_Ratio_500_L_5_R_10.png","15_Ratio_500_L_1_R_2.png","2_Ratio_500_L_3_R_6.png","3_Ratio_500_L_10_R_20.png","6_Ratio_500_L_9_R_18.png","9_Ratio_500_L_2_R_4.png"]],"Rat750":[["1_Ratio_750_L_20_R_15.png","10_Ratio_750_L_4_R_3.png","13_Ratio_750_L_8_R_6.png","14_Ratio_750_L_8_R_6.png","6_Ratio_750_L_24_R_18.png","8_Ratio_750_L_4_R_3.png","9_Ratio_750_L_4_R_3.png"],["11_Ratio_750_L_12_R_16.png","12_Ratio_750_L_3_R_4.png","15_Ratio_750_L_9_R_12.png","2_Ratio_750_L_6_R_8.png","3_Ratio_750_L_15_R_20.png","4_Ratio_750_L_15_R_20.png","5_Ratio_750_L_15_R_20.png","7_Ratio_750_L_3_R_4.png"]],"Rat900":[["1_Ratio_900_L_10_R_9.png","10_Ratio_900_L_20_R_18.png","2_Ratio_900_L_20_R_18.png","4_Ratio_900_L_20_R_18.png","8_Ratio_900_L_20_R_18.png"],["11_Ratio_900_L_18_R_20.png","12_Ratio_900_L_18_R_20.png","13_Ratio_900_L_18_R_20.png","14_Ratio_900_L_18_R_20.png","15_Ratio_900_L_9_R_10.png","3_Ratio_900_L_9_R_10.png","5_Ratio_900_L_9_R_10.png","6_Ratio_900_L_9_R_10.png","7_Ratio_900_L_9_R_10.png","9_Ratio_900_L_18_R_20.png"]],"Rat1000":[["10_Ratio_1000_L_16_R_16.png","11_Ratio_1000_L_6_R_6.png","12_Ratio_1000_L_14_R_14.png","13_Ratio_1000_L_20_R_20.png","15_Ratio_1000_L_15_R_15.png","2_Ratio_1000_L_17_R_17.png","4_Ratio_1000_L_9_R_9.png","5_Ratio_1000_L_6_R_6.png","6_Ratio_1000_L_19_R_19.png","8_Ratio_1000_L_14_R_14.png","9_Ratio_1000_L_25_R_25.png"],["1_Ratio_1000_L_1_R_1.png","14_Ratio_1000_L_17_R_17.png","3_Ratio_1000_L_17_R_17.png","7_Ratio_1000_L_6_R_6.png"]]}},{"start_time":1552069320747,"click_time":1552069322024,"finger_time":1552069321563,"fix_duration":602.4704783478111,"trial":1,"RT":816,"MT":461,"sideResp":1,"stimulus":"img/750/randomdotsizeEA/R/2_Ratio_750_L_6_R_8.png","xmouse":[779,779,779,779,779,779,779,779,779,779,779,779,779,779,779,779,779,779,779,779,779,779,779,779,779,779,779,779,779,779,779,779,779,779,779,779,779,779,779,779,779,765,739,670,623,600,586,573,562,560,556,552,546,540,539,539,539,539,537,537,537,537,536,501],"ymouse":[641,641,641,641,641,641,641,641,641,641,641,641,641,641,641,641,641,641,641,641,641,641,641,641,641,641,641,641,641,641,641,641,641,641,641,641,641,641,638,609,539,451,364,225,145,108,83,64,49,47,41,35,27,20,19,19,19,19,19,19,19,19,19,39],"timestamp_mouse":[16,51,57,78,97,116,138,157,178,196,218,237,256,277,297,318,337,357,376,398,417,437,457,478,497,517,536,557,578,598,616,637,656,678,698,718,737,757,777,796,816,836,857,876,896,917,936,957,976,996,1018,1037,1057,1076,1097,1117,1137,1156,1177,1197,1216,1236,1257,1277],"xSR":741.5,"ySR":573.95,"xT1":424.9,"yT1":0,"xT2":1058.1,"yT2":0,"toosoon":0,"cond_shown":"randomdotsizeEA","ratio_trial":750,"smaller_num":"6","larger_num":"8","correct_side":2,"subjID":"LauraCamilaRobayoRodriguez15","gender":"1","age":"9","school":"4"},{"start_time":1552069323456,"click_time":1552069324724,"finger_time":1552069324343,"fix_duration":250,"trial":2,"RT":887,"MT":381,"sideResp":2,"stimulus":"img/500/equaldotsize/R/6_Ratio_500_L_9_R_18.png","xmouse":[798,798,798,798,798,798,798,798,798,798,798,798,798,798,798,798,798,798,798,798,798,798,798,798,798,798,798,798,798,798,798,798,798,798,798,798,798,798,798,798,798,803,807,819,869,891,903,918,934,940,945,954,963,984,991,1001,1009,1019,1020,1033,1040,1051,1063,1089],"ymouse":[642,642,642,642,642,642,642,642,642,642,642,642,643,643,643,643,643,643,643,643,643,643,643,643,643,643,643,643,643,643,643,643,643,643,643,643,643,643,643,643,643,634,623,591,477,421,375,327,292,280,270,259,248,221,208,192,178,161,156,137,129,120,111,89],"timestamp_mouse":[10,35,47,68,88,107,128,149,168,187,209,229,247,269,289,308,329,349,368,389,409,428,448,469,487,508,529,549,567,589,608,627,647,667,689,707,727,749,767,789,809,828,847,868,887,909,927,948,968,987,1008,1028,1048,1068,1087,1108,1127,1147,1168,1189,1208,1229,1247,1268],"xSR":741.5,"ySR":573.95,"xT1":424.9,"yT1":0,"xT2":1058.1,"yT2":0,"toosoon":0,"cond_shown":"equaldotsize","ratio_trial":500,"smaller_num":"9","larger_num":"18","correct_side":2,"subjID":"LauraCamilaRobayoRodriguez15","gender":"1","age":"9","school":"4"},{"start_time":1552069326991,"click_time":1552069328283,"finger_time":1552069327844,"fix_duration":946.2999292242268,"trial":3,"RT":853,"MT":439,"sideResp":1,"stimulus":"img/900/randomdotsizeEA/L/4_Ratio_900_L_20_R_18.png","xmouse":[798,798,798,798,798,798,798,798,798,798,798,798,798,798,798,798,798,798,798,798,798,798,798,798,798,798,798,798,798,798,798,798,798,798,798,798,798,798,798,798,798,798,811,814,816,816,816,797,748,723,644,594,529,518,513,512,512,512,512,512,512,512,512,512,512],"ymouse":[647,647,647,647,647,647,647,647,647,647,647,647,647,647,647,647,647,647,647,647,647,647,647,647,647,647,647,647,647,647,647,647,647,647,647,647,647,647,647,647,638,617,519,499,480,463,443,361,221,164,20,0,0,0,0,0,0,0,0,0,0,0,0,0,3],"timestamp_mouse":[13,47,54,73,92,113,133,153,173,193,212,234,253,273,293,314,333,353,373,393,413,432,452,472,494,513,533,553,574,592,614,632,653,673,694,712,733,753,773,792,813,833,853,873,893,913,933,952,973,992,1012,1032,1054,1072,1093,1114,1133,1153,1173,1192,1212,1233,1254,1272,1292],"xSR":741.5,"ySR":573.95,"xT1":424.9,"yT1":0,"xT2":1058.1,"yT2":0,"toosoon":0,"cond_shown":"randomdotsizeEA","ratio_trial":900,"smaller_num":"18","larger_num":"20","correct_side":1,"subjID":"LauraCamilaRobayoRodriguez15","gender":"1","age":"9","school":"4"},{"start_time":1552069331316,"click_time":1552069332684,"finger_time":1552069332144,"fix_duration":250,"trial":4,"RT":828,"MT":540,"sideResp":2,"stimulus":"img/750/equaldotsize/L/13_Ratio_750_L_8_R_6.png","xmouse":[828,828,830,830,830,830,830,830,830,830,830,830,830,830,830,830,830,830,830,830,830,830,830,830,830,830,830,830,830,830,830,830,830,830,830,830,830,830,830,832,836,866,882,897,911,921,939,942,946,949,951,954,955,957,963,970,993,1007,1024,1038,1060,1066,1068,1069,1071,1076,1094,1100,1100],"ymouse":[622,622,613,611,611,611,611,611,611,611,611,611,611,611,611,611,611,611,611,611,611,611,611,611,611,611,611,611,611,611,610,609,607,606,605,604,604,603,602,598,591,545,516,486,462,437,378,347,311,286,272,253,247,238,229,216,188,176,164,157,150,147,145,145,143,139,116,102,79],"timestamp_mouse":[24,27,47,69,89,108,127,149,168,188,208,227,247,269,287,308,327,348,367,387,407,427,447,468,489,508,529,549,567,588,607,627,647,667,689,709,728,749,767,788,809,828,847,868,887,907,928,947,967,989,1008,1028,1048,1067,1088,1108,1128,1148,1168,1188,1208,1228,1248,1267,1288,1307,1328,1347,1368],"xSR":741.5,"ySR":573.95,"xT1":424.9,"yT1":0,"xT2":1058.1,"yT2":0,"toosoon":0,"cond_shown":"equaldotsize","ratio_trial":750,"smaller_num":"6","larger_num":"8","correct_side":1,"subjID":"LauraCamilaRobayoRodriguez15","gender":"1","age":"9","school":"4"},{"start_time":1552069351697,"click_time":1552069353225,"finger_time":1552069352404,"fix_duration":771.8546912491687,"trial":5,"RT":707,"MT":821,"sideResp":1,"stimulus":"img/500/equaldotsize/L/10_Ratio_500_L_4_R_2.png","xmouse":[816,816,816,816,816,816,816,816,816,816,816,816,816,816,816,816,816,816,816,816,816,816,816,816,816,816,812,802,789,787,787,788,792,805,813,809,797,780,760,748,733,729,725,723,723,722,722,721,719,705,691,673,653,636,619,608,603,599,597,596,592,589,586,583,577,559,558,558,558,558,557,556,555,553,551,537,518],"ymouse":[639,639,639,639,639,639,639,639,639,639,639,639,639,639,639,639,639,639,639,639,639,639,639,639,639,639,640,645,652,653,653,643,628,606,581,487,416,328,255,204,155,139,127,120,119,118,118,117,116,114,113,113,112,111,110,110,110,110,110,110,110,110,113,116,118,119,119,119,119,119,119,119,119,117,115,99,84],"timestamp_mouse":[12,37,47,68,87,107,127,148,168,187,207,228,248,268,288,307,328,348,369,388,408,427,447,468,487,507,527,547,568,587,607,627,647,668,687,707,727,747,767,789,807,827,848,867,887,907,928,948,967,988,1007,1027,1047,1067,1087,1108,1128,1148,1168,1189,1207,1228,1247,1267,1287,1307,1328,1348,1367,1387,1407,1427,1447,1467,1487,1507,1528],"xSR":741.5,"ySR":573.95,"xT1":424.9,"yT1":0,"xT2":1058.1,"yT2":0,"toosoon":0,"cond_shown":"equaldotsize","ratio_trial":500,"smaller_num":"2","larger_num":"4","correct_side":1,"subjID":"LauraCamilaRobayoRodriguez15","gender":"1","age":"9","school":"4"},{"start_time":1552069356886,"click_time":1552069358245,"finger_time":1552069357584,"fix_duration":1220.7163642114358,"trial":6,"RT":698,"MT":661,"sideResp":2,"stimulus":"img/250/randomdotsizeEA/R/11_Ratio_250_L_3_R_12.png","xmouse":[786,786,786,786,786,786,786,786,786,786,786,786,786,786,786,786,786,786,786,786,786,786,786,786,786,786,786,786,786,786,786,788,801,819,842,884,904,932,969,1005,1061,1090,1102,1112,1121,1133,1139,1145,1150,1154,1158,1158,1158,1158,1158,1158,1158,1158,1158,1158,1157,1154,1154,1152,1151,1148,1145,1142],"ymouse":[649,649,649,649,649,649,649,649,649,649,649,649,649,649,649,649,649,649,649,649,649,649,649,649,649,649,649,649,649,649,649,647,635,621,604,579,567,545,509,466,401,372,353,341,325,297,282,268,254,240,209,204,193,191,190,185,180,176,172,168,154,145,139,132,125,109,103,98],"timestamp_mouse":[21,38,58,78,98,118,139,158,178,199,219,238,258,279,299,319,338,358,378,399,418,439,458,478,499,518,539,559,578,599,618,638,658,679,698,718,738,759,778,799,818,839,858,878,898,918,938,958,978,999,1019,1039,1058,1078,1098,1118,1138,1159,1178,1199,1218,1238,1259,1279,1299,1318,1338,1358],"xSR":741.5,"ySR":573.95,"xT1":424.9,"yT1":0,"xT2":1058.1,"yT2":0,"toosoon":0,"cond_shown":"randomdotsizeEA","ratio_trial":250,"smaller_num":"3","larger_num":"12","correct_side":2,"subjID":"LauraCamilaRobayoRodriguez15","gender":"1","age":"9","school":"4"},{"start_time":1552069360122,"click_time":1552069360884,"finger_time":1552069360644,"fix_duration":594.1016653998232,"trial":7,"RT":522,"MT":240,"sideResp":1,"stimulus":"img/900/randomdotsizeEA/L/10_Ratio_900_L_20_R_18.png","xmouse":[801,800,800,799,797,796,796,795,795,795,795,795,795,795,795,795,795,795,795,795,795,795,794,794,792,790,782,774,765,745,729,719,707,697,669,640,598,533,474],"ymouse":[643,642,642,641,639,638,638,637,637,637,637,637,637,637,637,637,637,637,637,637,634,632,628,623,612,598,570,544,516,469,434,410,381,358,305,247,182,121,73],"timestamp_mouse":[2,40,42,62,82,103,123,142,163,183,204,222,242,262,282,302,322,342,363,382,403,422,442,463,482,502,522,543,562,583,602,623,642,662,682,702,722,742,762],"xSR":741.5,"ySR":573.95,"xT1":424.9,"yT1":0,"xT2":1058.1,"yT2":0,"toosoon":0,"cond_shown":"randomdotsizeEA","ratio_trial":900,"smaller_num":"18","larger_num":"20","correct_side":1,"subjID":"LauraCamilaRobayoRodriguez15","gender":"1","age":"9","school":"4"},{"start_time":1552069362454,"click_time":1552069363625,"finger_time":1552069363264,"fix_duration":468.9280799687605,"trial":8,"RT":810,"MT":361,"sideResp":1,"stimulus":"img/250/equaldotsize/L/7_Ratio_250_L_8_R_2.png","xmouse":[793,793,793,793,793,793,793,793,793,793,793,793,793,793,793,793,793,793,793,793,793,793,793,793,793,793,793,793,793,793,793,793,793,793,793,793,793,793,793,793,784,761,728,701,691,684,680,679,676,676,674,669,659,627,609,592,578,562,524],"ymouse":[656,656,656,656,656,656,656,656,656,656,656,656,656,656,656,656,656,656,656,656,656,656,656,656,656,656,656,656,656,656,656,656,656,656,656,656,656,653,634,610,557,474,352,262,226,204,193,186,181,181,178,169,156,128,115,104,93,84,64],"timestamp_mouse":[10,37,52,71,90,111,131,151,171,190,211,231,251,271,291,310,330,351,371,390,411,431,450,471,491,510,531,551,570,591,611,631,650,670,690,711,731,751,771,790,810,831,850,870,891,911,930,950,970,990,1011,1030,1050,1070,1091,1112,1130,1151,1170],"xSR":741.5,"ySR":573.95,"xT1":424.9,"yT1":0,"xT2":1058.1,"yT2":0,"toosoon":0,"cond_shown":"equaldotsize","ratio_trial":250,"smaller_num":"2","larger_num":"8","correct_side":1,"subjID":"LauraCamilaRobayoRodriguez15","gender":"1","age":"9","school":"4"},{"start_time":1552069364917,"click_time":1552069365745,"finger_time":1552069365385,"fix_duration":250,"trial":9,"RT":468,"MT":360,"sideResp":1,"stimulus":"img/750/equaldotsize/R/3_Ratio_750_L_15_R_20.png","xmouse":[801,801,801,801,801,801,801,801,801,801,801,801,801,801,801,801,801,801,801,801,801,799,791,783,776,767,764,758,753,748,740,736,733,729,722,696,675,651,619,596,530,502],"ymouse":[595,595,595,595,595,595,595,595,595,595,595,595,595,595,595,595,595,595,595,595,595,593,584,571,558,545,540,529,519,511,499,494,490,482,469,428,387,328,249,207,121,88],"timestamp_mouse":[12,42,47,67,87,108,128,148,167,187,207,227,248,267,288,308,327,347,368,387,408,427,447,468,488,507,527,548,567,588,607,627,648,667,687,707,727,747,767,787,807,827],"xSR":741.5,"ySR":573.95,"xT1":424.9,"yT1":0,"xT2":1058.1,"yT2":0,"toosoon":0,"cond_shown":"equaldotsize","ratio_trial":750,"smaller_num":"15","larger_num":"20","correct_side":2,"subjID":"LauraCamilaRobayoRodriguez15","gender":"1","age":"9","school":"4"},{"start_time":1552069370606,"click_time":1552069371884,"finger_time":1552069371224,"fix_duration":280.80119923141257,"trial":10,"RT":618,"MT":660,"sideResp":1,"stimulus":"img/250/equaldotanddens/L/3_Ratio_250_L_8_R_2.png","xmouse":[801,801,801,801,801,801,801,801,801,801,801,801,801,801,801,801,801,801,801,801,801,801,801,801,801,801,801,801,801,798,781,764,744,723,709,688,682,679,677,677,674,673,669,667,664,650,639,628,617,607,584,578,573,570,568,564,564,563,560,548,534,531,526,522],"ymouse":[593,593,593,593,593,593,593,593,593,593,593,593,593,593,593,593,593,593,593,593,593,593,593,593,593,593,593,590,588,578,526,493,456,421,395,359,347,339,332,327,315,307,296,284,272,239,218,199,180,163,132,125,119,117,114,111,110,109,105,97,87,84,79,75],"timestamp_mouse":[18,39,58,78,99,118,140,158,179,199,218,239,259,279,299,320,339,359,379,399,418,438,459,479,499,518,539,558,578,598,618,638,658,679,698,719,738,758,778,798,818,838,859,879,898,918,938,958,978,998,1019,1038,1059,1078,1098,1118,1138,1159,1178,1198,1218,1238,1258,1278],"xSR":741.5,"ySR":573.95,"xT1":424.9,"yT1":0,"xT2":1058.1,"yT2":0,"toosoon":0,"cond_shown":"equaldotanddens","ratio_trial":250,"smaller_num":"2","larger_num":"8","correct_side":1,"subjID":"LauraCamilaRobayoRodriguez15","gender":"1","age":"9","school":"4"},{"start_time":1552069374192,"click_time":1552069375504,"finger_time":1552069374864,"fix_duration":1286.7982008881443,"trial":11,"RT":672,"MT":640,"sideResp":1,"stimulus":"img/500/equaldotanddens/L/10_Ratio_500_L_4_R_2.png","xmouse":[768,768,768,768,768,768,768,768,768,768,768,768,768,768,768,768,768,768,768,768,768,768,768,768,768,768,768,768,768,768,768,764,751,736,716,703,696,681,675,669,660,657,649,643,636,625,613,590,582,572,559,552,539,533,527,524,522,522,522,522,522,522,515,510,505,499],"ymouse":[626,626,626,626,626,626,626,626,626,626,626,626,626,626,626,626,626,626,626,626,626,626,626,626,626,626,626,626,626,626,624,616,590,561,526,503,487,451,434,415,393,385,368,355,338,316,295,262,249,234,211,200,182,175,169,166,163,159,155,155,150,146,130,120,110,99],"timestamp_mouse":[14,38,52,72,92,112,132,152,173,193,213,233,253,273,292,312,332,353,373,392,413,432,452,473,493,512,533,553,572,592,612,632,652,672,693,712,733,752,772,792,813,832,852,872,892,912,933,952,973,993,1013,1032,1052,1072,1093,1112,1132,1152,1172,1193,1212,1232,1252,1273,1292,1312],"xSR":741.5,"ySR":573.95,"xT1":424.9,"yT1":0,"xT2":1058.1,"yT2":0,"toosoon":0,"cond_shown":"equaldotanddens","ratio_trial":500,"smaller_num":"2","larger_num":"4","correct_side":1,"subjID":"LauraCamilaRobayoRodriguez15","gender":"1","age":"9","school":"4"},{"start_time":1552069377251,"click_time":1552069378824,"finger_time":1552069378344,"fix_duration":825.8148677452969,"trial":12,"RT":1093,"MT":480,"sideResp":2,"stimulus":"img/250/equaldotsize/R/10_Ratio_250_L_4_R_16.png","xmouse":[811,811,811,811,811,811,811,811,811,811,811,811,811,811,811,811,811,811,811,811,811,811,811,811,811,811,811,811,811,811,811,811,811,811,811,811,811,811,811,811,811,811,811,811,811,811,811,811,811,810,810,810,810,810,809,809,808,808,808,808,808,813,826,844,916,948,961,972,978,987,994,1007,1026,1043,1073,1086,1109,1123,1141],"ymouse":[584,584,584,584,584,584,584,584,584,584,584,584,584,584,584,584,584,584,584,584,584,584,584,584,584,584,584,584,584,584,584,584,584,584,584,584,584,584,584,584,584,584,584,584,584,584,583,582,581,579,577,576,575,574,573,572,571,569,569,565,562,551,536,515,404,350,318,291,270,233,216,200,184,172,148,136,117,105,89],"timestamp_mouse":[14,40,53,74,94,114,134,153,173,194,213,233,253,273,294,314,333,354,374,393,413,434,453,474,494,514,533,553,575,594,613,634,653,673,694,713,733,753,774,793,813,834,854,874,894,914,934,954,973,993,1014,1033,1053,1073,1093,1113,1133,1153,1173,1194,1213,1233,1253,1274,1293,1314,1333,1353,1373,1394,1413,1433,1453,1474,1493,1514,1533,1553,1573],"xSR":741.5,"ySR":573.95,"xT1":424.9,"yT1":0,"xT2":1058.1,"yT2":0,"toosoon":0,"cond_shown":"equaldotsize","ratio_trial":250,"smaller_num":"4","larger_num":"16","correct_side":2,"subjID":"LauraCamilaRobayoRodriguez15","gender":"1","age":"9","school":"4"},{"start_time":1552069381563,"click_time":1552069382604,"finger_time":1552069382064,"fix_duration":996.710298676653,"trial":13,"RT":501,"MT":540,"sideResp":2,"stimulus":"img/900/equaldotanddens/R/13_Ratio_900_L_18_R_20.png","xmouse":[809,809,809,809,809,809,809,809,809,809,809,809,809,809,809,809,809,809,809,809,809,809,809,808,808,808,808,808,808,814,831,844,861,883,899,940,959,976,996,1017,1046,1054,1060,1064,1065,1068,1069,1069,1069,1071,1073,1073,1075],"ymouse":[598,598,598,598,598,598,598,598,598,598,598,598,598,598,598,598,598,598,598,598,598,598,598,592,587,573,540,519,482,443,380,346,310,275,252,202,187,176,164,152,135,129,125,121,118,112,110,109,108,105,101,100,97],"timestamp_mouse":[11,37,41,62,81,102,121,142,161,181,202,221,241,262,282,301,322,342,361,383,402,422,442,461,482,501,521,541,562,581,601,621,641,661,681,702,722,742,762,781,802,821,842,862,881,901,921,942,962,981,1001,1021,1041],"xSR":741.5,"ySR":573.95,"xT1":424.9,"yT1":0,"xT2":1058.1,"yT2":0,"toosoon":0,"cond_shown":"equaldotanddens","ratio_trial":900,"smaller_num":"18","larger_num":"20","correct_side":2,"subjID":"LauraCamilaRobayoRodriguez15","gender":"1","age":"9","school":"4"},{"start_time":1552069386780,"click_time":1552069388404,"finger_time":1552069387645,"fix_duration":772.7702454563558,"trial":14,"RT":865,"MT":759,"sideResp":1,"stimulus":"img/900/equaldotanddens/L/2_Ratio_900_L_20_R_18.png","xmouse":[814,814,814,814,814,814,814,814,814,814,814,814,814,814,814,814,814,814,814,814,814,814,814,814,814,814,814,814,814,814,814,814,814,814,814,814,814,814,814,814,814,815,815,813,796,771,757,737,720,677,663,648,635,611,601,586,580,576,574,574,574,574,573,569,566,558,556,555,554,554,552,551,551,551,551,548,545,541,536,532,527,521],"ymouse":[639,639,639,639,639,639,639,639,639,639,639,639,639,639,639,639,639,639,639,639,639,639,639,639,639,639,639,639,639,639,639,639,639,639,639,639,639,639,639,636,623,603,575,535,466,401,368,325,282,194,159,126,96,40,15,0,0,0,0,0,0,0,0,0,0,4,5,6,6,7,9,10,10,10,10,11,13,15,17,19,23,26],"timestamp_mouse":[12,25,44,64,84,104,126,145,164,185,204,224,245,265,285,305,324,345,365,384,405,424,444,465,484,505,524,545,565,584,604,624,644,664,684,705,725,745,764,784,804,824,844,865,884,904,924,945,964,986,1004,1025,1044,1065,1085,1104,1124,1144,1164,1184,1206,1225,1243,1264,1284,1304,1324,1345,1364,1385,1404,1425,1444,1465,1484,1504,1524,1544,1564,1585,1604,1624],"xSR":741.5,"ySR":573.95,"xT1":424.9,"yT1":0,"xT2":1058.1,"yT2":0,"toosoon":0,"cond_shown":"equaldotanddens","ratio_trial":900,"smaller_num":"18","larger_num":"20","correct_side":1,"subjID":"LauraCamilaRobayoRodriguez15","gender":"1","age":"9","school":"4"},{"start_time":1552069392368,"click_time":1552069393484,"finger_time":1552069393084,"fix_duration":1221.6899289537082,"trial":15,"RT":716,"MT":400,"sideResp":1,"stimulus":"img/900/equaldotsize/L/4_Ratio_900_L_20_R_18.png","xmouse":[806,806,806,806,806,806,806,806,806,806,806,806,806,806,806,806,806,806,806,806,806,806,806,806,806,806,806,806,806,806,806,806,807,809,810,812,812,806,785,768,706,671,641,628,599,583,578,577,575,574,569,549,539,530,525,522],"ymouse":[622,622,622,622,622,622,622,622,622,622,622,622,622,622,622,622,622,622,622,622,622,622,622,622,622,622,622,622,622,622,621,616,613,606,596,567,539,486,415,319,115,56,17,4,0,0,0,0,0,0,0,14,26,36,40,43],"timestamp_mouse":[19,37,56,77,96,117,155,156,176,196,216,237,256,276,296,316,336,356,377,396,416,436,457,477,497,517,536,556,577,597,616,637,656,677,696,716,736,756,776,797,816,836,857,877,896,918,936,956,976,997,1016,1037,1056,1076,1096,1116],"xSR":741.5,"ySR":573.95,"xT1":424.9,"yT1":0,"xT2":1058.1,"yT2":0,"toosoon":0,"cond_shown":"equaldotsize","ratio_trial":900,"smaller_num":"18","larger_num":"20","correct_side":1,"subjID":"LauraCamilaRobayoRodriguez15","gender":"1","age":"9","school":"4"},{"start_time":1552069396489,"click_time":1552069397984,"finger_time":1552069397204,"fix_duration":1282.7173006937396,"trial":16,"RT":715,"MT":780,"sideResp":2,"stimulus":"img/750/equaldotsize/L/13_Ratio_750_L_8_R_6.png","xmouse":[788,788,788,788,788,788,788,788,788,788,788,788,788,788,788,788,788,788,788,788,788,788,788,788,788,788,788,788,788,788,788,788,788,788,790,806,820,840,875,903,987,1051,1100,1145,1193,1295,1321,1339,1350,1358,1363,1363,1363,1363,1363,1361,1353,1340,1322,1303,1272,1250,1241,1232,1220,1216,1215,1215,1214,1212,1203,1195,1182,1169,1154],"ymouse":[599,599,599,599,599,599,599,599,599,599,599,599,599,599,599,599,599,599,599,599,599,599,599,599,597,594,592,591,590,589,586,586,584,581,577,553,536,517,490,468,406,349,299,248,187,71,45,20,0,0,0,0,0,0,0,3,8,15,23,30,46,56,61,64,69,71,71,71,71,71,72,72,72,72,71],"timestamp_mouse":[16,35,56,76,95,115,136,156,176,196,215,235,256,275,296,315,336,355,376,396,415,435,456,476,495,514,534,555,575,596,615,636,655,676,695,715,735,756,775,796,815,835,855,876,895,915,935,956,976,995,1015,1035,1056,1076,1095,1115,1136,1156,1176,1195,1216,1235,1256,1276,1298,1316,1335,1356,1376,1396,1415,1435,1455,1475,1495],"xSR":741.5,"ySR":573.95,"xT1":424.9,"yT1":0,"xT2":1058.1,"yT2":0,"toosoon":0,"cond_shown":"equaldotsize","ratio_trial":750,"smaller_num":"6","larger_num":"8","correct_side":1,"subjID":"LauraCamilaRobayoRodriguez15","gender":"1","age":"9","school":"4"},{"start_time":1552069412393,"click_time":1552069414045,"finger_time":1552069413264,"fix_duration":1328.280225782331,"trial":17,"RT":871,"MT":781,"sideResp":2,"stimulus":"img/500/equaldotsize/R/2_Ratio_500_L_3_R_6.png","xmouse":[772,774,779,780,782,783,784,784,784,784,784,784,784,784,784,784,784,784,784,784,784,784,784,784,784,784,784,784,784,784,784,784,784,784,784,784,784,784,784,784,784,784,784,784,785,788,791,800,804,806,812,820,836,846,854,867,879,904,922,928,943,952,968,974,979,985,990,1002,1007,1013,1015,1020,1033,1040,1044,1049,1052,1054,1054,1055,1056,1057,1063],"ymouse":[635,634,631,630,629,628,627,627,627,627,627,627,627,627,627,627,627,627,627,627,627,627,627,627,627,627,627,627,627,627,627,627,627,627,627,627,627,627,627,627,624,611,586,569,549,524,497,434,407,387,364,347,321,306,295,278,262,229,203,194,168,155,130,115,107,100,93,82,78,73,71,68,63,60,57,53,52,50,50,49,48,47,45],"timestamp_mouse":[11,39,51,71,92,111,131,151,172,192,212,231,251,271,291,311,331,351,371,391,411,431,451,471,491,511,531,551,571,591,611,632,651,671,691,711,731,751,771,791,812,831,853,871,891,911,931,951,972,991,1012,1032,1052,1071,1091,1111,1132,1151,1171,1192,1211,1231,1251,1271,1292,1311,1332,1351,1371,1391,1411,1431,1451,1471,1491,1511,1532,1553,1572,1591,1611,1631,1652],"xSR":741.5,"ySR":573.95,"xT1":424.9,"yT1":0,"xT2":1058.1,"yT2":0,"toosoon":0,"cond_shown":"equaldotsize","ratio_trial":500,"smaller_num":"3","larger_num":"6","correct_side":2,"subjID":"LauraCamilaRobayoRodriguez15","gender":"1","age":"9","school":"4"},{"start_time":1552069416696,"click_time":1552069418045,"finger_time":1552069417444,"fix_duration":250,"trial":18,"RT":748,"MT":601,"sideResp":2,"stimulus":"img/900/equaldotanddens/L/4_Ratio_900_L_20_R_18.png","xmouse":[797,797,797,797,797,797,798,798,798,798,798,798,798,798,798,798,798,798,798,798,798,798,798,798,798,798,798,798,798,798,798,798,798,798,798,798,794,757,718,683,648,623,589,584,584,585,593,631,669,705,733,757,820,895,942,982,1010,1051,1064,1075,1085,1094,1101,1101,1101,1101,1102,1104],"ymouse":[630,630,630,630,630,631,632,632,632,632,632,632,632,632,632,632,632,632,632,632,632,632,632,632,632,632,632,632,632,632,632,632,632,632,632,632,603,520,458,411,371,345,317,307,299,288,275,238,213,187,167,146,97,53,28,5,0,0,0,0,0,0,0,0,0,0,0,4],"timestamp_mouse":[14,32,48,69,88,109,129,149,168,188,209,228,249,268,289,308,329,348,370,388,409,428,448,469,489,508,528,548,569,588,608,629,649,669,688,708,727,748,768,788,808,828,848,868,888,908,928,948,968,989,1008,1028,1048,1068,1088,1109,1129,1149,1168,1188,1210,1229,1248,1268,1288,1308,1328,1348],"xSR":741.5,"ySR":573.95,"xT1":424.9,"yT1":0,"xT2":1058.1,"yT2":0,"toosoon":0,"cond_shown":"equaldotanddens","ratio_trial":900,"smaller_num":"18","larger_num":"20","correct_side":1,"subjID":"LauraCamilaRobayoRodriguez15","gender":"1","age":"9","school":"4"},{"start_time":1552069422080,"click_time":1552069423364,"finger_time":1552069422924,"fix_duration":255.54453728489023,"trial":19,"RT":844,"MT":440,"sideResp":2,"stimulus":"img/900/equaldotanddens/R/5_Ratio_900_L_9_R_10.png","xmouse":[795,795,795,795,795,795,795,795,795,795,795,794,793,791,788,788,788,788,787,787,787,787,787,787,787,787,787,787,787,787,787,787,787,787,787,787,786,786,786,786,787,793,812,827,863,874,882,889,895,916,929,948,959,970,982,985,985,985,985,991,999,1011,1028,1040,1062],"ymouse":[648,648,648,648,648,648,648,648,648,648,648,648,648,649,649,649,649,649,649,649,649,649,649,649,649,649,649,649,649,649,649,649,649,649,649,649,647,646,642,626,615,597,530,470,338,297,272,251,230,189,172,147,133,120,106,102,102,102,102,100,97,92,83,78,74],"timestamp_mouse":[13,37,45,65,84,105,125,145,164,184,204,224,244,264,285,304,325,344,364,386,405,424,445,465,484,505,525,545,564,584,605,625,645,665,684,704,725,744,765,785,804,824,844,865,884,904,924,944,964,984,1004,1024,1044,1064,1084,1104,1124,1145,1164,1184,1206,1225,1245,1264,1284],"xSR":741.5,"ySR":573.95,"xT1":424.9,"yT1":0,"xT2":1058.1,"yT2":0,"toosoon":0,"cond_shown":"equaldotanddens","ratio_trial":900,"smaller_num":"9","larger_num":"10","correct_side":2,"subjID":"LauraCamilaRobayoRodriguez15","gender":"1","age":"9","school":"4"},{"start_time":1552069424596,"click_time":1552069425364,"finger_time":1552069425064,"fix_duration":250,"trial":20,"RT":468,"MT":300,"sideResp":2,"stimulus":"img/500/equaldotsize/R/6_Ratio_500_L_9_R_18.png","xmouse":[796,796,796,796,796,796,796,796,796,796,796,796,796,796,796,796,796,796,798,798,798,798,798,798,795,794,792,792,792,795,802,815,844,933,996,1038,1077,1104,1148],"ymouse":[606,606,606,606,606,606,606,606,606,606,606,606,606,606,606,606,604,603,595,589,586,580,576,565,556,552,548,545,539,528,514,491,452,317,245,203,166,132,75],"timestamp_mouse":[20,43,48,69,88,108,129,149,168,188,209,228,248,269,289,309,328,348,368,389,408,428,449,468,489,508,528,548,568,589,609,629,648,668,688,708,728,748,768],"xSR":741.5,"ySR":573.95,"xT1":424.9,"yT1":0,"xT2":1058.1,"yT2":0,"toosoon":0,"cond_shown":"equaldotsize","ratio_trial":500,"smaller_num":"9","larger_num":"18","correct_side":2,"subjID":"LauraCamilaRobayoRodriguez15","gender":"1","age":"9","school":"4"},{"start_time":1552069427481,"click_time":1552069428424,"finger_time":1552069427944,"fix_duration":1015.3964695125863,"trial":21,"RT":463,"MT":480,"sideResp":1,"stimulus":"img/250/equaldotsize/L/14_Ratio_250_L_12_R_3.png","xmouse":[770,770,770,770,770,770,770,770,770,770,770,770,770,770,770,770,770,770,769,766,766,766,766,776,799,812,818,820,820,820,820,820,820,819,811,778,754,725,690,615,571,548,529,511,488,478,462,449],"ymouse":[653,653,653,653,653,653,653,653,653,653,653,653,653,653,653,653,652,648,646,635,628,612,575,520,396,335,296,284,278,275,274,274,273,273,273,266,260,254,245,213,203,200,197,190,174,156,121,95],"timestamp_mouse":[13,37,43,63,83,103,123,143,163,184,203,224,243,264,284,303,323,343,363,383,403,423,444,463,483,503,523,543,564,583,604,624,644,663,683,703,723,743,763,783,803,824,844,864,883,903,924,943],"xSR":741.5,"ySR":573.95,"xT1":424.9,"yT1":0,"xT2":1058.1,"yT2":0,"toosoon":0,"cond_shown":"equaldotsize","ratio_trial":250,"smaller_num":"3","larger_num":"12","correct_side":1,"subjID":"LauraCamilaRobayoRodriguez15","gender":"1","age":"9","school":"4"},{"start_time":1552069430823,"click_time":1552069431884,"finger_time":1552069431405,"fix_duration":1037.9214103374816,"trial":22,"RT":582,"MT":479,"sideResp":1,"stimulus":"img/250/equaldotsize/L/7_Ratio_250_L_8_R_2.png","xmouse":[796,796,796,796,796,796,796,796,796,796,796,796,796,796,796,796,796,796,796,796,796,796,796,796,795,795,795,795,795,793,784,780,757,712,680,652,629,590,575,565,559,557,555,550,545,541,538,535,529,526,524,523,519,514],"ymouse":[618,618,618,618,618,618,618,618,618,618,618,618,618,618,618,618,618,618,618,618,618,618,618,618,618,618,618,606,581,545,491,475,417,356,323,300,284,268,264,260,258,257,251,223,212,203,191,181,156,143,125,117,103,87],"timestamp_mouse":[15,23,42,61,81,101,122,142,161,181,203,221,241,261,281,301,322,341,361,381,402,422,441,462,482,502,521,542,561,582,601,621,641,661,681,702,721,743,761,782,801,822,842,861,881,901,921,941,961,982,1001,1021,1041,1061],"xSR":741.5,"ySR":573.95,"xT1":424.9,"yT1":0,"xT2":1058.1,"yT2":0,"toosoon":0,"cond_shown":"equaldotsize","ratio_trial":250,"smaller_num":"2","larger_num":"8","correct_side":1,"subjID":"LauraCamilaRobayoRodriguez15","gender":"1","age":"9","school":"4"},{"start_time":1552069433841,"click_time":1552069435485,"finger_time":1552069434464,"fix_duration":1055.1818594041058,"trial":23,"RT":623,"MT":1021,"sideResp":2,"stimulus":"img/900/randomdotsizeEA/L/2_Ratio_900_L_20_R_18.png","xmouse":[786,786,786,786,784,783,782,778,778,777,777,777,777,777,777,777,776,773,772,771,770,770,770,770,770,770,768,765,759,754,746,737,721,714,709,698,689,677,674,673,673,673,673,673,675,684,699,723,739,752,761,775,835,885,947,999,1039,1086,1101,1116,1122,1125,1126,1126,1126,1126,1126,1126,1126,1126,1126,1126,1126,1126,1126,1126,1126,1126,1126,1126,1126,1126,1124],"ymouse":[622,622,622,623,624,626,628,632,633,634,634,634,634,634,634,634,634,626,624,623,622,622,622,622,622,620,617,603,593,585,574,561,533,521,512,496,484,471,468,465,465,465,464,457,437,409,374,317,279,258,241,224,184,158,121,84,43,0,0,0,0,0,0,0,0,0,0,0,0,0,0,0,0,0,0,0,0,0,0,0,0,0,14],"timestamp_mouse":[3,23,45,63,83,103,123,143,164,184,203,223,243,264,283,303,324,343,363,383,403,424,443,463,484,503,524,543,563,583,604,623,643,663,683,704,723,743,763,783,804,823,843,863,883,903,924,943,964,983,1003,1023,1043,1064,1084,1103,1124,1143,1164,1183,1203,1223,1243,1263,1283,1303,1323,1344,1363,1384,1404,1423,1443,1464,1483,1504,1523,1543,1563,1584,1603,1623,1644],"xSR":741.5,"ySR":573.95,"xT1":424.9,"yT1":0,"xT2":1058.1,"yT2":0,"toosoon":0,"cond_shown":"randomdotsizeEA","ratio_trial":900,"smaller_num":"18","larger_num":"20","correct_side":1,"subjID":"LauraCamilaRobayoRodriguez15","gender":"1","age":"9","school":"4"},{"start_time":1552069438230,"click_time":1552069439404,"finger_time":1552069438664,"fix_duration":1244.666722617753,"trial":24,"RT":434,"MT":740,"sideResp":2,"stimulus":"img/750/equaldotanddens/R/4_Ratio_750_L_15_R_20.png","xmouse":[758,758,758,758,758,758,758,758,758,758,758,758,758,758,758,758,758,758,758,758,754,740,678,662,657,656,651,649,648,646,646,646,646,646,646,646,668,711,845,908,955,991,1007,1020,1022,1022,1027,1032,1043,1048,1053,1057,1060,1061,1061,1061,1061,1062,1069],"ymouse":[608,608,608,608,608,608,608,608,608,608,608,608,608,608,608,608,608,608,608,608,598,537,339,304,293,285,271,263,252,249,246,246,246,246,246,245,243,235,193,173,151,133,121,111,107,104,89,74,38,20,3,0,0,0,0,0,0,0,18],"timestamp_mouse":[20,35,55,74,94,114,135,154,174,194,214,234,255,274,294,314,334,354,374,394,414,434,456,474,495,514,535,554,574,595,614,635,654,675,695,715,734,754,775,794,814,834,855,874,895,914,934,954,975,994,1014,1035,1054,1075,1094,1115,1135,1154,1174],"xSR":741.5,"ySR":573.95,"xT1":424.9,"yT1":0,"xT2":1058.1,"yT2":0,"toosoon":0,"cond_shown":"equaldotanddens","ratio_trial":750,"smaller_num":"15","larger_num":"20","correct_side":2,"subjID":"LauraCamilaRobayoRodriguez15","gender":"1","age":"9","school":"4"},{"start_time":1552069441725,"click_time":1552069443465,"finger_time":1552069442325,"fix_duration":499.6955766308193,"trial":25,"RT":600,"MT":1140,"sideResp":2,"stimulus":"img/900/equaldotsize/R/7_Ratio_900_L_9_R_10.png","xmouse":[810,810,810,810,810,810,810,810,810,810,810,810,810,810,810,810,810,810,810,810,810,810,810,810,809,808,807,806,804,799,797,796,796,801,819,828,839,849,858,874,888,898,908,920,939,948,957,967,978,999,1010,1017,1023,1028,1035,1036,1038,1039,1040,1041,1043,1045,1047,1049,1055,1056,1056,1056,1056,1056,1056,1056,1056,1057,1059,1060,1062,1064,1065,1067,1068,1068,1069,1069,1070,1071,1072,1073],"ymouse":[615,615,615,615,615,615,615,615,615,615,615,615,615,615,615,615,615,615,615,615,615,615,615,615,613,612,610,608,606,588,572,552,528,502,448,426,409,396,389,373,354,343,329,315,290,277,264,253,240,214,199,189,177,168,155,151,148,146,146,142,139,135,133,130,122,121,120,120,120,120,120,120,119,119,116,114,112,110,109,108,107,106,106,105,103,101,100,99],"timestamp_mouse":[1,20,43,60,79,100,119,139,159,180,199,219,240,259,279,300,319,340,360,380,400,420,440,460,479,499,519,539,559,579,600,619,639,659,679,699,720,739,760,779,799,819,839,859,879,899,919,939,960,979,999,1019,1040,1059,1079,1099,1120,1139,1160,1179,1199,1219,1239,1259,1279,1299,1320,1339,1360,1380,1399,1419,1440,1459,1479,1499,1519,1539,1559,1579,1600,1619,1639,1659,1679,1699,1719,1740],"xSR":741.5,"ySR":573.95,"xT1":424.9,"yT1":0,"xT2":1058.1,"yT2":0,"toosoon":0,"cond_shown":"equaldotsize","ratio_trial":900,"smaller_num":"9","larger_num":"10","correct_side":2,"subjID":"LauraCamilaRobayoRodriguez15","gender":"1","age":"9","school":"4"},{"start_time":1552069445036,"click_time":1552069445904,"finger_time":1552069445685,"fix_duration":250,"trial":26,"RT":649,"MT":219,"sideResp":2,"stimulus":"img/750/equaldotsize/R/11_Ratio_750_L_12_R_16.png","xmouse":[807,805,805,791,789,787,784,782,781,778,778,778,778,778,778,778,778,778,778,778,778,778,778,778,778,778,776,775,773,772,771,771,773,800,821,860,902,944,995,1013,1028,1042,1050,1060],"ymouse":[632,631,631,627,626,625,623,622,621,620,620,620,620,620,620,620,620,620,620,620,620,620,620,620,620,620,617,616,610,605,598,583,567,518,491,445,397,357,273,233,196,163,140,95],"timestamp_mouse":[22,37,48,68,89,108,129,148,168,189,208,229,248,268,288,308,329,349,368,388,409,429,449,468,489,510,529,548,568,589,609,628,649,668,688,711,728,748,768,788,808,828,848,868],"xSR":741.5,"ySR":573.95,"xT1":424.9,"yT1":0,"xT2":1058.1,"yT2":0,"toosoon":0,"cond_shown":"equaldotsize","ratio_trial":750,"smaller_num":"12","larger_num":"16","correct_side":2,"subjID":"LauraCamilaRobayoRodriguez15","gender":"1","age":"9","school":"4"},{"start_time":1552069448293,"click_time":1552069449565,"finger_time":1552069448924,"fix_duration":606.3477154396037,"trial":27,"RT":631,"MT":641,"sideResp":2,"stimulus":"img/900/randomdotsizeEA/L/10_Ratio_900_L_20_R_18.png","xmouse":[822,820,817,816,815,813,813,813,812,812,812,811,810,810,810,810,810,809,809,808,808,808,808,807,807,807,807,807,807,807,807,813,823,839,858,878,914,941,950,967,987,994,1001,1005,1008,1010,1019,1025,1027,1027,1029,1029,1032,1033,1034,1038,1044,1048,1055,1057,1059,1060,1062,1064],"ymouse":[647,644,639,637,636,632,631,630,629,628,627,626,624,623,621,620,618,615,614,611,609,606,604,602,602,602,602,599,598,591,582,541,507,467,417,368,299,254,240,210,184,173,166,161,156,152,141,135,132,131,130,128,126,125,124,120,114,110,105,103,102,101,100,99],"timestamp_mouse":[10,38,51,72,91,112,131,152,171,192,211,231,252,271,291,313,332,352,371,391,411,431,452,471,492,511,531,552,571,591,611,631,652,671,691,711,731,751,771,792,812,831,851,871,892,912,931,952,972,992,1011,1031,1051,1071,1091,1111,1132,1151,1171,1192,1212,1231,1251,1272],"xSR":741.5,"ySR":573.95,"xT1":424.9,"yT1":0,"xT2":1058.1,"yT2":0,"toosoon":0,"cond_shown":"randomdotsizeEA","ratio_trial":900,"smaller_num":"18","larger_num":"20","correct_side":1,"subjID":"LauraCamilaRobayoRodriguez15","gender":"1","age":"9","school":"4"},{"start_time":1552069455610,"click_time":1552069456605,"finger_time":1552069456104,"fix_duration":1064.5310922246142,"trial":28,"RT":494,"MT":501,"sideResp":2,"stimulus":"img/500/randomdotsizeEA/L/5_Ratio_500_L_4_R_2.png","xmouse":[796,796,796,796,796,796,796,796,796,796,796,796,796,796,796,796,796,796,796,796,796,791,778,766,759,753,751,750,749,747,748,756,765,776,790,821,842,868,897,935,997,1010,1021,1030,1040,1053,1056,1058,1058,1059],"ymouse":[620,620,620,620,620,620,620,620,620,620,620,620,620,620,620,620,620,620,620,620,620,615,600,584,573,560,554,552,547,534,500,476,448,422,391,322,288,252,217,174,105,92,81,73,66,58,55,54,54,53],"timestamp_mouse":[14,42,54,75,94,115,135,155,175,195,214,234,255,275,294,315,334,354,374,395,415,435,454,474,494,514,534,555,575,595,615,634,655,675,694,715,734,754,774,794,814,834,854,875,894,914,934,954,975,995],"xSR":741.5,"ySR":573.95,"xT1":424.9,"yT1":0,"xT2":1058.1,"yT2":0,"toosoon":0,"cond_shown":"randomdotsizeEA","ratio_trial":500,"smaller_num":"2","larger_num":"4","correct_side":1,"subjID":"LauraCamilaRobayoRodriguez15","gender":"1","age":"9","school":"4"},{"start_time":1552069459138,"click_time":1552069460224,"finger_time":1552069459804,"fix_duration":1051.5684627905646,"trial":29,"RT":666,"MT":420,"sideResp":1,"stimulus":"img/500/equaldotsize/L/13_Ratio_500_L_12_R_6.png","xmouse":[817,817,817,817,817,817,817,817,817,817,817,817,817,817,817,817,817,817,817,817,817,817,816,816,816,816,816,815,814,812,806,795,775,757,731,640,593,558,532,514,486,473,470,463,461,461,461,461,463,472,478,482,484,485,485],"ymouse":[624,624,624,624,624,624,624,624,624,624,624,624,624,624,624,624,624,624,624,624,624,624,624,624,624,624,624,624,623,622,613,602,578,558,533,464,433,409,383,354,298,259,245,215,201,185,180,174,166,144,131,119,107,101,97],"timestamp_mouse":[13,35,47,66,87,106,126,146,167,186,206,226,246,266,286,306,327,346,366,386,406,426,447,467,486,507,526,546,566,586,606,626,646,666,686,707,726,746,766,786,806,827,846,867,886,906,926,946,966,987,1007,1027,1046,1067,1086],"xSR":741.5,"ySR":573.95,"xT1":424.9,"yT1":0,"xT2":1058.1,"yT2":0,"toosoon":0,"cond_shown":"equaldotsize","ratio_trial":500,"smaller_num":"6","larger_num":"12","correct_side":1,"subjID":"LauraCamilaRobayoRodriguez15","gender":"1","age":"9","school":"4"},{"start_time":1552069461811,"click_time":1552069462964,"finger_time":1552069462444,"fix_duration":604.0739503854883,"trial":30,"RT":633,"MT":520,"sideResp":2,"stimulus":"img/500/randomdotsizeEA/R/9_Ratio_500_L_2_R_4.png","xmouse":[810,810,810,810,810,810,810,810,810,810,810,810,810,810,810,810,810,810,810,810,810,810,810,810,810,810,810,810,809,809,809,811,815,820,830,843,877,908,932,952,973,1003,1010,1015,1020,1023,1032,1033,1036,1036,1036,1036,1036,1038,1042,1048,1062,1066],"ymouse":[593,593,593,593,593,593,593,593,593,593,593,593,593,593,593,593,593,593,593,593,593,593,593,593,593,593,593,593,592,588,582,565,552,534,512,488,438,395,363,341,320,285,273,262,256,249,224,220,207,201,196,191,187,178,167,153,106,93],"timestamp_mouse":[13,33,54,74,93,113,133,155,173,194,214,234,253,274,294,314,333,354,373,393,413,434,455,473,493,514,533,554,573,594,613,633,653,674,693,713,733,754,773,793,813,833,854,873,893,913,933,953,973,994,1013,1033,1053,1073,1093,1114,1133,1153],"xSR":741.5,"ySR":573.95,"xT1":424.9,"yT1":0,"xT2":1058.1,"yT2":0,"toosoon":0,"cond_shown":"randomdotsizeEA","ratio_trial":500,"smaller_num":"2","larger_num":"4","correct_side":2,"subjID":"LauraCamilaRobayoRodriguez15","gender":"1","age":"9","school":"4"},{"start_time":1552069465074,"click_time":1552069466045,"finger_time":1552069465444,"fix_duration":1188.1041740998019,"trial":31,"RT":370,"MT":601,"sideResp":1,"stimulus":"img/500/equaldotsize/L/8_Ratio_500_L_8_R_4.png","xmouse":[819,819,819,819,819,819,819,819,819,819,819,819,819,819,819,819,819,819,806,801,798,797,796,794,792,787,780,771,743,727,705,677,657,617,601,589,581,576,574,574,574,574,574,572,566,557,545,531,504],"ymouse":[578,578,578,578,578,578,578,578,578,578,578,578,578,578,578,578,578,578,565,559,556,555,554,553,551,545,536,525,494,473,445,408,380,323,299,282,270,261,252,250,249,248,243,221,198,170,144,120,77],"timestamp_mouse":[11,38,50,71,89,111,130,151,171,191,210,230,250,270,291,311,331,350,370,390,411,430,450,470,490,511,531,550,570,590,610,630,650,670,690,710,731,750,771,790,810,830,851,870,890,910,931,950,971],"xSR":741.5,"ySR":573.95,"xT1":424.9,"yT1":0,"xT2":1058.1,"yT2":0,"toosoon":0,"cond_shown":"equaldotsize","ratio_trial":500,"smaller_num":"4","larger_num":"8","correct_side":1,"subjID":"LauraCamilaRobayoRodriguez15","gender":"1","age":"9","school":"4"},{"start_time":1552069467537,"click_time":1552069468284,"finger_time":1552069467965,"fix_duration":250,"trial":32,"RT":428,"MT":319,"sideResp":1,"stimulus":"img/500/equaldotsize/L/7_Ratio_500_L_10_R_5.png","xmouse":[781,781,781,781,781,781,781,781,781,781,781,781,781,781,781,781,781,781,781,776,767,751,748,745,739,732,714,708,698,672,645,603,580,554,530,515,499,493],"ymouse":[616,616,616,616,616,616,616,616,616,616,616,616,616,616,616,616,616,614,610,594,576,544,535,526,514,502,472,455,436,394,356,295,259,221,181,150,106,83],"timestamp_mouse":[13,36,47,68,87,109,127,148,168,188,207,228,248,268,288,308,328,348,367,387,407,428,447,467,487,507,527,548,567,587,607,627,648,667,687,708,727,747],"xSR":741.5,"ySR":573.95,"xT1":424.9,"yT1":0,"xT2":1058.1,"yT2":0,"toosoon":0,"cond_shown":"equaldotsize","ratio_trial":500,"smaller_num":"5","larger_num":"10","correct_side":1,"subjID":"LauraCamilaRobayoRodriguez15","gender":"1","age":"9","school":"4"},{"start_time":1552069470483,"click_time":1552069471425,"finger_time":1552069470964,"fix_duration":1418.125242443342,"trial":33,"RT":481,"MT":461,"sideResp":2,"stimulus":"img/750/equaldotanddens/R/15_Ratio_750_L_9_R_12.png","xmouse":[775,775,775,775,775,775,775,775,775,775,778,779,780,780,780,780,780,780,780,780,780,780,780,780,794,811,829,850,870,911,929,943,954,962,979,987,997,1006,1016,1027,1031,1031,1031,1031,1041,1049,1055,1062],"ymouse":[624,624,624,624,624,624,624,624,624,624,624,624,624,624,624,624,624,624,623,621,610,602,591,575,513,478,437,388,338,220,180,147,122,102,67,49,29,12,0,0,0,0,0,0,9,19,27,33],"timestamp_mouse":[20,21,41,61,82,101,121,141,162,181,201,221,242,262,281,302,321,342,361,381,401,421,441,461,481,502,522,541,561,581,602,621,642,661,681,701,721,741,761,781,801,821,842,861,884,901,922,942],"xSR":741.5,"ySR":573.95,"xT1":424.9,"yT1":0,"xT2":1058.1,"yT2":0,"toosoon":0,"cond_shown":"equaldotanddens","ratio_trial":750,"smaller_num":"9","larger_num":"12","correct_side":2,"subjID":"LauraCamilaRobayoRodriguez15","gender":"1","age":"9","school":"4"},{"start_time":1552069473112,"click_time":1552069474266,"finger_time":1552069473784,"fix_duration":647.0463685033833,"trial":34,"RT":672,"MT":482,"sideResp":2,"stimulus":"img/750/randomdotsizeEA/L/14_Ratio_750_L_8_R_6.png","xmouse":[809,809,809,811,813,814,816,817,817,817,817,817,817,817,817,817,817,817,817,817,817,817,817,817,817,817,817,817,817,817,817,817,818,824,831,848,862,879,915,933,953,970,997,1007,1013,1016,1021,1024,1028,1032,1034,1036,1042,1047,1054,1062,1064,1070],"ymouse":[636,636,637,638,639,639,641,641,641,641,642,642,642,642,642,642,642,642,630,624,620,614,606,602,600,598,596,595,591,589,588,584,582,568,554,529,511,492,446,421,394,371,335,321,308,299,289,282,268,258,248,236,211,196,173,140,124,93],"timestamp_mouse":[12,34,52,73,93,112,132,152,173,192,212,232,252,272,292,313,333,352,373,393,413,432,453,473,492,513,532,552,573,592,612,632,652,672,692,712,733,752,772,792,812,832,854,872,893,913,932,952,972,992,1012,1032,1054,1072,1092,1112,1133,1153],"xSR":741.5,"ySR":573.95,"xT1":424.9,"yT1":0,"xT2":1058.1,"yT2":0,"toosoon":0,"cond_shown":"randomdotsizeEA","ratio_trial":750,"smaller_num":"6","larger_num":"8","correct_side":1,"subjID":"LauraCamilaRobayoRodriguez15","gender":"1","age":"9","school":"4"},{"start_time":1552069475439,"click_time":1552069476504,"finger_time":1552069475764,"fix_duration":452.73270913264787,"trial":35,"RT":325,"MT":740,"sideResp":1,"stimulus":"img/900/randomdotsizeEA/R/13_Ratio_900_L_18_R_20.png","xmouse":[782,782,782,782,782,782,782,782,782,782,782,782,782,780,774,768,760,744,741,740,739,738,734,732,729,725,717,713,710,707,699,692,669,658,645,635,617,596,586,583,573,568,563,563,563,563,563,563,561,559,555,550,528,518],"ymouse":[638,638,638,638,638,638,637,637,637,637,637,635,629,615,597,577,555,518,504,499,495,490,478,469,461,451,435,429,426,421,414,406,376,355,325,298,269,225,195,184,149,129,112,109,109,109,109,108,104,101,97,92,83,80],"timestamp_mouse":[20,28,46,66,85,105,125,146,167,185,205,225,245,265,285,305,325,346,365,385,406,426,445,465,485,505,527,545,565,585,605,625,646,666,686,705,725,745,766,786,805,825,845,865,886,905,926,945,965,985,1005,1025,1045,1065],"xSR":741.5,"ySR":573.95,"xT1":424.9,"yT1":0,"xT2":1058.1,"yT2":0,"toosoon":0,"cond_shown":"randomdotsizeEA","ratio_trial":900,"smaller_num":"18","larger_num":"20","correct_side":2,"subjID":"LauraCamilaRobayoRodriguez15","gender":"1","age":"9","school":"4"},{"start_time":1552069478745,"click_time":1552069479725,"finger_time":1552069479084,"fix_duration":1339.093884191634,"trial":36,"RT":339,"MT":641,"sideResp":1,"stimulus":"img/500/randomdotsizeEA/R/14_Ratio_500_L_5_R_10.png","xmouse":[812,812,812,811,811,811,810,809,808,807,806,806,802,799,795,791,785,773,739,715,680,653,635,632,628,626,622,620,619,617,617,616,615,611,610,609,609,609,609,608,604,595,572,558,549,544,540,532,528,522],"ymouse":[626,626,626,624,623,622,621,619,617,616,614,613,608,604,599,591,576,555,496,439,363,316,275,248,224,202,183,162,155,150,148,146,145,140,138,138,138,138,138,138,136,132,123,117,113,111,108,103,101,99],"timestamp_mouse":[1,19,41,60,79,99,119,139,160,180,200,219,239,260,279,299,319,339,359,379,399,419,439,460,479,500,519,539,559,580,600,619,639,660,679,700,720,739,759,779,799,819,839,859,880,899,919,939,959,980],"xSR":741.5,"ySR":573.95,"xT1":424.9,"yT1":0,"xT2":1058.1,"yT2":0,"toosoon":0,"cond_shown":"randomdotsizeEA","ratio_trial":500,"smaller_num":"5","larger_num":"10","correct_side":2,"subjID":"LauraCamilaRobayoRodriguez15","gender":"1","age":"9","school":"4"},{"start_time":1552069481682,"click_time":1552069483344,"finger_time":1552069481986,"fix_duration":1217.8556440051505,"trial":37,"RT":304,"MT":1358,"sideResp":1,"stimulus":"img/900/equaldotsize/L/1_Ratio_900_L_10_R_9.png","xmouse":[798,798,798,798,798,798,798,798,798,798,798,790,779,765,742,731,731,731,731,731,731,731,731,731,731,731,731,731,731,731,731,731,731,731,731,731,731,731,731,731,731,731,731,731,731,730,729,727,724,717,708,694,690,690,689,689,687,683,678,667,647,598,581,569,565,558,550,548,548,548,548,548,548,547,547,545,536,528,523,520,518,515,513,513],"ymouse":[620,620,620,620,620,620,620,620,620,620,619,619,622,626,631,631,631,631,631,631,631,631,631,631,631,631,631,631,631,631,631,631,631,631,631,631,631,631,631,631,631,631,631,631,631,631,615,598,580,554,533,514,512,512,511,510,501,492,480,464,432,345,280,234,206,176,155,152,152,152,152,152,152,151,151,146,134,124,118,114,108,103,100,98],"timestamp_mouse":[13,39,49,63,84,102,122,144,162,182,203,222,242,263,283,304,322,342,362,383,403,423,442,463,482,503,522,542,563,583,603,623,642,663,682,702,723,742,762,783,802,822,843,863,883,902,923,942,962,982,1002,1022,1044,1062,1082,1102,1122,1142,1162,1182,1202,1222,1243,1262,1282,1302,1322,1342,1364,1382,1402,1422,1442,1462,1483,1502,1522,1543,1562,1582,1603,1622,1642,1662],"xSR":741.5,"ySR":573.95,"xT1":424.9,"yT1":0,"xT2":1058.1,"yT2":0,"toosoon":0,"cond_shown":"equaldotsize","ratio_trial":900,"smaller_num":"9","larger_num":"10","correct_side":1,"subjID":"LauraCamilaRobayoRodriguez15","gender":"1","age":"9","school":"4"},{"start_time":1552069486466,"click_time":1552069487526,"finger_time":1552069487125,"fix_duration":259.18600326321615,"trial":38,"RT":659,"MT":401,"sideResp":1,"stimulus":"img/250/equaldotsize/L/7_Ratio_250_L_8_R_2.png","xmouse":[776,776,776,776,776,776,776,776,776,776,776,776,776,776,776,776,776,776,776,776,776,776,776,776,776,776,776,776,776,776,775,775,775,772,769,765,758,746,740,734,729,724,721,715,709,702,693,665,651,638,623,604,533,478],"ymouse":[661,661,661,661,661,661,661,661,661,661,661,661,661,661,661,661,661,661,661,661,661,661,660,659,659,659,659,659,659,659,652,637,575,500,450,401,357,306,287,272,260,251,239,229,221,211,203,182,172,160,149,136,102,85],"timestamp_mouse":[1,18,38,59,79,100,119,139,160,179,198,219,238,259,278,299,319,339,360,378,398,420,439,458,478,500,518,539,559,580,598,619,639,659,678,698,718,738,758,778,798,818,838,859,878,898,918,938,958,979,998,1019,1038,1060],"xSR":741.5,"ySR":573.95,"xT1":424.9,"yT1":0,"xT2":1058.1,"yT2":0,"toosoon":0,"cond_shown":"equaldotsize","ratio_trial":250,"smaller_num":"2","larger_num":"8","correct_side":1,"subjID":"LauraCamilaRobayoRodriguez15","gender":"1","age":"9","school":"4"},{"start_time":1552069489435,"click_time":1552069491166,"finger_time":1552069490704,"fix_duration":1229.9389591876488,"trial":39,"RT":1269,"MT":462,"sideResp":2,"stimulus":"img/750/randomdotsizeEA/R/7_Ratio_750_L_3_R_4.png","xmouse":[769,769,769,769,769,769,769,769,769,769,769,769,769,769,769,769,768,767,766,765,764,764,763,763,763,763,763,763,763,763,763,763,763,763,763,763,763,763,763,763,763,763,763,763,763,763,763,763,763,763,763,763,763,763,763,763,763,763,763,763,763,763,772,801,828,848,863,875,884,887,893,902,913,940,949,958,968,978,996,1008,1015,1021,1027,1043,1052,1060,1069],"ymouse":[612,612,612,612,611,611,611,611,611,611,611,611,611,611,611,611,610,610,610,610,610,610,609,609,609,609,609,609,609,609,609,609,609,609,609,609,609,609,609,609,609,609,609,609,609,609,609,609,609,609,609,609,609,609,609,609,609,609,609,609,609,607,597,565,540,519,502,482,435,414,394,372,350,307,289,275,259,243,214,199,187,178,165,134,117,105,90],"timestamp_mouse":[10,38,50,69,90,109,129,151,170,189,210,230,249,269,289,309,329,350,370,390,410,430,449,470,490,510,530,549,569,590,610,629,649,669,690,711,730,751,769,790,810,829,849,870,890,910,930,950,970,991,1010,1029,1050,1069,1090,1109,1129,1149,1169,1189,1209,1229,1250,1269,1290,1310,1330,1349,1369,1389,1409,1429,1449,1470,1490,1510,1529,1549,1569,1589,1609,1629,1650,1669,1689,1710,1731],"xSR":741.5,"ySR":573.95,"xT1":424.9,"yT1":0,"xT2":1058.1,"yT2":0,"toosoon":0,"cond_shown":"randomdotsizeEA","ratio_trial":750,"smaller_num":"3","larger_num":"4","correct_side":2,"subjID":"LauraCamilaRobayoRodriguez15","gender":"1","age":"9","school":"4"},{"start_time":1552069494437,"click_time":1552069495485,"finger_time":1552069494984,"fix_duration":390.21067485905803,"trial":40,"RT":547,"MT":501,"sideResp":1,"stimulus":"img/500/randomdotsizeEA/L/10_Ratio_500_L_4_R_2.png","xmouse":[807,807,807,807,807,807,807,807,807,807,807,807,807,807,807,807,807,807,807,807,807,807,807,807,807,806,801,790,780,748,688,658,555,499,446,434,424,414,401,370,357,356,354,354,354,354,355,363,379,422,442,458,469],"ymouse":[599,599,599,599,599,599,599,599,599,599,599,599,599,599,599,599,599,599,599,599,599,599,599,599,599,593,584,568,556,521,469,448,364,317,276,265,252,243,224,188,172,170,168,168,167,167,165,160,151,131,120,109,97],"timestamp_mouse":[20,42,48,67,87,107,127,148,167,187,208,228,247,267,289,308,328,348,367,388,409,429,447,468,487,507,527,547,568,587,607,627,647,667,687,708,728,747,768,787,807,828,847,868,887,908,927,947,967,987,1007,1027,1048],"xSR":741.5,"ySR":573.95,"xT1":424.9,"yT1":0,"xT2":1058.1,"yT2":0,"toosoon":0,"cond_shown":"randomdotsizeEA","ratio_trial":500,"smaller_num":"2","larger_num":"4","correct_side":1,"subjID":"LauraCamilaRobayoRodriguez15","gender":"1","age":"9","school":"4"},{"start_time":1552069497534,"click_time":1552069498244,"finger_time":1552069498084,"fix_duration":1089.6234807598323,"trial":41,"RT":550,"MT":160,"sideResp":1,"stimulus":"img/250/randomdotsizeEA/L/14_Ratio_250_L_12_R_3.png","xmouse":[824,824,824,824,824,824,824,824,824,824,824,824,824,824,824,824,824,824,824,824,824,822,818,815,813,812,809,804,797,759,718,676,641,611,522,427],"ymouse":[611,611,611,611,611,611,611,611,611,611,611,611,611,611,611,611,611,611,611,611,611,608,603,596,592,589,583,573,555,479,419,361,316,279,156,51],"timestamp_mouse":[13,38,50,70,90,111,130,150,170,190,210,231,251,270,291,311,330,350,370,390,412,430,450,471,490,511,530,550,570,590,610,631,650,671,690,710],"xSR":741.5,"ySR":573.95,"xT1":424.9,"yT1":0,"xT2":1058.1,"yT2":0,"toosoon":0,"cond_shown":"randomdotsizeEA","ratio_trial":250,"smaller_num":"3","larger_num":"12","correct_side":1,"subjID":"LauraCamilaRobayoRodriguez15","gender":"1","age":"9","school":"4"},{"start_time":1552069500376,"click_time":1552069501844,"finger_time":1552069501064,"fix_duration":1029.0728207722054,"trial":42,"RT":688,"MT":780,"sideResp":2,"stimulus":"img/500/equaldotanddens/R/14_Ratio_500_L_5_R_10.png","xmouse":[801,801,801,801,801,801,801,801,801,801,801,801,801,801,801,801,801,801,801,801,801,801,801,801,801,801,801,801,801,801,801,801,801,801,804,806,808,812,835,863,906,925,939,957,963,967,969,973,984,995,998,1008,1013,1025,1031,1036,1039,1041,1041,1041,1041,1041,1041,1041,1042,1045,1048,1050,1053,1053,1054,1055,1057,1066],"ymouse":[638,638,638,638,638,638,638,638,638,638,638,638,638,638,638,638,638,638,638,638,638,638,638,638,638,638,638,638,638,638,637,633,621,587,570,555,543,532,484,443,380,346,318,273,260,248,240,226,190,157,145,111,93,64,56,50,46,44,43,43,43,43,43,43,42,43,47,48,50,50,50,50,51,52],"timestamp_mouse":[13,28,48,69,89,109,129,149,168,188,209,228,248,268,289,308,329,348,369,388,409,428,450,469,489,510,529,549,569,588,609,629,649,668,688,708,728,748,768,788,808,829,848,870,888,909,928,949,968,990,1008,1029,1048,1069,1089,1108,1129,1148,1169,1188,1208,1229,1249,1268,1288,1308,1328,1348,1368,1388,1408,1429,1448,1468],"xSR":741.5,"ySR":573.95,"xT1":424.9,"yT1":0,"xT2":1058.1,"yT2":0,"toosoon":0,"cond_shown":"equaldotanddens","ratio_trial":500,"smaller_num":"5","larger_num":"10","correct_side":2,"subjID":"LauraCamilaRobayoRodriguez15","gender":"1","age":"9","school":"4"},{"start_time":1552069503136,"click_time":1552069504204,"finger_time":1552069503824,"fix_duration":250,"trial":43,"RT":688,"MT":380,"sideResp":1,"stimulus":"img/900/equaldotsize/L/4_Ratio_900_L_20_R_18.png","xmouse":[817,817,817,817,817,817,817,817,817,817,817,817,817,817,817,817,817,817,817,817,817,817,817,817,817,817,817,817,817,817,817,811,793,758,722,682,671,664,658,652,640,635,631,629,627,621,616,609,603,596,577,548,530,521],"ymouse":[672,672,672,672,672,672,672,672,672,672,672,672,672,672,672,672,672,672,672,672,672,672,672,672,672,672,672,672,672,672,672,666,635,586,543,498,480,465,449,434,405,392,376,365,353,325,308,285,262,239,185,139,115,97],"timestamp_mouse":[12,40,49,68,89,108,128,149,169,190,209,229,249,269,288,309,329,348,369,389,409,429,448,469,489,509,529,550,569,589,609,630,649,669,688,708,729,749,768,788,808,830,849,868,888,908,929,948,969,989,1008,1028,1048,1068],"xSR":741.5,"ySR":573.95,"xT1":424.9,"yT1":0,"xT2":1058.1,"yT2":0,"toosoon":0,"cond_shown":"equaldotsize","ratio_trial":900,"smaller_num":"18","larger_num":"20","correct_side":1,"subjID":"LauraCamilaRobayoRodriguez15","gender":"1","age":"9","school":"4"},{"start_time":1552069507515,"click_time":1552069510104,"finger_time":1552069509384,"fix_duration":1109.7712542166487,"trial":44,"RT":1869,"MT":720,"sideResp":2,"stimulus":"img/750/equaldotsize/L/8_Ratio_750_L_4_R_3.png","xmouse":[811,811,811,811,811,811,811,811,811,811,811,811,811,811,811,811,811,811,811,811,811,811,811,811,811,811,811,811,811,811,811,811,811,811,811,811,811,811,811,811,811,811,811,811,811,811,811,811,811,811,811,811,811,811,811,811,811,811,811,811,811,811,811,811,811,811,811,811,811,811,811,811,811,811,811,811,811,811,811,811,811,811,811,811,811,811,811,811,810,810,810,810,828,841,855,869,884,925,968,992,1014,1030,1046,1051,1056,1060,1065,1066,1066,1067,1068,1068,1068,1068,1068,1068,1068,1069,1070,1070,1070,1070,1070,1070,1070,1070,1070,1071,1073,1073],"ymouse":[643,643,643,643,643,643,643,643,643,643,643,643,643,643,643,643,643,643,643,643,643,643,643,643,643,643,643,643,643,643,643,643,643,643,643,643,643,643,643,643,643,643,643,643,643,643,643,643,643,643,643,643,643,643,643,643,643,643,643,643,643,643,643,643,643,643,643,643,643,643,643,643,643,643,643,643,643,643,643,643,643,643,643,643,643,643,643,643,643,636,624,614,586,573,556,539,518,448,369,327,289,261,220,203,181,169,158,154,151,148,142,140,138,137,136,135,134,130,128,125,123,122,120,120,119,119,115,107,102,99],"timestamp_mouse":[12,34,50,69,90,109,130,150,170,189,210,231,250,269,290,310,329,350,369,389,410,431,449,469,489,510,529,550,570,590,610,630,649,670,690,710,731,749,770,789,809,829,850,869,890,909,929,950,971,991,1010,1030,1049,1070,1089,1110,1129,1149,1170,1191,1209,1230,1249,1270,1289,1310,1330,1349,1369,1390,1409,1429,1450,1471,1490,1510,1530,1549,1570,1590,1609,1630,1649,1670,1691,1711,1730,1750,1770,1789,1809,1830,1849,1869,1890,1909,1929,1950,1970,1989,2009,2029,2049,2070,2089,2109,2130,2150,2169,2189,2209,2230,2249,2270,2289,2311,2330,2349,2369,2389,2410,2429,2449,2470,2490,2509,2529,2549,2569,2589],"xSR":741.5,"ySR":573.95,"xT1":424.9,"yT1":0,"xT2":1058.1,"yT2":0,"toosoon":0,"cond_shown":"equaldotsize","ratio_trial":750,"smaller_num":"3","larger_num":"4","correct_side":1,"subjID":"LauraCamilaRobayoRodriguez15","gender":"1","age":"9","school":"4"},{"start_time":1552069513649,"click_time":1552069514544,"finger_time":1552069514184,"fix_duration":423.425270545762,"trial":45,"RT":535,"MT":360,"sideResp":1,"stimulus":"img/250/equaldotsize/L/1_Ratio_250_L_8_R_2.png","xmouse":[776,776,776,776,776,776,776,776,776,776,776,776,776,776,776,776,776,776,776,776,777,776,767,759,755,752,741,729,709,686,623,607,595,580,570,559,557,555,551,547,540,536,532,528,524],"ymouse":[655,655,655,655,655,655,655,655,655,655,655,655,655,655,655,655,655,655,655,655,654,645,629,614,604,592,550,519,473,417,275,242,212,180,153,113,98,84,68,56,41,36,32,29,27],"timestamp_mouse":[16,35,55,76,96,117,135,156,176,196,216,235,256,275,295,315,336,355,377,396,415,436,455,476,495,515,535,556,575,595,616,637,655,675,695,715,735,756,777,795,815,835,855,875,895],"xSR":741.5,"ySR":573.95,"xT1":424.9,"yT1":0,"xT2":1058.1,"yT2":0,"toosoon":0,"cond_shown":"equaldotsize","ratio_trial":250,"smaller_num":"2","larger_num":"8","correct_side":1,"subjID":"LauraCamilaRobayoRodriguez15","gender":"1","age":"9","school":"4"},{"start_time":1552069516948,"click_time":1552069518384,"finger_time":1552069517404,"fix_duration":1383.578882913921,"trial":46,"RT":456,"MT":980,"sideResp":1,"stimulus":"img/750/randomdotsizeEA/L/10_Ratio_750_L_4_R_3.png","xmouse":[790,790,790,790,790,790,790,790,790,790,790,790,790,790,790,790,790,790,790,790,783,777,769,760,754,745,743,742,742,741,741,739,739,739,739,739,739,739,739,739,739,739,739,739,739,739,739,739,739,739,739,739,739,739,741,753,785,796,798,799,799,799,799,799,799,779,751,714,671,625,533,488],"ymouse":[604,604,604,604,604,604,604,604,604,604,604,604,604,604,604,604,604,604,602,598,586,578,569,563,559,552,550,549,548,547,546,544,544,544,544,544,544,544,544,544,544,544,544,544,544,544,544,544,544,544,544,544,544,544,540,527,508,503,501,501,500,498,495,490,484,443,402,338,263,180,49,14],"timestamp_mouse":[16,36,56,76,96,117,137,157,177,196,217,236,256,277,296,316,337,357,377,396,416,436,456,477,497,516,536,557,577,596,616,636,656,676,697,716,737,756,776,797,817,837,857,878,896,916,936,956,976,997,1017,1036,1058,1076,1096,1116,1137,1156,1176,1196,1217,1236,1256,1276,1296,1317,1336,1356,1378,1396,1417,1436],"xSR":741.5,"ySR":573.95,"xT1":424.9,"yT1":0,"xT2":1058.1,"yT2":0,"toosoon":0,"cond_shown":"randomdotsizeEA","ratio_trial":750,"smaller_num":"3","larger_num":"4","correct_side":1,"subjID":"LauraCamilaRobayoRodriguez15","gender":"1","age":"9","school":"4"},{"start_time":1552069520026,"click_time":1552069521185,"finger_time":1552069520784,"fix_duration":561.594840881881,"trial":47,"RT":758,"MT":401,"sideResp":1,"stimulus":"img/500/randomdotsizeEA/L/7_Ratio_500_L_10_R_5.png","xmouse":[772,772,772,772,772,772,772,772,772,772,772,772,772,772,772,772,772,772,772,772,772,772,772,772,772,773,774,778,780,781,781,782,782,782,782,783,783,784,784,774,750,720,679,667,659,652,649,642,638,632,625,616,600,588,573,555,534,503],"ymouse":[604,604,604,604,604,604,604,604,604,604,604,604,604,604,604,604,604,604,604,604,604,604,604,604,604,605,604,594,589,586,585,584,582,582,580,579,576,566,548,525,480,427,358,340,330,320,312,290,280,266,251,232,194,172,149,129,114,98],"timestamp_mouse":[18,42,59,79,99,118,138,159,178,200,219,238,259,278,299,318,338,359,378,399,419,438,458,479,499,518,539,558,579,598,619,638,658,679,698,718,739,758,779,798,818,838,858,878,899,918,939,958,978,998,1019,1038,1058,1078,1098,1119,1139,1158],"xSR":741.5,"ySR":573.95,"xT1":424.9,"yT1":0,"xT2":1058.1,"yT2":0,"toosoon":0,"cond_shown":"randomdotsizeEA","ratio_trial":500,"smaller_num":"5","larger_num":"10","correct_side":1,"subjID":"LauraCamilaRobayoRodriguez15","gender":"1","age":"9","school":"4"},{"start_time":1552069523534,"click_time":1552069524405,"finger_time":1552069524004,"fix_duration":1448.9173772930778,"trial":48,"RT":470,"MT":401,"sideResp":2,"stimulus":"img/900/randomdotsizeEA/L/8_Ratio_900_L_20_R_18.png","xmouse":[784,784,784,784,784,784,784,784,784,784,784,784,784,784,784,784,784,784,784,784,785,788,800,807,816,825,835,857,872,892,907,924,950,958,965,973,980,987,1002,1011,1019,1028,1057,1063],"ymouse":[625,625,625,625,625,625,625,625,625,625,625,625,625,625,625,625,625,625,625,624,622,615,577,552,524,499,474,399,352,304,273,249,203,186,169,154,138,125,101,91,82,73,58,56],"timestamp_mouse":[12,34,51,70,90,111,130,150,170,191,210,230,251,270,291,310,330,351,370,391,410,431,450,470,490,510,530,551,570,591,611,630,650,671,690,710,730,750,770,790,810,830,851,871],"xSR":741.5,"ySR":573.95,"xT1":424.9,"yT1":0,"xT2":1058.1,"yT2":0,"toosoon":0,"cond_shown":"randomdotsizeEA","ratio_trial":900,"smaller_num":"18","larger_num":"20","correct_side":1,"subjID":"LauraCamilaRobayoRodriguez15","gender":"1","age":"9","school":"4"},{"start_time":1552069543345,"click_time":1552069544545,"finger_time":1552069543984,"fix_duration":1238.600958018222,"trial":49,"RT":639,"MT":561,"sideResp":1,"stimulus":"img/500/randomdotsizeEA/L/10_Ratio_500_L_4_R_2.png","xmouse":[785,785,785,785,785,785,785,785,785,785,785,785,785,785,785,785,785,785,785,785,785,785,785,785,785,785,785,785,785,785,785,778,751,716,691,690,689,689,685,652,638,630,630,629,609,537,503,474,454,439,413,402,393,391,391,391,391,391,394,404,445],"ymouse":[616,616,616,616,616,616,616,616,616,616,616,616,616,616,616,616,616,616,616,616,616,616,616,616,616,616,616,616,616,616,616,607,566,524,486,484,482,478,456,347,265,179,97,18,0,0,0,0,0,0,2,11,39,52,57,57,57,58,61,67,87],"timestamp_mouse":[1,36,39,60,79,99,120,140,159,180,200,219,241,259,280,300,320,340,359,380,399,420,440,460,479,499,519,540,559,579,600,619,639,660,680,699,720,739,760,780,799,819,840,861,881,899,919,939,960,980,1000,1019,1039,1059,1079,1100,1120,1140,1159,1179,1200],"xSR":741.5,"ySR":573.95,"xT1":424.9,"yT1":0,"xT2":1058.1,"yT2":0,"toosoon":0,"cond_shown":"randomdotsizeEA","ratio_trial":500,"smaller_num":"2","larger_num":"4","correct_side":1,"subjID":"LauraCamilaRobayoRodriguez15","gender":"1","age":"9","school":"4"},{"start_time":1552069551631,"click_time":1552069553045,"finger_time":1552069552544,"fix_duration":965.9368809190843,"trial":50,"RT":913,"MT":501,"sideResp":2,"stimulus":"img/750/randomdotsizeEA/R/7_Ratio_750_L_3_R_4.png","xmouse":[826,826,826,826,826,826,826,826,826,826,826,826,826,826,826,826,826,826,826,826,826,826,826,826,826,826,826,826,826,826,826,826,826,826,826,826,826,823,819,816,812,805,802,799,797,797,828,855,883,903,919,944,947,954,961,974,982,991,996,999,1006,1008,1011,1016,1018,1021,1032,1038,1048,1058,1069],"ymouse":[664,664,664,664,664,664,664,664,664,664,664,664,664,664,664,664,664,664,664,664,664,664,664,664,664,664,664,664,664,664,664,664,664,664,664,664,664,661,655,651,645,633,624,611,583,559,475,415,355,307,273,218,209,192,170,137,119,101,91,83,75,73,72,71,71,71,69,68,67,64,60],"timestamp_mouse":[13,33,53,73,93,113,134,153,173,194,214,234,254,274,293,313,334,354,374,394,414,433,454,473,494,513,533,555,573,594,613,634,653,673,694,714,733,753,773,793,813,833,854,873,894,913,933,954,973,995,1014,1037,1054,1073,1093,1114,1133,1154,1174,1193,1215,1233,1254,1273,1293,1313,1333,1353,1374,1394,1414],"xSR":741.5,"ySR":573.95,"xT1":424.9,"yT1":0,"xT2":1058.1,"yT2":0,"toosoon":0,"cond_shown":"randomdotsizeEA","ratio_trial":750,"smaller_num":"3","larger_num":"4","correct_side":2,"subjID":"LauraCamilaRobayoRodriguez15","gender":"1","age":"9","school":"4"},{"start_time":1552069555227,"click_time":1552069556584,"finger_time":1552069555865,"fix_duration":401.4351419617337,"trial":51,"RT":638,"MT":719,"sideResp":2,"stimulus":"img/250/randomdotsizeEA/R/13_Ratio_250_L_2_R_8.png","xmouse":[806,806,806,806,806,806,806,806,806,806,806,806,806,806,806,806,806,806,806,806,806,804,801,798,797,794,794,793,793,793,793,803,809,841,870,904,986,1046,1114,1178,1224,1277,1280,1280,1280,1280,1280,1280,1280,1280,1280,1274,1263,1246,1230,1212,1181,1175,1172,1170,1169,1167,1166,1165,1163,1162,1159,1154],"ymouse":[628,628,628,628,628,628,628,628,628,628,628,628,628,628,628,628,628,628,628,628,627,621,609,603,596,592,588,587,586,585,580,539,523,456,408,361,246,176,116,63,22,0,0,0,0,0,0,0,0,0,0,1,6,13,19,27,42,45,47,48,49,51,51,53,54,55,58,60],"timestamp_mouse":[17,38,58,78,97,118,137,157,179,197,218,237,257,277,297,317,337,357,378,397,418,437,457,477,497,517,537,558,577,597,618,638,657,677,697,717,737,759,777,797,817,839,858,878,897,918,937,957,978,997,1017,1037,1058,1077,1098,1117,1139,1159,1178,1197,1217,1238,1257,1277,1297,1317,1337,1357],"xSR":741.5,"ySR":573.95,"xT1":424.9,"yT1":0,"xT2":1058.1,"yT2":0,"toosoon":0,"cond_shown":"randomdotsizeEA","ratio_trial":250,"smaller_num":"2","larger_num":"8","correct_side":2,"subjID":"LauraCamilaRobayoRodriguez15","gender":"1","age":"9","school":"4"},{"start_time":1552069559096,"click_time":1552069560104,"finger_time":1552069559744,"fix_duration":250,"trial":52,"RT":648,"MT":360,"sideResp":2,"stimulus":"img/750/equaldotanddens/R/4_Ratio_750_L_15_R_20.png","xmouse":[794,794,794,794,794,794,794,794,794,794,794,794,794,794,794,794,794,794,794,794,794,794,794,794,794,794,794,795,796,805,813,827,846,868,914,935,961,977,990,1019,1032,1042,1050,1059,1063,1065,1066,1066,1066,1069,1070],"ymouse":[664,664,664,664,664,664,664,664,664,664,664,664,664,664,664,664,664,664,664,664,664,664,664,664,664,664,664,663,662,647,631,602,565,526,447,412,365,336,312,261,237,218,198,168,154,141,131,121,117,101,93],"timestamp_mouse":[20,39,48,69,88,108,128,148,168,188,208,228,248,269,289,308,329,349,368,389,408,429,448,469,488,509,529,548,568,588,608,628,648,668,688,708,728,749,768,789,809,828,848,869,888,908,928,949,968,988,1008],"xSR":741.5,"ySR":573.95,"xT1":424.9,"yT1":0,"xT2":1058.1,"yT2":0,"toosoon":0,"cond_shown":"equaldotanddens","ratio_trial":750,"smaller_num":"15","larger_num":"20","correct_side":2,"subjID":"LauraCamilaRobayoRodriguez15","gender":"1","age":"9","school":"4"},{"start_time":1552069561601,"click_time":1552069562605,"finger_time":1552069562264,"fix_duration":634.9653543194026,"trial":53,"RT":663,"MT":341,"sideResp":1,"stimulus":"img/750/equaldotsize/L/9_Ratio_750_L_4_R_3.png","xmouse":[824,824,824,824,824,824,824,824,824,824,824,824,824,824,824,824,824,824,824,824,824,824,824,824,824,824,824,824,824,824,824,823,821,810,792,783,773,762,748,714,696,672,651,628,576,556,532,509,490,465,457],"ymouse":[609,609,609,609,609,609,609,609,609,609,609,609,609,609,609,609,609,609,609,609,609,609,609,609,609,609,609,609,609,609,609,609,601,572,532,516,500,480,456,398,369,336,309,282,235,216,191,162,138,102,89],"timestamp_mouse":[9,23,44,63,83,103,124,143,163,183,203,224,244,263,284,304,324,344,363,383,403,425,443,464,484,503,524,543,564,583,604,623,644,663,683,704,723,743,763,783,803,823,843,863,883,904,923,943,963,983,1004],"xSR":741.5,"ySR":573.95,"xT1":424.9,"yT1":0,"xT2":1058.1,"yT2":0,"toosoon":0,"cond_shown":"equaldotsize","ratio_trial":750,"smaller_num":"3","larger_num":"4","correct_side":1,"subjID":"LauraCamilaRobayoRodriguez15","gender":"1","age":"9","school":"4"},{"start_time":1552069563956,"click_time":1552069564905,"finger_time":1552069564405,"fix_duration":250,"trial":54,"RT":449,"MT":500,"sideResp":1,"stimulus":"img/500/randomdotsizeEA/L/13_Ratio_500_L_12_R_6.png","xmouse":[801,801,801,801,801,801,801,801,801,801,801,801,801,801,801,801,801,801,801,801,800,788,770,751,735,708,637,608,589,569,552,530,514,505,500,497,495,495,494,494,493,493,493,493,492,492,491,490],"ymouse":[650,650,650,650,650,650,650,650,650,650,650,650,650,650,650,650,650,650,650,647,641,602,555,523,497,456,355,316,288,260,234,196,169,156,148,141,135,134,132,129,127,121,118,116,112,109,104,97],"timestamp_mouse":[21,38,49,68,88,108,128,149,168,188,209,228,248,270,288,309,328,348,369,388,409,428,449,468,489,508,528,548,568,589,609,628,649,668,688,708,729,748,769,788,808,828,850,868,888,910,928,949],"xSR":741.5,"ySR":573.95,"xT1":424.9,"yT1":0,"xT2":1058.1,"yT2":0,"toosoon":0,"cond_shown":"randomdotsizeEA","ratio_trial":500,"smaller_num":"6","larger_num":"12","correct_side":1,"subjID":"LauraCamilaRobayoRodriguez15","gender":"1","age":"9","school":"4"},{"start_time":1552069566237,"click_time":1552069567584,"finger_time":1552069566725,"fix_duration":250,"trial":55,"RT":488,"MT":859,"sideResp":2,"stimulus":"img/250/equaldotsize/R/9_Ratio_250_L_3_R_12.png","xmouse":[768,768,768,768,768,768,768,768,768,768,768,768,768,768,768,768,768,768,769,770,771,775,789,796,807,819,831,877,903,936,962,978,997,1007,1015,1023,1033,1044,1048,1052,1053,1055,1058,1061,1066,1070,1072,1081,1084,1085,1086,1087,1089,1090,1090,1091,1091,1091,1091,1091,1091,1091,1091,1091,1091,1091,1092,1095],"ymouse":[618,618,618,618,618,618,618,618,618,618,618,618,618,618,618,618,618,618,618,617,616,611,593,583,570,553,534,461,416,357,319,295,257,240,226,215,202,184,178,171,167,163,156,150,144,136,132,118,113,110,108,107,105,103,102,102,101,101,101,101,101,101,101,101,101,101,100,96],"timestamp_mouse":[11,35,47,67,87,108,127,147,168,188,208,228,247,268,288,309,327,347,368,387,408,428,447,467,488,508,528,547,569,588,607,627,647,667,687,707,727,747,767,787,807,829,847,867,888,908,927,948,967,987,1007,1028,1048,1068,1087,1107,1127,1148,1167,1187,1207,1227,1248,1267,1288,1307,1327,1347],"xSR":741.5,"ySR":573.95,"xT1":424.9,"yT1":0,"xT2":1058.1,"yT2":0,"toosoon":0,"cond_shown":"equaldotsize","ratio_trial":250,"smaller_num":"3","larger_num":"12","correct_side":2,"subjID":"LauraCamilaRobayoRodriguez15","gender":"1","age":"9","school":"4"},{"start_time":1552069569015,"click_time":1552069570504,"finger_time":1552069569485,"fix_duration":469.7501780048831,"trial":56,"RT":470,"MT":1019,"sideResp":2,"stimulus":"img/750/equaldotsize/R/5_Ratio_750_L_15_R_20.png","xmouse":[791,791,791,791,791,791,791,791,791,791,791,791,791,791,791,791,791,791,791,791,791,793,800,806,823,824,824,824,795,780,767,747,729,702,696,689,677,670,664,657,652,648,643,636,635,635,634,634,631,629,625,620,616,610,608,608,607,607,606,606,606,606,609,636,664,716,784,896,951,1011,1023,1032,1040,1050,1075],"ymouse":[606,606,606,606,606,606,606,606,606,606,606,606,606,606,606,606,606,606,606,606,605,598,577,554,496,462,421,384,299,264,235,199,167,120,106,89,65,53,46,37,34,32,30,30,30,30,30,30,31,31,32,32,33,34,34,34,34,34,34,35,36,36,39,40,40,40,40,40,39,38,38,38,37,37,34],"timestamp_mouse":[12,30,50,70,89,110,129,150,169,189,210,229,250,270,289,309,329,349,370,389,409,430,449,470,489,509,529,550,570,589,609,629,649,670,689,709,730,749,769,790,809,829,849,870,889,909,930,950,970,989,1009,1029,1051,1070,1089,1109,1130,1149,1171,1189,1209,1230,1249,1270,1289,1310,1329,1350,1369,1389,1410,1430,1449,1471,1489],"xSR":741.5,"ySR":573.95,"xT1":424.9,"yT1":0,"xT2":1058.1,"yT2":0,"toosoon":0,"cond_shown":"equaldotsize","ratio_trial":750,"smaller_num":"15","larger_num":"20","correct_side":2,"subjID":"LauraCamilaRobayoRodriguez15","gender":"1","age":"9","school":"4"},{"start_time":1552069574312,"click_time":1552069575444,"finger_time":1552069575064,"fix_duration":686.3480085143566,"trial":57,"RT":752,"MT":380,"sideResp":2,"stimulus":"img/500/randomdotsizeEA/R/12_Ratio_500_L_1_R_2.png","xmouse":[815,815,815,815,815,815,815,815,815,815,815,815,815,815,815,815,815,815,815,815,815,815,815,815,815,815,815,815,815,815,815,815,815,815,821,826,835,843,857,915,943,964,983,998,1013,1017,1023,1030,1037,1047,1048,1048,1048,1049,1050,1053,1059],"ymouse":[670,670,670,670,670,670,670,670,670,670,670,670,670,670,670,670,670,670,670,670,670,670,670,670,670,670,670,670,670,670,670,670,670,663,643,624,594,552,505,350,288,234,191,146,105,96,82,69,58,43,42,40,40,40,39,38,37],"timestamp_mouse":[14,40,52,73,93,113,133,152,173,192,213,233,253,272,292,312,334,352,373,393,413,433,452,472,492,513,532,554,572,593,613,632,653,673,693,712,732,752,773,792,813,832,853,874,892,914,932,953,973,992,1012,1033,1052,1073,1092,1112,1132],"xSR":741.5,"ySR":573.95,"xT1":424.9,"yT1":0,"xT2":1058.1,"yT2":0,"toosoon":0,"cond_shown":"randomdotsizeEA","ratio_trial":500,"smaller_num":"1","larger_num":"2","correct_side":2,"subjID":"LauraCamilaRobayoRodriguez15","gender":"1","age":"9","school":"4"},{"start_time":1552069577647,"click_time":1552069578685,"finger_time":1552069578285,"fix_duration":1301.3106826728585,"trial":58,"RT":638,"MT":400,"sideResp":2,"stimulus":"img/250/equaldotanddens/R/12_Ratio_250_L_5_R_20.png","xmouse":[823,823,823,823,823,823,823,823,823,823,823,823,823,823,823,823,823,823,823,823,823,823,823,823,823,823,823,823,824,826,830,844,865,879,896,917,944,974,1025,1046,1057,1066,1072,1077,1080,1081,1081,1081,1082,1083,1086,1093],"ymouse":[605,605,605,605,605,605,605,605,605,605,605,605,605,605,605,605,605,605,605,605,605,605,602,599,598,597,596,593,590,587,579,556,519,497,470,435,388,335,226,189,169,157,142,128,124,121,121,121,117,116,108,90],"timestamp_mouse":[17,38,58,77,98,117,138,157,177,197,217,237,258,278,297,318,338,358,377,397,419,437,457,477,497,518,537,558,577,598,618,638,658,679,698,719,737,757,777,797,817,838,857,877,897,917,938,958,977,997,1017,1038],"xSR":741.5,"ySR":573.95,"xT1":424.9,"yT1":0,"xT2":1058.1,"yT2":0,"toosoon":0,"cond_shown":"equaldotanddens","ratio_trial":250,"smaller_num":"5","larger_num":"20","correct_side":2,"subjID":"LauraCamilaRobayoRodriguez15","gender":"1","age":"9","school":"4"},{"start_time":1552069580042,"click_time":1552069580804,"finger_time":1552069580424,"fix_duration":334.7737617460662,"trial":59,"RT":382,"MT":380,"sideResp":1,"stimulus":"img/750/equaldotanddens/L/10_Ratio_750_L_4_R_3.png","xmouse":[783,783,783,783,783,783,783,783,784,784,785,786,786,787,787,788,789,792,798,816,828,842,870,887,906,911,911,910,907,901,894,879,863,839,758,695,625,562,510],"ymouse":[626,626,626,626,626,626,626,626,626,626,626,626,626,625,624,620,615,605,592,562,538,513,465,434,384,361,349,337,324,309,298,281,264,244,193,160,131,112,97],"timestamp_mouse":[12,33,43,63,82,102,123,142,163,183,202,222,243,262,282,303,324,342,362,382,402,422,443,462,482,503,524,544,562,582,602,622,642,664,683,703,722,743,762],"xSR":741.5,"ySR":573.95,"xT1":424.9,"yT1":0,"xT2":1058.1,"yT2":0,"toosoon":0,"cond_shown":"equaldotanddens","ratio_trial":750,"smaller_num":"3","larger_num":"4","correct_side":1,"subjID":"LauraCamilaRobayoRodriguez15","gender":"1","age":"9","school":"4"},{"start_time":1552069582239,"click_time":1552069583326,"finger_time":1552069582864,"fix_duration":512.2210423244014,"trial":60,"RT":625,"MT":462,"sideResp":2,"stimulus":"img/750/equaldotanddens/R/7_Ratio_750_L_3_R_4.png","xmouse":[764,764,764,764,764,764,764,764,764,764,764,764,764,764,764,764,764,764,764,764,764,764,764,764,764,764,764,765,765,770,776,783,790,794,813,834,862,895,924,968,982,990,996,1001,1015,1022,1028,1034,1038,1042,1043,1043,1046,1050,1059],"ymouse":[633,633,633,633,633,633,633,633,633,633,633,633,633,633,633,633,633,633,633,633,633,633,633,633,633,633,633,631,627,607,592,570,557,544,505,470,431,380,332,249,204,178,156,134,93,75,62,51,46,40,39,39,39,39,39],"timestamp_mouse":[10,38,45,66,85,105,125,145,165,185,206,226,246,266,285,305,325,345,367,386,406,425,445,466,486,505,527,545,565,585,606,625,645,665,685,706,727,745,765,785,805,825,845,865,886,905,925,945,965,986,1005,1025,1045,1065,1086],"xSR":741.5,"ySR":573.95,"xT1":424.9,"yT1":0,"xT2":1058.1,"yT2":0,"toosoon":0,"cond_shown":"equaldotanddens","ratio_trial":750,"smaller_num":"3","larger_num":"4","correct_side":2,"subjID":"LauraCamilaRobayoRodriguez15","gender":"1","age":"9","school":"4"},{"start_time":1552069585859,"click_time":1552069586624,"finger_time":1552069586346,"fix_duration":1433.843959346393,"trial":61,"RT":487,"MT":278,"sideResp":2,"stimulus":"img/250/equaldotanddens/R/12_Ratio_250_L_5_R_20.png","xmouse":[827,827,827,827,827,827,827,827,827,827,827,827,827,827,827,827,827,827,827,827,827,827,827,827,833,839,843,851,880,898,929,959,986,1017,1027,1034,1043,1053,1079],"ymouse":[602,602,602,602,602,602,602,602,602,602,602,602,602,602,602,602,602,602,602,602,602,602,601,584,566,547,528,508,437,394,334,279,233,179,161,143,123,104,59],"timestamp_mouse":[13,35,45,65,85,105,127,146,165,185,207,226,246,265,286,306,326,346,366,386,405,426,445,465,487,506,525,545,565,585,605,625,645,666,685,705,725,746,765],"xSR":741.5,"ySR":573.95,"xT1":424.9,"yT1":0,"xT2":1058.1,"yT2":0,"toosoon":0,"cond_shown":"equaldotanddens","ratio_trial":250,"smaller_num":"5","larger_num":"20","correct_side":2,"subjID":"LauraCamilaRobayoRodriguez15","gender":"1","age":"9","school":"4"},{"start_time":1552069587855,"click_time":1552069588405,"finger_time":1552069588224,"fix_duration":250,"trial":62,"RT":369,"MT":181,"sideResp":2,"stimulus":"img/500/equaldotanddens/R/6_Ratio_500_L_9_R_18.png","xmouse":[804,804,804,804,804,804,804,804,804,804,804,804,804,804,805,805,807,812,827,842,863,891,922,1001,1037,1063,1075,1096],"ymouse":[630,630,630,627,626,626,625,625,625,625,624,624,624,622,620,619,613,604,567,537,495,445,392,263,209,166,134,85],"timestamp_mouse":[13,36,50,69,89,110,129,150,170,189,209,230,249,270,289,310,329,349,369,390,409,430,449,469,489,509,529,550],"xSR":741.5,"ySR":573.95,"xT1":424.9,"yT1":0,"xT2":1058.1,"yT2":0,"toosoon":0,"cond_shown":"equaldotanddens","ratio_trial":500,"smaller_num":"9","larger_num":"18","correct_side":2,"subjID":"LauraCamilaRobayoRodriguez15","gender":"1","age":"9","school":"4"},{"start_time":1552069589666,"click_time":1552069591165,"finger_time":1552069590084,"fix_duration":421.05292598544787,"trial":63,"RT":418,"MT":1081,"sideResp":1,"stimulus":"img/900/randomdotsizeEA/R/9_Ratio_900_L_18_R_20.png","xmouse":[768,768,768,768,768,769,769,769,769,769,769,769,771,772,774,777,779,781,793,805,819,834,848,895,914,943,966,984,1005,1011,1018,1024,1029,1039,1044,1047,1048,1048,1050,1050,1050,1050,1050,1050,1050,1050,1050,1049,1044,1031,1016,998,977,950,881,855,829,805,754,720,688,647,588,573,520,507,501,499,497,497,496,496,495,495,498],"ymouse":[643,643,643,643,642,642,642,642,642,642,642,642,641,639,635,630,624,618,596,581,562,545,530,481,455,413,369,333,282,258,229,198,172,135,119,109,106,104,100,100,100,100,100,100,100,100,100,100,103,106,106,106,106,106,106,107,112,115,126,134,139,145,148,148,146,142,139,137,135,133,131,127,120,102,93],"timestamp_mouse":[18,41,58,79,99,118,139,159,178,198,218,239,259,279,298,318,340,358,378,398,418,439,460,478,499,518,539,558,578,598,618,640,660,678,698,718,738,759,778,799,818,838,858,878,898,919,939,958,978,998,1019,1039,1059,1078,1099,1118,1138,1159,1178,1198,1218,1238,1259,1278,1299,1318,1339,1359,1378,1398,1419,1439,1459,1478,1499],"xSR":741.5,"ySR":573.95,"xT1":424.9,"yT1":0,"xT2":1058.1,"yT2":0,"toosoon":0,"cond_shown":"randomdotsizeEA","ratio_trial":900,"smaller_num":"18","larger_num":"20","correct_side":2,"subjID":"LauraCamilaRobayoRodriguez15","gender":"1","age":"9","school":"4"},{"start_time":1552069595883,"click_time":1552069597005,"finger_time":1552069596746,"fix_duration":1276.0019507079364,"trial":64,"RT":863,"MT":259,"sideResp":2,"stimulus":"img/750/randomdotsizeEA/R/12_Ratio_750_L_3_R_4.png","xmouse":[810,810,810,810,810,810,810,810,810,810,810,810,810,810,810,810,810,810,810,810,810,810,810,810,810,810,810,810,810,810,810,810,810,811,811,811,811,811,812,814,816,821,826,835,840,844,846,849,854,875,890,907,936,961,1022,1051,1070],"ymouse":[632,632,632,632,632,632,632,632,632,632,632,632,632,632,632,632,632,632,632,632,632,632,632,632,632,632,632,632,632,632,632,632,632,632,630,629,628,626,623,616,611,600,589,566,554,545,535,521,505,454,419,378,317,269,168,126,92],"timestamp_mouse":[10,22,41,62,81,102,121,141,163,182,202,222,241,263,281,301,322,342,361,382,402,422,441,462,481,501,522,542,562,581,601,622,641,662,682,701,721,741,761,781,802,821,841,863,881,902,921,941,962,981,1001,1021,1042,1063,1081,1102,1122],"xSR":741.5,"ySR":573.95,"xT1":424.9,"yT1":0,"xT2":1058.1,"yT2":0,"toosoon":0,"cond_shown":"randomdotsizeEA","ratio_trial":750,"smaller_num":"3","larger_num":"4","correct_side":2,"subjID":"LauraCamilaRobayoRodriguez15","gender":"1","age":"9","school":"4"},{"start_time":1552069600166,"click_time":1552069602984,"finger_time":1552069602244,"fix_duration":1298.7952580912165,"trial":65,"RT":2078,"MT":740,"sideResp":2,"stimulus":"img/500/equaldotanddens/R/12_Ratio_500_L_1_R_2.png","xmouse":[801,801,801,801,801,801,801,801,801,801,801,801,801,801,801,801,801,801,801,801,801,801,801,801,801,801,801,801,801,801,801,801,801,801,801,801,801,801,801,801,801,801,801,801,801,801,801,801,801,801,801,801,801,801,801,801,801,801,801,801,801,801,801,803,806,808,809,810,810,810,810,810,810,810,810,811,812,813,813,813,813,813,813,813,813,813,813,813,813,813,813,813,813,813,813,813,813,813,813,813,813,813,813,813,815,818,830,838,852,864,887,895,904,910,915,929,940,949,963,976,1020,1042,1063,1082,1109,1123,1136,1138,1139,1139,1139,1139,1139,1139,1139,1139,1138,1134,1132,1131,1130,1127],"ymouse":[644,644,644,644,644,644,644,644,644,644,644,644,644,644,644,644,644,644,644,644,644,644,644,644,644,644,644,644,644,644,644,644,644,644,644,644,644,644,644,644,644,644,644,644,644,644,644,644,644,644,644,644,644,644,644,644,644,644,644,644,644,644,644,642,640,639,637,636,636,636,636,636,636,636,634,624,620,617,615,615,615,615,615,615,615,615,615,615,615,615,615,615,615,615,615,615,615,615,615,615,615,610,604,588,557,535,492,468,437,405,355,333,315,303,290,271,260,250,241,231,206,194,181,166,142,131,118,115,114,112,112,112,112,112,112,111,108,105,104,102,100,94],"timestamp_mouse":[1,19,37,58,78,98,119,138,159,179,198,219,238,258,279,299,319,339,359,379,398,418,438,458,479,498,519,539,558,579,599,618,639,658,679,698,718,738,759,778,800,819,839,859,879,898,919,938,958,979,999,1018,1039,1059,1079,1099,1119,1139,1159,1180,1199,1218,1239,1259,1278,1298,1319,1339,1358,1379,1398,1419,1438,1459,1479,1498,1519,1539,1558,1578,1599,1618,1638,1658,1678,1699,1718,1739,1759,1779,1798,1819,1838,1859,1878,1899,1918,1938,1959,1979,1999,2018,2038,2059,2078,2098,2118,2138,2158,2179,2199,2218,2238,2258,2278,2298,2318,2338,2358,2378,2399,2418,2438,2458,2479,2498,2519,2538,2558,2579,2599,2618,2639,2660,2678,2698,2718,2738,2760,2778,2799,2818],"xSR":741.5,"ySR":573.95,"xT1":424.9,"yT1":0,"xT2":1058.1,"yT2":0,"toosoon":0,"cond_shown":"equaldotanddens","ratio_trial":500,"smaller_num":"1","larger_num":"2","correct_side":2,"subjID":"LauraCamilaRobayoRodriguez15","gender":"1","age":"9","school":"4"},{"start_time":1552069604498,"click_time":1552069605485,"finger_time":1552069604985,"fix_duration":351.9589694058696,"trial":66,"RT":487,"MT":500,"sideResp":1,"stimulus":"img/900/randomdotsizeEA/R/12_Ratio_900_L_18_R_20.png","xmouse":[800,800,800,800,800,800,798,796,795,793,793,793,793,793,793,793,793,793,793,793,793,793,793,793,793,793,791,788,781,774,762,745,725,696,609,560,520,485,465,434,423,416,408,406,405,403,403,403,410,438],"ymouse":[636,636,636,636,636,636,635,632,630,627,626,625,624,624,623,622,618,615,612,606,603,598,591,581,556,538,523,508,474,454,429,408,393,374,335,311,297,287,282,276,274,273,272,272,270,266,237,208,154,48],"timestamp_mouse":[12,35,47,66,86,107,126,146,168,186,206,226,246,266,286,306,326,346,366,386,407,427,447,467,487,506,526,546,567,586,606,626,646,666,686,707,726,746,766,786,807,826,847,867,886,906,926,947,966,986],"xSR":741.5,"ySR":573.95,"xT1":424.9,"yT1":0,"xT2":1058.1,"yT2":0,"toosoon":0,"cond_shown":"randomdotsizeEA","ratio_trial":900,"smaller_num":"18","larger_num":"20","correct_side":2,"subjID":"LauraCamilaRobayoRodriguez15","gender":"1","age":"9","school":"4"},{"start_time":1552069607919,"click_time":1552069609144,"finger_time":1552069608484,"fix_duration":933.9485761292704,"trial":67,"RT":565,"MT":660,"sideResp":2,"stimulus":"img/750/randomdotsizeEA/L/10_Ratio_750_L_4_R_3.png","xmouse":[813,813,813,813,813,813,813,813,813,813,813,813,813,813,813,813,813,813,813,813,813,814,819,827,830,831,835,836,838,838,838,838,837,829,825,821,817,815,815,820,831,848,872,940,962,977,983,983,984,984,984,984,984,984,985,985,986,989,1004,1020,1040,1065],"ymouse":[636,636,636,636,636,636,636,636,636,636,636,636,636,636,636,636,636,636,636,636,636,631,624,612,605,600,591,584,573,568,562,553,534,508,494,479,465,451,434,393,368,344,316,239,215,197,187,181,173,170,168,165,162,152,148,145,144,140,121,103,88,70],"timestamp_mouse":[12,36,46,66,86,105,126,145,165,186,205,225,246,266,285,305,325,346,366,385,405,425,445,465,486,506,526,545,565,585,605,625,646,666,685,705,726,745,765,785,806,825,846,865,887,906,926,946,965,985,1006,1025,1046,1065,1086,1105,1126,1145,1165,1185,1206,1225],"xSR":741.5,"ySR":573.95,"xT1":424.9,"yT1":0,"xT2":1058.1,"yT2":0,"toosoon":0,"cond_shown":"randomdotsizeEA","ratio_trial":750,"smaller_num":"3","larger_num":"4","correct_side":1,"subjID":"LauraCamilaRobayoRodriguez15","gender":"1","age":"9","school":"4"},{"start_time":1552069612354,"click_time":1552069613586,"finger_time":1552069612924,"fix_duration":389.7432160301485,"trial":68,"RT":570,"MT":662,"sideResp":1,"stimulus":"img/900/equaldotanddens/L/10_Ratio_900_L_20_R_18.png","xmouse":[816,816,816,816,816,816,816,816,816,816,816,816,816,816,816,816,816,816,816,816,816,816,816,816,816,814,813,810,808,805,799,788,759,740,720,703,671,659,649,639,627,614,611,607,604,601,598,596,594,588,584,576,555,543,532,523,513,495,492,485,480,468],"ymouse":[586,586,586,586,586,586,586,586,586,586,586,586,586,586,586,586,586,586,586,586,586,586,586,586,586,585,585,578,572,563,539,516,478,464,450,438,414,405,396,388,375,361,357,353,349,345,342,341,339,335,329,317,286,265,246,225,207,165,158,137,124,96],"timestamp_mouse":[21,37,51,70,91,110,130,150,171,190,211,231,251,270,290,310,331,351,371,390,411,430,451,471,491,510,530,550,570,590,610,630,651,671,691,710,731,750,770,790,811,831,850,870,890,910,931,949,971,990,1010,1030,1050,1070,1090,1110,1130,1149,1171,1190,1210,1232],"xSR":741.5,"ySR":573.95,"xT1":424.9,"yT1":0,"xT2":1058.1,"yT2":0,"toosoon":0,"cond_shown":"equaldotanddens","ratio_trial":900,"smaller_num":"18","larger_num":"20","correct_side":1,"subjID":"LauraCamilaRobayoRodriguez