[{"start_time":1552313034339,"click_time":1552313037634,"finger_time":1552313034355,"fix_duration":941.8142465115847,"trial":0,"RT":16,"MT":3279,"sideResp":2,"stimulus":[],"xmouse":[788,788,788,788,788,788,788,788,788,788,788,788,788,788,788,788,788,788,788,788,788,788,788,788,788,788,788,788,788,788,788,788,788,788,788,788,788,788,788,788,788,788,788,788,788,788,788,788,788,788,788,788,788,788,788,788,788,788,788,788,788,788,788,788,788,788,788,788,788,788,788,788,788,788,788,788,788,788,788,788,788,788,788,788,788,788,788,788,788,788,788,788,788,788,788,788,788,788,788,788,788,788,788,788,788,788,788,788,788,788,788,788,788,788,788,788,788,788,788,788,788,788,788,788,788,788,788,788,788,790,792,793,796,800,805,816,827,837,848,863,887,896,905,914,933,942,950,952,956,961,965,968,972,975,981,984,990,994,1000,1003,1017,1028,1045,1061,1075],"ymouse":[567,567,567,567,567,567,567,567,567,567,567,567,567,567,567,567,567,567,567,567,567,567,567,567,567,567,567,567,567,567,567,567,567,567,567,567,567,567,567,567,567,567,567,567,567,567,567,567,567,567,567,567,567,567,567,567,567,567,567,567,567,567,567,567,567,567,567,567,567,567,567,567,567,567,567,567,567,567,567,567,567,567,567,567,567,567,567,567,567,567,567,567,567,567,567,567,567,567,567,567,567,567,567,567,567,567,567,567,567,567,567,567,567,567,567,567,567,567,567,567,567,567,567,567,567,567,567,567,566,560,558,556,551,546,541,526,509,493,476,455,422,405,389,373,343,330,319,315,308,296,288,280,271,263,247,239,224,214,205,197,169,150,126,105,83],"timestamp_mouse":[16,35,56,75,95,115,135,155,175,196,215,236,256,276,295,316,336,355,376,395,416,435,456,475,495,514,535,556,575,596,616,635,655,675,696,715,735,756,776,795,815,836,856,875,896,916,935,955,976,995,1014,1036,1055,1076,1096,1116,1136,1155,1175,1196,1215,1236,1256,1275,1295,1315,1335,1356,1376,1396,1415,1435,1456,1476,1496,1516,1536,1556,1576,1596,1615,1636,1654,1675,1696,1716,1735,1756,1775,1796,1815,1836,1856,1876,1895,1916,1935,1955,1976,1996,2016,2035,2055,2076,2094,2116,2136,2156,2175,2196,2214,2235,2254,2275,2296,2316,2336,2356,2376,2396,2415,2435,2455,2476,2495,2515,2536,2555,2575,2596,2615,2635,2655,2676,2695,2716,2735,2755,2775,2796,2816,2835,2855,2876,2895,2915,2936,2956,2976,2995,3015,3035,3055,3076,3096,3115,3135,3156,3176,3195,3215,3235,3256,3275,3295],"xSR":741.5,"ySR":501.8,"xT1":424.9,"yT1":0,"xT2":1058.1,"yT2":0,"toosoon":0,"cond_shown":"Congruent","ratio_trial":300,"L_num":18,"L_den":20,"R_num":9,"R_den":15,"correct_side":1,"subjID":"Laura marcela rodriguez borda 13","gender":"1","age":"8 años","school":"4D","test":{"fix_dur":[250,1500],"timestim":1000,"targets_dim":[100,100],"targets_relative_coord":[0.3,0.7],"size_stim":[880,420],"start_dim":[100,100],"size_start":[300,300],"size_fix":60,"samplingrate":20,"img_types":["Congruent","Incongruent"],"ratios":[100,200,300],"rep_conds":19,"nTrials":120,"trials_to_rest":500,"Trials_order":[22,46,7,71,94,19,28,67,56,80,54,32,57,41,85,64,117,33,102,93,66,53,49,44,34,87,100,5,62,116,83,84,99,23,8,72,89,78,91,36,103,101,73,82,20,106,31,88,118,21,51,3,55,86,75,29,43,52,95,37,15,10,109,12,96,2,39,65,98,59,105,30,1,9,60,114,70,97,110,68,112,108,25,76,115,107,63,79,45,111,74,16,17,24,58,69,27,38,119,81,35,47,104,13,26,90,18,4,50,11,0,77,48,6,42,92,40,14,61,113],"cond_shown":["Congruent","Congruent","Incongruent","Incongruent","Congruent","Incongruent","Congruent","Incongruent","Congruent","Congruent","Congruent","Congruent","Incongruent","Incongruent","Incongruent","Congruent","Incongruent","Incongruent","Congruent","Incongruent","Congruent","Incongruent","Incongruent","Congruent","Congruent","Incongruent","Congruent","Incongruent","Congruent","Congruent","Incongruent","Congruent","Incongruent","Incongruent","Congruent","Congruent","Incongruent","Congruent","Incongruent","Congruent","Incongruent","Incongruent","Incongruent","Congruent","Congruent","Congruent","Incongruent","Congruent","Congruent","Incongruent","Incongruent","Incongruent","Incongruent","Congruent","Incongruent","Incongruent","Incongruent","Congruent","Incongruent","Incongruent","Incongruent","Congruent","Incongruent","Congruent","Congruent","Congruent","Incongruent","Incongruent","Congruent","Incongruent","Incongruent","Congruent","Incongruent","Incongruent","Congruent","Congruent","Congruent","Incongruent","Congruent","Congruent","Congruent","Congruent","Incongruent","Congruent","Incongruent","Incongruent","Incongruent","Incongruent","Incongruent","Incongruent","Congruent","Congruent","Incongruent","Congruent","Congruent","Incongruent","Incongruent","Congruent","Incongruent","Incongruent","Incongruent","Incongruent","Congruent","Incongruent","Congruent","Congruent","Congruent","Congruent","Congruent","Incongruent","Congruent","Incongruent","Congruent","Congruent","Congruent","Congruent","Congruent","Congruent","Incongruent","Incongruent"],"ratio_trial":[300,300,100,300,300,100,300,100,200,200,100,200,200,300,100,300,200,200,100,200,100,300,100,200,300,200,300,300,200,200,300,100,200,300,200,100,300,100,100,100,100,300,100,300,200,300,100,300,300,200,200,200,100,200,200,300,100,300,300,100,200,300,100,100,100,200,200,300,200,300,200,100,100,200,100,100,300,100,200,200,300,100,100,300,100,300,200,100,200,200,200,300,300,100,300,200,200,200,300,200,300,300,200,100,200,100,100,300,200,300,100,300,100,100,100,200,300,200,100,300],"left_num":[18,20,6,2,24,9,11,6,8,15,11,1,4,8,3,3,14,4,1,6,7,4,4,6,5,14,3,13,11,11,4,2,4,4,1,10,4,7,9,7,9,3,2,1,8,3,6,11,20,4,14,14,10,9,14,1,12,4,4,9,7,24,3,7,4,4,7,4,1,13,3,11,6,7,1,15,24,3,3,8,11,6,8,11,6,4,14,9,4,7,16,1,4,6,4,7,4,5,13,14,13,8,21,10,11,4,15,1,6,4,7,3,1,7,1,21,9,8,3,13],"right_num":[9,5,11,6,8,14,1,7,2,4,4,21,1,9,4,11,12,6,3,3,15,2,8,7,7,12,2,12,3,3,2,6,14,2,21,3,6,9,20,9,6,4,6,7,3,4,7,1,5,14,12,12,8,13,6,3,2,13,2,14,8,8,8,9,15,3,6,2,21,12,11,4,11,4,18,13,8,7,7,2,2,5,1,4,3,2,6,6,14,14,9,6,8,5,2,6,6,14,12,6,12,9,2,9,3,6,13,11,3,2,9,4,18,15,3,2,3,7,11,12],"left_den":[20,25,10,4,30,15,22,10,15,25,22,2,30,10,6,12,30,5,2,20,14,20,8,12,25,30,6,26,22,22,20,5,6,20,2,25,5,14,10,14,18,6,4,20,15,6,10,22,25,6,30,30,25,30,30,2,30,20,20,15,10,30,5,14,10,10,15,20,2,26,4,22,10,15,2,25,30,9,10,15,22,20,20,22,12,20,30,18,6,10,30,5,5,20,5,15,5,10,26,30,26,10,30,25,22,8,25,5,15,20,14,6,2,14,2,30,10,15,5,26],"right_den":[15,10,22,30,16,28,5,14,6,10,10,30,3,18,10,20,18,10,5,6,25,4,20,10,14,18,10,15,10,10,4,12,30,4,30,10,12,15,25,15,10,20,15,20,9,5,14,5,10,30,18,18,16,26,9,15,4,26,4,28,16,16,16,15,30,15,9,4,30,15,20,10,22,6,30,26,16,30,14,6,10,25,2,20,5,4,9,10,30,28,27,12,16,25,4,9,10,20,15,9,15,18,4,18,10,10,26,22,15,4,15,20,30,25,5,4,5,21,22,15],"correct_side":[1,1,1,1,1,1,1,1,1,1,1,2,2,1,1,2,2,1,2,2,2,2,1,2,2,2,1,2,1,1,2,2,1,2,2,1,1,2,1,2,2,1,1,2,1,2,1,1,1,1,2,2,2,2,2,1,2,2,2,1,1,1,1,2,2,1,2,2,2,2,1,1,1,2,2,1,1,1,2,1,1,1,2,1,2,2,2,2,1,1,1,2,1,1,1,2,1,2,2,2,2,1,1,2,1,2,1,2,1,2,2,1,2,2,2,1,1,1,1,2],"img_shown":["img2/300/Congruent/L/C_Dist_300_LN_18_LD_20_RN_9_RD_15_0.png","img2/300/Congruent/L/C_Dist_300_LN_20_LD_25_RN_5_RD_10_0.png","img2/100/Incongruent/L/I_Dist_100_LN_6_LD_10_RN_11_RD_22_0.png","img2/300/Incongruent/L/I_Dist_300_LN_2_LD_4_RN_6_RD_30_0.png","img2/300/Congruent/L/C_Dist_300_LN_24_LD_30_RN_8_RD_16_0.png","img2/100/Incongruent/L/I_Dist_100_LN_9_LD_15_RN_14_RD_28_0.png","img2/300/Congruent/L/C_Dist_300_LN_11_LD_22_RN_1_RD_5_0.png","img2/100/Incongruent/L/I_Dist_100_LN_6_LD_10_RN_7_RD_14_0.png","img2/200/Congruent/L/C_Dist_200_LN_8_LD_15_RN_2_RD_6_0.png","img2/200/Congruent/L/C_Dist_200_LN_15_LD_25_RN_4_RD_10_0.png","img2/100/Congruent/L/C_Dist_100_LN_11_LD_22_RN_4_RD_10_0.png","img2/200/Congruent/R/C_Dist_200_LN_1_LD_2_RN_21_RD_30_1.png","img2/200/Incongruent/R/I_Dist_200_LN_4_LD_30_RN_1_RD_3_1.png","img2/300/Incongruent/L/I_Dist_300_LN_8_LD_10_RN_9_RD_18_0.png","img2/100/Incongruent/L/I_Dist_100_LN_3_LD_6_RN_4_RD_10_0.png","img2/300/Congruent/R/C_Dist_300_LN_3_LD_12_RN_11_RD_20_1.png","img2/200/Incongruent/R/I_Dist_200_LN_14_LD_30_RN_12_RD_18_1.png","img2/200/Incongruent/L/I_Dist_200_LN_4_LD_5_RN_6_RD_10_0.png","img2/100/Congruent/R/C_Dist_100_LN_1_LD_2_RN_3_RD_5_1.png","img2/200/Incongruent/R/I_Dist_200_LN_6_LD_20_RN_3_RD_6_1.png","img2/100/Congruent/R/C_Dist_100_LN_7_LD_14_RN_15_RD_25_1.png","img2/300/Incongruent/R/I_Dist_300_LN_4_LD_20_RN_2_RD_4_1.png","img2/100/Incongruent/L/I_Dist_100_LN_4_LD_8_RN_8_RD_20_0.png","img2/200/Congruent/R/C_Dist_200_LN_6_LD_12_RN_7_RD_10_1.png","img2/300/Congruent/R/C_Dist_300_LN_5_LD_25_RN_7_RD_14_1.png","img2/200/Incongruent/R/I_Dist_200_LN_14_LD_30_RN_12_RD_18_1.png","img2/300/Congruent/L/C_Dist_300_LN_3_LD_6_RN_2_RD_10_0.png","img2/300/Incongruent/R/I_Dist_300_LN_13_LD_26_RN_12_RD_15_1.png","img2/200/Congruent/L/C_Dist_200_LN_11_LD_22_RN_3_RD_10_0.png","img2/200/Congruent/L/C_Dist_200_LN_11_LD_22_RN_3_RD_10_0.png","img2/300/Incongruent/R/I_Dist_300_LN_4_LD_20_RN_2_RD_4_1.png","img2/100/Congruent/R/C_Dist_100_LN_2_LD_5_RN_6_RD_12_1.png","img2/200/Incongruent/L/I_Dist_200_LN_4_LD_6_RN_14_RD_30_0.png","img2/300/Incongruent/R/I_Dist_300_LN_4_LD_20_RN_2_RD_4_1.png","img2/200/Congruent/R/C_Dist_200_LN_1_LD_2_RN_21_RD_30_1.png","img2/100/Congruent/L/C_Dist_100_LN_10_LD_25_RN_3_RD_10_0.png","img2/300/Incongruent/L/I_Dist_300_LN_4_LD_5_RN_6_RD_12_0.png","img2/100/Congruent/R/C_Dist_100_LN_7_LD_14_RN_9_RD_15_1.png","img2/100/Incongruent/L/I_Dist_100_LN_9_LD_10_RN_20_RD_25_0.png","img2/100/Congruent/R/C_Dist_100_LN_7_LD_14_RN_9_RD_15_1.png","img2/100/Incongruent/R/I_Dist_100_LN_9_LD_18_RN_6_RD_10_1.png","img2/300/Incongruent/L/I_Dist_300_LN_3_LD_6_RN_4_RD_20_0.png","img2/100/Incongruent/L/I_Dist_100_LN_2_LD_4_RN_6_RD_15_0.png","img2/300/Congruent/R/C_Dist_300_LN_1_LD_20_RN_7_RD_20_1.png","img2/200/Congruent/L/C_Dist_200_LN_8_LD_15_RN_3_RD_9_0.png","img2/300/Congruent/R/C_Dist_300_LN_3_LD_6_RN_4_RD_5_1.png","img2/100/Incongruent/L/I_Dist_100_LN_6_LD_10_RN_7_RD_14_0.png","img2/300/Congruent/L/C_Dist_300_LN_11_LD_22_RN_1_RD_5_0.png","img2/300/Congruent/L/C_Dist_300_LN_20_LD_25_RN_5_RD_10_0.png","img2/200/Incongruent/L/I_Dist_200_LN_4_LD_6_RN_14_RD_30_0.png","img2/200/Incongruent/R/I_Dist_200_LN_14_LD_30_RN_12_RD_18_1.png","img2/200/Incongruent/R/I_Dist_200_LN_14_LD_30_RN_12_RD_18_1.png","img2/100/Incongruent/R/I_Dist_100_LN_10_LD_25_RN_8_RD_16_1.png","img2/200/Congruent/R/C_Dist_200_LN_9_LD_30_RN_13_RD_26_1.png","img2/200/Incongruent/R/I_Dist_200_LN_14_LD_30_RN_6_RD_9_1.png","img2/300/Incongruent/L/I_Dist_300_LN_1_LD_2_RN_3_RD_15_0.png","img2/100/Incongruent/R/I_Dist_100_LN_12_LD_30_RN_2_RD_4_1.png","img2/300/Congruent/R/C_Dist_300_LN_4_LD_20_RN_13_RD_26_1.png","img2/300/Incongruent/R/I_Dist_300_LN_4_LD_20_RN_2_RD_4_1.png","img2/100/Incongruent/L/I_Dist_100_LN_9_LD_15_RN_14_RD_28_0.png","img2/200/Incongruent/L/I_Dist_200_LN_7_LD_10_RN_8_RD_16_0.png","img2/300/Congruent/L/C_Dist_300_LN_24_LD_30_RN_8_RD_16_0.png","img2/100/Incongruent/L/I_Dist_100_LN_3_LD_5_RN_8_RD_16_0.png","img2/100/Congruent/R/C_Dist_100_LN_7_LD_14_RN_9_RD_15_1.png","img2/100/Congruent/R/C_Dist_100_LN_4_LD_10_RN_15_RD_30_1.png","img2/200/Congruent/L/C_Dist_200_LN_4_LD_10_RN_3_RD_15_0.png","img2/200/Incongruent/R/I_Dist_200_LN_7_LD_15_RN_6_RD_9_1.png","img2/300/Incongruent/R/I_Dist_300_LN_4_LD_20_RN_2_RD_4_1.png","img2/200/Congruent/R/C_Dist_200_LN_1_LD_2_RN_21_RD_30_1.png","img2/300/Incongruent/R/I_Dist_300_LN_13_LD_26_RN_12_RD_15_1.png","img2/200/Incongruent/L/I_Dist_200_LN_3_LD_4_RN_11_RD_20_0.png","img2/100/Congruent/L/C_Dist_100_LN_11_LD_22_RN_4_RD_10_0.png","img2/100/Incongruent/L/I_Dist_100_LN_6_LD_10_RN_11_RD_22_0.png","img2/200/Incongruent/R/I_Dist_200_LN_7_LD_15_RN_4_RD_6_1.png","img2/100/Congruent/R/C_Dist_100_LN_1_LD_2_RN_18_RD_30_1.png","img2/100/Congruent/L/C_Dist_100_LN_15_LD_25_RN_13_RD_26_0.png","img2/300/Congruent/L/C_Dist_300_LN_24_LD_30_RN_8_RD_16_0.png","img2/100/Incongruent/L/I_Dist_100_LN_3_LD_9_RN_7_RD_30_0.png","img2/200/Congruent/R/C_Dist_200_LN_3_LD_10_RN_7_RD_14_1.png","img2/200/Congruent/L/C_Dist_200_LN_8_LD_15_RN_2_RD_6_0.png","img2/300/Congruent/L/C_Dist_300_LN_11_LD_22_RN_2_RD_10_0.png","img2/100/Congruent/L/C_Dist_100_LN_6_LD_20_RN_5_RD_25_0.png","img2/100/Incongruent/R/I_Dist_100_LN_8_LD_20_RN_1_RD_2_1.png","img2/300/Congruent/L/C_Dist_300_LN_11_LD_22_RN_4_RD_20_0.png","img2/100/Incongruent/R/I_Dist_100_LN_6_LD_12_RN_3_RD_5_1.png","img2/300/Incongruent/R/I_Dist_300_LN_4_LD_20_RN_2_RD_4_1.png","img2/200/Incongruent/R/I_Dist_200_LN_14_LD_30_RN_6_RD_9_1.png","img2/100/Incongruent/R/I_Dist_100_LN_9_LD_18_RN_6_RD_10_1.png","img2/200/Incongruent/L/I_Dist_200_LN_4_LD_6_RN_14_RD_30_0.png","img2/200/Incongruent/L/I_Dist_200_LN_7_LD_10_RN_14_RD_28_0.png","img2/200/Congruent/L/C_Dist_200_LN_16_LD_30_RN_9_RD_27_0.png","img2/300/Congruent/R/C_Dist_300_LN_1_LD_5_RN_6_RD_12_1.png","img2/300/Incongruent/L/I_Dist_300_LN_4_LD_5_RN_8_RD_16_0.png","img2/100/Congruent/L/C_Dist_100_LN_6_LD_20_RN_5_RD_25_0.png","img2/300/Congruent/L/C_Dist_300_LN_4_LD_5_RN_2_RD_4_0.png","img2/200/Incongruent/R/I_Dist_200_LN_7_LD_15_RN_6_RD_9_1.png","img2/200/Incongruent/L/I_Dist_200_LN_4_LD_5_RN_6_RD_10_0.png","img2/200/Congruent/R/C_Dist_200_LN_5_LD_10_RN_14_RD_20_1.png","img2/300/Incongruent/R/I_Dist_300_LN_13_LD_26_RN_12_RD_15_1.png","img2/200/Incongruent/R/I_Dist_200_LN_14_LD_30_RN_6_RD_9_1.png","img2/300/Incongruent/R/I_Dist_300_LN_13_LD_26_RN_12_RD_15_1.png","img2/300/Incongruent/L/I_Dist_300_LN_8_LD_10_RN_9_RD_18_0.png","img2/200/Congruent/L/C_Dist_200_LN_21_LD_30_RN_2_RD_4_0.png","img2/100/Incongruent/R/I_Dist_100_LN_10_LD_25_RN_9_RD_18_1.png","img2/200/Congruent/L/C_Dist_200_LN_11_LD_22_RN_3_RD_10_0.png","img2/100/Congruent/R/C_Dist_100_LN_4_LD_8_RN_6_RD_10_1.png","img2/100/Congruent/L/C_Dist_100_LN_15_LD_25_RN_13_RD_26_0.png","img2/300/Congruent/R/C_Dist_300_LN_1_LD_5_RN_11_RD_22_1.png","img2/200/Congruent/L/C_Dist_200_LN_6_LD_15_RN_3_RD_15_0.png","img2/300/Incongruent/R/I_Dist_300_LN_4_LD_20_RN_2_RD_4_1.png","img2/100/Congruent/R/C_Dist_100_LN_7_LD_14_RN_9_RD_15_1.png","img2/300/Incongruent/L/I_Dist_300_LN_3_LD_6_RN_4_RD_20_0.png","img2/100/Congruent/R/C_Dist_100_LN_1_LD_2_RN_18_RD_30_1.png","img2/100/Congruent/R/C_Dist_100_LN_7_LD_14_RN_15_RD_25_1.png","img2/100/Congruent/R/C_Dist_100_LN_1_LD_2_RN_3_RD_5_1.png","img2/200/Congruent/L/C_Dist_200_LN_21_LD_30_RN_2_RD_4_0.png","img2/300/Congruent/L/C_Dist_300_LN_9_LD_10_RN_3_RD_5_0.png","img2/200/Congruent/L/C_Dist_200_LN_8_LD_15_RN_7_RD_21_0.png","img2/100/Incongruent/L/I_Dist_100_LN_3_LD_5_RN_11_RD_22_0.png","img2/300/Incongruent/R/I_Dist_300_LN_13_LD_26_RN_12_RD_15_1.png"],"dist100_C":[["C_Dist_100_LN_10_LD_25_RN_3_RD_10_0.png","C_Dist_100_LN_11_LD_22_RN_4_RD_10_0.png","C_Dist_100_LN_11_LD_22_RN_6_RD_15_0.png","C_Dist_100_LN_15_LD_25_RN_13_RD_26_0.png","C_Dist_100_LN_3_LD_6_RN_2_RD_5_0.png","C_Dist_100_LN_6_LD_20_RN_5_RD_25_0.png","C_Dist_100_LN_8_LD_16_RN_2_RD_5_0.png","C_Dist_100_LN_9_LD_15_RN_8_RD_16_0.png"],["C_Dist_100_LN_1_LD_2_RN_18_RD_30_1.png","C_Dist_100_LN_1_LD_2_RN_3_RD_5_1.png","C_Dist_100_LN_12_LD_30_RN_13_RD_26_1.png","C_Dist_100_LN_2_LD_5_RN_11_RD_22_1.png","C_Dist_100_LN_2_LD_5_RN_6_RD_12_1.png","C_Dist_100_LN_3_LD_20_RN_4_RD_16_1.png","C_Dist_100_LN_4_LD_10_RN_15_RD_30_1.png","C_Dist_100_LN_4_LD_8_RN_6_RD_10_1.png","C_Dist_100_LN_6_LD_12_RN_15_RD_25_1.png","C_Dist_100_LN_7_LD_14_RN_15_RD_25_1.png","C_Dist_100_LN_7_LD_14_RN_9_RD_15_1.png"]],"dist100_I":[["I_Dist_100_LN_1_LD_2_RN_8_RD_20_0.png","I_Dist_100_LN_2_LD_4_RN_6_RD_15_0.png","I_Dist_100_LN_2_LD_4_RN_8_RD_20_0.png","I_Dist_100_LN_3_LD_5_RN_11_RD_22_0.png","I_Dist_100_LN_3_LD_5_RN_8_RD_16_0.png","I_Dist_100_LN_3_LD_6_RN_4_RD_10_0.png","I_Dist_100_LN_3_LD_9_RN_7_RD_30_0.png","I_Dist_100_LN_4_LD_8_RN_8_RD_20_0.png","I_Dist_100_LN_6_LD_10_RN_11_RD_22_0.png","I_Dist_100_LN_6_LD_10_RN_13_RD_26_0.png","I_Dist_100_LN_6_LD_10_RN_7_RD_14_0.png","I_Dist_100_LN_9_LD_10_RN_20_RD_25_0.png","I_Dist_100_LN_9_LD_15_RN_13_RD_26_0.png","I_Dist_100_LN_9_LD_15_RN_14_RD_28_0.png"],["I_Dist_100_LN_10_LD_25_RN_8_RD_16_1.png","I_Dist_100_LN_10_LD_25_RN_9_RD_18_1.png","I_Dist_100_LN_11_LD_22_RN_9_RD_15_1.png","I_Dist_100_LN_12_LD_24_RN_9_RD_15_1.png","I_Dist_100_LN_12_LD_30_RN_2_RD_4_1.png","I_Dist_100_LN_13_LD_26_RN_12_RD_20_1.png","I_Dist_100_LN_13_LD_26_RN_6_RD_10_1.png","I_Dist_100_LN_17_LD_30_RN_10_RD_15_1.png","I_Dist_100_LN_6_LD_12_RN_3_RD_5_1.png","I_Dist_100_LN_8_LD_16_RN_6_RD_10_1.png","I_Dist_100_LN_8_LD_20_RN_1_RD_2_1.png","I_Dist_100_LN_9_LD_18_RN_6_RD_10_1.png"]],"dist100_S":[["E_Dist_100_LN_2_LD_12_RN_2_RD_30_0.png","E_Dist_100_LN_6_LD_10_RN_6_RD_12_0.png"],["E_Dist_100_LN_6_LD_12_RN_6_RD_10_1.png"]],"dist200_C":[["C_Dist_200_LN_11_LD_22_RN_3_RD_10_0.png","C_Dist_200_LN_12_LD_15_RN_6_RD_10_0.png","C_Dist_200_LN_12_LD_20_RN_6_RD_15_0.png","C_Dist_200_LN_14_LD_28_RN_6_RD_20_0.png","C_Dist_200_LN_15_LD_25_RN_4_RD_10_0.png","C_Dist_200_LN_16_LD_20_RN_12_RD_20_0.png","C_Dist_200_LN_16_LD_30_RN_9_RD_27_0.png","C_Dist_200_LN_20_LD_25_RN_9_RD_15_0.png","C_Dist_200_LN_21_LD_30_RN_2_RD_4_0.png","C_Dist_200_LN_4_LD_10_RN_3_RD_15_0.png","C_Dist_200_LN_4_LD_8_RN_3_RD_10_0.png","C_Dist_200_LN_6_LD_15_RN_3_RD_15_0.png","C_Dist_200_LN_7_LD_21_RN_2_RD_15_0.png","C_Dist_200_LN_8_LD_15_RN_2_RD_6_0.png","C_Dist_200_LN_8_LD_15_RN_3_RD_9_0.png","C_Dist_200_LN_8_LD_15_RN_7_RD_21_0.png","C_Dist_200_LN_9_LD_20_RN_4_RD_16_0.png"],["C_Dist_200_LN_1_LD_2_RN_21_RD_30_1.png","C_Dist_200_LN_13_LD_26_RN_14_RD_20_1.png","C_Dist_200_LN_3_LD_10_RN_11_RD_22_1.png","C_Dist_200_LN_3_LD_10_RN_14_RD_28_1.png","C_Dist_200_LN_3_LD_10_RN_7_RD_14_1.png","C_Dist_200_LN_3_LD_12_RN_9_RD_20_1.png","C_Dist_200_LN_3_LD_6_RN_14_RD_20_1.png","C_Dist_200_LN_5_LD_10_RN_14_RD_20_1.png","C_Dist_200_LN_6_LD_12_RN_7_RD_10_1.png","C_Dist_200_LN_6_LD_20_RN_11_RD_22_1.png","C_Dist_200_LN_7_LD_15_RN_18_RD_27_1.png","C_Dist_200_LN_9_LD_30_RN_13_RD_26_1.png"]],"dist200_I":[["I_Dist_200_LN_1_LD_2_RN_3_RD_10_0.png","I_Dist_200_LN_1_LD_3_RN_2_RD_15_0.png","I_Dist_200_LN_3_LD_4_RN_11_RD_20_0.png","I_Dist_200_LN_4_LD_5_RN_6_RD_10_0.png","I_Dist_200_LN_4_LD_6_RN_14_RD_30_0.png","I_Dist_200_LN_7_LD_10_RN_12_RD_24_0.png","I_Dist_200_LN_7_LD_10_RN_14_RD_28_0.png","I_Dist_200_LN_7_LD_10_RN_8_RD_16_0.png"],["I_Dist_200_LN_11_LD_20_RN_3_RD_4_1.png","I_Dist_200_LN_14_LD_30_RN_12_RD_18_1.png","I_Dist_200_LN_14_LD_30_RN_6_RD_9_1.png","I_Dist_200_LN_3_LD_10_RN_1_RD_2_1.png","I_Dist_200_LN_4_LD_30_RN_1_RD_3_1.png","I_Dist_200_LN_6_LD_20_RN_3_RD_6_1.png","I_Dist_200_LN_7_LD_15_RN_4_RD_6_1.png","I_Dist_200_LN_7_LD_15_RN_6_RD_9_1.png","I_Dist_200_LN_9_LD_15_RN_8_RD_10_1.png"]],"dist200_S":[["E_Dist_200_LN_3_LD_6_RN_3_RD_10_0.png"],["E_Dist_200_LN_3_LD_10_RN_3_RD_6_1.png"]],"dist300_C":[["C_Dist_300_LN_11_LD_22_RN_1_RD_5_0.png","C_Dist_300_LN_11_LD_22_RN_2_RD_10_0.png","C_Dist_300_LN_11_LD_22_RN_4_RD_20_0.png","C_Dist_300_LN_12_LD_24_RN_2_RD_10_0.png","C_Dist_300_LN_18_LD_20_RN_9_RD_15_0.png","C_Dist_300_LN_20_LD_25_RN_13_RD_26_0.png","C_Dist_300_LN_20_LD_25_RN_14_RD_28_0.png","C_Dist_300_LN_20_LD_25_RN_5_RD_10_0.png","C_Dist_300_LN_20_LD_25_RN_8_RD_16_0.png","C_Dist_300_LN_20_LD_25_RN_9_RD_18_0.png","C_Dist_300_LN_24_LD_30_RN_2_RD_4_0.png","C_Dist_300_LN_24_LD_30_RN_8_RD_16_0.png","C_Dist_300_LN_3_LD_6_RN_2_RD_10_0.png","C_Dist_300_LN_4_LD_10_RN_1_RD_10_0.png","C_Dist_300_LN_4_LD_5_RN_2_RD_4_0.png","C_Dist_300_LN_8_LD_16_RN_1_RD_5_0.png","C_Dist_300_LN_9_LD_10_RN_3_RD_5_0.png"],["C_Dist_300_LN_1_LD_20_RN_7_RD_20_1.png","C_Dist_300_LN_1_LD_3_RN_19_RD_30_1.png","C_Dist_300_LN_1_LD_30_RN_8_RD_24_1.png","C_Dist_300_LN_1_LD_5_RN_11_RD_22_1.png","C_Dist_300_LN_1_LD_5_RN_3_RD_6_1.png","C_Dist_300_LN_1_LD_5_RN_6_RD_12_1.png","C_Dist_300_LN_2_LD_10_RN_12_RD_24_1.png","C_Dist_300_LN_2_LD_20_RN_10_RD_25_1.png","C_Dist_300_LN_3_LD_12_RN_11_RD_20_1.png","C_Dist_300_LN_3_LD_6_RN_4_RD_5_1.png","C_Dist_300_LN_4_LD_20_RN_13_RD_26_1.png","C_Dist_300_LN_5_LD_25_RN_6_RD_12_1.png","C_Dist_300_LN_5_LD_25_RN_7_RD_14_1.png","C_Dist_300_LN_7_LD_14_RN_20_RD_25_1.png","C_Dist_300_LN_8_LD_15_RN_10_RD_12_1.png"]],"dist300_I":[["I_Dist_300_LN_1_LD_2_RN_2_RD_10_0.png","I_Dist_300_LN_1_LD_2_RN_3_RD_15_0.png","I_Dist_300_LN_2_LD_4_RN_6_RD_30_0.png","I_Dist_300_LN_3_LD_6_RN_4_RD_20_0.png","I_Dist_300_LN_4_LD_5_RN_6_RD_12_0.png","I_Dist_300_LN_4_LD_5_RN_8_RD_16_0.png","I_Dist_300_LN_7_LD_10_RN_8_RD_20_0.png","I_Dist_300_LN_8_LD_10_RN_14_RD_28_0.png","I_Dist_300_LN_8_LD_10_RN_9_RD_18_0.png"],["I_Dist_300_LN_13_LD_26_RN_12_RD_15_1.png","I_Dist_300_LN_4_LD_20_RN_2_RD_4_1.png"]],"dist300_S":[["E_Dist_300_LN_9_LD_12_RN_9_RD_20_0.png"],["E_Dist_300_LN_18_LD_30_RN_18_RD_20_1.png","E_Dist_300_LN_3_LD_10_RN_3_RD_5_1.png","E_Dist_300_LN_9_LD_20_RN_9_RD_12_1.png"]],"dist500_C":[["C_Dist_500_LN_10_LD_13_RN_7_RD_26_0.png","C_Dist_500_LN_10_LD_15_RN_4_RD_24_0.png","C_Dist_500_LN_12_LD_16_RN_3_RD_12_0.png","C_Dist_500_LN_12_LD_18_RN_4_RD_24_0.png","C_Dist_500_LN_15_LD_18_RN_5_RD_15_0.png","C_Dist_500_LN_15_LD_20_RN_1_RD_4_0.png","C_Dist_500_LN_18_LD_27_RN_1_RD_6_0.png","C_Dist_500_LN_20_LD_24_RN_1_RD_3_0.png","C_Dist_500_LN_20_LD_24_RN_3_RD_9_0.png","C_Dist_500_LN_20_LD_24_RN_7_RD_21_0.png","C_Dist_500_LN_20_LD_28_RN_3_RD_14_0.png","C_Dist_500_LN_21_LD_28_RN_6_RD_24_0.png","C_Dist_500_LN_22_LD_28_RN_2_RD_7_0.png","C_Dist_500_LN_25_LD_30_RN_9_RD_27_0.png","C_Dist_500_LN_4_LD_6_RN_1_RD_6_0.png","C_Dist_500_LN_5_LD_6_RN_2_RD_6_0.png","C_Dist_500_LN_6_LD_9_RN_1_RD_6_0.png","C_Dist_500_LN_7_LD_10_RN_1_RD_5_0.png","C_Dist_500_LN_8_LD_12_RN_1_RD_6_0.png","C_Dist_500_LN_8_LD_12_RN_4_RD_24_0.png"],["C_Dist_500_LN_1_LD_4_RN_12_RD_16_1.png","C_Dist_500_LN_1_LD_4_RN_9_RD_12_1.png","C_Dist_500_LN_1_LD_9_RN_11_RD_18_1.png","C_Dist_500_LN_10_LD_24_RN_22_RD_24_1.png","C_Dist_500_LN_2_LD_12_RN_10_RD_15_1.png","C_Dist_500_LN_2_LD_12_RN_12_RD_18_1.png","C_Dist_500_LN_2_LD_12_RN_4_RD_6_1.png","C_Dist_500_LN_2_LD_24_RN_7_RD_12_1.png","C_Dist_500_LN_2_LD_5_RN_18_RD_20_1.png","C_Dist_500_LN_2_LD_5_RN_9_RD_10_1.png","C_Dist_500_LN_2_LD_8_RN_12_RD_16_1.png","C_Dist_500_LN_2_LD_8_RN_21_RD_28_1.png","C_Dist_500_LN_3_LD_10_RN_4_RD_5_1.png","C_Dist_500_LN_3_LD_12_RN_15_RD_20_1.png","C_Dist_500_LN_3_LD_30_RN_6_RD_10_1.png","C_Dist_500_LN_3_LD_8_RN_14_RD_16_1.png","C_Dist_500_LN_4_LD_16_RN_15_RD_20_1.png","C_Dist_500_LN_4_LD_24_RN_12_RD_18_1.png","C_Dist_500_LN_5_LD_14_RN_6_RD_7_1.png","C_Dist_500_LN_7_LD_21_RN_20_RD_24_1.png","C_Dist_500_LN_7_LD_28_RN_12_RD_16_1.png","C_Dist_500_LN_7_LD_28_RN_9_RD_12_1.png","C_Dist_500_LN_9_LD_27_RN_20_RD_24_1.png"]],"dist500_I":[["I_Dist_500_LN_2_LD_3_RN_4_RD_24_0.png","I_Dist_500_LN_5_LD_6_RN_6_RD_18_0.png","I_Dist_500_LN_7_LD_8_RN_9_RD_24_0.png"],["I_Dist_500_LN_7_LD_21_RN_5_RD_6_1.png"]],"dist500_S":[["E_Dist_500_LN_6_LD_8_RN_6_RD_24_0.png"],["E_Dist_500_LN_2_LD_12_RN_2_RD_3_1.png","E_Dist_500_LN_6_LD_24_RN_6_RD_8_1.png"]]}},{"start_time":1552313039307,"click_time":1552313041215,"finger_time":1552313040795,"fix_duration":250,"trial":1,"RT":1488,"MT":420,"sideResp":2,"stimulus":[],"xmouse":[808,808,808,808,808,808,808,808,808,808,808,808,808,808,808,808,808,808,808,808,808,808,808,808,808,808,808,808,808,808,808,808,808,808,808,808,808,808,808,808,808,808,808,808,808,808,808,808,808,808,808,808,808,808,808,808,808,808,808,808,808,808,808,808,808,808,808,808,808,808,808,808,817,829,855,897,947,1038,1064,1081,1086,1087,1088,1088,1091,1095,1100,1104,1105,1105,1105,1105,1101,1099,1097,1096],"ymouse":[641,641,641,641,641,641,641,641,641,641,641,641,641,641,641,641,641,641,641,641,641,641,641,641,641,641,641,641,641,641,641,641,641,641,641,641,641,641,641,641,641,641,641,641,641,641,641,641,641,641,641,641,641,641,641,641,641,641,641,641,641,641,641,641,641,641,641,641,641,641,639,637,620,599,559,498,430,299,256,222,211,207,205,203,199,192,183,166,160,155,154,152,135,119,101,85],"timestamp_mouse":[10,28,56,66,88,108,127,147,167,187,207,227,247,266,288,308,328,348,368,387,407,428,447,467,488,508,527,547,568,588,608,627,647,668,686,708,729,747,767,787,808,827,847,868,887,908,927,947,966,987,1008,1027,1047,1066,1087,1108,1128,1147,1167,1187,1208,1228,1247,1267,1287,1307,1327,1348,1367,1387,1408,1427,1447,1467,1488,1507,1527,1548,1567,1587,1608,1627,1647,1667,1687,1706,1727,1747,1767,1787,1807,1827,1847,1867,1887,1908],"xSR":741.5,"ySR":573.95,"xT1":424.9,"yT1":0,"xT2":1058.1,"yT2":0,"toosoon":0,"cond_shown":"Congruent","ratio_trial":300,"L_num":20,"L_den":25,"R_num":5,"R_den":10,"correct_side":1,"subjID":"Laura marcela rodriguez borda 13","gender":"1","school":"4D","age":"8 años"},{"start_time":1552313042505,"click_time":1552313044535,"finger_time":1552313044155,"fix_duration":250,"trial":2,"RT":1650,"MT":380,"sideResp":2,"stimulus":[],"xmouse":[775,775,775,776,776,777,777,777,777,777,777,777,777,777,777,777,777,777,777,777,777,777,777,777,777,777,777,777,777,777,777,777,777,777,777,777,777,777,777,777,777,777,777,779,781,785,792,795,796,798,798,800,800,800,800,800,800,800,800,800,800,800,800,800,800,800,800,800,800,800,800,800,800,800,800,800,800,800,800,806,813,826,857,872,889,902,930,943,956,966,981,990,1005,1012,1018,1023,1036,1042,1048,1057,1071,1097],"ymouse":[666,666,666,666,666,666,666,666,666,666,666,666,666,666,666,666,666,666,666,666,666,666,666,666,666,666,666,666,666,666,666,666,666,666,666,666,666,666,666,666,666,666,666,666,665,661,651,645,641,637,635,632,631,630,630,630,630,630,630,630,630,630,630,630,630,630,630,630,630,630,630,630,630,630,630,630,630,630,630,620,608,592,556,534,509,479,426,402,379,362,337,323,296,283,269,257,231,214,195,170,125,40],"timestamp_mouse":[10,43,49,69,89,109,129,149,169,190,210,230,250,270,289,308,330,350,370,389,408,430,450,469,489,510,530,550,570,590,609,629,649,669,690,708,729,749,770,790,810,830,849,869,890,910,930,949,970,990,1010,1029,1050,1070,1089,1110,1130,1150,1170,1190,1210,1230,1250,1270,1289,1310,1330,1350,1368,1389,1410,1429,1450,1470,1490,1510,1530,1548,1569,1589,1610,1629,1650,1669,1690,1710,1730,1749,1769,1790,1809,1830,1849,1870,1889,1909,1930,1949,1969,1989,2009,2030],"xSR":741.5,"ySR":573.95,"xT1":424.9,"yT1":0,"xT2":1058.1,"yT2":0,"toosoon":0,"cond_shown":"Incongruent","ratio_trial":100,"L_num":6,"L_den":10,"R_num":11,"R_den":22,"correct_side":1,"subjID":"Laura marcela rodriguez borda 13","gender":"1","school":"4D","age":"8 años"},{"start_time":1552313046285,"click_time":1552313047614,"finger_time":1552313047034,"fix_duration":287.074170291886,"trial":3,"RT":749,"MT":580,"sideResp":1,"stimulus":[],"xmouse":[794,794,794,794,794,794,794,794,794,794,794,794,794,794,792,790,790,789,788,788,788,788,787,787,786,786,786,784,784,784,783,783,782,782,782,782,782,781,778,772,759,745,729,684,652,605,564,501,483,482,481,481,481,481,480,480,479,479,479,479,479,479,479,479,479,479,479],"ymouse":[617,617,617,617,617,617,617,617,617,617,617,617,617,618,616,613,611,608,607,607,604,603,602,601,599,597,595,587,584,580,577,575,574,574,574,574,574,571,566,556,530,506,473,338,233,120,28,0,0,0,0,0,0,0,0,0,0,0,0,0,0,0,0,0,0,0,1],"timestamp_mouse":[10,28,49,68,90,110,129,150,170,189,209,229,249,269,290,310,329,349,369,390,410,430,449,469,489,509,529,549,569,590,610,629,650,669,690,710,730,749,769,790,809,829,849,870,889,910,929,952,969,990,1010,1029,1050,1070,1089,1109,1129,1150,1170,1189,1209,1230,1250,1269,1289,1309,1329],"xSR":741.5,"ySR":573.95,"xT1":424.9,"yT1":0,"xT2":1058.1,"yT2":0,"toosoon":0,"cond_shown":"Incongruent","ratio_trial":300,"L_num":2,"L_den":4,"R_num":6,"R_den":30,"correct_side":1,"subjID":"Laura marcela rodriguez borda 13","gender":"1","school":"4D","age":"8 años"},{"start_time":1552313050425,"click_time":1552313052115,"finger_time":1552313051834,"fix_duration":1488.877221220418,"trial":4,"RT":1409,"MT":281,"sideResp":2,"stimulus":[],"xmouse":[777,777,777,777,777,777,777,777,777,777,777,777,777,777,777,777,777,777,777,777,777,777,777,777,777,777,777,777,777,777,777,777,777,777,777,777,777,777,777,777,777,777,777,777,777,777,777,777,777,777,777,777,777,777,777,777,777,777,777,777,777,777,777,777,777,777,777,777,777,778,795,810,828,854,908,953,1029,1051,1063,1072,1083,1092,1106,1126,1155],"ymouse":[603,603,603,603,603,603,603,603,603,603,603,603,603,603,603,603,603,603,603,603,603,603,603,603,603,603,603,603,603,603,603,603,603,603,603,603,603,603,603,603,603,603,603,603,603,603,603,603,603,603,603,603,603,603,603,603,603,603,603,603,603,603,603,603,603,603,603,603,599,595,563,541,514,473,401,338,247,218,200,189,174,162,146,125,92],"timestamp_mouse":[10,29,50,70,90,109,130,149,169,189,210,230,249,269,289,310,330,348,369,390,410,429,449,470,490,509,530,550,569,589,608,629,650,669,690,710,729,750,770,788,810,830,849,870,889,910,929,950,970,990,1009,1030,1050,1070,1089,1109,1130,1148,1169,1189,1209,1229,1250,1270,1289,1309,1330,1349,1370,1389,1409,1428,1449,1469,1489,1509,1529,1549,1569,1589,1609,1628,1649,1669,1690],"xSR":741.5,"ySR":573.95,"xT1":424.9,"yT1":0,"xT2":1058.1,"yT2":0,"toosoon":0,"cond_shown":"Congruent","ratio_trial":300,"L_num":24,"L_den":30,"R_num":8,"R_den":16,"correct_side":1,"subjID":"Laura marcela rodriguez borda 13","gender":"1","school":"4D","age":"8 años"},{"start_time":1552313059462,"click_time":1552313060475,"finger_time":1552313059935,"fix_duration":925.6685682904163,"trial":5,"RT":473,"MT":540,"sideResp":1,"stimulus":[],"xmouse":[790,790,790,790,790,790,790,790,790,790,790,790,790,790,790,789,789,788,788,788,788,788,786,779,772,762,750,733,703,692,677,663,641,629,606,597,582,574,562,553,545,542,542,541,538,535,533,532,527,525,522],"ymouse":[648,648,648,648,648,648,648,648,648,648,648,648,648,648,648,645,642,639,629,619,610,599,582,544,516,486,442,382,259,198,147,105,58,38,14,6,0,0,0,0,0,0,0,0,6,13,18,22,28,30,32],"timestamp_mouse":[12,44,52,73,93,112,133,151,173,192,212,233,253,273,292,313,332,352,372,392,412,433,453,473,492,512,532,552,572,592,612,632,652,672,692,713,733,752,774,792,813,832,853,873,892,912,933,953,974,993,1013],"xSR":741.5,"ySR":573.95,"xT1":424.9,"yT1":0,"xT2":1058.1,"yT2":0,"toosoon":0,"cond_shown":"Incongruent","ratio_trial":100,"L_num":9,"L_den":15,"R_num":14,"R_den":28,"correct_side":1,"subjID":"Laura marcela rodriguez borda 13","gender":"1","school":"4D","age":"8 años"},{"start_time":1552313062403,"click_time":1552313064054,"finger_time":1552313063535,"fix_duration":625.0078544113761,"trial":6,"RT":1132,"MT":519,"sideResp":2,"stimulus":[],"xmouse":[786,786,786,786,786,786,786,786,786,786,786,786,786,786,786,786,786,786,786,786,786,786,786,786,786,786,786,786,786,786,786,786,786,786,786,786,786,786,786,786,787,788,790,791,791,791,791,791,791,791,791,791,791,792,793,797,813,828,843,853,864,891,907,917,925,935,945,969,980,989,999,1004,1011,1019,1023,1036,1055,1061,1065,1070,1073,1075,1087],"ymouse":[607,607,607,607,607,607,607,607,607,607,607,607,607,607,607,607,607,607,607,607,607,607,607,607,607,607,607,607,607,607,607,607,607,607,607,607,607,607,607,607,607,605,600,598,596,596,596,596,596,596,596,596,596,593,592,585,563,546,527,510,490,441,419,404,395,372,350,295,270,248,231,220,209,196,192,177,154,146,139,131,123,117,87],"timestamp_mouse":[11,40,51,71,91,110,132,150,172,192,212,232,252,273,291,312,331,350,371,392,411,432,451,471,491,512,532,551,570,591,611,632,651,671,692,711,732,751,771,792,812,831,852,872,892,911,932,951,971,991,1011,1031,1050,1071,1092,1111,1132,1151,1171,1192,1212,1232,1251,1271,1292,1312,1331,1351,1371,1391,1412,1431,1451,1471,1491,1511,1531,1551,1571,1591,1612,1631,1651],"xSR":741.5,"ySR":573.95,"xT1":424.9,"yT1":0,"xT2":1058.1,"yT2":0,"toosoon":0,"cond_shown":"Congruent","ratio_trial":300,"L_num":11,"L_den":22,"R_num":1,"R_den":5,"correct_side":1,"subjID":"Laura marcela rodriguez borda 13","gender":"1","school":"4D","age":"8 años"},{"start_time":1552313068777,"click_time":1552313069615,"finger_time":1552313069055,"fix_duration":720.9392782479321,"trial":7,"RT":278,"MT":560,"sideResp":1,"stimulus":[],"xmouse":[788,788,788,788,788,788,788,788,788,788,788,786,775,767,758,753,736,699,677,657,641,630,612,604,599,596,593,584,579,574,568,562,557,557,554,547,528,518,510,508,503,498],"ymouse":[621,621,621,621,621,621,621,621,621,621,620,616,587,567,534,520,460,352,301,264,235,218,195,185,179,175,171,158,149,140,130,123,120,120,119,118,115,112,109,108,102,95],"timestamp_mouse":[17,37,58,78,98,117,138,157,178,198,217,238,258,278,297,318,338,357,377,397,417,437,457,477,498,517,537,558,577,597,617,638,657,676,697,718,737,757,777,797,818,837],"xSR":741.5,"ySR":573.95,"xT1":424.9,"yT1":0,"xT2":1058.1,"yT2":0,"toosoon":0,"cond_shown":"Incongruent","ratio_trial":100,"L_num":6,"L_den":10,"R_num":7,"R_den":14,"correct_side":1,"subjID":"Laura marcela rodriguez borda 13","gender":"1","school":"4D","age":"8 años"},{"start_time":1552313071761,"click_time":1552313073354,"finger_time":1552313073234,"fix_duration":1083.9236624278717,"trial":8,"RT":1473,"MT":120,"sideResp":2,"stimulus":[],"xmouse":[796,796,796,796,796,796,796,796,796,796,796,796,796,796,796,796,796,796,796,796,796,796,796,796,796,796,796,796,796,796,796,796,796,796,796,796,796,796,796,796,796,796,796,796,796,796,796,796,796,796,796,796,796,796,796,796,796,796,796,796,796,796,796,796,796,796,797,797,798,805,808,813,823,834,878,930,949,1008,1039,1099],"ymouse":[651,651,651,651,651,651,651,651,651,651,651,651,651,651,651,651,651,651,651,651,651,651,651,651,651,651,651,651,651,651,651,651,651,651,651,651,651,651,651,651,651,651,651,651,651,651,651,651,651,651,651,651,651,651,650,649,649,649,648,648,648,648,648,648,646,644,643,641,638,623,613,596,575,554,475,382,348,246,186,82],"timestamp_mouse":[14,33,54,74,94,113,133,152,174,194,213,234,253,273,294,314,333,354,373,394,414,434,453,473,493,513,534,554,574,593,613,634,653,674,694,713,733,754,773,793,813,834,854,874,893,914,933,953,974,993,1013,1032,1053,1074,1093,1113,1133,1154,1173,1193,1214,1233,1254,1273,1294,1313,1333,1353,1374,1393,1413,1434,1454,1473,1493,1513,1534,1552,1573,1593],"xSR":741.5,"ySR":573.95,"xT1":424.9,"yT1":0,"xT2":1058.1,"yT2":0,"toosoon":0,"cond_shown":"Congruent","ratio_trial":200,"L_num":8,"L_den":15,"R_num":2,"R_den":6,"correct_side":1,"subjID":"Laura marcela rodriguez borda 13","gender":"1","school":"4D","age":"8 años"},{"start_time":1552313078186,"click_time":1552313079074,"finger_time":1552313078614,"fix_duration":250,"trial":9,"RT":428,"MT":460,"sideResp":1,"stimulus":[],"xmouse":[772,772,772,772,772,772,772,772,772,772,772,772,772,772,772,772,772,769,764,760,756,748,746,739,736,732,725,713,706,698,691,683,673,657,645,616,596,543,519,495,482,476,476,474,471],"ymouse":[630,630,630,630,630,630,630,630,630,630,630,630,630,630,630,629,626,621,608,596,584,570,559,537,526,513,490,448,421,384,342,287,227,99,26,0,0,0,0,0,0,0,0,0,7],"timestamp_mouse":[10,29,49,68,88,108,129,148,169,189,208,228,249,269,288,308,329,348,369,389,409,428,448,469,488,509,528,548,568,588,608,628,648,668,689,707,728,750,768,788,809,828,849,868,888],"xSR":741.5,"ySR":573.95,"xT1":424.9,"yT1":0,"xT2":1058.1,"yT2":0,"toosoon":0,"cond_shown":"Congruent","ratio_trial":200,"L_num":15,"L_den":25,"R_num":4,"R_den":10,"correct_side":1,"subjID":"Laura marcela rodriguez borda 13","gender":"1","school":"4D","age":"8 años"},{"start_time":1552313095150,"click_time":1552313098074,"finger_time":1552313097853,"fix_duration":433.8541020322877,"trial":10,"RT":2703,"MT":221,"sideResp":2,"stimulus":[],"xmouse":[809,809,809,809,809,809,809,809,809,809,809,809,809,809,809,809,809,809,809,809,809,809,809,809,809,809,811,811,811,811,811,811,811,811,811,811,811,811,811,811,811,811,811,811,811,811,811,811,811,811,811,811,811,811,811,811,811,811,811,811,811,811,811,811,811,811,811,811,811,811,811,811,811,811,811,811,811,811,811,811,811,811,811,811,811,811,811,811,811,811,811,811,811,811,811,811,811,811,811,811,811,811,811,811,811,811,811,811,811,811,811,811,811,811,811,811,811,811,811,811,811,812,813,814,816,816,817,817,818,818,818,819,819,820,822,828,834,840,849,885,916,951,980,1007,1030,1058,1064],"ymouse":[608,608,608,608,608,608,608,608,608,608,608,608,608,608,608,608,608,608,608,608,608,608,608,608,608,608,609,609,609,609,609,609,609,609,609,609,609,609,609,609,609,609,609,609,609,609,609,609,609,609,609,609,609,609,609,609,609,609,609,609,609,609,609,609,609,609,609,609,609,609,609,609,609,609,609,609,609,609,609,609,609,609,609,609,609,609,609,609,609,609,609,609,609,609,609,609,609,609,609,609,609,609,609,609,609,609,609,609,609,609,609,609,609,609,609,609,609,609,609,609,609,609,609,608,604,603,602,601,600,600,600,598,597,595,590,573,558,547,531,462,401,343,283,223,167,66,20],"timestamp_mouse":[10,24,44,65,84,104,124,144,164,185,205,225,243,264,284,305,324,345,364,384,404,425,444,464,485,503,525,545,564,584,603,624,644,663,684,704,725,743,765,785,803,825,844,865,885,903,924,944,963,985,1005,1023,1045,1065,1084,1104,1125,1145,1164,1185,1204,1223,1245,1264,1284,1305,1324,1344,1365,1385,1405,1424,1444,1465,1485,1505,1525,1544,1565,1585,1603,1625,1644,1665,1685,1704,1725,1744,1764,1785,1803,1825,1844,1865,1884,1904,1924,1944,1963,1984,2005,2023,2044,2064,2084,2104,2123,2145,2165,2185,2204,2224,2243,2265,2283,2304,2325,2344,2365,2384,2405,2423,2444,2465,2484,2505,2523,2543,2564,2585,2604,2624,2645,2664,2683,2703,2724,2744,2765,2784,2803,2824,2844,2864,2884,2904,2924],"xSR":741.5,"ySR":573.95,"xT1":424.9,"yT1":0,"xT2":1058.1,"yT2":0,"toosoon":0,"cond_shown":"Congruent","ratio_trial":100,"L_num":11,"L_den":22,"R_num":4,"R_den":10,"correct_side":1,"subjID":"Laura marcela rodriguez borda 13","gender":"1","school":"4D","age":"8 años"},{"start_time":1552313108019,"click_time":1552313109235,"finger_time":1552313108394,"fix_duration":1282.6712443333072,"trial":11,"RT":375,"MT":841,"sideResp":2,"stimulus":[],"xmouse":[801,800,800,799,799,798,797,797,797,797,797,797,797,795,795,792,787,784,779,775,763,759,754,752,747,746,744,744,746,749,754,786,803,816,827,846,860,870,879,888,907,914,922,927,952,973,975,975,973,969,964,964,966,968,972,992,1011,1028,1041,1055,1068],"ymouse":[603,603,603,603,603,603,602,602,602,602,602,602,602,602,601,593,585,577,566,554,526,515,504,495,483,478,472,470,467,463,460,450,448,446,441,432,425,417,409,395,354,324,287,244,142,32,12,0,0,0,0,0,0,0,0,9,25,39,53,68,79],"timestamp_mouse":[14,49,56,76,94,115,135,155,175,195,214,236,255,274,295,316,336,356,375,396,415,435,456,476,495,515,535,555,575,596,615,636,655,675,696,715,734,756,776,794,815,835,856,874,894,915,935,955,975,995,1016,1036,1056,1075,1096,1116,1136,1155,1176,1195,1216],"xSR":741.5,"ySR":573.95,"xT1":424.9,"yT1":0,"xT2":1058.1,"yT2":0,"toosoon":0,"cond_shown":"Congruent","ratio_trial":200,"L_num":1,"L_den":2,"R_num":21,"R_den":30,"correct_side":2,"subjID":"Laura marcela rodriguez borda 13","gender":"1","school":"4D","age":"8 años"},{"start_time":1552313112494,"click_time":1552313113854,"finger_time":1552313113514,"fix_duration":1258.215149843065,"trial":12,"RT":1020,"MT":340,"sideResp":1,"stimulus":[],"xmouse":[793,793,792,792,792,792,792,792,792,792,792,792,792,792,792,792,792,792,792,792,791,791,791,791,791,791,791,791,791,791,791,791,791,791,791,791,791,791,791,790,790,789,788,786,785,783,780,773,770,765,764,758,750,725,710,694,676,660,634,623,611,595,584,566,555,542,528,494,477],"ymouse":[652,652,651,650,649,648,648,648,648,648,647,647,647,647,647,647,647,647,647,647,645,645,645,644,643,643,642,642,640,640,640,639,639,638,637,636,635,634,632,631,630,628,624,621,618,614,609,597,590,582,579,567,549,503,470,437,406,376,328,308,287,260,247,221,207,188,167,107,71],"timestamp_mouse":[2,20,41,59,81,101,120,141,160,180,201,221,241,260,280,300,320,340,360,379,400,421,440,460,480,501,521,541,560,580,600,621,639,660,680,701,720,741,760,781,800,820,841,859,880,900,920,940,961,981,1000,1020,1039,1060,1081,1099,1119,1139,1160,1180,1200,1221,1240,1261,1280,1299,1320,1340,1360],"xSR":741.5,"ySR":573.95,"xT1":424.9,"yT1":0,"xT2":1058.1,"yT2":0,"toosoon":0,"cond_shown":"Incongruent","ratio_trial":200,"L_num":4,"L_den":30,"R_num":1,"R_den":3,"correct_side":2,"subjID":"Laura marcela rodriguez borda 13","gender":"1","school":"4D","age":"8 años"},{"start_time":1552313116757,"click_time":1552313117655,"finger_time":1552313117093,"fix_duration":1021.0779249366522,"trial":13,"RT":336,"MT":562,"sideResp":2,"stimulus":[],"xmouse":[780,780,780,780,780,780,780,780,780,780,780,780,780,782,786,793,807,818,831,855,871,887,906,937,949,957,963,970,975,976,977,978,979,980,980,981,982,986,993,1001,1019,1037,1062,1082,1099],"ymouse":[595,595,595,595,595,595,595,595,595,595,595,595,595,595,590,583,571,560,549,529,517,506,492,469,458,450,443,434,425,422,420,416,413,403,397,387,381,364,331,300,250,205,151,109,70],"timestamp_mouse":[17,45,57,77,98,117,137,158,177,197,217,237,257,278,298,317,336,357,376,397,418,437,457,477,497,517,538,556,578,597,617,637,657,677,697,717,736,757,777,797,817,838,858,877,897],"xSR":741.5,"ySR":573.95,"xT1":424.9,"yT1":0,"xT2":1058.1,"yT2":0,"toosoon":0,"cond_shown":"Incongruent","ratio_trial":300,"L_num":8,"L_den":10,"R_num":9,"R_den":18,"correct_side":1,"subjID":"Laura marcela rodriguez borda 13","gender":"1","school":"4D","age":"8 años"},{"start_time":1552313119571,"click_time":1552313120554,"finger_time":1552313119914,"fix_duration":355.0690890302124,"trial":14,"RT":343,"MT":640,"sideResp":1,"stimulus":[],"xmouse":[768,768,768,767,767,767,767,767,767,767,767,767,765,764,763,763,763,760,756,734,722,715,712,710,710,710,710,710,710,710,710,710,708,705,693,684,680,669,665,655,649,643,632,611,545,529,527,527,526,524],"ymouse":[624,624,624,624,624,624,624,624,624,624,624,624,621,618,606,591,584,552,529,463,436,418,404,388,384,380,377,375,373,371,367,364,359,354,340,332,329,320,315,296,283,267,244,208,123,100,97,96,95,93],"timestamp_mouse":[9,23,43,64,82,103,123,143,162,184,203,224,243,262,283,303,323,343,362,383,403,422,442,464,482,503,523,544,563,582,603,622,644,663,684,703,723,743,763,782,802,823,843,863,884,903,923,944,963,982],"xSR":741.5,"ySR":573.95,"xT1":424.9,"yT1":0,"xT2":1058.1,"yT2":0,"toosoon":0,"cond_shown":"Incongruent","ratio_trial":100,"L_num":3,"L_den":6,"R_num":4,"R_den":10,"correct_side":1,"subjID":"Laura marcela rodriguez borda 13","gender":"1","school":"4D","age":"8 años"},{"start_time":1552313123211,"click_time":1552313124053,"finger_time":1552313123714,"fix_duration":1095.8617621981932,"trial":15,"RT":503,"MT":339,"sideResp":2,"stimulus":[],"xmouse":[782,782,782,782,782,782,782,782,782,782,782,782,782,782,782,782,782,782,782,782,782,782,787,805,816,844,869,875,883,890,898,920,934,947,964,974,992,1000,1011,1026,1038,1054,1077],"ymouse":[645,645,645,645,645,645,645,645,645,645,645,645,645,645,645,645,645,645,645,645,645,640,632,613,599,566,526,509,492,474,455,402,370,335,296,273,233,213,195,173,154,131,91],"timestamp_mouse":[9,24,55,63,84,103,122,143,163,184,202,223,244,263,283,304,324,342,364,383,402,423,444,464,484,503,523,542,562,583,604,623,643,662,684,703,723,744,764,783,803,823,842],"xSR":741.5,"ySR":573.95,"xT1":424.9,"yT1":0,"xT2":1058.1,"yT2":0,"toosoon":0,"cond_shown":"Congruent","ratio_trial":300,"L_num":3,"L_den":12,"R_num":11,"R_den":20,"correct_side":2,"subjID":"Laura marcela rodriguez borda 13","gender":"1","school":"4D","age":"8 años"},{"start_time":1552313125486,"click_time":1552313127514,"finger_time":1552313126114,"fix_duration":250,"trial":16,"RT":628,"MT":1400,"sideResp":2,"stimulus":[],"xmouse":[820,820,820,820,820,820,820,820,820,820,820,820,819,819,818,816,814,810,809,809,809,809,809,809,809,809,809,809,809,809,809,809,809,809,809,809,809,809,810,810,810,810,810,810,810,810,810,810,811,812,813,817,821,833,837,838,840,840,840,840,840,840,840,840,840,840,840,841,842,843,845,852,865,870,874,877,878,878,878,878,878,878,881,892,899,906,911,917,942,976,988,1023,1045,1076,1095,1113,1130,1155,1162,1165,1165,1150],"ymouse":[585,585,585,585,585,585,585,585,585,585,585,585,585,585,585,584,582,577,576,574,574,574,574,574,574,574,574,574,574,574,574,573,572,572,572,572,571,571,571,571,571,571,571,571,571,571,571,571,571,571,570,564,557,538,530,526,524,524,524,524,524,524,524,524,524,524,524,523,519,516,511,498,468,446,424,401,380,352,336,323,309,295,280,249,235,222,211,204,192,183,179,167,162,152,147,145,139,123,112,101,88,69],"timestamp_mouse":[9,40,49,68,88,108,128,149,168,188,209,229,248,269,287,309,329,348,368,388,409,427,449,468,488,509,528,547,569,589,609,628,648,667,688,709,728,749,768,788,809,828,847,868,888,909,928,948,967,988,1009,1029,1047,1067,1088,1108,1129,1148,1168,1189,1208,1228,1249,1268,1289,1307,1328,1348,1367,1388,1409,1428,1448,1470,1488,1509,1528,1548,1568,1588,1607,1628,1647,1668,1688,1709,1727,1747,1767,1788,1808,1829,1848,1869,1888,1908,1928,1947,1967,1988,2009,2028],"xSR":741.5,"ySR":573.95,"xT1":424.9,"yT1":0,"xT2":1058.1,"yT2":0,"toosoon":0,"cond_shown":"Incongruent","ratio_trial":200,"L_num":14,"L_den":30,"R_num":12,"R_den":18,"correct_side":2,"subjID":"Laura marcela rodriguez borda 13","gender":"1","school":"4D","age":"8 años"},{"start_time":1552313139687,"click_time":1552313140915,"finger_time":1552313140094,"fix_duration":250,"trial":17,"RT":407,"MT":821,"sideResp":2,"stimulus":[],"xmouse":[788,789,789,789,789,789,789,789,789,789,789,789,789,789,789,789,790,790,801,828,849,862,865,866,866,866,866,866,866,866,866,866,866,866,866,866,866,861,860,860,860,860,860,860,861,868,876,882,883,883,884,886,894,900,906,916,928,957,983,1015,1049,1060],"ymouse":[651,651,651,651,651,651,651,651,651,651,651,651,651,651,651,651,647,644,622,595,582,573,569,565,563,563,563,563,562,561,560,559,557,557,556,556,553,547,546,546,546,546,546,546,542,534,525,517,514,511,504,499,472,458,441,423,399,347,290,214,130,97],"timestamp_mouse":[11,27,47,67,86,107,128,146,168,187,208,227,248,268,287,307,327,346,367,386,407,427,446,466,487,508,527,547,568,587,607,627,647,667,686,707,727,747,767,787,807,827,847,867,886,906,927,947,967,987,1006,1027,1047,1067,1087,1106,1126,1148,1166,1188,1208,1227],"xSR":741.5,"ySR":573.95,"xT1":424.9,"yT1":0,"xT2":1058.1,"yT2":0,"toosoon":0,"cond_shown":"Incongruent","ratio_trial":200,"L_num":4,"L_den":5,"R_num":6,"R_den":10,"correct_side":1,"subjID":"Laura marcela rodriguez borda 13","gender":"1","school":"4D","age":"8 años"},{"start_time":1552313146850,"click_time":1552313148594,"finger_time":1552313148334,"fix_duration":1154.354582166903,"trial":18,"RT":1484,"MT":260,"sideResp":2,"stimulus":[],"xmouse":[788,788,788,788,788,788,788,788,788,788,788,788,788,788,788,788,788,788,788,788,788,788,788,788,787,787,787,787,787,787,787,787,787,787,787,787,787,787,787,787,787,787,787,787,787,787,787,787,787,787,787,787,787,787,787,787,787,787,787,793,799,806,806,806,807,807,807,807,807,807,807,811,815,831,846,869,876,886,895,909,959,1000,1041,1091,1111,1134,1143,1151],"ymouse":[646,646,646,646,646,646,646,646,646,646,646,646,646,646,646,646,646,646,646,646,646,646,645,643,641,641,641,641,641,641,641,641,641,641,641,641,641,641,641,641,641,641,641,641,641,641,641,641,641,641,641,641,641,641,641,641,641,641,639,638,636,634,633,633,633,633,633,633,633,633,633,628,622,606,593,575,569,558,545,525,459,412,362,274,229,161,126,96],"timestamp_mouse":[10,39,44,65,83,104,125,145,164,185,205,225,244,265,283,304,325,345,364,383,404,425,444,463,485,505,524,545,565,583,604,625,644,664,685,703,724,744,765,785,803,825,844,864,884,904,925,945,965,984,1004,1024,1043,1064,1084,1104,1124,1145,1163,1185,1204,1225,1244,1264,1284,1303,1323,1343,1363,1383,1405,1425,1444,1464,1484,1505,1524,1544,1564,1583,1603,1623,1643,1665,1684,1703,1723,1744],"xSR":741.5,"ySR":573.95,"xT1":424.9,"yT1":0,"xT2":1058.1,"yT2":0,"toosoon":0,"cond_shown":"Congruent","ratio_trial":100,"L_num":1,"L_den":2,"R_num":3,"R_den":5,"correct_side":2,"subjID":"Laura marcela rodriguez borda 13","gender":"1","school":"4D","age":"8 años"},{"start_time":1552313151169,"click_time":1552313153135,"finger_time":1552313152695,"fix_duration":973.8148017529819,"trial":19,"RT":1526,"MT":440,"sideResp":1,"stimulus":[],"xmouse":[766,766,766,766,766,766,766,766,766,766,766,766,766,766,766,766,766,766,766,766,766,766,766,766,766,766,766,766,766,766,766,766,766,766,766,766,766,766,766,766,767,767,767,768,768,768,769,769,769,769,769,769,770,770,770,770,771,771,771,771,771,771,771,771,771,771,771,771,771,771,771,771,769,762,756,748,734,721,652,605,575,551,546,544,542,536,532,524,518,517,516,515,514,509,506,502,501,500,500],"ymouse":[631,631,631,631,631,630,630,630,630,630,630,630,630,630,630,630,630,630,630,630,630,630,630,630,630,630,630,630,630,630,630,630,630,630,630,630,630,630,630,630,628,628,628,627,627,626,625,625,625,624,623,623,622,622,622,622,621,621,620,620,620,620,620,620,620,620,620,620,620,620,619,618,615,607,598,586,562,539,441,380,332,285,261,221,198,169,162,148,139,137,136,134,132,123,118,108,106,101,97],"timestamp_mouse":[10,42,44,65,84,104,125,145,165,185,205,225,245,265,284,306,326,345,365,386,406,425,446,466,485,506,526,545,565,585,606,626,645,666,685,706,726,745,766,785,805,826,846,866,884,904,925,946,965,986,1005,1026,1046,1064,1085,1106,1124,1145,1165,1185,1206,1226,1245,1265,1285,1305,1326,1345,1366,1386,1405,1424,1444,1465,1486,1506,1526,1546,1565,1584,1604,1624,1646,1666,1684,1706,1725,1744,1765,1785,1805,1824,1845,1866,1885,1905,1926,1945,1965],"xSR":741.5,"ySR":573.95,"xT1":424.9,"yT1":0,"xT2":1058.1,"yT2":0,"toosoon":0,"cond_shown":"Incongruent","ratio_trial":200,"L_num":6,"L_den":20,"R_num":3,"R_den":6,"correct_side":2,"subjID":"Laura marcela rodriguez borda 13","gender":"1","school":"4D","age":"8 años"},{"start_time":1552313155559,"click_time":1552313156675,"finger_time":1552313155975,"fix_duration":1062.1084280685186,"trial":20,"RT":416,"MT":700,"sideResp":2,"stimulus":[],"xmouse":[785,785,785,785,785,785,785,785,786,786,786,786,786,786,787,790,791,795,801,804,808,812,814,818,828,833,835,837,839,840,840,840,840,840,841,841,841,842,844,846,852,862,876,893,926,942,966,980,993,1024,1046,1070,1089,1108,1129,1133],"ymouse":[620,620,620,620,620,619,619,618,618,617,616,616,615,614,611,603,601,591,581,575,569,561,556,549,529,521,517,515,511,509,508,508,508,508,506,506,506,505,501,496,483,464,442,415,367,344,311,291,273,236,218,196,176,148,106,86],"timestamp_mouse":[15,40,56,75,96,116,135,155,175,196,215,236,255,274,295,315,335,356,374,395,416,436,456,475,496,514,534,555,575,594,615,636,656,675,695,716,735,755,775,794,816,835,855,874,895,915,936,956,975,995,1015,1036,1055,1075,1094,1116],"xSR":741.5,"ySR":573.95,"xT1":424.9,"yT1":0,"xT2":1058.1,"yT2":0,"toosoon":0,"cond_shown":"Congruent","ratio_trial":100,"L_num":7,"L_den":14,"R_num":15,"R_den":25,"correct_side":2,"subjID":"Laura marcela rodriguez borda 13","gender":"1","school":"4D","age":"8 años"},{"start_time":1552313161082,"click_time":1552313162694,"finger_time":1552313162334,"fix_duration":1046.38970723214,"trial":21,"RT":1252,"MT":360,"sideResp":1,"stimulus":[],"xmouse":[778,778,778,778,778,778,778,778,778,778,778,778,778,778,778,778,778,778,778,778,778,778,778,778,778,778,778,778,778,778,778,778,778,778,778,778,778,778,778,778,778,778,778,778,778,778,778,778,778,778,778,778,778,778,778,778,778,778,778,776,762,751,704,667,633,601,574,547,513,497,494,483,479,478,478,478,478,479,482,483,484],"ymouse":[621,621,621,621,621,621,621,621,621,621,621,621,621,621,621,621,621,621,621,621,621,621,621,621,621,621,621,621,621,621,621,621,621,621,621,621,621,621,621,621,621,621,621,621,621,621,621,621,621,621,621,621,621,621,621,621,621,621,619,615,594,577,512,469,428,389,350,309,247,209,200,176,154,146,140,134,127,119,108,103,97],"timestamp_mouse":[12,39,52,73,91,113,133,153,172,193,212,231,253,273,293,311,332,352,373,393,413,433,451,472,492,513,533,552,571,593,612,631,652,673,691,711,733,751,772,793,813,832,852,873,893,912,933,953,973,992,1011,1032,1051,1073,1093,1111,1132,1153,1172,1192,1212,1232,1252,1271,1292,1311,1331,1352,1373,1393,1412,1433,1452,1473,1492,1511,1531,1552,1572,1591,1612],"xSR":741.5,"ySR":573.95,"xT1":424.9,"yT1":0,"xT2":1058.1,"yT2":0,"toosoon":0,"cond_shown":"Incongruent","ratio_trial":300,"L_num":4,"L_den":20,"R_num":2,"R_den":4,"correct_side":2,"subjID":"Laura marcela rodriguez borda 13","gender":"1","school":"4D","age":"8 años"},{"start_time":1552313164759,"click_time":1552313166494,"finger_time":1552313166134,"fix_duration":462.7566225397039,"trial":22,"RT":1375,"MT":360,"sideResp":2,"stimulus":[],"xmouse":[805,805,804,803,803,803,803,803,803,803,803,803,803,803,803,803,803,803,803,803,803,803,803,803,803,803,803,803,803,803,803,803,803,803,803,803,803,803,803,803,803,803,803,803,803,803,803,803,803,804,804,804,804,805,805,806,806,806,806,806,806,806,806,806,806,807,807,810,815,818,823,830,840,873,890,903,921,930,950,959,969,980,991,1025,1043,1056,1071],"ymouse":[626,623,620,615,613,612,610,608,608,608,608,608,608,608,608,606,605,604,604,604,604,604,604,604,604,604,604,604,604,604,604,604,604,604,604,604,604,603,603,603,603,603,603,603,603,603,603,603,601,600,600,598,597,596,596,595,594,594,594,594,594,594,594,594,593,592,590,583,568,551,532,508,475,397,356,324,284,265,231,215,200,184,169,128,107,92,79],"timestamp_mouse":[21,40,55,75,95,115,134,155,176,194,214,236,254,276,294,314,336,355,376,396,414,436,455,475,496,515,536,555,575,596,616,635,655,675,695,716,736,756,776,794,815,836,855,876,896,915,935,956,975,994,1015,1035,1054,1076,1096,1115,1135,1155,1175,1195,1215,1234,1256,1276,1295,1315,1335,1354,1375,1395,1415,1436,1454,1475,1495,1516,1535,1554,1575,1596,1615,1636,1655,1675,1694,1715,1735],"xSR":741.5,"ySR":573.95,"xT1":424.9,"yT1":0,"xT2":1058.1,"yT2":0,"toosoon":0,"cond_shown":"Incongruent","ratio_trial":100,"L_num":4,"L_den":8,"R_num":8,"R_den":20,"correct_side":1,"subjID":"Laura marcela rodriguez borda 13","gender":"1","school":"4D","age":"8 años"},{"start_time":1552313174350,"click_time":1552313175956,"finger_time":1552313175075,"fix_duration":1075.3366030277296,"trial":23,"RT":725,"MT":881,"sideResp":1,"stimulus":[],"xmouse":[786,786,786,786,786,786,786,786,786,786,786,786,786,786,786,786,786,786,786,786,786,786,786,786,786,786,786,786,786,785,785,784,784,783,778,769,761,752,750,749,749,749,749,749,749,750,755,757,763,766,768,769,769,769,765,754,739,722,699,668,653,635,616,600,577,568,561,553,550,541,537,532,529,527,526,526,526,526,526,525,523],"ymouse":[624,624,624,624,624,624,624,624,623,622,622,622,622,622,622,622,622,622,622,622,622,621,621,621,621,621,620,619,619,618,616,616,615,614,593,575,558,543,539,537,536,536,536,536,536,534,530,528,521,514,511,506,499,488,451,430,407,386,358,323,306,282,262,243,206,190,178,163,156,141,133,124,116,111,103,100,99,98,96,90,86],"timestamp_mouse":[10,23,45,64,85,104,125,144,164,184,203,225,245,264,285,303,324,345,364,385,403,425,445,463,484,505,525,545,565,585,604,625,644,665,684,703,725,744,764,784,804,825,844,864,884,904,925,944,964,984,1005,1024,1044,1064,1084,1104,1124,1143,1165,1183,1204,1224,1245,1264,1284,1304,1325,1345,1364,1384,1404,1424,1445,1464,1483,1504,1524,1545,1564,1584,1605],"xSR":741.5,"ySR":573.95,"xT1":424.9,"yT1":0,"xT2":1058.1,"yT2":0,"toosoon":0,"cond_shown":"Congruent","ratio_trial":200,"L_num":6,"L_den":12,"R_num":7,"R_den":10,"correct_side":2,"subjID":"Laura marcela rodriguez borda 13","gender":"1","school":"4D","age":"8 años"},{"start_time":1552313181527,"click_time":1552313183375,"finger_time":1552313182695,"fix_duration":250,"trial":24,"RT":1168,"MT":680,"sideResp":2,"stimulus":[],"xmouse":[818,818,818,818,818,818,818,818,818,818,818,818,817,816,816,815,815,815,815,815,815,815,815,815,815,815,815,815,815,815,815,815,815,815,815,815,815,815,815,815,815,815,815,815,815,815,815,815,815,815,815,815,815,814,814,819,825,831,843,847,859,861,862,863,864,872,877,883,887,893,904,909,914,920,927,952,972,986,1003,1023,1040,1060,1060,1060,1060,1060,1062,1065,1067,1067,1069,1070,1072],"ymouse":[632,632,632,632,632,632,632,632,632,632,632,632,631,631,630,630,630,630,630,630,630,630,630,630,630,630,630,630,630,630,630,630,630,630,630,630,630,630,630,630,630,630,630,630,630,630,630,630,630,630,630,630,630,630,627,617,610,602,590,587,579,578,578,577,576,565,555,543,533,521,497,486,476,460,443,386,340,283,226,127,58,0,0,0,0,0,0,0,0,0,0,0,2],"timestamp_mouse":[10,27,47,71,88,108,126,148,167,187,208,226,247,266,287,308,326,348,366,388,408,426,447,467,487,508,528,546,568,587,607,626,648,668,686,707,727,748,767,786,808,828,847,867,887,908,926,947,968,987,1008,1027,1046,1068,1087,1108,1126,1147,1168,1188,1207,1228,1247,1266,1287,1307,1327,1347,1368,1387,1406,1428,1448,1467,1487,1507,1527,1547,1566,1586,1607,1627,1647,1667,1687,1707,1728,1746,1767,1787,1806,1827,1848],"xSR":741.5,"ySR":573.95,"xT1":424.9,"yT1":0,"xT2":1058.1,"yT2":0,"toosoon":0,"cond_shown":"Congruent","ratio_trial":300,"L_num":5,"L_den":25,"R_num":7,"R_den":14,"correct_side":2,"subjID":"Laura marcela rodriguez borda 13","gender":"1","school":"4D","age":"8 años"},{"start_time":1552313192371,"click_time":1552313196495,"finger_time":1552313193475,"fix_duration":1296.2996567664081,"trial":25,"RT":1104,"MT":3020,"sideResp":2,"stimulus":[],"xmouse":[815,815,815,815,815,815,815,815,815,815,815,815,815,815,815,815,815,815,815,815,815,815,815,815,815,815,815,815,815,815,815,815,815,815,815,815,815,815,815,815,815,815,815,815,815,815,815,815,815,815,815,815,815,817,818,820,823,824,826,828,830,832,832,837,839,842,847,858,883,895,909,921,934,954,963,969,979,986,994,997,998,999,999,999,999,999,999,999,999,999,999,999,999,1003,1006,1007,1008,1009,1009,1009,1009,1009,1009,1004,994,981,969,947,901,869,833,807,789,770,763,748,741,722,698,687,676,664,653,636,631,626,619,613,601,597,596,596,596,596,596,596,597,600,609,614,622,641,672,739,762,774,780,789,797,821,834,848,863,886,899,916,932,949,951,951,951,951,951,951,951,951,951,951,951,951,951,951,951,953,959,969,978,995,1026,1041,1053,1063,1068,1075,1075,1075,1076,1076,1076,1077,1077,1078,1079,1079,1079,1079,1079,1079,1079,1079,1079,1079,1079,1078,1078,1078,1077],"ymouse":[619,619,619,619,619,619,619,619,619,619,619,619,619,619,619,619,619,619,619,619,619,619,619,619,619,619,619,619,619,619,619,619,619,619,619,619,619,619,619,619,619,619,619,619,619,619,619,619,619,619,615,609,602,587,577,565,555,552,534,527,519,514,508,492,484,474,460,441,411,395,380,363,344,305,282,260,223,199,159,143,132,124,120,117,117,117,117,117,117,117,117,117,117,116,116,116,116,116,116,116,116,116,116,116,116,116,115,112,106,101,96,92,90,90,90,90,90,90,90,90,90,90,90,89,89,89,89,89,89,89,89,89,89,89,89,89,89,89,91,91,91,95,102,111,114,115,116,117,119,122,124,126,128,132,134,136,138,139,139,139,139,139,139,139,139,139,139,139,139,139,139,139,139,139,139,137,136,133,133,133,131,130,130,129,129,129,128,128,128,128,128,127,125,123,122,121,120,119,115,112,110,108,107,104,102,101,98],"timestamp_mouse":[17,23,42,63,82,103,122,144,164,182,204,223,242,263,283,304,322,344,364,382,404,423,444,463,483,504,523,543,563,584,604,624,644,664,684,702,723,744,764,782,804,823,843,863,883,904,922,943,963,984,1003,1023,1044,1063,1083,1104,1124,1143,1163,1182,1204,1223,1243,1263,1282,1303,1323,1344,1363,1383,1403,1424,1444,1463,1483,1504,1523,1543,1562,1583,1603,1624,1642,1663,1684,1703,1723,1742,1764,1783,1803,1823,1842,1863,1884,1902,1924,1942,1963,1984,2003,2022,2044,2063,2083,2104,2123,2143,2163,2183,2203,2224,2243,2263,2282,2303,2323,2344,2363,2384,2403,2423,2444,2463,2482,2503,2524,2543,2563,2584,2603,2622,2643,2663,2683,2703,2723,2744,2763,2784,2803,2822,2842,2863,2883,2903,2924,2943,2963,2983,3002,3023,3043,3062,3084,3102,3123,3144,3163,3182,3204,3223,3243,3263,3283,3303,3323,3344,3363,3383,3402,3423,3443,3464,3484,3503,3523,3542,3563,3583,3603,3624,3643,3662,3683,3704,3724,3744,3763,3784,3803,3823,3843,3862,3883,3904,3924,3944,3963,3984,4003,4024,4044,4062,4082,4102,4124],"xSR":741.5,"ySR":573.95,"xT1":424.9,"yT1":0,"xT2":1058.1,"yT2":0,"toosoon":0,"cond_shown":"Incongruent","ratio_trial":200,"L_num":14,"L_den":30,"R_num":12,"R_den":18,"correct_side":2,"subjID":"Laura marcela rodriguez borda 13","gender":"1","school":"4D","age":"8 años"},{"start_time":1552313203096,"click_time":1552313205234,"finger_time":1552313204794,"fix_duration":839.6771424377928,"trial":26,"RT":1698,"MT":440,"sideResp":1,"stimulus":[],"xmouse":[794,794,794,794,794,794,794,794,794,796,796,797,798,798,798,798,799,799,799,800,800,801,801,802,802,804,804,804,804,804,804,804,804,804,804,804,804,804,804,804,804,804,804,804,804,804,804,804,804,804,804,804,804,804,804,804,804,805,805,805,805,805,805,805,805,805,805,805,805,805,805,805,805,805,805,805,805,805,805,805,805,805,805,804,800,788,657,578,508,500,492,490,489,481,474,466,457,457,457,459,464,491,507,519,524,525,521],"ymouse":[616,616,616,616,616,616,616,616,616,616,615,614,613,613,613,613,612,612,612,612,611,610,610,609,609,608,608,608,608,608,608,608,608,608,608,608,608,608,608,608,608,608,608,608,608,608,608,608,608,608,608,608,608,608,608,608,607,606,605,605,605,605,605,605,605,605,605,605,605,605,605,605,605,605,605,605,605,605,605,603,601,595,589,579,568,552,465,405,340,329,314,290,279,261,245,229,199,190,182,174,167,145,135,125,113,101,80],"timestamp_mouse":[19,43,58,79,97,117,137,159,178,197,218,238,258,279,297,318,338,359,379,398,418,438,459,479,498,517,538,559,578,599,619,639,658,677,698,719,739,759,779,797,819,839,859,878,898,919,939,957,978,997,1018,1038,1057,1079,1098,1117,1138,1158,1178,1197,1218,1237,1257,1279,1299,1319,1337,1359,1379,1397,1418,1439,1457,1479,1499,1517,1538,1559,1577,1598,1618,1638,1659,1679,1698,1719,1738,1758,1778,1798,1817,1837,1859,1878,1899,1919,1938,1959,1978,1998,2019,2038,2058,2077,2097,2118,2138],"xSR":741.5,"ySR":573.95,"xT1":424.9,"yT1":0,"xT2":1058.1,"yT2":0,"toosoon":0,"cond_shown":"Congruent","ratio_trial":300,"L_num":3,"L_den":6,"R_num":2,"R_den":10,"correct_side":1,"subjID":"Laura marcela rodriguez borda 13","gender":"1","school":"4D","age":"8 años"},{"start_time":1552313212287,"click_time":1552313214034,"finger_time":1552313213534,"fix_duration":252.6138888794993,"trial":27,"RT":1247,"MT":500,"sideResp":2,"stimulus":[],"xmouse":[792,792,792,792,792,792,792,791,791,791,791,791,791,791,791,791,791,791,791,791,791,791,791,791,791,791,791,791,791,791,791,791,791,791,791,791,791,791,791,791,791,791,791,791,791,791,791,791,791,791,792,792,795,798,800,802,803,805,805,806,806,808,808,809,810,812,816,836,852,868,888,925,970,988,1002,1012,1023,1037,1041,1043,1046,1047,1047,1048,1052,1058,1067,1083],"ymouse":[605,604,604,602,602,602,601,600,600,600,600,600,600,600,600,600,600,600,600,600,600,600,600,600,600,600,600,600,600,600,600,600,600,600,600,600,600,600,600,600,600,600,600,600,600,600,600,599,598,598,597,597,592,587,585,582,581,578,577,577,575,574,573,572,571,569,565,548,537,524,509,487,459,443,425,400,374,318,294,272,255,236,210,190,166,138,101,21],"timestamp_mouse":[8,27,53,66,87,108,127,147,168,188,208,227,247,266,286,308,328,348,366,386,407,428,447,467,488,508,527,547,566,588,608,627,648,668,688,707,728,747,768,787,807,828,847,867,887,906,928,947,967,987,1007,1026,1047,1067,1087,1107,1127,1146,1168,1187,1208,1227,1247,1268,1287,1307,1327,1346,1367,1388,1407,1428,1447,1467,1488,1508,1527,1547,1566,1588,1608,1628,1647,1667,1687,1707,1728,1747],"xSR":741.5,"ySR":573.95,"xT1":424.9,"yT1":0,"xT2":1058.1,"yT2":0,"toosoon":0,"cond_shown":"Incongruent","ratio_trial":300,"L_num":13,"L_den":26,"R_num":12,"R_den":15,"correct_side":2,"subjID":"Laura marcela rodriguez borda 13","gender":"1","school":"4D","age":"8 años"},{"start_time":1552313216662,"click_time":1552313217915,"finger_time":1552313217434,"fix_duration":545.8466224722034,"trial":28,"RT":772,"MT":481,"sideResp":1,"stimulus":[],"xmouse":[805,805,805,805,805,805,805,805,805,805,805,805,805,805,805,805,805,805,805,805,805,805,805,805,805,805,805,805,805,805,805,805,805,805,805,805,804,801,798,798,798,798,798,798,798,798,798,798,798,798,798,798,798,798,798,797,795,792,788,756,691,554,468],"ymouse":[630,630,630,629,629,629,629,629,629,629,629,629,629,629,629,629,629,629,629,629,629,629,629,629,629,629,629,629,629,629,629,628,627,619,614,607,598,587,573,571,571,571,571,571,571,571,571,571,571,571,571,571,571,571,571,567,550,529,504,421,326,179,87],"timestamp_mouse":[12,31,52,72,92,113,133,151,171,193,213,232,252,271,293,313,331,351,373,391,412,433,453,472,492,513,533,553,573,591,613,632,652,672,693,712,731,752,772,791,812,833,852,873,892,913,932,951,972,993,1012,1032,1052,1073,1092,1113,1132,1151,1171,1193,1212,1232,1253],"xSR":741.5,"ySR":573.95,"xT1":424.9,"yT1":0,"xT2":1058.1,"yT2":0,"toosoon":0,"cond_shown":"Congruent","ratio_trial":200,"L_num":11,"L_den":22,"R_num":3,"R_den":10,"correct_side":1,"subjID":"Laura marcela rodriguez borda 13","gender":"1","school":"4D","age":"8 años"},{"start_time":1552313223572,"click_time":1552313225234,"finger_time":1552313224694,"fix_duration":416.83112499381537,"trial":29,"RT":1122,"MT":540,"sideResp":1,"stimulus":[],"xmouse":[772,772,772,772,772,772,772,772,772,772,772,772,772,772,772,772,772,772,772,772,772,772,772,772,772,772,772,772,772,772,772,772,772,772,772,772,772,771,771,771,771,771,771,771,771,771,771,771,771,771,771,771,771,764,759,753,747,738,719,708,694,682,670,661,649,643,636,631,624,622,621,619,618,614,609,603,600,589,577,572,567,559,538,443],"ymouse":[644,644,644,644,644,644,644,644,644,644,644,644,644,644,644,644,644,644,644,644,644,644,644,644,644,644,644,644,644,644,644,644,644,644,644,644,643,642,642,642,642,642,642,642,642,642,642,642,641,641,640,638,635,619,608,592,573,541,495,472,450,426,403,383,341,320,287,267,236,225,216,208,202,189,179,167,162,147,137,134,131,126,116,82],"timestamp_mouse":[8,23,41,61,83,102,122,143,161,183,202,223,242,261,282,302,323,341,362,383,403,422,441,463,483,502,521,541,563,583,602,623,643,661,681,702,723,743,762,781,803,822,843,863,883,901,922,943,962,982,1002,1022,1042,1062,1081,1103,1122,1143,1162,1181,1202,1222,1242,1262,1281,1302,1323,1343,1361,1381,1402,1422,1442,1463,1481,1501,1522,1543,1562,1583,1602,1622,1642,1662],"xSR":741.5,"ySR":573.95,"xT1":424.9,"yT1":0,"xT2":1058.1,"yT2":0,"toosoon":0,"cond_shown":"Congruent","ratio_trial":200,"L_num":11,"L_den":22,"R_num":3,"R_den":10,"correct_side":1,"subjID":"Laura marcela rodriguez borda 13","gender":"1","school":"4D","age":"8 años"},{"start_time":1552313230903,"click_time":1552313233656,"finger_time":1552313232354,"fix_duration":806.9360405037787,"trial":30,"RT":1451,"MT":1302,"sideResp":1,"stimulus":[],"xmouse":[797,797,798,798,798,798,798,798,798,798,798,798,799,799,799,799,799,799,800,800,801,801,801,801,801,801,801,801,801,801,801,801,801,801,801,801,801,801,801,801,801,801,801,801,801,801,801,801,801,802,803,804,807,808,809,809,809,809,809,809,809,809,809,809,809,809,809,809,809,809,809,809,809,809,810,811,812,812,812,813,813,813,813,813,813,813,813,813,813,813,813,813,813,813,813,813,813,813,813,813,813,813,813,811,807,803,789,780,767,747,733,723,705,698,689,679,643,631,626,623,619,616,615,613,611,609,607,606,603,599,585,573,556,550,544,540,530,523],"ymouse":[612,611,609,608,607,607,607,607,607,607,607,607,606,606,605,604,604,603,603,602,600,600,600,600,600,600,600,600,600,600,600,600,600,600,600,600,600,600,600,600,600,600,600,600,600,600,600,600,598,597,593,591,584,583,581,580,580,580,580,580,580,580,580,579,577,577,576,576,576,576,576,575,572,572,569,565,556,553,548,545,544,542,541,541,541,541,541,541,541,541,541,541,541,541,541,541,541,541,541,541,541,541,539,537,534,529,514,504,489,461,442,423,379,353,313,280,194,167,149,135,121,109,105,101,98,95,92,91,90,88,82,78,74,72,71,71,69,67],"timestamp_mouse":[10,39,52,71,90,111,132,150,171,192,211,232,251,271,291,312,331,352,371,390,410,430,450,470,490,510,531,551,571,590,611,631,652,670,692,710,732,751,772,792,810,830,850,871,892,910,932,950,971,992,1011,1031,1052,1071,1092,1111,1132,1150,1172,1191,1210,1231,1250,1272,1291,1312,1331,1350,1372,1392,1412,1431,1451,1470,1492,1511,1531,1552,1572,1591,1612,1631,1651,1671,1690,1710,1731,1752,1771,1791,1811,1830,1852,1872,1892,1912,1931,1952,1971,1991,2010,2030,2050,2072,2091,2112,2131,2151,2171,2190,2212,2231,2252,2272,2291,2311,2331,2351,2370,2391,2410,2430,2451,2471,2491,2511,2531,2550,2572,2591,2610,2630,2652,2671,2691,2710,2731,2752],"xSR":741.5,"ySR":573.95,"xT1":424.9,"yT1":0,"xT2":1058.1,"yT2":0,"toosoon":0,"cond_shown":"Incongruent","ratio_trial":300,"L_num":4,"L_den":20,"R_num":2,"R_den":4,"correct_side":2,"subjID":"Laura marcela rodriguez borda 13","gender":"1","school":"4D","age":"8 años"},{"start_time":1552313235856,"click_time":1552313237234,"finger_time":1552313236674,"fix_duration":920.0804274332316,"trial":31,"RT":818,"MT":560,"sideResp":2,"stimulus":[],"xmouse":[785,785,785,785,785,785,785,785,785,785,785,785,785,785,785,785,785,785,785,785,785,785,785,785,785,785,785,785,785,785,786,786,786,788,789,791,794,798,813,822,831,840,860,903,925,940,954,966,983,993,1003,1013,1025,1044,1062,1067,1069,1071,1072,1072,1072,1072,1072,1072,1075,1077,1078,1079,1082],"ymouse":[603,603,603,603,603,603,603,603,603,603,603,603,603,603,603,603,603,603,603,603,603,603,603,603,603,603,603,603,603,603,603,603,603,602,601,600,598,594,582,576,568,560,540,501,480,462,445,430,395,371,348,325,302,269,235,220,207,193,167,158,150,143,140,136,128,123,119,111,99],"timestamp_mouse":[17,41,58,77,99,119,137,158,179,198,218,239,257,279,299,319,338,359,378,399,419,438,458,479,499,519,539,557,577,597,617,639,659,677,699,718,737,758,778,797,818,839,859,877,898,918,938,959,977,997,1019,1038,1058,1078,1098,1119,1139,1159,1178,1199,1218,1237,1257,1277,1298,1318,1337,1358,1378],"xSR":741.5,"ySR":573.95,"xT1":424.9,"yT1":0,"xT2":1058.1,"yT2":0,"toosoon":0,"cond_shown":"Congruent","ratio_trial":100,"L_num":2,"L_den":5,"R_num":6,"R_den":12,"correct_side":2,"subjID":"Laura marcela rodriguez borda 13","gender":"1","school":"4D","age":"8 años"},{"start_time":1552313240794,"click_time":1552313242234,"finger_time":1552313241734,"fix_duration":1278.6470902179194,"trial":32,"RT":940,"MT":500,"sideResp":2,"stimulus":[],"xmouse":[774,775,776,776,776,776,776,776,776,776,776,776,776,776,776,776,776,776,776,777,778,778,778,778,778,778,779,780,781,781,781,781,781,781,781,781,781,781,781,781,781,781,781,781,782,784,784,782,782,782,783,790,814,835,853,873,889,916,926,938,952,963,982,991,1001,1013,1031,1043,1045,1047,1052,1056,1062],"ymouse":[636,637,638,638,638,638,638,638,638,638,638,638,638,638,638,638,638,638,638,638,638,638,638,638,638,638,638,637,636,635,635,635,635,635,635,635,635,635,635,635,635,635,635,631,627,605,595,556,549,546,540,528,486,456,431,408,389,354,340,323,308,293,259,237,214,183,137,80,58,43,28,18,10],"timestamp_mouse":[1,20,39,60,81,99,120,140,161,180,200,219,241,261,281,300,321,341,360,379,401,420,441,460,481,501,521,540,559,579,599,621,641,661,681,700,721,739,760,779,801,821,841,861,880,900,920,940,961,980,1000,1021,1040,1059,1081,1099,1120,1141,1159,1180,1200,1220,1240,1260,1281,1300,1320,1340,1361,1380,1400,1421,1440],"xSR":741.5,"ySR":573.95,"xT1":424.9,"yT1":0,"xT2":1058.1,"yT2":0,"toosoon":0,"cond_shown":"Incongruent","ratio_trial":200,"L_num":4,"L_den":6,"R_num":14,"R_den":30,"correct_side":1,"subjID":"Laura marcela rodriguez borda 13","gender":"1","school":"4D","age":"8 años"},{"start_time":1552313249805,"click_time":1552313253694,"finger_time":1552313251274,"fix_duration":1468.1143029565712,"trial":33,"RT":1469,"MT":2420,"sideResp":1,"stimulus":[],"xmouse":[770,770,770,770,770,770,770,770,770,770,770,770,770,770,770,770,770,770,770,770,770,770,770,770,770,770,770,770,770,770,770,770,770,770,770,770,770,770,770,770,770,770,770,770,770,770,770,770,770,771,771,771,771,771,771,771,771,771,771,771,770,769,769,769,769,769,769,769,769,769,769,767,765,760,752,749,738,731,726,722,716,706,701,698,696,696,693,689,682,676,669,665,665,665,665,665,665,665,665,665,665,665,665,665,665,665,665,665,665,665,665,665,665,665,664,663,663,661,655,640,621,596,594,594,594,594,594,594,593,591,588,582,581,578,575,573,567,564,560,557,553,549,548,547,545,545,545,545,545,545,545,542,540,540,540,540,539,538,536,536,535,535,534,533,533,532,532,532,532,532,531,531,530,530,530,530,529,529,528,528,528,528,528,527,527,527,526,526,526,526,526,526,525,525,524],"ymouse":[633,633,633,633,633,633,633,633,633,633,633,633,633,633,633,633,633,633,633,633,633,633,633,633,633,633,633,633,633,633,633,633,633,633,633,633,633,633,633,633,633,633,633,633,633,633,633,633,633,633,633,633,633,633,633,633,631,630,628,626,623,618,615,615,615,615,614,614,613,611,610,602,588,569,545,538,517,508,499,489,475,444,425,407,389,357,307,271,229,177,141,110,109,109,109,109,109,109,108,108,108,108,108,108,108,108,108,108,107,107,107,107,107,106,104,104,103,102,101,97,92,86,86,86,86,86,86,86,86,86,86,84,84,83,82,82,82,81,80,80,80,79,78,78,78,78,78,78,78,78,78,78,78,78,78,78,77,77,77,77,77,77,77,77,77,77,77,77,77,77,77,77,77,77,77,77,77,77,77,77,77,77,77,77,77,77,78,78,78,78,78,78,78,78,79],"timestamp_mouse":[11,41,48,70,90,109,128,150,169,189,210,228,249,270,290,309,329,348,369,390,410,429,448,469,490,510,529,550,569,590,608,630,650,670,689,709,729,750,770,788,808,830,850,869,890,909,930,948,970,989,1010,1029,1049,1070,1089,1109,1129,1150,1170,1190,1209,1230,1250,1270,1289,1308,1329,1349,1370,1389,1410,1428,1449,1469,1490,1510,1529,1549,1569,1590,1610,1629,1650,1670,1690,1709,1728,1748,1768,1789,1809,1830,1849,1869,1889,1908,1930,1949,1969,1990,2008,2028,2049,2070,2089,2110,2129,2149,2168,2189,2208,2229,2250,2269,2290,2308,2328,2349,2369,2389,2409,2429,2449,2468,2488,2509,2529,2550,2569,2589,2610,2629,2648,2668,2689,2709,2729,2749,2768,2788,2808,2829,2850,2870,2888,2909,2929,2950,2969,2990,3010,3028,3049,3068,3089,3110,3129,3149,3169,3190,3209,3230,3250,3269,3289,3308,3328,3348,3368,3389,3409,3429,3450,3470,3489,3510,3529,3548,3569,3590,3609,3630,3649,3668,3688,3709,3730,3749,3769,3789,3809,3828,3849,3870,3888],"xSR":741.5,"ySR":573.95,"xT1":424.9,"yT1":0,"xT2":1058.1,"yT2":0,"toosoon":0,"cond_shown":"Incongruent","ratio_trial":300,"L_num":4,"L_den":20,"R_num":2,"R_den":4,"correct_side":2,"subjID":"Laura marcela rodriguez borda 13","gender":"1","school":"4D","age":"8 años"},{"start_time":1552313257667,"click_time":1552313258733,"finger_time":1552313257855,"fix_duration":711.4692972897687,"trial":34,"RT":188,"MT":878,"sideResp":2,"stimulus":[],"xmouse":[782,782,782,782,781,781,781,781,781,781,781,781,781,781,782,782,782,782,782,783,783,783,783,784,784,784,784,785,785,785,785,785,785,785,785,785,786,789,803,819,836,862,873,960,1007,1040,1056,1064,1078,1084,1092,1098,1107,1122],"ymouse":[582,581,581,578,578,577,576,575,574,572,572,572,572,571,569,569,568,566,564,563,561,559,557,554,552,551,550,548,547,546,546,546,546,545,544,544,543,540,527,518,506,485,477,365,311,273,252,235,205,189,170,149,126,74],"timestamp_mouse":[10,41,48,66,88,108,127,147,167,188,208,226,246,266,287,307,327,347,367,386,407,427,447,466,486,506,526,548,567,588,608,627,647,667,688,708,727,748,766,786,807,828,848,867,888,907,928,947,966,988,1006,1027,1046,1066],"xSR":741.5,"ySR":573.95,"xT1":424.9,"yT1":0,"xT2":1058.1,"yT2":0,"toosoon":0,"cond_shown":"Congruent","ratio_trial":200,"L_num":1,"L_den":2,"R_num":21,"R_den":30,"correct_side":2,"subjID":"Laura marcela rodriguez borda 13","gender":"1","school":"4D","age":"8 años"},{"start_time":1552313265959,"click_time":1552313267454,"finger_time":1552313266615,"fix_duration":1042.6793364334267,"trial":35,"RT":656,"MT":839,"sideResp":1,"stimulus":[],"xmouse":[772,772,772,772,772,772,772,772,772,772,772,772,772,772,772,772,772,772,772,772,772,772,772,772,772,770,769,765,756,751,747,744,741,738,737,737,736,736,736,736,736,736,736,736,736,736,736,736,736,735,729,721,714,693,679,668,657,645,613,592,565,529,493,417,387,372,369,369,380,388,392,396,404,421,447],"ymouse":[639,639,639,639,639,639,639,639,639,639,639,639,639,639,639,639,639,639,639,639,639,639,639,638,638,636,635,631,622,617,611,608,604,600,600,600,599,599,599,599,599,599,599,599,599,599,599,599,599,596,589,581,570,546,532,521,508,494,449,427,399,365,324,219,164,114,80,52,6,0,0,0,0,1,12],"timestamp_mouse":[16,41,55,76,96,114,135,156,175,194,216,236,256,274,295,316,335,354,375,395,414,435,455,475,495,515,536,555,574,595,615,636,656,676,695,714,735,754,776,795,815,835,856,875,895,915,935,954,974,996,1015,1036,1055,1075,1096,1116,1136,1154,1176,1195,1215,1236,1254,1275,1295,1316,1335,1355,1376,1396,1415,1434,1454,1476,1495],"xSR":741.5,"ySR":573.95,"xT1":424.9,"yT1":0,"xT2":1058.1,"yT2":0,"toosoon":0,"cond_shown":"Congruent","ratio_trial":100,"L_num":10,"L_den":25,"R_num":3,"R_den":10,"correct_side":1,"subjID":"Laura marcela rodriguez borda 13","gender":"1","school":"4D","age":"8 años"},{"start_time":1552313273369,"click_time":1552313274735,"finger_time":1552313274154,"fix_duration":1372.1258473741993,"trial":36,"RT":785,"MT":581,"sideResp":2,"stimulus":[],"xmouse":[797,797,796,796,795,795,795,795,795,795,795,795,794,794,794,794,794,794,794,794,794,793,793,793,793,793,792,792,792,792,792,792,792,792,792,792,792,792,792,797,800,805,812,827,833,842,851,870,895,911,931,952,980,1013,1024,1030,1035,1038,1039,1041,1042,1042,1042,1043,1045,1047,1052,1055,1068],"ymouse":[607,607,607,607,606,606,606,606,606,606,606,606,605,605,605,605,604,604,604,604,604,603,603,603,603,603,602,602,602,601,601,600,600,600,599,596,595,588,582,566,554,538,521,492,477,457,440,414,362,305,237,178,128,67,47,31,13,5,1,0,0,0,0,0,0,0,0,1,16],"timestamp_mouse":[5,25,46,68,86,106,125,144,165,186,206,225,245,265,286,305,326,344,364,384,405,425,446,466,485,506,525,546,566,586,606,624,645,665,686,705,724,746,765,785,806,825,845,865,886,904,926,946,965,985,1005,1024,1044,1065,1086,1106,1126,1146,1166,1185,1206,1226,1244,1266,1284,1305,1325,1344,1366],"xSR":741.5,"ySR":573.95,"xT1":424.9,"yT1":0,"xT2":1058.1,"yT2":0,"toosoon":0,"cond_shown":"Incongruent","ratio_trial":300,"L_num":4,"L_den":5,"R_num":6,"R_den":12,"correct_side":1,"subjID":"Laura marcela rodriguez borda 13","gender":"1","school":"4D","age":"8 años"},{"start_time":1552313280819,"click_time":1552313283734,"finger_time":1552313282033,"fix_duration":1484.4060516859624,"trial":37,"RT":1214,"MT":1701,"sideResp":2,"stimulus":[],"xmouse":[793,793,793,793,793,793,793,793,793,793,793,793,793,793,793,793,793,792,792,791,790,789,789,789,788,787,786,786,786,786,786,786,786,786,786,786,786,786,786,786,786,786,787,787,787,788,788,788,789,789,789,790,790,790,791,792,793,794,796,800,809,822,826,832,841,856,863,874,880,886,890,893,897,900,906,917,940,948,954,959,966,970,974,978,980,981,983,983,983,983,983,983,983,983,983,983,985,988,992,994,1000,1002,1002,1004,1005,1008,1010,1011,1012,1014,1015,1016,1016,1016,1016,1016,1016,1014,1014,1013,1010,1009,1008,1006,1005,1005,1004,1004,1004,1004,1004,1004,1005,1006,1008,1014,1016,1020,1022,1025,1032,1037,1041,1047,1055,1067],"ymouse":[614,614,614,614,614,614,614,614,614,614,614,614,614,614,614,614,614,613,613,612,611,610,610,608,607,604,603,602,602,602,602,601,601,601,599,599,598,597,596,595,593,591,590,588,587,585,585,585,584,584,584,584,584,583,582,581,580,579,578,575,569,562,559,556,549,530,516,502,489,476,457,445,423,403,384,364,335,325,317,310,299,291,284,276,272,265,263,261,261,261,260,260,260,260,260,260,252,243,237,229,220,217,214,212,209,205,203,200,197,194,186,181,176,166,160,146,141,135,132,127,121,118,115,113,110,110,107,107,107,106,106,104,101,100,99,95,93,91,90,88,85,83,82,80,78,75],"timestamp_mouse":[14,46,54,74,96,115,135,156,176,195,214,235,256,276,294,315,335,355,376,396,415,435,455,476,495,515,535,554,575,596,614,635,656,674,695,716,735,755,776,795,815,836,854,875,894,915,935,956,975,995,1014,1034,1055,1075,1095,1115,1134,1156,1175,1196,1214,1234,1256,1275,1295,1314,1334,1355,1374,1396,1415,1435,1455,1475,1496,1515,1535,1554,1575,1596,1614,1635,1655,1676,1696,1714,1734,1755,1775,1796,1814,1834,1854,1874,1894,1915,1935,1956,1976,1994,2015,2035,2056,2075,2096,2114,2134,2155,2175,2195,2214,2234,2255,2276,2295,2314,2334,2355,2375,2394,2415,2436,2456,2475,2495,2514,2534,2555,2575,2595,2614,2635,2659,2674,2696,2715,2736,2755,2776,2796,2814,2834,2855,2875,2895,2915],"xSR":741.5,"ySR":573.95,"xT1":424.9,"yT1":0,"xT2":1058.1,"yT2":0,"toosoon":0,"cond_shown":"Congruent","ratio_trial":100,"L_num":7,"L_den":14,"R_num":9,"R_den":15,"correct_side":2,"subjID":"Laura marcela rodriguez borda 13","gender":"1","school":"4D","age":"8 años"},{"start_time":1552313286686,"click_time":1552313288053,"finger_time":1552313287533,"fix_duration":330.15391477327984,"trial":38,"RT":847,"MT":520,"sideResp":2,"stimulus":[],"xmouse":[774,774,774,774,774,774,774,774,774,774,774,774,774,774,774,774,774,774,774,774,774,774,774,774,774,774,774,774,774,774,774,774,774,774,774,774,774,774,774,780,788,797,817,827,836,845,851,861,864,867,871,874,888,898,912,927,943,981,1001,1020,1037,1062,1078,1108,1119,1120,1121,1121,1127],"ymouse":[620,620,620,620,620,620,620,620,620,620,620,620,620,620,620,620,620,620,620,620,620,620,620,620,620,620,620,620,620,620,620,620,620,620,620,620,620,620,620,610,601,591,569,556,541,526,511,484,472,462,448,435,396,373,341,302,259,168,119,69,17,0,0,0,0,0,0,0,18],"timestamp_mouse":[10,44,49,67,88,109,129,149,167,188,207,229,247,268,288,307,329,347,368,389,407,428,449,468,487,508,527,549,567,587,609,628,647,669,687,707,729,748,768,787,809,828,847,867,888,908,928,949,967,987,1008,1028,1048,1068,1088,1109,1129,1149,1169,1188,1208,1228,1247,1268,1287,1308,1328,1347,1367],"xSR":741.5,"ySR":573.95,"xT1":424.9,"yT1":0,"xT2":1058.1,"yT2":0,"toosoon":0,"cond_shown":"Incongruent","ratio_trial":100,"L_num":9,"L_den":10,"R_num":20,"R_den":25,"correct_side":1,"subjID":"Laura marcela rodriguez borda 13","gender":"1","school":"4D","age":"8 años"},{"start_time":1552313292174,"click_time":1552313294753,"finger_time":1552313293675,"fix_duration":459.54312708119295,"trial":39,"RT":1501,"MT":1078,"sideResp":2,"stimulus":[],"xmouse":[808,808,809,809,809,809,809,809,809,809,809,809,809,809,809,809,809,809,809,809,809,809,809,809,809,809,809,809,809,809,809,809,809,809,809,809,809,809,809,809,809,809,809,809,809,809,809,809,809,809,809,809,809,809,809,809,809,809,809,809,809,809,809,809,809,809,809,809,809,809,809,809,809,809,802,798,793,789,788,787,787,787,787,788,789,791,793,795,798,798,801,803,808,811,815,818,822,830,834,839,846,854,885,905,927,960,978,1010,1020,1027,1031,1034,1036,1036,1036,1036,1036,1036,1037,1037,1037,1037,1037,1038,1041,1046,1050,1058,1063],"ymouse":[617,617,614,613,613,613,613,613,613,613,613,613,613,613,613,613,613,613,613,613,613,613,613,613,613,612,611,603,603,602,602,600,596,594,590,588,587,586,586,586,586,586,586,586,586,586,586,586,586,586,586,586,586,586,586,586,586,586,586,586,586,586,586,586,586,586,586,586,586,586,586,586,586,585,571,562,553,541,537,535,533,530,523,521,518,513,509,505,493,488,483,477,466,457,450,441,434,421,417,412,405,399,379,363,344,303,271,196,156,119,84,52,0,0,0,0,0,0,0,0,0,0,0,0,2,7,13,24,29],"timestamp_mouse":[33,40,60,80,99,121,140,159,180,200,221,241,260,279,301,321,339,361,381,400,420,440,460,481,499,519,541,560,580,599,620,639,661,681,700,720,739,761,781,799,821,841,859,879,900,921,941,960,980,1000,1020,1041,1060,1080,1100,1120,1140,1159,1180,1201,1221,1240,1260,1279,1300,1319,1339,1361,1381,1400,1420,1439,1460,1481,1501,1520,1540,1559,1580,1600,1620,1640,1660,1679,1699,1720,1740,1759,1780,1800,1820,1840,1859,1881,1901,1921,1941,1960,1979,2000,2019,2040,2059,2081,2101,2121,2140,2160,2181,2201,2220,2241,2261,2280,2299,2319,2340,2360,2380,2400,2420,2439,2459,2479,2501,2519,2539,2561,2579],"xSR":741.5,"ySR":573.95,"xT1":424.9,"yT1":0,"xT2":1058.1,"yT2":0,"toosoon":0,"cond_shown":"Congruent","ratio_trial":100,"L_num":7,"L_den":14,"R_num":9,"R_den":15,"correct_side":2,"subjID":"Laura marcela rodriguez borda 13","gender":"1","school":"4D","age":"8 años"},{"start_time":1552313296546,"click_time":1552313298235,"finger_time":1552313297695,"fix_duration":250,"trial":40,"RT":1149,"MT":540,"sideResp":1,"stimulus":[],"xmouse":[837,837,837,837,837,837,837,837,837,837,837,837,837,837,837,837,837,837,836,835,835,834,833,832,830,829,829,829,829,829,829,829,829,829,829,829,829,829,829,829,829,829,829,829,829,829,829,829,829,829,829,828,826,821,814,803,801,790,783,770,765,761,756,747,711,689,665,640,609,580,574,569,567,567,566,566,566,566,566,566,556,543,531,526,518],"ymouse":[636,636,636,636,636,636,636,636,636,636,636,636,636,635,633,633,633,632,632,631,631,629,628,627,625,624,624,624,624,624,624,624,624,624,624,624,624,624,624,624,624,624,624,624,624,624,624,624,624,624,624,619,615,609,600,588,585,571,560,533,517,503,486,467,408,369,326,282,219,159,139,125,120,117,111,111,111,111,111,111,107,102,96,93,88],"timestamp_mouse":[9,45,48,67,87,108,129,149,167,189,208,228,249,268,288,308,328,347,369,388,408,429,449,468,489,508,527,549,568,589,608,628,649,668,689,708,729,749,768,787,808,828,848,869,887,907,928,948,967,987,1007,1028,1049,1069,1087,1108,1128,1149,1167,1187,1207,1228,1248,1267,1289,1308,1329,1348,1367,1387,1407,1428,1448,1468,1489,1509,1528,1547,1568,1589,1609,1628,1649,1668,1689],"xSR":741.5,"ySR":573.95,"xT1":424.9,"yT1":0,"xT2":1058.1,"yT2":0,"toosoon":0,"cond_shown":"Incongruent","ratio_trial":100,"L_num":9,"L_den":18,"R_num":6,"R_den":10,"correct_side":2,"subjID":"Laura marcela rodriguez borda 13","gender":"1","school":"4D","age":"8 años"},{"start_time":1552313302116,"click_time":1552313303475,"finger_time":1552313302833,"fix_duration":700.4632533265693,"trial":41,"RT":717,"MT":642,"sideResp":2,"stimulus":[],"xmouse":[797,797,797,797,797,797,797,797,797,797,797,797,797,797,797,797,797,797,797,797,797,797,797,797,797,797,797,797,797,797,797,797,797,797,801,813,819,830,844,852,869,876,886,894,903,916,922,930,943,954,979,988,995,1000,1004,1014,1018,1020,1024,1026,1031,1034,1037,1040,1045,1053,1057,1062],"ymouse":[612,612,612,612,612,612,612,612,612,612,612,612,612,612,612,612,612,612,612,612,612,612,612,612,612,612,611,611,611,610,606,604,601,597,590,564,549,530,506,492,461,447,430,412,392,355,332,310,275,249,192,169,144,122,107,86,79,76,71,71,69,68,67,67,66,65,64,64],"timestamp_mouse":[19,39,59,79,97,117,139,159,177,198,219,239,258,278,298,318,337,359,377,398,418,437,458,478,497,518,539,559,578,598,617,638,659,679,699,717,738,758,779,797,818,838,858,878,898,917,937,957,978,999,1017,1039,1058,1077,1099,1119,1139,1159,1178,1199,1218,1239,1258,1277,1298,1318,1339,1359],"xSR":741.5,"ySR":573.95,"xT1":424.9,"yT1":0,"xT2":1058.1,"yT2":0,"toosoon":0,"cond_shown":"Incongruent","ratio_trial":300,"L_num":3,"L_den":6,"R_num":4,"R_den":20,"correct_side":1,"subjID":"Laura marcela rodriguez borda 13","gender":"1","school":"4D","age":"8 años"},{"start_time":1552313306510,"click_time":1552313307774,"finger_time":1552313307194,"fix_duration":853.8642295396797,"trial":42,"RT":684,"MT":580,"sideResp":2,"stimulus":[],"xmouse":[788,788,788,788,788,788,788,788,788,788,788,788,788,788,788,788,788,788,788,788,788,788,788,788,788,790,794,799,803,807,815,825,831,838,845,853,870,878,887,901,911,929,937,946,950,957,969,971,972,972,973,981,987,992,996,999,1003,1003,1004,1008,1022,1045,1054,1061],"ymouse":[642,642,642,642,642,642,642,642,642,642,642,642,642,642,642,642,642,642,642,642,642,641,633,632,628,625,618,614,610,606,601,592,586,581,575,566,547,535,520,494,473,425,397,365,327,291,209,172,133,95,39,0,0,0,0,0,0,0,0,0,5,16,23,28],"timestamp_mouse":[11,24,45,65,84,104,125,143,165,184,203,225,245,264,284,304,325,345,364,383,405,424,445,464,484,504,525,545,565,583,605,624,645,664,684,703,724,743,764,785,805,823,844,863,884,905,925,944,964,983,1003,1025,1044,1063,1083,1103,1124,1144,1165,1183,1204,1225,1245,1264],"xSR":741.5,"ySR":573.95,"xT1":424.9,"yT1":0,"xT2":1058.1,"yT2":0,"toosoon":0,"cond_shown":"Incongruent","ratio_trial":100,"L_num":2,"L_den":4,"R_num":6,"R_den":15,"correct_side":1,"subjID":"Laura marcela rodriguez borda 13","gender":"1","school":"4D","age":"8 años"},{"start_time":1552313314599,"click_time":1552313316234,"finger_time":1552313315554,"fix_duration":1043.4888976564291,"trial":43,"RT":955,"MT":680,"sideResp":2,"stimulus":[],"xmouse":[780,780,780,780,780,780,780,780,780,780,780,780,780,780,780,780,780,780,778,776,775,774,774,774,774,774,774,774,774,774,774,774,774,774,774,774,774,774,774,774,774,774,775,776,780,782,790,796,803,813,826,851,868,893,900,931,986,1002,1013,1016,1016,998,990,984,981,979,979,979,979,980,982,985,986,987,993,1001,1014,1039,1047,1053,1057,1060],"ymouse":[625,625,625,625,625,625,625,625,625,625,625,625,625,625,625,625,625,620,618,616,614,613,613,613,613,613,613,613,613,613,613,613,613,613,613,613,613,613,613,613,612,612,611,609,604,601,584,571,556,540,522,491,479,468,464,441,372,332,291,256,210,147,119,98,74,60,37,27,21,15,10,9,9,9,9,9,10,17,20,21,24,26],"timestamp_mouse":[15,45,54,75,96,115,135,155,175,194,216,234,255,274,294,315,336,355,375,395,414,435,454,476,495,515,535,556,576,596,614,634,655,676,694,714,735,754,776,796,815,836,855,875,895,916,935,955,975,995,1015,1036,1055,1075,1095,1116,1134,1154,1174,1195,1215,1234,1254,1274,1295,1315,1334,1356,1375,1395,1415,1436,1455,1476,1496,1516,1534,1555,1574,1596,1615,1635],"xSR":741.5,"ySR":573.95,"xT1":424.9,"yT1":0,"xT2":1058.1,"yT2":0,"toosoon":0,"cond_shown":"Congruent","ratio_trial":300,"L_num":1,"L_den":20,"R_num":7,"R_den":20,"correct_side":2,"subjID":"Laura marcela rodriguez borda 13","gender":"1","school":"4D","age":"8 años"},{"start_time":1552313320453,"click_time":1552313321894,"finger_time":1552313321333,"fix_duration":797.8245859364172,"trial":44,"RT":880,"MT":561,"sideResp":1,"stimulus":[],"xmouse":[786,786,786,786,785,785,785,785,785,785,784,784,783,783,783,782,782,781,781,779,779,779,778,777,776,775,774,774,774,773,773,772,772,771,771,770,770,769,769,769,768,767,764,760,712,671,626,575,525,452,441,436,433,430,430,430,434,438,445,458,462,465,467,468,468,468,465,462,458,453,450,447,444],"ymouse":[643,643,641,641,639,638,637,637,636,636,635,634,632,632,631,630,629,627,626,623,622,621,620,617,614,612,611,610,610,609,608,607,606,605,603,602,601,600,600,599,597,596,592,585,539,503,464,419,372,309,297,289,279,263,245,240,234,230,226,215,210,204,193,184,163,152,142,133,125,113,107,103,99],"timestamp_mouse":[1,22,50,61,81,100,120,141,161,181,202,221,241,261,281,300,321,340,362,380,401,421,441,461,481,501,520,540,560,580,601,620,641,661,681,701,721,741,761,780,802,822,840,861,880,902,920,941,962,980,1001,1023,1041,1060,1080,1101,1121,1142,1161,1181,1201,1221,1240,1260,1281,1301,1321,1341,1361,1380,1402,1421,1441],"xSR":741.5,"ySR":573.95,"xT1":424.9,"yT1":0,"xT2":1058.1,"yT2":0,"toosoon":0,"cond_shown":"Congruent","ratio_trial":200,"L_num":8,"L_den":15,"R_num":3,"R_den":9,"correct_side":1,"subjID":"Laura marcela rodriguez borda 13","gender":"1","school":"4D","age":"8 años"},{"start_time":1552313330638,"click_time":1552313331733,"finger_time":1552313331233,"fix_duration":1443.261506274017,"trial":45,"RT":595,"MT":500,"sideResp":2,"stimulus":[],"xmouse":[771,771,771,771,770,769,768,768,768,768,768,768,768,768,768,768,768,768,768,768,768,768,768,768,768,768,768,768,768,769,774,796,813,856,981,991,994,996,996,998,1000,1004,1007,1009,1010,1009,1009,1009,1009,1016,1021,1030,1042,1054,1078],"ymouse":[595,595,595,595,593,591,590,589,589,589,589,589,589,589,589,589,589,589,589,589,589,589,589,589,589,586,583,579,576,564,549,508,487,449,370,359,344,328,297,242,221,202,189,178,154,143,135,126,121,108,102,99,96,95,92],"timestamp_mouse":[18,36,58,76,96,115,137,156,176,195,217,236,255,276,295,317,336,356,376,396,416,437,457,475,497,517,536,555,576,595,615,635,656,675,695,716,735,756,775,796,816,837,857,877,896,916,936,957,975,995,1015,1036,1056,1075,1095],"xSR":741.5,"ySR":573.95,"xT1":424.9,"yT1":0,"xT2":1058.1,"yT2":0,"toosoon":0,"cond_shown":"Congruent","ratio_trial":300,"L_num":3,"L_den":6,"R_num":4,"R_den":5,"correct_side":2,"subjID":"Laura marcela rodriguez borda 13","gender":"1","school":"4D","age":"8 años"},{"start_time":1552313335586,"click_time":1552313337036,"finger_time":1552313336193,"fix_duration":250,"trial":46,"RT":607,"MT":843,"sideResp":2,"stimulus":[],"xmouse":[837,838,838,838,838,838,838,838,838,838,838,838,837,836,836,836,836,836,836,835,834,832,831,829,828,826,825,825,825,827,834,844,869,886,906,923,940,990,1015,1037,1054,1070,1094,1109,1114,1129,1137,1142,1143,1143,1143,1143,1143,1143,1143,1143,1143,1143,1143,1143,1143,1143,1143,1143,1143,1143,1143,1141,1139,1136,1135,1133,1133],"ymouse":[652,652,652,652,652,652,652,652,652,652,652,652,652,652,652,652,652,652,652,652,651,649,646,641,637,632,624,604,594,582,567,545,485,444,401,358,310,191,132,76,23,0,0,0,0,0,0,0,0,0,0,0,0,0,0,0,0,0,0,0,0,0,0,0,0,0,0,0,0,0,0,0,3],"timestamp_mouse":[9,39,47,67,89,108,129,148,168,188,208,229,248,268,289,307,328,349,368,387,408,429,447,468,488,509,527,547,568,588,607,627,647,669,688,709,728,748,769,789,808,828,847,867,889,907,928,948,967,987,1008,1027,1048,1067,1088,1108,1128,1147,1168,1188,1209,1229,1248,1268,1288,1308,1328,1348,1368,1387,1407,1427,1450],"xSR":741.5,"ySR":573.95,"xT1":424.9,"yT1":0,"xT2":1058.1,"yT2":0,"toosoon":0,"cond_shown":"Incongruent","ratio_trial":100,"L_num":6,"L_den":10,"R_num":7,"R_den":14,"correct_side":1,"subjID":"Laura marcela rodriguez borda 13","gender":"1","school":"4D","age":"8 años"},{"start_time":1552313339723,"click_time":1552313341734,"finger_time":1552313341055,"fix_duration":588.7809194579174,"trial":47,"RT":1332,"MT":679,"sideResp":1,"stimulus":[],"xmouse":[797,791,790,790,790,790,790,790,790,790,790,790,790,790,791,792,792,792,793,794,794,794,794,794,794,794,794,794,794,794,794,794,794,794,794,794,794,794,794,794,794,794,794,794,794,794,794,794,794,794,794,794,791,788,784,783,782,782,782,782,782,782,782,781,780,776,770,742,713,651,634,623,617,612,606,602,601,597,592,583,579,574,568,560,548,543,536,534,533,533,533,533,533,533,533,533,533,532,528,516],"ymouse":[663,666,667,667,667,667,667,667,667,667,667,667,667,664,662,661,659,658,656,652,651,650,649,649,649,649,649,649,649,649,649,649,649,649,649,649,649,649,649,649,649,649,649,649,649,649,649,649,649,645,640,635,627,618,604,599,596,596,596,596,596,596,596,593,583,570,557,518,488,435,418,403,386,372,344,328,314,292,275,242,226,208,186,164,123,105,79,62,50,35,33,33,33,33,33,33,33,32,31,31],"timestamp_mouse":[34,52,70,90,112,130,150,171,191,211,232,251,272,291,311,331,351,371,390,410,431,450,471,492,512,531,550,572,591,610,631,652,672,690,711,732,752,772,792,810,830,852,870,890,911,932,952,971,990,1010,1032,1050,1071,1091,1111,1131,1151,1172,1191,1210,1230,1251,1270,1290,1311,1332,1352,1371,1390,1411,1432,1451,1472,1492,1511,1530,1550,1571,1590,1610,1631,1652,1670,1691,1710,1732,1751,1770,1792,1811,1832,1851,1871,1890,1911,1931,1952,1972,1991,2011],"xSR":741.5,"ySR":573.95,"xT1":424.9,"yT1":0,"xT2":1058.1,"yT2":0,"toosoon":0,"cond_shown":"Congruent","ratio_trial":300,"L_num":11,"L_den":22,"R_num":1,"R_den":5,"correct_side":1,"subjID":"Laura marcela rodriguez borda 13","gender":"1","school":"4D","age":"8 años"},{"start_time":1552313353407,"click_time":1552313356355,"finger_time":1552313354995,"fix_duration":250,"trial":48,"RT":1588,"MT":1360,"sideResp":1,"stimulus":[],"xmouse":[790,790,790,790,790,790,790,790,790,790,790,790,790,790,790,790,790,790,790,790,790,790,790,790,790,790,790,790,790,790,790,790,790,790,790,790,790,790,790,790,790,790,790,790,790,790,790,790,790,790,790,790,790,790,790,790,790,790,790,790,790,790,790,790,790,790,790,790,790,790,790,790,790,790,788,784,779,778,777,777,775,771,768,762,760,756,751,748,746,742,736,721,715,708,703,699,690,683,678,674,671,667,665,664,662,661,656,639,632,618,606,594,594,594,594,594,592,589,583,576,568,556,553,553,553,551,550,548,547,546,545,542,539,536,531,529,527,526,526,526,526,526,526,526,526,526,526,522],"ymouse":[633,633,633,633,633,633,633,633,633,633,633,633,633,633,633,633,633,633,633,633,633,633,633,633,633,633,633,633,633,633,633,633,633,633,633,633,633,633,633,633,633,633,633,633,633,633,633,633,633,633,633,633,633,633,633,633,633,633,633,633,633,633,633,633,633,632,632,632,632,632,632,632,632,632,630,624,601,590,582,571,558,531,518,497,493,476,458,449,438,425,407,368,349,331,313,282,236,214,194,178,169,158,155,153,150,148,145,138,132,126,121,117,117,117,117,117,115,113,111,107,105,101,99,99,99,98,97,93,92,92,90,87,86,84,81,79,78,77,77,77,77,77,77,77,77,77,77,77],"timestamp_mouse":[19,28,47,67,86,107,127,148,166,186,207,226,246,268,287,307,327,346,366,386,407,428,447,468,487,506,527,547,568,587,607,626,647,668,688,707,727,748,768,787,807,826,848,867,886,906,928,948,968,987,1007,1026,1048,1067,1088,1106,1128,1146,1168,1188,1208,1227,1248,1268,1287,1308,1328,1346,1367,1387,1407,1427,1447,1467,1487,1507,1527,1546,1566,1588,1608,1627,1646,1666,1687,1707,1727,1747,1767,1787,1807,1827,1847,1868,1886,1906,1926,1947,1967,1986,2007,2028,2046,2068,2087,2107,2126,2147,2167,2187,2207,2227,2246,2267,2288,2307,2327,2346,2366,2387,2408,2427,2447,2467,2487,2507,2526,2547,2567,2587,2608,2627,2646,2668,2688,2706,2726,2747,2767,2787,2808,2828,2847,2866,2887,2908,2927,2947],"xSR":741.5,"ySR":573.95,"xT1":424.9,"yT1":0,"xT2":1058.1,"yT2":0,"toosoon":0,"cond_shown":"Congruent","ratio_trial":300,"L_num":20,"L_den":25,"R_num":5,"R_den":10,"correct_side":1,"subjID":"Laura marcela rodriguez borda 13","gender":"1","school":"4D","age":"8 años"},{"start_time":1552313361735,"click_time":1552313362933,"finger_time":1552313362435,"fix_duration":1057.6555982673394,"trial":49,"RT":700,"MT":498,"sideResp":2,"stimulus":[],"xmouse":[787,787,787,787,787,787,787,787,787,787,787,787,787,787,787,787,787,787,787,787,787,787,787,787,787,787,787,787,787,787,787,787,787,787,797,822,833,845,856,859,864,871,874,879,885,894,897,902,909,913,927,935,945,961,976,1011,1026,1037,1052,1058,1070],"ymouse":[608,608,608,608,608,608,608,608,608,608,608,608,608,608,608,608,608,608,608,608,608,608,608,608,608,608,608,608,608,608,608,608,608,608,598,573,560,542,527,521,509,499,491,481,470,452,444,433,415,404,370,347,320,284,251,168,133,101,66,46,17],"timestamp_mouse":[1,19,39,58,78,100,120,140,159,179,199,218,240,258,278,300,320,339,358,380,398,423,440,460,479,499,518,540,558,579,599,619,639,660,679,700,720,740,759,778,800,819,838,859,880,899,919,940,959,979,998,1018,1038,1059,1078,1098,1119,1139,1159,1179,1198],"xSR":741.5,"ySR":573.95,"xT1":424.9,"yT1":0,"xT2":1058.1,"yT2":0,"toosoon":0,"cond_shown":"Incongruent","ratio_trial":200,"L_num":4,"L_den":6,"R_num":14,"R_den":30,"correct_side":1,"subjID":"Laura marcela rodriguez borda 13","gender":"1","school":"4D","age":"8 años"},{"start_time":1552313368601,"click_time":1552313369874,"finger_time":1552313369513,"fix_duration":1485.023752575091,"trial":50,"RT":912,"MT":361,"sideResp":1,"stimulus":[],"xmouse":[809,809,809,809,809,809,809,809,809,809,809,809,809,809,809,809,809,809,809,809,809,809,809,809,809,809,809,809,809,809,809,809,809,809,809,809,808,808,808,808,807,807,803,797,788,776,764,725,702,679,654,618,601,597,585,579,569,566,564,564,559,544,525,518],"ymouse":[637,637,637,637,637,637,637,637,637,637,637,637,637,637,637,637,637,637,637,637,637,637,637,637,637,637,637,637,637,637,637,637,637,637,637,637,637,637,637,637,637,634,620,598,574,550,518,424,366,309,257,169,128,116,89,75,58,54,52,51,50,46,40,39],"timestamp_mouse":[14,38,53,73,93,113,134,154,173,194,214,233,253,272,294,314,334,354,373,393,413,432,454,473,493,513,534,553,573,594,614,633,653,673,694,712,733,754,774,793,812,832,853,874,893,912,932,953,972,993,1013,1033,1053,1073,1092,1112,1133,1153,1173,1192,1213,1233,1252,1273],"xSR":741.5,"ySR":573.95,"xT1":424.9,"yT1":0,"xT2":1058.1,"yT2":0,"toosoon":0,"cond_shown":"Incongruent","ratio_trial":200,"L_num":14,"L_den":30,"R_num":12,"R_den":18,"correct_side":2,"subjID":"Laura marcela rodriguez borda 13","gender":"1","school":"4D","age":"8 años"},{"start_time":1552313377235,"click_time":1552313379734,"finger_time":1552313378934,"fix_duration":739.318378969555,"trial":51,"RT":1699,"MT":800,"sideResp":2,"stimulus":[],"xmouse":[769,769,769,769,769,769,769,769,769,769,769,769,769,769,769,769,769,769,769,769,769,769,769,769,769,771,772,772,774,775,775,777,777,778,778,778,778,778,778,781,782,783,784,785,786,787,788,788,788,789,789,789,789,789,789,789,789,789,789,789,789,789,789,789,789,789,789,789,789,789,789,789,789,789,789,789,789,789,789,789,789,789,789,790,794,796,799,800,802,808,812,820,825,831,849,858,869,881,889,910,919,935,941,958,974,981,986,991,993,996,997,999,1001,1006,1010,1012,1015,1017,1020,1030,1034,1039,1046,1053,1061],"ymouse":[645,645,645,645,645,645,645,645,645,645,645,645,645,645,645,645,645,645,645,645,645,645,645,645,645,640,639,635,632,624,621,618,616,615,615,615,614,614,613,608,605,601,596,594,589,588,586,585,584,583,583,583,583,583,583,583,583,583,583,583,583,583,583,583,583,583,583,583,583,583,583,583,583,583,583,583,583,583,