[{"start_time":1552074156036,"click_time":1552074158409,"finger_time":1552074156048,"fix_duration":644.2611300781462,"trial":0,"RT":12,"MT":2361,"sideResp":2,"stimulus":"img/750/equaldotanddens/R/15_Ratio_750_L_9_R_12.png","xmouse":[786,786,786,786,786,786,786,786,786,786,786,786,786,786,786,786,786,786,786,786,786,786,786,786,786,786,786,786,786,786,786,786,786,786,786,786,786,786,787,787,788,788,789,790,791,793,793,793,793,793,793,793,793,793,793,791,790,790,789,789,788,788,788,787,787,787,787,787,787,787,787,787,787,787,787,787,787,787,787,787,787,787,787,787,787,787,787,787,787,787,787,787,787,787,787,787,787,787,787,787,787,787,787,787,787,787,787,787,787,787,798,813,841,876,906,969,1003,1038,1081],"ymouse":[574,574,574,574,574,574,574,574,574,574,574,574,574,574,574,574,574,574,574,574,574,574,574,574,574,574,574,574,574,574,574,574,574,574,574,574,574,574,574,573,570,568,567,563,558,554,553,553,553,553,552,551,546,543,539,534,531,531,530,529,522,520,520,518,518,518,518,518,518,518,518,518,518,518,518,518,518,518,518,518,518,518,518,518,518,518,518,518,518,518,518,518,518,518,518,518,518,518,518,518,518,518,518,518,518,518,518,518,516,513,487,458,415,354,305,212,156,104,48],"timestamp_mouse":[11,33,53,72,92,111,132,152,172,193,212,233,253,273,292,311,332,351,372,392,412,432,453,472,492,512,533,553,573,593,613,632,653,672,692,712,733,752,773,793,812,833,852,872,892,911,933,953,973,992,1013,1033,1051,1072,1093,1112,1132,1151,1172,1192,1211,1233,1252,1273,1292,1311,1332,1353,1372,1393,1412,1433,1453,1471,1493,1512,1532,1553,1572,1592,1612,1633,1653,1673,1692,1712,1733,1752,1773,1793,1812,1833,1853,1871,1892,1912,1933,1953,1972,1992,2012,2033,2053,2072,2093,2112,2133,2152,2172,2192,2212,2233,2252,2271,2292,2312,2332,2352,2372],"xSR":741.5,"ySR":501.8,"xT1":424.9,"yT1":0,"xT2":1058.1,"yT2":0,"toosoon":0,"cond_shown":"equaldotanddens","ratio_trial":750,"smaller_num":"9","larger_num":"12","correct_side":2,"subjID":"LauraMAriaCamargoMendez15","gender":"1","age":"9","school":"4","test":{"fix_dur":[250,1500],"timestim":300,"targets_dim":[100,100],"targets_relative_coord":[0.3,0.7],"size_stim":[880,420],"start_dim":[100,100],"size_start":[300,300],"size_fix":60,"samplingrate":20,"img_types":["equaldotsize","equaldotanddens","randomdotsizeEA"],"ratios":[250,500,750,900],"rep_conds":9,"nTrials":120,"trials_to_rest":500,"Trials_order":[31,78,94,90,64,19,50,39,9,105,4,86,83,70,87,67,49,56,43,2,80,116,65,57,44,117,84,42,37,36,109,35,27,13,97,118,81,60,3,106,75,20,100,91,95,112,101,102,6,119,59,0,98,66,73,104,92,62,71,103,61,24,114,46,12,30,1,85,29,41,5,82,17,79,58,77,88,26,113,25,16,45,107,14,93,72,22,99,18,115,96,48,23,110,111,21,54,40,7,33,76,8,53,10,68,11,69,34,74,55,89,28,63,52,51,15,32,108,47,38],"cond_shown":["equaldotanddens","equaldotsize","equaldotanddens","equaldotsize","equaldotanddens","equaldotanddens","randomdotsizeEA","equaldotsize","equaldotsize","equaldotsize","equaldotanddens","randomdotsizeEA","randomdotsizeEA","equaldotanddens","equaldotsize","equaldotanddens","equaldotanddens","randomdotsizeEA","equaldotanddens","randomdotsizeEA","randomdotsizeEA","randomdotsizeEA","randomdotsizeEA","equaldotsize","randomdotsizeEA","equaldotsize","equaldotsize","equaldotsize","equaldotanddens","equaldotsize","equaldotanddens","randomdotsizeEA","equaldotsize","equaldotanddens","equaldotanddens","equaldotanddens","equaldotsize","equaldotsize","equaldotsize","equaldotanddens","equaldotsize","randomdotsizeEA","equaldotanddens","equaldotanddens","randomdotsizeEA","equaldotanddens","randomdotsizeEA","equaldotsize","equaldotsize","randomdotsizeEA","randomdotsizeEA","equaldotsize","randomdotsizeEA","equaldotsize","equaldotanddens","randomdotsizeEA","randomdotsizeEA","randomdotsizeEA","randomdotsizeEA","equaldotanddens","equaldotanddens","equaldotsize","equaldotsize","equaldotanddens","equaldotsize","equaldotsize","equaldotanddens","equaldotanddens","randomdotsizeEA","randomdotsizeEA","randomdotsizeEA","equaldotanddens","randomdotsizeEA","equaldotanddens","equaldotanddens","randomdotsizeEA","equaldotanddens","randomdotsizeEA","randomdotsizeEA","equaldotanddens","equaldotanddens","equaldotsize","randomdotsizeEA","randomdotsizeEA","equaldotsize","equaldotsize","equaldotanddens","equaldotsize","equaldotsize","equaldotanddens","equaldotsize","equaldotsize","randomdotsizeEA","randomdotsizeEA","equaldotsize","equaldotsize","equaldotsize","equaldotanddens","equaldotanddens","equaldotsize","equaldotanddens","randomdotsizeEA","randomdotsizeEA","equaldotanddens","randomdotsizeEA","randomdotsizeEA","equaldotsize","equaldotanddens","randomdotsizeEA","equaldotanddens","randomdotsizeEA","equaldotanddens","equaldotsize","equaldotanddens","equaldotsize","equaldotsize","randomdotsizeEA","equaldotsize","randomdotsizeEA","randomdotsizeEA"],"ratio_trial":[750,750,900,750,500,750,250,500,900,900,500,250,900,900,500,750,250,750,750,250,750,750,500,900,750,900,250,750,250,250,250,900,500,250,250,900,900,250,500,900,500,750,500,750,900,500,500,750,750,900,900,250,250,750,250,750,750,250,900,750,250,250,750,900,250,750,250,250,500,500,500,900,500,750,900,500,500,250,500,250,500,900,900,250,900,250,900,500,750,750,250,250,900,250,500,900,750,500,750,900,500,750,500,900,750,900,900,900,250,750,500,500,500,500,500,500,750,250,900,250],"smaller_num":["9","6","9","15","1","15","3","2","9","18","9","2","18","9","1","3","5","3","15","3","6","15","5","9","15","18","3","18","5","2","3","9","6","3","2","18","9","2","9","9","3","9","2","15","9","10","1","3","3","18","18","6","2","6","3","6","15","3","18","15","4","3","6","9","4","15","3","4","4","1","1","18","2","6","18","3","10","3","1","5","9","9","9","3","18","3","18","5","6","15","3","3","18","6","3","18","6","10","15","18","6","3","4","18","15","9","18","18","2","15","9","1","1","9","1","1","6","2","18","6"],"larger_num":["12","8","10","20","2","20","12","4","10","20","18","8","20","10","2","4","20","4","20","12","8","20","10","10","20","20","12","24","20","8","12","10","12","12","8","20","10","8","18","10","6","12","4","20","10","20","2","4","4","20","20","24","8","8","12","8","20","12","20","20","16","12","8","10","16","20","12","16","8","2","2","20","4","8","20","6","20","12","2","20","18","10","10","12","20","12","20","10","8","20","12","12","20","24","6","20","8","20","20","20","12","4","8","20","20","10","20","20","8","20","18","2","2","18","2","2","8","8","20","24"],"correct_side":[2,1,2,2,2,1,1,1,2,2,1,1,1,1,2,1,2,1,1,2,1,2,1,1,2,1,1,1,2,1,2,2,1,1,2,1,1,1,2,2,2,2,1,2,2,2,2,1,2,1,2,2,1,2,2,1,2,1,2,2,2,1,2,2,1,1,1,2,1,2,2,1,1,1,1,2,2,2,2,2,1,2,2,1,2,1,2,1,1,2,1,2,2,2,2,1,1,2,2,2,1,2,1,1,1,2,1,2,1,2,2,2,2,1,2,2,1,2,1,2],"img_shown":["img/750/equaldotanddens/R/15_Ratio_750_L_9_R_12.png","img/750/equaldotsize/L/13_Ratio_750_L_8_R_6.png","img/900/equaldotanddens/R/5_Ratio_900_L_9_R_10.png","img/750/equaldotsize/R/4_Ratio_750_L_15_R_20.png","img/500/equaldotanddens/R/15_Ratio_500_L_1_R_2.png","img/750/equaldotanddens/L/1_Ratio_750_L_20_R_15.png","img/250/randomdotsizeEA/L/15_Ratio_250_L_12_R_3.png","img/500/equaldotsize/L/10_Ratio_500_L_4_R_2.png","img/900/equaldotsize/R/3_Ratio_900_L_9_R_10.png","img/900/equaldotsize/R/9_Ratio_900_L_18_R_20.png","img/500/equaldotanddens/L/4_Ratio_500_L_18_R_9.png","img/250/randomdotsizeEA/L/3_Ratio_250_L_8_R_2.png","img/900/randomdotsizeEA/L/2_Ratio_900_L_20_R_18.png","img/900/equaldotanddens/L/1_Ratio_900_L_10_R_9.png","img/500/equaldotsize/R/12_Ratio_500_L_1_R_2.png","img/750/equaldotanddens/L/8_Ratio_750_L_4_R_3.png","img/250/equaldotanddens/R/12_Ratio_250_L_5_R_20.png","img/750/randomdotsizeEA/L/9_Ratio_750_L_4_R_3.png","img/750/equaldotanddens/L/1_Ratio_750_L_20_R_15.png","img/250/randomdotsizeEA/R/4_Ratio_250_L_3_R_12.png","img/750/randomdotsizeEA/L/14_Ratio_750_L_8_R_6.png","img/750/randomdotsizeEA/R/5_Ratio_750_L_15_R_20.png","img/500/randomdotsizeEA/L/7_Ratio_500_L_10_R_5.png","img/900/equaldotsize/L/1_Ratio_900_L_10_R_9.png","img/750/randomdotsizeEA/R/3_Ratio_750_L_15_R_20.png","img/900/equaldotsize/L/2_Ratio_900_L_20_R_18.png","img/250/equaldotsize/L/15_Ratio_250_L_12_R_3.png","img/750/equaldotsize/L/6_Ratio_750_L_24_R_18.png","img/250/equaldotanddens/R/12_Ratio_250_L_5_R_20.png","img/250/equaldotsize/L/1_Ratio_250_L_8_R_2.png","img/250/equaldotanddens/R/11_Ratio_250_L_3_R_12.png","img/900/randomdotsizeEA/R/3_Ratio_900_L_9_R_10.png","img/500/equaldotsize/L/13_Ratio_500_L_12_R_6.png","img/250/equaldotanddens/L/14_Ratio_250_L_12_R_3.png","img/250/equaldotanddens/R/13_Ratio_250_L_2_R_8.png","img/900/equaldotanddens/L/10_Ratio_900_L_20_R_18.png","img/900/equaldotsize/L/1_Ratio_900_L_10_R_9.png","img/250/equaldotsize/L/7_Ratio_250_L_8_R_2.png","img/500/equaldotsize/R/1_Ratio_500_L_9_R_18.png","img/900/equaldotanddens/R/3_Ratio_900_L_9_R_10.png","img/500/equaldotsize/R/2_Ratio_500_L_3_R_6.png","img/750/randomdotsizeEA/R/15_Ratio_750_L_9_R_12.png","img/500/equaldotanddens/L/10_Ratio_500_L_4_R_2.png","img/750/equaldotanddens/R/4_Ratio_750_L_15_R_20.png","img/900/randomdotsizeEA/R/3_Ratio_900_L_9_R_10.png","img/500/equaldotanddens/R/3_Ratio_500_L_10_R_20.png","img/500/randomdotsizeEA/R/15_Ratio_500_L_1_R_2.png","img/750/equaldotsize/L/8_Ratio_750_L_4_R_3.png","img/750/equaldotsize/R/7_Ratio_750_L_3_R_4.png","img/900/randomdotsizeEA/L/2_Ratio_900_L_20_R_18.png","img/900/randomdotsizeEA/R/9_Ratio_900_L_18_R_20.png","img/250/equaldotsize/R/6_Ratio_250_L_6_R_24.png","img/250/randomdotsizeEA/L/1_Ratio_250_L_8_R_2.png","img/750/equaldotsize/R/2_Ratio_750_L_6_R_8.png","img/250/equaldotanddens/R/11_Ratio_250_L_3_R_12.png","img/750/randomdotsizeEA/L/14_Ratio_750_L_8_R_6.png","img/750/randomdotsizeEA/R/5_Ratio_750_L_15_R_20.png","img/250/randomdotsizeEA/L/14_Ratio_250_L_12_R_3.png","img/900/randomdotsizeEA/R/12_Ratio_900_L_18_R_20.png","img/750/equaldotanddens/R/3_Ratio_750_L_15_R_20.png","img/250/equaldotanddens/R/10_Ratio_250_L_4_R_16.png","img/250/equaldotsize/L/14_Ratio_250_L_12_R_3.png","img/750/equaldotsize/R/2_Ratio_750_L_6_R_8.png","img/900/equaldotanddens/R/5_Ratio_900_L_9_R_10.png","img/250/equaldotsize/L/2_Ratio_250_L_16_R_4.png","img/750/equaldotsize/L/1_Ratio_750_L_20_R_15.png","img/250/equaldotanddens/L/15_Ratio_250_L_12_R_3.png","img/250/equaldotanddens/R/10_Ratio_250_L_4_R_16.png","img/500/randomdotsizeEA/L/8_Ratio_500_L_8_R_4.png","img/500/randomdotsizeEA/R/15_Ratio_500_L_1_R_2.png","img/500/randomdotsizeEA/R/15_Ratio_500_L_1_R_2.png","img/900/equaldotanddens/L/4_Ratio_900_L_20_R_18.png","img/500/randomdotsizeEA/L/5_Ratio_500_L_4_R_2.png","img/750/equaldotanddens/L/14_Ratio_750_L_8_R_6.png","img/900/equaldotanddens/L/8_Ratio_900_L_20_R_18.png","img/500/randomdotsizeEA/R/2_Ratio_500_L_3_R_6.png","img/500/equaldotanddens/R/3_Ratio_500_L_10_R_20.png","img/250/randomdotsizeEA/R/9_Ratio_250_L_3_R_12.png","img/500/randomdotsizeEA/R/15_Ratio_500_L_1_R_2.png","img/250/equaldotanddens/R/12_Ratio_250_L_5_R_20.png","img/500/equaldotanddens/L/4_Ratio_500_L_18_R_9.png","img/900/equaldotsize/R/7_Ratio_900_L_9_R_10.png","img/900/randomdotsizeEA/R/6_Ratio_900_L_9_R_10.png","img/250/randomdotsizeEA/L/14_Ratio_250_L_12_R_3.png","img/900/equaldotsize/R/11_Ratio_900_L_18_R_20.png","img/250/equaldotsize/L/14_Ratio_250_L_12_R_3.png","img/900/equaldotanddens/R/13_Ratio_900_L_18_R_20.png","img/500/equaldotsize/L/7_Ratio_500_L_10_R_5.png","img/750/equaldotsize/L/13_Ratio_750_L_8_R_6.png","img/750/equaldotanddens/R/3_Ratio_750_L_15_R_20.png","img/250/equaldotsize/L/15_Ratio_250_L_12_R_3.png","img/250/equaldotsize/R/4_Ratio_250_L_3_R_12.png","img/900/randomdotsizeEA/R/14_Ratio_900_L_18_R_20.png","img/250/randomdotsizeEA/R/6_Ratio_250_L_6_R_24.png","img/500/equaldotsize/R/2_Ratio_500_L_3_R_6.png","img/900/equaldotsize/L/10_Ratio_900_L_20_R_18.png","img/750/equaldotsize/L/13_Ratio_750_L_8_R_6.png","img/500/equaldotanddens/R/3_Ratio_500_L_10_R_20.png","img/750/equaldotanddens/R/4_Ratio_750_L_15_R_20.png","img/900/equaldotsize/R/13_Ratio_900_L_18_R_20.png","img/500/equaldotanddens/L/11_Ratio_500_L_12_R_6.png","img/750/randomdotsizeEA/R/12_Ratio_750_L_3_R_4.png","img/500/randomdotsizeEA/L/8_Ratio_500_L_8_R_4.png","img/900/equaldotanddens/L/10_Ratio_900_L_20_R_18.png","img/750/randomdotsizeEA/L/1_Ratio_750_L_20_R_15.png","img/900/randomdotsizeEA/R/5_Ratio_900_L_9_R_10.png","img/900/equaldotsize/L/4_Ratio_900_L_20_R_18.png","img/900/equaldotanddens/R/13_Ratio_900_L_18_R_20.png","img/250/randomdotsizeEA/L/1_Ratio_250_L_8_R_2.png","img/750/equaldotanddens/R/4_Ratio_750_L_15_R_20.png","img/500/randomdotsizeEA/R/6_Ratio_500_L_9_R_18.png","img/500/equaldotanddens/R/15_Ratio_500_L_1_R_2.png","img/500/equaldotsize/R/12_Ratio_500_L_1_R_2.png","img/500/equaldotanddens/L/4_Ratio_500_L_18_R_9.png","img/500/equaldotsize/R/15_Ratio_500_L_1_R_2.png","img/500/equaldotsize/R/15_Ratio_500_L_1_R_2.png","img/750/randomdotsizeEA/L/13_Ratio_750_L_8_R_6.png","img/250/equaldotsize/R/13_Ratio_250_L_2_R_8.png","img/900/randomdotsizeEA/L/4_Ratio_900_L_20_R_18.png","img/250/randomdotsizeEA/R/6_Ratio_250_L_6_R_24.png"],"Rat0":[["12_Ratio_0_L_9_R_0.png","13_Ratio_0_L_6_R_0.png","5_Ratio_0_L_2_R_0.png","6_Ratio_0_L_4_R_0.png","8_Ratio_0_L_6_R_0.png"],["1_Ratio_0_L_0_R_17.png","10_Ratio_0_L_0_R_22.png","11_Ratio_0_L_0_R_1.png","14_Ratio_0_L_0_R_24.png","15_Ratio_0_L_0_R_4.png","2_Ratio_0_L_0_R_5.png","3_Ratio_0_L_0_R_17.png","4_Ratio_0_L_0_R_7.png","7_Ratio_0_L_0_R_19.png","9_Ratio_0_L_0_R_15.png"]],"Rat250":[["1_Ratio_250_L_8_R_2.png","14_Ratio_250_L_12_R_3.png","15_Ratio_250_L_12_R_3.png","2_Ratio_250_L_16_R_4.png","3_Ratio_250_L_8_R_2.png","5_Ratio_250_L_24_R_6.png","7_Ratio_250_L_8_R_2.png"],["10_Ratio_250_L_4_R_16.png","11_Ratio_250_L_3_R_12.png","12_Ratio_250_L_5_R_20.png","13_Ratio_250_L_2_R_8.png","4_Ratio_250_L_3_R_12.png","6_Ratio_250_L_6_R_24.png","8_Ratio_250_L_1_R_4.png","9_Ratio_250_L_3_R_12.png"]],"Rat500":[["10_Ratio_500_L_4_R_2.png","11_Ratio_500_L_12_R_6.png","13_Ratio_500_L_12_R_6.png","4_Ratio_500_L_18_R_9.png","5_Ratio_500_L_4_R_2.png","7_Ratio_500_L_10_R_5.png","8_Ratio_500_L_8_R_4.png"],["1_Ratio_500_L_9_R_18.png","12_Ratio_500_L_1_R_2.png","14_Ratio_500_L_5_R_10.png","15_Ratio_500_L_1_R_2.png","2_Ratio_500_L_3_R_6.png","3_Ratio_500_L_10_R_20.png","6_Ratio_500_L_9_R_18.png","9_Ratio_500_L_2_R_4.png"]],"Rat750":[["1_Ratio_750_L_20_R_15.png","10_Ratio_750_L_4_R_3.png","13_Ratio_750_L_8_R_6.png","14_Ratio_750_L_8_R_6.png","6_Ratio_750_L_24_R_18.png","8_Ratio_750_L_4_R_3.png","9_Ratio_750_L_4_R_3.png"],["11_Ratio_750_L_12_R_16.png","12_Ratio_750_L_3_R_4.png","15_Ratio_750_L_9_R_12.png","2_Ratio_750_L_6_R_8.png","3_Ratio_750_L_15_R_20.png","4_Ratio_750_L_15_R_20.png","5_Ratio_750_L_15_R_20.png","7_Ratio_750_L_3_R_4.png"]],"Rat900":[["1_Ratio_900_L_10_R_9.png","10_Ratio_900_L_20_R_18.png","2_Ratio_900_L_20_R_18.png","4_Ratio_900_L_20_R_18.png","8_Ratio_900_L_20_R_18.png"],["11_Ratio_900_L_18_R_20.png","12_Ratio_900_L_18_R_20.png","13_Ratio_900_L_18_R_20.png","14_Ratio_900_L_18_R_20.png","15_Ratio_900_L_9_R_10.png","3_Ratio_900_L_9_R_10.png","5_Ratio_900_L_9_R_10.png","6_Ratio_900_L_9_R_10.png","7_Ratio_900_L_9_R_10.png","9_Ratio_900_L_18_R_20.png"]],"Rat1000":[["10_Ratio_1000_L_16_R_16.png","11_Ratio_1000_L_6_R_6.png","12_Ratio_1000_L_14_R_14.png","13_Ratio_1000_L_20_R_20.png","15_Ratio_1000_L_15_R_15.png","2_Ratio_1000_L_17_R_17.png","4_Ratio_1000_L_9_R_9.png","5_Ratio_1000_L_6_R_6.png","6_Ratio_1000_L_19_R_19.png","8_Ratio_1000_L_14_R_14.png","9_Ratio_1000_L_25_R_25.png"],["1_Ratio_1000_L_1_R_1.png","14_Ratio_1000_L_17_R_17.png","3_Ratio_1000_L_17_R_17.png","7_Ratio_1000_L_6_R_6.png"]]}},{"start_time":1552074160834,"click_time":1552074162050,"finger_time":1552074161829,"fix_duration":1363.1839381890616,"trial":1,"RT":995,"MT":221,"sideResp":1,"stimulus":"img/750/equaldotsize/L/13_Ratio_750_L_8_R_6.png","xmouse":[768,768,768,768,768,768,768,768,768,768,768,768,768,768,768,768,768,768,768,768,768,768,768,768,768,768,768,768,768,768,768,768,768,768,768,768,768,768,768,768,768,768,768,768,768,771,779,782,788,793,793,761,739,724,713,704,675,658,626,562,493],"ymouse":[514,514,514,514,514,514,514,514,514,514,514,514,514,514,514,514,514,514,514,514,514,514,514,514,514,514,514,514,514,514,514,514,514,514,514,514,514,514,514,514,514,514,514,514,514,509,497,493,474,452,425,344,307,287,273,262,239,224,181,101,20],"timestamp_mouse":[15,33,72,74,94,114,135,154,175,194,214,235,254,274,294,315,335,355,374,395,414,435,453,474,495,515,534,555,574,594,614,635,655,675,694,713,735,755,774,794,814,835,854,874,894,915,934,953,974,995,1016,1034,1053,1074,1093,1114,1134,1154,1173,1193,1215],"xSR":741.5,"ySR":469.95,"xT1":424.9,"yT1":0,"xT2":1058.1,"yT2":0,"toosoon":0,"cond_shown":"equaldotsize","ratio_trial":750,"smaller_num":"6","larger_num":"8","correct_side":1,"subjID":"LauraMAriaCamargoMendez15","gender":"1","age":"9","school":"4"},{"start_time":1552074163765,"click_time":1552074164688,"finger_time":1552074164467,"fix_duration":294.31463177982096,"trial":2,"RT":702,"MT":221,"sideResp":2,"stimulus":"img/900/equaldotanddens/R/5_Ratio_900_L_9_R_10.png","xmouse":[795,795,795,795,795,795,795,795,795,795,795,795,795,795,795,795,795,795,795,795,795,795,795,795,795,795,795,795,795,795,795,795,795,794,796,881,925,954,968,989,1035,1062,1083,1094,1098,1100,1102],"ymouse":[522,522,522,522,522,522,522,522,522,522,522,522,522,522,522,522,522,522,522,522,522,522,522,522,522,522,522,522,522,522,522,522,522,523,522,484,463,445,423,370,270,224,194,174,156,116,93],"timestamp_mouse":[12,28,44,64,83,104,122,144,164,183,203,222,244,263,284,303,323,343,364,383,403,422,444,464,482,504,523,544,563,584,604,623,643,663,683,702,723,744,763,782,803,824,843,863,884,903,922],"xSR":741.5,"ySR":469.95,"xT1":424.9,"yT1":0,"xT2":1058.1,"yT2":0,"toosoon":0,"cond_shown":"equaldotanddens","ratio_trial":900,"smaller_num":"9","larger_num":"10","correct_side":2,"subjID":"LauraMAriaCamargoMendez15","gender":"1","age":"9","school":"4"},{"start_time":1552074168134,"click_time":1552074168870,"finger_time":1552074168728,"fix_duration":1345.2736413877462,"trial":3,"RT":594,"MT":142,"sideResp":2,"stimulus":"img/750/equaldotsize/R/4_Ratio_750_L_15_R_20.png","xmouse":[803,803,803,803,803,803,803,803,803,803,803,803,803,803,803,803,803,803,803,803,803,803,803,803,803,803,803,804,813,871,936,1001,1066,1086,1095,1099,1099],"ymouse":[503,503,503,503,503,503,503,503,503,503,503,503,503,503,503,503,503,503,503,503,503,503,503,503,503,503,503,503,496,432,370,315,226,180,148,125,94],"timestamp_mouse":[14,36,54,74,94,115,134,155,175,194,213,233,255,275,294,314,334,354,374,395,415,434,455,474,494,515,535,554,573,594,614,634,654,674,695,714,735],"xSR":741.5,"ySR":469.95,"xT1":424.9,"yT1":0,"xT2":1058.1,"yT2":0,"toosoon":0,"cond_shown":"equaldotsize","ratio_trial":750,"smaller_num":"15","larger_num":"20","correct_side":2,"subjID":"LauraMAriaCamargoMendez15","gender":"1","age":"9","school":"4"},{"start_time":1552074170510,"click_time":1552074171509,"finger_time":1552074171168,"fix_duration":1061.8836849281472,"trial":4,"RT":658,"MT":341,"sideResp":2,"stimulus":"img/500/equaldotanddens/R/15_Ratio_500_L_1_R_2.png","xmouse":[805,805,805,805,805,804,803,803,802,802,802,802,802,802,802,802,802,802,802,802,802,802,802,802,802,802,802,802,802,802,804,809,818,860,889,925,958,995,1012,1015,1016,1017,1018,1021,1023,1025,1026,1031,1051,1066],"ymouse":[514,514,514,514,514,515,515,515,515,515,515,515,515,515,515,515,515,515,515,515,515,515,515,515,515,515,515,515,515,515,505,487,461,366,309,242,182,130,96,87,79,73,65,48,38,33,29,25,21,19],"timestamp_mouse":[25,39,58,78,97,119,138,158,177,197,219,237,257,279,299,318,338,359,379,399,419,438,459,478,499,518,538,558,579,599,618,637,658,678,698,718,738,759,779,797,818,837,857,877,898,919,938,959,977,998],"xSR":741.5,"ySR":469.95,"xT1":424.9,"yT1":0,"xT2":1058.1,"yT2":0,"toosoon":0,"cond_shown":"equaldotanddens","ratio_trial":500,"smaller_num":"1","larger_num":"2","correct_side":2,"subjID":"LauraMAriaCamargoMendez15","gender":"1","age":"9","school":"4"},{"start_time":1552074173128,"click_time":1552074174348,"finger_time":1552074173867,"fix_duration":797.9730687865833,"trial":5,"RT":739,"MT":481,"sideResp":1,"stimulus":"img/750/equaldotanddens/L/1_Ratio_750_L_20_R_15.png","xmouse":[778,778,778,778,778,778,778,778,778,778,778,778,778,778,778,778,778,778,778,778,778,778,778,778,778,778,778,778,778,778,778,778,778,778,778,778,773,751,668,617,575,536,494,432,428,426,425,424,413,404,403,403,405,407,407,407,408,408,411,415,422,430],"ymouse":[527,527,527,527,527,527,527,527,527,527,527,527,527,527,527,527,527,527,527,527,527,527,527,527,527,527,527,527,527,527,527,527,527,527,527,527,508,462,379,348,322,302,280,249,245,244,243,241,218,197,182,166,153,135,133,131,129,126,96,82,67,58],"timestamp_mouse":[9,21,44,61,80,100,119,141,161,181,200,219,239,261,281,300,320,341,360,380,401,421,440,460,481,500,520,541,560,581,601,620,639,661,680,700,720,739,760,780,800,820,841,861,881,900,920,939,960,981,999,1019,1039,1060,1080,1100,1120,1141,1160,1180,1199,1220],"xSR":741.5,"ySR":469.95,"xT1":424.9,"yT1":0,"xT2":1058.1,"yT2":0,"toosoon":0,"cond_shown":"equaldotanddens","ratio_trial":750,"smaller_num":"15","larger_num":"20","correct_side":1,"subjID":"LauraMAriaCamargoMendez15","gender":"1","age":"9","school":"4"},{"start_time":1552074177216,"click_time":1552074178308,"finger_time":1552074177768,"fix_duration":466.35477192470034,"trial":6,"RT":552,"MT":540,"sideResp":2,"stimulus":"img/250/randomdotsizeEA/L/15_Ratio_250_L_12_R_3.png","xmouse":[806,806,806,806,806,806,806,806,806,806,806,806,806,806,806,806,806,806,806,806,806,806,806,806,806,820,836,862,943,965,985,995,1009,1027,1037,1043,1045,1047,1048,1048,1048,1048,1048,1048,1048,1048,1048,1048,1048,1048,1048,1048,1048,1048,1070],"ymouse":[527,527,527,527,527,527,527,527,527,527,527,527,527,527,527,527,527,527,527,527,527,527,527,527,522,503,481,468,418,376,324,288,242,176,136,116,100,87,40,11,11,11,11,11,11,11,11,11,11,11,11,11,11,11,1],"timestamp_mouse":[13,31,52,72,92,112,132,151,171,192,212,232,251,271,293,313,331,351,373,391,413,432,452,472,492,513,533,552,574,592,612,632,653,674,692,713,733,751,774,792,812,832,852,873,893,913,933,953,972,993,1011,1033,1052,1073,1092],"xSR":741.5,"ySR":469.95,"xT1":424.9,"yT1":0,"xT2":1058.1,"yT2":0,"toosoon":0,"cond_shown":"randomdotsizeEA","ratio_trial":250,"smaller_num":"3","larger_num":"12","correct_side":1,"subjID":"LauraMAriaCamargoMendez15","gender":"1","age":"9","school":"4"},{"start_time":1552074183025,"click_time":1552074184308,"finger_time":1552074183828,"fix_duration":1495.2221966894124,"trial":7,"RT":803,"MT":480,"sideResp":1,"stimulus":"img/500/equaldotsize/L/10_Ratio_500_L_4_R_2.png","xmouse":[780,780,780,780,780,780,780,780,780,780,780,780,780,780,780,780,780,780,780,780,780,780,780,780,780,780,780,780,780,780,780,780,780,780,780,780,780,780,780,779,750,713,675,622,498,450,424,399,394,392,392,392,392,391,410,436,460,469,471,471,472,472,472,472,472],"ymouse":[511,511,511,511,511,511,511,511,511,511,511,511,511,511,511,511,511,511,511,511,511,511,511,511,511,511,511,511,511,511,510,502,496,493,488,487,486,486,486,486,464,430,385,328,222,186,165,141,134,130,130,130,130,130,115,110,106,104,103,103,103,102,101,101,98],"timestamp_mouse":[11,38,42,64,83,102,124,143,163,182,204,224,244,262,283,302,323,344,363,384,404,424,443,463,484,504,524,543,563,583,603,624,643,664,682,704,723,744,764,783,803,824,843,864,882,902,922,944,963,983,1003,1023,1043,1062,1084,1103,1123,1144,1163,1183,1202,1223,1244,1264,1283],"xSR":741.5,"ySR":469.95,"xT1":424.9,"yT1":0,"xT2":1058.1,"yT2":0,"toosoon":0,"cond_shown":"equaldotsize","ratio_trial":500,"smaller_num":"2","larger_num":"4","correct_side":1,"subjID":"LauraMAriaCamargoMendez15","gender":"1","age":"9","school":"4"},{"start_time":1552074186325,"click_time":1552074187288,"finger_time":1552074186907,"fix_duration":755.7548311565702,"trial":8,"RT":582,"MT":381,"sideResp":2,"stimulus":"img/900/equaldotsize/R/3_Ratio_900_L_9_R_10.png","xmouse":[784,784,784,784,784,784,784,784,784,784,784,784,784,784,784,784,784,784,784,784,784,784,784,784,784,784,784,788,798,812,856,881,898,929,961,998,1005,1005,1006,1008,1019,1027,1033,1039,1048,1063,1068,1073,1077],"ymouse":[506,506,506,506,506,506,506,506,506,506,506,506,506,506,506,506,506,506,506,506,506,506,506,506,506,506,502,495,478,456,399,370,349,314,279,230,216,207,204,198,188,180,170,157,146,121,113,104,94],"timestamp_mouse":[11,37,44,63,82,103,124,144,163,183,202,222,242,262,283,302,324,343,362,384,404,423,442,464,483,503,522,544,563,582,603,623,644,663,683,703,724,744,763,784,804,823,844,864,883,904,923,942,962],"xSR":741.5,"ySR":469.95,"xT1":424.9,"yT1":0,"xT2":1058.1,"yT2":0,"toosoon":0,"cond_shown":"equaldotsize","ratio_trial":900,"smaller_num":"9","larger_num":"10","correct_side":2,"subjID":"LauraMAriaCamargoMendez15","gender":"1","age":"9","school":"4"},{"start_time":1552074189166,"click_time":1552074190189,"finger_time":1552074189728,"fix_duration":976.8454758825826,"trial":9,"RT":562,"MT":461,"sideResp":2,"stimulus":"img/900/equaldotsize/R/9_Ratio_900_L_18_R_20.png","xmouse":[804,804,804,804,804,804,804,804,804,804,804,804,804,804,804,804,804,804,804,804,804,804,804,804,804,804,804,806,808,809,809,809,810,816,824,847,879,902,948,970,988,1005,1028,1078,1093,1109,1120,1122,1122,1122,1122,1121],"ymouse":[511,511,511,511,511,511,511,511,511,511,511,511,511,511,511,511,511,511,511,511,511,511,511,511,511,511,500,483,440,426,419,415,411,386,364,306,240,219,197,188,177,167,155,133,125,114,108,106,106,106,102,97],"timestamp_mouse":[10,22,42,62,82,102,122,143,161,182,203,223,241,262,282,302,322,342,363,382,402,423,443,462,482,502,523,542,562,581,601,623,642,662,681,701,722,741,763,781,803,822,843,862,882,903,922,942,963,982,1002,1023],"xSR":741.5,"ySR":469.95,"xT1":424.9,"yT1":0,"xT2":1058.1,"yT2":0,"toosoon":0,"cond_shown":"equaldotsize","ratio_trial":900,"smaller_num":"18","larger_num":"20","correct_side":2,"subjID":"LauraMAriaCamargoMendez15","gender":"1","age":"9","school":"4"},{"start_time":1552074192226,"click_time":1552074193247,"finger_time":1552074192828,"fix_duration":997.5846195957672,"trial":10,"RT":602,"MT":419,"sideResp":1,"stimulus":"img/500/equaldotanddens/L/4_Ratio_500_L_18_R_9.png","xmouse":[802,802,802,802,802,802,802,802,802,802,802,802,802,802,802,802,802,802,802,802,802,802,802,802,802,802,802,802,802,796,762,723,688,646,630,621,619,619,619,618,609,605,600,591,577,558,543,526,511,497,467,463],"ymouse":[491,491,491,491,491,491,491,491,491,491,491,491,491,491,491,491,491,491,491,491,491,491,491,491,491,491,491,491,491,482,440,390,345,297,277,264,260,260,260,259,248,239,229,214,191,165,153,143,134,123,101,93],"timestamp_mouse":[12,24,43,63,82,101,122,143,162,183,203,223,242,262,283,302,322,342,361,383,403,422,442,463,483,503,521,542,563,582,602,623,642,663,682,702,721,741,761,781,802,821,842,863,882,902,922,942,962,983,1003,1021],"xSR":741.5,"ySR":469.95,"xT1":424.9,"yT1":0,"xT2":1058.1,"yT2":0,"toosoon":0,"cond_shown":"equaldotanddens","ratio_trial":500,"smaller_num":"9","larger_num":"18","correct_side":1,"subjID":"LauraMAriaCamargoMendez15","gender":"1","age":"9","school":"4"},{"start_time":1552074194921,"click_time":1552074195947,"finger_time":1552074195547,"fix_duration":491.6945764170917,"trial":11,"RT":626,"MT":400,"sideResp":1,"stimulus":"img/250/randomdotsizeEA/L/3_Ratio_250_L_8_R_2.png","xmouse":[801,801,801,801,801,801,801,801,801,801,801,801,801,801,801,801,801,801,801,801,801,801,801,801,801,801,801,801,800,798,791,759,739,724,706,673,657,635,625,612,599,573,563,556,552,546,537,535,535,535,534,498],"ymouse":[508,508,508,508,508,508,508,508,508,508,508,508,508,508,508,508,508,508,508,508,508,508,508,508,508,508,508,508,506,503,493,465,447,432,416,390,378,362,352,337,323,296,285,276,268,258,231,204,185,165,147,68],"timestamp_mouse":[10,37,47,66,86,107,126,148,167,186,207,226,248,267,287,307,327,348,367,386,407,428,448,467,487,508,528,546,566,587,607,626,646,667,687,709,726,748,766,786,808,828,847,867,887,907,927,947,968,987,1007,1026],"xSR":741.5,"ySR":469.95,"xT1":424.9,"yT1":0,"xT2":1058.1,"yT2":0,"toosoon":0,"cond_shown":"randomdotsizeEA","ratio_trial":250,"smaller_num":"2","larger_num":"8","correct_side":1,"subjID":"LauraMAriaCamargoMendez15","gender":"1","age":"9","school":"4"},{"start_time":1552074199220,"click_time":1552074200108,"finger_time":1552074199788,"fix_duration":1050.7096959797666,"trial":12,"RT":568,"MT":320,"sideResp":2,"stimulus":"img/900/randomdotsizeEA/L/2_Ratio_900_L_20_R_18.png","xmouse":[762,763,763,763,763,763,763,764,765,767,767,767,767,767,767,767,767,767,767,767,767,767,767,767,769,771,791,810,826,843,879,921,939,951,961,970,977,985,992,1000,1005,1009,1015,1038,1078],"ymouse":[525,525,525,525,525,525,525,525,525,525,525,525,525,525,525,525,525,525,525,525,525,525,525,525,525,522,498,482,457,426,363,268,225,195,172,151,137,120,112,103,99,95,94,94,94],"timestamp_mouse":[12,27,52,67,89,108,129,147,168,189,208,229,248,269,288,309,327,348,367,388,408,428,447,468,488,508,527,548,568,588,608,628,648,668,688,707,728,747,767,788,808,828,849,869,888],"xSR":741.5,"ySR":469.95,"xT1":424.9,"yT1":0,"xT2":1058.1,"yT2":0,"toosoon":0,"cond_shown":"randomdotsizeEA","ratio_trial":900,"smaller_num":"18","larger_num":"20","correct_side":1,"subjID":"LauraMAriaCamargoMendez15","gender":"1","age":"9","school":"4"},{"start_time":1552074202176,"click_time":1552074202788,"finger_time":1552074202488,"fix_duration":1046.2387878765946,"trial":13,"RT":312,"MT":300,"sideResp":1,"stimulus":"img/900/equaldotanddens/L/1_Ratio_900_L_10_R_9.png","xmouse":[779,779,779,779,779,779,778,777,776,774,773,773,772,763,753,740,725,702,670,653,638,627,610,573,556,542,531,526,522,521,515],"ymouse":[520,520,520,520,520,520,520,519,519,519,519,518,518,499,482,463,446,413,371,355,337,325,292,243,214,179,153,135,114,105,91],"timestamp_mouse":[12,40,51,72,93,113,133,152,172,192,212,232,253,272,292,312,333,353,373,392,412,432,453,472,491,513,533,553,573,592,612],"xSR":741.5,"ySR":469.95,"xT1":424.9,"yT1":0,"xT2":1058.1,"yT2":0,"toosoon":0,"cond_shown":"equaldotanddens","ratio_trial":900,"smaller_num":"9","larger_num":"10","correct_side":1,"subjID":"LauraMAriaCamargoMendez15","gender":"1","age":"9","school":"4"},{"start_time":1552074204466,"click_time":1552074205667,"finger_time":1552074204868,"fix_duration":597.4424584990577,"trial":14,"RT":402,"MT":799,"sideResp":2,"stimulus":"img/500/equaldotsize/R/12_Ratio_500_L_1_R_2.png","xmouse":[779,779,779,779,779,779,779,779,779,779,779,779,779,779,779,779,779,779,774,764,694,671,652,638,597,578,572,572,572,572,572,572,568,567,566,566,566,566,566,566,568,578,602,639,697,822,850,890,936,985,985,985,985,985,985,985,985,985,985,1125,1123],"ymouse":[506,506,506,506,506,506,506,506,506,506,506,506,506,506,506,506,506,506,506,502,457,437,420,404,329,299,280,272,266,218,180,152,132,122,119,119,119,119,119,119,118,118,118,121,123,107,92,68,38,5,5,5,5,5,5,5,5,5,5,0,8],"timestamp_mouse":[11,31,43,63,83,103,123,143,163,182,202,223,241,262,283,301,322,342,363,383,402,422,442,463,483,501,522,542,562,583,601,621,641,661,682,702,723,743,763,782,801,821,841,862,882,901,922,943,963,983,1001,1023,1042,1062,1083,1102,1122,1143,1162,1183,1201],"xSR":741.5,"ySR":469.95,"xT1":424.9,"yT1":0,"xT2":1058.1,"yT2":0,"toosoon":0,"cond_shown":"equaldotsize","ratio_trial":500,"smaller_num":"1","larger_num":"2","correct_side":2,"subjID":"LauraMAriaCamargoMendez15","gender":"1","age":"9","school":"4"},{"start_time":1552074206719,"click_time":1552074208169,"finger_time":1552074207849,"fix_duration":250,"trial":15,"RT":1130,"MT":320,"sideResp":1,"stimulus":"img/750/equaldotanddens/L/8_Ratio_750_L_4_R_3.png","xmouse":[800,800,800,800,800,800,800,800,800,800,800,800,800,800,800,800,800,800,800,800,800,800,800,800,800,800,800,800,800,800,807,820,839,840,840,840,840,840,840,840,840,840,840,840,840,840,840,840,840,840,840,840,840,840,840,828,807,722,657,599,551,529,518,513,509,507,507,507,507,507,507,507,503],"ymouse":[535,535,535,535,535,535,535,535,535,535,535,535,535,535,535,535,535,535,535,535,535,535,535,535,535,535,535,535,535,535,526,511,491,489,489,489,489,489,489,489,489,489,489,489,489,489,489,489,489,489,489,489,489,489,489,474,455,375,320,272,245,229,219,213,209,205,203,199,194,182,159,124,22],"timestamp_mouse":[10,34,49,70,88,108,128,150,169,189,209,229,250,269,288,308,328,349,369,388,410,429,450,468,489,510,528,549,568,588,610,629,649,669,690,710,729,750,769,789,808,829,849,869,889,909,929,950,968,988,1008,1029,1048,1070,1089,1109,1130,1149,1169,1190,1210,1229,1249,1269,1288,1309,1329,1349,1369,1389,1408,1430,1450],"xSR":741.5,"ySR":469.95,"xT1":424.9,"yT1":0,"xT2":1058.1,"yT2":0,"toosoon":0,"cond_shown":"equaldotanddens","ratio_trial":750,"smaller_num":"3","larger_num":"4","correct_side":1,"subjID":"LauraMAriaCamargoMendez15","gender":"1","age":"9","school":"4"},{"start_time":1552074209407,"click_time":1552074210309,"finger_time":1552074209928,"fix_duration":458.4694802977947,"trial":16,"RT":521,"MT":381,"sideResp":2,"stimulus":"img/250/equaldotanddens/R/12_Ratio_250_L_5_R_20.png","xmouse":[795,795,795,795,795,795,795,795,795,793,793,793,790,784,783,782,782,782,782,782,782,782,782,784,789,806,823,837,856,916,950,972,982,996,1002,1009,1012,1013,1015,1016,1016,1016,1016,1017,1040,1059],"ymouse":[528,528,528,528,528,528,528,528,528,526,526,525,524,523,522,522,522,522,522,522,522,522,522,519,511,486,467,447,425,342,308,279,256,182,167,151,137,119,105,102,99,97,96,95,88,86],"timestamp_mouse":[10,21,41,73,81,100,121,141,160,180,201,221,241,260,281,301,321,341,360,382,401,422,442,460,482,502,521,541,561,581,601,622,641,661,680,701,722,742,761,781,801,822,842,861,882,902],"xSR":741.5,"ySR":469.95,"xT1":424.9,"yT1":0,"xT2":1058.1,"yT2":0,"toosoon":0,"cond_shown":"equaldotanddens","ratio_trial":250,"smaller_num":"5","larger_num":"20","correct_side":2,"subjID":"LauraMAriaCamargoMendez15","gender":"1","age":"9","school":"4"},{"start_time":1552074212209,"click_time":1552074213470,"finger_time":1552074213269,"fix_duration":997.0373325698337,"trial":17,"RT":1060,"MT":201,"sideResp":1,"stimulus":"img/750/randomdotsizeEA/L/9_Ratio_750_L_4_R_3.png","xmouse":[811,810,810,810,810,810,810,810,810,810,810,810,810,810,810,810,810,810,810,810,810,810,810,810,810,810,810,810,810,810,810,810,810,810,810,810,810,810,810,810,810,810,810,810,810,810,810,810,810,810,810,806,799,769,687,631,604,583,565,490,463,450,449,451],"ymouse":[502,503,503,503,503,503,503,503,503,503,503,503,503,503,503,503,503,503,503,503,503,503,503,503,503,503,503,503,503,503,503,503,503,503,503,503,502,501,500,500,499,499,499,499,499,499,499,499,499,499,499,492,486,458,394,354,336,318,297,186,161,136,113,90],"timestamp_mouse":[1,24,39,60,80,98,119,139,158,178,198,219,240,259,280,299,319,338,359,380,399,419,439,459,480,500,519,539,560,579,600,619,640,659,679,700,718,739,760,778,799,819,839,858,880,898,918,940,960,978,999,1019,1039,1060,1078,1098,1118,1140,1159,1180,1199,1220,1238,1261],"xSR":741.5,"ySR":469.95,"xT1":424.9,"yT1":0,"xT2":1058.1,"yT2":0,"toosoon":0,"cond_shown":"randomdotsizeEA","ratio_trial":750,"smaller_num":"3","larger_num":"4","correct_side":1,"subjID":"LauraMAriaCamargoMendez15","gender":"1","age":"9","school":"4"},{"start_time":1552074215120,"click_time":1552074216848,"finger_time":1552074215707,"fix_duration":250,"trial":18,"RT":587,"MT":1141,"sideResp":1,"stimulus":"img/750/equaldotanddens/L/1_Ratio_750_L_20_R_15.png","xmouse":[770,770,770,770,770,770,770,770,770,770,770,770,770,770,770,770,770,770,770,770,770,770,770,770,771,773,783,785,802,813,824,840,860,923,942,948,950,950,950,950,950,950,950,948,942,938,936,928,870,829,808,794,777,684,639,590,541,452,343,332,327,325,325,325,325,325,325,325,325,325,389,393,399,400,400,400,400,402,413,415,416,416,416,416,418,422,429],"ymouse":[502,502,502,502,502,502,502,502,502,502,502,502,502,502,502,502,502,502,502,502,502,502,502,502,502,501,491,489,472,459,444,422,398,316,284,270,264,263,263,263,263,262,261,258,256,255,255,255,256,262,263,264,264,250,232,210,188,141,76,56,39,20,3,3,3,3,3,3,3,3,2,9,20,22,22,22,22,27,41,45,46,46,46,46,46,46,47],"timestamp_mouse":[12,34,48,67,89,109,129,149,168,187,209,228,247,268,287,307,328,348,369,388,408,429,447,468,488,508,528,547,567,587,608,627,647,667,688,708,727,749,768,788,809,828,849,867,887,908,927,949,967,988,1009,1028,1048,1067,1088,1107,1128,1148,1167,1188,1208,1228,1248,1269,1289,1308,1327,1349,1368,1389,1408,1429,1449,1467,1487,1509,1529,1549,1567,1589,1608,1628,1648,1668,1688,1707,1727],"xSR":741.5,"ySR":469.95,"xT1":424.9,"yT1":0,"xT2":1058.1,"yT2":0,"toosoon":0,"cond_shown":"equaldotanddens","ratio_trial":750,"smaller_num":"15","larger_num":"20","correct_side":1,"subjID":"LauraMAriaCamargoMendez15","gender":"1","age":"9","school":"4"},{"start_time":1552074220352,"click_time":1552074221207,"finger_time":1552074220989,"fix_duration":943.5566613262287,"trial":19,"RT":637,"MT":218,"sideResp":2,"stimulus":"img/250/randomdotsizeEA/R/4_Ratio_250_L_3_R_12.png","xmouse":[782,782,782,782,782,782,782,782,782,782,782,782,782,782,782,782,782,782,783,784,784,784,784,784,784,784,784,784,784,794,808,925,1009,1030,1060,1064,1066,1068,1070,1071,1072,1072,1074],"ymouse":[519,519,519,519,519,519,519,519,519,519,519,519,519,519,519,519,519,518,516,516,516,516,516,516,516,516,516,516,512,502,491,399,316,293,259,244,218,208,198,188,172,147,72],"timestamp_mouse":[16,42,57,77,95,117,137,157,176,215,215,236,256,276,295,316,336,357,377,395,415,437,457,477,496,516,536,557,576,597,616,637,656,676,697,715,738,755,776,795,815,835,855],"xSR":741.5,"ySR":469.95,"xT1":424.9,"yT1":0,"xT2":1058.1,"yT2":0,"toosoon":0,"cond_shown":"randomdotsizeEA","ratio_trial":250,"smaller_num":"3","larger_num":"12","correct_side":2,"subjID":"LauraMAriaCamargoMendez15","gender":"1","age":"9","school":"4"},{"start_time":1552074223090,"click_time":1552074224348,"finger_time":1552074223807,"fix_duration":1000.9710837746692,"trial":20,"RT":717,"MT":541,"sideResp":1,"stimulus":"img/750/randomdotsizeEA/L/14_Ratio_750_L_8_R_6.png","xmouse":[792,792,792,792,792,791,791,791,791,791,791,791,791,791,791,791,791,791,791,791,791,791,791,791,791,791,791,791,791,791,791,787,781,773,767,753,746,735,721,703,678,661,642,629,622,614,609,605,603,601,589,575,558,540,533,532,532,529,523,515,506,504,504],"ymouse":[544,544,544,544,544,544,544,544,544,544,543,542,542,542,542,542,542,542,542,542,542,542,542,542,542,542,542,542,542,542,541,534,524,508,492,454,435,413,383,354,287,253,227,212,202,188,181,177,174,173,172,172,172,172,172,171,171,167,160,146,121,106,90],"timestamp_mouse":[24,39,59,86,98,119,138,157,178,198,219,238,258,278,299,318,338,359,378,398,418,437,459,479,498,518,539,559,579,598,617,638,657,679,697,717,738,758,778,799,819,837,858,879,898,917,939,958,977,998,1019,1039,1058,1079,1097,1118,1138,1157,1178,1198,1218,1238,1258],"xSR":741.5,"ySR":469.95,"xT1":424.9,"yT1":0,"xT2":1058.1,"yT2":0,"toosoon":0,"cond_shown":"randomdotsizeEA","ratio_trial":750,"smaller_num":"6","larger_num":"8","correct_side":1,"subjID":"LauraMAriaCamargoMendez15","gender":"1","age":"9","school":"4"},{"start_time":1552074225460,"click_time":1552074226328,"finger_time":1552074225989,"fix_duration":250,"trial":21,"RT":529,"MT":339,"sideResp":2,"stimulus":"img/750/randomdotsizeEA/R/5_Ratio_750_L_15_R_20.png","xmouse":[809,809,809,809,809,809,809,809,809,809,809,809,809,809,809,809,809,809,809,809,809,809,809,812,814,822,829,861,874,890,904,923,938,963,972,982,997,1009,1015,1023,1030,1036,1051,1064],"ymouse":[487,487,487,487,487,487,487,487,487,487,487,487,487,487,487,487,487,487,487,487,487,487,487,485,483,472,466,426,408,385,359,327,301,259,241,222,200,170,149,128,106,87,63,57],"timestamp_mouse":[9,29,63,69,87,108,129,147,168,188,208,228,248,269,287,309,329,348,369,389,407,427,448,468,487,508,529,548,568,588,608,627,647,667,688,708,728,749,769,789,809,828,847,867],"xSR":741.5,"ySR":469.95,"xT1":424.9,"yT1":0,"xT2":1058.1,"yT2":0,"toosoon":0,"cond_shown":"randomdotsizeEA","ratio_trial":750,"smaller_num":"15","larger_num":"20","correct_side":2,"subjID":"LauraMAriaCamargoMendez15","gender":"1","age":"9","school":"4"},{"start_time":1552074227601,"click_time":1552074228568,"finger_time":1552074228108,"fix_duration":250,"trial":22,"RT":507,"MT":460,"sideResp":1,"stimulus":"img/500/randomdotsizeEA/L/7_Ratio_500_L_10_R_5.png","xmouse":[807,807,807,807,807,807,807,807,807,807,807,807,807,807,807,807,807,807,807,807,807,807,807,805,800,790,790,786,769,753,723,712,698,683,667,641,633,623,606,595,576,568,558,551,545,542,536,532,520],"ymouse":[485,485,485,485,485,485,485,485,485,485,485,485,485,485,485,485,485,485,485,485,485,485,483,480,474,469,468,465,451,436,399,383,364,340,310,258,236,214,185,168,136,123,112,103,96,92,88,87,81],"timestamp_mouse":[9,28,47,67,91,107,128,147,167,187,206,228,248,266,288,308,326,348,367,387,406,427,446,467,487,507,526,546,567,588,607,627,647,667,687,708,727,747,768,788,808,826,847,867,887,908,928,948,967],"xSR":741.5,"ySR":469.95,"xT1":424.9,"yT1":0,"xT2":1058.1,"yT2":0,"toosoon":0,"cond_shown":"randomdotsizeEA","ratio_trial":500,"smaller_num":"5","larger_num":"10","correct_side":1,"subjID":"LauraMAriaCamargoMendez15","gender":"1","age":"9","school":"4"},{"start_time":1552074230568,"click_time":1552074231528,"finger_time":1552074231148,"fix_duration":1076.9004076521046,"trial":23,"RT":580,"MT":380,"sideResp":2,"stimulus":"img/900/equaldotsize/L/1_Ratio_900_L_10_R_9.png","xmouse":[807,807,807,807,807,807,807,807,807,807,807,807,807,807,807,808,809,810,810,811,811,811,811,811,811,811,811,813,818,826,836,845,861,867,877,887,897,907,932,954,966,981,994,1013,1024,1036,1046,1054,1060],"ymouse":[492,492,492,492,492,492,492,492,492,492,492,492,492,492,492,492,492,491,489,487,487,487,485,485,485,485,484,482,470,443,421,400,362,346,328,307,285,260,201,163,147,131,115,85,71,58,47,38,33],"timestamp_mouse":[9,21,45,61,81,101,120,140,161,180,200,220,240,260,279,300,320,339,360,380,399,420,441,461,480,501,521,539,560,580,601,620,642,659,680,701,720,742,760,780,799,819,840,860,880,900,920,940,960],"xSR":741.5,"ySR":469.95,"xT1":424.9,"yT1":0,"xT2":1058.1,"yT2":0,"toosoon":0,"cond_shown":"equaldotsize","ratio_trial":900,"smaller_num":"9","larger_num":"10","correct_side":1,"subjID":"LauraMAriaCamargoMendez15","gender":"1","age":"9","school":"4"},{"start_time":1552074233396,"click_time":1552074234227,"finger_time":1552074233689,"fix_duration":1065.3723707886031,"trial":24,"RT":293,"MT":538,"sideResp":1,"stimulus":"img/750/randomdotsizeEA/R/3_Ratio_750_L_15_R_20.png","xmouse":[777,777,777,777,777,777,777,776,776,776,776,776,776,776,776,773,770,764,756,753,750,741,732,719,695,676,651,639,630,614,596,559,551,546,542,539,537,536,535,532,529,502],"ymouse":[496,496,496,496,496,496,496,496,494,493,491,486,481,475,469,461,447,433,420,410,401,374,356,330,282,238,180,162,149,132,120,99,93,88,85,81,80,79,79,78,76,67],"timestamp_mouse":[16,44,53,71,92,112,132,152,171,192,212,231,252,273,293,313,332,352,371,392,412,432,452,471,492,512,532,552,572,592,613,631,652,672,693,712,733,752,772,791,812,831],"xSR":741.5,"ySR":469.95,"xT1":424.9,"yT1":0,"xT2":1058.1,"yT2":0,"toosoon":0,"cond_shown":"randomdotsizeEA","ratio_trial":750,"smaller_num":"15","larger_num":"20","correct_side":2,"subjID":"LauraMAriaCamargoMendez15","gender":"1","age":"9","school":"4"},{"start_time":1552074236408,"click_time":1552074237449,"finger_time":1552074237048,"fix_duration":1458.8066303710618,"trial":25,"RT":640,"MT":401,"sideResp":2,"stimulus":"img/900/equaldotsize/L/2_Ratio_900_L_20_R_18.png","xmouse":[771,771,771,771,771,771,771,771,771,771,771,771,771,772,772,772,772,772,772,772,772,772,772,772,772,772,772,772,772,772,772,772,776,789,811,824,853,853,853,853,853,853,853,853,853,853,853,853,853,853,853,853,1083],"ymouse":[529,529,529,529,529,529,529,529,529,529,529,529,529,523,520,516,511,510,509,508,506,500,496,496,495,495,495,495,495,495,493,490,442,380,230,140,7,7,7,7,7,7,7,7,7,7,7,7,7,7,7,7,28],"timestamp_mouse":[9,20,43,60,81,99,119,140,161,180,199,219,241,260,280,300,320,341,360,380,399,420,441,461,479,500,519,539,560,581,601,619,640,659,681,700,720,740,760,780,800,820,840,860,881,900,920,941,960,980,1000,1020,1041],"xSR":741.5,"ySR":469.95,"xT1":424.9,"yT1":0,"xT2":1058.1,"yT2":0,"toosoon":0,"cond_shown":"equaldotsize","ratio_trial":900,"smaller_num":"18","larger_num":"20","correct_side":1,"subjID":"LauraMAriaCamargoMendez15","gender":"1","age":"9","school":"4"},{"start_time":1552074238547,"click_time":1552074239288,"finger_time":1552074239008,"fix_duration":275.3806811525036,"trial":26,"RT":461,"MT":280,"sideResp":1,"stimulus":"img/250/equaldotsize/L/15_Ratio_250_L_12_R_3.png","xmouse":[766,766,766,766,766,766,766,767,768,768,768,768,769,771,771,772,772,772,772,772,771,768,757,746,724,645,625,610,594,573,556,552,547,542,528,517,498,484],"ymouse":[526,526,526,526,526,526,526,526,526,526,526,526,525,523,522,517,515,513,512,509,502,498,482,468,436,333,302,281,259,236,207,196,186,176,148,132,105,87],"timestamp_mouse":[9,21,40,61,82,102,120,142,161,180,202,222,241,260,281,300,320,340,361,381,401,421,442,461,481,500,520,542,561,582,602,621,642,662,683,700,721,741],"xSR":741.5,"ySR":469.95,"xT1":424.9,"yT1":0,"xT2":1058.1,"yT2":0,"toosoon":0,"cond_shown":"equaldotsize","ratio_trial":250,"smaller_num":"3","larger_num":"12","correct_side":1,"subjID":"LauraMAriaCamargoMendez15","gender":"1","age":"9","school":"4"},{"start_time":1552074241734,"click_time":1552074242648,"finger_time":1552074242308,"fix_duration":1044.72441526229,"trial":27,"RT":574,"MT":340,"sideResp":2,"stimulus":"img/750/equaldotsize/L/6_Ratio_750_L_24_R_18.png","xmouse":[790,790,790,790,790,790,790,790,790,790,790,790,790,790,790,790,790,790,790,790,790,790,790,790,790,790,790,790,794,796,809,825,847,877,933,994,1017,1037,1048,1055,1057,1057,1057,1057,1057,1061],"ymouse":[499,499,499,499,499,499,499,499,499,499,499,499,499,499,499,499,499,499,499,499,499,499,499,499,497,488,480,470,459,445,406,378,339,293,223,135,97,65,45,35,29,29,29,29,29,28],"timestamp_mouse":[16,47,53,74,94,115,134,154,174,195,215,233,254,274,294,313,334,354,374,395,413,433,455,475,495,513,534,555,574,595,614,635,655,675,694,714,734,754,775,794,813,834,855,874,894,914],"xSR":741.5,"ySR":469.95,"xT1":424.9,"yT1":0,"xT2":1058.1,"yT2":0,"toosoon":0,"cond_shown":"equaldotsize","ratio_trial":750,"smaller_num":"18","larger_num":"24","correct_side":1,"subjID":"LauraMAriaCamargoMendez15","gender":"1","age":"9","school":"4"},{"start_time":1552074243738,"click_time":1552074244428,"finger_time":1552074244089,"fix_duration":348.1363634450061,"trial":28,"RT":351,"MT":339,"sideResp":2,"stimulus":"img/250/equaldotanddens/R/12_Ratio_250_L_5_R_20.png","xmouse":[792,792,791,790,790,789,788,788,788,787,787,787,787,787,787,784,775,758,735,719,715,736,772,785,817,845,901,921,931,934,940,968,1023,1058,1070],"ymouse":[554,554,550,548,547,546,545,544,543,542,542,541,539,536,532,513,490,449,395,346,308,253,226,221,214,203,183,171,162,156,147,115,86,73,65],"timestamp_mouse":[26,30,49,70,90,110,130,150,169,190,211,229,249,270,291,310,331,351,370,389,410,431,450,470,489,510,530,550,570,591,610,630,649,669,690],"xSR":741.5,"ySR":469.95,"xT1":424.9,"yT1":0,"xT2":1058.1,"yT2":0,"toosoon":0,"cond_shown":"equaldotanddens","ratio_trial":250,"smaller_num":"5","larger_num":"20","correct_side":2,"subjID":"LauraMAriaCamargoMendez15","gender":"1","age":"9","school":"4"},{"start_time":1552074245488,"click_time":1552074246268,"finger_time":1552074245968,"fix_duration":417.4720296390273,"trial":29,"RT":480,"MT":300,"sideResp":1,"stimulus":"img/250/equaldotsize/L/1_Ratio_250_L_8_R_2.png","xmouse":[815,815,815,815,815,815,815,815,815,815,815,815,815,815,815,815,815,815,815,815,815,815,815,805,786,737,670,639,610,585,567,553,547,545,545,545,545,543,526,513],"ymouse":[491,491,491,491,491,491,491,491,491,491,491,491,491,491,491,491,491,491,491,491,491,491,489,477,464,444,419,405,370,341,316,292,268,227,205,177,151,120,83,67],"timestamp_mouse":[7,22,41,60,81,100,119,141,159,179,200,220,240,260,280,299,320,341,360,379,399,420,440,460,480,499,520,539,561,580,600,621,641,661,679,700,721,741,761,780],"xSR":741.5,"ySR":469.95,"xT1":424.9,"yT1":0,"xT2":1058.1,"yT2":0,"toosoon":0,"cond_shown":"equaldotsize","ratio_trial":250,"smaller_num":"2","larger_num":"8","correct_side":1,"subjID":"LauraMAriaCamargoMendez15","gender":"1","age":"9","school":"4"},{"start_time":1552074248122,"click_time":1552074248950,"finger_time":1552074248629,"fix_duration":1292.8538254503826,"trial":30,"RT":507,"MT":321,"sideResp":2,"stimulus":"img/250/equaldotanddens/R/11_Ratio_250_L_3_R_12.png","xmouse":[784,784,784,784,784,784,784,784,784,784,784,785,785,785,785,785,785,785,785,785,785,785,785,785,800,837,931,1009,1082,1126,1156,1174,1182,1186,1188,1188,1188,1185,1184,1183,1179,1151],"ymouse":[502,503,503,503,503,503,503,503,503,502,500,494,491,491,491,491,491,491,491,491,491,491,491,491,483,459,377,311,248,190,146,96,70,55,42,32,25,17,14,13,12,12],"timestamp_mouse":[6,26,45,66,85,105,127,146,166,187,207,227,247,266,286,305,326,346,367,386,407,425,446,466,487,507,527,546,566,586,606,629,645,666,687,707,725,746,766,786,806,828],"xSR":741.5,"ySR":469.95,"xT1":424.9,"yT1":0,"xT2":1058.1,"yT2":0,"toosoon":0,"cond_shown":"equaldotanddens","ratio_trial":250,"smaller_num":"3","larger_num":"12","correct_side":2,"subjID":"LauraMAriaCamargoMendez15","gender":"1","age":"9","school":"4"},{"start_time":1552074250153,"click_time":1552074251068,"finger_time":1552074250488,"fix_duration":283.5416207044663,"trial":31,"RT":335,"MT":580,"sideResp":2,"stimulus":"img/900/randomdotsizeEA/R/3_Ratio_900_L_9_R_10.png","xmouse":[780,780,780,780,780,780,780,780,780,780,780,780,780,780,780,782,790,804,819,835,872,881,892,900,902,905,905,906,910,916,939,947,954,959,963,974,982,986,994,1001,1011,1013,1021,1032,1047,1070],"ymouse":[479,479,479,479,479,479,479,479,479,479,479,479,479,479,479,479,469,452,434,417,378,362,347,331,320,302,300,298,293,287,266,254,243,235,228,218,213,206,197,188,170,163,153,141,129,98],"timestamp_mouse":[16,35,55,74,94,114,135,154,174,196,216,235,254,275,296,314,335,354,375,396,414,435,455,474,495,514,535,556,576,596,614,635,654,674,695,715,734,756,775,796,815,835,855,876,895,915],"xSR":741.5,"ySR":469.95,"xT1":424.9,"yT1":0,"xT2":1058.1,"yT2":0,"toosoon":0,"cond_shown":"randomdotsizeEA","ratio_trial":900,"smaller_num":"9","larger_num":"10","correct_side":2,"subjID":"LauraMAriaCamargoMendez15","gender":"1","age":"9","school":"4"},{"start_time":1552074252637,"click_time":1552074253887,"finger_time":1552074252968,"fix_duration":867.6097640957166,"trial":32,"RT":331,"MT":919,"sideResp":1,"stimulus":"img/500/equaldotsize/L/13_Ratio_500_L_12_R_6.png","xmouse":[791,791,791,791,791,791,791,791,791,791,791,791,791,792,794,804,833,851,878,916,957,1037,1076,1084,1100,1101,1101,1101,1101,1101,1101,1101,1101,1101,1103,1104,1104,1104,1104,1104,1104,1104,1104,1104,1103,1093,1001,920,822,730,659,629,602,591,581,569,548,541,537,531,522,496,457],"ymouse":[507,507,507,507,507,507,507,507,507,507,507,507,504,500,495,480,440,413,379,346,310,244,213,206,191,187,186,186,186,186,185,172,158,147,139,132,130,129,129,128,128,128,128,128,128,138,192,230,263,290,299,300,297,290,280,265,233,220,211,195,173,114,24],"timestamp_mouse":[10,37,50,72,90,110,132,150,172,192,212,231,251,271,290,311,331,351,371,391,411,431,450,471,492,511,531,550,571,590,611,631,650,670,690,711,732,751,772,791,812,831,850,872,892,912,932,950,970,992,1012,1031,1051,1071,1091,1111,1131,1151,1170,1191,1211,1232,1250],"xSR":741.5,"ySR":469.95,"xT1":424.9,"yT1":0,"xT2":1058.1,"yT2":0,"toosoon":0,"cond_shown":"equaldotsize","ratio_trial":500,"smaller_num":"6","larger_num":"12","correct_side":1,"subjID":"LauraMAriaCamargoMendez15","gender":"1","age":"9","school":"4"},{"start_time":1552074255139,"click_time":1552074256189,"finger_time":1552074255789,"fix_duration":250,"trial":33,"RT":650,"MT":400,"sideResp":1,"stimulus":"img/250/equaldotanddens/L/14_Ratio_250_L_12_R_3.png","xmouse":[771,771,771,771,771,771,771,771,771,771,771,771,771,772,774,775,779,779,779,779,779,779,779,779,779,779,779,779,779,779,779,762,739,698,642,584,498,467,449,449,449,449,448,448,448,448,448,453,454,454,455,455,456],"ymouse":[501,501,501,501,501,501,501,501,501,501,501,501,501,501,501,500,498,498,498,497,497,497,497,497,497,497,497,497,497,497,495,470,435,382,316,251,149,120,109,109,109,109,109,109,109,108,108,104,102,102,102,101,98],"timestamp_mouse":[9,41,49,68,90,110,129,149,170,190,208,229,250,269,289,309,330,348,368,389,408,428,448,470,490,508,528,550,569,590,608,629,650,668,689,708,730,748,769,788,809,828,849,868,890,909,930,949,970,990,1009,1029,1050],"xSR":741.5,"ySR":469.95,"xT1":424.9,"yT1":0,"xT2":1058.1,"yT2":0,"toosoon":0,"cond_shown":"equaldotanddens","ratio_trial":250,"smaller_num":"3","larger_num":"12","correct_side":1,"subjID":"LauraMAriaCamargoMendez15","gender":"1","age":"9","school":"4"},{"start_time":1552074258988,"click_time":1552074259949,"finger_time":1552074259627,"fix_duration":1337.7217631991643,"trial":34,"RT":639,"MT":322,"sideResp":2,"stimulus":"img/250/equaldotanddens/R/13_Ratio_250_L_2_R_8.png","xmouse":[811,811,811,811,811,810,810,809,808,808,808,806,806,806,806,806,806,806,805,805,805,805,805,805,805,805,805,805,805,805,807,815,826,838,859,890,906,920,929,935,953,965,975,984,1004,1033,1042,1051,1061],"ymouse":[509,509,509,509,509,509,509,509,510,510,510,510,510,510,510,510,510,510,510,510,510,510,510,510,510,510,510,510,510,510,501,486,465,444,405,340,306,274,249,227,188,177,167,156,124,93,86,78,73],"timestamp_mouse":[14,26,42,60,80,99,120,140,160,181,200,220,240,260,279,300,320,341,360,380,399,421,441,459,479,500,519,539,561,580,601,621,639,660,679,699,720,739,760,779,799,821,839,860,880,899,921,940,961],"xSR":741.5,"ySR":469.95,"xT1":424.9,"yT1":0,"xT2":1058.1,"yT2":0,"toosoon":0,"cond_shown":"equaldotanddens","ratio_trial":250,"smaller_num":"2","larger_num":"8","correct_side":2,"subjID":"LauraMAriaCamargoMendez15","gender":"1","age":"9","school":"4"},{"start_time":1552074261773,"click_time":1552074262808,"finger_time":1552074262408,"fix_duration":842.2519479324994,"trial":35,"RT":635,"MT":400,"sideResp":2,"stimulus":"img/900/equaldotanddens/L/10_Ratio_900_L_20_R_18.png","xmouse":[793,793,793,793,793,793,793,793,793,793,793,793,793,793,793,793,793,793,793,794,794,794,794,794,794,794,794,796,798,804,811,837,856,885,909,946,962,974,981,986,997,999,999,1000,1001,1006,1021,1026,1032,1039,1049,1071],"ymouse":[554,554,554,554,554,554,554,554,554,554,554,554,554,554,554,554,554,554,554,554,554,554,554,554,554,554,554,550,545,533,519,469,435,373,327,245,211,186,164,145,123,121,121,119,116,110,98,94,89,86,83,77],"timestamp_mouse":[16,39,55,75,94,115,136,156,174,195,215,236,255,275,296,315,335,355,374,394,416,434,455,475,495,514,534,556,576,595,614,635,656,675,694,716,734,755,775,796,816,835,855,875,895,915,934,954,974,994,1015,1035],"xSR":741.5,"ySR":469.95,"xT1":424.9,"yT1":0,"xT2":1058.1,"yT2":0,"toosoon":0,"cond_shown":"equaldotanddens","ratio_trial":900,"smaller_num":"18","larger_num":"20","correct_side":1,"subjID":"LauraMAriaCamargoMendez15","gender":"1","age":"9","school":"4"},{"start_time":1552074267960,"click_time":1552074268809,"finger_time":1552074268649,"fix_duration":690.1576277532087,"trial":36,"RT":689,"MT":160,"sideResp":2,"stimulus":"img/900/equaldotsize/L/1_Ratio_900_L_10_R_9.png","xmouse":[820,822,824,824,824,824,824,824,824,824,824,823,820,818,817,816,816,815,815,815,815,815,815,815,815,815,815,815,815,815,815,815,820,823,832,843,860,903,933,966,1017,1028,1065],"ymouse":[535,535,534,534,534,534,534,534,534,532,530,528,521,517,514,513,512,511,511,511,511,510,510,510,510,510,510,510,510,510,510,508,491,477,455,431,403,335,289,240,162,141,49],"timestamp_mouse":[9,34,47,68,87,107,127,149,168,188,209,228,248,268,288,309,328,349,368,387,408,428,449,467,487,507,528,549,569,587,607,628,648,667,689,708,729,747,769,789,808,828,848],"xSR":741.5,"ySR":469.95,"xT1":424.9,"yT1":0,"xT2":1058.1,"yT2":0,"toosoon":0,"cond_shown":"equaldotsize","ratio_trial":900,"smaller_num":"9","larger_num":"10","correct_side":1,"subjID":"LauraMAriaCamargoMendez15","gender":"1","age":"9","school":"4"},{"start_time":1552074270059,"click_time":1552074270909,"finger_time":1552074270709,"fix_duration":250,"trial":37,"RT":650,"MT":200,"sideResp":1,"stimulus":"img/250/equaldotsize/L/7_Ratio_250_L_8_R_2.png","xmouse":[766,766,766,766,766,766,766,766,765,763,762,762,762,762,762,762,762,762,762,762,762,762,762,762,762,762,762,762,762,762,760,756,727,694,648,588,559,513,498,485,467,448,433],"ymouse":[514,514,514,514,514,514,514,514,514,514,514,514,514,514,514,514,514,514,514,514,514,514,514,514,514,514,514,514,514,514,513,508,476,435,386,335,311,276,261,238,190,122,46],"timestamp_mouse":[10,39,49,70,88,110,128,148,168,190,210,228,248,270,289,308,329,348,368,390,410,429,448,469,490,510,528,548,570,590,610,629,650,668,690,709,728,749,769,789,810,830,849],"xSR":741.5,"ySR":469.95,"xT1":424.9,"yT1":0,"xT2":1058.1,"yT2":0,"toosoon":0,"cond_shown":"equaldotsize","ratio_trial":250,"smaller_num":"2","larger_num":"8","correct_side":1,"subjID":"LauraMAriaCamargoMendez15","gender":"1","age":"9","school":"4"},{"start_time":1552074272773,"click_time":1552074273589,"finger_time":1552074273409,"fix_duration":643.6797562924012,"trial":38,"RT":636,"MT":180,"sideResp":2,"stimulus":"img/500/equaldotsize/R/1_Ratio_500_L_9_R_18.png","xmouse":[774,774,774,774,774,774,774,774,774,774,774,774,774,774,774,774,774,775,776,776,776,776,776,776,776,776,776,776,777,779,783,812,849,900,943,981,1004,1032,1064,1080,1090],"ymouse":[513,513,513,513,513,513,513,513,513,513,513,513,513,513,513,513,513,511,509,509,509,509,509,509,509,509,509,509,506,501,487,438,390,340,301,264,241,210,148,117,94],"timestamp_mouse":[15,40,54,74,95,115,135,154,176,195,215,235,255,276,295,315,335,355,375,394,414,434,455,475,494,514,535,555,574,596,614,636,655,675,696,716,736,754,775,795,816],"xSR":741.5,"ySR":469.95,"xT1":424.9,"yT1":0,"xT2":1058.1,"yT2":0,"toosoon":0,"cond_shown":"equaldotsize","ratio_trial":500,"smaller_num":"9","larger_num":"18","correct_side":2,"subjID":"LauraMAriaCamargoMendez15","gender":"1","age":"9","school":"4"},{"start_time":1552074275647,"click_time":1552074276828,"finger_time":1552074276207,"fix_duration":1076.3075075108088,"trial":39,"RT":560,"MT":621,"sideResp":2,"stimulus":"img/900/equaldotanddens/R/3_Ratio_900_L_9_R_10.png","xmouse":[806,806,806,806,806,806,806,806,806,806,806,806,806,806,806,806,806,806,806,806,806,806,806,806,806,806,807,807,808,810,811,813,820,829,864,880,894,905,914,929,936,947,960,977,1020,1026,1026,1026,1026,1031,1033,1033,1034,1035,1039,1042,1045,1046,1048,1059],"ymouse":[490,490,490,490,490,490,490,490,490,490,490,490,490,490,490,490,490,490,490,490,490,490,490,489,482,478,474,472,466,458,451,439,415,378,265,225,192,168,147,122,112,104,97,90,77,76,76,76,76,75,75,75,74,74,73,71,70,69,69,65],"timestamp_mouse":[10,21,41,62,82,101,120,141,161,182,201,221,242,262,280,301,322,342,361,382,400,421,442,462,482,501,522,541,560,580,602,620,640,661,680,702,722,742,761,781,801,820,841,861,880,901,921,941,962,982,1001,1020,1040,1061,1081,1102,1121,1140,1162,1180],"xSR":741.5,"ySR":469.95,"xT1":424.9,"yT1":0,"xT2":1058.1,"yT2":0,"toosoon":0,"cond_shown":"equaldotanddens","ratio_trial":900,"smaller_num":"9","larger_num":"10","correct_side":2,"subjID":"LauraMAriaCamargoMendez15","gender":"1","age":"9","school":"4"},{"start_time":1552074324951,"click_time":1552074325847,"finger_time":1552074325528,"fix_duration":821.804047214146,"trial":40,"RT":577,"MT":319,"sideResp":2,"stimulus":"img/500/equaldotsize/R/2_Ratio_500_L_3_R_6.png","xmouse":[794,794,794,794,794,794,794,794,794,794,794,794,794,794,794,794,794,794,794,794,794,794,794,794,794,794,794,795,818,839,880,911,934,961,1008,1018,1023,1024,1024,1026,1026,1026,1029,1042,1084],"ymouse":[513,513,513,513,513,513,513,513,513,513,513,513,513,513,513,513,513,513,513,513,513,513,513,513,513,513,512,510,456,402,313,235,181,134,59,44,35,32,31,29,28,28,27,22,9],"timestamp_mouse":[17,41,57,78,96,118,136,157,178,197,216,238,256,278,298,316,337,357,378,396,417,438,458,477,498,518,537,557,577,596,618,636,656,677,696,716,736,757,778,796,817,838,857,878,896],"xSR":741.5,"ySR":469.95,"xT1":424.9,"yT1":0,"xT2":1058.1,"yT2":0,"toosoon":0,"cond_shown":"equaldotsize","ratio_trial":500,"smaller_num":"3","larger_num":"6","correct_side":2,"subjID":"LauraMAriaCamargoMendez15","gender":"1","age":"9","school":"4"},{"start_time":1552074327429,"click_time":1552074328348,"finger_time":1552074328209,"fix_duration":778.6924385551656,"trial":41,"RT":780,"MT":139,"sideResp":2,"stimulus":"img/750/randomdotsizeEA/R/15_Ratio_750_L_9_R_12.png","xmouse":[820,820,828,828,829,829,829,829,829,829,829,829,829,829,828,827,822,815,808,799,794,787,787,787,786,786,786,785,783,782,780,776,776,776,776,776,775,774,774,774,777,824,884,964,1013,1040,1070],"ymouse":[516,516,499,499,496,496,496,496,496,496,496,496,496,496,499,499,504,511,517,522,527,532,532,532,532,532,532,528,522,517,512,504,503,503,503,503,501,490,476,460,438,365,322,277,231,183,70],"timestamp_mouse":[2,18,52,58,78,100,119,138,159,179,198,218,239,260,279,298,319,338,359,379,399,419,438,459,479,499,518,539,560,578,600,619,639,660,678,699,719,738,758,780,799,819,840,859,879,899,919],"xSR":741.5,"ySR":469.95,"xT1":424.9,"yT1":0,"xT2":1058.1,"yT2":0,"toosoon":0,"cond_shown":"randomdotsizeEA","ratio_trial":750,"smaller_num":"9","larger_num":"12","correct_side":2,"subjID":"LauraMAriaCamargoMendez15","gender":"1","age":"9","school":"4"},{"start_time":1552074329972,"click_time":1552074330688,"finger_time":1552074330448,"fix_duration":422.7855656157096,"trial":42,"RT":476,"MT":240,"sideResp":1,"stimulus":"img/500/equaldotanddens/L/10_Ratio_500_L_4_R_2.png","xmouse":[814,814,814,814,814,814,814,814,814,814,814,814,813,812,812,811,809,809,807,806,804,802,790,717,672,633,598,575,536,515,503,494,486,479,478,478],"ymouse":[543,543,543,543,543,543,543,543,543,543,543,543,541,533,528,524,518,516,510,508,503,501,489,448,424,395,364,329,253,219,198,179,154,124,109,90],"timestamp_mouse":[26,42,55,76,96,117,135,155,175,195,215,235,257,276,296,317,336,357,375,396,417,435,456,476,497,516,536,557,576,596,616,635,656,676,695,715],"xSR":741.5,"ySR":469.95,"xT1":424.9,"yT1":0,"xT2":1058.1,"yT2":0,"toosoon":0,"cond_shown":"equaldotanddens","ratio_trial":500,"smaller_num":"2","larger_num":"4","correct_side":1,"subjID":"LauraMAriaCamargoMendez15","gender":"1","age":"9","school":"4"},{"start_time":1552074331898,"click_time":1552074332727,"finger_time":1552074332228,"fix_duration":428.08100986379395,"trial":43,"RT":330,"MT":499,"sideResp":2,"stimulus":"img/750/equaldotanddens/R/4_Ratio_750_L_15_R_20.png","xmouse":[804,804,804,804,804,804,804,804,804,805,806,806,808,810,812,812,814,818,819,820,827,837,852,894,900,911,920,933,936,941,948,958,967,971,980,980,980,983,988,996,1024,1082],"ymouse":[514,514,514,514,514,514,514,514,512,509,508,507,501,495,479,472,466,452,442,427,407,369,315,164,137,87,61,39,35,32,29,25,20,20,19,19,19,19,19,19,24,33],"timestamp_mouse":[9,44,49,69,90,110,129,150,170,190,209,230,250,270,290,309,330,350,370,389,409,430,450,469,489,509,530,550,569,590,610,631,651,669,690,710,730,751,769,790,809,829],"xSR":741.5,"ySR":469.95,"xT1":424.9,"yT1":0,"xT2":1058.1,"yT2":0,"toosoon":0,"cond_shown":"equaldotanddens","ratio_trial":750,"smaller_num":"15","larger_num":"20","correct_side":2,"subjID":"LauraMAriaCamargoMendez15","gender":"1","age":"9","school":"4"},{"start_time":1552074335508,"click_time":1552074336329,"finger_time":1552074335929,"fix_duration":617.0385527029524,"trial":44,"RT":421,"MT":400,"sideResp":2,"stimulus":"img/900/randomdotsizeEA/R/3_Ratio_900_L_9_R_10.png","xmouse":[783,783,783,783,783,783,783,783,783,783,783,783,783,783,783,783,783,783,783,788,800,813,833,889,916,943,957,967,989,1004,1019,1027,1029,1031,1032,1041,1053,1056,1056,1057,1058,1060],"ymouse":[501,501,501,501,501,501,501,501,501,501,501,501,501,501,501,501,501,501,501,494,475,453,419,335,285,237,207,183,129,104,80,67,60,58,58,58,58,58,58,58,57,57],"timestamp_mouse":[7,21,44,59,79,100,120,140,159,179,199,220,239,260,279,300,319,341,359,379,400,421,440,460,480,501,520,540,560,580,599,619,639,661,680,700,720,739,759,781,800,821],"xSR":741.5,"ySR":469.95,"xT1":424.9,"yT1":0,"xT2":1058.1,"yT2":0,"toosoon":0,"cond_shown":"randomdotsizeEA","ratio_trial":900,"smaller_num":"9","larger_num":"10","correct_side":2,"subjID":"LauraMAriaCamargoMendez15","gender":"1","age":"9","school":"4"},{"start_time":1552074337353,"click_time":1552074338188,"finger_time":1552074337707,"fix_duration":363.5158136693506,"trial":45,"RT":354,"MT":481,"sideResp":2,"stimulus":"img/500/equaldotanddens/R/3_Ratio_500_L_10_R_20.png","xmouse":[777,777,777,777,777,777,777,777,777,777,777,777,777,777,778,781,786,797,812,834,878,919,960,983,991,1000,1004,1010,1014,1017,1017,1017,1017,1017,1017,1021,1032,1039,1042,1043,1056,1062],"ymouse":[525,525,525,525,525,525,525,525,525,525,525,525,525,525,525,512,487,446,418,387,335,291,262,242,226,197,180,163,147,132,120,118,118,118,118,117,117,117,117,117,103,96],"timestamp_mouse":[16,47,56,75,96,115,135,156,174,195,215,235,255,274,294,315,335,354,375,394,414,436,454,475,494,515,534,555,575,595,615,635,655,675,695,714,735,756,774,794,815,834],"xSR":741.5,"ySR":469.95,"xT1":424.9,"yT1":0,"xT2":1058.1,"yT2":0,"toosoon":0,"cond_shown":"equaldotanddens","ratio_trial":500,"smaller_num":"10","larger_num":"20","correct_side":2,"subjID":"LauraMAriaCamargoMendez15","gender":"1","age":"9","school":"4"},{"start_time":1552074339123,"click_time":1552074373829,"finger_time":1552074343969,"fix_duration":373.8579884235118,"trial":46,"RT":4846,"MT":29860,"sideResp":2,"stimulus":"img/500/randomdotsizeEA/R/15_Ratio_500_L_1_R_2.png","xmouse":[821,821,821,821,821,821,821,821,820,820,820,820,820,820,820,820,820,820,820,820,820,820,820,820,820,820,820,820,820,820,820,820,820,820,820,820,820,820,820,820,820,820,820,820,820,820,820,820,820,820,820,820,820,820,820,820,820,820,820,820,820,820,820,820,820,820,820,820,820,820,820,820,820,820,820,820,820,820,820,820,820,820,820,820,820,820,820,820,820,820,820,820,820,820,820,820,820,820,820,820,820,820,820,820,820,820,820,820,820,820,820,820,820,820,820,820,820,820,820,820,820,820,820,820,820,820,820,820,820,820,820,820,820,820,820,820,820,820,820,820,820,820,820,820,820,820,820,820,820,820,820,820,820,820,820,820,820,820,820,820,820,820,820,820,820,820,820,820,820,820,820,820,820,820,820,820,820,820,820,820,820,820,820,820,820,820,820,820,820,820,820,820,820,820,820,820,820,820,820,820,820,820,820,820,820,820,820,820,820,820,820,820,820,820,820,820,820,820,820,820,820,820,820,820,820,820,820,820,820,820,820,820,820,820,820,820,820,820,820,822,824,828,849,855,855,855,855,855,855,855,855,855,855,855,855,855,855,855,855,855,855,855,855,855,855,855,855,855,855,855,855,855,855,855,855,855,855,855,855,855,855,855,855,855,855,855,855,855,855,855,855,855,855,855,855,855,855,855,855,855,855,855,855,855,855,855,855,855,855,855,855,855,855,855,855,855,855,855,855,855,855,855,855,855,855,855,855,855,855,855,855,855,855,855,855,855,855,855,855,855,855,855,855,855,855,855,855,855,855,855,855,855,855,855,855,855,855,855,855,855,855,855,855,855,855,855,855,855,855,855,855,855,855,855,855,855,855,855,855,855,855,855,855,855,855,855,855,855,855,855,855,855,855,855,855,855,855,855,855,855,855,855,855,855,855,855,855,855,855,855,855,855,855,855,855,855,855,855,855,855,855,855,855,855,855,855,855,855,855,855,855,855,855,855,855,855,855,855,855,855,855,855,855,855,855,855,855,855,855,855,855,855,855,855,855,855,855,855,855,855,855,855,855,855,855,855,855,855,855,855,855,855,855,855,855,855,855,855,855,855,855,855,855,855,855,855,855,855,855,855,855,855,855,855,855,855,855,855,855,855,855,855,855,855,855,855,855,855,855,855,855,855,855,855,855,855,855,855,855,855,855,855,855,855,855,855,855,855,855,855,855,855,855,855,855,855,855,855,855,855,855,855,855,855,855,855,855,855,855,855,855,855,855,855,855,855,855,855,855,855,855,855,855,855,855,855,855,855,855,855,855,855,855,855,855,855,855,855,855,855,855,855,855,855,855,855,855,855,855,855,855,855,855,855,855,855,855,855,855,855,855,855,855,855,855,855,855,855,855,855,855,855,855,855,855,855,855,855,855,855,855,855,855,855,855,855,855,855,855,855,855,855,855,855,855,855,855,855,855,855,855,855,855,855,855,855,855,855,855,855,855,855,855,855,855,855,855,855,855,855,855,855,855,855,855,855,855,855,855,855,855,855,855,855,855,855,855,855,855,855,855,855,855,855,855,855,855,855,855,855,855,855,855,855,855,855,855,855,855,855,855,855,855,855,855,855,855,855,855,855,855,855,855,855,855,855,855,855,855,855,855,855,855,855,855,855,855,855,855,855,855,855,855,855,855,855,855,855,855,855,855,855,855,855,855,855,855,855,855,855,855,855,855,855,855,855,855,855,855,855,855,855,855,855,855,855,855,855,855,855,855,855,855,855,855,855,855,855,855,855,855,855,855,855,855,855,855,855,855,855,855,855,855,855,855,855,855,855,855,855,855,855,855,855,855,855,855,855,855,855,855,855,855,855,855,855,855,855,855,855,855,855,855,855,855,855,855,855,855,855,855,855,855,855,855,855,855,855,855,855,855,855,855,855,855,855,855,855,855,855,855,855,855,855,855,855,855,855,855,855,855,855,855,855,855,855,855,855,855,855,855,855,855,855,855,855,855,855,855,855,855,855,855,855,855,855,855,855,855,855,855,855,855,855,855,855,855,855,855,855,855,855,855,855,855,855,855,855,855,855,855,855,855,855,855,855,855,855,855,855,855,855,855,855,855,855,855,855,855,855,855,855,855,855,855,855,855,855,855,855,855,855,855,855,855,855,855,855,855,855,855,855,855,855,855,855,855,855,855,855,855,855,855,855,855,855,855,855,855,855,855,855,855,855,855,855,855,855,855,855,855,855,855,855,855,855,855,855,855,855,855,855,855,855,855,855,855,855,855,855,855,855,855,855,855,855,855,855,855,855,855,855,855,855,855,855,855,855,855,855,855,855,855,855,855,855,855,855,855,855,855,855,855,855,855,855,855,855,855,855,855,855,855,855,855,855,855,855,855,855,855,855,855,855,855,855,855,855,855,855,855,855,855,855,855,855,855,855,855,855,855,855,855,855,855,855,855,855,855,855,855,855,855,855,855,855,855,855,855,855,855,855,855,855,855,855,855,855,855,855,855,855,855,855,855,855,855,855,855,855,855,855,855,855,855,855,855,855,855,855,855,855,855,855,855,855,855,855,855,855,855,855,855,855,855,855,855,855,855,855,855,855,855,855,855,855,855,855,855,855,855,855,855,855,855,855,855,855,855,855,855,855,855,855,854,848,844,841,840,838,838,838,838,838,838,838,838,838,838,838,838,838,838,838,838,838,838,838,838,838,838,838,838,838,838,838,838,838,838,838,838,838,838,838,838,838,838,838,838,838,838,838,838,838,838,838,838,838,838,838,838,838,838,838,838,838,838,838,838,838,838,838,838,838,838,838,838,838,838,838,838,838,838,838,838,838,838,838,838,838,838,838,838,838,838,838,838,838,838,838,838,834,827,819,819,819,819,819,819,819,819,819,819,819,819,819,819,819,819,819,819,819,819,819,819,819,819,819,819,819,819,819,819,819,819,819,819,819,819,819,819,819,819,819,819,819,819,819,819,819,819,819,819,819,819,819,819,819,819,819,819,819,819,819,819,819,819,819,819,819,819,819,819,819,819,819,819,819,819,819,819,819,819,819,819,819,819,819,819,819,819,819,819,819,819,819,819,819,819,819,819,819,819,819,819,819,819,819,819,819,819,819,819,819,819,819,819,819,819,819,819,819,819,819,819,819,819,819,819,819,819,819,819,819,819,819,819,819,819,819,819,819,819,819,819,819,819,819,819,819,819,819,819,819,819,819,819,819,819,819,819,819,819,819,819,819,819,819,819,819,819,819,819,819,819,819,819,819,819,819,819,819,819,819,819,819,819,819,819,819,819,819,819,819,819,819,819,819,819,819,819,819,819,819,819,819,819,819,819,819,819,819,1479,1534,1534,1534,1534,1534,1534,1534,1534,1534,1534,1534,1534,1534,1534,1534,1534,1574,1565,1565,1565,1565,1565,1565,1565,1565,1565,1565,1565,1565,1565,1565,1565,1565,1565,1565,1565,1565,1565,1565,1565,1565,682,699,788,815,828,829,830,818,796,764,727,610,528,490,465,455,451,446,444,443,442,442,454,469,488,509,531,565,573,575,575,575,575,575,575,575,575,577,597,642,696,717,719,719,719,720,722,722,722,722,722,722,722,722,722,722,722,722,722,722,722,722,727,731,735,739,741,750,764,780,788,794,806,809,812,817,826,829,829,829,829,829,829,829,829,829,829,829,829,830,832,835,846,846,846,846,846,846,846,846,846,846,849,853,853,853,853,853,852,847,843,839,834,830,829,829,829,825,814,804,803,802,802,802,802,802,802,802,802,802,802,802,802,802,802,802,802,802,802,802,802,802,802,802,802,802,802,802,802,802,802,802,802,802,802,802,802,802,802,802,802,802,802,802,802,802,802,802,802,802,802,802,802,802,802,802,802,802,802,802,802,802,802,802,801,799,797,794,793,792,791,791,790,790,790,790,790,790,790,790,792,800,841,892,951,1012,1064,1135,1165,1189,1215,1237,1237,1237,1237,1237,1237,1237,1237,1237,1188,1135],"ymouse":[518,518,518,518,518,518,518,518,518,518,518,518,518,518,518,518,518,518,518,518,518,518,518,518,518,518,518,518,518,518,518,518,518,518,518,518,518,518,518,518,518,518,518,518,518,518,518,518,518,518,518,518,518,518,518,518,518,518,518,518,518,518,518,518,518,518,518,518,518,518,518,518,518,518,518,518,518,518,518,518,518,518,518,518,518,518,518,518,518,518,518,518,518,518,518,518,518,518,518,518,518,518,518,518,518,518,518,518,518,518,518,518,518,518,518,518,518,518,518,518,518,518,518,518,518,518,518,518,518,518,518,518,518,518,518,518,518,518,518,518,518,518,518,518,518,518,518,518,518,518,518,518,518,518,518,518,518,518,518,518,518,518,518,518,518,518,518,518,518,518,518,518,518,518,518,518,518,518,518,518,518,518,518,518,518,518,518,518,518,518,518,518,518,518,518,518,518,518,518,518,518,518,518,518,518,518,518,518,518,518,518,518,518,518,518,518,518,518,518,518,518,518,518,518,518,518,518,518,518,518,518,518,518,518,518,518,518,518,518,518,518,521,541,547,547,548,548,548,548,548,548,548,548,548,548,548,548,548,548,548,548,548,548,548,548,548,548,548,548,548,548,548,548,548,548,548,548,548,548,548,548,548,548,548,548,548,548,548,548,548,548,548,548,548,548,548,548,548,548,548,548,548,548,548,548,548,548,548,548,548,548,548,548,548,548,548,548,548,548,548,548,548,548,548,548,548,548,548,548,548,548,548,548,548,548,548,548,548,548,548,548,548,548,548,548,548,548,548,548,548,548,548,548,548,548,548,548,548,548,548,548,548,548,548,548,548,548,548,548,548,548,548,548,548,548,548,548,548,548,548,548,548,548,548,548,548,548,548,548,548,548,548,548,548,548,548,548,548,548,548,548,548,548,548,548,548,548,548,548,548,548,548,548,548,548,548,548,548,548,548,548,548,548,548,548,548,548,548,548,548,548,548,548,548,548,548,548,548,548,548,548,548,548,548,548,548,548,548,548,548,548,548,548,548,548,548,548,548,548,548,548,548,548,548,548,548,548,548,548,548,548,548,548,548,548,548,548,548,548,548,548,548,548,548,548,548,548,548,548,548,548,548,548,548,548,548,548,548,548,548,548,548,548,548,548,548,548,548,548,548,548,548,548,548,548,548,548,548,548,548,548,548,548,548,548,548,548,548,548,548,548,548,548,548,548,548,548,548,548,548,548,548,548,548,548,548,548,548,548,548,548,548,548,548,548,548,548,548,548,548,548,548,548,548,548,548,548,548,548,548,548,548,548,548,548,548,548,548,548,548,548,548,548,548,548,548,548,548,548,548,548,548,548,548,548,548,548,548,548,548,548,548,548,548,548,548,548,548,548,548,548,548,548,548,548,548,548,548,548,548,548,548,548,548,548,548,548,548,548,548,548,548,548,548,548,548,548,548,548,548,548,548,548,548,548,548,548,548,548,548,548,548,548,548,548,548,548,548,548,548,548,548,548,548,548,548,548,548,548,548,548,548,548,548,548,548,548,548,548,548,548,548,548,548,548,548,548,548,548,548,548,548,548,548,548,548,548,548,548,548,548,548,548,548,548,548,548,548,548,548,548,548,548,548,548,548,548,548,548,548,548,548,548,548,548,548,548,548,548,548,548,548,548,548,548,548,548,548,548,548,548,548,548,548,548,548,548,548,548,548,548,548,548,548,548,548,548,548,548,548,548,548,548,548,548,548,548,548,548,548,548,548,548,548,548,548,548,548,548,548,548,548,548,548,548,548,548,548,548,548,548,548,548,548,548,548,548,548,548,548,548,548,548,548,548,548,548,548,548,548,548,548,548,548,548,548,548,548,548,548,548,548,548,548,548,548,548,548,548,548,548,548,548,548,548,548,548,548,548,548,548,548,548,548,548,548,548,548,548,548,548,548,548,548,548,548,548,548,548,548,548,548,548,548,548,548,548,548,548,548,548,548,548,548,548,548,548,548,548,548,548,548,548,548,548,548,548,548,548,548,548,548,548,548,548,548,548,548,548,548,548,548,548,548,548,548,548,548,548,548,548,548,548,548,548,548,548,548,548,548,548,548,548,548,548,548,548,548,548,548,548,548,548,548,548,548,548,548,548,548,548,548,548,548,548,548,548,548,548,548,548,548,548,548,548,548,548,548,548,548,548,548,548,548,548,548,548,548,548,548,548,548,548,548,548,548,548,548,548,548,548,548,548,548,548,548,548,548,548,548,548,548,548,548,548,548,548,548,548,548,548,548,548,548,548,548,548,548,548,548,548,548,548,548,548,548,548,548,548,548,548,548,548,548,548,548,548,548,548,548,548,548,548,548,548,548,548,548,548,548,548,548,548,548,548,548,548,548,548,548,548,548,548,548,548,548,548,548,548,548,548,548,548,548,548,548,548,548,548,548,548,548,548,548,548,548,548,548,548,548,548,548,548,548,548,548,548,548,548,548,548,548,548,548,548,548,548,548,548,548,548,548,548,548,548,548,548,548,548,548,548,548,548,548,548,548,548,548,548,548,548,548,548,548,548,548,548,548,548,548,548,548,548,548,548,548,548,548,548,548,548,548,548,548,548,548,548,548,548,548,548,548,548,548,548,548,548,548,548,548,548,548,548,546,528,481,458,439,429,423,423,423,423,423,423,423,423,423,423,423,423,423,423,423,423,423,423,423,423,423,423,423,423,423,423,423,423,423,423,423,423,423,423,423,423,423,423,423,423,423,423,423,423,423,423,423,423,423,423,423,423,423,423,423,423,423,423,423,423,423,423,423,423,423,423,423,423,423,423,423,423,423,423,423,423,423,423,423,423,423,423,423,423,423,423,423,423,423,423,423,423,351,151,61,61,61,61,61,61,61,61,61,61,61,61,61,61,61,61,61,61,61,61,61,61,61,61,61,61,61,61,61,61,61,61,61,61,61,61,61,61,61,61,61,61,61,61,61,61,61,61,61,61,61,61,61,61,61,61,61,61,61,61,61,61,61,61,61,61,61,61,61,61,61,61,61,61,61,61,61,61,61,61,61,61,61,61,61,61,61,61,61,61,61,61,61,61,61,61,61,61,61,61,61,61,61,61,61,61,61,61,61,61,61,61,61,61,61,61,61,61,61,61,61,61,61,61,61,61,61,61,61,61,61,61,61,61,61,61,61,61,61,61,61,61,61,61,61,61,61,61,61,61,61,61,61,61,61,61,61,61,61,61,61,61,61,61,61,61,61,61,61,61,61,61,61,61,61,61,61,61,61,61,61,61,61,61,61,61,61,61,61,61,61,61,61,61,61,61,61,61,61,61,61,61,61,61,61,61,61,61,61,4,20,20,20,20,20,20,20,20,20,20,20,20,20,20,20,20,11,3,3,3,3,3,3,3,3,3,3,3,3,3,3,3,3,3,3,3,3,3,3,3,3,6,13,70,89,104,110,112,122,129,134,136,136,136,136,136,136,138,142,147,152,160,168,193,209,226,243,261,296,305,307,307,307,307,307,307,307,311,316,325,344,367,375,376,376,376,376,376,376,376,375,375,375,375,375,375,375,375,375,375,375,376,379,387,392,397,401,405,425,442,452,457,460,464,467,470,478,494,506,506,506,506,506,506,506,506,506,506,506,506,507,508,509,510,510,510,510,510,510,510,510,510,510,511,512,512,512,512,512,513,514,514,514,514,514,514,514,514,514,518,523,524,525,525,525,525,525,525,525,525,525,525,525,525,525,525,525,525,525,525,525,525,525,525,525,525,525,525,525,525,525,525,525,525,525,525,525,525,525,525,525,525,525,525,525,525,525,525,525,525,525,525,525,525,525,525,525,525,525,525,525,525,525,525,525,524,523,519,515,514,513,512,511,510,510,510,510,510,510,510,509,504,489,441,395,345,286,234,149,107,72,33,1,1,1,1,1,1,1,1,1,13,81],"timestamp_mouse":[7,31,44,65,86,105,125,146,165,185,204,226,245,264,285,304,326,345,364,385,405,425,445,465,486,505,524,544,565,586,606,626,645,664,685,706,726,744,766,785,804,826,846,865,885,904,924,944,965,984,1004,1026,1045,1066,1085,1104,1125,1144,1165,1186,1205,1224,1244,1264,1286,1306,1325,1345,1365,1385,1405,1424,1444,1466,1485,1504,1524,1544,1566,1585,1604,1625,1644,1664,1686,1704,1724,1744,1765,1784,1806,1824,1845,1866,1886,1906,1926,1945,1964,1986,2006,2024,2045,2065,2086,2106,2124,2144,2166,2185,2204,2224,2244,2265,2285,2305,2325,2345,2365,2386,2405,2424,2444,2466,2485,2504,2525,2545,2566,2585,2606,2626,2645,2665,2684,2706,2726,2744,2765,2785,2805,2826,2845,2866,2884,2905,2924,2945,2965,2984,3004,3025,3045,3064,3085,3105,3126,3145,3166,3185,3205,3224,3245,3264,3285,3305,3326,3345,3365,3386,3405,3424,3445,3465,3485,3506,3526,3546,3565,3584,3604,3626,3645,3664,3685,3706,3725,3745,3766,3785,3804,3824,3846,3865,3884,3905,3924,3945,3966,3986,4006,4026,4045,4064,4084,4104,4126,4145,4165,4184,4205,4224,4246,4266,4284,4304,4326,4346,4365,4385,4405,4424,4446,4466,4485,4505,4526,4544,4566,4586,4605,4626,4646,4666,4685,4704,4725,4744,4764,4785,4804,4825,4846,4864,4885,4905,4925,4944,4964,4986,5006,5024,5046,5064,5084,5105,5124,5144,5164,5185,5205,5224,5244,5264,5284,5305,5325,5345,5364,5385,5406,5426,5445,5464,5484,5504,5526,5545,5564,5585,5605,5626,5645,5665,5684,5705,5725,5744,5765,5785,5805,5824,5844,5866,5885,5906,5925,5946,5964,5984,6005,6025,6045,6066,6084,6105,6125,6145,6165,6186,6205,6225,6245,6265,6284,6304,6324,6345,6365,6386,6406,6425,6445,6465,6486,6506,6524,6545,6564,6584,6605,6626,6646,6664,6685,6704,6725,6745,6764,6785,6804,6826,6846,6864,6885,6905,6925,6946,6965,6984,7004,7025,7045,7064,7085,7105,7124,7146,7164,7185,7204,7225,7244,7264,7286,7306,7326,7346,7365,7386,7405,7425,7446,7465,7485,7505,7525,7545,7566,7586,7604,7624,7645,7664,7685,7705,7726,7745,7764,7785,7805,7825,7845,7864,7885,7904,7925,7945,7965,7986,8006,8024,8045,8065,8085,8104,8125,8145,8164,8186,8206,8226,8244,8264,8284,8306,8325,8345,8365,8385,8404,8425,8445,8465,8486,8505,8524,8545,8564,8585,8604,8625,8644,8666,8685,8705,8726,8746,8764,8785,8804,8824,8845,8865,8885,8905,8925,8945,8965,8986,9005,9025,9046,9065,9086,9105,9124,9145,9164,9184,9205,9225,9245,9264,9285,9305,9326,9345,9365,9385,9406,9425,9446,9465,9486,9505,9524,9544,9565,9584,9605,9625,9645,9665,9685,9706,9725,9744,9765,9785,9804,9825,9845,9865,9885,9905,9924,9944,9965,9985,10006,10025,10045,10065,10084,10104,10124,10145,10164,10184,10204,10225,10244,10265,10286,10306,10325,10345,10365,10385,10405,10426,10445,10465,10485,10504,10524,10545,10565,10585,10605,10626,10645,10665,10685,10705,10725,10745,10765,10785,10805,10825,10846,10865,10885,10905,10926,10946,10965,10985,11005,11025,11045,11065,11084,11104,11125,11145,11165,11184,11205,11226,11245,11265,11284,11304,11326,11345,11365,11385,11405,11425,11445,11465,11485,11505,11525,11545,11565,11585,11605,11625,11646,11666,11685,11705,11724,11745,11764,11785,11804,11826,11846,11865,11885,11905,11926,11945,11965,11984,12006,12025,12044,12064,12085,12105,12125,12145,12166,12184,12205,12225,12246,12265,12285,12304,12325,12344,12365,12385,12405,12426,12445,12465,12485,12505,12524,12545,12566,12584,12605,12626,12646,12664,12685,12704,12724,12745,12766,12785,12806,12825,12844,12865,12886,12905,12926,12944,12964,12985,13005,13025,13045,13066,13084,13105,13125,13145,13166,13184,13206,13225,13246,13266,13284,13304,13325,13345,13365,13385,13404,13424,13444,13464,13484,13505,13524,13544,13566,13584,13605,13625,13646,13664,13685,13704,13725,13744,13765,13786,13805,13826,13844,13865,13884,13905,13925,13946,13966,13984,14005,14025,14046,14066,14086,14106,14125,14144,14166,14185,14206,14225,14246,14265,14286,14304,14325,14345,14365,14384,14405,14425,14444,14464,14485,14504,14525,14544,14565,14585,14606,14625,14645,14666,14684,14704,14725,14745,14766,14786,14806,14825,14845,14865,14885,14905,14925,14944,14964,14984,15004,15026,15046,15066,15084,15105,15125,15145,15164,15184,15204,15226,15245,15266,15284,15305,15324,15344,15364,15384,15404,15424,15445,15465,15485,15505,15526,15545,15567,15584,15606,15626,15646,15665,15684,15704,15724,15745,15765,15784,15805,15825,15844,15865,15884,15905,15925,15946,15966,15985,16005,16024,16044,16065,16085,16106,16124,16144,16165,16184,16205,16225,16245,16266,16285,16305,16326,16345,16365,16384,16404,16425,16445,16466,16485,16505,16525,16546,16565,16585,16605,16625,16644,16665,16685,16705,16725,16745,16766,16785,16806,16824,16844,16864,16884,16904,16924,16944,16964,16984,17005,17026,17046,17066,17086,17105,17125,17146,17165,17185,17206,17224,17244,17264,17284,17304,17324,17345,17364,17385,17406,17425,17445,17465,17485,17504,17526,17545,17564,17585,17604,17624,17645,17665,17685,17705,17725,17745,17765,17784,17805,17824,17844,17865,17885,17906,17925,17945,17965,17985,18005,18025,18046,18065,18084,18105,18125,18145,18166,18185,18205,18225,18246,18265,18286,18304,18325,18344,18366,18386,18404,18424,18444,18464,18486,18505,18525,18545,18565,18585,18605,18624,18646,18666,18685,18704,18724,18745,18765,18785,18806,18826,18846,18865,18885,18904,18924,18945,18966,18985,19004,19024,19045,19064,19085,19105,19126,19145,19165,19185,19205,19225,19245,19265,19284,19304,19324,19344,19365,19385,19406,19425,19446,19465,19485,19505,19525,19545,19566,19585,19605,19624,19644,19664,19685,19705,19724,19745,19764,19785,19804,19824,19844,19865,19885,19905,19924,19945,19965,19985,20004,20024,20045,20066,20086,20104,20125,20144,20164,20184,20204,20224,20245,20265,20285,20306,20326,20345,20366,20385,20404,20424,20444,20466,20486,20505,20525,20544,20564,20585,20604,20625,20646,20665,20685,20705,20725,20744,20764,20786,20806,20826,20846,20864,20885,20904,20924,20945,20964,20985,21005,21025,21046,21064,21086,21104,21124,21146,21166,21185,21206,21224,21244,21265,21285,21304,21325,21345,21364,21384,21404,21426,21446,21466,21486,21504,21525,21545,21565,21585,21605,21626,21646,21666,21686,21704,21725,21745,21765,21786,21804,21824,21845,21865,21886,21904,21924,21944,21965,21986,22005,22025,22045,22065,22084,22105,22125,22144,22165,22186,22204,22225,22245,22266,22284,22304,22325,22345,22365,22386,22404,22425,22445,22465,22485,22504,22526,22545,22566,22584,22605,22625,22645,22664,22685,22705,22726,22745,22765,22785,22804,22824,22846,22866,22885,22906,22926,22946,22964,22986,23005,23025,23046,23066,23085,23104,23125,23144,23165,23186,23205,23225,23246,23265,23285,23305,23324,23345,23364,23386,23406,23426,23446,23466,23487,23504,23525,23545,23564,23584,23605,23626,23644,23666,23685,23705,23726,23745,23765,23786,23805,23824,23844,23865,23885,23905,23926,23945,23965,23985,24004,24025,24046,24066,24084,24104,24125,24144,24164,24185,24205,24226,24246,24266,24285,24304,24325,24345,24365,24385,24405,24425,24444,24465,24486,24505,24525,24545,24565,24585,24605,24624,24646,24665,24685,24706,24726,24746,24765,24784,24805,24824,24845,24864,24886,24905,24925,24946,24965,24984,25004,25024,25044,25065,25085,25106,25124,25144,25165,25185,25205,25225,25245,25265,25286,25305,25326,25346,25366,25386,25405,25425,25444,25464,25485,25505,25525,25545,25565,25586,25605,25625,25645,25665,25684,25705,25725,25744,25765,25785,25805,25824,25844,25866,25886,25905,25925,25945,25966,25984,26005,26025,26045,26064,26085,26104,26124,26144,26164,26185,26205,26225,26245,26266,26284,26306,26325,26346,26365,26385,26404,26425,26445,26465,26484,26506,26525,26545,26566,26586,26606,26625,26645,26664,26685,26705,26725,26745,26765,26785,26805,26826,26846,26866,26885,26905,26925,26945,26964,26985,27004,27024,27045,27066,27085,27105,27125,27144,27164,27185,27205,27224,27245,27265,27285,27305,27324,27344,27366,27385,27404,27425,27445,27465,27484,27506,27526,27546,27566,27585,27605,27625,27646,27666,27685,27706,27725,27745,27765,27784,27805,27826,27846,27865,27886,27905,27925,27945,27965,27985,28006,28025,28046,28064,28085,28104,28124,28145,28166,28185,28205,28225,28245,28265,28284,28306,28324,28344,28364,28385,28405,28425,28446,28466,28486,28506,28524,28545,28565,28585,28605,28625,28645,28666,28685,28705,28724,28744,28765,28785,28805,28825,28845,28864,28884,28906,28926,28945,28965,28985,29004,29025,29045,29064,29086,29105,29124,29145,29164,29185,29205,29224,29245,29264,29284,29305,29325,29345,29365,29384,29405,29424,29445,29465,29485,29506,29524,29544,29564,29585,29604,29625,29645,29665,29685,29706,29726,29745,29765,29785,29806,29825,29844,29865,29885,29906,29925,29946,29965,29986,30005,30026,30044,30064,30085,30104,30125,30145,30164,30185,30206,30225,30245,30264,30285,30305,30325,30345,30366,30386,30406,30425,30446,30466,30485,30506,30524,30544,30565,30585,30605,30625,30645,30666,30685,30704,30724,30745,30766,30785,30805,30825,30845,30864,30885,30905,30925,30945,30966,30986,31007,31025,31045,31065,31085,31104,31126,31145,31166,31186,31207,31224,31245,31265,31286,31306,31325,31345,31364,31384,31406,31424,31444,31465,31485,31504,31524,31545,31566,31585,31605,31625,31646,31665,31685,31706,31724,31745,31765,31785,31804,31825,31846,31866,31886,31905,31925,31944,31966,31986,32006,32025,32045,32065,32085,32105,32124,32144,32165,32185,32205,32224,32244,32266,32286,32305,32325,32346,32364,32384,32405,32424,32445,32464,32485,32505,32524,32544,32564,32584,32606,32625,32645,32664,32685,32704,32725,32746,32765,32785,32805,32824,32845,32866,32885,32905,32925,32946,32965,32985,33005,33024,33046,33065,33084,33105,33126,33144,33165,33186,33205,33225,33246,33265,33284,33304,33326,33344,33366,33385,33405,33425,33444,33465,33486,33506,33524,33545,33566,33584,33605,33625,33646,33665,33685,33705,33726,33745,33765,33786,33805,33824,33846,33866,33885,33905,33926,33944,33965,33984,34004,34025,34045,34064,34086,34104,34125,34145,34165,34185,34204,34224,34244,34265,34284,34306,34325,34345,34364,34385,34405,34424,34444,34465,34486,34505,34525,34545,34564,34585,34604,34624,34646,34665,34685,34706],"xSR":741.5,"ySR":469.95,"xT1":424.9,"yT1":0,"xT2":1058.1,"yT2":0,"toosoon":0,"cond_shown":"randomdotsizeEA","ratio_trial":500,"smaller_num":"1","larger_num":"2","correct_side":2,"subjID":"LauraMAriaCamargoMendez15","gender":"1","age":"9","school":"4"},{"start_time":1552074375053,"click_time":1552074375868,"finger_time":1552074375648,"fix_duration":442.4658340490715,"trial":47,"RT":595,"MT":220,"sideResp":1,"stimulus":"img/750/equaldotsize/L/8_Ratio_750_L_4_R_3.png","xmouse":[758,758,758,758,758,758,758,758,758,760,760,763,768,774,779,780,780,780,780,780,780,780,780,780,780,780,780,772,751,663,606,561,525,495,464,458,455,454,454,459,463],"ymouse":[518,518,518,518,518,518,518,518,518,518,518,519,522,524,526,527,527,527,527,527,527,527,527,527,527,527,526,511,486,389,333,289,246,209,164,149,141,132,126,107,93],"timestamp_mouse":[16,44,54,75,95,115,136,155,176,196,215,235,255,274,295,315,335,355,374,395,415,435,455,476,495,515,535,554,575,595,614,634,656,676,696,714,734,754,775,796,815],"xSR":741.5,"ySR":469.95,"xT1":424.9,"yT1":0,"xT2":1058.1,"yT2":0,"toosoon":0,"cond_shown":"equaldotsize","ratio_trial":750,"smaller_num":"3","larger_num":"4","correct_side":1,"subjID":"LauraMAriaCamargoMendez15","gender":"1","age":"9","school":"4"},{"start_time":1552074376699,"click_time":1552074377627,"finger_time":1552074377068,"fix_duration":250,"trial":48,"RT":369,"MT":559,"sideResp":2,"stimulus":"img/750/equaldotsize/R/7_Ratio_750_L_3_R_4.png","xmouse":[809,809,809,809,809,809,809,809,809,809,809,809,809,809,810,811,811,808,807,807,807,807,807,808,813,821,829,835,850,861,876,896,932,953,966,976,984,991,1007,1018,1025,1030,1032,1041,1045,1050,1061],"ymouse":[507,507,507,507,507,507,507,507,507,507,507,507,507,507,507,505,495,483,468,465,462,460,454,449,441,430,421,413,395,380,362,339,303,278,263,247,233,217,167,140,120,99,83,65,65,65,65],"timestamp_mouse":[8,30,49,69,90,110,128,148,169,190,210,228,248,269,290,309,329,348,369,389,410,429,450,469,488,508,528,548,569,589,609,630,650,669,688,709,728,748,769,789,809,830,850,869,889,908,928],"xSR":741.5,"ySR":469.95,"xT1":424.9,"yT1":0,"xT2":1058.1,"yT2":0,"toosoon":0,"cond_shown":"equaldotsize","ratio_trial":750,"smaller_num":"3","larger_num":"4","correct_side":2,"subjID":"LauraMAriaCamargoMendez15","gender":"1","age":"9","school":"4"},{"start_time":1552074380165,"click_time":1552074404728,"finger_time":1552074388069,"fix_duration":395.3063360624884,"trial":49,"RT":7904,"MT":16659,"sideResp":1,"stimulus":"img/900/randomdotsizeEA/L/2_Ratio_900_L_20_R_18.png","xmouse":[778,778,778,778,778,778,778,778,778,778,778,778,778,778,778,778,778,778,778,778,778,778,778,778,778,778,778,778,778,778,778,778,778,778,778,778,778,778,778,778,778,778,778,778,778,778,778,778,778,778,778,778,778,778,778,778,778,778,778,778,778,778,778,778,778,778,778,778,778,778,778,778,778,778,778,778,778,778,778,778,778,778,778,778,778,778,778,778,778,778,778,778,778,778,778,778,778,778,778,778,778,778,778,778,778,778,778,778,778,778,778,778,778,778,778,778,778,778,778,778,778,778,778,778,778,778,778,778,778,778,778,778,778,778,778,778,778,778,778,778,778,778,778,778,778,778,778,778,778,778,778,778,778,778,778,778,778,778,778,778,778,778,778,778,778,778,778,778,778,778,778,778,778,778,778,778,778,778,778,778,778,778,778,778,778,778,778,778,778,778,778,778,778,778,778,778,778,778,778,778,778,778,778,778,778,778,778,778,778,778,778,778,778,778,778,778,778,778,778,778,778,778,778,778,778,778,778,778,778,778,778,778,778,778,778,778,778,778,778,778,778,778,778,778,778,778,778,778,778,778,778,778,778,778,778,778,778,778,778,778,778,778,778,778,778,778,778,778,778,778,778,778,778,778,778,778,778,778,778,778,778,778,778,778,778,778,778,778,778,778,778,778,778,778,778,778,778,778,778,778,778,778,778,778,778,778,778,778,778,778,778,778,778,778,778,778,778,778,778,778,778,778,778,778,778,778,778,778,778,778,778,778,778,778,778,778,778,778,778,778,778,778,778,778,778,778,778,778,778,778,778,778,778,778,778,778,778,778,778,778,778,778,778,778,778,778,778,778,778,778,778,778,778,778,778,778,778,778,778,778,778,778,778,778,778,778,778,778,778,778,778,778,778,780,798,1026,1026,1026,1026,1026,1026,1026,1026,1026,1026,1026,1026,1026,1026,1026,1026,1026,1026,1026,1026,1026,1264,1255,1242,1218,1185,1128,1114,1106,1098,1088,1037,1012,993,967,940,897,882,872,858,851,849,849,851,853,853,853,853,853,853,853,852,851,850,850,848,838,825,815,813,811,786,760,747,745,745,745,745,745,745,745,754,755,756,756,760,764,768,768,768,768,768,768,768,768,768,767,766,765,765,765,765,765,765,770,773,773,773,773,773,773,773,773,773,773,773,773,773,773,773,773,776,776,776,776,776,776,776,778,780,780,780,780,780,780,780,780,780,780,780,780,780,780,780,780,780,780,780,780,780,780,780,780,780,780,780,780,780,780,780,780,780,780,780,780,780,780,780,780,780,780,780,780,780,780,780,780,780,780,780,780,780,780,780,780,780,780,780,780,780,780,780,780,780,780,780,780,780,780,780,780,780,780,780,780,780,780,780,780,780,780,780,780,780,780,780,780,780,780,780,780,780,780,780,780,780,780,780,780,780,780,780,780,780,780,780,780,780,780,780,780,780,780,780,780,780,780,780,780,780,780,780,780,780,780,780,780,780,780,780,780,780,780,780,780,780,780,780,780,780,780,780,780,780,780,780,780,780,780,780,780,780,780,780,780,780,780,780,780,780,780,780,780,780,780,780,780,780,780,780,780,780,780,780,780,780,780,780,780,780,780,780,780,780,780,780,780,780,780,780,780,780,780,780,780,780,780,780,780,780,780,780,780,780,780,780,780,780,780,780,780,780,780,780,780,780,780,780,780,780,780,780,780,780,780,780,780,780,780,780,780,780,780,780,780,780,780,780,780,780,780,780,780,780,780,780,780,780,780,780,780,780,780,780,780,780,780,780,780,780,780,780,780,780,780,780,780,780,780,780,781,781,781,781,781,781,781,781,781,781,781,781,781,781,781,781,781,781,781,781,781,781,781,781,781,781,781,781,781,781,781,781,781,781,781,781,781,781,781,781,782,782,782,782,782,782,782,782,782,782,782,782,782,782,782,782,782,782,782,782,782,782,782,782,782,782,782,782,782,782,782,782,782,782,782,782,782,782,782,782,782,781,777,774,774,774,774,774,774,774,774,774,778,783,791,796,798,798,798,798,801,801,802,802,802,797,779,773,773,773,773,773,773,773,773,773,773,773,773,773,773,773,772,772,772,778,788,810,816,818,819,819,819,819,819,819,819,819,819,819,819,819,819,819,819,819,819,819,819,819,819,819,819,819,819,819,819,819,819,819,819,819,819,819,819,819,819,819,819,819,819,819,819,819,819,819,819,819,819,819,819,819,819,819,819,819,819,819,819,819,819,819,819,819,819,819,819,819,819,819,819,819,819,819,819,819,819,819,819,819,819,817,800,786,778,776,776,776,776,776,776,776,776,776,776,776,776,776,776,776,776,776,776,776,776,776,776,776,776,776,776,780,785,788,789,789,789,789,789,789,789,789,789,789,789,789,789,789,789,789,789,789,789,789,789,789,789,789,789,789,789,789,789,789,789,789,789,789,789,789,789,789,789,789,789,789,789,789,789,789,789,789,789,789,789,789,789,789,789,789,789,789,789,789,789,789,789,789,789,789,789,789,789,789,789,789,789,789,789,789,789,789,789,789,789,789,789,789,789,789,789,789,789,789,789,789,789,789,789,789,789,789,789,789,789,789,789,789,789,789,789,789,789,789,789,789,789,789,789,789,789,789,789,789,789,789,789,789,789,789,789,789,789,789,789,789,789,789,789,789,789,789,789,789,789,789,789,789,789,789,789,789,789,789,789,789,789,789,789,789,789,789,789,789,789,789,789,789,789,789,789,789,789,789,789,789,789,789,789,789,789,789,789,789,789,789,789,781,742,712,701,698,683,678,677,676,676,677,677,668,649,620,569,524],"ymouse":[516,516,516,516,516,516,516,516,516,516,516,516,516,516,516,516,516,516,516,516,516,516,516,516,516,516,516,516,516,516,516,516,516,516,516,516,516,516,516,516,516,516,516,516,516,516,516,516,516,516,516,516,516,516,516,516,516,516,516,516,516,516,516,516,516,516,516,516,516,516,516,516,516,516,516,516,516,516,516,516,516,516,516,516,516,516,516,516,516,516,516,516,516,516,516,516,516,516,516,516,516,516,516,516,516,516,516,516,516,516,516,516,516,516,516,516,516,516,516,516,516,516,516,516,516,516,516,516,516,516,516,516,516,516,516,516,516,516,516,516,516,516,516,516,516,516,516,516,516,516,516,516,516,516,516,516,516,516,516,516,516,516,516,516,516,516,516,516,516,516,516,516,516,516,516,516,516,516,516,516,516,516,516,516,516,516,516,516,516,516,516,516,516,516,516,516,516,516,516,516,516,516,516,516,516,516,516,516,516,516,516,516,516,516,516,516,516,516,516,516,516,516,516,516,516,516,516,516,516,516,516,516,516,516,516,516,516,516,516,516,516,516,516,516,516,516,516,516,516,516,516,516,516,516,516,516,516,516,516,516,516,516,516,516,516,516,516,516,516,516,516,516,516,516,516,516,516,516,516,516,516,516,516,516,516,516,516,516,516,516,516,516,516,516,516,516,516,516,516,516,516,516,516,516,516,516,516,516,516,516,516,516,516,516,516,516,516,516,516,516,516,516,516,516,516,516,516,516,516,516,516,516,516,516,516,516,516,516,516,516,516,516,516,516,516,516,516,516,516,516,516,516,516,516,516,516,516,516,516,516,516,516,516,516,516,516,516,516,516,516,516,516,516,516,516,516,516,516,516,516,516,516,516,516,516,516,516,516,516,516,516,516,516,518,473,6,6,6,6,6,6,6,6,6,6,6,6,6,6,6,6,6,6,6,6,6,13,34,61,97,137,202,218,229,237,247,284,299,307,317,329,348,356,365,390,407,426,443,465,483,491,501,503,503,504,504,505,505,505,505,505,505,505,503,502,502,498,497,497,497,497,497,497,497,498,500,512,513,514,514,517,521,524,524,524,524,524,524,524,525,528,538,544,546,546,546,546,546,546,542,539,539,539,539,539,539,539,539,539,539,539,539,539,539,538,534,528,527,527,527,527,527,525,522,522,522,522,522,522,522,522,522,522,522,522,522,522,522,522,522,522,522,522,522,522,522,522,522,522,522,522,522,522,522,522,522,522,522,522,522,522,522,522,522,522,522,522,522,522,522,522,522,522,522,522,522,522,522,522,522,522,522,522,522,522,522,522,522,522,522,522,522,522,522,522,522,522,522,522,522,522,522,522,522,522,522,522,522,522,522,522,522,522,522,522,522,522,522,522,522,522,522,522,522,522,522,522,522,522,522,522,522,522,522,522,522,522,522,522,522,522,522,522,522,522,522,522,522,522,522,522,522,522,522,522,522,522,522,522,522,522,522,522,522,522,522,522,522,522,522,522,522,522,522,522,522,522,522,522,522,522,522,522,522,522,522,522,522,522,522,522,522,522,522,522,522,522,522,522,522,522,522,522,522,522,522,522,522,522,522,522,522,522,522,522,522,522,522,522,522,522,522,522,522,522,522,522,522,522,522,522,522,522,522,522,522,522,522,522,522,522,522,522,522,522,522,522,522,522,522,522,522,522,522,522,522,522,522,522,522,522,522,522,522,522,522,522,522,522,522,522,522,522,522,522,522,522,522,522,522,522,522,522,522,522,522,522,522,522,522,522,522,522,522,521,520,520,520,520,520,520,520,520,520,520,520,520,520,520,520,520,520,520,520,520,520,520,520,520,520,520,520,520,520,520,520,520,520,520,520,520,520,520,520,520,521,522,522,522,522,522,522,522,522,522,523,524,526,526,526,526,526,526,526,52