[{"start_time":1552073517654,"click_time":1552073518272,"finger_time":1552073517671,"fix_duration":941.8628662225861,"trial":0,"RT":17,"MT":601,"sideResp":1,"stimulus":[],"xmouse":[785,785,785,785,785,785,785,785,785,785,785,785,785,785,785,785,769,726,681,647,615,608,602,587,579,563,560,557,553,549,518],"ymouse":[552,552,552,552,552,552,552,552,552,552,552,552,552,552,552,545,487,395,320,286,247,240,233,215,202,171,161,152,144,132,68],"timestamp_mouse":[16,35,56,76,95,116,136,155,176,196,215,234,256,276,296,316,334,355,376,395,416,436,455,476,495,515,535,555,575,595,616],"xSR":741.5,"ySR":501.8,"xT1":424.9,"yT1":0,"xT2":1058.1,"yT2":0,"toosoon":0,"cond_shown":"Congruent","ratio_trial":100,"L_num":11,"L_den":22,"R_num":6,"R_den":15,"correct_side":1,"subjID":"lauracamargomendez15","gender":"1","age":"9","school":"4","test":{"fix_dur":[250,1500],"timestim":1000,"targets_dim":[100,100],"targets_relative_coord":[0.3,0.7],"size_stim":[880,420],"start_dim":[100,100],"size_start":[300,300],"size_fix":60,"samplingrate":20,"img_types":["Congruent","Incongruent"],"ratios":[100,200,300],"rep_conds":19,"nTrials":120,"trials_to_rest":500,"Trials_order":[66,7,50,95,93,92,94,19,9,105,26,69,64,20,34,67,55,81,102,114,3,38,65,90,110,91,119,51,86,37,85,60,53,99,83,25,107,45,111,68,61,71,117,8,63,42,79,23,15,40,6,72,33,109,116,77,78,56,36,30,27,1,75,101,18,24,4,48,113,2,46,97,118,74,43,44,17,106,29,89,10,54,49,108,16,52,13,35,82,70,12,62,57,47,112,103,87,73,21,96,14,59,84,58,5,88,80,31,28,0,41,11,115,76,100,104,32,98,39,22],"cond_shown":["Congruent","Incongruent","Congruent","Incongruent","Incongruent","Congruent","Congruent","Incongruent","Incongruent","Incongruent","Congruent","Incongruent","Congruent","Congruent","Congruent","Incongruent","Incongruent","Incongruent","Congruent","Congruent","Incongruent","Congruent","Incongruent","Congruent","Congruent","Incongruent","Incongruent","Incongruent","Congruent","Incongruent","Incongruent","Congruent","Incongruent","Incongruent","Incongruent","Incongruent","Incongruent","Incongruent","Incongruent","Congruent","Incongruent","Incongruent","Incongruent","Congruent","Incongruent","Congruent","Incongruent","Incongruent","Incongruent","Congruent","Congruent","Congruent","Incongruent","Incongruent","Congruent","Incongruent","Congruent","Congruent","Congruent","Congruent","Incongruent","Incongruent","Incongruent","Incongruent","Congruent","Congruent","Congruent","Congruent","Incongruent","Congruent","Congruent","Incongruent","Congruent","Congruent","Incongruent","Congruent","Incongruent","Congruent","Incongruent","Incongruent","Congruent","Congruent","Incongruent","Congruent","Congruent","Congruent","Incongruent","Incongruent","Congruent","Congruent","Congruent","Congruent","Incongruent","Incongruent","Congruent","Incongruent","Incongruent","Incongruent","Incongruent","Congruent","Congruent","Incongruent","Congruent","Congruent","Incongruent","Congruent","Congruent","Incongruent","Congruent","Congruent","Incongruent","Incongruent","Incongruent","Congruent","Congruent","Congruent","Congruent","Congruent","Incongruent","Congruent"],"ratio_trial":[100,100,200,300,200,200,300,100,200,200,200,200,300,200,300,100,100,200,100,100,200,200,300,100,200,100,300,200,200,100,100,100,300,200,300,100,300,200,200,200,100,300,200,200,200,100,100,300,200,300,100,100,200,100,200,300,100,200,100,100,200,100,200,300,100,100,300,100,300,200,300,100,300,200,100,200,300,300,300,300,300,100,100,100,300,300,100,300,300,300,100,200,200,300,300,100,200,100,200,100,200,300,100,300,300,300,200,100,300,100,300,300,100,300,300,200,200,200,200,300],"left_num":[11,3,4,4,1,9,4,9,11,7,16,7,1,1,3,12,17,14,8,1,9,8,4,3,3,6,2,11,4,17,17,15,4,7,4,9,8,4,6,4,13,1,7,11,7,11,17,4,7,20,8,7,9,11,3,4,4,3,15,6,1,10,6,13,10,4,20,9,4,16,2,13,3,3,2,8,4,20,3,13,4,2,9,3,12,4,9,4,20,8,1,13,9,13,20,3,6,2,7,11,3,1,6,7,8,11,21,3,2,9,13,1,8,12,8,12,4,16,4,12],"right_num":[6,11,3,8,2,13,1,13,3,4,12,8,3,21,11,9,10,12,2,3,8,3,8,4,14,3,6,3,3,10,10,13,8,14,2,20,14,14,3,3,12,2,8,3,12,4,10,2,14,8,2,9,8,9,14,2,6,11,13,5,3,8,3,12,3,15,14,8,2,12,10,6,2,14,6,7,6,14,4,12,2,11,6,4,2,1,14,2,5,10,18,14,8,12,14,4,3,6,6,6,7,3,15,20,14,2,2,4,10,8,12,3,6,2,1,6,3,9,1,2],"left_den":[22,5,8,5,3,30,10,15,20,15,20,10,5,2,12,24,30,30,16,2,15,15,5,20,10,12,4,20,10,30,30,25,5,10,20,10,10,6,20,8,26,2,10,22,10,22,30,20,10,25,16,14,15,22,6,20,8,10,25,20,2,25,20,26,25,10,25,15,20,20,20,26,6,6,4,15,5,25,6,26,5,5,18,20,24,10,15,20,25,15,2,26,15,26,25,6,20,4,15,22,10,2,12,14,10,22,30,6,20,15,26,2,16,24,16,15,10,30,30,24],"right_den":[15,22,10,16,15,26,10,26,4,6,20,16,6,30,20,15,15,18,5,5,10,9,16,16,28,5,30,4,15,15,15,26,16,28,4,25,28,30,6,10,20,10,16,10,24,10,15,4,28,16,5,15,10,15,20,4,10,22,26,25,10,16,6,15,10,30,28,16,4,20,25,10,10,20,15,21,12,28,20,15,4,22,10,16,10,10,28,4,10,12,30,20,10,15,28,10,6,15,9,15,14,15,25,25,28,10,4,10,25,16,15,15,10,10,5,10,15,27,3,10],"correct_side":[1,1,1,1,1,2,1,1,2,2,1,1,2,2,2,2,2,2,1,2,2,1,1,2,2,2,1,2,1,2,2,1,1,1,2,1,1,1,2,1,2,1,1,1,1,1,2,2,1,1,1,2,2,2,2,2,2,2,1,1,1,2,2,2,1,2,1,1,2,1,2,2,1,2,1,1,1,1,1,2,1,2,2,2,1,1,1,2,1,2,2,2,2,2,1,1,2,1,2,1,2,1,2,2,1,1,1,1,2,1,2,1,2,1,1,1,1,1,2,1],"img_shown":["img2/100/Congruent/L/C_Dist_100_LN_11_LD_22_RN_6_RD_15_0.png","img2/100/Incongruent/L/I_Dist_100_LN_3_LD_5_RN_11_RD_22_0.png","img2/200/Congruent/L/C_Dist_200_LN_4_LD_8_RN_3_RD_10_0.png","img2/300/Incongruent/L/I_Dist_300_LN_4_LD_5_RN_8_RD_16_0.png","img2/200/Incongruent/L/I_Dist_200_LN_1_LD_3_RN_2_RD_15_0.png","img2/200/Congruent/R/C_Dist_200_LN_9_LD_30_RN_13_RD_26_1.png","img2/300/Congruent/L/C_Dist_300_LN_4_LD_10_RN_1_RD_10_0.png","img2/100/Incongruent/L/I_Dist_100_LN_9_LD_15_RN_13_RD_26_0.png","img2/200/Incongruent/R/I_Dist_200_LN_11_LD_20_RN_3_RD_4_1.png","img2/200/Incongruent/R/I_Dist_200_LN_7_LD_15_RN_4_RD_6_1.png","img2/200/Congruent/L/C_Dist_200_LN_16_LD_20_RN_12_RD_20_0.png","img2/200/Incongruent/L/I_Dist_200_LN_7_LD_10_RN_8_RD_16_0.png","img2/300/Congruent/R/C_Dist_300_LN_1_LD_5_RN_3_RD_6_1.png","img2/200/Congruent/R/C_Dist_200_LN_1_LD_2_RN_21_RD_30_1.png","img2/300/Congruent/R/C_Dist_300_LN_3_LD_12_RN_11_RD_20_1.png","img2/100/Incongruent/R/I_Dist_100_LN_12_LD_24_RN_9_RD_15_1.png","img2/100/Incongruent/R/I_Dist_100_LN_17_LD_30_RN_10_RD_15_1.png","img2/200/Incongruent/R/I_Dist_200_LN_14_LD_30_RN_12_RD_18_1.png","img2/100/Congruent/L/C_Dist_100_LN_8_LD_16_RN_2_RD_5_0.png","img2/100/Congruent/R/C_Dist_100_LN_1_LD_2_RN_3_RD_5_1.png","img2/200/Incongruent/R/I_Dist_200_LN_9_LD_15_RN_8_RD_10_1.png","img2/200/Congruent/L/C_Dist_200_LN_8_LD_15_RN_3_RD_9_0.png","img2/300/Incongruent/L/I_Dist_300_LN_4_LD_5_RN_8_RD_16_0.png","img2/100/Congruent/R/C_Dist_100_LN_3_LD_20_RN_4_RD_16_1.png","img2/200/Congruent/R/C_Dist_200_LN_3_LD_10_RN_14_RD_28_1.png","img2/100/Incongruent/R/I_Dist_100_LN_6_LD_12_RN_3_RD_5_1.png","img2/300/Incongruent/L/I_Dist_300_LN_2_LD_4_RN_6_RD_30_0.png","img2/200/Incongruent/R/I_Dist_200_LN_11_LD_20_RN_3_RD_4_1.png","img2/200/Congruent/L/C_Dist_200_LN_4_LD_10_RN_3_RD_15_0.png","img2/100/Incongruent/R/I_Dist_100_LN_17_LD_30_RN_10_RD_15_1.png","img2/100/Incongruent/R/I_Dist_100_LN_17_LD_30_RN_10_RD_15_1.png","img2/100/Congruent/L/C_Dist_100_LN_15_LD_25_RN_13_RD_26_0.png","img2/300/Incongruent/L/I_Dist_300_LN_4_LD_5_RN_8_RD_16_0.png","img2/200/Incongruent/L/I_Dist_200_LN_7_LD_10_RN_14_RD_28_0.png","img2/300/Incongruent/R/I_Dist_300_LN_4_LD_20_RN_2_RD_4_1.png","img2/100/Incongruent/L/I_Dist_100_LN_9_LD_10_RN_20_RD_25_0.png","img2/300/Incongruent/L/I_Dist_300_LN_8_LD_10_RN_14_RD_28_0.png","img2/200/Incongruent/L/I_Dist_200_LN_4_LD_6_RN_14_RD_30_0.png","img2/200/Incongruent/R/I_Dist_200_LN_6_LD_20_RN_3_RD_6_1.png","img2/200/Congruent/L/C_Dist_200_LN_4_LD_8_RN_3_RD_10_0.png","img2/100/Incongruent/R/I_Dist_100_LN_13_LD_26_RN_12_RD_20_1.png","img2/300/Incongruent/L/I_Dist_300_LN_1_LD_2_RN_2_RD_10_0.png","img2/200/Incongruent/L/I_Dist_200_LN_7_LD_10_RN_8_RD_16_0.png","img2/200/Congruent/L/C_Dist_200_LN_11_LD_22_RN_3_RD_10_0.png","img2/200/Incongruent/L/I_Dist_200_LN_7_LD_10_RN_12_RD_24_0.png","img2/100/Congruent/L/C_Dist_100_LN_11_LD_22_RN_4_RD_10_0.png","img2/100/Incongruent/R/I_Dist_100_LN_17_LD_30_RN_10_RD_15_1.png","img2/300/Incongruent/R/I_Dist_300_LN_4_LD_20_RN_2_RD_4_1.png","img2/200/Incongruent/L/I_Dist_200_LN_7_LD_10_RN_14_RD_28_0.png","img2/300/Congruent/L/C_Dist_300_LN_20_LD_25_RN_8_RD_16_0.png","img2/100/Congruent/L/C_Dist_100_LN_8_LD_16_RN_2_RD_5_0.png","img2/100/Congruent/R/C_Dist_100_LN_7_LD_14_RN_9_RD_15_1.png","img2/200/Incongruent/R/I_Dist_200_LN_9_LD_15_RN_8_RD_10_1.png","img2/100/Incongruent/R/I_Dist_100_LN_11_LD_22_RN_9_RD_15_1.png","img2/200/Congruent/R/C_Dist_200_LN_3_LD_6_RN_14_RD_20_1.png","img2/300/Incongruent/R/I_Dist_300_LN_4_LD_20_RN_2_RD_4_1.png","img2/100/Congruent/R/C_Dist_100_LN_4_LD_8_RN_6_RD_10_1.png","img2/200/Congruent/R/C_Dist_200_LN_3_LD_10_RN_11_RD_22_1.png","img2/100/Congruent/L/C_Dist_100_LN_15_LD_25_RN_13_RD_26_0.png","img2/100/Congruent/L/C_Dist_100_LN_6_LD_20_RN_5_RD_25_0.png","img2/200/Incongruent/L/I_Dist_200_LN_1_LD_2_RN_3_RD_10_0.png","img2/100/Incongruent/R/I_Dist_100_LN_10_LD_25_RN_8_RD_16_1.png","img2/200/Incongruent/R/I_Dist_200_LN_6_LD_20_RN_3_RD_6_1.png","img2/300/Incongruent/R/I_Dist_300_LN_13_LD_26_RN_12_RD_15_1.png","img2/100/Congruent/L/C_Dist_100_LN_10_LD_25_RN_3_RD_10_0.png","img2/100/Congruent/R/C_Dist_100_LN_4_LD_10_RN_15_RD_30_1.png","img2/300/Congruent/L/C_Dist_300_LN_20_LD_25_RN_14_RD_28_0.png","img2/100/Congruent/L/C_Dist_100_LN_9_LD_15_RN_8_RD_16_0.png","img2/300/Incongruent/R/I_Dist_300_LN_4_LD_20_RN_2_RD_4_1.png","img2/200/Congruent/L/C_Dist_200_LN_16_LD_20_RN_12_RD_20_0.png","img2/300/Congruent/R/C_Dist_300_LN_2_LD_20_RN_10_RD_25_1.png","img2/100/Incongruent/R/I_Dist_100_LN_13_LD_26_RN_6_RD_10_1.png","img2/300/Congruent/L/C_Dist_300_LN_3_LD_6_RN_2_RD_10_0.png","img2/200/Congruent/R/C_Dist_200_LN_3_LD_6_RN_14_RD_20_1.png","img2/100/Incongruent/L/I_Dist_100_LN_2_LD_4_RN_6_RD_15_0.png","img2/200/Congruent/L/C_Dist_200_LN_8_LD_15_RN_7_RD_21_0.png","img2/300/Incongruent/L/I_Dist_300_LN_4_LD_5_RN_6_RD_12_0.png","img2/300/Congruent/L/C_Dist_300_LN_20_LD_25_RN_14_RD_28_0.png","img2/300/Incongruent/L/I_Dist_300_LN_3_LD_6_RN_4_RD_20_0.png","img2/300/Incongruent/R/I_Dist_300_LN_13_LD_26_RN_12_RD_15_1.png","img2/300/Congruent/L/C_Dist_300_LN_4_LD_5_RN_2_RD_4_0.png","img2/100/Congruent/R/C_Dist_100_LN_2_LD_5_RN_11_RD_22_1.png","img2/100/Incongruent/R/I_Dist_100_LN_9_LD_18_RN_6_RD_10_1.png","img2/100/Congruent/R/C_Dist_100_LN_3_LD_20_RN_4_RD_16_1.png","img2/300/Congruent/L/C_Dist_300_LN_12_LD_24_RN_2_RD_10_0.png","img2/300/Congruent/L/C_Dist_300_LN_4_LD_10_RN_1_RD_10_0.png","img2/100/Incongruent/L/I_Dist_100_LN_9_LD_15_RN_14_RD_28_0.png","img2/300/Incongruent/R/I_Dist_300_LN_4_LD_20_RN_2_RD_4_1.png","img2/300/Congruent/L/C_Dist_300_LN_20_LD_25_RN_5_RD_10_0.png","img2/300/Congruent/R/C_Dist_300_LN_8_LD_15_RN_10_RD_12_1.png","img2/100/Congruent/R/C_Dist_100_LN_1_LD_2_RN_18_RD_30_1.png","img2/200/Congruent/R/C_Dist_200_LN_13_LD_26_RN_14_RD_20_1.png","img2/200/Incongruent/R/I_Dist_200_LN_9_LD_15_RN_8_RD_10_1.png","img2/300/Incongruent/R/I_Dist_300_LN_13_LD_26_RN_12_RD_15_1.png","img2/300/Congruent/L/C_Dist_300_LN_20_LD_25_RN_14_RD_28_0.png","img2/100/Incongruent/L/I_Dist_100_LN_3_LD_6_RN_4_RD_10_0.png","img2/200/Incongruent/R/I_Dist_200_LN_6_LD_20_RN_3_RD_6_1.png","img2/100/Incongruent/L/I_Dist_100_LN_2_LD_4_RN_6_RD_15_0.png","img2/200/Incongruent/R/I_Dist_200_LN_7_LD_15_RN_6_RD_9_1.png","img2/100/Congruent/L/C_Dist_100_LN_11_LD_22_RN_6_RD_15_0.png","img2/200/Congruent/R/C_Dist_200_LN_3_LD_10_RN_7_RD_14_1.png","img2/300/Incongruent/L/I_Dist_300_LN_1_LD_2_RN_3_RD_15_0.png","img2/100/Congruent/R/C_Dist_100_LN_6_LD_12_RN_15_RD_25_1.png","img2/300/Congruent/R/C_Dist_300_LN_7_LD_14_RN_20_RD_25_1.png","img2/300/Incongruent/L/I_Dist_300_LN_8_LD_10_RN_14_RD_28_0.png","img2/300/Congruent/L/C_Dist_300_LN_11_LD_22_RN_2_RD_10_0.png","img2/200/Congruent/L/C_Dist_200_LN_21_LD_30_RN_2_RD_4_0.png","img2/100/Incongruent/L/I_Dist_100_LN_3_LD_6_RN_4_RD_10_0.png","img2/300/Congruent/R/C_Dist_300_LN_2_LD_20_RN_10_RD_25_1.png","img2/100/Congruent/L/C_Dist_100_LN_9_LD_15_RN_8_RD_16_0.png","img2/300/Incongruent/R/I_Dist_300_LN_13_LD_26_RN_12_RD_15_1.png","img2/300/Incongruent/L/I_Dist_300_LN_1_LD_2_RN_3_RD_15_0.png","img2/100/Incongruent/R/I_Dist_100_LN_8_LD_16_RN_6_RD_10_1.png","img2/300/Congruent/L/C_Dist_300_LN_12_LD_24_RN_2_RD_10_0.png","img2/300/Congruent/L/C_Dist_300_LN_8_LD_16_RN_1_RD_5_0.png","img2/200/Congruent/L/C_Dist_200_LN_12_LD_15_RN_6_RD_10_0.png","img2/200/Congruent/L/C_Dist_200_LN_4_LD_10_RN_3_RD_15_0.png","img2/200/Congruent/L/C_Dist_200_LN_16_LD_30_RN_9_RD_27_0.png","img2/200/Incongruent/R/I_Dist_200_LN_4_LD_30_RN_1_RD_3_1.png","img2/300/Congruent/L/C_Dist_300_LN_12_LD_24_RN_2_RD_10_0.png"],"dist100_C":[["C_Dist_100_LN_10_LD_25_RN_3_RD_10_0.png","C_Dist_100_LN_11_LD_22_RN_4_RD_10_0.png","C_Dist_100_LN_11_LD_22_RN_6_RD_15_0.png","C_Dist_100_LN_15_LD_25_RN_13_RD_26_0.png","C_Dist_100_LN_3_LD_6_RN_2_RD_5_0.png","C_Dist_100_LN_6_LD_20_RN_5_RD_25_0.png","C_Dist_100_LN_8_LD_16_RN_2_RD_5_0.png","C_Dist_100_LN_9_LD_15_RN_8_RD_16_0.png"],["C_Dist_100_LN_1_LD_2_RN_18_RD_30_1.png","C_Dist_100_LN_1_LD_2_RN_3_RD_5_1.png","C_Dist_100_LN_12_LD_30_RN_13_RD_26_1.png","C_Dist_100_LN_2_LD_5_RN_11_RD_22_1.png","C_Dist_100_LN_2_LD_5_RN_6_RD_12_1.png","C_Dist_100_LN_3_LD_20_RN_4_RD_16_1.png","C_Dist_100_LN_4_LD_10_RN_15_RD_30_1.png","C_Dist_100_LN_4_LD_8_RN_6_RD_10_1.png","C_Dist_100_LN_6_LD_12_RN_15_RD_25_1.png","C_Dist_100_LN_7_LD_14_RN_15_RD_25_1.png","C_Dist_100_LN_7_LD_14_RN_9_RD_15_1.png"]],"dist100_I":[["I_Dist_100_LN_1_LD_2_RN_8_RD_20_0.png","I_Dist_100_LN_2_LD_4_RN_6_RD_15_0.png","I_Dist_100_LN_2_LD_4_RN_8_RD_20_0.png","I_Dist_100_LN_3_LD_5_RN_11_RD_22_0.png","I_Dist_100_LN_3_LD_5_RN_8_RD_16_0.png","I_Dist_100_LN_3_LD_6_RN_4_RD_10_0.png","I_Dist_100_LN_3_LD_9_RN_7_RD_30_0.png","I_Dist_100_LN_4_LD_8_RN_8_RD_20_0.png","I_Dist_100_LN_6_LD_10_RN_11_RD_22_0.png","I_Dist_100_LN_6_LD_10_RN_13_RD_26_0.png","I_Dist_100_LN_6_LD_10_RN_7_RD_14_0.png","I_Dist_100_LN_9_LD_10_RN_20_RD_25_0.png","I_Dist_100_LN_9_LD_15_RN_13_RD_26_0.png","I_Dist_100_LN_9_LD_15_RN_14_RD_28_0.png"],["I_Dist_100_LN_10_LD_25_RN_8_RD_16_1.png","I_Dist_100_LN_10_LD_25_RN_9_RD_18_1.png","I_Dist_100_LN_11_LD_22_RN_9_RD_15_1.png","I_Dist_100_LN_12_LD_24_RN_9_RD_15_1.png","I_Dist_100_LN_12_LD_30_RN_2_RD_4_1.png","I_Dist_100_LN_13_LD_26_RN_12_RD_20_1.png","I_Dist_100_LN_13_LD_26_RN_6_RD_10_1.png","I_Dist_100_LN_17_LD_30_RN_10_RD_15_1.png","I_Dist_100_LN_6_LD_12_RN_3_RD_5_1.png","I_Dist_100_LN_8_LD_16_RN_6_RD_10_1.png","I_Dist_100_LN_8_LD_20_RN_1_RD_2_1.png","I_Dist_100_LN_9_LD_18_RN_6_RD_10_1.png"]],"dist100_S":[["E_Dist_100_LN_2_LD_12_RN_2_RD_30_0.png","E_Dist_100_LN_6_LD_10_RN_6_RD_12_0.png"],["E_Dist_100_LN_6_LD_12_RN_6_RD_10_1.png"]],"dist200_C":[["C_Dist_200_LN_11_LD_22_RN_3_RD_10_0.png","C_Dist_200_LN_12_LD_15_RN_6_RD_10_0.png","C_Dist_200_LN_12_LD_20_RN_6_RD_15_0.png","C_Dist_200_LN_14_LD_28_RN_6_RD_20_0.png","C_Dist_200_LN_15_LD_25_RN_4_RD_10_0.png","C_Dist_200_LN_16_LD_20_RN_12_RD_20_0.png","C_Dist_200_LN_16_LD_30_RN_9_RD_27_0.png","C_Dist_200_LN_20_LD_25_RN_9_RD_15_0.png","C_Dist_200_LN_21_LD_30_RN_2_RD_4_0.png","C_Dist_200_LN_4_LD_10_RN_3_RD_15_0.png","C_Dist_200_LN_4_LD_8_RN_3_RD_10_0.png","C_Dist_200_LN_6_LD_15_RN_3_RD_15_0.png","C_Dist_200_LN_7_LD_21_RN_2_RD_15_0.png","C_Dist_200_LN_8_LD_15_RN_2_RD_6_0.png","C_Dist_200_LN_8_LD_15_RN_3_RD_9_0.png","C_Dist_200_LN_8_LD_15_RN_7_RD_21_0.png","C_Dist_200_LN_9_LD_20_RN_4_RD_16_0.png"],["C_Dist_200_LN_1_LD_2_RN_21_RD_30_1.png","C_Dist_200_LN_13_LD_26_RN_14_RD_20_1.png","C_Dist_200_LN_3_LD_10_RN_11_RD_22_1.png","C_Dist_200_LN_3_LD_10_RN_14_RD_28_1.png","C_Dist_200_LN_3_LD_10_RN_7_RD_14_1.png","C_Dist_200_LN_3_LD_12_RN_9_RD_20_1.png","C_Dist_200_LN_3_LD_6_RN_14_RD_20_1.png","C_Dist_200_LN_5_LD_10_RN_14_RD_20_1.png","C_Dist_200_LN_6_LD_12_RN_7_RD_10_1.png","C_Dist_200_LN_6_LD_20_RN_11_RD_22_1.png","C_Dist_200_LN_7_LD_15_RN_18_RD_27_1.png","C_Dist_200_LN_9_LD_30_RN_13_RD_26_1.png"]],"dist200_I":[["I_Dist_200_LN_1_LD_2_RN_3_RD_10_0.png","I_Dist_200_LN_1_LD_3_RN_2_RD_15_0.png","I_Dist_200_LN_3_LD_4_RN_11_RD_20_0.png","I_Dist_200_LN_4_LD_5_RN_6_RD_10_0.png","I_Dist_200_LN_4_LD_6_RN_14_RD_30_0.png","I_Dist_200_LN_7_LD_10_RN_12_RD_24_0.png","I_Dist_200_LN_7_LD_10_RN_14_RD_28_0.png","I_Dist_200_LN_7_LD_10_RN_8_RD_16_0.png"],["I_Dist_200_LN_11_LD_20_RN_3_RD_4_1.png","I_Dist_200_LN_14_LD_30_RN_12_RD_18_1.png","I_Dist_200_LN_14_LD_30_RN_6_RD_9_1.png","I_Dist_200_LN_3_LD_10_RN_1_RD_2_1.png","I_Dist_200_LN_4_LD_30_RN_1_RD_3_1.png","I_Dist_200_LN_6_LD_20_RN_3_RD_6_1.png","I_Dist_200_LN_7_LD_15_RN_4_RD_6_1.png","I_Dist_200_LN_7_LD_15_RN_6_RD_9_1.png","I_Dist_200_LN_9_LD_15_RN_8_RD_10_1.png"]],"dist200_S":[["E_Dist_200_LN_3_LD_6_RN_3_RD_10_0.png"],["E_Dist_200_LN_3_LD_10_RN_3_RD_6_1.png"]],"dist300_C":[["C_Dist_300_LN_11_LD_22_RN_1_RD_5_0.png","C_Dist_300_LN_11_LD_22_RN_2_RD_10_0.png","C_Dist_300_LN_11_LD_22_RN_4_RD_20_0.png","C_Dist_300_LN_12_LD_24_RN_2_RD_10_0.png","C_Dist_300_LN_18_LD_20_RN_9_RD_15_0.png","C_Dist_300_LN_20_LD_25_RN_13_RD_26_0.png","C_Dist_300_LN_20_LD_25_RN_14_RD_28_0.png","C_Dist_300_LN_20_LD_25_RN_5_RD_10_0.png","C_Dist_300_LN_20_LD_25_RN_8_RD_16_0.png","C_Dist_300_LN_20_LD_25_RN_9_RD_18_0.png","C_Dist_300_LN_24_LD_30_RN_2_RD_4_0.png","C_Dist_300_LN_24_LD_30_RN_8_RD_16_0.png","C_Dist_300_LN_3_LD_6_RN_2_RD_10_0.png","C_Dist_300_LN_4_LD_10_RN_1_RD_10_0.png","C_Dist_300_LN_4_LD_5_RN_2_RD_4_0.png","C_Dist_300_LN_8_LD_16_RN_1_RD_5_0.png","C_Dist_300_LN_9_LD_10_RN_3_RD_5_0.png"],["C_Dist_300_LN_1_LD_20_RN_7_RD_20_1.png","C_Dist_300_LN_1_LD_3_RN_19_RD_30_1.png","C_Dist_300_LN_1_LD_30_RN_8_RD_24_1.png","C_Dist_300_LN_1_LD_5_RN_11_RD_22_1.png","C_Dist_300_LN_1_LD_5_RN_3_RD_6_1.png","C_Dist_300_LN_1_LD_5_RN_6_RD_12_1.png","C_Dist_300_LN_2_LD_10_RN_12_RD_24_1.png","C_Dist_300_LN_2_LD_20_RN_10_RD_25_1.png","C_Dist_300_LN_3_LD_12_RN_11_RD_20_1.png","C_Dist_300_LN_3_LD_6_RN_4_RD_5_1.png","C_Dist_300_LN_4_LD_20_RN_13_RD_26_1.png","C_Dist_300_LN_5_LD_25_RN_6_RD_12_1.png","C_Dist_300_LN_5_LD_25_RN_7_RD_14_1.png","C_Dist_300_LN_7_LD_14_RN_20_RD_25_1.png","C_Dist_300_LN_8_LD_15_RN_10_RD_12_1.png"]],"dist300_I":[["I_Dist_300_LN_1_LD_2_RN_2_RD_10_0.png","I_Dist_300_LN_1_LD_2_RN_3_RD_15_0.png","I_Dist_300_LN_2_LD_4_RN_6_RD_30_0.png","I_Dist_300_LN_3_LD_6_RN_4_RD_20_0.png","I_Dist_300_LN_4_LD_5_RN_6_RD_12_0.png","I_Dist_300_LN_4_LD_5_RN_8_RD_16_0.png","I_Dist_300_LN_7_LD_10_RN_8_RD_20_0.png","I_Dist_300_LN_8_LD_10_RN_14_RD_28_0.png","I_Dist_300_LN_8_LD_10_RN_9_RD_18_0.png"],["I_Dist_300_LN_13_LD_26_RN_12_RD_15_1.png","I_Dist_300_LN_4_LD_20_RN_2_RD_4_1.png"]],"dist300_S":[["E_Dist_300_LN_9_LD_12_RN_9_RD_20_0.png"],["E_Dist_300_LN_18_LD_30_RN_18_RD_20_1.png","E_Dist_300_LN_3_LD_10_RN_3_RD_5_1.png","E_Dist_300_LN_9_LD_20_RN_9_RD_12_1.png"]],"dist500_C":[["C_Dist_500_LN_10_LD_13_RN_7_RD_26_0.png","C_Dist_500_LN_10_LD_15_RN_4_RD_24_0.png","C_Dist_500_LN_12_LD_16_RN_3_RD_12_0.png","C_Dist_500_LN_12_LD_18_RN_4_RD_24_0.png","C_Dist_500_LN_15_LD_18_RN_5_RD_15_0.png","C_Dist_500_LN_15_LD_20_RN_1_RD_4_0.png","C_Dist_500_LN_18_LD_27_RN_1_RD_6_0.png","C_Dist_500_LN_20_LD_24_RN_1_RD_3_0.png","C_Dist_500_LN_20_LD_24_RN_3_RD_9_0.png","C_Dist_500_LN_20_LD_24_RN_7_RD_21_0.png","C_Dist_500_LN_20_LD_28_RN_3_RD_14_0.png","C_Dist_500_LN_21_LD_28_RN_6_RD_24_0.png","C_Dist_500_LN_22_LD_28_RN_2_RD_7_0.png","C_Dist_500_LN_25_LD_30_RN_9_RD_27_0.png","C_Dist_500_LN_4_LD_6_RN_1_RD_6_0.png","C_Dist_500_LN_5_LD_6_RN_2_RD_6_0.png","C_Dist_500_LN_6_LD_9_RN_1_RD_6_0.png","C_Dist_500_LN_7_LD_10_RN_1_RD_5_0.png","C_Dist_500_LN_8_LD_12_RN_1_RD_6_0.png","C_Dist_500_LN_8_LD_12_RN_4_RD_24_0.png"],["C_Dist_500_LN_1_LD_4_RN_12_RD_16_1.png","C_Dist_500_LN_1_LD_4_RN_9_RD_12_1.png","C_Dist_500_LN_1_LD_9_RN_11_RD_18_1.png","C_Dist_500_LN_10_LD_24_RN_22_RD_24_1.png","C_Dist_500_LN_2_LD_12_RN_10_RD_15_1.png","C_Dist_500_LN_2_LD_12_RN_12_RD_18_1.png","C_Dist_500_LN_2_LD_12_RN_4_RD_6_1.png","C_Dist_500_LN_2_LD_24_RN_7_RD_12_1.png","C_Dist_500_LN_2_LD_5_RN_18_RD_20_1.png","C_Dist_500_LN_2_LD_5_RN_9_RD_10_1.png","C_Dist_500_LN_2_LD_8_RN_12_RD_16_1.png","C_Dist_500_LN_2_LD_8_RN_21_RD_28_1.png","C_Dist_500_LN_3_LD_10_RN_4_RD_5_1.png","C_Dist_500_LN_3_LD_12_RN_15_RD_20_1.png","C_Dist_500_LN_3_LD_30_RN_6_RD_10_1.png","C_Dist_500_LN_3_LD_8_RN_14_RD_16_1.png","C_Dist_500_LN_4_LD_16_RN_15_RD_20_1.png","C_Dist_500_LN_4_LD_24_RN_12_RD_18_1.png","C_Dist_500_LN_5_LD_14_RN_6_RD_7_1.png","C_Dist_500_LN_7_LD_21_RN_20_RD_24_1.png","C_Dist_500_LN_7_LD_28_RN_12_RD_16_1.png","C_Dist_500_LN_7_LD_28_RN_9_RD_12_1.png","C_Dist_500_LN_9_LD_27_RN_20_RD_24_1.png"]],"dist500_I":[["I_Dist_500_LN_2_LD_3_RN_4_RD_24_0.png","I_Dist_500_LN_5_LD_6_RN_6_RD_18_0.png","I_Dist_500_LN_7_LD_8_RN_9_RD_24_0.png"],["I_Dist_500_LN_7_LD_21_RN_5_RD_6_1.png"]],"dist500_S":[["E_Dist_500_LN_6_LD_8_RN_6_RD_24_0.png"],["E_Dist_500_LN_2_LD_12_RN_2_RD_3_1.png","E_Dist_500_LN_6_LD_24_RN_6_RD_8_1.png"]]}},{"start_time":1552073519622,"click_time":1552073521431,"finger_time":1552073520930,"fix_duration":250,"trial":1,"RT":1308,"MT":501,"sideResp":2,"stimulus":[],"xmouse":[791,791,791,791,791,791,791,791,791,791,791,791,791,791,791,791,791,791,791,791,791,791,791,791,791,791,791,791,791,791,791,791,791,791,791,791,791,791,791,791,791,791,791,791,791,791,791,791,791,791,791,791,791,791,791,791,791,791,791,791,791,791,791,795,847,876,883,883,883,883,878,872,868,868,868,868,890,955,997,1026,1061,1080,1086,1086,1086,1086,1083,1082,1081,1079],"ymouse":[620,620,620,620,620,620,620,620,620,620,620,620,620,620,620,620,620,620,620,620,620,620,620,620,620,620,620,620,620,620,620,620,620,620,620,620,620,620,620,620,620,620,620,620,620,620,620,620,620,620,620,620,620,620,620,620,620,620,620,620,620,620,620,618,558,517,504,504,504,504,503,503,504,504,504,504,504,495,488,479,450,399,285,203,165,139,111,105,101,96],"timestamp_mouse":[8,27,75,87,107,127,147,166,188,208,227,247,267,288,307,327,347,367,386,408,428,448,468,488,508,527,547,568,587,607,627,647,668,688,707,727,748,767,787,807,827,848,868,888,907,927,947,968,988,1007,1028,1047,1067,1088,1107,1128,1147,1167,1188,1208,1228,1248,1268,1287,1308,1328,1347,1367,1387,1407,1428,1447,1467,1487,1507,1527,1547,1567,1589,1607,1628,1647,1667,1687,1708,1728,1747,1767,1787,1808],"xSR":741.5,"ySR":573.95,"xT1":424.9,"yT1":0,"xT2":1058.1,"yT2":0,"toosoon":0,"cond_shown":"Incongruent","ratio_trial":100,"L_num":3,"L_den":5,"R_num":11,"R_den":22,"correct_side":1,"subjID":"lauracamargomendez15","gender":"1","school":"4","age":"9"},{"start_time":1552073526548,"click_time":1552073527649,"finger_time":1552073527230,"fix_duration":875.0805066981471,"trial":2,"RT":682,"MT":419,"sideResp":1,"stimulus":[],"xmouse":[784,784,784,784,784,784,783,783,782,780,777,776,776,776,776,776,776,776,776,776,776,776,776,776,776,776,776,776,776,776,776,776,776,772,751,721,666,607,586,570,563,553,546,546,546,546,545,542,542,541,539,538,533,532,529,519],"ymouse":[617,617,617,617,617,617,617,617,617,616,613,610,606,606,606,606,606,606,606,606,606,606,606,606,606,606,606,606,606,606,606,606,606,592,542,477,366,229,176,142,120,93,67,60,60,60,58,56,55,53,52,51,50,50,50,48],"timestamp_mouse":[10,21,40,70,81,102,122,142,161,182,201,221,242,262,281,302,321,341,362,381,401,422,442,461,481,502,522,542,561,581,602,622,642,662,682,701,721,741,762,782,802,822,841,861,881,902,922,941,962,981,1001,1022,1041,1062,1081,1101],"xSR":741.5,"ySR":573.95,"xT1":424.9,"yT1":0,"xT2":1058.1,"yT2":0,"toosoon":0,"cond_shown":"Congruent","ratio_trial":200,"L_num":4,"L_den":8,"R_num":3,"R_den":10,"correct_side":1,"subjID":"lauracamargomendez15","gender":"1","school":"4","age":"9"},{"start_time":1552073529408,"click_time":1552073530849,"finger_time":1552073529670,"fix_duration":335.88048464686483,"trial":3,"RT":262,"MT":1179,"sideResp":1,"stimulus":[],"xmouse":[797,797,797,797,797,797,797,797,797,796,795,792,786,766,757,755,755,755,755,755,755,755,755,755,755,755,755,755,755,755,755,754,754,754,754,754,755,755,755,661,526,294,153,39,0,8,20,32,41,86,137,222,250,261,261,261,263,264,266,269,284,297,304,307,327,343,351,355,363,375,400,418,431],"ymouse":[610,610,610,610,610,610,610,610,610,610,609,602,593,568,554,549,549,549,549,549,549,549,549,549,549,549,549,549,549,549,549,549,551,555,562,581,584,584,584,445,296,39,0,0,0,0,0,0,1,48,86,136,151,154,154,154,154,153,147,141,126,115,109,106,90,84,82,80,79,77,74,74,74],"timestamp_mouse":[12,24,40,62,81,101,121,142,161,181,201,221,241,262,281,301,322,341,361,382,401,422,442,461,482,501,521,541,561,582,601,621,641,662,682,702,721,741,761,781,802,821,842,861,882,901,922,941,961,984,1001,1022,1041,1062,1082,1101,1122,1142,1161,1182,1202,1222,1241,1262,1281,1300,1321,1342,1362,1381,1401,1421,1441],"xSR":741.5,"ySR":573.95,"xT1":424.9,"yT1":0,"xT2":1058.1,"yT2":0,"toosoon":0,"cond_shown":"Incongruent","ratio_trial":300,"L_num":4,"L_den":5,"R_num":8,"R_den":16,"correct_side":1,"subjID":"lauracamargomendez15","gender":"1","school":"4","age":"9"},{"start_time":1552073533512,"click_time":1552073535869,"finger_time":1552073534930,"fix_duration":519.0310077099311,"trial":4,"RT":1418,"MT":939,"sideResp":1,"stimulus":[],"xmouse":[770,770,770,770,770,770,770,770,770,770,770,770,770,770,770,770,770,770,770,770,770,770,770,770,770,770,770,770,770,770,770,770,770,770,770,770,770,770,770,770,770,770,770,770,770,770,770,770,770,770,778,783,788,791,791,791,791,791,791,791,791,791,791,791,792,792,792,792,791,769,703,596,460,337,177,92,15,0,0,8,14,17,24,60,147,171,201,245,296,381,395,395,395,395,396,396,397,397,397,397,397,397,405,410,418,418,418,418,418,418,418,418,418,418,418,419,423,429],"ymouse":[622,622,622,622,622,622,622,622,623,624,624,624,624,624,624,624,624,624,624,624,624,624,624,624,624,624,624,624,624,624,624,624,624,624,624,624,624,624,624,624,624,624,624,624,624,624,624,624,624,625,627,630,631,631,631,631,631,631,631,631,631,631,631,631,632,632,632,632,632,617,570,486,374,253,0,0,0,0,0,0,0,0,0,0,8,12,21,32,46,65,66,66,66,66,66,66,66,65,63,63,63,62,62,62,62,62,62,62,62,61,61,61,61,61,61,60,59,59],"timestamp_mouse":[18,49,57,77,98,117,138,158,177,198,217,237,258,277,297,317,337,358,377,398,417,438,458,478,498,517,537,558,578,597,618,638,658,677,698,718,737,757,778,798,817,838,858,877,897,918,937,957,978,998,1018,1037,1058,1077,1097,1117,1137,1158,1177,1197,1217,1238,1257,1278,1297,1318,1337,1358,1378,1397,1418,1437,1457,1477,1497,1518,1537,1557,1577,1598,1617,1637,1657,1679,1698,1717,1738,1757,1777,1798,1818,1836,1857,1877,1897,1917,1937,1957,1977,1997,2018,2037,2058,2078,2098,2118,2138,2158,2178,2197,2218,2237,2257,2279,2297,2317,2338,2357],"xSR":741.5,"ySR":573.95,"xT1":424.9,"yT1":0,"xT2":1058.1,"yT2":0,"toosoon":0,"cond_shown":"Incongruent","ratio_trial":200,"L_num":1,"L_den":3,"R_num":2,"R_den":15,"correct_side":1,"subjID":"lauracamargomendez15","gender":"1","school":"4","age":"9"},{"start_time":1552073537283,"click_time":1552073539090,"finger_time":1552073538750,"fix_duration":252.91922659690601,"trial":5,"RT":1467,"MT":340,"sideResp":1,"stimulus":[],"xmouse":[774,774,774,774,774,774,774,774,774,774,774,774,774,774,774,774,774,774,774,774,774,774,774,774,774,774,774,774,775,775,775,775,775,775,775,775,775,775,775,775,775,775,775,775,775,775,775,775,775,775,775,775,775,775,775,775,775,775,775,775,775,775,775,775,775,775,775,775,775,775,776,776,773,757,733,682,601,591,588,585,579,543,529,528,523,518,510,484,478,473,456],"ymouse":[604,604,604,604,604,604,604,604,604,604,604,604,604,604,604,604,604,604,604,604,604,604,604,604,604,604,604,604,604,604,604,604,604,604,604,604,604,604,604,604,604,604,604,604,604,604,604,604,604,604,604,604,604,604,604,604,604,604,604,604,604,604,604,604,604,604,604,604,604,604,603,598,575,525,474,412,351,343,340,338,334,308,292,288,270,252,226,163,149,137,66],"timestamp_mouse":[10,26,47,67,87,107,127,146,167,187,206,227,247,266,287,307,326,346,367,387,407,426,446,466,487,506,527,546,566,587,606,627,646,667,686,707,726,746,766,786,807,826,846,866,886,907,927,947,967,986,1008,1026,1047,1067,1086,1107,1127,1147,1167,1186,1207,1227,1246,1267,1286,1307,1327,1347,1367,1387,1406,1426,1447,1467,1487,1505,1526,1546,1566,1587,1607,1626,1645,1666,1686,1706,1726,1747,1766,1787,1807],"xSR":741.5,"ySR":573.95,"xT1":424.9,"yT1":0,"xT2":1058.1,"yT2":0,"toosoon":0,"cond_shown":"Congruent","ratio_trial":200,"L_num":9,"L_den":30,"R_num":13,"R_den":26,"correct_side":2,"subjID":"lauracamargomendez15","gender":"1","school":"4","age":"9"},{"start_time":1552073546601,"click_time":1552073548229,"finger_time":1552073547949,"fix_duration":1292.923165139247,"trial":6,"RT":1348,"MT":280,"sideResp":2,"stimulus":[],"xmouse":[825,825,825,825,825,825,825,825,825,825,825,825,825,825,825,826,826,826,826,826,826,826,826,826,826,826,826,826,826,826,826,826,826,826,826,826,826,826,826,826,826,826,826,826,826,826,826,826,826,826,826,826,826,826,826,826,826,826,826,826,826,826,826,826,826,826,831,857,900,926,950,1055,1117,1138,1148,1157,1160,1166,1166,1166,1166,1152],"ymouse":[597,597,597,597,597,597,597,597,597,597,597,597,597,597,597,596,596,596,596,596,596,596,596,596,596,596,596,596,596,596,596,596,596,596,596,595,595,595,595,595,595,595,595,595,595,595,595,595,595,595,595,595,595,595,595,595,595,595,595,595,595,595,595,595,595,595,583,536,483,460,435,311,192,153,135,120,111,88,79,69,62,46],"timestamp_mouse":[8,28,48,68,88,108,128,148,168,188,209,229,248,268,288,309,327,349,368,388,408,428,448,468,488,508,528,548,568,588,608,628,648,668,688,709,729,748,768,788,808,829,848,869,888,908,928,949,969,988,1009,1028,1048,1068,1088,1108,1128,1148,1168,1188,1208,1228,1248,1268,1288,1308,1328,1348,1368,1389,1408,1428,1448,1468,1488,1508,1528,1547,1568,1587,1608,1628],"xSR":741.5,"ySR":573.95,"xT1":424.9,"yT1":0,"xT2":1058.1,"yT2":0,"toosoon":0,"cond_shown":"Congruent","ratio_trial":300,"L_num":4,"L_den":10,"R_num":1,"R_den":10,"correct_side":1,"subjID":"lauracamargomendez15","gender":"1","school":"4","age":"9"},{"start_time":1552073550839,"click_time":1552073552529,"finger_time":1552073552049,"fix_duration":1469.9515186628958,"trial":7,"RT":1210,"MT":480,"sideResp":2,"stimulus":[],"xmouse":[828,828,828,828,828,828,828,828,828,828,828,828,828,828,828,828,828,828,826,824,821,821,821,821,821,821,821,821,821,821,821,821,820,820,820,820,820,820,820,820,820,820,820,820,820,820,820,820,820,820,820,820,820,820,820,820,820,820,820,820,820,820,829,836,839,853,863,879,891,916,920,923,928,935,960,970,981,991,1001,1011,1033,1045,1050,1053,1059],"ymouse":[618,618,618,618,618,618,618,618,618,618,618,618,618,618,618,618,618,618,616,614,612,612,612,612,612,612,612,612,612,612,612,612,611,611,611,611,611,611,611,611,611,611,611,611,611,611,611,611,611,611,611,611,611,611,611,611,611,611,608,595,536,505,460,419,386,336,317,301,292,267,259,253,248,241,205,187,168,146,129,116,90,82,78,75,73],"timestamp_mouse":[11,31,50,70,90,110,130,150,170,190,210,230,250,270,291,310,330,350,370,390,410,430,450,470,490,510,531,550,570,591,610,630,651,670,690,710,730,750,770,790,810,830,850,870,890,910,930,950,970,990,1010,1030,1050,1070,1090,1110,1131,1150,1169,1189,1210,1229,1249,1270,1289,1309,1330,1349,1371,1391,1411,1430,1451,1470,1491,1511,1531,1551,1571,1590,1610,1630,1650,1671,1690],"xSR":741.5,"ySR":573.95,"xT1":424.9,"yT1":0,"xT2":1058.1,"yT2":0,"toosoon":0,"cond_shown":"Incongruent","ratio_trial":100,"L_num":9,"L_den":15,"R_num":13,"R_den":26,"correct_side":1,"subjID":"lauracamargomendez15","gender":"1","school":"4","age":"9"},{"start_time":1552073554825,"click_time":1552073555449,"finger_time":1552073555049,"fix_duration":1093.0192375012764,"trial":8,"RT":224,"MT":400,"sideResp":1,"stimulus":[],"xmouse":[792,788,787,787,787,787,787,787,787,789,793,792,779,757,730,695,635,615,604,601,601,601,600,599,597,594,587,577,574,565,551,506],"ymouse":[625,635,636,636,636,636,636,636,631,608,583,512,477,433,386,324,236,212,198,193,192,192,192,188,185,180,167,152,146,131,120,95],"timestamp_mouse":[4,25,48,64,85,104,124,144,165,185,204,224,244,264,284,304,326,344,364,384,404,425,444,465,484,504,524,545,565,584,604,624],"xSR":741.5,"ySR":573.95,"xT1":424.9,"yT1":0,"xT2":1058.1,"yT2":0,"toosoon":0,"cond_shown":"Incongruent","ratio_trial":200,"L_num":11,"L_den":20,"R_num":3,"R_den":4,"correct_side":2,"subjID":"lauracamargomendez15","gender":"1","school":"4","age":"9"},{"start_time":1552073559250,"click_time":1552073560070,"finger_time":1552073559269,"fix_duration":579.3363173615172,"trial":9,"RT":19,"MT":801,"sideResp":2,"stimulus":[],"xmouse":[753,753,753,753,753,756,764,767,770,772,778,796,812,823,842,869,940,962,976,996,1021,1026,1027,1028,1028,1030,1031,1031,1031,1032,1032,1023,1017,1013,1013,1013,1013,1013,1013,1013,1018,1061],"ymouse":[576,569,564,558,551,538,523,518,514,508,498,476,461,454,434,400,257,199,159,71,0,0,0,0,0,0,0,0,0,1,8,39,48,53,54,54,55,55,55,55,55,38],"timestamp_mouse":[0,19,39,60,80,99,120,139,159,180,200,219,239,259,279,299,320,340,360,380,401,421,440,460,480,499,519,539,559,579,599,620,640,660,680,699,719,739,759,779,799,820],"xSR":741.5,"ySR":573.95,"xT1":424.9,"yT1":0,"xT2":1058.1,"yT2":0,"toosoon":0,"cond_shown":"Incongruent","ratio_trial":200,"L_num":7,"L_den":15,"R_num":4,"R_den":6,"correct_side":2,"subjID":"lauracamargomendez15","gender":"1","school":"4","age":"9"},{"start_time":1552073561628,"click_time":1552073564009,"finger_time":1552073563071,"fix_duration":538.8224225119744,"trial":10,"RT":1443,"MT":938,"sideResp":2,"stimulus":[],"xmouse":[795,795,795,795,795,795,795,795,795,795,795,795,795,795,795,795,795,795,795,795,795,795,795,795,795,795,795,795,795,795,797,797,797,797,797,797,797,797,797,797,797,797,797,797,797,797,797,797,797,797,797,797,797,797,797,797,797,797,797,797,797,797,797,797,797,797,797,797,797,797,802,805,851,893,939,987,1014,1054,1062,1067,1069,1072,1081,1083,1083,1083,1083,1083,1084,1084,1084,1084,1084,1084,1084,1084,1084,1084,1084,1084,1084,1084,1084,1084,1084,1084,1084,1084,1084,1084,1084,1084,1084,1084,1084,1084,1084,1084,1084,1084],"ymouse":[632,632,632,632,632,632,632,632,632,632,632,632,632,632,632,632,632,632,632,632,632,632,632,632,632,632,632,632,632,632,632,632,632,632,632,632,632,632,632,632,632,632,632,632,632,632,632,632,632,632,632,632,632,632,632,632,632,632,632,632,632,632,632,632,632,632,632,632,632,632,628,624,568,494,396,241,142,11,0,0,0,0,0,0,0,0,0,0,0,0,0,0,0,0,0,0,0,0,0,0,0,0,0,0,0,0,0,0,0,0,0,0,0,0,0,0,0,0,0,1],"timestamp_mouse":[3,21,41,63,81,101,121,141,162,181,201,221,241,261,281,301,321,342,361,382,402,423,441,461,481,502,521,542,561,583,602,621,641,662,682,702,721,742,762,781,801,822,841,861,881,901,922,941,961,981,1001,1022,1041,1061,1083,1102,1123,1142,1161,1181,1201,1222,1241,1262,1281,1301,1321,1341,1361,1382,1402,1421,1442,1461,1482,1501,1522,1541,1561,1582,1602,1621,1642,1662,1681,1703,1723,1741,1762,1781,1802,1822,1841,1862,1882,1901,1922,1941,1961,1982,2001,2021,2041,2062,2082,2101,2121,2141,2162,2182,2202,2222,2241,2262,2282,2302,2322,2341,2361,2381],"xSR":741.5,"ySR":573.95,"xT1":424.9,"yT1":0,"xT2":1058.1,"yT2":0,"toosoon":0,"cond_shown":"Congruent","ratio_trial":200,"L_num":16,"L_den":20,"R_num":12,"R_den":20,"correct_side":1,"subjID":"lauracamargomendez15","gender":"1","school":"4","age":"9"},{"start_time":1552073565916,"click_time":1552073566774,"finger_time":1552073566489,"fix_duration":704.4405795698881,"trial":11,"RT":573,"MT":285,"sideResp":1,"stimulus":[],"xmouse":[751,752,754,757,760,762,762,763,763,763,763,763,763,763,763,763,763,763,763,763,763,763,763,763,763,765,766,769,766,746,710,666,603,527,515,506,496,484,484,484,484,484,483],"ymouse":[608,608,608,608,608,608,608,608,608,608,608,608,608,608,608,608,608,608,608,608,608,608,608,608,608,606,600,576,405,283,153,20,0,0,0,0,0,0,0,0,0,0,4],"timestamp_mouse":[21,33,53,73,93,113,133,153,173,194,213,234,253,273,293,313,334,353,374,393,413,433,453,473,495,513,533,554,573,593,613,633,653,674,693,715,735,757,773,795,814,833,856],"xSR":741.5,"ySR":573.95,"xT1":424.9,"yT1":0,"xT2":1058.1,"yT2":0,"toosoon":0,"cond_shown":"Incongruent","ratio_trial":200,"L_num":7,"L_den":10,"R_num":8,"R_den":16,"correct_side":1,"subjID":"lauracamargomendez15","gender":"1","school":"4","age":"9"},{"start_time":1552073569091,"click_time":1552073569690,"finger_time":1552073569409,"fix_duration":1440.8347314490945,"trial":12,"RT":318,"MT":281,"sideResp":1,"stimulus":[],"xmouse":[808,808,808,808,808,808,808,808,808,808,808,808,808,808,804,790,753,692,584,525,518,516,512,505,489,489,489,489,489,487],"ymouse":[625,625,625,625,625,625,625,625,625,625,625,625,625,623,588,516,392,242,62,0,0,0,0,0,0,0,0,0,0,1],"timestamp_mouse":[18,41,58,78,98,119,138,159,178,199,219,238,258,279,298,318,338,359,378,398,418,439,458,479,499,518,539,559,578,599],"xSR":741.5,"ySR":573.95,"xT1":424.9,"yT1":0,"xT2":1058.1,"yT2":0,"toosoon":0,"cond_shown":"Congruent","ratio_trial":300,"L_num":1,"L_den":5,"R_num":3,"R_den":6,"correct_side":2,"subjID":"lauracamargomendez15","gender":"1","school":"4","age":"9"},{"start_time":1552073571068,"click_time":1552073571890,"finger_time":1552073571469,"fix_duration":577.388215341466,"trial":13,"RT":401,"MT":421,"sideResp":2,"stimulus":[],"xmouse":[820,820,820,819,818,817,816,815,814,814,814,814,814,814,814,814,814,814,814,814,823,869,895,920,940,953,966,977,981,992,1002,1019,1023,1025,1029,1033,1041,1043,1045,1049,1054,1071],"ymouse":[636,635,635,632,630,627,616,609,607,606,605,603,600,598,596,594,593,593,591,579,550,433,369,312,266,236,207,192,186,173,162,146,140,134,126,119,108,106,103,99,93,84],"timestamp_mouse":[2,26,41,61,81,103,121,141,161,181,201,221,242,262,282,301,321,342,362,381,401,421,441,462,482,502,521,543,562,581,601,622,641,661,681,701,721,742,761,781,801,822],"xSR":741.5,"ySR":573.95,"xT1":424.9,"yT1":0,"xT2":1058.1,"yT2":0,"toosoon":0,"cond_shown":"Congruent","ratio_trial":200,"L_num":1,"L_den":2,"R_num":21,"R_den":30,"correct_side":2,"subjID":"lauracamargomendez15","gender":"1","school":"4","age":"9"},{"start_time":1552073573488,"click_time":1552073574111,"finger_time":1552073573729,"fix_duration":597.3846222725451,"trial":14,"RT":241,"MT":382,"sideResp":1,"stimulus":[],"xmouse":[807,807,807,807,807,807,807,807,807,807,807,807,806,790,772,750,706,666,647,640,638,637,636,635,635,634,634,633,624,606,549,512],"ymouse":[600,600,600,600,600,600,600,600,600,600,600,587,553,481,408,324,165,82,53,40,37,34,31,30,30,30,29,28,28,28,26,23],"timestamp_mouse":[4,22,42,61,81,101,122,142,161,181,202,221,241,261,281,301,321,341,362,382,402,421,441,462,481,502,521,542,561,582,601,623],"xSR":741.5,"ySR":573.95,"xT1":424.9,"yT1":0,"xT2":1058.1,"yT2":0,"toosoon":0,"cond_shown":"Congruent","ratio_trial":300,"L_num":3,"L_den":12,"R_num":11,"R_den":20,"correct_side":2,"subjID":"lauracamargomendez15","gender":"1","school":"4","age":"9"},{"start_time":1552073575431,"click_time":1552073576010,"finger_time":1552073575629,"fix_duration":580.843339933949,"trial":15,"RT":198,"MT":381,"sideResp":2,"stimulus":[],"xmouse":[792,795,799,806,807,808,809,809,811,818,838,867,906,965,981,996,1013,1033,1076,1095,1107,1112,1114,1115,1115,1115,1115,1117,1122],"ymouse":[651,640,626,604,599,596,593,591,585,569,524,450,363,226,190,155,115,71,0,0,0,0,0,0,0,0,0,0,2],"timestamp_mouse":[18,38,58,79,99,119,138,158,179,198,219,238,258,278,299,318,338,358,378,398,419,438,458,478,499,518,538,558,579],"xSR":741.5,"ySR":573.95,"xT1":424.9,"yT1":0,"xT2":1058.1,"yT2":0,"toosoon":0,"cond_shown":"Incongruent","ratio_trial":100,"L_num":12,"L_den":24,"R_num":9,"R_den":15,"correct_side":2,"subjID":"lauracamargomendez15","gender":"1","school":"4","age":"9"},{"start_time":1552073578113,"click_time":1552073578809,"finger_time":1552073578390,"fix_duration":841.7779571516983,"trial":16,"RT":277,"MT":419,"sideResp":2,"stimulus":[],"xmouse":[834,834,834,834,834,834,834,834,834,834,834,834,833,842,903,966,1043,1119,1192,1273,1281,1283,1283,1284,1284,1284,1284,1284,1272,1199,1186,1185,1185,1181,1155],"ymouse":[587,587,587,587,587,587,587,587,587,587,587,587,586,575,518,475,418,345,262,129,107,100,99,99,99,99,99,97,88,55,49,49,49,47,37],"timestamp_mouse":[20,45,57,76,96,116,136,157,177,198,217,237,257,277,296,316,337,357,377,396,416,437,457,477,497,516,537,557,576,597,616,637,657,676,696],"xSR":741.5,"ySR":573.95,"xT1":424.9,"yT1":0,"xT2":1058.1,"yT2":0,"toosoon":0,"cond_shown":"Incongruent","ratio_trial":100,"L_num":17,"L_den":30,"R_num":10,"R_den":15,"correct_side":2,"subjID":"lauracamargomendez15","gender":"1","school":"4","age":"9"},{"start_time":1552073580590,"click_time":1552073581389,"finger_time":1552073580749,"fix_duration":858.7732952677532,"trial":17,"RT":159,"MT":640,"sideResp":2,"stimulus":[],"xmouse":[797,797,797,797,797,797,797,804,827,916,988,1084,1112,1134,1151,1165,1199,1210,1216,1215,1214,1210,1208,1204,1195,1183,1179,1173,1169,1166,1165,1165,1164,1164,1164,1164,1164,1164,1163,1160,1158],"ymouse":[588,588,588,588,588,588,588,583,559,471,395,269,223,186,158,138,95,74,38,15,5,0,0,0,0,0,0,0,1,4,6,10,12,12,12,12,12,13,16,19,21],"timestamp_mouse":[2,28,47,60,80,99,120,140,159,180,200,221,239,259,280,301,320,340,359,380,399,419,440,460,480,499,519,540,559,580,600,619,640,660,679,700,720,739,759,779,799],"xSR":741.5,"ySR":573.95,"xT1":424.9,"yT1":0,"xT2":1058.1,"yT2":0,"toosoon":0,"cond_shown":"Incongruent","ratio_trial":200,"L_num":14,"L_den":30,"R_num":12,"R_den":18,"correct_side":2,"subjID":"lauracamargomendez15","gender":"1","school":"4","age":"9"},{"start_time":1552073583406,"click_time":1552073583751,"finger_time":1552073583689,"fix_duration":896.7338249064566,"trial":18,"RT":283,"MT":62,"sideResp":2,"stimulus":[],"xmouse":[778,778,778,778,778,778,778,778,778,778,778,778,787,803,836,897,1060,1115],"ymouse":[630,630,630,630,630,630,630,630,630,630,629,624,611,581,518,424,133,29],"timestamp_mouse":[4,27,43,63,83,103,123,143,163,183,203,223,243,263,283,303,323,345],"xSR":741.5,"ySR":573.95,"xT1":424.9,"yT1":0,"xT2":1058.1,"yT2":0,"toosoon":0,"cond_shown":"Congruent","ratio_trial":100,"L_num":8,"L_den":16,"R_num":2,"R_den":5,"correct_side":1,"subjID":"lauracamargomendez15","gender":"1","school":"4","age":"9"},{"start_time":1552073594315,"click_time":1552073594729,"finger_time":1552073594390,"fix_duration":1184.5261483946017,"trial":19,"RT":75,"MT":339,"sideResp":1,"stimulus":[],"xmouse":[789,786,780,773,772,772,772,772,772,772,772,769,758,723,663,536,525,519,505,483,459],"ymouse":[620,598,580,556,539,510,499,498,498,498,496,470,446,397,327,176,154,147,134,117,97],"timestamp_mouse":[15,34,55,75,95,115,134,154,174,195,215,234,254,275,295,315,334,355,375,394,414],"xSR":741.5,"ySR":573.95,"xT1":424.9,"yT1":0,"xT2":1058.1,"yT2":0,"toosoon":0,"cond_shown":"Congruent","ratio_trial":100,"L_num":1,"L_den":2,"R_num":3,"R_den":5,"correct_side":2,"subjID":"lauracamargomendez15","gender":"1","school":"4","age":"9"},{"start_time":1552073602953,"click_time":1552073604569,"finger_time":1552073604330,"fix_duration":1221.5986696153595,"trial":20,"RT":1377,"MT":239,"sideResp":2,"stimulus":[],"xmouse":[804,804,804,804,804,804,804,804,804,804,804,804,804,804,804,804,804,804,804,804,804,804,804,804,804,804,804,804,804,804,804,804,804,804,804,804,804,804,804,804,804,804,804,804,804,804,804,804,804,804,804,804,804,804,804,804,804,804,804,804,804,804,804,804,804,805,813,824,840,856,892,939,989,1012,1019,1035,1047,1062,1072,1084,1108],"ymouse":[609,609,609,609,609,609,609,609,609,609,609,609,609,609,609,609,609,609,609,609,609,609,609,609,609,609,609,609,609,609,609,609,609,609,609,609,609,609,609,609,609,609,609,609,609,609,609,609,609,609,609,609,609,609,609,609,609,609,609,609,609,609,609,609,608,602,594,582,569,557,527,502,485,474,464,429,394,345,289,221,48],"timestamp_mouse":[17,36,57,92,96,116,137,157,176,197,216,236,257,276,298,317,337,356,376,396,416,436,457,477,496,518,536,557,577,597,617,637,658,676,696,716,736,756,777,796,816,837,856,877,897,918,936,956,977,998,1018,1036,1057,1076,1097,1117,1137,1157,1176,1196,1217,1236,1257,1276,1296,1317,1336,1357,1377,1397,1416,1436,1456,1476,1496,1516,1536,1557,1578,1596,1616],"xSR":741.5,"ySR":573.95,"xT1":424.9,"yT1":0,"xT2":1058.1,"yT2":0,"toosoon":0,"cond_shown":"Incongruent","ratio_trial":200,"L_num":9,"L_den":15,"R_num":8,"R_den":10,"correct_side":2,"subjID":"lauracamargomendez15","gender":"1","school":"4","age":"9"},{"start_time":1552073608885,"click_time":1552073610649,"finger_time":1552073610190,"fix_duration":1354.5383635824026,"trial":21,"RT":1305,"MT":459,"sideResp":2,"stimulus":[],"xmouse":[798,798,798,798,798,798,798,798,798,798,798,798,798,798,798,798,798,798,798,798,798,798,798,798,798,798,798,798,798,798,798,798,798,798,798,798,798,798,798,798,798,798,798,798,798,798,798,798,798,798,798,798,798,798,798,798,798,798,798,798,798,798,798,798,798,812,829,846,865,880,921,940,946,947,947,947,951,959,969,982,984,991,1011,1049,1077,1082,1082,1082,1084],"ymouse":[584,584,584,584,584,584,584,584,584,584,584,584,584,584,584,584,584,584,584,584,584,584,584,584,584,584,584,584,584,584,584,584,584,584,584,584,584,584,584,584,584,584,584,584,584,584,584,584,584,584,584,584,584,584,584,584,584,584,584,584,584,584,584,583,577,527,459,395,332,268,119,44,27,19,17,14,7,0,0,0,0,0,0,0,0,0,0,0,1],"timestamp_mouse":[10,25,45,73,85,104,125,146,166,185,205,224,244,264,285,305,325,345,364,384,404,425,445,465,485,505,525,545,564,584,605,625,646,665,685,704,725,745,765,786,805,824,845,864,886,905,925,945,965,984,1004,1024,1044,1064,1085,1104,1124,1145,1164,1185,1205,1226,1245,1264,1284,1305,1324,1345,1364,1386,1406,1424,1444,1465,1484,1504,1525,1544,1564,1585,1604,1624,1644,1665,1685,1706,1724,1745,1764],"xSR":741.5,"ySR":573.95,"xT1":424.9,"yT1":0,"xT2":1058.1,"yT2":0,"toosoon":0,"cond_shown":"Congruent","ratio_trial":200,"L_num":8,"L_den":15,"R_num":3,"R_den":9,"correct_side":1,"subjID":"lauracamargomendez15","gender":"1","school":"4","age":"9"},{"start_time":1552073611742,"click_time":1552073613049,"finger_time":1552073611889,"fix_duration":250,"trial":22,"RT":147,"MT":1160,"sideResp":2,"stimulus":[],"xmouse":[794,794,794,789,776,753,748,734,732,731,731,731,731,731,731,731,731,731,731,731,731,731,731,731,731,731,731,752,760,762,762,762,762,762,762,764,766,768,768,768,768,768,768,768,771,782,797,840,874,914,955,1010,1058,1116,1130,1142,1161,1184,1186,1186,1186,1186,1185,1174,1160,1147],"ymouse":[650,650,649,648,647,646,646,645,645,645,645,645,645,645,645,645,645,645,645,645,645,645,645,645,645,645,644,617,608,605,604,604,604,604,603,601,598,596,596,596,596,596,596,591,584,549,514,400,334,264,190,111,45,0,0,0,0,0,0,0,0,0,1,15,26,30],"timestamp_mouse":[19,42,51,67,87,108,127,147,169,187,208,227,247,267,288,308,327,348,367,387,408,427,448,468,488,508,528,547,568,588,608,627,648,667,687,708,727,747,767,789,807,827,848,869,887,907,928,947,968,987,1007,1028,1047,1068,1088,1108,1127,1148,1167,1188,1208,1228,1248,1267,1288,1307],"xSR":741.5,"ySR":573.95,"xT1":424.9,"yT1":0,"xT2":1058.1,"yT2":0,"toosoon":0,"cond_shown":"Incongruent","ratio_trial":300,"L_num":4,"L_den":5,"R_num":8,"R_den":16,"correct_side":1,"subjID":"lauracamargomendez15","gender":"1","school":"4","age":"9"},{"start_time":1552073615189,"click_time":1552073617210,"finger_time":1552073616650,"fix_duration":977.1894309000863,"trial":23,"RT":1461,"MT":560,"sideResp":1,"stimulus":[],"xmouse":[766,766,766,766,766,766,766,766,766,766,766,766,766,766,766,766,766,766,766,766,766,766,766,766,766,766,766,766,766,766,766,766,766,766,766,766,766,766,766,766,766,766,766,766,766,766,766,766,766,766,766,766,766,766,766,766,766,766,766,766,766,766,766,766,766,766,766,766,766,768,783,787,790,795,801,801,780,777,777,777,781,782,782,778,763,715,664,621,571,527,505,464,445,430,424,422,422,422,422,421,421,425],"ymouse":[633,633,633,633,633,633,633,633,633,633,633,633,633,633,633,633,633,633,633,633,633,633,633,633,633,633,633,633,633,633,633,633,633,633,633,633,633,633,633,633,633,633,633,633,633,633,633,633,633,633,633,633,633,633,633,633,633,633,633,633,633,633,633,633,633,633,633,633,631,629,605,584,574,559,537,509,415,387,366,345,322,308,288,258,223,151,101,56,17,0,0,0,0,0,0,0,0,0,0,0,6,17],"timestamp_mouse":[10,20,41,60,82,105,120,140,161,181,201,220,240,260,280,301,321,340,361,381,401,421,440,461,480,501,520,540,562,581,601,620,640,660,681,700,721,740,761,780,801,821,841,861,881,901,921,941,961,980,1001,1021,1041,1060,1081,1100,1121,1140,1161,1181,1200,1221,1241,1260,1280,1300,1320,1341,1360,1381,1400,1422,1441,1461,1480,1501,1521,1540,1561,1581,1600,1620,1640,1660,1681,1701,1720,1740,1761,1780,1801,1820,1840,1861,1881,1901,1921,1940,1960,1980,2001,2020],"xSR":741.5,"ySR":573.95,"xT1":424.9,"yT1":0,"xT2":1058.1,"yT2":0,"toosoon":0,"cond_shown":"Congruent","ratio_trial":100,"L_num":3,"L_den":20,"R_num":4,"R_den":16,"correct_side":2,"subjID":"lauracamargomendez15","gender":"1","school":"4","age":"9"},{"start_time":1552073623880,"click_time":1552073625089,"finger_time":1552073624449,"fix_duration":968.0228415420737,"trial":24,"RT":569,"MT":640,"sideResp":1,"stimulus":[],"xmouse":[822,822,822,822,822,822,822,822,822,822,821,820,819,818,814,810,797,792,788,788,787,787,787,787,787,787,787,788,796,808,818,830,832,832,832,832,832,832,832,832,832,832,832,832,832,832,827,820,812,793,783,769,747,716,701,694,684,621,571,530,518],"ymouse":[615,615,615,615,615,615,615,615,615,613,613,611,609,608,604,602,593,589,586,585,585,585,585,585,585,585,584,576,548,523,501,464,457,452,451,450,450,450,450,450,450,450,450,450,450,449,429,410,363,303,274,242,216,188,177,171,162,111,82,61,54],"timestamp_mouse":[10,45,49,69,89,110,129,149,169,189,209,230,250,270,290,310,329,350,370,390,409,430,449,469,490,510,531,550,569,590,610,629,649,669,690,709,729,750,769,789,809,830,850,870,889,910,929,949,969,989,1010,1029,1049,1069,1090,1109,1129,1149,1169,1189,1209],"xSR":741.5,"ySR":573.95,"xT1":424.9,"yT1":0,"xT2":1058.1,"yT2":0,"toosoon":0,"cond_shown":"Congruent","ratio_trial":200,"L_num":3,"L_den":10,"R_num":14,"R_den":28,"correct_side":2,"subjID":"lauracamargomendez15","gender":"1","school":"4","age":"9"},{"start_time":1552073627174,"click_time":1552073628770,"finger_time":1552073628130,"fix_duration":1123.6146582520296,"trial":25,"RT":956,"MT":640,"sideResp":2,"stimulus":[],"xmouse":[812,812,812,812,812,812,812,812,812,812,812,812,812,812,812,812,812,812,812,812,812,812,812,812,812,812,812,812,812,812,812,812,812,812,812,812,812,812,812,812,812,812,812,812,812,812,813,822,829,836,849,873,982,1040,1097,1137,1170,1187,1201,1216,1218,1218,1217,1216,1215,1213,1210,1200,1194,1188,1181,1176,1165,1162,1160,1160,1159,1159,1159,1158],"ymouse":[599,598,598,597,596,596,593,592,590,589,588,586,585,585,585,584,584,584,584,584,584,584,584,584,584,584,584,584,584,584,584,584,584,584,584,584,584,584,584,584,584,584,584,582,581,580,579,570,565,561,552,536,449,403,343,271,155,82,40,0,0,0,0,0,0,0,0,0,3,7,12,15,23,25,27,27,28,28,29,33],"timestamp_mouse":[16,49,55,76,95,115,136,156,176,195,215,236,256,275,295,316,335,356,375,396,416,436,455,476,495,515,535,556,576,596,616,635,655,675,695,715,736,755,775,795,815,836,855,876,895,916,936,956,975,996,1016,1035,1055,1075,1097,1115,1136,1155,1175,1196,1215,1235,1256,1275,1296,1316,1335,1356,1375,1396,1415,1436,1455,1476,1496,1515,1536,1556,1575,1596],"xSR":741.5,"ySR":573.95,"xT1":424.9,"yT1":0,"xT2":1058.1,"yT2":0,"toosoon":0,"cond_shown":"Incongruent","ratio_trial":100,"L_num":6,"L_den":12,"R_num":3,"R_den":5,"correct_side":2,"subjID":"lauracamargomendez15","gender":"1","school":"4","age":"9"},{"start_time":1552073632278,"click_time":1552073633130,"finger_time":1552073632630,"fix_duration":1005.8285044789257,"trial":26,"RT":352,"MT":500,"sideResp":2,"stimulus":[],"xmouse":[793,793,793,793,793,793,793,793,793,793,793,793,793,794,799,811,830,865,868,873,874,883,901,909,920,938,957,1005,1029,1041,1046,1046,1045,1045,1045,1045,1044,1043,1043,1043,1044,1053,1066],"ymouse":[641,641,641,641,641,641,641,641,641,641,641,641,641,642,640,631,617,568,564,556,551,531,515,493,468,426,373,272,232,202,169,151,126,113,96,77,62,50,48,48,46,46,46],"timestamp_mouse":[11,31,51,87,92,112,131,151,172,191,212,232,252,271,291,311,331,352,371,391,412,432,451,471,492,511,531,551,571,592,612,631,651,671,692,712,732,751,771,792,812,832,851],"xSR":741.5,"ySR":573.95,"xT1":424.9,"yT1":0,"xT2":1058.1,"yT2":0,"toosoon":0,"cond_shown":"Incongruent","ratio_trial":300,"L_num":2,"L_den":4,"R_num":6,"R_den":30,"correct_side":1,"subjID":"lauracamargomendez15","gender":"1","school":"4","age":"9"},{"start_time":1552073635371,"click_time":1552073636109,"finger_time":1552073635530,"fix_duration":618.794648403352,"trial":27,"RT":159,"MT":579,"sideResp":2,"stimulus":[],"xmouse":[794,793,793,791,788,786,785,778,744,712,658,590,542,492,484,479,470,430,336,305,289,282,278,278,284,289,294,300,311,389,453,499,535,579,708,787,903,1063],"ymouse":[634,631,631,619,610,606,601,589,568,559,543,513,463,403,390,380,349,262,143,113,99,88,82,78,51,39,26,16,2,0,0,0,0,0,0,0,15,43],"timestamp_mouse":[1,29,38,58,79,98,119,138,159,178,199,219,238,259,278,299,318,338,359,378,398,418,438,458,478,498,518,539,558,579,599,619,638,660,678,698,718,738],"xSR":741.5,"ySR":573.95,"xT1":424.9,"yT1":0,"xT2":1058.1,"yT2":0,"toosoon":0,"cond_shown":"Incongruent","ratio_trial":200,"L_num":11,"L_den":20,"R_num":3,"R_den":4,"correct_side":2,"subjID":"lauracamargomendez15","gender":"1","school":"4","age":"9"},{"start_time":1552073638461,"click_time":1552073639670,"finger_time":1552073638970,"fix_duration":1209.6390809837399,"trial":28,"RT":509,"MT":700,"sideResp":2,"stimulus":[],"xmouse":[792,792,792,792,792,792,791,790,788,787,786,786,786,785,785,785,785,785,784,784,784,783,781,780,773,771,770,770,770,769,769,769,769,769,769,769,769,769,769,769,769,769,769,775,829,900,948,960,963,963,964,965,966,968,984,995,1004,1013,1022,1056,1071],"ymouse":[586,585,584,584,584,583,582,582,582,582,582,582,582,581,581,581,581,580,580,580,580,580,580,580,576,571,567,562,559,557,557,557,557,557,557,557,557,557,557,557,557,556,554,542,463,338,255,227,163,135,131,128,124,121,104,93,87,82,81,77,74],"timestamp_mouse":[11,29,55,69,89,109,128,149,169,188,209,229,250,268,288,308,329,348,369,389,409,429,448,468,489,509,528,548,568,588,608,629,650,668,689,709,729,749,769,789,808,829,849,868,888,908,928,949,968,988,1010,1028,1049,1068,1088,1108,1128,1148,1169,1188,1208],"xSR":741.5,"ySR":573.95,"xT1":424.9,"yT1":0,"xT2":1058.1,"yT2":0,"toosoon":0,"cond_shown":"Congruent","ratio_trial":200,"L_num":4,"L_den":10,"R_num":3,"R_den":15,"correct_side":1,"subjID":"lauracamargomendez15","gender":"1","school":"4","age":"9"},{"start_time":1552073642895,"click_time":1552073643572,"finger_time":1552073643190,"fix_duration":844.0584930849576,"trial":29,"RT":295,"MT":382,"sideResp":1,"stimulus":[],"xmouse":[789,789,789,789,789,789,789,789,789,789,789,789,789,789,786,782,774,759,756,756,755,755,752,752,750,748,746,729,707,678,647,611,532,494],"ymouse":[602,602,602,602,602,602,602,602,602,602,602,602,602,593,569,542,511,472,468,465,459,449,433,425,416,409,399,357,320,272,218,154,52,11],"timestamp_mouse":[14,34,55,75,94,115,134,154,175,194,215,234,254,275,295,314,334,355,374,394,415,435,455,474,494,515,535,554,574,594,615,634,655,677],"xSR":741.5,"ySR":573.95,"xT1":424.9,"yT1":0,"xT2":1058.1,"yT2":0,"toosoon":0,"cond_shown":"Incongruent","ratio_trial":100,"L_num":17,"L_den":30,"R_num":10,"R_den":15,"correct_side":2,"subjID":"lauracamargomendez15","gender":"1","school":"4","age":"9"},{"start_time":1552073648871,"click_time":1552073650390,"finger_time":1552073649889,"fix_duration":757.8163440763998,"trial":30,"RT":1018,"MT":501,"sideResp":2,"stimulus":[],"xmouse":[811,811,811,811,811,811,811,811,811,811,811,811,811,811,811,811,811,811,811,811,811,811,811,811,811,813,813,813,813,813,813,813,813,815,815,815,815,816,817,817,817,817,817,817,817,817,817,817,817,818,821,822,824,830,838,868,883,898,915,930,959,972,985,1004,1013,1026,1029,1031,1032,1032,1053,1073,1084,1091,1092,1092,1097],"ymouse":[595,595,595,595,595,595,595,595,595,595,595,595,595,595,595,595,595,595,595,595,595,595,595,595,595,595,595,595,595,595,595,595,595,594,594,594,594,592,592,592,592,592,591,591,591,590,590,588,587,585,577,572,564,543,518,430,393,355,327,303,268,250,231,200,179,144,134,127,126,126,126,125,119,111,107,106,91],"timestamp_mouse":[0,19,38,59,78,98,118,139,159,178,198,218,239,259,279,298,319,340,359,379,399,418,438,459,479,498,519,539,559,578,598,618,638,659,679,698,719,738,758,780,799,818,838,858,879,898,918,939,959,978,998,1018,1039,1059,1078,1098,1119,1138,1159,1179,1199,1219,1239,1259,1279,1298,1318,1339,1359,1378,1399,1417,1438,1458,1479,1498,1519],"xSR":741.5,"ySR":573.95,"xT1":424.9,"yT1":0,"xT2":1058.1,"yT2":0,"toosoon":0,"cond_shown":"Incongruent","ratio_trial":100,"L_num":17,"L_den":30,"R_num":10,"R_den":15,"correct_side":2,"subjID":"lauracamargomendez15","gender":"1","school":"4","age":"9"},{"start_time":1552073652306,"click_time":1552073653870,"finger_time":1552073653250,"fix_duration":1034.818156455151,"trial":31,"RT":944,"MT":620,"sideResp":1,"stimulus":[],"xmouse":[757,757,757,757,757,757,757,757,757,757,756,756,756,756,756,756,756,756,755,755,755,755,755,755,755,755,756,757,757,757,757,757,757,757,757,758,759,760,761,761,762,763,765,771,775,777,778,780,780,776,767,758,744,733,693,674,659,645,620,603,583,577,577,577,588,594,597,598,598,598,598,598,598,594,574,555,541,530,513],"ymouse":[621,625,628,631,632,632,632,632,632,634,642,651,658,664,664,664,664,662,660,657,657,657,657,656,654,652,650,650,649,649,649,649,649,649,649,648,646,644,642,642,639,635,626,606,594,584,576,563,536,514,496,476,453,429,349,305,261,215,105,43,0,0,0,0,0,0,0,0,0,0,0,0,2,8,16,17,17,19,22],"timestamp_mouse":[3,24,43,63,84,104,124,143,164,184,204,224,243,263,284,303,323,344,363,384,404,423,444,464,484,503,523,544,563,583,604,624,644,663,683,703,724,743,763,784,804,823,844,864,884,903,924,944,964,983,1003,1023,1044,1063,1084,1103,1124,1144,1164,1183,1203,1224,1243,1263,1283,1303,1324,1344,1363,1384,1404,1423,1443,1464,1484,1503,1523,1543,1564],"xSR":741.5,"ySR":573.95,"xT1":424.9,"yT1":0,"xT2":1058.1,"yT2":0,"toosoon":0,"cond_shown":"Congruent","ratio_trial":100,"L_num":15,"L_den":25,"R_num":13,"R_den":26,"correct_side":1,"subjID":"lauracamargomendez15","gender":"1","school":"4","age":"9"},{"start_time":1552073656734,"click_time":1552073658550,"finger_time":1552073658210,"fix_duration":401.1248240921613,"trial":32,"RT":1476,"MT":340,"sideResp":2,"stimulus":[],"xmouse":[752,752,752,752,752,752,752,752,752,752,752,752,752,752,752,752,752,752,752,752,752,752,752,752,752,752,752,752,752,752,752,752,752,752,752,752,752,752,752,752,752,752,752,752,752,752,752,752,752,752,752,752,752,752,752,751,751,751,751,751,751,751,751,751,751,751,751,751,751,751,751,751,754,754,749,730,724,736,774,818,857,896,964,989,998,1000,1000,1016,1038,1061,1080],"ymouse":[620,620,620,620,620,620,620,620,620,620,620,620,620,620,620,620,620,620,620,620,620,620,620,620,620,620,620,620,620,620,620,620,620,620,620,620,620,620,620,620,620,620,620,620,620,620,620,620,620,620,620,620,620,620,620,620,620,620,620,620,620,620,620,620,620,620,620,620,620,620,620,615,585,533,474,396,368,321,280,247,218,190,153,146,144,144,144,135,125,114,98],"timestamp_mouse":[15,34,55,76,96,116,135,155,175,196,215,235,256,275,296,316,335,356,375,395,415,436,455,476,495,516,536,555,576,596,615,635,655,675,696,716,736,755,775,796,816,836,856,876,895,916,936,955,976,996,1015,1036,1056,1076,1095,1115,1135,1155,1175,1196,1216,1236,1255,1276,1295,1316,1336,1356,1376,1396,1416,1435,1456,1476,1496,1515,1535,1555,1576,1595,1616,1636,1656,1676,1697,1715,1735,1755,1776,1795,1816],"xSR":741.5,"ySR":573.95,"xT1":424.9,"yT1":0,"xT2":1058.1,"yT2":0,"toosoon":0,"cond_shown":"Incongruent","ratio_trial":300,"L_num":4,"L_den":5,"R_num":8,"R_den":16,"correct_side":1,"subjID":"lauracamargomendez15","gender":"1","school":"4","age":"9"},{"start_time":1552073659846,"click_time":1552073661250,"finger_time":1552073660709,"fix_duration":373.53195166697407,"trial":33,"RT":863,"MT":541,"sideResp":1,"stimulus":[],"xmouse":[772,772,772,772,772,772,772,772,772,772,772,772,772,772,775,785,796,801,805,806,806,806,806,806,806,806,806,806,806,806,806,806,806,806,806,806,806,806,806,806,806,806,806,799,796,796,796,796,796,796,796,796,796,796,796,796,796,788,772,727,693,660,574,532,509,504,504,504,504,504,503],"ymouse":[655,655,655,655,655,655,655,655,655,655,655,655,655,655,655,655,653,650,648,645,644,644,644,644,644,644,644,644,644,644,644,644,644,644,644,644,644,644,644,644,638,626,606,560,549,547,547,547,547,547,547,547,547,547,547,547,543,510,469,363,280,189,20,0,0,0,0,0,0,0,3],"timestamp_mouse":[16,26,42,63,83,104,123,143,163,183,203,223,244,263,284,304,323,344,364,384,404,424,444,463,484,503,523,543,564,583,604,623,644,663,684,703,724,743,764,784,804,824,843,863,883,903,923,944,964,983,1005,1024,1044,1063,1083,1104,1124,1144,1163,1183,1203,1223,1243,1264,1283,1303,1324,1342,1363,1383,1404],"xSR":741.5,"ySR":573.95,"xT1":424.9,"yT1":0,"xT2":1058.1,"yT2":0,"toosoon":0,"cond_shown":"Incongruent","ratio_trial":200,"L_num":7,"L_den":10,"R_num":14,"R_den":28,"correct_side":1,"subjID":"lauracamargomendez15","gender":"1","school":"4","age":"9"},{"start_time":1552073666031,"click_time":1552073667650,"finger_time":1552073667290,"fix_duration":840.9923917756008,"trial":34,"RT":1259,"MT":360,"sideResp":2,"stimulus":[],"xmouse":[819,819,819,819,819,819,819,819,819,819,819,819,819,819,819,819,819,819,819,819,819,819,819,819,819,819,820,822,822,823,823,823,823,823,823,823,823,824,825,826,826,826,826,826,826,826,826,826,826,826,825,825,824,824,824,824,824,824,823,823,822,822,824,852,880,906,942,958,1002,1022,1035,1047,1056,1080,1095,1101,1111,1113,1113,1117,1121],"ymouse":[646,646,646,646,646,646,646,646,646,646,646,646,646,646,646,646,646,646,646,646,645,645,645,645,642,641,638,635,634,633,633,633,633,633,631,630,629,627,626,625,624,621,620,618,618,617,616,615,615,614,613,611,610,610,609,608,607,605,601,596,588,576,554,473,409,342,240,178,68,24,0,0,0,0,0,0,0,0,0,0,2],"timestamp_mouse":[18,46,59,78,98,119,138,159,179,199,219,239,259,279,298,318,339,358,379,398,418,439,459,478,498,519,538,559,578,598,619,639,658,679,698,719,739,759,778,798,818,838,859,878,898,919,938,958,979,999,1018,1038,1058,1078,1099,1119,1139,1158,1178,1198,1219,1238,1259,1278,1298,1319,1339,1358,1378,1398,1418,1439,1458,1477,1498,1518,1538,1558,1578,1598,1618],"xSR":741.5,"ySR":573.95,"xT1":424.9,"yT1":0,"xT2":1058.1,"yT2":0,"toosoon":0,"cond_shown":"Incongruent","ratio_trial":300,"L_num":4,"L_den":20,"R_num":2,"R_den":4,"correct_side":2,"subjID":"lauracamargomendez15","gender":"1","school":"4","age":"9"},{"start_time":1552073669006,"click_time":1552073670211,"finger_time":1552073669870,"fix_duration":355.57675362804144,"trial":35,"RT":864,"MT":341,"sideResp":2,"stimulus":[],"xmouse":[798,798,798,798,798,798,798,798,798,797,796,792,792,792,791,791,791,791,791,791,791,791,791,791,791,791,791,791,791,790,790,790,790,790,790,790,790,790,790,790,790,790,792,798,809,819,850,856,864,873,896,907,916,925,933,964,1007,1030,1046,1057,1079],"ymouse":[591,591,591,591,591,591,591,591,591,592,592,594,594,594,594,594,594,594,594,594,594,594,594,594,594,594,594,594,594,593,589,588,588,588,588,588,588,588,588,588,587,584,579,566,546,524,451,429,407,385,330,309,293,278,263,216,159,132,112,93,60],"timestamp_mouse":[10,24,43,63,83,103,124,144,164,184,203,223,244,264,283,304,323,343,364,384,403,423,444,464,483,503,523,543,564,583,604,623,643,663,684,704,723,743,764,784,804,824,843,864,883,903,924,944,964,984,1005,1024,1044,1064,1084,1104,1123,1143,1163,1183,1204],"xSR":741.5,"ySR":573.95,"xT1":424.9,"yT1":0,"xT2":1058.1,"yT2":0,"toosoon":0,"cond_shown":"Incongruent","ratio_trial":100,"L_num":9,"L_den":10,"R_num":20,"R_den":25,"correct_side":1,"subjID":"lauracamargomendez15","gender":"1","school":"4","age":"9"},{"start_time":1552073676029,"click_time":1552073678031,"finger_time":1552073677350,"fix_duration":978.8255255871741,"trial":36,"RT":1321,"MT":681,"sideResp":1,"stimulus":[],"xmouse":[747,747,747,747,747,747,747,747,747,747,747,747,747,747,747,747,747,747,747,747,747,747,747,747,747,747,747,747,747,747,747,747,747,747,750,757,759,760,760,760,760,760,760,760,760,760,760,760,760,760,760,760,760,760,760,760,760,760,760,760,760,760,760,760,760,760,758,738,727,719,701,694,687,668,646,627,590,571,559,557,553,538,528,527,527,527,527,527,527,527,527,527,527,527,527,527,527,527,526,525,520],"ymouse":[637,637,637,637,637,637,637,637,637,637,637,637,637,637,637,637,637,637,637,637,637,637,637,637,637,637,637,637,637,637,637,636,636,634,629,627,627,627,627,627,627,627,627,627,627,627,627,627,627,627,627,627,627,627,627,627,627,627,627,627,627,627,627,627,627,591,527,454,391,331,208,141,68,0,0,0,0,0,0,0,0,16,28,30,31,31,31,31,31,31,31,31,31,31,31,31,32,32,33,34,38],"timestamp_mouse":[11,22,41,60,80,101,121,141,160,180,200,220,241,261,281,300,321,340,360,380,401,422,440,460,481,500,520,541,561,580,600,620,641,660,680,700,720,741,761,780,801,820,841,860,880,901,921,941,960,981,1001,1020,1041,1061,1081,1101,1120,1140,1161,1180,1202,1221,1241,1261,1280,1300,1321,1341,1361,1380,1401,1420,1441,1461,1481,1501,1520,1541,1559,1580,1601,1620,1640,1660,1681,1701,1721,1741,1760,1780,1801,1820,1840,1861,1881,1900,1920,1941,1960,1981,2002],"xSR":741.5,"ySR":573.95,"xT1":424.9,"yT1":0,"xT2":1058.1,"yT2":0,"toosoon":0,"cond_shown":"Incongruent","ratio_trial":300,"L_num":8,"L_den":10,"R_num":14,"R_den":28,"correct_side":1,"subjID":"lauracamargomendez15","gender":"1","school":"4","age":"9"},{"start_time":1552073680254,"click_time":1552073681369,"finger_time":1552073680930,"fix_duration":1342.812948894708,"trial":37,"RT":676,"MT":439,"sideResp":2,"stimulus":[],"xmouse":[820,820,820,820,820,820,820,820,820,820,820,820,820,820,820,820,820,820,820,820,820,820,820,820,820,820,820,820,820,820,820,823,827,851,868,882,895,918,929,949,953,956,959,960,960,960,960,960,961,968,975,988,1002,1017,1068,1098],"ymouse":[618,618,618,618,618,618,618,618,618,618,618,618,618,618,618,618,618,618,618,618,618,618,618,618,618,618,618,618,618,618,618,618,615,573,532,499,475,436,412,343,312,285,265,251,240,240,240,240,238,227,220,210,197,182,122,71],"timestamp_mouse":[16,43,55,75,95,116,135,155,176,195,216,235,255,275,295,315,335,356,376,396,416,435,456,476,496,516,536,555,576,596,615,635,656,676,695,716,735,755,775,794,815,835,856,875,895,916,935,955,975,995,1014,1036,1055,1076,1095,1114],"xSR":741.5,"ySR":573.95,"xT1":424.9,"yT1":0,"xT2":1058.1,"yT2":0,"toosoon":0,"cond_shown":"Incongruent","ratio_trial":200,"L_num":4,"L_den":6,"R_num":14,"R_den":30,"correct_side":1,"subjID":"lauracamargomendez15","gender":"1","school":"4","age":"9"},{"start_time":1552073685073,"click_time":1552073685549,"finger_time":1552073685369,"fix_duration":1441.0070014243438,"trial":38,"RT":296,"MT":180,"sideResp":1,"stimulus":[],"xmouse":[792,792,792,792,792,792,792,792,792,792,792,792,791,782,774,770,747,726,673,639,594,557,519,485],"ymouse":[631,631,631,631,631,631,631,631,631,631,630,628,623,601,573,558,479,425,337,288,232,180,132,92],"timestamp_mouse":[16,40,57,76,97,116,136,157,176,196,217,236,256,276,296,317,337,357,376,396,417,436,457,476],"xSR":741.5,"ySR":573.95,"xT1":424.9,"yT1":0,"xT2":1058.1,"yT2":0,"toosoon":0,"cond_shown":"Incongruent","ratio_trial":200,"L_num":6,"L_den":20,"R_num":3,"R_den":6,"correct_side":2,"subjID":"lauracamargomendez15","gender":"1","school":"4","age":"9"},{"start_time":1552073688658,"click_time":1552073690189,"finger_time":1552073689709,"fix_duration":768.6266503543833,"trial":39,"RT":1051,"MT":480,"sideResp":1,"stimulus":[],"xmouse":[807,807,807,807,807,807,807,807,807,807,807,807,807,807,807,807,807,807,807,807,807,807,807,807,807,807,807,807,807,807,807,807,807,807,807,807,807,807,807,807,807,807,807,807,807,809,810,811,811,811,809,794,782,779,779,779,779,774,766,761,744,732,717,700,678,649,636,626,601,582,563,563,563,563,549,529,515],"ymouse":[620,620,620,620,620,620,620,620,620,620,620,620,620,620,620,620,620,620,620,620,620,620,620,620,620,620,620,620,620,620,620,620,620,620,620,620,620,620,620,620,620,620,620,620,620,618,615,613,613,613,603,579,563,558,558,558,558,552,541,527,479,450,415,374,313,214,175,139,101,78,53,53,53,53,50,48,45],"timestamp_mouse":[13,42,51,71,92,111,132,151,171,191,211,231,252,271,292,311,331,352,372,391,411,431,452,472,491,511,532,552,571,592,611,632,652,672,692,711,732,751,771,792,811,832,851,871,890,912,931,952,972,992,1013,1032,1051,1071,1091,1112,1131,1151,1171,1191,1211,1232,1251,1271,1291,1311,1332,1350,1372,1391,1411,1431,1451,1472,1493,1511,1531],"xSR":741.5,"ySR":573.95,"xT1":424.9,"yT1":0,"xT2":1058.1,"yT2":0,"toosoon":0,"cond_shown":"Congruent","ratio_trial":200,"L_num":4,"L_den":8,"R_num":3,"R_den":10,"correct_side":1,"subjID":"lauracamargomendez15","gender":"1","school":"4","age":"9"},{"start_time":1552073692281,"click_time":1552073692949,"finger_time":1552073692569,"fix_duration":1130.3266787520529,"trial":40,"RT":288,"MT":380,"sideResp":1,"stimulus":[],"xmouse":[796,795,795,791,791,791,791,791,791,791,791,791,791,791,780,761,743,735,720,643,595,555,527,522,518,511,505,498,491,482,481,481,481,481],"ymouse":[611,604,604,593,593,593,593,593,593,593,593,593,593,593,571,525,470,399,309,134,68,25,0,0,0,0,0,0,0,0,0,0,0,1],"timestamp_mouse":[13,42,48,69,88,108,129,148,169,188,209,228,249,269,288,309,328,348,368,388,408,428,449,468,489,507,529,548,569,590,608,628,649,668],"xSR":741.5,"ySR":573.95,"xT1":424.9,"yT1":0,"xT2":1058.1,"yT2":0,"toosoon":0,"cond_shown":"Incongruent","ratio_trial":100,"L_num":13,"L_den":26,"R_num":12,"R_den":20,"correct_side":2,"subjID":"lauracamargomendez15","gender":"1","school":"4","age":"9"},{"start_time":1552073694322,"click_time":1552073694931,"finger_time":1552073694630,"fix_duration":631.8199318392378,"trial":41,"RT":308,"MT":301,"sideResp":2,"stimulus":[],"xmouse":[797,797,797,797,797,797,797,797,797,797,797,797,797,797,800,806,825,884,922,957,993,1004,1010,1031,1039,1043,1045,1045,1045,1046,1073],"ymouse":[621,621,621,621,621,621,621,621,619,615,611,607,600,596,587,572,527,349,265,204,133,112,96,55,37,22,15,14,14,14,14],"timestamp_mouse":[12,27,51,68,87,108,127,148,167,187,207,228,247,267,287,308,326,348,367,387,408,427,447,468,487,508,527,547,567,588,608],"xSR":741.5,"ySR":573.95,"xT1":424.9,"yT1":0,"xT2":1058.1,"yT2":0,"toosoon":0,"cond_shown":"Incongruent","ratio_trial":300,"L_num":1,"L_den":2,"R_num":2,"R_den":10,"correct_side":1,"subjID":"lauracamargomendez15","gender":"1","school":"4","age":"9"},{"start_time":1552073696886,"click_time":1552073697569,"finger_time":1552073697209,"fix_duration":814.4427773761696,"trial":42,"RT":323,"MT":360,"sideResp":1,"stimulus":[],"xmouse":[778,779,779,779,779,779,779,779,779,779,779,779,779,779,779,779,764,728,676,649,637,634,631,628,627,623,621,618,615,597,560,530,505,486,474],"ymouse":[619,618,618,617,617,617,617,617,617,617,617,617,614,611,596,585,568,547,514,486,453,408,389,379,371,361,357,352,348,321,256,206,158,115,92],"timestamp_mouse":[12,35,43,63,83,104,124,143,164,183,203,224,244,263,284,304,323,344,363,384,403,423,443,464,483,503,524,544,562,584,603,624,642,664,683],"xSR":741.5,"ySR":573.95,"xT1":424.9,"yT1":0,"xT2":1058.1,"yT2":0,"toosoon":0,"cond_shown":"Incongruent","ratio_trial":200,"L_num":7,"L_den":10,"R_num":8,"R_den":16,"correct_side":1,"subjID":"lauracamargomendez15","gender":"1","school":"4","age":"9"},{"start_time":1552073700841,"click_time":1552073702029,"finger_time":1552073701349,"fix_duration":250,"trial":43,"RT":508,"MT":680,"sideResp":2,"stimulus":[],"xmouse":[817,817,817,817,817,817,817,817,817,817,817,817,817,817,817,817,817,817,817,817,817,817,823,831,836,843,847,852,852,852,852,863,912,936,960,981,998,1006,1016,1016,1016,1016,1016,1016,1016,1016,1016,1024,1030,1037,1052,1056,1060,1062,1063,1063,1064,1064,1064,1067],"ymouse":[630,630,630,630,630,630,630,630,630,630,630,630,630,630,630,630,630,630,630,630,630,630,630,627,623,615,602,589,589,589,588,580,538,507,467,414,361,327,245,188,155,127,101,51,31,17,8,0,0,0,0,0,0,0,0,0,0,0,0,2],"timestamp_mouse":[9,28,63,69,89,108,128,148,169,188,208,229,249,268,289,308,329,349,369,388,409,429,447,469,489,508,528,548,569,588,608,628,648,669,688,709,729,748,768,788,808,828,848,868,889,909,928,949,968,988,1008,1028,1049,1068,1088,1108,1127,1148,1167,1188],"xSR":741.5,"ySR":573.95,"xT1":424.9,"yT1":0,"xT2":1058.1,"yT2":0,"toosoon":0,"cond_shown":"Congruent","ratio_trial":200,"L_num":11,"L_den":22,"R_num":3,"R_den":10,"correct_side":1,"subjID":"lauracamargomendez15","gender":"1","school":"4","age":"9"},{"start_time":1552073704875,"click_time":1552073705610,"finger_time":1552073705209,"fix_duration":463.7596467165368,"trial":44,"RT":334,"MT":401,"sideResp":1,"stimulus":[],"xmouse":[826,826,823,821,820,818,816,816,816,816,816,816,816,816,815,818,828,828,827,817,806,779,763,724,699,685,657,636,627,624,623,613,597,571,545,527,494],"ymouse":[609,609,613,615,617,619,621,621,621,621,621,621,621,621,621,591,539,492,462,439,423,384,362,316,294,253,185,155,141,134,129,110,95,80,62,47,15],"timestamp_mouse":[15,35,55,75,95,114,135,154,174,195,215,234,254,274,294,316,334,354,375,395,414,434,454,475,495,515,533,554,575,595,614,634,654,674,695,714,735],"xSR":741.5,"ySR":573.95,"xT1":424.9,"yT1":0,"xT2":1058.1,"yT2":0,"toosoon":0,"cond_shown":"Incongruent","ratio_trial":200,"L_num":7,"L_den":10,"R_num":12,"R_den":24,"correct_side":1,"subjID":"lauracamargomendez15","gender":"1","school":"4","age":"9"},{"start_time":1552073706963,"click_time":1552073707530,"finger_time":1552073707250,"fix_duration":771.4724108913666,"trial":45,"RT":287,"MT":280,"sideResp":1,"stimulus":[],"xmouse":[823,823,823,823,823,823,823,823,823,823,823,823,812,790,755,713,667,593,560,543,528,519,502,495,488,480,475,473,473],"ymouse":[653,653,653,653,653,653,653,653,653,653,653,653,639,612,566,505,435,300,249,223,203,189,165,156,141,127,117,100,97],"timestamp_mouse":[12,40,47,67,87,106,127,147,166,187,207,227,245,266,287,306,326,346,367,386,406,427,446,466,485,507,527,547,567],"xSR":741.5,"ySR":573.95,"xT1":424.9,"yT1":0,"xT2":1058.1,"yT2":0,"toosoon":0,"cond_shown":"Congruent","ratio_trial":100,"L_num":11,"L_den":22,"R_num":4,"R_den":10,"correct_side":1,"subjID":"lauracamargomendez15","gender":"1","school":"4","age":"9"},{"start_time":1552073708960,"click_time":1552073709509,"finger_time":1552073709109,"fix_duration":250,"trial":46,"RT":149,"MT":400,"sideResp":1,"stimulus":[],"xmouse":[751,751,751,751,751,751,751,744,738,731,720,712,683,662,630,596,565,543,539,535,529,520,515,512,509,504,498,476],"ymouse":[610,610,610,610,610,610,599,573,558,539,504,475,407,366,312,265,221,190,185,180,174,165,158,154,145,128,109,51],"timestamp_mouse":[10,31,49,69,90,110,129,149,169,190,210,230,249,270,288,309,328,349,370,390,409,429,450,469,489,509,530,549],"xSR":741.5,"ySR":573.95,"xT1":424.9,"yT1":0,"xT2":1058.1,"yT2":0,"toosoon":0,"cond_shown":"Incongruent","ratio_trial":100,"L_num":17,"L_den":30,"R_num":10,"R_den":15,"correct_side":2,"subjID":"lauracamargomendez15","gender":"1","school":"4","age":"9"},{"start_time":1552073713606,"click_time":1552073714750,"finger_time":1552073714369,"fix_duration":514.6781283630654,"trial":47,"RT":763,"MT":381,"sideResp":2,"stimulus":[],"xmouse":[795,795,795,795,795,795,795,795,795,795,795,795,795,795,795,795,795,795,795,795,795,795,795,795,795,795,795,795,795,795,795,795,795,795,795,795,797,807,826,861,916,1075,1167,1233,1275,1304,1304,1304,1304,1303,1302,1297,1291,1280,1263,1243,1172,1146],"ymouse":[598,598,598,598,598,598,598,598,598,598,598,598,598,598,598,598,598,598,598,598,598,598,598,598,598,598,598,598,598,598,598,598,598,598,598,598,595,585,566,528,468,304,166,33,0,0,0,0,0,0,0,0,0,0,0,0,21,31],"timestamp_mouse":[21,38,44,63,83,104,122,144,163,183,204,223,243,263,284,304,324,344,364,383,404,424,443,464,483,503,523,543,564,584,604,622,644,663,683,704,724,743,763,783,803,823,844,863,883,904,923,943,963,984,1003,1023,1043,1064,1083,1105,1123,1144],"xSR":741.5,"ySR":573.95,"xT1":424.9,"yT1":0,"xT2":1058.1,"yT2":0,"toosoon":0,"cond_shown":"Incongruent","ratio_trial":300,"L_num":4,"L_den":20,"R_num":2,"R_den":4,"correct_side":2,"subjID":"lauracamargomendez15","gender":"1","school":"4","age":"9"},{"start_time":1552073715806,"click_time":1552073716889,"finger_time":1552073716670,"fix_duration":276.8480881760407,"trial":48,"RT":864,"MT":219,"sideResp":1,"stimulus":[],"xmouse":[806,806,806,806,806,806,806,806,806,806,806,806,806,806,806,806,806,806,806,806,806,806,806,806,806,806,806,806,806,806,806,806,806,806,806,806,806,806,806,806,806,805,805,805,798,786,758,748,744,741,735,663,603,541,445],"ymouse":[632,632,632,632,632,632,632,632,632,632,632,632,632,632,632,632,632,632,632,632,632,632,632,632,632,632,632,632,632,632,632,632,632,632,632,632,632,632,632,632,630,614,590,560,499,456,406,398,396,394,392,338,281,201,65],"timestamp_mouse":[7,30,44,64,84,104,124,143,164,184,204,224,244,263,283,303,324,344,364,383,404,423,444,463,484,503,523,544,563,584,604,623,643,663,683,704,723,743,763,783,804,824,843,864,884,903,923,944,964,983,1004,1023,1043,1064,1083],"xSR":741.5,"ySR":573.95,"xT1":424.9,"yT1":0,"xT2":1058.1,"yT2":0,"toosoon":0,"cond_shown":"Incongruent","ratio_trial":200,"L_num":7,"L_den":10,"R_num":14,"R_den":28,"correct_side":1,"subjID":"lauracamargomendez15","gender":"1","school":"4","age":"9"},{"start_time":1552073718261,"click_time":1552073719410,"finger_time":1552073718790,"fix_duration":250,"trial":49,"RT":529,"MT":620,"sideResp":2,"stimulus":[],"xmouse":[804,804,804,804,804,804,804,804,804,804,804,802,801,800,797,795,795,795,795,795,795,795,795,786,781,775,769,763,756,755,755,756,776,809,822,835,849,873,957,1037,1076,1097,1104,1107,1107,1107,1107,1107,1118,1136,1141,1141,1141,1141,1141,1141,1142,1142],"ymouse":[654,654,654,654,654,654,654,654,652,650,645,635,628,618,604,600,593,589,587,587,587,587,587,582,579,575,570,566,556,549,533,512,436,322,278,237,207,169,65,5,0,0,0,0,0,0,0,0,0,0,0,0,0,0,0,0,0,1],"timestamp_mouse":[20,37,49,68,88,108,128,148,168,188,209,228,249,268,289,308,329,349,368,388,407,429,449,468,488,508,529,550,568,588,609,628,649,668,688,709,728,748,768,788,808,829,848,869,888,909,928,948,969,988,1007,1029,1049,1069,1089,1109,1128,1149],"xSR":741.5,"ySR":573.95,"xT1":424.9,"yT1":0,"xT2":1058.1,"yT2":0,"toosoon":0,"cond_shown":"Congruent","ratio_trial":300,"L_num":20,"L_den":25,"R_num":8,"R_den":16,"correct_side":1,"subjID":"lauracamargomendez15","gender":"1","school":"4","age":"9"},{"start_time":1552073721323,"click_time":1552073722650,"finger_time":1552073721790,"fix_duration":1151.2015858172317,"trial":50,"RT":467,"MT":860,"sideResp":2,"stimulus":[],"xmouse":[813,813,813,813,813,813,813,813,813,813,813,813,813,813,813,813,813,813,813,813,813,812,804,798,793,790,788,788,788,788,788,788,788,788,788,799,811,817,821,823,823,823,823,823,823,837,863,880,901,919,959,974,985,996,1004,1008,1028,1036,1047,1064,1097,1107,1109,1109,1112,1112,1113],"ymouse":[598,598,598,598,598,598,598,598,598,598,598,598,598,598,598,598,598,598,598,598,598,589,575,566,556,551,549,549,549,549,549,549,549,549,548,537,526,516,507,497,485,483,483,483,482,459,417,389,340,295,201,163,128,87,62,39,0,0,0,0,0,0,0,0,0,0,2],"timestamp_mouse":[12,37,46,66,86,106,125,147,166,186,205,227,246,266,287,307,326,346,366,386,407,426,447,467,487,507,526,546,567,587,607,627,647,666,686,707,726,747,766,787,807,826,846,866,886,907,927,947,966,986,1008,1026,1045,1066,1087,1105,1125,1146,1166,1186,1209,1225,1245,1266,1287,1307,1327],"xSR":741.5,"ySR":573.95,"xT1":424.9,"yT1":0,"xT2":1058.1,"yT2":0,"toosoon":0,"cond_shown":"Congruent","ratio_trial":100,"L_num":8,"L_den":16,"R_num":2,"R_den":5,"correct_side":1,"subjID":"lauracamargomendez15","gender":"1","school":"4","age":"9"},{"start_time":1552073724318,"click_time":1552073724790,"finger_time":1552073724629,"fix_duration":946.2580251095702,"trial":51,"RT":311,"MT":161,"sideResp":1,"stimulus":[],"xmouse":[794,794,794,794,794,794,794,794,794,794,794,794,794,795,795,795,730,668,602,562,544,532,523,517],"ymouse":[627,627,627,627,627,627,627,627,627,627,627,627,627,617,582,565,390,278,212,164,136,115,103,97],"timestamp_mouse":[13,37,51,71,91,112,132,152,171,191,211,232,252,272,291,311,331,352,371,392,411,432,452,472],"xSR":741.5,"ySR":573.95,"xT1":424.9,"yT1":0,"xT2":1058.1,"yT2":0,"toosoon":0,"cond_shown":"Congruent","ratio_trial":100,"L_num":7,"L_den":14,"R_num":9,"R_den":15,"correct_side":2,"subjID":"lauracamargomendez15","gender":"1","school":"4","age":"9"},{"start_time":1552073725760,"click_time":1552073726289,"finger_time":1552073726049,"fix_duration":250,"trial":52,"RT":289,"MT":240,"sideResp":2,"stimulus":[],"xmouse":[788,788,788,789,791,791,791,791,791,791,791,791,794,800,821,844,873,896,924,978,997,1013,1028,1030,1045,1049,1059],"ymouse":[610,610,610,608,606,605,605,605,605,605,605,605,599,587,556,518,446,347,223,74,52,37,24,23,17,16,16],"timestamp_mouse":[10,36,49,69,89,109,129,149,170,189,209,229,250,269,289,309,329,348,368,390,409,430,449,469,489,510,529],"xSR":741.5,"ySR":573.95,"xT1":424.9,"yT1":0,"xT2":1058.1,"yT2":0,"toosoon":0,"cond_shown":"Incongruent","ratio_trial":200,"L_num":9,"L_den":15,"R_num":8,"R_den":10,"correct_side":2,"subjID":"lauracamargomendez15","gender":"1","school":"4","age":"9"},{"start_time":1552073727940,"click_time":1552073729110,"finger_time":1552073728709,"fix_duration":250,"trial":53,"RT":769,"MT":401,"sideResp":2,"stimulus":[],"xmouse":[773,773,773,773,777,777,777,777,777,777,777,777,777,777,777,777,777,777,777,777,777,777,777,777,777,777,777,777,777,777,777,777,777,777,777,777,777,789,818,881,1002,1050,1101,1129,1152,1169,1181,1183,1183,1183,1184,1184,1184,1184,1184,1184,1183,1175,1158],"ymouse":[583,583,583,583,582,582,582,582,582,582,582,582,582,582,582,582,582,582,582,582,582,582,582,582,582,582,582,582,582,582,582,582,582,582,582,582,582,575,557,521,450,408,341,286,230,170,62,12,0,0,0,0,0,0,0,0,0,1,11],"timestamp_mouse":[12,39,49,69,89,109,130,148,170,190,210,230,250,270,289,309,330,348,370,389,409,429,450,470,490,509,529,550,570,590,609,628,650,670,689,709,730,750,769,788,809,830,850,870,888,909,930,950,969,990,1012,1029,1049,1069,1088,1109,1129,1149,1170],"xSR":741.5,"ySR":573.95,"xT1":424.9,"yT1":0,"xT2":1058.1,"yT2":0,"toosoon":0,"cond_shown":"Incongruent","ratio_trial":100,"L_num":11,"L_den":22,"R_num":9,"R_den":15,"correct_side":2,"subjID":"lauracamargomendez15","gender":"1","school":"4","age":"9"},{"start_time":1552073731309,"click_time":1552073732190,"finger_time":1552073732069,"fix_duration":858.0089181413931,"trial":54,"RT":760,"MT":121,"sideResp":2,"stimulus":[],"xmouse":[760,760,760,760,760,760,760,760,760,760,760,760,760,760,760,760,760,760,760,760,760,760,760,760,762,768,770,770,770,770,770,770,770,770,770,775,783,807,908,943,964,978,1011,1058,1100],"ymouse":[624,624,624,624,624,624,624,624,624,624,624,624,624,624,624,624,624,624,624,624,624,624,624,624,627,634,636,636,636,636,636,636,636,636,636,633,625,604,507,467,432,402,290,176,94],"timestamp_mouse":[10,21,40,60,80,101,120,140,161,179,201,220,240,260,281,300,321,341,361,381,401,420,440,460,481,501,521,541,560,581,601,620,641,661,680,700,721,740,760,781,800,820,841,860,881],"xSR":741.5,"ySR":573.95,"xT1":424.9,"yT1":0,"xT2":1058.1,"yT2":0,"toosoon":0,"cond_shown":"Congruent","ratio_trial":200,"L_num":3,"L_den":6,"R_num":14,"R_den":20,"correct_side":2,"subjID":"lauracamargomendez15","gender":"1","school":"4","age":"9"},{"start_time":1552073733708,"click_time":1552073735270,"finger_time":1552073735030,"fix_duration":375.8972821804618,"trial":55,"RT":1322,"MT":240,"sideResp":1,"stimulus":[],"xmouse":[804,804,804,804,804,804,804,804,804,804,804,804,804,806,806,806,806,806,806,806,806,806,806,806,806,806,806,806,806,806,806,806,806,806,806,806,806,806,806,806,806,806,806,806,806,806,806,806,806,806,806,806,806,806,806,806,806,806,806,806,806,806,806,806,806,795,771,729,602,557,545,533,528,523,517,512,509,507,502],"ymouse":[633,633,633,633,633,633,633,633,633,633,633,629,627,625,625,625,625,625,625,625,625,625,625,625,625,625,625,625,625,625,625,625,625,625,625,625,625,625,625,625,625,625,625,625,625,625,625,625,625,625,625,625,625,625,625,625,625,625,625,625,625,625,625,625,622,603,568,505,321,256,233,198,187,176,161,150,139,131,99],"timestamp_mouse":[13,26,41,61,81,101,121,142,161,181,202,221,241,261,281,302,321,341,361,381,402,421,442,462,482,501,521,541,561,581,602,621,641,661,681,701,721,741,761,782,802,820,841,862,882,901,921,941,961,981,1001,1021,1042,1061,1080,1100,1122,1141,1161,1181,1201,1221,1242,1261,1281,1301,1322,1342,1361,1381,1400,1421,1442,1461,1481,1501,1521,1540,1561],"xSR":741.5,"ySR":573.95,"xT1":424.9,"yT1":0,"xT2":1058.1,"yT2":0,"toosoon":0,"cond_shown":"Incongruent","ratio_trial":300,"L_num":4,"L_den":20,"R_num":2,"R_den":4,"correct_side":2,"subjID":"lauracamargomendez15","gender":"1","school":"4","age":"9"},{"start_time":1552073738104,"click_time":1552073739029,"finger_time":1552073738929,"fix_duration":533.075386006835,"trial":56,"RT":825,"MT":100,"sideResp":2,"stimulus":[],"xmouse":[815,815,815,815,815,815,815,815,815,815,815,815,815,815,815,815,815,815,815,815,803,792,792,792,792,792,792,792,792,792,792,792,792,792,792,792,792,792,792,792,799,825,865,908,988,1022,1073],"ymouse":[603,603,603,603,603,603,603,603,603,603,603,603,603,603,603,603,603,603,603,603,595,592,592,592,592,592,592,592,592,592,592,592,592,592,592,592,592,592,592,592,584,550,485,408,240,144,36],"timestamp_mouse":[11,38,45,65,85,105,125,145,165,186,205,226,246,266,286,305,326,345,366,385,406,426,446,466,486,506,525,546,566,584,605,625,645,666,685,706,726,745,765,786,805,825,846,865,886,905,925],"xSR":741.5,"ySR":573.95,"xT1":424.9,"yT1":0,"xT2":1058.1,"yT2":0,"toosoon":0,"cond_shown":"Congruent","ratio_trial":100,"L_num":4,"L_den":8,"R_num":6,"R_den":10,"correct_side":2,"subjID":"lauracamargomendez15","gender":"1","school":"4","age":"9"},{"start_time":1552073741101,"click_time":1552073742029,"finger_time":1552073741569,"fix_duration":870.5979211059218,"trial":57,"RT":468,"MT":460,"sideResp":2,"stimulus":[],"xmouse":[791,791,791,791,791,791,791,791,791,791,791,791,791,791,791,790,790,791,792,793,796,800,804,808,826,838,850,862,906,924,941,963,987,1009,1027,1030,1035,1040,1041,1044,1044,1044,1044,1044,1046,1051,1059],"ymouse":[641,641,641,641,641,641,641,641,641,641,641,641,641,641,641,639,636,630,624,620,613,601,587,572,530,506,477,450,383,356,332,296,261,228,172,145,118,83,74,58,58,58,58,57,52,49,41],"timestamp_mouse":[10,41,47,67,87,108,127,149,167,188,207,228,248,267,288,309,327,347,368,387,408,427,448,468,488,508,528,547,569,587,607,628,648,667,688,707,727,747,768,787,807,828,848,868,887,908,927],"xSR":741.5,"ySR":573.95,"xT1":424.9,"yT1":0,"xT2":1058.1,"yT2":0,"toosoon":0,"cond_shown":"Congruent","ratio_trial":200,"L_num":3,"L_den":10,"R_num":11,"R_den":22,"correct_side":2,"subjID":"lauracamargomendez15","gender":"1","school":"4","age":"9"},{"start_time":1552073744087,"click_time":1552073745049,"finger_time":1552073744589,"fix_duration":1198.8483688040296,"trial":58,"RT":502,"MT":460,"sideResp":2,"stimulus":[],"xmouse":[804,804,804,804,804,804,804,804,804,804,804,804,804,804,803,798,794,791,790,789,789,789,789,789,789,792,800,815,837,851,889,912,932,946,952,957,959,965,980,986,996,997,1000,1004,1009,1034,1048,1058,1069],"ymouse":[633,633,633,633,633,633,633,633,633,633,633,633,632,632,631,612,598,586,578,577,577,577,577,577,577,572,565,552,531,516,441,382,321,252,225,198,171,147,110,95,73,70,68,67,66,61,58,54,51],"timestamp_mouse":[10,30,42,61,81,102,122,142,162,181,202,221,242,262,282,302,321,342,361,382,402,421,441,461,481,502,521,541,561,582,602,622,642,662,683,701,722,742,762,781,802,822,841,862,881,901,921,941,962],"xSR":741.5,"ySR":573.95,"xT1":424.9,"yT1":0,"xT2":1058.1,"yT2":0,"toosoon":0,"cond_shown":"Congruent","ratio_trial":100,"L_num":15,"L_den":25,"R_num":13,"R_den":26,"correct_side":1,"subjID":"lauracamargomendez15","gender":"1","school":"4","age":"9"},{"start_time":1552073746140,"click_time":1552073747089,"finger_time":1552073746509,"fix_duration":250,"trial":59,"RT":369,"MT":580,"sideResp":2,"stimulus":[],"xmouse":[779,779,779,779,779,779,779,779,780,780,780,780,780,774,773,771,770,770,787,805,818,829,845,851,860,863,869,893,917,952,984,1023,1096,1131,1143,1173,1182,1212,1215,1215,1215,1215,1215,1215,1214,1202,1182,1142],"ymouse":[604,604,604,604,604,604,604,604,604,604,604,604,603,601,600,599,599,596,562,504,458,419,372,361,349,345,340,323,312,293,279,260,206,136,110,34,9,0,0,0,0,0,0,0,0,3,11,26],"timestamp_mouse":[11,41,48,70,89,108,128,148,169,188,209,229,249,268,289,309,328,348,369,390,409,429,448,468,488,509,529,548,569,589,609,628,648,668,689,710,729,750,768,788,809,828,848,869,888,909,929,948],"xSR":741.5,"ySR":573.95,"xT1":424.9,"yT1":0,"xT2":1058.1,"yT2":0,"toosoon":0,"cond_shown":"Congruent","ratio_trial":100,"L_num":6,"L_den":20,"R_num":5,"R_den":25,"correct_side":1,"subjID":"lauracamargomendez15","gender":"1","school":"4","age":"9"},{"start_time":1552073750655,"click_time":1552073751528,"finger_time":1552073751109,"fix_duration":565.5240855779557,"trial":60,"RT":454,"MT":419,"sideResp":1,"stimulus":[],"xmouse":[797,797,797,797,797,797,797,797,797,797,797,797,797,797,800,805,807,807,807,808,806,798,780,760,727,679,669,632,618,606,596,573,562,554,546,535,511,492,492,492,492,492,491,488],"ymouse":[636,636,636,636,636,636,636,636,636,636,636,636,636,636,636,638,639,639,639,635,625,598,527,456,378,267,236,113,83,62,49,22,9,0,0,0,0,0,0,0,0,0,0,6],"timestamp_mouse":[14,37,54,74,93,113,134,153,175,194,213,233,253,274,294,315,333,354,373,393,414,434,454,474,494,514,533,553,574,594,613,635,654,673,693,713,734,754,773,793,813,833,853,873],"xSR":741.5,"ySR":573.95,"xT1":424.9,"yT1":0,"xT2":1058.1,"yT2":0,"toosoon":0,"cond_shown":"Incongruent","ratio_trial":200,"L_num":1,"L_den":2,"R_num":3,"R_den":10,"correct_side":1,"subjID":"lauracamargomendez15","gender":"1","school":"4","age":"9"},{"start_time":1552073753276,"click_time":1552073764088,"finger_time":1552073754089,"fix_duration":705.5177949117727,"trial":61,"RT":813,"MT":9999,"sideResp":2,"stimulus":[],"xmouse":[796,796,796,796,796,796,796,796,796,796,796,796,796,796,796,796,797,797,797,798,798,798,798,798,798,798,798,798,799,799,799,799,799,799,799,799,799,802,812,834,857,888,890,890,890,890,890,890,890,890,889,882,867,851,831,827,819,812,803,799,799,799,799,799,799,799,799,799,799,799,799,799,799,799,799,799,799,799,799,799,799,799,799,799,799,799,799,799,799,799,799,799,799,799,799,799,799,799,799,799,799,799,799,799,799,799,799,799,799,799,799,799,799,799,799,799,799,799,799,799,799,799,799,799,799,799,799,799,799,799,799,799,799,799,799,799,799,799,799,799,799,799,799,799,799,799,799,799,799,799,799,799,799,799,799,799,799,799,799,799,799,799,799,799,799,799,799,799,799,799,799,799,799,799,799,799,799,799,797,794,787,780,779,778,778,778,777,777,777,777,777,777,777,777,777,777,777,777,779,784,794,803,803,803,803,803,803,803,803,803,803,803,803,803,803,803,803,803,803,803,803,803,803,803,803,803,803,803,803,803,803,803,803,803,803,803,803,803,803,803,803,803,803,803,803,803,803,803,803,803,803,803,803,803,803,803,803,803,803,803,803,803,803,803,803,803,803,803,803,803,803,803,803,803,803,803,803,803,803,803,803,803,803,803,803,803,803,803,803,803,803,803,803,803,803,803,803,803,803,803,803,803,803,803,803,803,803,803,803,803,803,803,803,803,803,803,803,803,803,803,803,803,803,803,803,803,803,803,803,803,803,803,803,803,803,803,803,803,803,803,803,803,803,803,803,803,803,803,803,803,803,803,803,803,803,803,803,803,803,803,803,803,803,803,803,803,803,803,803,803,803,803,803,803,803,803,803,803,803,803,803,803,803,803,803,803,803,803,803,803,803,803,803,803,803,803,803,803,803,803,803,803,803,803,803,803,803,803,803,803,803,803,803,803,803,803,803,803,803,803,803,803,803,803,803,803,803,803,803,803,803,803,803,803,803,803,803,803,803,803,803,803,803,803,803,803,803,803,803,803,803,803,803,803,803,803,803,803,803,803,803,803,803,803,803,803,803,803,803,803,803,803,803,803,803,803,803,803,803,803,803,803,803,803,803,803,803,803,803,803,803,803,803,803,803,803,803,803,803,803,803,803,803,803,805,805,805,805,805,805,805,805,805,805,805,805,805,805,805,805,805,805,805,809,824,839,844,867,872,897,922,950,979,1038,1064,1079,1090,1092,1092,1092,1093],"ymouse":[604,604,604,604,604,604,604,604,604,604,604,604,604,604,604,604,603,603,603,602,602,602,602,602,602,602,602,602,600,600,600,600,600,600,600,600,600,597,591,579,571,563,562,562,562,562,562,562,562,563,565,574,580,585,587,588,588,588,588,588,588,588,588,588,588,588,588,588,588,588,588,588,588,588,588,588,588,588,588,588,588,588,588,588,588,588,588,588,588,588,588,588,588,588,588,588,588,588,588,588,588,588,588,588,588,588,588,588,588,588,588,588,588,588,588,588,588,588,588,588,588,588,588,588,588,588,588,588,588,588,588,588,588,588,588,588,588,588,588,588,588,588,588,588,588,588,588,588,588,588,588,588,588,588,588,588,588,588,588,588,588,588,588,588,588,588,588,588,588,588,588,588,588,588,588,588,588,588,589,593,599,603,605,607,609,611,614,615,615,615,615,615,615,615,615,615,615,615,612,610,610,611,611,611,611,611,611,611,611,611,611,611,611,611,611,611,611,611,611,611,611,611,611,611,611,611,611,611,611,611,611,611,611,611,611,611,611,611,611,611,611,611,611,611,611,611,611,611,611,611,611,611,611,611,611,611,611,611,611,611,611,611,611,611,611,611,611,611,611,611,611,611,611,611,611,611,611,611,611,611,611,611,611,611,611,611,611,611,611,611,611,611,611,611,611,611,611,611,611,611,611,611,611,611,611,611,611,611,611,611,611,611,611,611,611,611,611,611,611,611,611,611,611,611,611,611,611,611,611,611,611,611,611,611,611,611,611,611,611,611,611,611,611,611,611,611,611,611,611,611,611,611,611,611,611,611,611,611,611,611,611,611,611,611,611,611,611,611,611,611,611,611,611,611,611,611,611,611,611,611,611,611,611,611,611,611,611,611,611,611,611,611,611,611,611,611,611,611,611,611,611,611,611,611,611,611,611,611,611,611,611,611,611,611,611,611,611,611,611,611,611,611,611,611,611,611,611,611,611,611,611,611,611,611,611,611,611,611,611,611,611,611,611,611,611,611,611,611,611,611,611,611,611,611,611,611,611,611,611,611,611,611,611,611,611,611,611,611,611,611,611,611,611,611,611,611,611,611,611,611,611,611,611,611,611,611,611,611,611,611,611,611,611,611,611,611,611,611,611,611,611,611,611,611,610,609,609,609,609,609,609,609,609,609,609,609,609,609,609,609,609,609,607,595,545,481,420,224,190,103,44,0,0,0,0,0,0,0,0,0,1],"timestamp_mouse":[12,43,53,72,93,112,133,153,172,192,212,234,252,272,293,313,333,353,372,393,413,432,452,472,492,512,533,552,572,592,613,632,652,673,692,712,732,753,772,793,813,832,852,872,892,913,933,953,972,993,1012,1032,1052,1073,1092,1113,1132,1153,1172,1192,1212,1233,1252,1272,1293,1312,1333,1352,1372,1392,1412,1433,1452,1472,1492,1513,1533,1552,1574,1593,1613,1633,1652,1673,1693,1713,1733,1753,1773,1793,1812,1833,1853,1873,1894,1912,1933,1953,1972,1993,2013,2032,2052,2073,2093,2114,2133,2152,2174,2193,2213,2232,2252,2272,2292,2313,2333,2352,2373,2392,2413,2434,2453,2472,2493,2513,2533,2552,2573,2593,2612,2633,2652,2673,2693,2713,2732,2754,2773,2793,2813,2832,2852,2873,2893,2913,2932,2953,2973,2992,3013,3032,3053,3073,3092,3112,3133,3153,3173,3193,3213,3233,3253,3273,3292,3313,3332,3352,3372,3393,3413,3432,3454,3473,3493,3514,3533,3552,3572,3593,3613,3633,3653,3673,3692,3713,3733,3752,3773,3793,3812,3833,3853,3873,3893,3913,3933,3953,3972,3994,4014,4032,4053,4072,4092,4112,4133,4152,4173,4192,4212,4232,4253,4273,4292,4313,4332,4353,4373,4393,4412,4433,4453,4472,4492,4513,4532,4552,4572,4592,4613,4632,4653,4673,4692,4712,4734,4754,4774,4792,4812,4833,4853,4872,4893,4913,4932,4952,4973,4993,5012,5033,5053,5073,5093,5112,5133,5152,5172,5193,5212,5232,5252,5272,5292,5313,5332,5353,5372,5393,5412,5433,5453,5473,5494,5520,5532,5552,5572,5593,5614,5633,5653,5673,5692,5712,5733,5752,5772,5794,5813,5832,5852,5872,5892,5912,5932,5952,5973,5993,6012,6033,6052,6073,6092,6113,6133,6152,6174,6193,6213,6233,6252,6272,6293,6312,6332,6353,6373,6393,6413,6433,6453,6472,6493,6513,6533,6552,6573,6592,6613,6632,6652,6673,6694,6712,6733,6753,6772,6792,6813,6832,6853,6872,6893,6912,6933,6953,6972,6993,7013,7032,7052,7073,7093,7112,7133,7153,7172,7193,7212,7232,7253,7272,7293,7314,7333,7353,7372,7393,7413,7434,7453,7472,7492,7513,7533,7554,7574,7593,7612,7633,7652,7672,7693,7713,7732,7752,7772,7792,7814,7833,7853,7872,7893,7912,7933,7952,7972,7992,8013,8032,8053,8073,8093,8112,8132,8152,8172,8193,8212,8233,8252,8272,8293,8313,8333,8353,8372,8392,8412,8432,8452,8472,8492,8512,8532,8553,8572,8593,8613,8634,8653,8673,8693,8712,8733,8752,8773,8792,8813,8832,8852,8872,8894,8913,8933,8952,8972,8993,9012,9032,9054,9072,9093,9113,9132,9152,9172,9193,9212,9233,9253,9273,9292,9312,9332,9353,9372,9392,9412,9433,9452,9472,9492,9513,9533,9553,9572,9592,9612,9633,9653,9672,9692,9712,9733,9752,9772,9792,9813,9832,9852,9872,9893,9914,9933,9952,9972,9992,10013,10032,10053,10073,10092,10114,10133,10152,10173,10193,10212,10233,10252,10272,10293,10313,10333,10353,10373,10392,10413,10433,10453,10472,10494,10512,10534,10553,10573,10592,10613,10632,10652,10672,10692,10712,10732,10754,10772,10793,10812],"xSR":741.5,"ySR":573.95,"xT1":424.9,"yT1":0,"xT2":1058.1,"yT2":0,"toosoon":0,"cond_shown":"Incongruent","ratio_trial":100,"L_num":10,"L_den":25,"R_num":8,"R_den":16,"correct_side":2,"subjID":"lauracamargomendez15","gender":"1","school":"4","age":"9"},{"start_time":1552073768152,"click_time":1552073770609,"finger_time":1552073769889,"fix_duration":901.6190676774139,"trial":62,"RT":1737,"MT":720,"sideResp":2,"stimulus":[],"xmouse":[796,796,796,796,796,796,796,796,796,796,796,796,796,796,796,796,796,796,796,796,796,796,796,796,796,796,796,796,796,796,796,796,796,796,796,796,796,796,796,796,796,796,796,796,796,796,796,796,796,796,796,796,796,796,796,796,796,796,796,796,796,796,796,796,796,796,796,796,796,796,796,796,796,796,796,796,796,796,796,796,796,796,796,796,796,830,901,969,1035,1190,1220,1235,1246,1256,1271,1280,1288,1294,1297,1292,1285,1279,1275,1274,1269,1268,1267,1265,1259,1237,1225,1217,1213,1213,1213,1211,1211,1211,1211,1207,1196,1165,1139],"ymouse":[615,615,615,615,615,615,615,615,615,615,615,615,615,615,615,615,615,615,615,615,615,615,615,615,615,615,615,615,615,615,615,615,615,615,615,615,615,615,615,615,615,615,615,615,615,615,615,615,615,615,615,615,615,615,615,615,615,615,615,615,615,615,615,615,615,615,615,615,615,615,615,615,615,615,615,615,615,615,615,615,615,615,615,615,615,578,495,430,383,261,226,199,182,166,140,128,111,95,69,14,0,0,0,0,0,0,0,0,0,6,12,15,17,17,17,18,18,18,18,19,20,24,30],"timestamp_mouse":[17,41,56,76,96,117,137,157,177,197,216,236,257,276,296,317,336,357,376,397,417,436,457,477,497,517,536,556,578,596,616,636,657,677,697,716,737,757,776,796,817,837,857,876,897,917,937,956,976,997,1016,1036,1058,1076,1097,1117,1138,1157,1177,1196,1217,1237,1258,1276,1296,1316,1337,1356,1376,1397,1417,1436,1456,1477,1497,1516,1537,1556,1576,1596,1617,1636,1657,1676,1696,1717,1737,1756,1776,1796,1817,1837,1856,1878,1896,1916,1936,1956,1976,1996,2016,2036,2056,2076,2097,2118,2137,2157,2176,2197,2217,2237,2256,2277,2296,2316,2336,2357,2377,2397,2416,2436,2457],"xSR":741.5,"ySR":573.95,"xT1":424.9,"yT1":0,"xT2":1058.1,"yT2":0,"toosoon":0,"cond_shown":"Incongruent","ratio_trial":200,"L_num":6,"L_den":20,"R_num":3,"R_den":6,"correct_side":2,"subjID":"lauracamargomendez15","gender":"1","school":"4","age":"9"},{"start_time":1552073774300,"click_time":1552073776489,"finger_time":1552073775750,"fix_duration":250,"trial":63,"RT":1450,"MT":739,"sideResp":1,"stimulus":[],"xmouse":[764,764,764,764,764,764,764,764,764,764,764,764,764,764,764,764,764,764,764,764,764,764,764,764,764,764,764,764,764,764,764,764,764,764,764,764,764,764,764,764,764,764,764,764,764,764,764,764,764,764,764,764,764,764,764,764,764,764,764,764,764,764,764,764,764,764,764,764,764,764,764,764,772,750,718,675,627,595,569,553,536,510,448,410,410,410,410,409,409,409,409,409,411,412,412,412,412,414,417,417,417,418,418,419,420,420,420,421,422,427],"ymouse":[638,638,638,638,638,638,638,638,638,638,638,638,638,638,638,638,638,638,638,638,638,638,638,638,638,638,638,638,638,638,638,638,638,638,638,638,638,638,638,638,638,638,638,638,638,638,638,638,638,638,638,638,638,638,638,638,638,638,638,638,638,638,638,638,