[{"start_time":1552069850478,"click_time":1552069852524,"finger_time":1552069851101,"fix_duration":932.2335396376864,"trial":0,"RT":623,"MT":1423,"sideResp":2,"stimulus":"img/500/equaldotanddens/R/15_Ratio_500_L_1_R_2.png","xmouse":[810,810,810,810,810,810,810,810,810,810,810,810,810,810,810,810,810,810,810,810,810,810,810,810,810,810,810,810,810,810,810,808,784,780,779,779,779,779,774,766,762,762,762,814,853,869,870,871,873,876,880,883,885,887,887,887,889,896,901,905,908,909,909,909,909,909,909,909,909,910,910,910,910,910,910,910,910,910,912,917,928,942,972,994,1002,1009,1013,1015,1015,1016,1016,1016,1016,1016,1016,1016,1016,1016,1017,1023,1033,1046,1068],"ymouse":[579,579,579,578,578,576,576,576,576,576,576,576,576,576,576,576,576,576,576,576,576,576,576,576,576,576,575,575,575,575,574,571,547,541,536,532,530,522,509,497,481,446,370,205,111,39,14,0,0,0,0,0,0,0,0,0,0,8,12,15,17,18,18,18,18,18,18,18,18,18,21,25,33,39,46,51,54,55,56,56,56,58,64,65,65,65,65,65,65,66,66,66,66,66,66,66,66,66,66,66,66,66,66],"timestamp_mouse":[11,23,43,64,83,103,123,143,163,185,204,225,243,265,284,304,323,344,363,383,403,424,444,464,483,504,523,543,564,583,603,623,643,664,683,703,724,743,764,784,803,823,843,863,883,903,923,943,964,983,1005,1025,1044,1065,1084,1104,1124,1145,1163,1183,1204,1223,1244,1264,1283,1303,1323,1344,1364,1383,1403,1423,1444,1464,1483,1503,1524,1543,1563,1584,1604,1624,1643,1664,1683,1705,1724,1744,1763,1783,1803,1823,1843,1863,1883,1903,1923,1944,1963,1984,2005,2025,2046],"xSR":741.5,"ySR":500.5,"xT1":424.9,"yT1":0,"xT2":1058.1,"yT2":0,"toosoon":0,"cond_shown":"equaldotanddens","ratio_trial":500,"smaller_num":"1","larger_num":"2","correct_side":2,"subjID":"LauraPuentes34","gender":"1","age":"9","school":"4","test":{"fix_dur":[250,1500],"timestim":300,"targets_dim":[100,100],"targets_relative_coord":[0.3,0.7],"size_stim":[880,420],"start_dim":[100,100],"size_start":[300,300],"size_fix":60,"samplingrate":20,"img_types":["equaldotsize","equaldotanddens","randomdotsizeEA"],"ratios":[250,500,750,900],"rep_conds":9,"nTrials":120,"trials_to_rest":500,"Trials_order":[64,10,92,100,35,28,42,109,36,5,91,107,116,47,82,32,38,108,39,37,98,77,62,114,48,110,54,18,118,53,26,33,70,105,29,12,23,52,103,45,88,74,20,57,112,59,81,14,78,94,69,8,93,104,21,79,40,56,27,61,9,49,60,99,34,65,50,76,72,51,11,16,19,84,31,115,71,63,3,97,86,15,66,1,111,46,90,24,117,87,80,30,106,113,89,4,101,85,6,68,25,58,0,67,95,44,83,22,119,55,43,75,2,96,102,7,17,41,13,73],"cond_shown":["equaldotanddens","equaldotanddens","randomdotsizeEA","equaldotanddens","randomdotsizeEA","equaldotanddens","equaldotsize","equaldotanddens","equaldotsize","randomdotsizeEA","equaldotanddens","randomdotsizeEA","randomdotsizeEA","randomdotsizeEA","equaldotanddens","randomdotsizeEA","randomdotsizeEA","equaldotsize","equaldotsize","equaldotanddens","randomdotsizeEA","randomdotsizeEA","randomdotsizeEA","equaldotsize","equaldotsize","randomdotsizeEA","equaldotsize","equaldotsize","equaldotanddens","randomdotsizeEA","randomdotsizeEA","equaldotsize","equaldotanddens","equaldotsize","randomdotsizeEA","equaldotsize","randomdotsizeEA","equaldotanddens","equaldotanddens","equaldotsize","equaldotanddens","randomdotsizeEA","randomdotsizeEA","equaldotsize","equaldotanddens","randomdotsizeEA","equaldotsize","randomdotsizeEA","equaldotsize","equaldotanddens","equaldotsize","randomdotsizeEA","equaldotsize","randomdotsizeEA","equaldotsize","equaldotanddens","equaldotanddens","randomdotsizeEA","equaldotsize","equaldotanddens","equaldotsize","equaldotanddens","equaldotsize","equaldotsize","equaldotanddens","randomdotsizeEA","randomdotsizeEA","equaldotanddens","equaldotsize","equaldotsize","randomdotsizeEA","equaldotanddens","equaldotanddens","equaldotsize","equaldotanddens","equaldotanddens","randomdotsizeEA","equaldotsize","equaldotsize","equaldotanddens","randomdotsizeEA","equaldotsize","equaldotsize","equaldotanddens","equaldotsize","equaldotanddens","equaldotsize","equaldotsize","equaldotsize","equaldotsize","randomdotsizeEA","equaldotsize","equaldotanddens","randomdotsizeEA","randomdotsizeEA","equaldotanddens","randomdotsizeEA","equaldotanddens","equaldotsize","randomdotsizeEA","equaldotanddens","equaldotanddens","equaldotsize","equaldotanddens","randomdotsizeEA","randomdotsizeEA","randomdotsizeEA","equaldotanddens","randomdotsizeEA","equaldotanddens","equaldotanddens","equaldotsize","randomdotsizeEA","equaldotsize","equaldotsize","equaldotanddens","randomdotsizeEA","randomdotsizeEA","equaldotanddens","equaldotanddens"],"ratio_trial":[500,900,750,500,900,500,750,250,250,500,750,900,750,900,900,750,250,250,500,250,250,500,250,750,250,250,750,750,900,500,250,900,900,900,500,250,900,500,750,900,500,250,750,900,500,900,900,250,750,900,900,750,900,750,900,750,500,750,500,250,900,250,250,500,900,500,250,500,250,500,900,500,750,250,750,750,900,500,500,250,250,500,750,250,500,900,750,250,900,500,750,750,900,500,500,500,500,250,750,750,250,900,250,750,900,750,900,900,900,750,750,500,250,250,750,750,500,500,250,250],"smaller_num":["1","18","6","9","9","5","6","3","3","1","12","9","3","9","18","3","5","1","2","2","2","9","3","6","6","4","9","18","9","2","4","18","18","9","1","6","18","4","3","18","2","3","6","18","1","18","18","5","15","18","9","15","18","18","9","3","5","15","2","6","18","3","2","2","9","5","4","6","1","6","18","2","9","3","3","15","9","9","5","1","2","10","15","2","4","18","18","5","18","9","15","6","9","1","1","9","2","3","3","6","2","18","5","3","18","3","9","9","9","15","3","1","3","2","12","3","2","1","4","3"],"larger_num":["2","20","8","18","10","10","8","12","12","2","16","10","4","10","20","4","20","4","4","8","8","18","12","8","24","16","12","24","10","4","16","20","20","10","2","24","20","8","4","20","4","12","8","20","2","20","20","20","20","20","10","20","20","24","10","4","10","20","4","24","20","12","8","4","10","10","16","12","4","12","20","4","12","12","4","20","10","18","10","4","8","20","20","8","8","20","24","20","20","18","20","8","10","2","2","18","4","12","4","8","8","20","20","4","20","4","10","10","10","20","4","2","12","8","16","4","4","2","16","12"],"correct_side":[2,1,1,1,2,1,1,2,1,2,2,2,2,2,2,2,2,2,1,1,1,2,2,1,2,1,2,1,2,2,1,1,2,2,2,1,1,1,1,2,2,2,1,1,2,2,1,2,1,1,2,2,1,1,1,2,2,2,1,2,2,2,1,2,2,1,1,1,2,1,1,1,2,2,2,2,2,2,1,2,2,2,1,1,1,2,1,2,2,2,1,1,2,2,2,2,1,2,2,1,1,2,2,1,1,2,2,1,1,2,2,2,1,1,2,2,1,2,2,2],"img_shown":["img/500/equaldotanddens/R/15_Ratio_500_L_1_R_2.png","img/900/equaldotanddens/L/4_Ratio_900_L_20_R_18.png","img/750/randomdotsizeEA/L/14_Ratio_750_L_8_R_6.png","img/500/equaldotanddens/L/4_Ratio_500_L_18_R_9.png","img/900/randomdotsizeEA/R/5_Ratio_900_L_9_R_10.png","img/500/equaldotanddens/L/7_Ratio_500_L_10_R_5.png","img/750/equaldotsize/L/14_Ratio_750_L_8_R_6.png","img/250/equaldotanddens/R/11_Ratio_250_L_3_R_12.png","img/250/equaldotsize/L/15_Ratio_250_L_12_R_3.png","img/500/randomdotsizeEA/R/15_Ratio_500_L_1_R_2.png","img/750/equaldotanddens/R/11_Ratio_750_L_12_R_16.png","img/900/randomdotsizeEA/R/7_Ratio_900_L_9_R_10.png","img/750/randomdotsizeEA/R/7_Ratio_750_L_3_R_4.png","img/900/randomdotsizeEA/R/3_Ratio_900_L_9_R_10.png","img/900/equaldotanddens/R/9_Ratio_900_L_18_R_20.png","img/750/randomdotsizeEA/R/12_Ratio_750_L_3_R_4.png","img/250/randomdotsizeEA/R/12_Ratio_250_L_5_R_20.png","img/250/equaldotsize/R/8_Ratio_250_L_1_R_4.png","img/500/equaldotsize/L/5_Ratio_500_L_4_R_2.png","img/250/equaldotanddens/L/1_Ratio_250_L_8_R_2.png","img/250/randomdotsizeEA/L/7_Ratio_250_L_8_R_2.png","img/500/randomdotsizeEA/R/6_Ratio_500_L_9_R_18.png","img/250/randomdotsizeEA/R/9_Ratio_250_L_3_R_12.png","img/750/equaldotsize/L/14_Ratio_750_L_8_R_6.png","img/250/equaldotsize/R/6_Ratio_250_L_6_R_24.png","img/250/randomdotsizeEA/L/2_Ratio_250_L_16_R_4.png","img/750/equaldotsize/R/15_Ratio_750_L_9_R_12.png","img/750/equaldotsize/L/6_Ratio_750_L_24_R_18.png","img/900/equaldotanddens/R/15_Ratio_900_L_9_R_10.png","img/500/randomdotsizeEA/R/9_Ratio_500_L_2_R_4.png","img/250/randomdotsizeEA/L/2_Ratio_250_L_16_R_4.png","img/900/equaldotsize/L/4_Ratio_900_L_20_R_18.png","img/900/equaldotanddens/R/13_Ratio_900_L_18_R_20.png","img/900/equaldotsize/R/15_Ratio_900_L_9_R_10.png","img/500/randomdotsizeEA/R/15_Ratio_500_L_1_R_2.png","img/250/equaldotsize/L/5_Ratio_250_L_24_R_6.png","img/900/randomdotsizeEA/L/4_Ratio_900_L_20_R_18.png","img/500/equaldotanddens/L/8_Ratio_500_L_8_R_4.png","img/750/equaldotanddens/L/10_Ratio_750_L_4_R_3.png","img/900/equaldotsize/R/14_Ratio_900_L_18_R_20.png","img/500/equaldotanddens/R/9_Ratio_500_L_2_R_4.png","img/250/randomdotsizeEA/R/9_Ratio_250_L_3_R_12.png","img/750/randomdotsizeEA/L/14_Ratio_750_L_8_R_6.png","img/900/equaldotsize/L/2_Ratio_900_L_20_R_18.png","img/500/equaldotanddens/R/12_Ratio_500_L_1_R_2.png","img/900/randomdotsizeEA/R/12_Ratio_900_L_18_R_20.png","img/900/equaldotsize/L/8_Ratio_900_L_20_R_18.png","img/250/randomdotsizeEA/R/12_Ratio_250_L_5_R_20.png","img/750/equaldotsize/L/1_Ratio_750_L_20_R_15.png","img/900/equaldotanddens/L/4_Ratio_900_L_20_R_18.png","img/900/equaldotsize/R/6_Ratio_900_L_9_R_10.png","img/750/randomdotsizeEA/R/3_Ratio_750_L_15_R_20.png","img/900/equaldotsize/L/4_Ratio_900_L_20_R_18.png","img/750/randomdotsizeEA/L/6_Ratio_750_L_24_R_18.png","img/900/equaldotsize/L/1_Ratio_900_L_10_R_9.png","img/750/equaldotanddens/R/7_Ratio_750_L_3_R_4.png","img/500/equaldotanddens/R/14_Ratio_500_L_5_R_10.png","img/750/randomdotsizeEA/R/5_Ratio_750_L_15_R_20.png","img/500/equaldotsize/L/10_Ratio_500_L_4_R_2.png","img/250/equaldotanddens/R/6_Ratio_250_L_6_R_24.png","img/900/equaldotsize/R/12_Ratio_900_L_18_R_20.png","img/250/equaldotanddens/R/11_Ratio_250_L_3_R_12.png","img/250/equaldotsize/L/7_Ratio_250_L_8_R_2.png","img/500/equaldotsize/R/9_Ratio_500_L_2_R_4.png","img/900/equaldotanddens/R/5_Ratio_900_L_9_R_10.png","img/500/randomdotsizeEA/L/7_Ratio_500_L_10_R_5.png","img/250/randomdotsizeEA/L/2_Ratio_250_L_16_R_4.png","img/500/equaldotanddens/L/13_Ratio_500_L_12_R_6.png","img/250/equaldotsize/R/8_Ratio_250_L_1_R_4.png","img/500/equaldotsize/L/11_Ratio_500_L_12_R_6.png","img/900/randomdotsizeEA/L/8_Ratio_900_L_20_R_18.png","img/500/equaldotanddens/L/10_Ratio_500_L_4_R_2.png","img/750/equaldotanddens/R/15_Ratio_750_L_9_R_12.png","img/250/equaldotsize/R/4_Ratio_250_L_3_R_12.png","img/750/equaldotanddens/R/7_Ratio_750_L_3_R_4.png","img/750/equaldotanddens/R/5_Ratio_750_L_15_R_20.png","img/900/randomdotsizeEA/R/3_Ratio_900_L_9_R_10.png","img/500/equaldotsize/R/1_Ratio_500_L_9_R_18.png","img/500/equaldotsize/L/7_Ratio_500_L_10_R_5.png","img/250/equaldotanddens/R/8_Ratio_250_L_1_R_4.png","img/250/randomdotsizeEA/R/13_Ratio_250_L_2_R_8.png","img/500/equaldotsize/R/3_Ratio_500_L_10_R_20.png","img/750/equaldotsize/L/1_Ratio_750_L_20_R_15.png","img/250/equaldotanddens/L/1_Ratio_250_L_8_R_2.png","img/500/equaldotsize/L/8_Ratio_500_L_8_R_4.png","img/900/equaldotanddens/R/14_Ratio_900_L_18_R_20.png","img/750/equaldotsize/L/6_Ratio_750_L_24_R_18.png","img/250/equaldotsize/R/12_Ratio_250_L_5_R_20.png","img/900/equaldotsize/R/11_Ratio_900_L_18_R_20.png","img/500/equaldotsize/R/1_Ratio_500_L_9_R_18.png","img/750/randomdotsizeEA/L/1_Ratio_750_L_20_R_15.png","img/750/equaldotsize/L/14_Ratio_750_L_8_R_6.png","img/900/equaldotanddens/R/6_Ratio_900_L_9_R_10.png","img/500/randomdotsizeEA/R/15_Ratio_500_L_1_R_2.png","img/500/randomdotsizeEA/R/12_Ratio_500_L_1_R_2.png","img/500/equaldotanddens/R/6_Ratio_500_L_9_R_18.png","img/500/randomdotsizeEA/L/10_Ratio_500_L_4_R_2.png","img/250/equaldotanddens/R/9_Ratio_250_L_3_R_12.png","img/750/equaldotsize/R/12_Ratio_750_L_3_R_4.png","img/750/randomdotsizeEA/L/14_Ratio_750_L_8_R_6.png","img/250/equaldotanddens/L/7_Ratio_250_L_8_R_2.png","img/900/equaldotanddens/R/13_Ratio_900_L_18_R_20.png","img/250/equaldotsize/R/12_Ratio_250_L_5_R_20.png","img/750/equaldotanddens/L/8_Ratio_750_L_4_R_3.png","img/900/randomdotsizeEA/L/2_Ratio_900_L_20_R_18.png","img/750/randomdotsizeEA/R/7_Ratio_750_L_3_R_4.png","img/900/randomdotsizeEA/R/15_Ratio_900_L_9_R_10.png","img/900/equaldotanddens/L/1_Ratio_900_L_10_R_9.png","img/900/randomdotsizeEA/L/1_Ratio_900_L_10_R_9.png","img/750/equaldotanddens/R/4_Ratio_750_L_15_R_20.png","img/750/equaldotanddens/R/12_Ratio_750_L_3_R_4.png","img/500/equaldotsize/R/15_Ratio_500_L_1_R_2.png","img/250/randomdotsizeEA/L/15_Ratio_250_L_12_R_3.png","img/250/equaldotsize/L/1_Ratio_250_L_8_R_2.png","img/750/equaldotsize/R/11_Ratio_750_L_12_R_16.png","img/750/equaldotanddens/R/7_Ratio_750_L_3_R_4.png","img/500/randomdotsizeEA/L/10_Ratio_500_L_4_R_2.png","img/500/randomdotsizeEA/R/15_Ratio_500_L_1_R_2.png","img/250/equaldotanddens/R/10_Ratio_250_L_4_R_16.png","img/250/equaldotanddens/R/9_Ratio_250_L_3_R_12.png"],"Rat0":[["12_Ratio_0_L_9_R_0.png","13_Ratio_0_L_6_R_0.png","5_Ratio_0_L_2_R_0.png","6_Ratio_0_L_4_R_0.png","8_Ratio_0_L_6_R_0.png"],["1_Ratio_0_L_0_R_17.png","10_Ratio_0_L_0_R_22.png","11_Ratio_0_L_0_R_1.png","14_Ratio_0_L_0_R_24.png","15_Ratio_0_L_0_R_4.png","2_Ratio_0_L_0_R_5.png","3_Ratio_0_L_0_R_17.png","4_Ratio_0_L_0_R_7.png","7_Ratio_0_L_0_R_19.png","9_Ratio_0_L_0_R_15.png"]],"Rat250":[["1_Ratio_250_L_8_R_2.png","14_Ratio_250_L_12_R_3.png","15_Ratio_250_L_12_R_3.png","2_Ratio_250_L_16_R_4.png","3_Ratio_250_L_8_R_2.png","5_Ratio_250_L_24_R_6.png","7_Ratio_250_L_8_R_2.png"],["10_Ratio_250_L_4_R_16.png","11_Ratio_250_L_3_R_12.png","12_Ratio_250_L_5_R_20.png","13_Ratio_250_L_2_R_8.png","4_Ratio_250_L_3_R_12.png","6_Ratio_250_L_6_R_24.png","8_Ratio_250_L_1_R_4.png","9_Ratio_250_L_3_R_12.png"]],"Rat500":[["10_Ratio_500_L_4_R_2.png","11_Ratio_500_L_12_R_6.png","13_Ratio_500_L_12_R_6.png","4_Ratio_500_L_18_R_9.png","5_Ratio_500_L_4_R_2.png","7_Ratio_500_L_10_R_5.png","8_Ratio_500_L_8_R_4.png"],["1_Ratio_500_L_9_R_18.png","12_Ratio_500_L_1_R_2.png","14_Ratio_500_L_5_R_10.png","15_Ratio_500_L_1_R_2.png","2_Ratio_500_L_3_R_6.png","3_Ratio_500_L_10_R_20.png","6_Ratio_500_L_9_R_18.png","9_Ratio_500_L_2_R_4.png"]],"Rat750":[["1_Ratio_750_L_20_R_15.png","10_Ratio_750_L_4_R_3.png","13_Ratio_750_L_8_R_6.png","14_Ratio_750_L_8_R_6.png","6_Ratio_750_L_24_R_18.png","8_Ratio_750_L_4_R_3.png","9_Ratio_750_L_4_R_3.png"],["11_Ratio_750_L_12_R_16.png","12_Ratio_750_L_3_R_4.png","15_Ratio_750_L_9_R_12.png","2_Ratio_750_L_6_R_8.png","3_Ratio_750_L_15_R_20.png","4_Ratio_750_L_15_R_20.png","5_Ratio_750_L_15_R_20.png","7_Ratio_750_L_3_R_4.png"]],"Rat900":[["1_Ratio_900_L_10_R_9.png","10_Ratio_900_L_20_R_18.png","2_Ratio_900_L_20_R_18.png","4_Ratio_900_L_20_R_18.png","8_Ratio_900_L_20_R_18.png"],["11_Ratio_900_L_18_R_20.png","12_Ratio_900_L_18_R_20.png","13_Ratio_900_L_18_R_20.png","14_Ratio_900_L_18_R_20.png","15_Ratio_900_L_9_R_10.png","3_Ratio_900_L_9_R_10.png","5_Ratio_900_L_9_R_10.png","6_Ratio_900_L_9_R_10.png","7_Ratio_900_L_9_R_10.png","9_Ratio_900_L_18_R_20.png"]],"Rat1000":[["10_Ratio_1000_L_16_R_16.png","11_Ratio_1000_L_6_R_6.png","12_Ratio_1000_L_14_R_14.png","13_Ratio_1000_L_20_R_20.png","15_Ratio_1000_L_15_R_15.png","2_Ratio_1000_L_17_R_17.png","4_Ratio_1000_L_9_R_9.png","5_Ratio_1000_L_6_R_6.png","6_Ratio_1000_L_19_R_19.png","8_Ratio_1000_L_14_R_14.png","9_Ratio_1000_L_25_R_25.png"],["1_Ratio_1000_L_1_R_1.png","14_Ratio_1000_L_17_R_17.png","3_Ratio_1000_L_17_R_17.png","7_Ratio_1000_L_6_R_6.png"]]}},{"start_time":1552069854584,"click_time":1552069856503,"finger_time":1552069855482,"fix_duration":862.387937909419,"trial":1,"RT":898,"MT":1021,"sideResp":2,"stimulus":"img/900/equaldotanddens/L/4_Ratio_900_L_20_R_18.png","xmouse":[792,792,792,792,792,792,792,792,792,792,792,792,792,792,792,792,792,792,792,792,792,792,792,792,792,792,792,792,792,792,792,792,792,791,791,791,791,791,791,791,791,791,791,791,796,806,805,766,748,738,737,737,736,740,743,745,745,733,728,723,720,720,719,719,719,718,718,717,717,717,717,717,717,717,717,717,717,723,738,756,780,810,893,957,1052,1079,1119,1131,1131,1131,1131,1131,1131,1131,1131,1128],"ymouse":[607,607,607,607,607,607,607,607,607,607,607,607,607,607,607,607,607,607,607,607,607,607,607,607,607,607,607,607,607,607,607,607,607,606,603,602,600,598,597,596,596,596,591,578,552,515,459,361,303,251,221,204,188,178,168,154,142,94,81,71,66,66,65,65,65,65,65,65,65,65,65,65,65,65,65,65,65,65,65,65,67,72,84,89,99,104,108,108,108,108,107,106,106,105,102,98],"timestamp_mouse":[19,38,58,78,98,117,137,158,177,197,217,237,257,277,297,317,337,358,377,397,417,437,457,478,497,519,538,558,579,597,617,638,658,677,697,718,738,757,777,797,818,837,857,878,898,917,938,957,978,997,1019,1038,1057,1078,1097,1117,1138,1158,1178,1197,1218,1238,1259,1277,1297,1317,1337,1358,1378,1397,1417,1437,1458,1478,1498,1518,1537,1557,1578,1597,1618,1638,1657,1678,1697,1717,1737,1758,1778,1798,1817,1838,1857,1878,1898,1919],"xSR":741.5,"ySR":573.95,"xT1":424.9,"yT1":0,"xT2":1058.1,"yT2":0,"toosoon":0,"cond_shown":"equaldotanddens","ratio_trial":900,"smaller_num":"18","larger_num":"20","correct_side":1,"subjID":"LauraPuentes34","gender":"1","age":"9","school":"4"},{"start_time":1552069861651,"click_time":1552069864182,"finger_time":1552069862942,"fix_duration":1209.6563742519259,"trial":2,"RT":1291,"MT":1240,"sideResp":1,"stimulus":"img/750/randomdotsizeEA/L/14_Ratio_750_L_8_R_6.png","xmouse":[796,796,796,796,796,796,796,796,796,796,796,796,796,796,796,796,796,796,796,796,796,796,796,796,796,796,796,796,796,796,796,796,796,796,796,796,796,796,796,796,796,796,796,796,796,796,796,796,796,796,796,796,796,796,796,796,796,796,796,796,796,796,796,802,813,818,822,824,826,826,826,799,780,770,772,781,792,800,803,803,803,803,803,798,795,795,795,794,794,794,794,794,794,794,794,794,794,793,792,791,786,782,776,768,758,735,724,711,700,693,678,674,672,669,665,652,641,628,610,603,590,586,582,573,560,528,515],"ymouse":[609,609,609,609,609,609,609,609,609,609,609,609,609,609,609,609,609,609,609,609,609,609,609,609,609,609,609,609,609,609,609,609,609,609,609,609,609,609,609,609,609,609,609,609,609,609,609,609,609,609,609,609,609,609,609,609,609,609,609,609,609,609,609,598,571,546,519,481,418,271,208,115,78,57,34,26,16,9,2,0,0,0,0,0,0,0,0,0,0,0,0,0,0,1,1,1,1,1,1,1,3,5,6,8,12,17,19,21,23,24,24,24,24,24,24,24,24,24,24,25,28,30,30,33,37,43,45],"timestamp_mouse":[10,42,50,70,91,111,130,152,172,191,210,231,250,270,292,311,332,351,371,390,410,431,452,470,490,510,531,551,570,590,610,630,650,671,690,711,731,750,771,790,811,832,851,871,891,912,931,951,971,991,1012,1030,1050,1072,1090,1111,1131,1151,1170,1192,1210,1232,1252,1271,1291,1310,1332,1352,1372,1392,1410,1432,1450,1470,1492,1511,1530,1551,1571,1591,1611,1631,1651,1670,1691,1710,1732,1751,1772,1792,1811,1832,1850,1871,1892,1912,1931,1950,1970,1991,2011,2030,2051,2071,2090,2111,2131,2151,2171,2191,2211,2231,2250,2271,2290,2310,2332,2351,2370,2391,2411,2431,2450,2471,2490,2511,2531],"xSR":741.5,"ySR":573.95,"xT1":424.9,"yT1":0,"xT2":1058.1,"yT2":0,"toosoon":0,"cond_shown":"randomdotsizeEA","ratio_trial":750,"smaller_num":"6","larger_num":"8","correct_side":1,"subjID":"LauraPuentes34","gender":"1","age":"9","school":"4"},{"start_time":1552069867065,"click_time":1552069868282,"finger_time":1552069867881,"fix_duration":542.3042190853466,"trial":3,"RT":816,"MT":401,"sideResp":1,"stimulus":"img/500/equaldotanddens/L/4_Ratio_500_L_18_R_9.png","xmouse":[753,753,753,753,753,753,753,753,753,753,753,753,753,753,753,753,753,753,753,753,753,753,753,753,753,753,753,753,753,753,753,753,753,753,753,753,753,753,753,753,753,756,761,767,776,774,772,769,765,751,737,719,696,667,620,591,577,565,552,528,517],"ymouse":[620,620,620,620,620,620,620,620,620,620,620,620,620,620,620,620,620,620,620,620,620,620,620,620,620,620,620,620,620,620,620,620,620,620,620,620,620,615,612,583,561,526,485,444,300,261,247,234,222,193,173,152,127,101,68,53,47,44,41,36,35],"timestamp_mouse":[18,37,56,76,96,116,136,156,176,196,216,236,256,276,296,316,336,357,376,396,416,436,456,476,496,516,536,556,576,596,616,636,657,676,696,716,736,756,776,796,816,837,857,877,896,916,936,956,976,997,1016,1037,1056,1076,1096,1116,1136,1156,1176,1197,1217],"xSR":741.5,"ySR":573.95,"xT1":424.9,"yT1":0,"xT2":1058.1,"yT2":0,"toosoon":0,"cond_shown":"equaldotanddens","ratio_trial":500,"smaller_num":"9","larger_num":"18","correct_side":1,"subjID":"LauraPuentes34","gender":"1","age":"9","school":"4"},{"start_time":1552069870298,"click_time":1552069871982,"finger_time":1552069871142,"fix_duration":1035.7182265044287,"trial":4,"RT":844,"MT":840,"sideResp":1,"stimulus":"img/900/randomdotsizeEA/R/5_Ratio_900_L_9_R_10.png","xmouse":[819,819,819,819,819,819,819,819,819,819,819,819,819,819,819,819,819,819,819,819,819,819,819,819,819,819,819,819,819,819,819,819,819,819,819,819,819,819,819,819,821,823,825,825,819,769,720,687,660,655,652,649,645,641,631,626,625,624,624,624,623,628,638,662,671,674,675,676,677,677,677,677,677,676,676,673,669,660,630,609,588,568,549,533,515],"ymouse":[612,612,612,612,612,612,612,612,612,612,612,612,612,612,612,612,612,612,612,612,612,612,612,612,612,612,612,612,612,612,612,612,612,612,612,612,612,612,612,612,605,586,520,355,277,145,75,37,6,0,0,0,0,0,0,0,0,0,0,0,1,13,30,60,64,64,64,64,61,58,55,54,54,54,54,53,53,52,52,52,52,52,52,52,52],"timestamp_mouse":[10,24,46,64,83,104,124,143,163,185,204,224,243,263,283,305,323,343,364,384,404,424,445,465,484,504,523,545,565,583,604,625,644,664,684,704,724,743,764,785,804,824,844,864,883,904,924,944,964,984,1003,1025,1044,1065,1085,1104,1124,1144,1164,1183,1203,1223,1244,1267,1283,1304,1324,1343,1366,1384,1404,1424,1444,1465,1483,1504,1525,1543,1565,1583,1604,1624,1644,1664,1684],"xSR":741.5,"ySR":573.95,"xT1":424.9,"yT1":0,"xT2":1058.1,"yT2":0,"toosoon":0,"cond_shown":"randomdotsizeEA","ratio_trial":900,"smaller_num":"9","larger_num":"10","correct_side":2,"subjID":"LauraPuentes34","gender":"1","age":"9","school":"4"},{"start_time":1552069874448,"click_time":1552069875822,"finger_time":1552069875261,"fix_duration":1324.860523215374,"trial":5,"RT":813,"MT":561,"sideResp":1,"stimulus":"img/500/equaldotanddens/L/7_Ratio_500_L_10_R_5.png","xmouse":[809,809,809,809,809,809,809,809,809,809,809,809,809,809,809,809,808,808,807,807,807,807,807,807,807,807,807,807,807,807,807,807,807,807,807,807,807,807,805,804,798,771,756,736,732,723,716,709,704,698,689,675,671,667,666,666,665,661,654,643,633,614,603,592,582,564,543,532,517],"ymouse":[609,609,609,609,609,609,609,609,609,609,609,609,609,609,609,609,608,608,608,608,608,608,608,608,608,608,608,608,608,608,608,608,608,608,608,608,608,608,600,590,563,467,411,320,294,217,141,120,105,92,75,50,43,38,37,37,37,37,37,38,38,38,35,32,29,27,30,34,40],"timestamp_mouse":[14,38,54,74,93,114,135,154,173,194,214,233,254,273,293,313,334,354,373,393,413,434,455,474,493,514,534,554,574,595,614,634,654,674,694,713,733,753,774,794,813,833,854,874,895,913,933,954,973,994,1014,1034,1053,1073,1093,1115,1133,1153,1173,1194,1213,1233,1253,1275,1295,1314,1334,1354,1373],"xSR":741.5,"ySR":573.95,"xT1":424.9,"yT1":0,"xT2":1058.1,"yT2":0,"toosoon":0,"cond_shown":"equaldotanddens","ratio_trial":500,"smaller_num":"5","larger_num":"10","correct_side":1,"subjID":"LauraPuentes34","gender":"1","age":"9","school":"4"},{"start_time":1552069884548,"click_time":1552069886022,"finger_time":1552069885261,"fix_duration":424.7310787514116,"trial":6,"RT":713,"MT":761,"sideResp":1,"stimulus":"img/750/equaldotsize/L/14_Ratio_750_L_8_R_6.png","xmouse":[799,799,799,799,799,799,799,799,799,799,799,799,799,799,799,799,799,799,799,799,799,799,799,799,799,799,799,799,799,799,799,799,799,799,799,799,797,787,782,781,773,753,679,649,637,628,625,625,625,626,629,630,630,630,630,630,630,627,618,611,603,598,593,592,588,584,578,570,567,563,558,551,532,520],"ymouse":[591,591,591,591,591,591,591,591,591,591,591,591,591,591,591,591,591,591,591,591,591,591,591,591,591,591,591,591,591,591,591,591,591,584,576,561,526,464,428,384,329,253,61,17,0,0,0,0,0,0,0,0,0,0,0,0,0,2,9,16,21,24,27,27,29,30,32,32,32,32,32,32,32,32],"timestamp_mouse":[15,51,53,74,94,114,133,153,173,195,215,234,254,274,295,314,335,354,374,395,415,434,453,475,494,515,534,554,575,595,614,634,654,675,694,713,735,754,774,794,814,835,854,875,894,914,934,954,974,993,1013,1033,1053,1074,1094,1114,1134,1154,1174,1194,1214,1236,1254,1274,1293,1314,1334,1353,1374,1394,1415,1435,1455,1474],"xSR":741.5,"ySR":573.95,"xT1":424.9,"yT1":0,"xT2":1058.1,"yT2":0,"toosoon":0,"cond_shown":"equaldotsize","ratio_trial":750,"smaller_num":"6","larger_num":"8","correct_side":1,"subjID":"LauraPuentes34","gender":"1","age":"9","school":"4"},{"start_time":1552069888600,"click_time":1552069889922,"finger_time":1552069889262,"fix_duration":1476.1226627217704,"trial":7,"RT":662,"MT":660,"sideResp":2,"stimulus":"img/250/equaldotanddens/R/11_Ratio_250_L_3_R_12.png","xmouse":[777,777,777,777,777,777,777,777,777,777,777,777,777,777,777,777,777,777,777,777,777,777,777,777,777,777,777,777,777,777,777,777,784,791,799,805,819,819,819,819,832,841,846,851,857,862,868,871,875,876,879,882,885,887,894,902,920,929,937,948,954,958,961,967,981,1033,1076],"ymouse":[612,612,612,612,612,612,612,612,612,612,612,612,612,612,612,612,612,612,612,612,612,612,612,612,612,612,612,612,612,612,612,610,593,572,548,520,396,333,287,240,158,140,130,124,121,120,118,117,116,115,113,110,107,105,99,96,90,87,83,78,76,74,73,73,72,72,72],"timestamp_mouse":[14,25,41,61,81,101,122,142,162,182,202,223,243,262,283,302,322,341,362,383,401,421,443,461,483,503,522,543,563,583,602,623,641,662,683,702,722,742,761,782,803,822,842,861,882,903,922,942,962,982,1003,1022,1043,1062,1082,1101,1122,1143,1162,1182,1203,1222,1243,1263,1283,1303,1322],"xSR":741.5,"ySR":573.95,"xT1":424.9,"yT1":0,"xT2":1058.1,"yT2":0,"toosoon":0,"cond_shown":"equaldotanddens","ratio_trial":250,"smaller_num":"3","larger_num":"12","correct_side":2,"subjID":"LauraPuentes34","gender":"1","age":"9","school":"4"},{"start_time":1552069891862,"click_time":1552069892783,"finger_time":1552069892543,"fix_duration":1117.370197412127,"trial":8,"RT":681,"MT":240,"sideResp":1,"stimulus":"img/250/equaldotsize/L/15_Ratio_250_L_12_R_3.png","xmouse":[797,797,797,797,797,797,797,797,797,797,797,797,797,797,797,797,797,797,797,797,797,797,797,797,797,797,797,797,797,797,797,797,798,804,804,794,783,722,603,559,530,518,513,512,512,511,509],"ymouse":[646,646,645,645,645,645,645,645,645,645,645,645,645,645,645,645,645,645,645,645,645,645,645,645,645,645,645,645,645,645,640,636,624,586,559,493,467,380,252,201,162,146,136,117,109,100,91],"timestamp_mouse":[9,20,40,59,80,100,120,139,160,181,201,220,239,261,281,300,321,340,360,380,399,421,441,459,480,501,519,541,560,579,601,620,641,659,681,701,719,740,760,780,801,820,840,860,879,900,921],"xSR":741.5,"ySR":573.95,"xT1":424.9,"yT1":0,"xT2":1058.1,"yT2":0,"toosoon":0,"cond_shown":"equaldotsize","ratio_trial":250,"smaller_num":"3","larger_num":"12","correct_side":1,"subjID":"LauraPuentes34","gender":"1","age":"9","school":"4"},{"start_time":1552069895372,"click_time":1552069897202,"finger_time":1552069896002,"fix_duration":1249.8122267955114,"trial":9,"RT":630,"MT":1200,"sideResp":2,"stimulus":"img/500/randomdotsizeEA/R/15_Ratio_500_L_1_R_2.png","xmouse":[794,793,792,792,792,792,792,792,792,792,792,792,792,792,791,791,791,791,791,791,791,791,791,791,791,791,791,791,791,791,791,788,774,758,740,721,703,680,670,663,658,655,651,649,647,645,645,645,645,646,652,661,688,701,714,727,737,757,769,790,809,828,855,860,863,867,873,887,897,907,911,916,936,951,968,982,994,1000,1000,1000,1000,1000,1000,1000,1000,1000,1000,1000,1004,1031,1056,1080],"ymouse":[642,642,643,643,643,643,643,643,643,643,643,643,643,643,643,643,643,643,643,643,643,643,643,643,643,643,643,637,621,604,580,553,477,437,406,371,344,299,280,249,228,213,195,190,185,182,181,181,180,178,177,174,167,165,163,160,158,150,146,136,127,120,107,105,102,98,94,85,82,77,75,72,59,48,40,34,30,29,29,29,29,29,29,29,29,29,29,29,29,33,37,40],"timestamp_mouse":[11,30,51,71,89,110,130,149,170,190,209,231,250,269,289,310,331,349,370,390,410,430,451,469,491,510,531,550,569,590,609,630,650,670,690,711,729,751,769,789,809,830,850,870,890,909,930,950,971,991,1010,1030,1049,1071,1090,1111,1129,1150,1171,1191,1209,1229,1250,1270,1290,1310,1331,1350,1371,1389,1410,1431,1450,1470,1490,1510,1529,1550,1571,1589,1611,1629,1651,1670,1691,1710,1730,1749,1769,1790,1810,1830],"xSR":741.5,"ySR":573.95,"xT1":424.9,"yT1":0,"xT2":1058.1,"yT2":0,"toosoon":0,"cond_shown":"randomdotsizeEA","ratio_trial":500,"smaller_num":"1","larger_num":"2","correct_side":2,"subjID":"LauraPuentes34","gender":"1","age":"9","school":"4"},{"start_time":1552069898808,"click_time":1552069900182,"finger_time":1552069899402,"fix_duration":644.7708648350986,"trial":10,"RT":594,"MT":780,"sideResp":2,"stimulus":"img/750/equaldotanddens/R/11_Ratio_750_L_12_R_16.png","xmouse":[790,790,790,790,790,790,790,790,790,790,790,790,790,790,790,790,790,790,790,790,790,790,790,790,790,790,790,790,790,790,788,773,771,771,771,772,778,780,782,782,784,784,784,786,787,793,800,807,816,827,836,847,848,849,851,867,886,895,904,910,918,937,943,952,964,1008,1029,1054,1079],"ymouse":[622,622,622,622,622,622,622,622,622,622,622,622,622,622,622,622,622,622,622,622,622,622,622,622,622,622,614,604,587,569,540,447,423,404,388,372,326,307,288,270,249,207,187,172,159,144,135,130,125,120,116,112,111,110,108,101,93,88,83,81,78,76,73,71,69,62,58,55,52],"timestamp_mouse":[15,41,54,75,93,113,135,155,175,193,214,235,255,274,294,314,334,355,374,393,413,434,453,473,494,513,534,554,575,594,614,634,653,675,694,714,735,754,774,793,814,834,854,874,895,915,933,955,974,995,1014,1035,1055,1073,1094,1115,1134,1153,1174,1194,1214,1234,1254,1274,1293,1315,1334,1354,1374],"xSR":741.5,"ySR":573.95,"xT1":424.9,"yT1":0,"xT2":1058.1,"yT2":0,"toosoon":0,"cond_shown":"equaldotanddens","ratio_trial":750,"smaller_num":"12","larger_num":"16","correct_side":2,"subjID":"LauraPuentes34","gender":"1","age":"9","school":"4"},{"start_time":1552069903645,"click_time":1552069905062,"finger_time":1552069904361,"fix_duration":981.0810924804401,"trial":11,"RT":716,"MT":701,"sideResp":2,"stimulus":"img/900/randomdotsizeEA/R/7_Ratio_900_L_9_R_10.png","xmouse":[763,763,763,763,763,763,763,763,763,763,763,763,763,763,763,763,763,763,763,763,763,763,763,763,763,763,763,763,763,763,763,763,763,763,763,763,759,759,764,796,817,834,850,858,870,875,877,884,892,922,952,961,977,996,1010,1013,1016,1017,1019,1020,1022,1024,1027,1028,1033,1037,1040,1042,1044,1050,1071],"ymouse":[624,624,624,624,624,624,624,624,624,624,624,624,624,624,624,624,624,624,624,624,624,624,624,624,624,624,624,624,624,624,624,624,624,618,581,545,507,471,431,319,278,249,225,217,210,208,208,202,193,163,129,119,99,73,49,40,35,31,29,28,28,27,26,26,25,24,24,23,23,22,21],"timestamp_mouse":[17,43,56,76,96,117,137,157,177,197,216,236,256,278,298,318,337,358,376,396,416,436,458,477,496,518,537,558,577,597,618,638,657,677,697,716,737,757,777,797,817,837,857,877,896,916,937,957,978,997,1016,1037,1056,1076,1097,1118,1138,1158,1178,1197,1217,1238,1257,1277,1297,1318,1337,1356,1377,1397,1416],"xSR":741.5,"ySR":573.95,"xT1":424.9,"yT1":0,"xT2":1058.1,"yT2":0,"toosoon":0,"cond_shown":"randomdotsizeEA","ratio_trial":900,"smaller_num":"9","larger_num":"10","correct_side":2,"subjID":"LauraPuentes34","gender":"1","age":"9","school":"4"},{"start_time":1552069908158,"click_time":1552069909782,"finger_time":1552069908682,"fix_duration":932.1378592451501,"trial":12,"RT":524,"MT":1100,"sideResp":2,"stimulus":"img/750/randomdotsizeEA/R/7_Ratio_750_L_3_R_4.png","xmouse":[800,800,800,800,800,800,800,800,800,800,800,800,800,800,800,800,800,800,800,800,800,800,800,800,800,799,795,787,779,769,759,758,758,763,772,772,772,771,770,770,770,768,767,766,761,761,761,762,766,771,771,771,771,771,776,781,785,789,793,797,802,804,804,804,806,816,829,842,851,875,888,906,925,943,965,981,993,1006,1019,1029,1050,1061],"ymouse":[619,619,619,619,619,619,619,619,619,619,619,619,619,619,619,619,619,619,619,619,619,619,619,619,617,582,565,546,529,512,483,468,456,444,430,425,424,419,417,417,417,417,417,417,419,420,420,419,407,365,313,267,229,190,140,125,119,113,108,105,101,101,101,101,101,97,95,93,93,90,87,84,79,75,68,61,55,50,44,39,31,28],"timestamp_mouse":[14,24,43,65,84,104,125,143,164,184,205,224,245,264,284,303,324,344,364,384,405,425,444,464,483,505,524,544,563,583,604,624,644,664,685,704,724,745,765,785,804,825,844,864,884,903,923,944,964,985,1004,1025,1044,1065,1084,1103,1125,1143,1164,1184,1204,1225,1243,1263,1285,1304,1325,1345,1364,1384,1403,1424,1444,1464,1484,1504,1524,1543,1565,1584,1604,1624],"xSR":741.5,"ySR":573.95,"xT1":424.9,"yT1":0,"xT2":1058.1,"yT2":0,"toosoon":0,"cond_shown":"randomdotsizeEA","ratio_trial":750,"smaller_num":"3","larger_num":"4","correct_side":2,"subjID":"LauraPuentes34","gender":"1","age":"9","school":"4"},{"start_time":1552069916449,"click_time":1552069917662,"finger_time":1552069917022,"fix_duration":904.3916175852933,"trial":13,"RT":573,"MT":640,"sideResp":2,"stimulus":"img/900/randomdotsizeEA/R/3_Ratio_900_L_9_R_10.png","xmouse":[785,785,785,785,785,785,785,785,785,785,785,785,785,785,785,785,785,785,785,785,785,785,785,785,785,785,785,788,788,787,779,774,769,763,760,758,758,762,767,770,778,782,789,801,815,847,865,894,914,932,959,971,981,993,1008,1032,1043,1048,1053,1057,1066],"ymouse":[626,626,626,626,626,626,626,626,626,626,626,626,626,626,626,626,626,626,626,626,626,626,626,626,626,626,626,599,566,531,448,399,361,333,312,294,265,236,218,211,198,193,188,182,176,158,145,123,105,92,77,71,63,52,41,24,19,17,17,17,15],"timestamp_mouse":[13,36,53,72,93,114,133,152,174,194,213,234,253,273,293,313,333,354,373,394,413,434,453,473,493,513,534,553,573,593,613,633,654,673,694,713,733,752,773,792,813,833,853,873,894,913,933,953,973,993,1013,1033,1052,1073,1094,1113,1133,1154,1173,1194,1213],"xSR":741.5,"ySR":573.95,"xT1":424.9,"yT1":0,"xT2":1058.1,"yT2":0,"toosoon":0,"cond_shown":"randomdotsizeEA","ratio_trial":900,"smaller_num":"9","larger_num":"10","correct_side":2,"subjID":"LauraPuentes34","gender":"1","age":"9","school":"4"},{"start_time":1552069920782,"click_time":1552069922342,"finger_time":1552069921361,"fix_duration":717.8832107370836,"trial":14,"RT":579,"MT":981,"sideResp":2,"stimulus":"img/900/equaldotanddens/R/9_Ratio_900_L_18_R_20.png","xmouse":[782,782,782,781,780,779,779,779,779,779,779,779,779,779,779,779,779,779,779,780,784,785,785,785,785,785,785,785,785,785,785,785,785,785,786,786,786,786,786,786,786,781,778,775,773,774,774,775,777,782,792,801,815,826,835,839,842,843,845,848,853,863,868,874,881,888,904,913,922,928,943,948,954,963,972,997,1013,1044,1067],"ymouse":[609,609,609,610,615,617,617,617,617,617,617,617,617,617,617,617,617,617,616,602,585,583,583,583,583,583,583,583,574,557,515,490,460,427,398,354,352,343,337,331,323,297,279,262,252,247,247,246,246,246,246,243,239,237,234,232,232,231,230,229,227,223,220,218,214,209,196,184,173,166,150,146,141,134,129,107,94,71,57],"timestamp_mouse":[9,21,44,60,80,99,120,139,159,180,201,221,240,259,279,300,321,340,360,379,400,420,439,459,479,501,520,540,560,579,600,620,640,660,681,701,719,740,760,780,800,820,840,860,880,900,921,939,959,979,1000,1020,1040,1059,1080,1100,1120,1140,1160,1181,1200,1220,1240,1260,1281,1300,1321,1339,1359,1380,1400,1420,1440,1460,1480,1500,1519,1540,1560],"xSR":741.5,"ySR":573.95,"xT1":424.9,"yT1":0,"xT2":1058.1,"yT2":0,"toosoon":0,"cond_shown":"equaldotanddens","ratio_trial":900,"smaller_num":"18","larger_num":"20","correct_side":2,"subjID":"LauraPuentes34","gender":"1","age":"9","school":"4"},{"start_time":1552069925601,"click_time":1552069927423,"finger_time":1552069926243,"fix_duration":1376.3096782664882,"trial":15,"RT":642,"MT":1180,"sideResp":2,"stimulus":"img/750/randomdotsizeEA/R/12_Ratio_750_L_3_R_4.png","xmouse":[808,808,808,808,808,808,808,808,808,808,808,808,808,808,808,808,808,808,808,808,808,808,808,808,808,808,808,808,808,808,808,811,840,870,900,914,920,922,922,922,911,909,909,909,911,915,917,920,924,928,936,940,943,946,951,955,958,965,976,988,1004,1008,1009,1012,1014,1018,1020,1020,1021,1021,1023,1024,1025,1025,1025,1028,1032,1039,1044,1048,1049,1049,1049,1049,1049,1049,1049,1051,1054,1057,1058,1059],"ymouse":[605,605,605,605,605,605,605,605,605,605,605,605,605,605,605,605,605,605,605,605,605,605,605,605,605,605,605,605,605,605,605,590,513,435,344,241,195,150,124,109,73,61,53,44,31,18,14,12,11,10,8,6,5,5,3,3,1,0,0,0,0,0,0,0,0,0,0,0,0,0,0,0,0,0,0,0,4,9,12,15,16,16,16,16,16,16,16,19,22,24,24,24],"timestamp_mouse":[10,22,42,62,82,102,121,142,162,180,202,222,241,262,281,301,322,340,361,382,402,422,440,461,481,502,521,540,561,580,600,621,642,662,682,702,721,742,761,781,801,821,841,862,882,902,921,940,961,982,1001,1021,1042,1061,1081,1101,1121,1141,1162,1181,1202,1222,1241,1261,1281,1302,1320,1341,1360,1381,1402,1421,1441,1461,1481,1500,1522,1541,1562,1582,1600,1621,1641,1662,1681,1702,1721,1741,1761,1782,1801,1822],"xSR":741.5,"ySR":573.95,"xT1":424.9,"yT1":0,"xT2":1058.1,"yT2":0,"toosoon":0,"cond_shown":"randomdotsizeEA","ratio_trial":750,"smaller_num":"3","larger_num":"4","correct_side":2,"subjID":"LauraPuentes34","gender":"1","age":"9","school":"4"},{"start_time":1552069930262,"click_time":1552069931602,"finger_time":1552069930922,"fix_duration":1438.2774343689716,"trial":16,"RT":660,"MT":680,"sideResp":2,"stimulus":"img/250/randomdotsizeEA/R/12_Ratio_250_L_5_R_20.png","xmouse":[817,817,817,817,817,817,817,817,817,817,817,817,817,817,817,817,817,817,817,817,817,817,817,817,817,817,817,817,817,817,817,816,814,802,800,797,797,805,820,832,845,860,887,897,910,921,932,951,972,982,990,997,1006,1011,1015,1022,1028,1040,1047,1048,1048,1048,1049,1050,1050,1053,1057,1064],"ymouse":[628,628,628,628,628,628,628,628,628,628,628,628,628,628,628,628,628,628,628,628,628,628,628,628,628,628,628,628,628,628,628,620,603,531,511,490,463,406,369,352,333,317,296,289,278,265,241,197,137,99,73,51,25,18,14,12,10,8,7,7,7,7,7,7,7,7,9,12],"timestamp_mouse":[1,20,41,59,79,101,120,139,161,180,200,221,240,260,280,301,320,340,360,379,401,420,441,459,479,499,521,540,560,580,601,620,639,660,681,701,720,740,760,781,801,820,840,860,880,900,920,940,959,980,1000,1019,1040,1060,1080,1100,1119,1140,1159,1181,1201,1220,1240,1260,1279,1301,1320,1340],"xSR":741.5,"ySR":573.95,"xT1":424.9,"yT1":0,"xT2":1058.1,"yT2":0,"toosoon":0,"cond_shown":"randomdotsizeEA","ratio_trial":250,"smaller_num":"5","larger_num":"20","correct_side":2,"subjID":"LauraPuentes34","gender":"1","age":"9","school":"4"},{"start_time":1552069935351,"click_time":1552069937101,"finger_time":1552069936143,"fix_duration":1367.441782074428,"trial":17,"RT":792,"MT":958,"sideResp":2,"stimulus":"img/250/equaldotsize/R/8_Ratio_250_L_1_R_4.png","xmouse":[803,803,803,803,803,803,803,803,803,803,803,803,803,803,803,803,803,803,803,803,803,801,801,801,801,801,801,801,801,801,801,801,801,801,801,801,801,801,801,801,793,778,746,716,711,711,714,725,750,757,769,772,782,795,806,820,834,845,858,862,866,869,873,875,875,875,877,880,886,887,891,894,898,902,905,913,925,942,964,968,969,970,974,988,999,1015,1040,1066],"ymouse":[595,595,595,595,595,595,595,595,595,595,595,595,595,595,595,595,595,595,595,595,595,595,595,595,595,595,595,595,595,595,595,595,595,595,595,595,595,595,590,557,518,461,382,332,315,300,289,270,210,182,137,124,94,69,57,46,40,36,33,32,31,30,29,29,29,29,29,29,27,27,26,24,23,22,21,20,16,11,5,4,4,3,2,0,0,1,5,8],"timestamp_mouse":[12,32,52,70,90,111,132,151,172,191,210,232,251,270,290,311,330,351,372,391,412,431,452,472,491,510,532,552,571,591,610,631,652,672,691,710,732,751,771,792,811,831,852,871,891,911,932,952,971,991,1011,1031,1050,1070,1092,1111,1131,1151,1171,1190,1211,1231,1251,1271,1292,1311,1331,1351,1371,1391,1411,1431,1451,1471,1491,1511,1531,1551,1571,1592,1611,1632,1652,1673,1690,1712,1731,1750],"xSR":741.5,"ySR":573.95,"xT1":424.9,"yT1":0,"xT2":1058.1,"yT2":0,"toosoon":0,"cond_shown":"equaldotsize","ratio_trial":250,"smaller_num":"1","larger_num":"4","correct_side":2,"subjID":"LauraPuentes34","gender":"1","age":"9","school":"4"},{"start_time":1552069938069,"click_time":1552069939342,"finger_time":1552069938701,"fix_duration":264.01523860987453,"trial":18,"RT":632,"MT":641,"sideResp":1,"stimulus":"img/500/equaldotsize/L/5_Ratio_500_L_4_R_2.png","xmouse":[797,797,797,797,797,797,797,797,797,797,797,797,797,797,797,797,797,797,797,797,797,797,797,797,797,797,797,797,798,802,812,822,838,842,849,857,864,871,873,875,875,875,874,874,874,874,871,849,830,809,790,771,743,721,702,676,649,596,578,561,550,543,532,516],"ymouse":[659,659,659,659,659,659,659,659,659,659,659,659,659,659,659,659,659,659,659,659,659,659,659,659,659,659,659,658,657,648,597,529,412,343,222,154,115,65,49,35,28,20,12,12,12,12,11,14,20,26,36,44,53,60,64,68,72,78,78,78,76,74,70,65],"timestamp_mouse":[13,33,52,72,92,113,134,152,174,194,214,233,253,273,293,313,332,353,373,393,413,434,454,473,494,514,534,553,573,593,613,632,652,673,693,714,734,753,773,793,813,832,853,873,893,913,932,953,973,993,1014,1032,1053,1072,1092,1113,1133,1153,1173,1193,1214,1232,1253,1272],"xSR":741.5,"ySR":573.95,"xT1":424.9,"yT1":0,"xT2":1058.1,"yT2":0,"toosoon":0,"cond_shown":"equaldotsize","ratio_trial":500,"smaller_num":"2","larger_num":"4","correct_side":1,"subjID":"LauraPuentes34","gender":"1","age":"9","school":"4"},{"start_time":1552069942289,"click_time":1552069943262,"finger_time":1552069942942,"fix_duration":1425.2012246033373,"trial":19,"RT":653,"MT":320,"sideResp":1,"stimulus":"img/250/equaldotanddens/L/1_Ratio_250_L_8_R_2.png","xmouse":[805,805,805,805,805,805,805,805,805,805,805,805,805,805,805,805,805,805,805,805,805,805,805,805,805,805,805,805,805,805,805,805,785,772,755,738,677,649,634,625,623,623,623,623,623,620,599,570,515],"ymouse":[644,644,644,644,644,644,644,644,644,644,644,644,644,644,644,644,644,644,644,644,644,644,644,644,644,644,644,644,644,642,631,590,490,449,411,371,274,239,222,211,206,206,206,206,199,187,154,124,83],"timestamp_mouse":[13,43,54,73,94,112,134,153,172,193,213,233,254,274,293,312,332,353,373,392,414,432,452,473,494,513,534,553,573,593,612,632,653,673,693,713,734,753,772,792,812,833,852,872,893,913,934,953,973],"xSR":741.5,"ySR":573.95,"xT1":424.9,"yT1":0,"xT2":1058.1,"yT2":0,"toosoon":0,"cond_shown":"equaldotanddens","ratio_trial":250,"smaller_num":"2","larger_num":"8","correct_side":1,"subjID":"LauraPuentes34","gender":"1","age":"9","school":"4"},{"start_time":1552069945543,"click_time":1552069947082,"finger_time":1552069946142,"fix_duration":1199.9808086531443,"trial":20,"RT":599,"MT":940,"sideResp":1,"stimulus":"img/250/randomdotsizeEA/L/7_Ratio_250_L_8_R_2.png","xmouse":[796,796,796,796,796,796,796,796,796,796,796,796,796,796,796,796,796,796,796,796,796,796,796,796,796,796,796,796,797,799,829,850,867,889,908,933,943,957,970,983,1010,1018,1019,1019,1020,1020,1020,1020,1020,1020,1020,1020,1020,1020,1012,1004,989,969,945,914,821,771,733,710,696,684,684,684,684,683,666,650,633,614,593,563,547,523],"ymouse":[616,616,616,616,616,616,616,616,616,616,616,616,616,616,616,616,616,616,616,616,616,616,616,616,616,616,616,616,616,615,563,472,384,303,240,181,163,144,130,119,108,104,104,104,104,104,104,104,104,104,104,104,104,104,106,107,111,110,105,101,87,80,75,67,63,59,59,59,59,59,60,61,62,62,62,62,62,62],"timestamp_mouse":[6,19,40,58,78,98,118,138,158,178,199,218,240,259,279,300,319,338,359,380,400,418,439,458,479,500,518,540,559,579,599,619,638,659,678,698,719,739,759,779,799,818,838,858,878,899,920,939,958,979,999,1018,1039,1059,1079,1099,1120,1138,1159,1180,1199,1219,1238,1259,1280,1299,1319,1338,1358,1378,1398,1419,1439,1458,1478,1500,1519,1539],"xSR":741.5,"ySR":573.95,"xT1":424.9,"yT1":0,"xT2":1058.1,"yT2":0,"toosoon":0,"cond_shown":"randomdotsizeEA","ratio_trial":250,"smaller_num":"2","larger_num":"8","correct_side":1,"subjID":"LauraPuentes34","gender":"1","age":"9","school":"4"},{"start_time":1552069948631,"click_time":1552069950043,"finger_time":1552069949322,"fix_duration":707.0822022131514,"trial":21,"RT":691,"MT":721,"sideResp":2,"stimulus":"img/500/randomdotsizeEA/R/6_Ratio_500_L_9_R_18.png","xmouse":[799,799,799,799,799,799,799,799,799,799,799,799,799,799,799,799,799,799,799,799,799,799,799,799,799,799,799,799,799,799,799,799,799,798,787,759,754,748,746,748,763,774,783,791,800,814,821,832,846,863,901,941,966,980,987,994,995,996,999,1001,1003,1008,1008,1011,1015,1021,1042,1050,1055,1058,1061],"ymouse":[651,651,651,651,651,651,651,651,651,651,651,651,651,651,651,651,651,651,651,651,651,651,651,651,651,651,651,651,651,651,651,651,651,650,571,478,455,428,398,373,346,335,329,322,315,307,301,292,279,265,229,182,144,116,99,75,64,55,45,40,34,28,28,28,26,25,20,18,16,15,15],"timestamp_mouse":[10,38,50,72,91,110,131,151,170,191,210,232,251,270,292,310,330,352,372,390,412,431,450,470,492,511,531,550,571,590,612,631,651,671,691,711,731,750,771,791,811,830,852,871,891,911,931,951,971,990,1012,1030,1051,1072,1091,1112,1130,1150,1171,1191,1211,1231,1251,1271,1292,1312,1331,1351,1371,1392,1411],"xSR":741.5,"ySR":573.95,"xT1":424.9,"yT1":0,"xT2":1058.1,"yT2":0,"toosoon":0,"cond_shown":"randomdotsizeEA","ratio_trial":500,"smaller_num":"9","larger_num":"18","correct_side":2,"subjID":"LauraPuentes34","gender":"1","age":"9","school":"4"},{"start_time":1552069952163,"click_time":1552069953443,"finger_time":1552069952722,"fix_duration":639.3157570730478,"trial":22,"RT":559,"MT":721,"sideResp":2,"stimulus":"img/250/randomdotsizeEA/R/9_Ratio_250_L_3_R_12.png","xmouse":[786,786,786,786,786,786,786,783,783,782,782,782,782,782,782,782,782,782,782,782,782,782,782,782,782,782,782,781,781,781,775,769,765,765,765,763,761,761,763,766,777,785,798,804,816,840,851,866,882,895,916,929,950,958,978,1004,1014,1020,1021,1022,1026,1031,1039,1058,1085],"ymouse":[608,608,608,608,608,608,608,608,608,608,608,608,608,608,608,608,608,608,608,608,608,608,608,608,608,608,608,596,570,548,500,475,436,412,391,338,318,305,294,285,267,258,246,242,233,218,210,199,190,179,163,151,132,125,100,67,59,56,56,56,54,53,50,47,44],"timestamp_mouse":[1,19,43,59,78,98,119,139,159,180,200,219,238,259,278,298,318,338,359,379,399,419,439,458,479,500,518,539,559,579,599,620,639,659,679,699,719,740,760,780,798,819,838,859,879,899,919,939,958,979,998,1019,1038,1059,1079,1098,1119,1140,1158,1180,1198,1219,1239,1259,1280],"xSR":741.5,"ySR":573.95,"xT1":424.9,"yT1":0,"xT2":1058.1,"yT2":0,"toosoon":0,"cond_shown":"randomdotsizeEA","ratio_trial":250,"smaller_num":"3","larger_num":"12","correct_side":2,"subjID":"LauraPuentes34","gender":"1","age":"9","school":"4"},{"start_time":1552069955786,"click_time":1552069956782,"finger_time":1552069956642,"fix_duration":1283.3616985321012,"trial":23,"RT":856,"MT":140,"sideResp":1,"stimulus":"img/750/equaldotsize/L/14_Ratio_750_L_8_R_6.png","xmouse":[808,808,808,808,808,808,808,808,808,808,808,808,808,808,808,808,808,808,808,808,808,808,808,808,808,808,808,808,808,808,807,807,807,807,807,807,807,807,807,807,807,805,791,763,697,614,553,524,511,511],"ymouse":[627,627,627,627,627,627,627,627,627,627,627,627,627,627,627,627,627,627,627,627,626,626,626,626,626,626,626,626,626,626,626,626,626,626,626,626,626,626,626,626,626,614,563,453,340,241,178,143,114,99],"timestamp_mouse":[15,39,57,76,96,115,135,157,175,196,216,237,255,275,297,317,336,356,375,397,415,435,457,477,497,517,536,555,576,596,616,636,655,677,697,715,737,756,776,795,816,835,856,876,896,916,936,955,977,996],"xSR":741.5,"ySR":573.95,"xT1":424.9,"yT1":0,"xT2":1058.1,"yT2":0,"toosoon":0,"cond_shown":"equaldotsize","ratio_trial":750,"smaller_num":"6","larger_num":"8","correct_side":1,"subjID":"LauraPuentes34","gender":"1","age":"9","school":"4"},{"start_time":1552069958904,"click_time":1552069960223,"finger_time":1552069959383,"fix_duration":1200.033631290792,"trial":24,"RT":479,"MT":840,"sideResp":2,"stimulus":"img/250/equaldotsize/R/6_Ratio_250_L_6_R_24.png","xmouse":[811,811,811,811,811,811,811,809,809,808,808,808,808,808,808,808,808,808,808,808,808,804,800,774,761,752,747,743,735,731,724,717,710,707,709,713,716,725,736,736,738,738,742,747,753,765,784,801,832,845,858,870,887,898,900,901,903,912,919,923,929,933,938,973,1011,1104],"ymouse":[623,623,623,623,623,621,615,601,598,596,596,596,596,596,596,596,596,596,596,596,596,585,574,525,499,474,445,417,363,332,298,266,241,202,191,186,183,179,175,175,175,174,173,173,173,175,178,180,180,179,174,164,140,120,117,116,116,113,111,110,109,107,106,95,88,73],"timestamp_mouse":[17,48,59,79,97,118,139,158,178,198,219,237,257,279,299,317,337,359,377,398,418,439,459,479,498,518,538,558,578,597,618,638,658,679,699,718,738,759,778,798,818,839,859,878,897,918,938,958,978,998,1018,1038,1057,1078,1098,1118,1139,1159,1178,1198,1218,1239,1258,1277,1297,1319],"xSR":741.5,"ySR":573.95,"xT1":424.9,"yT1":0,"xT2":1058.1,"yT2":0,"toosoon":0,"cond_shown":"equaldotsize","ratio_trial":250,"smaller_num":"6","larger_num":"24","correct_side":2,"subjID":"LauraPuentes34","gender":"1","age":"9","school":"4"},{"start_time":1552069968471,"click_time":1552069969823,"finger_time":1552069969083,"fix_duration":1465.9908445464312,"trial":25,"RT":612,"MT":740,"sideResp":1,"stimulus":"img/250/randomdotsizeEA/L/2_Ratio_250_L_16_R_4.png","xmouse":[794,794,794,794,794,794,794,794,794,794,794,794,794,794,794,794,794,794,794,794,794,794,794,794,794,794,794,794,794,796,803,797,781,763,740,724,719,719,718,716,713,694,680,663,635,599,486,418,366,341,331,330,330,330,330,330,330,330,331,338,343,353,356,359,360,362,396,437],"ymouse":[618,618,618,618,618,618,618,618,618,618,618,618,618,618,618,618,618,618,618,618,618,618,618,618,618,618,618,618,604,593,530,506,479,454,420,398,373,362,347,331,312,271,256,242,227,209,180,161,147,136,130,124,124,124,124,124,124,123,123,120,118,115,115,114,114,113,104,91],"timestamp_mouse":[10,44,51,70,92,110,130,152,172,191,212,230,250,272,290,311,331,352,370,390,412,431,452,470,492,512,530,552,570,590,612,631,652,670,691,710,731,752,771,791,811,831,851,871,891,911,931,952,972,991,1011,1030,1051,1070,1091,1112,1131,1151,1171,1191,1211,1232,1251,1271,1291,1311,1331,1352],"xSR":741.5,"ySR":573.95,"xT1":424.9,"yT1":0,"xT2":1058.1,"yT2":0,"toosoon":0,"cond_shown":"randomdotsizeEA","ratio_trial":250,"smaller_num":"4","larger_num":"16","correct_side":1,"subjID":"LauraPuentes34","gender":"1","age":"9","school":"4"},{"start_time":1552069971874,"click_time":1552069973082,"finger_time":1552069972242,"fix_duration":949.9651936955316,"trial":26,"RT":368,"MT":840,"sideResp":1,"stimulus":"img/750/equaldotsize/R/15_Ratio_750_L_9_R_12.png","xmouse":[766,766,766,766,766,766,766,766,766,766,766,765,765,765,765,765,765,765,768,779,779,779,779,779,779,781,795,797,797,797,797,801,806,811,817,821,829,830,834,845,851,855,856,856,858,860,862,862,862,862,862,862,862,861,856,834,737,669,576,532,507],"ymouse":[622,622,622,622,621,621,621,621,621,621,621,621,621,621,621,621,621,597,571,486,429,371,368,338,311,284,224,199,179,157,149,134,129,124,121,119,115,114,114,110,109,107,107,107,107,106,106,106,106,106,106,106,106,106,106,106,106,106,102,95,91],"timestamp_mouse":[10,42,47,67,88,109,128,149,168,187,209,229,248,268,287,308,328,349,368,387,407,427,447,469,488,509,528,548,569,587,607,627,648,668,689,708,728,747,768,787,807,827,848,869,887,909,927,947,968,987,1008,1027,1047,1069,1088,1109,1127,1147,1167,1188,1208],"xSR":741.5,"ySR":573.95,"xT1":424.9,"yT1":0,"xT2":1058.1,"yT2":0,"toosoon":0,"cond_shown":"equaldotsize","ratio_trial":750,"smaller_num":"9","larger_num":"12","correct_side":2,"subjID":"LauraPuentes34","gender":"1","age":"9","school":"4"},{"start_time":1552069977040,"click_time":1552069978842,"finger_time":1552069977862,"fix_duration":1356.0037489053418,"trial":27,"RT":822,"MT":980,"sideResp":1,"stimulus":"img/750/equaldotsize/L/6_Ratio_750_L_24_R_18.png","xmouse":[787,784,782,782,781,781,779,779,779,778,777,777,777,777,777,777,777,777,777,777,777,777,777,777,777,777,777,777,777,775,774,773,773,773,773,773,773,773,773,772,772,765,759,756,746,746,751,764,782,817,825,831,835,839,840,840,840,840,840,830,825,816,806,792,771,767,763,761,759,749,742,733,718,699,664,647,624,603,560,531,516,509,505,503,501,499,497,494,490,480,478],"ymouse":[594,596,597,597,598,598,598,598,598,599,599,599,599,599,599,599,599,599,599,599,599,599,599,599,599,599,599,599,599,600,601,601,601,601,601,601,601,601,601,601,591,548,489,433,340,304,278,259,240,209,196,185,177,164,159,155,152,148,144,134,130,126,123,120,118,118,118,118,118,119,120,120,120,120,123,124,124,125,125,125,124,123,122,122,120,119,117,115,111,101,98],"timestamp_mouse":[2,22,41,62,82,101,121,143,162,183,203,222,242,262,281,302,322,342,363,383,403,422,441,461,483,503,522,542,562,582,602,622,641,663,683,701,721,743,762,782,802,822,843,862,882,902,922,941,961,982,1001,1021,1041,1063,1082,1101,1121,1142,1162,1183,1202,1223,1243,1262,1281,1303,1322,1342,1362,1382,1402,1422,1442,1461,1482,1503,1521,1541,1563,1581,1602,1622,1642,1662,1682,1702,1722,1743,1761,1781,1802],"xSR":741.5,"ySR":573.95,"xT1":424.9,"yT1":0,"xT2":1058.1,"yT2":0,"toosoon":0,"cond_shown":"equaldotsize","ratio_trial":750,"smaller_num":"18","larger_num":"24","correct_side":1,"subjID":"LauraPuentes34","gender":"1","age":"9","school":"4"},{"start_time":1552069980185,"click_time":1552069982242,"finger_time":1552069980722,"fix_duration":340.20692162575773,"trial":28,"RT":537,"MT":1520,"sideResp":2,"stimulus":"img/900/equaldotanddens/R/15_Ratio_900_L_9_R_10.png","xmouse":[778,778,778,778,778,778,778,778,778,778,778,778,778,778,778,778,778,778,778,778,778,778,778,779,781,787,799,808,828,846,862,892,902,911,914,915,917,917,917,917,917,917,917,917,918,918,920,920,920,921,922,924,929,933,939,946,957,959,963,965,967,969,970,971,973,975,980,988,993,1001,1019,1058,1170,1219,1252,1273,1280,1280,1280,1280,1279,1278,1278,1275,1273,1270,1264,1258,1258,1258,1257,1253,1250,1249,1248,1247,1247,1240,1222,1206,1193,1165,1155],"ymouse":[611,611,611,611,611,611,611,611,611,611,611,611,611,611,611,611,611,611,611,611,611,611,611,611,609,602,534,470,330,216,108,0,0,0,0,0,0,0,0,0,0,0,0,0,0,0,0,1,1,1,1,3,10,15,19,23,28,28,28,28,27,27,27,27,26,26,24,22,21,20,20,26,26,26,26,26,26,26,26,26,26,27,27,27,28,29,30,33,35,35,35,36,36,36,36,37,37,41,46,48,48,50,50],"timestamp_mouse":[22,36,57,78,97,116,136,156,177,197,217,236,258,278,296,316,338,358,377,396,417,436,457,477,498,517,537,558,577,597,616,638,657,677,697,717,738,757,777,797,818,837,857,878,898,917,937,956,977,996,1016,1037,1058,1077,1097,1116,1138,1157,1177,1198,1216,1237,1256,1276,1296,1317,1337,1357,1377,1396,1417,1437,1456,1476,1496,1516,1536,1557,1577,1598,1618,1638,1657,1676,1697,1717,1737,1756,1777,1797,1817,1838,1857,1877,1897,1916,1937,1957,1976,1996,2016,2037,2056],"xSR":741.5,"ySR":573.95,"xT1":424.9,"yT1":0,"xT2":1058.1,"yT2":0,"toosoon":0,"cond_shown":"equaldotanddens","ratio_trial":900,"smaller_num":"9","larger_num":"10","correct_side":2,"subjID":"LauraPuentes34","gender":"1","age":"9","school":"4"},{"start_time":1552069983604,"click_time":1552069986522,"finger_time":1552069984242,"fix_duration":280.3857829818853,"trial":29,"RT":638,"MT":2280,"sideResp":2,"stimulus":"img/500/randomdotsizeEA/R/9_Ratio_500_L_2_R_4.png","xmouse":[758,758,758,758,758,758,758,758,758,758,758,758,758,758,758,758,758,758,758,758,758,758,758,758,758,758,758,758,758,758,758,758,756,751,745,743,743,746,747,747,742,738,735,734,732,732,755,768,782,795,804,821,830,839,848,855,881,895,912,930,946,956,956,956,956,956,958,958,958,958,958,958,958,958,959,959,959,959,959,960,960,960,960,960,960,959,950,948,946,946,946,946,946,946,946,946,946,946,946,946,946,946,946,946,946,946,946,946,946,946,946,946,946,946,946,946,946,946,946,946,946,945,941,941,961,993,999,999,999,999,999,999,1000,1000,1001,1001,1001,1002,1002,1002,1002,1002,1003,1023,1058,1093],"ymouse":[640,640,640,640,640,640,640,640,640,640,640,640,640,640,640,640,640,640,640,640,640,640,640,640,640,640,640,640,639,636,581,553,529,504,483,433,394,370,344,322,280,266,252,240,227,217,180,165,155,148,143,136,131,128,123,120,102,90,73,57,46,43,43,43,43,43,42,42,42,42,42,42,42,42,42,42,42,42,42,42,42,42,42,42,42,44,47,49,49,49,49,49,49,49,49,49,49,49,49,49,49,49,49,49,49,49,49,49,49,49,49,49,49,49,49,49,49,49,49,49,49,51,53,56,56,56,57,57,57,57,57,57,57,57,57,57,57,56,56,56,56,56,56,59,59,59],"timestamp_mouse":[18,38,59,79,97,118,139,159,179,198,217,238,258,279,298,318,337,358,379,397,419,438,459,478,498,519,538,558,578,598,619,638,658,678,698,718,737,758,779,799,819,838,858,878,897,917,938,959,978,998,1018,1037,1058,1077,1099,1118,1138,1158,1178,1198,1219,1238,1257,1278,1299,1318,1337,1357,1378,1399,1418,1438,1457,1477,1498,1518,1539,1558,1578,1599,1618,1637,1658,1679,1698,1717,1737,1758,1778,1798,1818,1838,1857,1877,1898,1917,1937,1958,1977,1999,2019,2037,2058,2078,2097,2118,2139,2158,2179,2199,2219,2238,2258,2279,2298,2319,2337,2357,2378,2398,2418,2438,2458,2479,2499,2519,2537,2558,2577,2597,2619,2638,2659,2678,2699,2719,2738,2758,2777,2798,2818,2838,2857,2878,2899,2917],"xSR":741.5,"ySR":573.95,"xT1":424.9,"yT1":0,"xT2":1058.1,"yT2":0,"toosoon":0,"cond_shown":"randomdotsizeEA","ratio_trial":500,"smaller_num":"2","larger_num":"4","correct_side":2,"subjID":"LauraPuentes34","gender":"1","age":"9","school":"4"},{"start_time":1552069989835,"click_time":1552069991082,"finger_time":1552069990502,"fix_duration":570.9926325168782,"trial":30,"RT":667,"MT":580,"sideResp":1,"stimulus":"img/250/randomdotsizeEA/L/2_Ratio_250_L_16_R_4.png","xmouse":[778,778,778,778,778,778,778,778,778,778,778,778,778,778,778,778,778,778,778,778,778,778,778,778,778,778,778,778,778,778,776,766,761,755,742,703,695,690,690,690,689,685,680,676,671,666,664,664,663,660,656,643,639,635,632,621,613,599,581,562,535,526,519],"ymouse":[673,673,673,673,673,673,673,673,673,673,673,673,673,673,673,673,673,673,673,673,673,673,673,673,673,672,672,672,672,672,662,616,584,463,342,132,82,49,29,12,0,0,0,0,0,0,0,0,0,0,2,8,10,11,12,15,18,22,26,30,37,41,44],"timestamp_mouse":[13,40,46,66,87,108,126,147,167,188,208,227,247,267,287,307,327,346,368,386,406,427,448,467,486,508,526,548,568,586,607,627,646,667,686,707,727,746,766,788,806,827,847,867,888,907,928,947,968,987,1007,1027,1047,1066,1087,1108,1126,1147,1167,1188,1207,1226,1247],"xSR":741.5,"ySR":573.95,"xT1":424.9,"yT1":0,"xT2":1058.1,"yT2":0,"toosoon":0,"cond_shown":"randomdotsizeEA","ratio_trial":250,"smaller_num":"4","larger_num":"16","correct_side":1,"subjID":"LauraPuentes34","gender":"1","age":"9","school":"4"},{"start_time":1552069993189,"click_time":1552069994643,"finger_time":1552069993743,"fix_duration":1486.694441303993,"trial":31,"RT":554,"MT":900,"sideResp":2,"stimulus":"img/900/equaldotsize/L/4_Ratio_900_L_20_R_18.png","xmouse":[811,811,811,811,811,811,811,811,811,811,811,811,811,811,811,811,811,811,811,811,811,811,811,811,811,811,805,786,772,756,744,739,738,751,757,765,770,783,802,812,819,823,828,829,831,835,841,862,879,897,913,935,940,961,967,972,979,983,990,992,994,995,997,1000,1004,1006,1007,1008,1012,1015,1021,1042,1077],"ymouse":[638,638,638,638,638,638,638,638,638,638,638,638,638,638,638,638,638,638,638,638,638,638,638,638,638,638,605,546,520,495,474,455,424,383,365,344,326,302,268,252,241,231,203,191,178,169,160,140,124,109,95,78,75,67,66,64,63,61,59,58,58,58,57,57,55,54,54,54,53,52,50,45,35],"timestamp_mouse":[13,45,52,72,94,114,132,153,172,193,214,233,252,272,294,313,334,353,373,394,414,433,452,474,493,513,533,554,573,593,613,632,653,672,694,713,733,754,773,793,813,833,853,872,892,912,932,954,972,994,1013,1033,1053,1074,1092,1112,1133,1153,1172,1193,1213,1233,1253,1274,1293,1314,1333,1352,1373,1392,1412,1433,1454],"xSR":741.5,"ySR":573.95,"xT1":424.9,"yT1":0,"xT2":1058.1,"yT2":0,"toosoon":0,"cond_shown":"equaldotsize","ratio_trial":900,"smaller_num":"18","larger_num":"20","correct_side":1,"subjID":"LauraPuentes34","gender":"1","age":"9","school":"4"},{"start_time":1552069996674,"click_time":1552069997942,"finger_time":1552069997302,"fix_duration":769.9572665245116,"trial":32,"RT":628,"MT":640,"sideResp":2,"stimulus":"img/900/equaldotanddens/R/13_Ratio_900_L_18_R_20.png","xmouse":[775,775,775,775,775,775,775,775,775,775,775,775,775,775,775,775,775,775,775,775,775,775,775,775,775,778,779,783,785,788,791,801,810,817,833,840,864,874,914,950,955,961,966,969,977,981,984,987,988,990,992,996,1004,1009,1015,1017,1017,1019,1021,1027,1035,1044,1055,1064],"ymouse":[595,595,595,595,595,595,595,595,595,595,595,595,595,595,595,595,595,595,595,595,595,595,595,595,594,593,593,590,589,588,585,559,539,527,499,488,453,435,375,319,305,282,261,243,214,201,198,196,196,195,195,188,175,164,144,134,127,114,104,79,66,54,46,39],"timestamp_mouse":[10,44,48,69,87,108,129,148,167,189,209,227,248,268,288,307,327,347,367,388,407,427,448,469,487,508,528,548,568,588,608,628,649,667,688,708,728,748,768,787,807,828,847,868,888,907,928,948,969,987,1008,1028,1049,1067,1087,1108,1129,1149,1167,1187,1208,1227,1248,1268],"xSR":741.5,"ySR":573.95,"xT1":424.9,"yT1":0,"xT2":1058.1,"yT2":0,"toosoon":0,"cond_shown":"equaldotanddens","ratio_trial":900,"smaller_num":"18","larger_num":"20","correct_side":2,"subjID":"LauraPuentes34","gender":"1","age":"9","school":"4"},{"start_time":1552069999054,"click_time":1552070001162,"finger_time":1552069999761,"fix_duration":250,"trial":33,"RT":707,"MT":1401,"sideResp":1,"stimulus":"img/900/equaldotsize/R/15_Ratio_900_L_9_R_10.png","xmouse":[804,804,804,804,804,804,804,804,804,804,804,804,804,804,804,804,804,804,804,804,804,804,804,804,804,804,807,807,807,807,807,807,807,807,808,809,810,817,825,829,860,875,889,898,903,906,908,908,908,908,908,910,911,911,912,912,912,912,912,912,919,924,925,925,925,917,884,829,762,693,621,522,498,476,465,449,435,422,410,399,389,388,387,387,390,399,400,402,402,402,402,402,402,402,403,403,403,403,403,403,403,405,405,405,407,437],"ymouse":[593,593,593,593,593,593,593,593,593,593,593,593,593,593,593,593,593,593,593,593,593,593,593,593,593,593,593,593,593,593,593,592,592,590,580,536,521,487,464,454,402,378,354,332,309,274,249,229,211,193,169,166,163,162,161,160,159,157,157,156,152,150,149,146,145,144,144,144,144,142,137,128,124,121,120,119,119,119,117,115,112,111,106,100,92,79,78,76,75,75,75,75,75,75,74,74,74,74,74,74,74,74,74,74,74,73],"timestamp_mouse":[10,38,47,68,87,107,128,147,168,187,209,227,247,268,289,309,329,347,367,389,407,428,448,468,488,508,527,547,569,588,607,627,649,668,688,707,727,748,768,788,807,828,848,868,888,908,927,948,968,989,1008,1028,1049,1068,1088,1108,1128,1147,1168,1188,1208,1228,1248,1268,1287,1308,1327,1348,1367,1387,1407,1427,1448,1468,1488,1507,1528,1548,1568,1587,1607,1627,1648,1669,1687,1708,1728,1748,1768,1788,1808,1827,1848,1868,1887,1908,1929,1948,1968,1987,2008,2027,2048,2068,2087,2107],"xSR":741.5,"ySR":573.95,"xT1":424.9,"yT1":0,"xT2":1058.1,"yT2":0,"toosoon":0,"cond_shown":"equaldotsize","ratio_trial":900,"smaller_num":"9","larger_num":"10","correct_side":2,"subjID":"LauraPuentes34","gender":"1","age":"9","school":"4"},{"start_time":1552070003863,"click_time":1552070005402,"finger_time":1552070004802,"fix_duration":1179.5822945484174,"trial":34,"RT":939,"MT":600,"sideResp":2,"stimulus":"img/500/randomdotsizeEA/R/15_Ratio_500_L_1_R_2.png","xmouse":[806,806,806,806,806,806,806,806,806,806,806,806,806,806,806,806,806,806,806,806,806,806,803,802,799,798,798,798,798,798,798,798,798,798,798,798,798,798,798,798,798,798,798,798,798,798,797,797,797,799,804,833,852,875,899,921,952,955,956,956,956,956,957,957,957,958,959,960,962,965,969,982,988,1001,1010,1020,1045,1059],"ymouse":[626,626,626,626,626,626,626,626,626,626,626,626,626,626,626,626,626,626,626,626,626,626,628,629,629,629,629,629,629,629,629,629,629,629,629,629,629,629,629,629,629,629,629,629,629,629,576,529,500,473,446,373,332,263,184,106,0,0,0,0,0,0,0,0,0,0,0,0,0,3,10,27,30,35,39,42,50,52],"timestamp_mouse":[1,19,40,58,78,100,118,139,158,179,198,218,239,260,278,298,318,338,359,378,400,418,439,458,480,498,519,540,558,578,599,618,640,659,680,698,718,740,759,780,798,819,838,858,879,899,919,939,960,979,998,1018,1040,1059,1078,1099,1118,1139,1159,1180,1198,1218,1238,1258,1278,1298,1319,1338,1358,1379,1399,1420,1440,1459,1478,1499,1518,1538],"xSR":741.5,"ySR":573.95,"xT1":424.9,"yT1":0,"xT2":1058.1,"yT2":0,"toosoon":0,"cond_shown":"randomdotsizeEA","ratio_trial":500,"smaller_num":"1","larger_num":"2","correct_side":2,"subjID":"LauraPuentes34","gender":"1","age":"9","school":"4"},{"start_time":1552070009616,"click_time":1552070010922,"finger_time":1552070010282,"fix_duration":633.460482090747,"trial":35,"RT":666,"MT":640,"sideResp":1,"stimulus":"img/250/equaldotsize/L/5_Ratio_250_L_24_R_6.png","xmouse":[808,808,808,808,808,808,808,808,808,808,808,808,808,808,808,808,808,808,808,808,808,808,808,808,808,808,808,808,808,810,814,823,831,857,896,908,914,921,926,938,941,941,941,930,922,919,917,917,917,911,899,883,864,839,747,716,689,666,650,635,631,625,616,574,540,523],"ymouse":[631,631,631,631,631,631,631,631,631,631,631,631,631,631,631,631,631,631,631,631,631,631,631,631,631,631,631,631,631,631,629,623,613,543,400,357,328,301,271,229,205,181,160,121,101,93,92,92,92,91,93,98,101,106,118,121,123,123,123,123,120,115,111,98,88,80],"timestamp_mouse":[10,39,45,66,86,106,126,147,166,186,206,225,247,267,286,305,326,345,366,386,407,425,446,466,486,505,525,545,565,585,605,625,646,666,685,707,727,745,765,786,807,827,846,866,885,905,926,946,965,985,1006,1026,1045,1066,1086,1106,1126,1146,1165,1185,1205,1226,1246,1266,1285,1305],"xSR":741.5,"ySR":573.95,"xT1":424.9,"yT1":0,"xT2":1058.1,"yT2":0,"toosoon":0,"cond_shown":"equaldotsize","ratio_trial":250,"smaller_num":"6","larger_num":"24","correct_side":1,"subjID":"LauraPuentes34","gender":"1","age":"9","school":"4"},{"start_time":1552070013968,"click_time":1552070015921,"finger_time":1552070014801,"fix_duration":1365.5496065663563,"trial":36,"RT":833,"MT":1120,"sideResp":2,"stimulus":"img/900/randomdotsizeEA/L/4_Ratio_900_L_20_R_18.png","xmouse":[781,781,781,781,781,781,781,781,781,781,781,781,781,781,781,781,781,781,781,781,781,781,781,781,781,781,781,781,781,781,781,781,781,781,781,781,781,781,781,780,780,779,773,765,757,754,750,747,745,745,745,745,747,751,760,770,794,803,814,823,831,837,837,837,837,837,837,837,837,837,837,837,837,837,837,837,837,837,837,837,837,837,840,844,853,859,871,873,876,880,882,888,898,909,929,955,1032,1076],"ymouse":[607,607,607,607,607,607,607,607,607,607,607,607,607,607,607,607,607,607,607,607,607,607,607,607,607,607,607,607,607,607,607,607,607,607,607,607,607,607,607,607,602,516,486,460,445,437,411,395,377,355,328,286,268,253,224,203,162,146,127,106,89,75,75,75,75,75,75,75,75,75,75,75,75,75,75,75,75,75,75,75,75,75,74,72,70,68,64,64,64,62,62,61,60,58,58,61,61,61],"timestamp_mouse":[13,41,54,74,93,113,133,155,175,194,214,235,254,275,294,313,334,354,375,395,413,434,453,475,495,513,533,554,574,593,614,634,654,674,695,714,733,753,774,794,813,833,854,874,895,915,934,953,973,995,1015,1033,1055,1074,1094,1114,1133,1153,1173,1194,1215,1233,1255,1274,1295,1313,1335,1354,1373,1394,1414,1434,1453,1473,1494,1513,1534,1555,1574,1593,1613,1634,1653,1674,1694,1713,1733,1753,1773,1793,1814,1833,1854,1873,1894,1913,1933,1953],"xSR":741.5,"ySR":573.95,"xT1":424.9,"yT1":0,"xT2":1058.1,"yT2":0,"toosoon":0,"cond_shown":"randomdotsizeEA","ratio_trial":900,"smaller_num":"18","larger_num":"20","correct_side":1,"subjID":"LauraPuentes34","gender":"1","age":"9","school":"4"},{"start_time":1552070017452,"click_time":1552070019262,"finger_time":1552070018162,"fix_duration":250,"trial":37,"RT":710,"MT":1100,"sideResp":1,"stimulus":"img/500/equaldotanddens/L/8_Ratio_500_L_8_R_4.png","xmouse":[788,788,788,788,788,788,788,788,788,788,788,788,788,788,788,788,788,788,788,788,788,788,788,788,788,788,788,788,788,788,788,788,788,789,789,789,789,789,789,792,796,806,807,805,812,826,846,889,912,915,912,907,898,896,895,893,892,892,863,848,835,814,765,745,724,712,706,700,694,692,692,692,691,691,688,685,679,678,675,675,674,674,672,671,670,667,663,658,618,575,524],"ymouse":[659,659,659,659,659,659,659,659,659,659,659,659,659,659,659,659,659,659,659,659,659,659,659,659,659,659,659,659,659,659,659,659,642,612,579,548,519,478,463,449,445,441,439,436,433,429,424,401,364,344,325,307,279,274,272,268,267,264,228,208,185,150,70,38,10,0,0,0,0,0,0,0,0,0,0,0,1,2,2,2,2,2,3,4,5,6,7,9,31,47,68],"timestamp_mouse":[14,31,49,69,90,110,130,149,170,189,210,231,251,269,289,310,330,350,370,389,410,431,450,470,489,510,531,549,569,590,610,629,649,669,691,710,730,749,769,790,811,830,849,869,889,909,929,950,969,990,1009,1029,1049,1069,1089,1110,1131,1150,1171,1190,1209,1230,1250,1269,1290,1310,1330,1350,1369,1389,1410,1429,1451,1470,1491,1510,1529,1550,1569,1590,1610,1630,1652,1669,1689,1709,1729,1750,1769,1789,1810],"xSR":741.5,"ySR":573.95,"xT1":424.9,"yT1":0,"xT2":1058.1,"yT2":0,"toosoon":0,"cond_shown":"equaldotanddens","ratio_trial":500,"smaller_num":"4","larger_num":"8","correct_side":1,"subjID":"LauraPuentes34","gender":"1","age":"9","school":"4"},{"start_time":1552070021347,"click_time":1552070022862,"finger_time":1552070022121,"fix_duration":402.15462515524183,"trial":38,"RT":774,"MT":741,"sideResp":1,"stimulus":"img/750/equaldotanddens/L/10_Ratio_750_L_4_R_3.png","xmouse":[786,786,786,786,786,786,786,786,786,786,786,786,786,786,786,786,786,786,786,786,786,786,786,786,786,786,786,786,786,786,786,786,786,786,786,787,787,792,809,819,835,856,868,873,871,861,855,853,851,851,851,851,851,851,851,849,847,842,816,793,782,754,738,698,676,654,632,618,597,593,593,593,593,568,541,498],"ymouse":[630,630,630,630,630,630,630,630,630,630,630,630,630,630,630,630,630,630,630,630,630,630,630,630,630,630,630,630,630,630,630,630,630,630,630,629,627,599,517,482,427,334,255,120,75,39,20,12,7,7,7,7,7,7,7,7,7,10,26,35,40,49,52,61,65,68,68,68,64,62,62,62,62,62,62,65],"timestamp_mouse":[16,41,56,75,95,114,135,156,175,196,214,235,254,275,295,315,336,355,375,394,414,436,455,475,494,516,535,554,575,595,614,635,655,675,694,715,734,756,774,794,814,836,855,875,895,914,935,955,974,995,1015,1035,1055,1074,1094,1115,1135,1155,1174,1194,1216,1235,1255,1274,1294,1315,1334,1354,1374,1395,1414,1435,1454,1474,1494,1515],"xSR":741.5,"ySR":573.95,"xT1":424.9,"yT1":0,"xT2":1058.1,"yT2":0,"toosoon":0,"cond_shown":"equaldotanddens","ratio_trial":750,"smaller_num":"3","larger_num":"4","correct_side":1,"subjID":"LauraPuentes34","gender":"1","age":"9","school":"4"},{"start_time":1552070027352,"click_time":1552070029262,"finger_time":1552070028262,"fix_duration":1229.7548386433268,"trial":39,"RT":910,"MT":1000,"sideResp":2,"stimulus":"img/900/equaldotsize/R/14_Ratio_900_L_18_R_20.png","xmouse":[809,809,809,808,808,808,808,808,808,808,808,808,808,808,808,808,808,808,808,808,808,808,808,808,808,808,808,808,808,808,808,808,808,808,808,808,808,808,807,807,807,807,807,808,820,841,857,869,875,875,875,875,877,881,887,892,896,899,904,904,903,900,900,898,897,897,896,896,896,915,927,938,948,953,954,954,954,955,956,958,959,963,965,969,971,975,978,983,993,995,997,998,999,1029,1057,1096],"ymouse":[626,626,626,626,626,626,626,626,626,626,626,626,626,626,626,626,626,626,626,626,626,626,626,626,626,626,626,626,626,626,626,626,626,626,626,626,626,626,626,626,626,626,626,626,586,528,502,486,455,428,398,371,350,332,294,276,261,243,202,191,180,171,169,165,163,158,152,145,134,99,86,74,67,65,65,65,65,65,64,63,63,63,63,61,61,59,59,57,54,54,53,53,52,44,40,35],"timestamp_mouse":[10,29,49,69,91,109,129,150,169,190,211,231,251,270,290,310,330,351,371,390,409,430,449,470,491,511,531,550,570,590,610,631,649,670,690,710,731,750,769,789,810,831,851,871,890,910,929,949,971,989,1011,1030,1049,1069,1090,1109,1130,1149,1171,1189,1209,1230,1249,1270,1290,1310,1330,1350,1369,1389,1409,1430,1450,1470,1489,1509,1530,1550,1571,1589,1609,1630,1650,1670,1690,1709,1729,1751,1771,1789,1810,1830,1849,1870,1890,1909],"xSR":741.5,"ySR":573.95,"xT1":424.9,"yT1":0,"xT2":1058.1,"yT2":0,"toosoon":0,"cond_shown":"equaldotsize","ratio_trial":900,"smaller_num":"18","larger_num":"20","correct_side":2,"subjID":"LauraPuentes34","gender":"1","age":"9","school":"4"},{"start_time":1552070031053,"click_time":1552070032201,"finger_time":1552070031641,"fix_duration":509.49715187435686,"trial":40,"RT":588,"MT":560,"sideResp":2,"stimulus":"img/500/equaldotanddens/R/9_Ratio_500_L_2_R_4.png","xmouse":[773,773,773,773,773,773,773,773,773,773,773,773,773,773,773,773,773,773,773,773,773,773,773,773,773,774,780,792,809,878,912,939,960,991,1023,1029,1035,1038,1040,1041,1041,1039,1039,1038,1037,1037,1037,1037,1037,1037,1037,1037,1037,1037,1042,1047,1054,1059],"ymouse":[610,610,610,610,610,610,610,610,610,610,610,610,610,610,610,610,610,610,610,610,610,610,610,610,610,608,605,598,591,498,458,426,389,305,181,135,103,79,59,35,27,20,17,15,15,13,13,13,13,13,13,13,13,13,12,11,10,10],"timestamp_mouse":[10,39,49,68,89,109,130,148,169,189,209,230,250,269,289,309,329,349,369,388,408,430,449,470,488,509,528,549,569,588,609,629,649,669,688,708,730,749,769,788,809,829,849,869,889,909,928,948,970,988,1009,1028,1049,1070,1097,1109,1129,1148],"xSR":741.5,"ySR":573.95,"xT1":424.9,"yT1":0,"xT2":1058.1,"yT2":0,"toosoon":0,"cond_shown":"equaldotanddens","ratio_trial":500,"smaller_num":"2","larger_num":"4","correct_side":2,"subjID":"LauraPuentes34","gender":"1","age":"9","school":"4"},{"start_time":1552070035369,"click_time":1552070036802,"finger_time":1552070035801,"fix_duration":605.2145603640041,"trial":41,"RT":432,"MT":1001,"sideResp":2,"stimulus":"img/250/randomdotsizeEA/R/9_Ratio_250_L_3_R_12.png","xmouse":[805,805,805,805,805,805,805,805,805,805,805,805,805,805,805,805,805,805,806,809,814,825,841,873,891,908,915,919,919,919,919,919,916,906,891,876,863,849,829,826,826,825,825,827,829,829,835,843,865,874,879,880,882,884,886,888,890,896,911,917,924,927,929,939,962,974,999,1023,1047,1049,1054,1059],"ymouse":[643,643,643,643,643,643,643,643,643,643,643,643,643,643,643,643,643,643,642,637,606,547,505,425,369,325,300,284,275,273,271,270,265,255,244,237,229,222,208,206,202,197,193,187,183,182,179,177,169,167,166,165,165,164,164,164,163,162,157,155,153,153,152,149,136,129,118,107,96,95,93,89],"timestamp_mouse":[14,37,53,73,93,112,132,153,172,193,213,233,253,274,292,312,332,354,373,392,412,432,453,472,492,512,532,552,572,593,612,633,652,672,693,712,733,753,772,792,813,832,852,873,892,914,933,952,973,992,1013,1033,1052,1073,1093,1112,1133,1152,1172,1192,1213,1233,1252,1272,1292,1312,1332,1352,1372,1393,1413,1433],"xSR":741.5,"ySR":573.95,"xT1":424.9,"yT1":0,"xT2":1058.1,"yT2":0,"toosoon":0,"cond_shown":"randomdotsizeEA","ratio_trial":250,"smaller_num":"3","larger_num":"12","correct_side":2,"subjID":"LauraPuentes34","gender":"1","age":"9","school":"4"},{"start_time":1552070040250,"click_time":1552070041402,"finger_time":1552070040661,"fix_duration":487.43662802564813,"trial":42,"RT":411,"MT":741,"sideResp":1,"stimulus":"img/750/randomdotsizeEA/L/14_Ratio_750_L_8_R_6.png","xmouse":[811,811,811,811,811,811,811,811,811,811,811,811,811,811,811,811,811,811,811,811,830,859,875,877,876,875,874,867,849,827,809,809,809,809,809,809,809,809,809,809,809,809,809,809,787,763,742,695,672,652,630,624,619,615,607,594,552,523],"ymouse":[668,668,668,668,668,668,668,668,668,668,668,668,668,668,668,668,668,668,668,668,520,347,220,133,105,104,104,106,111,116,120,120,120,120,120,120,120,120,120,120,120,120,120,120,88,83,86,83,79,77,81,82,84,84,83,74,46,28],"timestamp_mouse":[13,42,52,72,92,111,131,153,171,192,213,231,253,271,293,312,331,352,371,392,411,431,451,473,493,511,531,551,571,592,612,632,651,671,692,711,733,753,773,791,812,831,851,872,892,912,931,951,972,991,1012,1032,1052,1072,1092,1111,1131,1152],"xSR":741.5,"ySR":573.95,"xT1":424.9,"yT1":0,"xT2":1058.1,"yT2":0,"toosoon":0,"cond_shown":"randomdotsizeEA","ratio_trial":750,"smaller_num":"6","larger_num":"8","correct_side":1,"subjID":"LauraPuentes34","gender":"1","age":"9","school":"4"},{"start_time":1552070043413,"click_time":1552070044603,"finger_time":1552070043902,"fix_duration":930.9473264137364,"trial":43,"RT":489,"MT":701,"sideResp":1,"stimulus":"img/900/equaldotsize/L/2_Ratio_900_L_20_R_18.png","xmouse":[797,797,797,797,797,797,797,797,797,797,797,797,797,797,797,797,797,797,797,797,797,797,797,796,778,758,744,729,726,726,726,726,732,743,745,749,752,752,752,752,750,746,743,743,743,743,743,743,742,737,724,709,694,666,651,635,614,555,534,519],"ymouse":[609,609,609,609,609,609,609,609,609,609,609,609,609,609,609,609,609,609,609,609,608,608,607,586,506,445,412,375,362,337,312,282,247,202,182,163,145,127,88,73,59,46,41,39,39,39,39,39,39,39,41,46,50,58,55,51,46,32,29,26],"timestamp_mouse":[9,30,63,69,89,108,130,150,170,189,208,230,249,268,289,309,329,348,370,389,408,429,449,468,489,509,529,549,568,589,608,628,648,668,689,709,729,748,769,789,809,828,848,869,888,910,929,949,968,989,1010,1029,1048,1068,1088,1108,1128,1149,1168,1190],"xSR":741.5,"ySR":573.95,"xT1":424.9,"yT1":0,"xT2":1058.1,"yT2":0,"toosoon":0,"cond_shown":"equaldotsize","ratio_trial":900,"smaller_num":"18","larger_num":"20","correct_side":1,"subjID":"LauraPuentes34","gender":"1","age":"9","school":"4"},{"start_time":1552070048744,"click_time":1552070050241,"finger_time":1552070049241,"fix_duration":1399.4656212285552,"trial":44,"RT":497,"MT":1000,"sideResp":2,"stimulus":"img/500/equaldotanddens/R/12_Ratio_500_L_1_R_2.png","xmouse":[814,814,814,814,814,814,814,814,814,814,814,814,814,814,814,814,814,814,814,814,814,814,814,813,806,798,781,777,776,775,775,787,795,806,827,847,874,882,889,890,892,898,901,907,911,916,925,927,932,934,936,964,978,991,1004,1015,1030,1035,1038,1040,1043,1050,1051,1051,1051,1051,1051,1051,1051,1051,1051,1051,1054,1056,1060],"ymouse":[630,630,630,630,630,630,630,630,630,630,630,630,630,630,630,630,630,630,630,630,630,630,630,578,518,491,450,434,425,396,378,322,298,265,216,177,148,144,140,138,136,127,124,117,111,105,95,92,87,84,82,67,61,56,51,48,43,41,41,41,40,39,39,38,38,38,38,38,38,38,38,38,40,40,40],"timestamp_mouse":[17,39,58,77,98,119,138,158,178,198,219,238,257,277,298,319,338,358,378,399,417,438,458,479,497,519,537,557,578,598,617,639,658,677,697,718,737,759,778,799,817,837,857,877,897,917,937,958,978,997,1018,1037,1057,1077,1098,1117,1137,1158,1178,1197,1217,1237,1258,1277,1297,1318,1337,1359,1378,1398,1417,1437,1457,1477,1497],"xSR":741.5,"ySR":573.95,"xT1":424.9,"yT1":0,"xT2":1058.1,"yT2":0,"toosoon":0,"cond_shown":"equaldotanddens","ratio_trial":500,"smaller_num":"1","larger_num":"2","correct_side":2,"subjID":"LauraPuentes34","gender":"1","age":"9","school":"4"},{"start_time":1552070055474,"click_time":1552070056981,"finger_time":1552070056262,"fix_duration":250,"trial":45,"RT":788,"MT":719,"sideResp":2,"stimulus":"img/900/randomdotsizeEA/R/12_Ratio_900_L_18_R_20.png","xmouse":[812,812,812,812,812,812,812,812,812,812,812,812,812,812,812,812,812,812,812,812,812,812,812,812,812,812,812,812,812,812,812,812,812,812,812,812,813,820,838,865,883,861,854,848,845,842,842,842,841,840,841,850,854,860,867,894,910,930,945,963,982,988,993,997,1000,1002,1006,1009,1018,1032,1036,1044,1046,1051,1056,1061],"ymouse":[630,630,630,630,630,630,630,630,630,630,630,630,630,630,630,630,630,630,630,630,630,630,630,630,630,630,630,630,630,630,630,630,630,630,630,630,630,625,609,546,448,311,293,281,271,253,241,225,217,212,206,202,200,199,197,189,183,171,160,144,126,115,106,98,94,92,90,88,85,81,79,77,77,76,74,73],"timestamp_mouse":[12,38,47,67,87,108,129,149,168,189,208,227,247,268,287,307,329,348,369,387,407,428,447,469,489,508,529,549,568,588,609,628,648,669,688,707,728,747,767,788,808,828,848,867,887,908,928,949,967,989,1008,1028,1048,1067,1088,1109,1127,1148,1168,1187,1209,1227,1247,1268,1287,1307,1327,1347,1367,1389,1408,1427,1448,1468,1487,1507],"xSR":741.5,"ySR":573.95,"xT1":424.9,"yT1":0,"xT2":1058.1,"yT2":0,"toosoon":0,"cond_shown":"randomdotsizeEA","ratio_trial":900,"smaller_num":"18","larger_num":"20","correct_side":2,"subjID":"LauraPuentes34","gender":"1","age":"9","school":"4"},{"start_time":1552070058871,"click_time":1552070059962,"finger_time":1552070059342,"fix_duration":728.1959510520908,"trial":46,"RT":471,"MT":620,"sideResp":2,"stimulus":"img/900/equaldotsize/L/8_Ratio_900_L_20_R_18.png","xmouse":[779,779,779,779,779,779,779,779,779,779,779,779,779,779,779,779,779,779,779,780,780,786,791,803,812,819,815,811,808,808,817,837,847,852,854,856,864,871,876,891,902,924,931,938,944,949,959,966,969,982,991,1013,1026,1042,1062],"ymouse":[612,612,612,612,612,612,612,612,612,612,612,612,612,612,612,612,612,612,612,612,612,603,597,555,499,435,352,338,326,316,292,258,239,223,201,182,149,137,132,121,115,103,100,97,95,92,89,88,87,83,81,75,71,66,57],"timestamp_mouse":[10,45,51,70,91,111,130,150,170,191,212,231,251,272,290,311,330,350,370,391,411,430,450,471,490,510,530,550,570,591,611,630,650,670,690,710,730,750,771,790,811,830,851,872,891,910,930,950,971,990,1010,1030,1050,1071,1091],"xSR":741.5,"ySR":573.95,"xT1":424.9,"yT1":0,"xT2":1058.1,"yT2":0,"toosoon":0,"cond_shown":"equaldotsize","ratio_trial":900,"smaller_num":"18","larger_num":"20","correct_side":1,"subjID":"LauraPuentes34","gender":"1","age":"9","school":"4"},{"start_time":1552070062108,"click_time":1552070063361,"finger_time":1552070062841,"fix_duration":1284.6437760210765,"trial":47,"RT":733,"MT":520,"sideResp":2,"stimulus":"img/250/randomdotsizeEA/R/12_Ratio_250_L_5_R_20.png","xmouse":[802,802,802,802,802,802,802,802,802,802,802,802,802,802,802,802,802,802,802,802,802,802,802,802,802,802,802,802,802,802,802,802,802,802,803,809,815,820,824,827,827,827,827,827,827,827,827,832,832,835,840,842,844,846,856,868,882,902,926,985,1021,1049,1075],"ymouse":[657,657,657,657,657,657,657,657,657,657,657,657,657,657,657,657,657,657,657,657,657,657,657,657,657,657,657,657,657,657,657,657,657,657,653,620,571,548,527,471,438,407,380,354,303,268,251,237,214,182,170,168,166,166,162,153,143,131,115,85,65,53,44],"timestamp_mouse":[15,41,54,74,94,115,134,153,173,193,215,235,254,274,293,314,335,354,373,395,413,434,455,474,494,515,535,554,574,594,615,634,654,674,693,715,733,754,773,793,813,833,853,874,893,913,933,953,974,994,1014,1034,1054,1075,1093,1113,1134,1154,1174,1194,1213,1233,1253],"xSR":741.5,"ySR":573.95,"xT1":424.9,"yT1":0,"xT2":1058.1,"yT2":0,"toosoon":0,"cond_shown":"randomdotsizeEA","ratio_trial":250,"smaller_num":"5","larger_num":"20","correct_side":2,"subjID":"LauraPuentes34","gender":"1","age":"9","school":"4"},{"start_time":1552070064887,"click_time":1552070066362,"finger_time":1552070065461,"fix_duration":323.97661744628505,"trial":48,"RT":574,"MT":901,"sideResp":1,"stimulus":"img/750/equaldotsize/L/1_Ratio_750_L_20_R_15.png","xmouse":[752,752,752,752,752,752,752,752,752,752,752,752,752,752,752,752,752,752,752,752,752,752,752,752,752,752,758,769,781,792,798,800,800,800,800,800,769,767,767,767,769,769,769,769,769,769,769,769,769,769,769,768,768,768,778,779,762,754,725,708,693,686,684,684,684,683,666,647,629,609,592,563,548,521],"ymouse":[597,597,597,597,597,597,597,597,597,597,597,597,597,597,597,597,597,597,597,597,597,597,597,597,597,597,592,586,566,542,518,505,486,458,432,409,306,294,289,283,277,277,277,277,277,277,277,277,277,277,277,277,277,271,215,86,24,6,0,0,0,0,0,0,0,0,7,18,30,40,48,56,58,59],"timestamp_mouse":[16,34,55,75,96,116,134,155,174,195,216,235,255,276,295,315,334,355,374,395,414,434,455,476,495,514,534,554,574,594,615,635,655,675,695,715,735,755,775,795,815,835,854,875,894,915,935,954,974,994,1014,1034,1054,1074,1095,1115,1135,1154,1174,1194,1214,1234,1254,1275,1295,1314,1335,1355,1374,1394,1414,1435,1454,1475],"xSR":741.5,"ySR":573.95,"xT1":424.9,"yT1":0,"xT2":1058.1,"yT2":0,"toosoon":0,"cond_shown":"equaldotsize","ratio_trial":750,"smaller_num":"15","larger_num":"20","correct_side":1,"subjID":"LauraPuentes34","gender":"1","age":"9","school":"4"},{"start_time":1552070070002,"click_time":1552070071122,"finger_time":1552070070422,"fix_duration":918.6730034139414,"trial":49,"RT":420,"MT":700,"sideResp":1,"stimulus":"img/900/equaldotanddens/L/4_Ratio_900_L_20_R_18.png","xmouse":[792,792,792,792,792,792,792,792,792,792,792,792,792,792,792,792,792,792,792,792,791,779,767,747,708,670,613,590,581,572,569,565,561,559,558,558,556,556,555,555,555,555,555,555,555,555,555,555,554,552,549,547,541,538,533,529,518],"ymouse":[625,625,625,625,625,625,625,625,625,625,625,625,625,625,625,625,625,625,625,625,620,556,515,464,402,355,281,244,224,207,191,177,149,135,127,120,109,104,103,103,102,102,102,102,102,102,102,100,97,94,90,87,79,76,73,70,65],"timestamp_mouse":[10,35,41,59,79,100,119,139,161,179,200,219,239,260,281,299,320,340,360,379,399,420,439,459,479,499,520,539,560,581,600,619,639,660,680,699,720,739,759,780,800,819,840,861,880,900,919,940,960,980,999,1019,1039,1060,1080,1099,1120],"xSR":741.5,"ySR":573.95,"xT1":424.9,"yT1":0,"xT2":1058.1,"yT2":0,"toosoon":0,"cond_shown":"equaldotanddens","ratio_trial":900,"smaller_num":"18","larger_num":"20","correct_side":1,"subjID":"LauraPuentes34","gender":"1","age":"9","school":"4"},{"start_time":1552070073496,"click_time":1552070074621,"finger_time":1552070074062,"fix_duration":1272.2381006206226,"trial":50,"RT":566,"MT":559,"sideResp":1,"stimulus":"img/900/equaldotsize/R/6_Ratio_900_L_9_R_10.png","xmouse":[818,818,818,818,818,818,818,818,818,818,818,818,818,818,818,818,818,818,818,818,818,818,818,818,818,818,818,817,812,808,801,797,790,785,782,774,767,748,739,729,723,716,715,715,715,715,715,713,713,712,709,703,682,660,620,565,519],"ymouse":[605,605,605,605,605,605,605,605,605,605,605,605,605,605,605,605,605,605,605,605,605,604,604,603,602,602,602,589,566,547,520,504,470,450,429,401,364,286,254,229,214,199,195,195,194,193,191,187,185,183,178,170,144,118,75,25,4],"timestamp_mouse":[15,26,46,65,85,106,127,145,166,185,205,225,246,265,287,305,325,346,365,386,407,426,445,465,485,507,525,545,566,585,605,625,646,666,687,705,726,745,767,786,806,825,845,865,885,905,926,945,966,986,1005,1026,1045,1065,1085,1106,1125],"xSR":741.5,"ySR":573.95,"xT1":424.9,"yT1":0,"xT2":1058.1,"yT2":0,"toosoon":0,"cond_shown":"equaldotsize","ratio_trial":900,"smaller_num":"9","larger_num":"10","correct_side":2,"subjID":"LauraPuentes34","gender":"1","age":"9","school":"4"},{"start_time":1552070076486,"click_time":1552070078021,"finger_time":1552070077062,"fix_duration":1003.0406593163059,"trial":51,"RT":576,"MT":959,"sideResp":2,"stimulus":"img/750/randomdotsizeEA/R/3_Ratio_750_L_15_R_20.png","xmouse":[788,788,788,788,788,788,788,788,788,788,788,788,788,788,788,788,788,788,788,788,788,788,788,788,788,788,787,782,780,774,774,774,773,772,771,768,762,745,738,736,736,736,749,754,758,764,771,783,804,824,829,830,830,830,830,831,832,834,837,847,847,849,868,876,879,882,888,895,920,928,936,948,978,998,1017,1047,1085],"ymouse":[618,618,618,618,618,618,618,618,618,618,618,618,618,618,618,618,618,618,618,618,618,618,618,618,618,618,609,574,566,554,553,552,548,545,539,528,507,441,388,355,322,296,246,227,212,194,177,157,125,103,99,98,98,98,98,98,97,97,96,93,93,92,86,85,83,83,82,79,72,70,67,62,50,45,37,27,17],"timestamp_mouse":[17,37,55,75,95,116,135,156,176,196,215,235,256,275,295,316,336,355,377,396,415,436,455,476,496,515,535,556,576,596,616,635,655,676,696,715,736,755,775,795,816,836,855,875,896,915,935,955,975,995,1017,1036,1055,1076,1096,1115,1135,1155,1176,1197,1216,1236,1257,1275,1296,1316,1335,1355,1375,1395,1416,1436,1455,1475,1495,1515,1535],"xSR":741.5,"ySR":573.95,"xT1":424.9,"yT1":0,"xT2":1058.1,"yT2":0,"toosoon":0,"cond_shown":"randomdotsizeEA","ratio_trial":750,"smaller_num":"15","larger_num":"20","correct_side":2,"subjID":"LauraPuentes34","gender":"1","age":"9","school":"4"},{"start_time":1552070081706,"click_time":1552070083121,"finger_time":1552070082361,"fix_duration":1142.3326570837316,"trial":52,"RT":655,"MT":760,"sideResp":1,"stimulus":"img/900/equaldotsize/L/4_Ratio_900_L_20_R_18.png","xmouse":[801,801,801,801,801,801,801,801,801,801,801,801,801,801,801,801,801,801,801,801,801,801,801,801,801,801,801,801,801,801,801,801,801,801,798,791,774,769,762,758,751,744,731,721,717,713,712,709,707,704,701,697,690,686,685,680,676,671,668,667,665,663,656,653,644,621,607,571,555,533,514],"ymouse":[593,593,593,593,593,593,593,593,593,593,593,593,593,593,593,593,593,593,593,593,593,593,593,593,593,593,593,593,593,593,593,589,556,522,475,437,365,342,317,300,273,254,220,206,200,196,194,189,184,178,172,164,152,145,141,134,128,116,113,111,109,108,105,105,101,97,95,94,93,93,93],"timestamp_mouse":[16,38,56,75,95,116,135,155,177,195,216,235,257,276,296,316,335,355,376,397,415,436,456,475,495,515,535,555,576,596,615,635,655,676,695,716,736,755,775,796,815,836,855,875,895,915,935,955,976,995,1015,1035,1055,1075,1096,1117,1136,1155,1175,1196,1215,1236,1255,1275,1295,1315,1336,1356,1376,1395,1415],"xSR":741.5,"ySR":573.95,"xT1":424.9,"yT1":0,"xT2":1058.1,"yT2":0,"toosoon":0,"cond_shown":"equaldotsize","ratio_trial":900,"smaller_num":"18","larger_num":"20","correct_side":1,"subjID":"LauraPuentes34","gender":"1","age":"9","school":"4"},{"start_time":1552070084395,"click_time":1552070085961,"finger_time":1552070084901,"fix_duration":250,"trial":53,"RT":506,"MT":1060,"sideResp":1,"stimulus":"img/750/randomdotsizeEA/L/6_Ratio_750_L_24_R_18.png","xmouse":[778,778,778,778,778,778,778,778,778,778,778,778,778,778,778,778,778,778,778,778,778,778,778,778,773,762,751,743,720,720,726,732,734,734,732,729,724,716,694,691,680,671,667,659,655,653,649,645,622,602,546,489,445,394,388,387,387,389,390,392,393,393,393,393,396,397,399,399,401,405,409,412,413,415,419,421,423,424,425],"ymouse":[655,655,655,655,655,655,655,655,655,655,655,655,655,655,655,655,655,655,655,655,655,655,655,646,606,550,512,480,390,351,310,264,242,209,194,183,174,163,150,148,147,146,146,147,147,147,147,147,148,151,161,174,181,179,170,152,131,116,104,95,93,91,91,90,90,90,90,90,89,88,87,86,86,85,84,84,83,83,82],"timestamp_mouse":[9,27,46,67,86,106,128,147,167,186,206,227,246,266,288,306,326,347,366,386,408,427,447,466,486,506,527,548,567,586,607,626,646,666,687,707,727,748,767,786,807,827,846,867,886,906,926,947,966,986,1006,1026,1046,1066,1086,1106,1126,1146,1166,1186,1207,1226,1247,1266,1286,1307,1327,1346,1366,1386,1407,1426,1447,1466,1486,1507,1526,1547,1566],"xSR":741.5,"ySR":573.95,"xT1":424.9,"yT1":0,"xT2":1058.1,"yT2":0,"toosoon":0,"cond_shown":"randomdotsizeEA","ratio_trial":750,"smaller_num":"18","larger_num":"24","correct_side":1,"subjID":"LauraPuentes34","gender":"1","age":"9","school":"4"},{"start_time":1552070088109,"click_time":1552070089481,"finger_time":1552070088622,"fix_duration":586.1035603324663,"trial":54,"RT":513,"MT":859,"sideResp":1,"stimulus":"img/900/equaldotsize/L/1_Ratio_900_L_10_R_9.png","xmouse":[838,838,838,838,838,838,838,838,838,838,838,838,838,838,838,838,838,838,838,837,837,833,827,791,786,785,785,808,825,832,833,831,815,811,806,804,800,798,792,791,791,791,791,791,791,791,791,791,791,791,784,765,727,675,652,633,615,595,593,591,591,590,587,578,569,558,546,536,517],"ymouse":[613,613,613,613,613,613,613,613,613,613,613,613,613,613,613,613,613,613,613,613,613,612,610,585,574,558,536,473,426,398,384,355,267,236,210,185,162,150,136,134,134,133,133,133,133,133,133,133,133,133,127,114,103,101,101,102,105,107,107,108,108,108,108,107,102,95,87,78,64],"timestamp_mouse":[13,49,53,73,93,112,132,153,174,193,213,234,253,273,294,313,333,353,374,393,412,434,453,472,492,513,533,553,572,592,612,632,653,672,692,712,732,753,772,793,814,832,853,873,892,914,933,953,972,992,1012,1032,1052,1073,1092,1113,1132,1154,1172,1193,1212,1232,1252,1272,1293,1312,1332,1353,1372],"xSR":741.5,"ySR":573.95,"xT1":424.9,"yT1":0,"xT2":1058.1,"yT2":0,"toosoon":0,"cond_shown":"equaldotsize","ratio_trial":900,"smaller_num":"9","larger_num":"10","correct_side":1,"subjID":"LauraPuentes34","gender":"1","age":"9","school":"4"},{"start_time":1552070090652,"click_time":1552070091701,"finger_time":1552070090981,"fix_duration":250,"trial":55,"RT":329,"MT":720,"sideResp":2,"stimulus":"img/750/equaldotanddens/R/7_Ratio_750_L_3_R_4.png","xmouse":[810,810,810,810,810,810,810,810,810,810,810,810,810,810,810,810,809,805,798,789,784,771,769,769,770,770,764,761,752,738,730,731,741,756,794,849,933,953,965,974,981,990,993,997,1007,1014,1030,1036,1041,1044,1048,1055,1059],"ymouse":[618,618,618,618,618,618,618,618,618,618,618,618,618,618,610,599,566,551,533,515,506,471,466,458,441,415,373,349,287,217,175,112,92,72,37,10,0,0,0,0,0,0,1,4,9,13,19,22,23,24,25,25,25],"timestamp_mouse":[11,37,50,70,90,110,129,149,169,189,209,230,250,269,290,310,329,349,369,389,410,430,450,469,490,509,530,550,570,589,609,629,650,669,689,709,730,749,769,789,810,830,850,870,889,910,929,949,969,990,1010,1030,1049],"xSR":741.5,"ySR":573.95,"xT1":424.9,"yT1":0,"xT2":1058.1,"yT2":0,"toosoon":0,"cond_shown":"equaldotanddens","ratio_trial":750,"smaller_num":"3","larger_num":"4","correct_side":2,"subjID":"LauraPuentes34","gender":"1","age":"9","school":"4"},{"start_time":1552070093113,"click_time":1552070094541,"finger_time":1552070093562,"fix_duration":511.31364034431334,"trial":56,"RT":449,"MT":979,"sideResp":2,"stimulus":"img/500/equaldotanddens/R/14_Ratio_500_L_5_R_10.png","xmouse":[828,828,828,828,828,828,828,828,827,825,824,824,824,823,823,823,823,823,822,822,821,821,821,821,821,821,821,821,824,826,831,833,836,843,846,850,854,857,862,865,870,873,882,911,929,951,975,1002,1092,1174,1212,1246,1266,1274,1274,1274,1274,1274,1274,1272,1266,1262,1258,1255,1252,1248,1243,1235,1207,1185,1169,1152],"ymouse":[611,611,611,611,611,611,611,611,612,612,612,612,612,612,612,612,612,612,611,604,597,578,560,513,488,464,438,416,359,348,316,296,273,227,208,190,170,157,140,137,132,131,128,121,116,111,106,103,100,94,88,83,81,80,80,80,80,80,80,84,86,88,88,88,88,88,88,84,70,60,53,48],"timestamp_mouse":[10,28,48,68,88,110,128,149,168,189,209,229,248,269,288,309,329,348,368,389,408,429,449,468,488,510,528,549,569,588,609,628,648,669,689,709,729,748,768,788,809,829,848,868,888,908,928,948,968,988,1009,1029,1048,1068,1088,1109,1129,1149,1168,1189,1209,1229,1248,1268,1288,1308,1329,1349,1368,1389,1409,1428],"xSR":741.5,"ySR":573.95,"xT1":424.9,"yT1":0,"xT2":1058.1,"yT2":0,"toosoon":0,"cond_shown":"equaldotanddens","ratio_trial":500,"smaller_num":"5","larger_num":"10","correct_side":2,"subjID":"LauraPuentes34","gender":"1","age":"9","school":"4"},{"start_time":1552070095724,"click_time":1552070097201,"finger_time":1552070095941,"fix_duration":301.3453715167541,"trial":57,"RT":217,"MT":1260,"sideResp":2,"stimulus":"img/750/randomdotsizeEA/R/5_Ratio_750_L_15_R_20.png","xmouse":[789,789,789,789,789,788,786,783,771,758,740,722,708,708,708,708,708,708,708,708,707,707,707,707,707,707,708,717,725,733,743,753,774,783,791,797,804,811,812,812,812,812,812,810,809,807,805,802,801,804,813,818,827,833,839,844,846,846,846,846,851,858,877,885,887,888,888,892,901,904,907,916,927,1136],"ymouse":[592,592,592,592,592,592,591,591,592,602,612,623,628,628,628,628,628,628,628,628,627,622,616,587,565,544,521,470,428,399,368,345,305,287,273,260,242,219,212,205,197,186,180,171,167,163,160,153,138,123,110,102,95,94,92,91,91,90,90,90,80,66,29,18,16,16,16,18,25,27,29,33,39,94],"timestamp_mouse":[17,37,58,78,97,118,137,158,177,197,217,237,258,277,297,317,338,358,377,397,418,438,458,477,497,517,538,557,577,597,618,638,658,677,698,719,738,758,778,797,817,837,857,877,897,917,938,957,977,998,1017,1037,1058,1077,1098,1117,1138,1158,1177,1197,1217,1237,1258,1277,1298,1319,1337,1357,1379,1398,1418,1437,1458,1477],"xSR":741.5,"ySR":573.95,"xT1":424.9,"yT1":0,"xT2":1058.1,"yT2":0,"toosoon":0,"cond_shown":"randomdotsizeEA","ratio_trial":750,"smaller_num":"15","larger_num":"20","correct_side":2,"subjID":"LauraPuentes34","gender":"1","age":"9","school":"4"},{"start_time":1552070098679,"click_time":1552070099823,"finger_time":1552070099201,"fix_duration":315.18411396138004,"trial":58,"RT":522,"MT":622,"sideResp":1,"stimulus":"img/500/equaldotsize/L/10_Ratio_500_L_4_R_2.png","xmouse":[784,784,784,784,784,784,784,784,784,784,784,784,784,784,784,784,784,784,784,784,784,784,784,787,788,788,787,785,780,776,771,770,770,770,770,771,774,777,778,778,776,775,774,771,768,764,760,757,756,754,750,731,710,686,656,584,547,518],"ymouse":[639,639,639,639,639,639,639,639,639,639,639,639,639,639,639,639,639,639,639,639,639,639,639,624,608,589,550,526,496,461,419,371,338,305,272,212,186,165,149,135,98,89,77,66,57,52,48,47,46,45,45,43,43,43,43,48,51,52],"timestamp_mouse":[10,38,42,62,82,103,122,143,163,183,202,224,243,263,282,302,322,343,362,382,402,423,442,463,483,502,522,543,563,582,602,622,642,662,682,703,723,743,763,783,804,823,843,863,882,902,922,944,962,983,1002,1022,1042,1062,1082,1103,1122,1144],"xSR":741.5,"ySR":573.95,"xT1":424.9,"yT1":0,"xT2":1058.1,"yT2":0,"toosoon":0,"cond_shown":"equaldotsize","ratio_trial":500,"smaller_num":"2","larger_num":"4","correct_side":1,"subjID":"LauraPuentes34","gender":"1","age":"9","school":"4"},{"start_time":1552070103402,"click_time":1552070104821,"finger_time":1552070104101,"fix_duration":879.7112415518758,"trial":59,"RT":699,"MT":720,"sideResp":2,"stimulus":"img/250/equaldotanddens/R/6_Ratio_250_L_6_R_24.png","xmouse":[800,800,800,800,802,802,802,802,802,803,803,803,803,803,803,804,804,804,804,804,804,804,804,804,804,804,804,804,801,798,798,797,797,797,797,798,806,812,817,823,825,827,831,835,840,841,841,841,842,844,850,853,855,857,860,861,863,864,869,879,888,898,913,924,936,970,988,1006,1022,1058,1072],"ymouse":[593,593,593,593,594,594,594,594,594,594,594,594,594,594,594,595,595,595,595,595,595,595,595,595,595,595,595,595,590,583,581,580,579,578,560,534,479,430,394,364,359,351,343,335,310,294,279,263,247,224,200,183,171,164,155,153,149,147,146,143,139,134,127,122,115,101,95,89,83,71,66],"timestamp_mouse":[20,39,63,80,100,119,139,160,179,199,220,240,261,280,301,320,340,360,381,399,420,439,460,481,500,520,540,559,580,599,619,640,660,679,699,719,739,759,780,799,819,839,860,880,899,919,939,959,979,999,1019,1040,1059,1079,1099,1119,1140,1159,1179,1199,1219,1240,1260,1279,1300,1319,1340,1360,1379,1400,1419],"xSR":741.5,"ySR":573.95,"xT1":424.9,"yT1":0,"xT2":1058.1,"yT2":0,"toosoon":0,"cond_shown":"equaldotanddens","ratio_trial":250,"smaller_num":"6","larger_num":"24","correct_side":2,"subjID":"LauraPuentes34","gender":"1","age":"9","school":"4"},{"start_time":1552070107055,"click_time":1552070108122,"finger_time":1552070107641,"fix_duration":1352.4854819950415,"trial":60,"RT":586,"MT":481,"sideResp":1,"stimulus":"img/900/equaldotsize/R/12_Ratio_900_L_18_R_20.png","xmouse":[799,799,799,799,799,799,799,799,799,799,799,799,799,799,799,799,799,799,799,799,799,799,799,799,799,799,799,798,800,804,808,812,826,829,831,831,828,768,711,639,567,523,505,504,502,501,499,499,499,499,499,499,498,497],"ymouse":[602,602,602,602,602,602,602,602,602,602,602,602,602,602,602,602,602,602,602,602,602,602,602,602,602,602,602,601,585,568,549,522,468,440,414,391,371,217,131,45,0,0,0,0,0,0,0,0,0,0,0,0,0,2],"timestamp_mouse":[9,26,48,66,87,107,127,147,166,186,206,227,248,268,287,306,326,347,367,386,407,426,447,468,487,507,527,546,568,586,607,626,647,666,687,707,726,747,766,786,806,826,847,866,887,906,927,947,967,987,1006,1026,1048,1066],"xSR":741.5,"ySR":573.95,"xT1":424.9,"yT1":0,"xT2":1058.1,"yT2":0,"toosoon":0,"cond_shown":"equaldotsize","ratio_trial":900,"smaller_num":"18","larger_num":"20","correct_side":2,"subjID":"LauraPuentes34","gender":"1","age":"9","school":"4"},{"start_time":1552070111635,"click_time":1552070112921,"finger_time":1552070112421,"fix_duration":250,"trial":61,"RT":786,"MT":500,"sideResp":2,"stimulus":"img/250/equaldotanddens/R/11_Ratio_250_L_3_R_12.png","xmouse":[783,783,783,783,783,783,783,783,783,783,782,782,782,782,782,782,782,782,782,782,782,782,782,782,782,782,782,782,782,780,780,780,780,780,780,780,780,779,779,800,814,828,834,834,836,836,836,836,838,856,869,883,897,902,915,920,925,932,936,946,954,966,980,1001,1078],"ymouse":[629,626,626,622,621,621,621,621,621,621,620,620,620,620,620,620,620,620,620,620,620,620,620,620,620,620,620,620,620,622,622,622,622,622,622,622,622,622,618,552,446,333,237,172,149,149,149,148,141,107,84,61,43,38,33,33,32,30,30,29,29,29,31,36,55],"timestamp_mouse":[14,39,47,67,86,107,127,148,167,187,208,226,247,267,286,307,326,346,366,387,407,427,447,467,486,507,526,546,566,587,606,626,647,667,688,707,727,746,766,786,806,827,846,867,886,906,927,946,966,987,1007,1026,1046,1066,1086,1106,1127,1146,1168,1188,1206,1227,1247,1268,1286],"xSR":741.5,"ySR":573.95,"xT1":424.9,"yT1":0,"xT2":1058.1,"yT2":0,"toosoon":0,"cond_shown":"equaldotanddens","ratio_trial":250,"smaller_num":"3","larger_num":"12","correct_side":2,"subjID":"LauraPuentes34","gende