[{"start_time":1552069044170,"click_time":1552069046128,"finger_time":1552069045527,"fix_duration":918.1916909255164,"trial":0,"RT":1357,"MT":601,"sideResp":2,"stimulus":[],"xmouse":[797,797,797,797,797,797,797,797,797,797,797,797,797,797,797,797,797,797,797,797,798,798,798,798,798,798,798,798,798,798,798,798,798,798,798,798,798,798,798,798,799,799,800,800,800,800,800,800,800,800,800,800,800,800,800,800,800,800,800,800,800,800,800,800,800,800,799,796,790,776,773,774,781,790,821,830,835,842,846,857,864,875,885,896,919,933,949,959,967,978,985,995,1008,1022,1045,1052,1059,1069,1080],"ymouse":[587,587,587,587,587,587,587,587,587,587,587,587,587,587,587,587,587,587,587,587,587,587,587,587,587,587,587,587,587,587,587,587,587,587,587,587,587,587,587,587,587,587,587,587,587,587,587,587,587,587,587,587,587,587,587,587,587,587,587,587,587,587,587,587,587,587,584,576,564,520,498,475,450,422,346,325,299,283,277,265,254,241,222,207,167,150,138,131,126,121,121,121,121,121,119,118,115,108,96],"timestamp_mouse":[10,18,44,58,79,99,117,137,159,179,197,218,239,258,279,298,317,339,357,378,398,419,438,459,479,497,518,538,559,577,597,618,638,659,679,697,718,738,758,777,798,819,838,858,877,897,919,939,957,979,998,1018,1037,1059,1078,1098,1118,1139,1158,1177,1198,1219,1239,1258,1279,1298,1317,1338,1357,1378,1397,1418,1437,1458,1478,1498,1518,1537,1557,1577,1598,1617,1639,1658,1678,1699,1718,1738,1759,1778,1798,1818,1838,1859,1878,1899,1917,1937,1957],"xSR":741.5,"ySR":500.5,"xT1":424.9,"yT1":0,"xT2":1058.1,"yT2":0,"toosoon":0,"cond_shown":"Incongruent","ratio_trial":100,"L_num":9,"L_den":15,"R_num":13,"R_den":26,"correct_side":1,"subjID":"LauraPuentes34","gender":"1","age":"9","school":"4","test":{"fix_dur":[250,1500],"timestim":1000,"targets_dim":[100,100],"targets_relative_coord":[0.3,0.7],"size_stim":[880,420],"start_dim":[100,100],"size_start":[300,300],"size_fix":60,"samplingrate":20,"img_types":["Congruent","Incongruent"],"ratios":[100,200,300],"rep_conds":19,"nTrials":120,"trials_to_rest":500,"Trials_order":[85,33,12,9,58,75,45,4,68,35,22,84,81,25,14,18,91,28,17,56,70,92,117,24,59,66,113,86,108,11,57,44,98,63,36,49,51,62,53,90,71,46,107,29,31,69,5,67,99,47,61,95,93,111,21,8,115,50,65,77,89,37,48,101,105,64,97,41,102,96,54,118,82,38,20,0,110,40,60,72,30,43,112,80,79,1,42,73,15,26,94,100,7,114,109,83,32,16,104,106,103,74,34,52,119,13,78,76,55,3,6,19,88,116,87,10,27,2,23,39],"cond_shown":["Incongruent","Incongruent","Congruent","Incongruent","Congruent","Incongruent","Incongruent","Congruent","Congruent","Incongruent","Congruent","Congruent","Incongruent","Incongruent","Congruent","Congruent","Incongruent","Congruent","Incongruent","Congruent","Congruent","Congruent","Incongruent","Congruent","Incongruent","Congruent","Incongruent","Congruent","Congruent","Incongruent","Incongruent","Congruent","Congruent","Incongruent","Congruent","Incongruent","Incongruent","Congruent","Incongruent","Congruent","Incongruent","Congruent","Incongruent","Incongruent","Incongruent","Incongruent","Incongruent","Incongruent","Incongruent","Incongruent","Incongruent","Incongruent","Incongruent","Incongruent","Incongruent","Congruent","Incongruent","Congruent","Incongruent","Incongruent","Incongruent","Incongruent","Congruent","Incongruent","Incongruent","Congruent","Incongruent","Incongruent","Congruent","Congruent","Congruent","Congruent","Congruent","Congruent","Congruent","Congruent","Congruent","Congruent","Congruent","Congruent","Congruent","Incongruent","Congruent","Congruent","Incongruent","Incongruent","Congruent","Incongruent","Incongruent","Congruent","Congruent","Congruent","Incongruent","Congruent","Incongruent","Incongruent","Congruent","Congruent","Congruent","Congruent","Incongruent","Congruent","Congruent","Congruent","Incongruent","Incongruent","Congruent","Congruent","Incongruent","Incongruent","Congruent","Incongruent","Congruent","Congruent","Incongruent","Congruent","Incongruent","Congruent","Incongruent","Incongruent"],"ratio_trial":[100,200,100,200,300,200,200,300,200,300,300,100,200,100,200,100,100,300,300,200,300,200,200,100,300,100,300,200,100,300,200,200,200,200,100,100,200,200,300,100,300,300,300,300,100,200,300,100,200,300,100,300,200,200,200,200,100,200,300,300,300,100,100,300,200,300,100,300,100,100,100,300,300,200,200,100,200,300,100,100,100,100,300,200,100,100,100,100,200,200,300,300,100,100,100,300,200,300,200,300,100,200,300,300,300,100,100,300,100,200,100,100,300,200,200,300,200,200,300,200],"left_num":[9,9,11,7,7,1,7,1,3,4,20,7,4,9,6,11,9,3,3,5,20,12,9,6,8,4,1,3,3,13,7,6,3,6,7,12,7,7,4,11,13,24,1,1,12,9,2,12,1,7,3,4,3,4,4,6,12,3,13,4,8,8,6,13,7,20,12,13,2,3,2,7,1,6,12,4,8,8,15,2,4,12,2,3,11,10,3,9,4,5,1,11,8,3,6,4,21,3,8,12,3,3,11,11,4,3,12,24,11,11,7,6,20,12,1,2,14,12,8,1],"right_num":[13,8,6,12,20,2,12,7,11,2,13,15,6,20,11,6,6,2,4,14,5,6,8,5,9,6,3,11,2,12,8,7,14,3,15,2,4,18,2,4,12,2,3,2,2,8,6,9,3,8,8,2,11,6,6,3,9,14,12,2,14,6,15,12,12,8,2,12,11,4,6,20,3,11,6,6,7,1,13,6,6,2,12,14,9,8,2,14,6,14,6,4,6,4,13,2,2,4,3,2,11,14,1,2,2,7,13,8,9,3,9,11,9,6,2,10,12,6,14,2],"left_den":[15,15,22,10,14,3,10,20,10,20,25,14,5,10,20,22,18,6,6,10,25,20,15,20,10,8,2,10,6,26,10,12,6,20,14,30,15,15,20,22,26,30,2,2,30,15,4,24,2,10,5,20,4,5,5,15,24,10,26,20,10,16,12,26,10,25,30,26,5,20,5,14,5,20,20,8,15,16,25,5,8,30,10,10,22,25,6,15,5,10,5,22,16,20,10,20,30,6,15,24,5,6,22,22,20,9,30,30,22,20,14,10,25,20,3,20,30,15,10,3],"right_den":[26,10,15,24,25,15,24,20,22,4,26,25,10,25,22,15,10,10,20,20,10,15,10,25,18,10,15,22,5,15,16,10,20,6,25,4,6,27,4,10,15,4,15,10,4,10,30,15,10,20,16,4,20,10,10,15,15,28,15,4,28,10,25,15,24,16,4,15,22,16,12,25,6,22,15,10,21,5,26,12,10,4,24,28,15,16,5,28,10,20,12,20,10,16,26,4,4,5,9,10,22,20,5,10,4,30,26,16,15,4,15,22,18,15,15,25,18,10,28,15],"correct_side":[1,2,1,1,2,1,1,2,2,2,1,2,1,1,2,1,2,1,1,2,1,1,2,1,1,2,1,2,1,2,1,2,2,2,2,2,2,2,2,1,2,1,1,1,2,2,1,2,1,1,1,2,1,1,1,1,2,2,2,2,1,2,2,2,1,1,2,2,2,2,2,2,2,2,1,2,1,1,1,2,2,2,2,2,2,2,1,1,1,2,2,1,2,2,1,2,1,2,1,1,1,2,1,1,2,1,2,1,2,2,2,1,1,1,1,2,2,1,1,1],"img_shown":["img2/100/Incongruent/L/I_Dist_100_LN_9_LD_15_RN_13_RD_26_0.png","img2/200/Incongruent/R/I_Dist_200_LN_9_LD_15_RN_8_RD_10_1.png","img2/100/Congruent/L/C_Dist_100_LN_11_LD_22_RN_6_RD_15_0.png","img2/200/Incongruent/L/I_Dist_200_LN_7_LD_10_RN_12_RD_24_0.png","img2/300/Congruent/R/C_Dist_300_LN_7_LD_14_RN_20_RD_25_1.png","img2/200/Incongruent/L/I_Dist_200_LN_1_LD_3_RN_2_RD_15_0.png","img2/200/Incongruent/L/I_Dist_200_LN_7_LD_10_RN_12_RD_24_0.png","img2/300/Congruent/R/C_Dist_300_LN_1_LD_20_RN_7_RD_20_1.png","img2/200/Congruent/R/C_Dist_200_LN_3_LD_10_RN_11_RD_22_1.png","img2/300/Incongruent/R/I_Dist_300_LN_4_LD_20_RN_2_RD_4_1.png","img2/300/Congruent/L/C_Dist_300_LN_20_LD_25_RN_13_RD_26_0.png","img2/100/Congruent/R/C_Dist_100_LN_7_LD_14_RN_15_RD_25_1.png","img2/200/Incongruent/L/I_Dist_200_LN_4_LD_5_RN_6_RD_10_0.png","img2/100/Incongruent/L/I_Dist_100_LN_9_LD_10_RN_20_RD_25_0.png","img2/200/Congruent/R/C_Dist_200_LN_6_LD_20_RN_11_RD_22_1.png","img2/100/Congruent/L/C_Dist_100_LN_11_LD_22_RN_6_RD_15_0.png","img2/100/Incongruent/R/I_Dist_100_LN_9_LD_18_RN_6_RD_10_1.png","img2/300/Congruent/L/C_Dist_300_LN_3_LD_6_RN_2_RD_10_0.png","img2/300/Incongruent/L/I_Dist_300_LN_3_LD_6_RN_4_RD_20_0.png","img2/200/Congruent/R/C_Dist_200_LN_5_LD_10_RN_14_RD_20_1.png","img2/300/Congruent/L/C_Dist_300_LN_20_LD_25_RN_5_RD_10_0.png","img2/200/Congruent/L/C_Dist_200_LN_12_LD_20_RN_6_RD_15_0.png","img2/200/Incongruent/R/I_Dist_200_LN_9_LD_15_RN_8_RD_10_1.png","img2/100/Congruent/L/C_Dist_100_LN_6_LD_20_RN_5_RD_25_0.png","img2/300/Incongruent/L/I_Dist_300_LN_8_LD_10_RN_9_RD_18_0.png","img2/100/Congruent/R/C_Dist_100_LN_4_LD_8_RN_6_RD_10_1.png","img2/300/Incongruent/L/I_Dist_300_LN_1_LD_2_RN_3_RD_15_0.png","img2/200/Congruent/R/C_Dist_200_LN_3_LD_10_RN_11_RD_22_1.png","img2/100/Congruent/L/C_Dist_100_LN_3_LD_6_RN_2_RD_5_0.png","img2/300/Incongruent/R/I_Dist_300_LN_13_LD_26_RN_12_RD_15_1.png","img2/200/Incongruent/L/I_Dist_200_LN_7_LD_10_RN_8_RD_16_0.png","img2/200/Congruent/R/C_Dist_200_LN_6_LD_12_RN_7_RD_10_1.png","img2/200/Congruent/R/C_Dist_200_LN_3_LD_6_RN_14_RD_20_1.png","img2/200/Incongruent/R/I_Dist_200_LN_6_LD_20_RN_3_RD_6_1.png","img2/100/Congruent/R/C_Dist_100_LN_7_LD_14_RN_15_RD_25_1.png","img2/100/Incongruent/R/I_Dist_100_LN_12_LD_30_RN_2_RD_4_1.png","img2/200/Incongruent/R/I_Dist_200_LN_7_LD_15_RN_4_RD_6_1.png","img2/200/Congruent/R/C_Dist_200_LN_7_LD_15_RN_18_RD_27_1.png","img2/300/Incongruent/R/I_Dist_300_LN_4_LD_20_RN_2_RD_4_1.png","img2/100/Congruent/L/C_Dist_100_LN_11_LD_22_RN_4_RD_10_0.png","img2/300/Incongruent/R/I_Dist_300_LN_13_LD_26_RN_12_RD_15_1.png","img2/300/Congruent/L/C_Dist_300_LN_24_LD_30_RN_2_RD_4_0.png","img2/300/Incongruent/L/I_Dist_300_LN_1_LD_2_RN_3_RD_15_0.png","img2/300/Incongruent/L/I_Dist_300_LN_1_LD_2_RN_2_RD_10_0.png","img2/100/Incongruent/R/I_Dist_100_LN_12_LD_30_RN_2_RD_4_1.png","img2/200/Incongruent/R/I_Dist_200_LN_9_LD_15_RN_8_RD_10_1.png","img2/300/Incongruent/L/I_Dist_300_LN_2_LD_4_RN_6_RD_30_0.png","img2/100/Incongruent/R/I_Dist_100_LN_12_LD_24_RN_9_RD_15_1.png","img2/200/Incongruent/L/I_Dist_200_LN_1_LD_2_RN_3_RD_10_0.png","img2/300/Incongruent/L/I_Dist_300_LN_7_LD_10_RN_8_RD_20_0.png","img2/100/Incongruent/L/I_Dist_100_LN_3_LD_5_RN_8_RD_16_0.png","img2/300/Incongruent/R/I_Dist_300_LN_4_LD_20_RN_2_RD_4_1.png","img2/200/Incongruent/L/I_Dist_200_LN_3_LD_4_RN_11_RD_20_0.png","img2/200/Incongruent/L/I_Dist_200_LN_4_LD_5_RN_6_RD_10_0.png","img2/200/Incongruent/L/I_Dist_200_LN_4_LD_5_RN_6_RD_10_0.png","img2/200/Congruent/L/C_Dist_200_LN_6_LD_15_RN_3_RD_15_0.png","img2/100/Incongruent/R/I_Dist_100_LN_12_LD_24_RN_9_RD_15_1.png","img2/200/Congruent/R/C_Dist_200_LN_3_LD_10_RN_14_RD_28_1.png","img2/300/Incongruent/R/I_Dist_300_LN_13_LD_26_RN_12_RD_15_1.png","img2/300/Incongruent/R/I_Dist_300_LN_4_LD_20_RN_2_RD_4_1.png","img2/300/Incongruent/L/I_Dist_300_LN_8_LD_10_RN_14_RD_28_0.png","img2/100/Incongruent/R/I_Dist_100_LN_8_LD_16_RN_6_RD_10_1.png","img2/100/Congruent/R/C_Dist_100_LN_6_LD_12_RN_15_RD_25_1.png","img2/300/Incongruent/R/I_Dist_300_LN_13_LD_26_RN_12_RD_15_1.png","img2/200/Incongruent/L/I_Dist_200_LN_7_LD_10_RN_12_RD_24_0.png","img2/300/Congruent/L/C_Dist_300_LN_20_LD_25_RN_8_RD_16_0.png","img2/100/Incongruent/R/I_Dist_100_LN_12_LD_30_RN_2_RD_4_1.png","img2/300/Incongruent/R/I_Dist_300_LN_13_LD_26_RN_12_RD_15_1.png","img2/100/Congruent/R/C_Dist_100_LN_2_LD_5_RN_11_RD_22_1.png","img2/100/Congruent/R/C_Dist_100_LN_3_LD_20_RN_4_RD_16_1.png","img2/100/Congruent/R/C_Dist_100_LN_2_LD_5_RN_6_RD_12_1.png","img2/300/Congruent/R/C_Dist_300_LN_7_LD_14_RN_20_RD_25_1.png","img2/300/Congruent/R/C_Dist_300_LN_1_LD_5_RN_3_RD_6_1.png","img2/200/Congruent/R/C_Dist_200_LN_6_LD_20_RN_11_RD_22_1.png","img2/200/Congruent/L/C_Dist_200_LN_12_LD_20_RN_6_RD_15_0.png","img2/100/Congruent/R/C_Dist_100_LN_4_LD_8_RN_6_RD_10_1.png","img2/200/Congruent/L/C_Dist_200_LN_8_LD_15_RN_7_RD_21_0.png","img2/300/Congruent/L/C_Dist_300_LN_8_LD_16_RN_1_RD_5_0.png","img2/100/Congruent/L/C_Dist_100_LN_15_LD_25_RN_13_RD_26_0.png","img2/100/Congruent/R/C_Dist_100_LN_2_LD_5_RN_6_RD_12_1.png","img2/100/Congruent/R/C_Dist_100_LN_4_LD_8_RN_6_RD_10_1.png","img2/100/Incongruent/R/I_Dist_100_LN_12_LD_30_RN_2_RD_4_1.png","img2/300/Congruent/R/C_Dist_300_LN_2_LD_10_RN_12_RD_24_1.png","img2/200/Congruent/R/C_Dist_200_LN_3_LD_10_RN_14_RD_28_1.png","img2/100/Incongruent/R/I_Dist_100_LN_11_LD_22_RN_9_RD_15_1.png","img2/100/Incongruent/R/I_Dist_100_LN_10_LD_25_RN_8_RD_16_1.png","img2/100/Congruent/L/C_Dist_100_LN_3_LD_6_RN_2_RD_5_0.png","img2/100/Incongruent/L/I_Dist_100_LN_9_LD_15_RN_14_RD_28_0.png","img2/200/Incongruent/L/I_Dist_200_LN_4_LD_5_RN_6_RD_10_0.png","img2/200/Congruent/R/C_Dist_200_LN_5_LD_10_RN_14_RD_20_1.png","img2/300/Congruent/R/C_Dist_300_LN_1_LD_5_RN_6_RD_12_1.png","img2/300/Congruent/L/C_Dist_300_LN_11_LD_22_RN_4_RD_20_0.png","img2/100/Incongruent/R/I_Dist_100_LN_8_LD_16_RN_6_RD_10_1.png","img2/100/Congruent/R/C_Dist_100_LN_3_LD_20_RN_4_RD_16_1.png","img2/100/Incongruent/L/I_Dist_100_LN_6_LD_10_RN_13_RD_26_0.png","img2/300/Incongruent/R/I_Dist_300_LN_4_LD_20_RN_2_RD_4_1.png","img2/200/Congruent/L/C_Dist_200_LN_21_LD_30_RN_2_RD_4_0.png","img2/300/Congruent/R/C_Dist_300_LN_3_LD_6_RN_4_RD_5_1.png","img2/200/Congruent/L/C_Dist_200_LN_8_LD_15_RN_3_RD_9_0.png","img2/300/Congruent/L/C_Dist_300_LN_12_LD_24_RN_2_RD_10_0.png","img2/100/Incongruent/L/I_Dist_100_LN_3_LD_5_RN_11_RD_22_0.png","img2/200/Congruent/R/C_Dist_200_LN_3_LD_6_RN_14_RD_20_1.png","img2/300/Congruent/L/C_Dist_300_LN_11_LD_22_RN_1_RD_5_0.png","img2/300/Congruent/L/C_Dist_300_LN_11_LD_22_RN_2_RD_10_0.png","img2/300/Incongruent/R/I_Dist_300_LN_4_LD_20_RN_2_RD_4_1.png","img2/100/Incongruent/L/I_Dist_100_LN_3_LD_9_RN_7_RD_30_0.png","img2/100/Congruent/R/C_Dist_100_LN_12_LD_30_RN_13_RD_26_1.png","img2/300/Congruent/L/C_Dist_300_LN_24_LD_30_RN_8_RD_16_0.png","img2/100/Incongruent/R/I_Dist_100_LN_11_LD_22_RN_9_RD_15_1.png","img2/200/Incongruent/R/I_Dist_200_LN_11_LD_20_RN_3_RD_4_1.png","img2/100/Congruent/R/C_Dist_100_LN_7_LD_14_RN_9_RD_15_1.png","img2/100/Incongruent/L/I_Dist_100_LN_6_LD_10_RN_11_RD_22_0.png","img2/300/Congruent/L/C_Dist_300_LN_20_LD_25_RN_9_RD_18_0.png","img2/200/Congruent/L/C_Dist_200_LN_12_LD_20_RN_6_RD_15_0.png","img2/200/Incongruent/L/I_Dist_200_LN_1_LD_3_RN_2_RD_15_0.png","img2/300/Congruent/R/C_Dist_300_LN_2_LD_20_RN_10_RD_25_1.png","img2/200/Incongruent/R/I_Dist_200_LN_14_LD_30_RN_12_RD_18_1.png","img2/200/Congruent/L/C_Dist_200_LN_12_LD_15_RN_6_RD_10_0.png","img2/300/Incongruent/L/I_Dist_300_LN_8_LD_10_RN_14_RD_28_0.png","img2/200/Incongruent/L/I_Dist_200_LN_1_LD_3_RN_2_RD_15_0.png"],"dist100_C":[["C_Dist_100_LN_10_LD_25_RN_3_RD_10_0.png","C_Dist_100_LN_11_LD_22_RN_4_RD_10_0.png","C_Dist_100_LN_11_LD_22_RN_6_RD_15_0.png","C_Dist_100_LN_15_LD_25_RN_13_RD_26_0.png","C_Dist_100_LN_3_LD_6_RN_2_RD_5_0.png","C_Dist_100_LN_6_LD_20_RN_5_RD_25_0.png","C_Dist_100_LN_8_LD_16_RN_2_RD_5_0.png","C_Dist_100_LN_9_LD_15_RN_8_RD_16_0.png"],["C_Dist_100_LN_1_LD_2_RN_18_RD_30_1.png","C_Dist_100_LN_1_LD_2_RN_3_RD_5_1.png","C_Dist_100_LN_12_LD_30_RN_13_RD_26_1.png","C_Dist_100_LN_2_LD_5_RN_11_RD_22_1.png","C_Dist_100_LN_2_LD_5_RN_6_RD_12_1.png","C_Dist_100_LN_3_LD_20_RN_4_RD_16_1.png","C_Dist_100_LN_4_LD_10_RN_15_RD_30_1.png","C_Dist_100_LN_4_LD_8_RN_6_RD_10_1.png","C_Dist_100_LN_6_LD_12_RN_15_RD_25_1.png","C_Dist_100_LN_7_LD_14_RN_15_RD_25_1.png","C_Dist_100_LN_7_LD_14_RN_9_RD_15_1.png"]],"dist100_I":[["I_Dist_100_LN_1_LD_2_RN_8_RD_20_0.png","I_Dist_100_LN_2_LD_4_RN_6_RD_15_0.png","I_Dist_100_LN_2_LD_4_RN_8_RD_20_0.png","I_Dist_100_LN_3_LD_5_RN_11_RD_22_0.png","I_Dist_100_LN_3_LD_5_RN_8_RD_16_0.png","I_Dist_100_LN_3_LD_6_RN_4_RD_10_0.png","I_Dist_100_LN_3_LD_9_RN_7_RD_30_0.png","I_Dist_100_LN_4_LD_8_RN_8_RD_20_0.png","I_Dist_100_LN_6_LD_10_RN_11_RD_22_0.png","I_Dist_100_LN_6_LD_10_RN_13_RD_26_0.png","I_Dist_100_LN_6_LD_10_RN_7_RD_14_0.png","I_Dist_100_LN_9_LD_10_RN_20_RD_25_0.png","I_Dist_100_LN_9_LD_15_RN_13_RD_26_0.png","I_Dist_100_LN_9_LD_15_RN_14_RD_28_0.png"],["I_Dist_100_LN_10_LD_25_RN_8_RD_16_1.png","I_Dist_100_LN_10_LD_25_RN_9_RD_18_1.png","I_Dist_100_LN_11_LD_22_RN_9_RD_15_1.png","I_Dist_100_LN_12_LD_24_RN_9_RD_15_1.png","I_Dist_100_LN_12_LD_30_RN_2_RD_4_1.png","I_Dist_100_LN_13_LD_26_RN_12_RD_20_1.png","I_Dist_100_LN_13_LD_26_RN_6_RD_10_1.png","I_Dist_100_LN_17_LD_30_RN_10_RD_15_1.png","I_Dist_100_LN_6_LD_12_RN_3_RD_5_1.png","I_Dist_100_LN_8_LD_16_RN_6_RD_10_1.png","I_Dist_100_LN_8_LD_20_RN_1_RD_2_1.png","I_Dist_100_LN_9_LD_18_RN_6_RD_10_1.png"]],"dist100_S":[["E_Dist_100_LN_2_LD_12_RN_2_RD_30_0.png","E_Dist_100_LN_6_LD_10_RN_6_RD_12_0.png"],["E_Dist_100_LN_6_LD_12_RN_6_RD_10_1.png"]],"dist200_C":[["C_Dist_200_LN_11_LD_22_RN_3_RD_10_0.png","C_Dist_200_LN_12_LD_15_RN_6_RD_10_0.png","C_Dist_200_LN_12_LD_20_RN_6_RD_15_0.png","C_Dist_200_LN_14_LD_28_RN_6_RD_20_0.png","C_Dist_200_LN_15_LD_25_RN_4_RD_10_0.png","C_Dist_200_LN_16_LD_20_RN_12_RD_20_0.png","C_Dist_200_LN_16_LD_30_RN_9_RD_27_0.png","C_Dist_200_LN_20_LD_25_RN_9_RD_15_0.png","C_Dist_200_LN_21_LD_30_RN_2_RD_4_0.png","C_Dist_200_LN_4_LD_10_RN_3_RD_15_0.png","C_Dist_200_LN_4_LD_8_RN_3_RD_10_0.png","C_Dist_200_LN_6_LD_15_RN_3_RD_15_0.png","C_Dist_200_LN_7_LD_21_RN_2_RD_15_0.png","C_Dist_200_LN_8_LD_15_RN_2_RD_6_0.png","C_Dist_200_LN_8_LD_15_RN_3_RD_9_0.png","C_Dist_200_LN_8_LD_15_RN_7_RD_21_0.png","C_Dist_200_LN_9_LD_20_RN_4_RD_16_0.png"],["C_Dist_200_LN_1_LD_2_RN_21_RD_30_1.png","C_Dist_200_LN_13_LD_26_RN_14_RD_20_1.png","C_Dist_200_LN_3_LD_10_RN_11_RD_22_1.png","C_Dist_200_LN_3_LD_10_RN_14_RD_28_1.png","C_Dist_200_LN_3_LD_10_RN_7_RD_14_1.png","C_Dist_200_LN_3_LD_12_RN_9_RD_20_1.png","C_Dist_200_LN_3_LD_6_RN_14_RD_20_1.png","C_Dist_200_LN_5_LD_10_RN_14_RD_20_1.png","C_Dist_200_LN_6_LD_12_RN_7_RD_10_1.png","C_Dist_200_LN_6_LD_20_RN_11_RD_22_1.png","C_Dist_200_LN_7_LD_15_RN_18_RD_27_1.png","C_Dist_200_LN_9_LD_30_RN_13_RD_26_1.png"]],"dist200_I":[["I_Dist_200_LN_1_LD_2_RN_3_RD_10_0.png","I_Dist_200_LN_1_LD_3_RN_2_RD_15_0.png","I_Dist_200_LN_3_LD_4_RN_11_RD_20_0.png","I_Dist_200_LN_4_LD_5_RN_6_RD_10_0.png","I_Dist_200_LN_4_LD_6_RN_14_RD_30_0.png","I_Dist_200_LN_7_LD_10_RN_12_RD_24_0.png","I_Dist_200_LN_7_LD_10_RN_14_RD_28_0.png","I_Dist_200_LN_7_LD_10_RN_8_RD_16_0.png"],["I_Dist_200_LN_11_LD_20_RN_3_RD_4_1.png","I_Dist_200_LN_14_LD_30_RN_12_RD_18_1.png","I_Dist_200_LN_14_LD_30_RN_6_RD_9_1.png","I_Dist_200_LN_3_LD_10_RN_1_RD_2_1.png","I_Dist_200_LN_4_LD_30_RN_1_RD_3_1.png","I_Dist_200_LN_6_LD_20_RN_3_RD_6_1.png","I_Dist_200_LN_7_LD_15_RN_4_RD_6_1.png","I_Dist_200_LN_7_LD_15_RN_6_RD_9_1.png","I_Dist_200_LN_9_LD_15_RN_8_RD_10_1.png"]],"dist200_S":[["E_Dist_200_LN_3_LD_6_RN_3_RD_10_0.png"],["E_Dist_200_LN_3_LD_10_RN_3_RD_6_1.png"]],"dist300_C":[["C_Dist_300_LN_11_LD_22_RN_1_RD_5_0.png","C_Dist_300_LN_11_LD_22_RN_2_RD_10_0.png","C_Dist_300_LN_11_LD_22_RN_4_RD_20_0.png","C_Dist_300_LN_12_LD_24_RN_2_RD_10_0.png","C_Dist_300_LN_18_LD_20_RN_9_RD_15_0.png","C_Dist_300_LN_20_LD_25_RN_13_RD_26_0.png","C_Dist_300_LN_20_LD_25_RN_14_RD_28_0.png","C_Dist_300_LN_20_LD_25_RN_5_RD_10_0.png","C_Dist_300_LN_20_LD_25_RN_8_RD_16_0.png","C_Dist_300_LN_20_LD_25_RN_9_RD_18_0.png","C_Dist_300_LN_24_LD_30_RN_2_RD_4_0.png","C_Dist_300_LN_24_LD_30_RN_8_RD_16_0.png","C_Dist_300_LN_3_LD_6_RN_2_RD_10_0.png","C_Dist_300_LN_4_LD_10_RN_1_RD_10_0.png","C_Dist_300_LN_4_LD_5_RN_2_RD_4_0.png","C_Dist_300_LN_8_LD_16_RN_1_RD_5_0.png","C_Dist_300_LN_9_LD_10_RN_3_RD_5_0.png"],["C_Dist_300_LN_1_LD_20_RN_7_RD_20_1.png","C_Dist_300_LN_1_LD_3_RN_19_RD_30_1.png","C_Dist_300_LN_1_LD_30_RN_8_RD_24_1.png","C_Dist_300_LN_1_LD_5_RN_11_RD_22_1.png","C_Dist_300_LN_1_LD_5_RN_3_RD_6_1.png","C_Dist_300_LN_1_LD_5_RN_6_RD_12_1.png","C_Dist_300_LN_2_LD_10_RN_12_RD_24_1.png","C_Dist_300_LN_2_LD_20_RN_10_RD_25_1.png","C_Dist_300_LN_3_LD_12_RN_11_RD_20_1.png","C_Dist_300_LN_3_LD_6_RN_4_RD_5_1.png","C_Dist_300_LN_4_LD_20_RN_13_RD_26_1.png","C_Dist_300_LN_5_LD_25_RN_6_RD_12_1.png","C_Dist_300_LN_5_LD_25_RN_7_RD_14_1.png","C_Dist_300_LN_7_LD_14_RN_20_RD_25_1.png","C_Dist_300_LN_8_LD_15_RN_10_RD_12_1.png"]],"dist300_I":[["I_Dist_300_LN_1_LD_2_RN_2_RD_10_0.png","I_Dist_300_LN_1_LD_2_RN_3_RD_15_0.png","I_Dist_300_LN_2_LD_4_RN_6_RD_30_0.png","I_Dist_300_LN_3_LD_6_RN_4_RD_20_0.png","I_Dist_300_LN_4_LD_5_RN_6_RD_12_0.png","I_Dist_300_LN_4_LD_5_RN_8_RD_16_0.png","I_Dist_300_LN_7_LD_10_RN_8_RD_20_0.png","I_Dist_300_LN_8_LD_10_RN_14_RD_28_0.png","I_Dist_300_LN_8_LD_10_RN_9_RD_18_0.png"],["I_Dist_300_LN_13_LD_26_RN_12_RD_15_1.png","I_Dist_300_LN_4_LD_20_RN_2_RD_4_1.png"]],"dist300_S":[["E_Dist_300_LN_9_LD_12_RN_9_RD_20_0.png"],["E_Dist_300_LN_18_LD_30_RN_18_RD_20_1.png","E_Dist_300_LN_3_LD_10_RN_3_RD_5_1.png","E_Dist_300_LN_9_LD_20_RN_9_RD_12_1.png"]],"dist500_C":[["C_Dist_500_LN_10_LD_13_RN_7_RD_26_0.png","C_Dist_500_LN_10_LD_15_RN_4_RD_24_0.png","C_Dist_500_LN_12_LD_16_RN_3_RD_12_0.png","C_Dist_500_LN_12_LD_18_RN_4_RD_24_0.png","C_Dist_500_LN_15_LD_18_RN_5_RD_15_0.png","C_Dist_500_LN_15_LD_20_RN_1_RD_4_0.png","C_Dist_500_LN_18_LD_27_RN_1_RD_6_0.png","C_Dist_500_LN_20_LD_24_RN_1_RD_3_0.png","C_Dist_500_LN_20_LD_24_RN_3_RD_9_0.png","C_Dist_500_LN_20_LD_24_RN_7_RD_21_0.png","C_Dist_500_LN_20_LD_28_RN_3_RD_14_0.png","C_Dist_500_LN_21_LD_28_RN_6_RD_24_0.png","C_Dist_500_LN_22_LD_28_RN_2_RD_7_0.png","C_Dist_500_LN_25_LD_30_RN_9_RD_27_0.png","C_Dist_500_LN_4_LD_6_RN_1_RD_6_0.png","C_Dist_500_LN_5_LD_6_RN_2_RD_6_0.png","C_Dist_500_LN_6_LD_9_RN_1_RD_6_0.png","C_Dist_500_LN_7_LD_10_RN_1_RD_5_0.png","C_Dist_500_LN_8_LD_12_RN_1_RD_6_0.png","C_Dist_500_LN_8_LD_12_RN_4_RD_24_0.png"],["C_Dist_500_LN_1_LD_4_RN_12_RD_16_1.png","C_Dist_500_LN_1_LD_4_RN_9_RD_12_1.png","C_Dist_500_LN_1_LD_9_RN_11_RD_18_1.png","C_Dist_500_LN_10_LD_24_RN_22_RD_24_1.png","C_Dist_500_LN_2_LD_12_RN_10_RD_15_1.png","C_Dist_500_LN_2_LD_12_RN_12_RD_18_1.png","C_Dist_500_LN_2_LD_12_RN_4_RD_6_1.png","C_Dist_500_LN_2_LD_24_RN_7_RD_12_1.png","C_Dist_500_LN_2_LD_5_RN_18_RD_20_1.png","C_Dist_500_LN_2_LD_5_RN_9_RD_10_1.png","C_Dist_500_LN_2_LD_8_RN_12_RD_16_1.png","C_Dist_500_LN_2_LD_8_RN_21_RD_28_1.png","C_Dist_500_LN_3_LD_10_RN_4_RD_5_1.png","C_Dist_500_LN_3_LD_12_RN_15_RD_20_1.png","C_Dist_500_LN_3_LD_30_RN_6_RD_10_1.png","C_Dist_500_LN_3_LD_8_RN_14_RD_16_1.png","C_Dist_500_LN_4_LD_16_RN_15_RD_20_1.png","C_Dist_500_LN_4_LD_24_RN_12_RD_18_1.png","C_Dist_500_LN_5_LD_14_RN_6_RD_7_1.png","C_Dist_500_LN_7_LD_21_RN_20_RD_24_1.png","C_Dist_500_LN_7_LD_28_RN_12_RD_16_1.png","C_Dist_500_LN_7_LD_28_RN_9_RD_12_1.png","C_Dist_500_LN_9_LD_27_RN_20_RD_24_1.png"]],"dist500_I":[["I_Dist_500_LN_2_LD_3_RN_4_RD_24_0.png","I_Dist_500_LN_5_LD_6_RN_6_RD_18_0.png","I_Dist_500_LN_7_LD_8_RN_9_RD_24_0.png"],["I_Dist_500_LN_7_LD_21_RN_5_RD_6_1.png"]],"dist500_S":[["E_Dist_500_LN_6_LD_8_RN_6_RD_24_0.png"],["E_Dist_500_LN_2_LD_12_RN_2_RD_3_1.png","E_Dist_500_LN_6_LD_24_RN_6_RD_8_1.png"]]}},{"start_time":1552069050320,"click_time":1552069052129,"finger_time":1552069051828,"fix_duration":250,"trial":1,"RT":1508,"MT":301,"sideResp":2,"stimulus":[],"xmouse":[765,765,765,765,765,765,765,766,766,766,766,766,766,766,766,766,766,766,766,766,766,766,766,766,766,766,766,766,766,766,766,766,766,766,766,766,766,766,766,766,766,766,766,766,766,766,766,766,766,766,766,766,766,766,766,766,766,766,766,766,766,766,766,766,766,766,763,757,755,754,754,754,757,760,787,830,880,955,973,986,994,1005,1020,1040,1057,1064,1066,1067,1067,1067,1067],"ymouse":[627,627,627,627,626,626,626,626,626,626,626,626,626,626,626,626,626,626,626,626,626,626,626,626,626,626,626,626,626,626,626,626,626,626,626,626,626,626,626,626,626,626,626,626,626,626,626,626,626,626,626,626,626,626,626,626,626,626,626,626,626,626,626,626,626,626,626,626,627,627,627,627,617,612,574,509,438,289,226,167,112,60,6,0,0,0,0,0,0,0,4],"timestamp_mouse":[11,28,48,69,87,108,128,148,167,189,208,228,249,268,287,307,329,348,369,388,409,427,449,469,488,508,527,549,569,588,609,628,648,668,687,708,728,748,769,789,808,827,848,869,888,909,928,949,968,989,1008,1028,1048,1068,1089,1108,1129,1149,1168,1188,1209,1229,1247,1268,1287,1308,1328,1348,1368,1388,1407,1427,1447,1468,1488,1508,1527,1547,1567,1587,1607,1627,1648,1668,1687,1708,1728,1748,1768,1787,1809],"xSR":741.5,"ySR":573.95,"xT1":424.9,"yT1":0,"xT2":1058.1,"yT2":0,"toosoon":0,"cond_shown":"Incongruent","ratio_trial":200,"L_num":9,"L_den":15,"R_num":8,"R_den":10,"correct_side":2,"subjID":"LauraPuentes34","gender":"1","school":"4","age":"9"},{"start_time":1552069055890,"click_time":1552069058689,"finger_time":1552069057707,"fix_duration":880.928929006674,"trial":2,"RT":1817,"MT":982,"sideResp":2,"stimulus":[],"xmouse":[794,794,794,794,794,794,794,794,794,794,794,794,794,794,794,794,794,794,794,794,794,794,794,794,794,794,794,794,794,794,794,794,794,794,794,794,794,794,794,794,794,794,794,794,794,794,794,794,794,794,794,794,794,794,794,794,794,794,794,794,794,794,794,794,794,794,794,794,794,794,794,794,794,794,794,794,794,794,794,794,794,794,794,794,794,791,789,782,775,753,734,713,696,686,682,681,681,683,691,716,728,728,727,726,732,734,740,749,771,771,771,771,798,800,808,818,832,851,872,924,940,950,956,959,967,972,978,981,983,985,988,991,996,1001,1015,1023,1030,1040,1048,1068],"ymouse":[618,618,618,618,618,618,618,618,618,618,618,618,618,618,618,618,618,618,618,618,618,618,618,618,618,618,618,618,618,618,618,618,618,618,618,618,618,618,618,618,618,618,618,618,618,618,618,618,618,618,618,618,618,618,618,618,618,618,618,618,618,618,618,618,618,618,618,618,618,618,618,618,618,618,618,618,618,618,618,618,618,618,618,618,618,617,617,616,606,575,559,546,537,519,489,471,442,400,360,250,192,83,49,38,26,18,8,0,0,0,0,0,0,0,0,2,4,6,6,6,6,6,6,6,3,2,1,1,0,0,0,0,0,0,5,6,10,13,14,19],"timestamp_mouse":[18,46,58,78,98,119,138,157,179,199,219,238,257,278,299,318,339,357,378,399,419,439,458,478,498,519,538,559,579,598,618,639,659,678,698,718,738,759,779,797,818,839,859,879,897,919,939,958,977,997,1018,1038,1057,1077,1099,1118,1139,1157,1179,1199,1218,1237,1259,1278,1298,1319,1339,1358,1379,1398,1418,1437,1459,1477,1497,1518,1538,1557,1578,1599,1617,1638,1659,1678,1697,1718,1737,1758,1778,1799,1817,1838,1858,1878,1899,1917,1937,1957,1977,1998,2017,2037,2059,2078,2098,2117,2138,2158,2178,2198,2218,2239,2258,2280,2298,2317,2337,2358,2377,2399,2419,2438,2458,2478,2498,2517,2537,2557,2579,2598,2618,2638,2659,2678,2699,2718,2738,2757,2778,2799],"xSR":741.5,"ySR":573.95,"xT1":424.9,"yT1":0,"xT2":1058.1,"yT2":0,"toosoon":0,"cond_shown":"Congruent","ratio_trial":100,"L_num":11,"L_den":22,"R_num":6,"R_den":15,"correct_side":1,"subjID":"LauraPuentes34","gender":"1","school":"4","age":"9"},{"start_time":1552069061582,"click_time":1552069064428,"finger_time":1552069063229,"fix_duration":1431.3585770343507,"trial":3,"RT":1647,"MT":1199,"sideResp":1,"stimulus":[],"xmouse":[804,804,804,804,804,804,804,804,804,804,804,804,804,804,804,804,804,804,804,804,804,804,804,804,804,804,804,804,804,804,804,804,804,804,804,804,804,804,804,804,804,804,804,804,804,804,804,804,804,804,804,804,804,804,804,804,804,804,804,804,804,804,804,804,804,804,804,804,804,804,804,804,804,804,804,804,804,804,804,799,783,773,761,749,736,725,720,714,706,694,656,639,623,608,597,578,571,565,558,554,551,547,547,547,547,547,547,545,540,533,526,517,514,513,511,496,490,486,483,482,478,474,470,464,461,459,459,459,459,459,459,459,459,459,459,461,463,465,467,468,468,468,469],"ymouse":[634,634,634,634,634,634,634,634,634,634,634,634,634,634,634,634,634,634,634,634,634,634,634,634,634,634,634,634,634,634,634,634,634,634,634,634,634,634,634,634,634,634,634,634,634,634,634,634,634,634,634,634,634,634,634,634,634,634,634,634,634,634,634,634,634,634,634,634,634,634,634,634,634,634,634,634,634,634,634,619,595,581,568,555,542,530,523,511,493,468,417,394,369,340,306,241,219,202,189,183,179,175,175,175,175,175,175,173,172,169,167,161,159,158,156,139,133,130,127,126,122,118,115,113,112,112,112,112,112,112,112,112,112,112,112,111,109,108,105,104,101,101,99],"timestamp_mouse":[11,25,47,67,87,107,125,147,167,187,205,225,246,267,287,307,325,347,366,387,407,426,445,467,487,506,526,547,566,585,607,626,646,667,685,707,726,746,767,787,807,825,845,865,885,905,926,945,966,987,1007,1027,1046,1067,1086,1107,1126,1147,1165,1186,1206,1227,1247,1267,1285,1307,1327,1347,1365,1386,1406,1427,1446,1467,1485,1507,1527,1546,1566,1585,1606,1626,1647,1666,1687,1706,1725,1745,1767,1786,1805,1825,1847,1865,1886,1906,1925,1946,1967,1986,2006,2025,2045,2066,2087,2106,2126,2146,2166,2186,2206,2226,2246,2265,2286,2306,2325,2345,2367,2387,2406,2425,2446,2466,2485,2507,2525,2546,2566,2586,2606,2626,2646,2667,2686,2706,2725,2746,2765,2787,2806,2825,2845],"xSR":741.5,"ySR":573.95,"xT1":424.9,"yT1":0,"xT2":1058.1,"yT2":0,"toosoon":0,"cond_shown":"Incongruent","ratio_trial":200,"L_num":7,"L_den":10,"R_num":12,"R_den":24,"correct_side":1,"subjID":"LauraPuentes34","gender":"1","school":"4","age":"9"},{"start_time":1552069067851,"click_time":1552069070167,"finger_time":1552069069307,"fix_duration":522.6566911358688,"trial":4,"RT":1456,"MT":860,"sideResp":2,"stimulus":[],"xmouse":[829,829,829,829,829,829,829,829,829,829,829,829,829,829,829,829,829,829,829,829,829,829,829,829,829,829,829,829,829,829,829,829,829,829,829,829,829,829,829,829,829,829,829,829,829,829,829,829,829,829,829,829,829,829,829,829,829,829,829,829,829,829,829,829,829,829,829,829,829,828,830,830,830,830,830,832,840,851,858,864,868,870,881,886,889,895,900,913,922,926,929,932,938,940,945,948,952,959,967,971,974,978,984,988,995,1006,1018,1041,1046,1047,1047,1047,1049,1051,1055,1062],"ymouse":[657,657,657,657,657,657,657,657,657,657,657,657,657,657,657,657,657,657,657,657,657,657,657,657,657,657,657,657,657,657,657,657,657,657,657,657,657,657,657,657,657,657,657,657,657,657,657,657,657,657,657,657,657,657,657,657,657,657,657,657,657,657,657,657,657,657,657,657,657,645,628,604,498,414,344,296,271,249,235,222,209,196,144,119,109,99,91,76,68,66,63,62,59,58,55,53,52,50,50,50,50,50,50,50,50,50,50,50,50,50,50,50,49,48,48,47],"timestamp_mouse":[17,48,57,76,97,117,137,158,177,198,218,237,258,277,297,318,336,358,377,398,417,437,458,478,497,518,536,558,577,597,618,638,656,678,697,718,737,757,778,798,817,838,857,878,897,917,938,957,976,998,1017,1037,1057,1078,1098,1117,1138,1156,1178,1198,1217,1237,1258,1276,1296,1318,1338,1356,1378,1397,1418,1436,1456,1478,1496,1516,1536,1556,1577,1597,1617,1637,1658,1676,1697,1717,1737,1757,1776,1796,1817,1837,1857,1877,1897,1917,1938,1956,1976,1997,2017,2038,2056,2077,2096,2117,2137,2157,2177,2197,2217,2237,2257,2277,2298,2316],"xSR":741.5,"ySR":573.95,"xT1":424.9,"yT1":0,"xT2":1058.1,"yT2":0,"toosoon":0,"cond_shown":"Congruent","ratio_trial":300,"L_num":7,"L_den":14,"R_num":20,"R_den":25,"correct_side":2,"subjID":"LauraPuentes34","gender":"1","school":"4","age":"9"},{"start_time":1552069072350,"click_time":1552069074488,"finger_time":1552069073408,"fix_duration":341.9285187570136,"trial":5,"RT":1058,"MT":1080,"sideResp":2,"stimulus":[],"xmouse":[808,808,808,808,808,808,808,809,809,809,809,809,809,809,809,809,809,809,809,809,809,809,809,809,809,809,809,809,809,810,811,812,813,813,813,813,813,813,813,813,813,813,813,813,813,813,813,813,813,813,813,813,813,813,813,813,813,813,813,813,813,813,813,813,813,813,813,813,813,813,813,813,813,813,813,813,811,811,802,797,792,784,772,772,784,806,826,841,875,893,912,944,954,999,1006,1009,1012,1015,1016,1019,1021,1025,1037,1042,1047,1052,1062],"ymouse":[595,595,595,595,595,594,594,593,593,593,593,593,593,593,593,593,593,593,593,593,593,593,593,593,593,593,593,593,593,593,593,592,592,592,592,592,592,592,592,592,592,592,592,592,592,592,591,589,586,585,582,577,572,572,572,572,572,572,572,572,572,572,572,572,572,572,572,572,572,572,572,572,572,572,572,572,570,567,546,530,514,487,414,373,315,263,233,217,189,176,164,148,143,120,115,111,105,101,96,91,87,81,72,70,68,66,64],"timestamp_mouse":[19,38,58,78,97,118,139,158,177,198,217,239,258,278,298,317,339,359,379,397,417,439,459,479,499,517,539,559,578,597,617,638,659,679,698,719,738,759,779,799,818,839,858,878,898,917,938,957,977,998,1018,1039,1058,1078,1099,1118,1137,1159,1179,1198,1218,1238,1258,1279,1298,1319,1338,1358,1378,1397,1418,1438,1459,1479,1497,1519,1538,1558,1578,1598,1618,1639,1658,1677,1698,1717,1737,1757,1777,1798,1818,1838,1857,1878,1898,1918,1939,1958,1978,1998,2018,2039,2058,2079,2098,2118,2138],"xSR":741.5,"ySR":573.95,"xT1":424.9,"yT1":0,"xT2":1058.1,"yT2":0,"toosoon":0,"cond_shown":"Incongruent","ratio_trial":200,"L_num":1,"L_den":3,"R_num":2,"R_den":15,"correct_side":1,"subjID":"LauraPuentes34","gender":"1","school":"4","age":"9"},{"start_time":1552069080927,"click_time":1552069083348,"finger_time":1552069082508,"fix_duration":1297.1241148918298,"trial":6,"RT":1581,"MT":840,"sideResp":1,"stimulus":[],"xmouse":[798,798,798,798,798,798,798,798,798,798,798,798,798,798,798,798,798,798,798,798,798,798,798,798,798,798,798,798,798,798,798,798,798,798,798,798,798,798,798,798,798,798,798,798,798,798,798,798,798,798,798,798,798,798,798,798,798,798,798,798,798,798,798,798,798,798,798,798,798,798,798,798,798,798,798,798,798,798,805,842,846,740,649,554,466,423,416,416,416,416,416,416,416,416,416,416,416,416,416,416,416,416,416,415,415,414,414,412,406,404,403,403,402,402,402,404,407,409,410,412,419,430],"ymouse":[660,660,660,660,660,660,660,660,660,660,660,660,660,660,660,660,660,660,660,660,660,660,660,660,660,660,660,660,660,660,660,660,660,660,660,660,660,660,660,660,660,660,660,660,660,660,660,660,660,660,660,660,660,660,660,660,660,660,660,660,660,660,660,660,660,660,660,660,660,660,660,660,660,660,660,660,660,660,607,377,134,0,0,0,0,0,0,0,0,0,0,0,0,0,0,0,0,0,0,0,0,0,0,0,0,0,0,1,14,20,22,23,24,25,27,31,36,38,39,39,43,47],"timestamp_mouse":[10,37,42,62,81,101,121,141,162,182,201,221,242,261,282,301,322,341,362,382,401,421,440,462,482,501,521,542,561,581,602,622,640,661,682,700,722,741,762,782,802,821,841,861,881,902,921,942,962,982,1002,1021,1042,1062,1082,1101,1121,1141,1162,1182,1201,1222,1242,1262,1282,1301,1321,1342,1363,1381,1402,1420,1442,1462,1482,1500,1522,1542,1561,1581,1602,1621,1640,1661,1681,1701,1721,1742,1762,1782,1802,1820,1841,1861,1881,1903,1921,1942,1962,1982,2002,2020,2041,2062,2082,2101,2122,2142,2162,2181,2200,2221,2242,2261,2281,2301,2321,2341,2362,2382,2401,2421],"xSR":741.5,"ySR":573.95,"xT1":424.9,"yT1":0,"xT2":1058.1,"yT2":0,"toosoon":0,"cond_shown":"Incongruent","ratio_trial":200,"L_num":7,"L_den":10,"R_num":12,"R_den":24,"correct_side":1,"subjID":"LauraPuentes34","gender":"1","school":"4","age":"9"},{"start_time":1552069086194,"click_time":1552069089668,"finger_time":1552069087167,"fix_duration":864.1119843746204,"trial":7,"RT":973,"MT":2501,"sideResp":1,"stimulus":[],"xmouse":[815,815,815,815,815,815,815,815,815,815,815,815,815,815,815,815,815,815,815,815,815,815,815,815,815,815,815,815,815,815,815,815,815,815,815,815,814,814,814,814,813,811,801,799,799,799,798,797,797,796,796,795,795,795,795,795,795,795,795,795,795,795,795,795,795,795,795,795,795,795,795,795,785,762,716,673,646,611,609,608,608,607,609,613,620,630,645,683,705,737,766,781,804,813,822,829,833,839,840,841,842,843,854,858,860,862,865,872,873,876,877,878,886,889,894,898,904,912,918,923,927,928,929,929,929,929,929,929,929,929,929,929,929,929,929,929,929,929,927,924,921,921,920,920,919,919,919,919,919,919,919,919,927,919,888,864,848,830,822,811,801,780,742,723,707,693,682,659,647,631,609,574,531,512],"ymouse":[647,647,647,647,647,647,647,647,647,647,647,647,647,647,647,647,647,647,647,647,647,647,647,647,647,647,647,647,647,647,647,647,647,647,647,647,647,647,647,647,647,647,666,670,671,672,672,673,675,676,676,678,679,679,679,679,679,679,679,679,679,679,679,679,679,679,679,679,679,679,679,674,646,625,606,594,585,557,550,545,537,528,506,493,482,469,451,414,393,357,325,307,284,274,265,256,250,240,232,229,222,215,196,190,187,184,181,175,173,168,165,162,156,155,152,150,146,142,139,137,136,135,135,135,135,135,135,135,135,135,135,135,135,135,135,135,135,135,135,139,142,143,145,146,147,147,147,147,147,147,147,147,130,104,72,54,49,46,45,45,45,50,58,60,63,65,66,72,73,74,74,74,74,74],"timestamp_mouse":[14,40,54,75,95,114,135,154,175,194,215,234,255,273,295,315,335,354,373,395,415,435,455,475,494,515,534,555,574,594,614,635,655,674,694,714,734,755,774,795,814,834,853,874,893,914,933,955,973,994,1015,1034,1054,1075,1095,1114,1135,1154,1174,1194,1213,1235,1255,1275,1295,1315,1334,1355,1375,1395,1415,1434,1454,1474,1495,1513,1533,1553,1575,1595,1615,1635,1654,1674,1694,1714,1735,1754,1774,1795,1815,1834,1854,1874,1894,1914,1934,1954,1975,1995,2014,2034,2054,2074,2094,2115,2135,2154,2174,2194,2215,2235,2254,2274,2294,2314,2334,2354,2373,2394,2415,2434,2454,2474,2495,2514,2534,2555,2575,2594,2615,2635,2654,2674,2694,2715,2734,2755,2774,2795,2815,2834,2855,2875,2894,2914,2934,2954,2974,2994,3014,3034,3054,3074,3094,3114,3135,3154,3174,3194,3215,3235,3254,3275,3294,3314,3335,3354,3374,3395,3415,3435,3454,3473],"xSR":741.5,"ySR":573.95,"xT1":424.9,"yT1":0,"xT2":1058.1,"yT2":0,"toosoon":0,"cond_shown":"Congruent","ratio_trial":300,"L_num":1,"L_den":20,"R_num":7,"R_den":20,"correct_side":2,"subjID":"LauraPuentes34","gender":"1","school":"4","age":"9"},{"start_time":1552069091468,"click_time":1552069094850,"finger_time":1552069093909,"fix_duration":378.6417347328279,"trial":8,"RT":2441,"MT":941,"sideResp":2,"stimulus":[],"xmouse":[766,766,766,766,766,766,766,766,770,778,779,779,779,779,779,779,779,779,779,779,779,779,779,779,779,779,779,779,779,779,779,779,779,779,779,779,779,779,779,779,779,779,779,779,779,779,779,779,779,779,779,779,779,779,779,779,779,779,779,779,779,779,779,779,779,779,779,779,779,779,779,779,779,779,779,779,779,779,779,779,779,779,779,779,779,779,779,779,779,779,779,779,779,779,779,779,779,779,779,779,779,779,779,779,779,779,779,779,779,779,779,779,779,779,779,779,779,779,779,778,762,753,746,739,734,727,724,723,721,723,736,747,760,774,795,809,830,849,853,854,854,854,856,861,869,872,873,874,878,879,880,881,882,882,883,883,883,883,883,884,892,898,904,912,920,942,952,979,1008,1061],"ymouse":[597,597,597,597,597,598,598,600,607,623,625,625,625,625,625,625,625,625,625,625,625,625,625,625,625,625,625,625,625,625,625,625,625,625,625,625,625,625,625,625,625,625,625,625,625,625,625,625,625,625,625,625,625,625,625,625,625,625,625,625,625,625,625,625,625,625,625,625,625,625,625,625,625,625,625,625,625,625,625,625,625,625,625,625,625,625,625,625,625,625,625,625,625,625,625,625,625,625,625,625,625,625,625,625,625,625,625,625,625,625,625,625,625,625,625,625,625,625,624,620,595,583,573,561,548,505,483,472,439,419,382,363,343,322,293,273,251,235,233,233,233,232,231,228,216,208,201,193,181,174,159,155,149,147,146,143,143,143,143,141,137,135,133,131,129,120,116,109,104,95],"timestamp_mouse":[9,20,41,64,80,101,121,140,160,180,200,220,241,259,281,300,321,341,361,381,401,421,441,461,481,500,520,541,561,581,601,621,640,661,680,699,721,741,760,781,800,821,839,861,881,901,920,941,959,979,1001,1020,1041,1061,1079,1099,1121,1141,1160,1180,1201,1221,1241,1261,1281,1300,1321,1340,1361,1381,1400,1420,1440,1460,1480,1500,1520,1541,1561,1579,1600,1621,1640,1660,1680,1700,1721,1741,1760,1781,1800,1821,1841,1861,1881,1900,1921,1941,1959,1979,2001,2021,2040,2060,2080,2101,2121,2141,2161,2180,2200,2220,2241,2260,2281,2300,2321,2341,2360,2380,2399,2420,2440,2461,2479,2499,2521,2540,2560,2579,2600,2621,2640,2660,2681,2700,2720,2741,2760,2781,2800,2821,2839,2863,2881,2900,2921,2940,2961,2980,3001,3020,3040,3059,3081,3100,3120,3141,3160,3179,3200,3221,3240,3260,3281,3300,3320,3340,3360,3381],"xSR":741.5,"ySR":573.95,"xT1":424.9,"yT1":0,"xT2":1058.1,"yT2":0,"toosoon":0,"cond_shown":"Congruent","ratio_trial":200,"L_num":3,"L_den":10,"R_num":11,"R_den":22,"correct_side":2,"subjID":"LauraPuentes34","gender":"1","school":"4","age":"9"},{"start_time":1552069096940,"click_time":1552069099668,"finger_time":1552069098369,"fix_duration":510.61937545708247,"trial":9,"RT":1429,"MT":1299,"sideResp":2,"stimulus":[],"xmouse":[785,785,785,785,785,785,785,784,784,784,784,784,784,784,784,784,784,784,784,784,784,784,784,784,784,784,784,784,784,784,784,784,784,784,784,784,784,784,784,784,784,784,784,784,784,784,784,784,784,784,784,784,784,784,784,784,784,784,784,784,784,784,784,784,786,790,801,802,804,805,807,826,833,836,838,839,838,833,830,827,824,822,822,822,822,822,822,822,822,822,822,822,821,820,820,819,816,814,814,816,825,840,850,859,867,873,882,884,884,884,880,873,873,871,869,867,865,865,866,867,870,889,900,912,921,930,948,957,967,976,993,1027,1034,1041,1046,1051,1065],"ymouse":[598,598,598,598,598,598,598,598,598,598,598,598,598,598,598,598,598,598,598,598,598,598,598,598,598,598,598,598,598,598,598,598,598,598,598,598,598,598,598,598,598,598,598,598,598,598,598,598,598,598,598,598,598,598,598,598,598,598,598,598,598,598,598,598,597,596,592,591,590,588,581,537,516,500,484,456,401,383,369,364,361,360,360,360,360,360,360,360,360,356,356,349,347,346,343,341,324,309,295,281,270,256,247,235,224,214,192,184,179,173,153,132,126,120,114,106,93,90,88,86,85,80,76,74,69,65,59,57,55,51,47,37,34,31,30,29,25],"timestamp_mouse":[9,28,48,69,89,108,127,149,168,189,209,229,247,269,288,308,329,349,369,388,409,429,448,469,487,508,529,548,568,588,609,629,647,669,689,709,728,749,768,788,808,829,848,868,889,908,928,948,969,989,1008,1028,1048,1068,1089,1108,1129,1149,1169,1189,1209,1229,1249,1269,1288,1308,1327,1347,1368,1388,1409,1428,1447,1468,1488,1509,1528,1547,1568,1588,1608,1629,1649,1668,1689,1708,1728,1747,1769,1788,1809,1828,1848,1869,1888,1908,1928,1948,1968,1988,2009,2028,2048,2067,2088,2108,2128,2148,2168,2188,2208,2228,2247,2269,2288,2308,2327,2348,2368,2389,2408,2428,2448,2468,2488,2508,2528,2548,2568,2588,2607,2627,2648,2667,2688,2708,2728],"xSR":741.5,"ySR":573.95,"xT1":424.9,"yT1":0,"xT2":1058.1,"yT2":0,"toosoon":0,"cond_shown":"Incongruent","ratio_trial":300,"L_num":4,"L_den":20,"R_num":2,"R_den":4,"correct_side":2,"subjID":"LauraPuentes34","gender":"1","school":"4","age":"9"},{"start_time":1552069105237,"click_time":1552069108109,"finger_time":1552069106569,"fix_duration":1247.8558284514756,"trial":10,"RT":1332,"MT":1540,"sideResp":1,"stimulus":[],"xmouse":[802,802,802,802,802,802,802,802,802,802,802,802,802,802,802,802,802,802,802,802,802,802,802,802,802,802,802,802,802,802,802,802,802,802,802,802,802,802,802,802,802,802,802,802,802,802,802,802,802,802,802,802,802,802,802,802,802,802,802,802,802,802,802,803,812,830,854,900,918,930,927,894,853,830,807,784,764,714,693,689,676,665,654,654,654,652,652,646,637,625,616,607,567,556,543,539,539,539,540,540,540,540,539,538,536,535,534,532,531,531,531,531,531,531,531,531,531,534,536,538,540,542,544,546,547,549,550,550,550,551,551,551,551,551,551,551,551,550,550,548,544,534,525,509],"ymouse":[649,649,649,649,649,649,649,649,649,649,649,649,649,649,649,649,649,649,649,649,649,649,649,649,649,649,649,649,649,649,649,649,649,649,649,649,649,649,649,649,649,649,649,649,649,649,649,649,649,649,649,649,649,649,649,649,649,649,649,649,649,649,649,649,653,659,661,652,635,589,514,372,244,199,164,137,117,88,79,77,72,69,66,66,66,65,64,59,52,44,38,35,43,51,72,94,109,116,119,119,119,119,120,120,120,120,120,118,117,117,116,116,116,116,116,116,115,113,112,110,110,108,106,105,103,102,101,100,99,98,97,95,93,90,89,89,88,87,87,87,86,84,84,79],"timestamp_mouse":[14,31,51,71,91,111,131,152,171,191,212,232,251,272,291,311,331,351,371,391,412,432,450,472,491,511,531,550,571,591,611,631,652,671,691,711,732,752,771,792,811,831,852,872,891,912,932,951,971,992,1012,1031,1052,1071,1091,1112,1132,1151,1172,1192,1211,1231,1251,1271,1292,1311,1332,1352,1371,1391,1411,1431,1451,1471,1491,1511,1532,1551,1572,1592,1611,1631,1651,1670,1691,1710,1731,1751,1770,1791,1811,1831,1851,1870,1891,1912,1932,1951,1971,1991,2010,2031,2051,2071,2092,2112,2132,2152,2171,2191,2212,2231,2251,2272,2292,2311,2331,2351,2370,2391,2411,2431,2451,2471,2490,2510,2532,2550,2571,2591,2612,2631,2651,2672,2691,2712,2731,2751,2771,2790,2811,2832,2851,2872],"xSR":741.5,"ySR":573.95,"xT1":424.9,"yT1":0,"xT2":1058.1,"yT2":0,"toosoon":0,"cond_shown":"Congruent","ratio_trial":300,"L_num":20,"L_den":25,"R_num":13,"R_den":26,"correct_side":1,"subjID":"LauraPuentes34","gender":"1","school":"4","age":"9"},{"start_time":1552069114693,"click_time":1552069117388,"finger_time":1552069116488,"fix_duration":643.3624275223659,"trial":11,"RT":1795,"MT":900,"sideResp":1,"stimulus":[],"xmouse":[809,809,809,809,809,809,809,809,809,809,809,809,809,809,809,809,809,809,809,809,809,809,809,809,809,809,809,809,809,809,809,809,809,809,809,809,809,809,809,809,809,809,809,809,809,809,809,809,809,809,809,809,809,809,809,809,809,809,809,809,809,809,809,809,809,809,809,809,809,809,809,809,809,809,809,809,809,809,809,809,809,809,809,810,810,819,827,830,830,830,825,805,795,788,775,758,749,742,735,730,729,731,740,746,754,761,763,766,769,769,769,769,768,762,746,699,691,689,686,683,671,665,657,646,637,609,591,570,554,544,543,541,537,529,520],"ymouse":[631,631,631,631,631,631,631,631,631,631,631,631,631,631,631,631,631,631,631,631,631,631,631,631,631,631,631,631,631,631,631,631,631,631,631,631,631,631,631,631,631,631,631,631,631,631,631,631,631,631,631,631,631,631,631,631,631,631,631,631,631,631,631,631,631,631,631,631,631,631,631,631,631,631,631,631,631,631,631,631,631,631,631,631,631,623,613,601,585,571,556,520,506,489,461,430,420,410,397,380,368,343,327,316,294,269,264,252,240,231,217,212,207,199,175,131,126,125,123,122,119,115,111,105,99,84,78,71,68,66,66,66,68,72,77],"timestamp_mouse":[15,41,56,76,96,114,135,156,175,195,215,236,256,275,296,314,336,356,375,396,415,435,455,475,494,516,536,556,576,596,615,636,655,676,696,716,735,755,776,796,816,836,855,874,895,916,936,956,976,995,1015,1034,1056,1075,1096,1115,1136,1156,1176,1196,1216,1235,1255,1274,1294,1316,1335,1354,1376,1395,1415,1436,1456,1475,1496,1515,1536,1556,1576,1595,1615,1636,1654,1676,1695,1714,1736,1755,1775,1795,1815,1835,1855,1875,1896,1915,1935,1955,1976,1995,2015,2036,2055,2075,2095,2115,2137,2156,2175,2195,2215,2235,2255,2275,2295,2315,2335,2355,2375,2396,2415,2436,2454,2475,2495,2515,2536,2555,2576,2595,2616,2635,2655,2675,2695],"xSR":741.5,"ySR":573.95,"xT1":424.9,"yT1":0,"xT2":1058.1,"yT2":0,"toosoon":0,"cond_shown":"Congruent","ratio_trial":100,"L_num":7,"L_den":14,"R_num":15,"R_den":25,"correct_side":2,"subjID":"LauraPuentes34","gender":"1","school":"4","age":"9"},{"start_time":1552069120686,"click_time":1552069122850,"finger_time":1552069122149,"fix_duration":615.706861773338,"trial":12,"RT":1463,"MT":701,"sideResp":1,"stimulus":[],"xmouse":[822,822,822,822,822,822,822,822,822,822,822,822,822,822,822,822,822,822,822,822,822,822,822,822,822,822,822,822,822,822,822,822,822,822,822,822,822,822,822,822,822,822,822,822,822,822,822,822,822,822,822,822,822,822,822,822,822,822,822,822,822,822,822,822,822,822,822,822,822,822,822,822,825,829,832,830,830,820,812,804,796,788,771,754,739,721,672,652,633,621,612,609,605,605,605,605,605,604,602,601,597,592,580,570,562,553,545,530,520],"ymouse":[644,644,644,644,644,644,644,644,644,644,644,644,644,644,644,644,644,644,644,644,644,644,644,644,644,644,644,644,644,644,644,644,644,644,644,644,644,644,644,644,644,644,644,644,644,644,644,644,644,644,644,644,644,644,644,644,644,644,644,644,644,644,644,644,644,644,644,644,644,644,643,639,609,547,492,454,405,331,299,275,255,238,211,187,168,148,110,95,81,70,63,60,56,56,56,56,56,55,55,55,53,52,49,48,45,43,41,37,36],"timestamp_mouse":[18,29,45,61,81,101,122,142,163,183,203,222,243,262,283,302,322,343,363,383,401,423,442,462,483,503,521,543,562,583,603,622,643,662,683,702,723,742,762,782,801,823,842,863,882,903,923,942,963,981,1002,1022,1042,1062,1082,1101,1123,1143,1162,1182,1203,1223,1241,1263,1282,1303,1323,1343,1362,1383,1402,1422,1441,1463,1482,1502,1522,1542,1562,1582,1602,1623,1642,1664,1682,1703,1723,1742,1761,1782,1801,1823,1842,1862,1882,1902,1922,1942,1961,1982,2002,2023,2042,2064,2082,2103,2122,2142,2163],"xSR":741.5,"ySR":573.95,"xT1":424.9,"yT1":0,"xT2":1058.1,"yT2":0,"toosoon":0,"cond_shown":"Incongruent","ratio_trial":200,"L_num":4,"L_den":5,"R_num":6,"R_den":10,"correct_side":1,"subjID":"LauraPuentes34","gender":"1","school":"4","age":"9"},{"start_time":1552069126655,"click_time":1552069128427,"finger_time":1552069128047,"fix_duration":605.6535893374535,"trial":13,"RT":1392,"MT":380,"sideResp":1,"stimulus":[],"xmouse":[773,773,773,773,773,773,773,773,773,773,773,773,773,773,773,773,773,773,773,773,773,773,773,773,773,773,773,773,773,773,773,773,773,773,773,773,773,773,773,773,773,773,773,773,773,773,773,773,773,773,773,773,773,773,773,773,773,773,773,773,773,773,773,773,773,773,773,772,753,741,727,715,699,664,653,646,638,626,580,555,530,509,503,500,500,500,500,500,500],"ymouse":[643,643,643,643,643,643,643,643,643,643,643,643,643,643,643,643,643,643,643,643,643,643,643,643,643,643,643,643,643,643,643,643,643,643,643,643,643,643,643,643,643,643,643,643,643,643,643,643,643,643,643,643,643,643,643,643,643,643,643,643,643,643,643,643,643,643,639,630,578,544,495,445,390,271,216,169,122,66,0,0,0,0,0,0,0,0,0,0,3],"timestamp_mouse":[14,41,53,73,94,114,133,152,173,194,213,234,253,274,293,314,333,354,374,394,414,434,453,472,494,514,532,553,573,594,612,634,652,673,693,714,734,753,773,794,813,832,854,873,892,914,934,954,974,994,1013,1033,1053,1074,1094,1114,1134,1154,1173,1193,1214,1233,1254,1274,1294,1313,1334,1354,1373,1392,1413,1432,1453,1473,1492,1513,1533,1554,1576,1594,1613,1633,1653,1673,1693,1713,1734,1753,1772],"xSR":741.5,"ySR":573.95,"xT1":424.9,"yT1":0,"xT2":1058.1,"yT2":0,"toosoon":0,"cond_shown":"Incongruent","ratio_trial":100,"L_num":9,"L_den":10,"R_num":20,"R_den":25,"correct_side":1,"subjID":"LauraPuentes34","gender":"1","school":"4","age":"9"},{"start_time":1552069133359,"click_time":1552069136649,"finger_time":1552069135708,"fix_duration":1428.8880706503378,"trial":14,"RT":2349,"MT":941,"sideResp":2,"stimulus":[],"xmouse":[782,782,782,782,782,782,782,782,782,782,782,782,782,782,782,782,782,782,782,782,782,782,782,782,782,782,782,782,782,782,782,782,782,782,782,782,782,782,782,782,782,782,782,782,782,782,782,782,782,782,782,782,782,782,782,782,782,782,782,782,782,782,782,782,782,782,782,782,782,782,782,782,782,782,782,782,782,782,782,782,782,782,782,782,782,782,782,782,782,782,782,782,782,782,782,782,782,782,782,782,782,782,782,782,782,782,782,782,782,782,782,782,782,782,783,788,794,799,804,806,813,817,822,829,839,866,866,866,866,867,870,873,874,874,874,866,849,823,801,789,772,769,768,768,768,768,775,776,776,776,784,795,799,805,811,822,828,833,837,852,871,889,942,1004,1065],"ymouse":[612,612,612,612,612,612,612,612,612,612,612,612,612,612,612,612,612,612,612,612,612,612,612,612,612,612,612,612,612,612,612,612,612,612,612,612,612,612,612,612,612,612,612,612,612,612,612,612,612,612,612,612,612,612,612,612,612,612,612,612,612,612,612,612,612,612,612,612,612,612,612,612,612,612,612,612,612,612,612,612,612,612,612,612,612,612,612,612,612,612,612,612,612,612,612,612,612,612,612,612,612,612,612,612,612,612,612,612,612,612,612,612,612,612,612,602,586,567,549,531,499,491,485,477,465,440,440,440,440,438,430,420,417,412,410,403,380,331,289,267,238,232,230,229,229,213,183,153,134,124,114,109,108,105,104,101,100,98,97,94,92,87,72,57,45],"timestamp_mouse":[10,46,50,69,88,110,130,149,169,189,210,229,250,270,289,308,329,349,369,389,410,430,450,469,490,510,528,549,570,589,608,628,650,670,690,710,729,750,770,789,810,828,848,870,889,909,930,949,970,988,1008,1029,1050,1069,1102,1109,1129,1149,1170,1190,1210,1230,1249,1269,1290,1310,1329,1350,1370,1389,1409,1429,1448,1470,1489,1510,1528,1550,1570,1590,1610,1629,1649,1670,1690,1709,1729,1749,1769,1790,1809,1829,1849,1870,1890,1908,1929,1950,1970,1990,2009,2029,2050,2070,2090,2109,2130,2149,2169,2189,2209,2230,2249,2270,2289,2310,2328,2349,2369,2389,2410,2430,2450,2468,2489,2510,2529,2549,2569,2588,2609,2630,2649,2669,2689,2710,2729,2748,2769,2789,2809,2829,2850,2868,2889,2910,2930,2949,2970,2991,3008,3029,3049,3068,3089,3109,3130,3149,3169,3191,3209,3230,3249,3269,3290],"xSR":741.5,"ySR":573.95,"xT1":424.9,"yT1":0,"xT2":1058.1,"yT2":0,"toosoon":0,"cond_shown":"Congruent","ratio_trial":200,"L_num":6,"L_den":20,"R_num":11,"R_den":22,"correct_side":2,"subjID":"LauraPuentes34","gender":"1","school":"4","age":"9"},{"start_time":1552069138800,"click_time":1552069141429,"finger_time":1552069140368,"fix_duration":250,"trial":15,"RT":1568,"MT":1061,"sideResp":2,"stimulus":[],"xmouse":[751,751,751,751,751,751,751,751,751,751,751,751,751,751,751,751,751,751,751,751,751,751,751,751,751,751,751,751,751,751,751,751,751,751,751,751,751,751,751,751,751,751,751,751,751,751,751,751,751,751,751,751,751,751,751,751,751,751,751,751,751,751,751,751,751,751,751,751,751,751,751,751,751,751,751,751,751,751,751,751,751,751,751,750,749,748,748,754,769,772,773,774,775,777,778,782,797,830,943,968,980,982,982,983,983,983,980,977,964,960,958,955,954,949,949,949,946,944,945,950,957,964,968,972,974,976,981,989,1014,1029,1046,1062],"ymouse":[637,637,637,637,637,637,637,637,637,637,637,637,637,637,637,637,637,637,637,637,637,637,637,637,637,637,637,637,637,637,637,637,637,637,637,637,637,637,637,637,637,637,637,637,637,637,637,637,637,637,637,637,637,637,637,637,637,637,637,637,637,637,637,637,637,637,637,637,637,637,637,637,637,637,636,628,603,574,548,536,525,513,502,486,479,468,461,450,424,417,413,411,411,411,411,411,405,388,316,294,279,270,256,236,235,231,216,197,166,159,151,140,130,116,116,113,102,95,82,79,77,74,74,72,72,71,70,67,64,62,60,60],"timestamp_mouse":[21,30,48,69,89,109,128,149,169,188,208,229,248,269,287,307,329,348,368,388,408,427,448,469,489,509,529,548,569,588,609,629,648,667,688,709,727,749,768,788,807,828,848,869,889,908,929,948,969,988,1008,1028,1049,1068,1087,1107,1129,1148,1169,1188,1207,1228,1249,1269,1288,1309,1328,1348,1367,1389,1408,1428,1449,1468,1488,1508,1529,1548,1568,1587,1608,1628,1648,1667,1688,1709,1728,1749,1768,1787,1808,1828,1847,1867,1888,1909,1928,1948,1967,1988,2008,2028,2049,2068,2088,2109,2127,2148,2168,2188,2208,2228,2249,2269,2287,2308,2328,2348,2368,2388,2409,2428,2448,2468,2488,2508,2528,2548,2567,2587,2608,2629],"xSR":741.5,"ySR":573.95,"xT1":424.9,"yT1":0,"xT2":1058.1,"yT2":0,"toosoon":0,"cond_shown":"Congruent","ratio_trial":100,"L_num":11,"L_den":22,"R_num":6,"R_den":15,"correct_side":1,"subjID":"LauraPuentes34","gender":"1","school":"4","age":"9"},{"start_time":1552069145696,"click_time":1552069148310,"finger_time":1552069147207,"fix_duration":1486.0882936513597,"trial":16,"RT":1511,"MT":1103,"sideResp":2,"stimulus":[],"xmouse":[795,793,792,791,791,791,791,791,791,791,791,791,791,791,791,791,791,791,790,790,789,788,787,786,784,784,784,784,784,784,784,783,782,781,780,780,780,780,780,780,780,779,779,779,778,777,777,777,777,777,777,777,777,777,777,777,777,777,777,777,777,777,777,777,777,777,777,777,777,769,758,755,753,752,751,752,754,758,761,779,788,798,809,819,829,829,832,833,835,842,847,853,861,867,882,890,899,907,916,930,940,947,953,959,968,970,973,976,980,988,995,997,998,1000,1000,1000,1000,1000,1000,1002,1005,1007,1011,1015,1027,1032,1034,1036,1039,1055,1075],"ymouse":[646,646,646,647,647,647,647,647,647,647,647,647,647,647,647,647,647,647,647,647,648,649,650,651,652,652,652,652,652,652,652,652,652,652,652,652,652,652,652,652,652,650,648,646,640,635,633,633,633,632,631,628,626,625,623,622,622,622,621,621,620,620,620,620,620,619,619,618,617,608,600,599,598,597,579,564,548,529,507,451,420,394,365,342,300,296,283,274,266,245,231,219,205,194,176,172,169,167,163,156,150,146,142,138,133,132,129,124,119,104,90,87,82,80,79,79,79,79,79,78,75,74,73,72,68,66,66,65,65,58,52],"timestamp_mouse":[12,32,57,73,91,113,133,152,173,193,212,231,252,273,293,313,333,353,372,393,412,431,451,473,493,512,533,552,572,592,612,631,651,672,692,713,732,753,771,793,813,832,853,872,893,912,933,951,973,992,1013,1032,1053,1073,1092,1112,1131,1153,1173,1192,1211,1232,1252,1273,1293,1312,1332,1352,1372,1392,1412,1433,1452,1473,1492,1511,1531,1551,1572,1592,1612,1632,1651,1672,1691,1712,1732,1753,1773,1792,1811,1832,1856,1872,1892,1912,1933,1952,1971,1992,2012,2032,2052,2072,2091,2113,2132,2152,2172,2191,2212,2231,2252,2272,2292,2312,2331,2352,2373,2392,2412,2432,2453,2473,2492,2512,2532,2552,2572,2592,2613],"xSR":741.5,"ySR":573.95,"xT1":424.9,"yT1":0,"xT2":1058.1,"yT2":0,"toosoon":0,"cond_shown":"Incongruent","ratio_trial":100,"L_num":9,"L_den":18,"R_num":6,"R_den":10,"correct_side":2,"subjID":"LauraPuentes34","gender":"1","school":"4","age":"9"},{"start_time":1552069151259,"click_time":1552069153289,"finger_time":1552069152449,"fix_duration":1089.8715225476767,"trial":17,"RT":1190,"MT":840,"sideResp":1,"stimulus":[],"xmouse":[815,815,815,815,815,815,815,815,815,815,815,815,815,815,815,815,815,815,815,815,815,815,815,815,815,815,815,815,815,815,814,813,813,811,810,810,809,809,809,809,809,809,809,809,809,809,809,809,809,808,807,798,791,787,782,778,776,775,774,772,769,762,761,760,757,755,752,750,748,744,737,727,720,711,702,695,681,675,671,667,664,661,660,659,657,657,656,654,653,651,647,645,640,635,630,626,619,593,570,560,541,505],"ymouse":[597,597,597,597,597,597,597,597,597,597,597,597,597,597,597,597,597,597,597,599,599,599,599,599,601,602,603,605,606,608,610,612,612,613,614,615,615,615,615,615,615,615,615,615,615,615,615,615,615,615,614,609,605,601,597,593,591,585,580,571,557,532,520,508,493,483,452,434,415,396,366,324,304,286,269,257,230,215,201,185,168,144,134,126,119,119,116,110,107,106,102,100,95,93,90,87,82,65,52,48,41,29],"timestamp_mouse":[9,29,49,69,90,109,129,149,170,189,209,230,250,269,290,310,329,350,370,389,409,430,450,470,489,510,528,549,569,590,608,629,650,669,689,709,730,748,769,789,808,830,848,870,890,910,930,949,969,989,1009,1029,1049,1070,1089,1108,1130,1150,1169,1190,1209,1229,1249,1269,1289,1309,1330,1348,1369,1389,1410,1429,1449,1470,1489,1509,1529,1548,1569,1589,1610,1629,1649,1669,1690,1710,1728,1749,1769,1790,1809,1829,1849,1869,1890,1910,1929,1949,1969,1990,2009,2029],"xSR":741.5,"ySR":573.95,"xT1":424.9,"yT1":0,"xT2":1058.1,"yT2":0,"toosoon":0,"cond_shown":"Congruent","ratio_trial":300,"L_num":3,"L_den":6,"R_num":2,"R_den":10,"correct_side":1,"subjID":"LauraPuentes34","gender":"1","school":"4","age":"9"},{"start_time":1552069155912,"click_time":1552069157908,"finger_time":1552069157408,"fix_duration":1082.7995534703934,"trial":18,"RT":1496,"MT":500,"sideResp":1,"stimulus":[],"xmouse":[793,790,790,789,785,784,778,774,772,771,771,771,770,770,770,770,769,769,769,767,767,767,767,767,767,767,767,767,767,767,767,767,767,767,767,767,767,767,767,767,767,767,767,767,767,767,767,767,767,767,767,767,767,767,767,767,767,767,767,767,767,767,767,767,767,767,767,767,767,768,769,771,777,788,826,856,867,874,879,888,891,898,899,897,891,890,890,890,890,889,886,882,876,868,833,778,716,648,588,500],"ymouse":[626,626,626,626,628,629,631,632,633,633,633,633,634,634,634,634,636,637,638,640,641,642,642,643,643,643,643,643,643,643,643,643,643,643,643,643,643,643,643,643,643,643,643,643,643,643,643,643,643,643,643,643,643,643,643,643,643,643,643,643,643,643,643,643,643,643,643,643,643,642,639,633,620,592,503,427,386,360,337,278,258,236,215,197,188,186,186,186,190,192,192,192,192,192,190,174,158,135,109,57],"timestamp_mouse":[26,43,56,76,95,116,137,156,176,197,217,237,256,277,297,317,336,357,376,395,417,437,457,476,497,517,535,556,577,597,616,637,657,677,697,717,736,755,777,797,817,837,856,877,896,916,936,957,977,997,1016,1036,1057,1075,1096,1117,1137,1156,1177,1197,1217,1236,1257,1277,1297,1316,1336,1356,1377,1396,1415,1436,1456,1476,1496,1517,1536,1556,1575,1596,1615,1636,1656,1676,1697,1716,1736,1757,1777,1796,1815,1836,1856,1876,1896,1916,1935,1956,1977,1996],"xSR":741.5,"ySR":573.95,"xT1":424.9,"yT1":0,"xT2":1058.1,"yT2":0,"toosoon":0,"cond_shown":"Incongruent","ratio_trial":300,"L_num":3,"L_den":6,"R_num":4,"R_den":20,"correct_side":1,"subjID":"LauraPuentes34","gender":"1","school":"4","age":"9"},{"start_time":1552069159981,"click_time":1552069162148,"finger_time":1552069161108,"fix_duration":250,"trial":19,"RT":1127,"MT":1040,"sideResp":2,"stimulus":[],"xmouse":[776,776,776,776,776,776,776,776,776,776,776,776,776,776,776,776,776,776,776,776,773,767,766,764,764,764,764,764,764,764,764,764,764,764,764,764,764,764,764,764,764,764,764,764,764,764,764,764,764,764,764,762,762,763,765,768,768,762,759,757,754,754,754,754,759,766,777,787,795,799,809,818,825,837,854,871,900,902,903,905,905,909,910,910,910,910,915,917,917,916,916,916,920,923,926,931,946,953,958,962,963,973,978,985,994,1005,1036,1053,1068],"ymouse":[630,630,630,630,630,630,630,630,630,630,630,630,630,630,630,630,630,630,630,629,629,632,632,633,633,633,633,634,634,634,634,635,636,636,636,636,636,636,636,636,636,636,636,636,636,636,636,636,636,636,636,632,622,609,593,576,538,515,496,479,459,427,410,394,378,363,338,326,317,315,307,298,292,286,279,274,266,264,264,262,259,236,228,220,213,205,167,138,120,108,105,99,95,94,92,91,90,90,90,90,90,90,90,90,91,92,92,92,92],"timestamp_mouse":[9,41,48,68,88,107,127,148,168,187,207,227,248,267,288,308,328,348,367,387,407,427,447,467,487,508,527,547,567,588,606,628,648,667,687,707,727,748,768,788,806,827,847,868,886,908,928,947,967,987,1008,1027,1048,1068,1088,1106,1127,1146,1166,1186,1207,1227,1247,1267,1286,1308,1327,1347,1367,1387,1407,1427,1447,1467,1488,1508,1527,1546,1567,1587,1608,1627,1647,1666,1688,1707,1728,1747,1767,1787,1808,1826,1848,1867,1887,1907,1927,1946,1966,1986,2007,2026,2046,2067,2088,2107,2128,2146,2166],"xSR":741.5,"ySR":573.95,"xT1":424.9,"yT1":0,"xT2":1058.1,"yT2":0,"toosoon":0,"cond_shown":"Congruent","ratio_trial":200,"L_num":5,"L_den":10,"R_num":14,"R_den":20,"correct_side":2,"subjID":"LauraPuentes34","gender":"1","school":"4","age":"9"},{"start_time":1552069163868,"click_time":1552069165409,"finger_time":1552069164588,"fix_duration":297.25733527889287,"trial":20,"RT":720,"MT":821,"sideResp":1,"stimulus":[],"xmouse":[793,793,792,791,790,790,790,789,789,789,789,789,789,789,789,789,789,789,789,789,789,789,789,789,789,789,789,789,789,789,789,789,789,789,789,791,794,797,804,810,819,823,824,822,813,811,805,801,789,780,771,762,751,733,725,709,700,686,662,645,632,615,602,584,583,582,582,581,578,578,577,575,573,563,557,553,542,523],"ymouse":[593,592,592,591,589,589,589,588,588,588,587,587,587,587,587,587,587,587,587,587,587,587,587,587,587,587,587,587,587,587,587,587,587,587,582,576,560,541,495,462,424,396,369,333,308,300,277,262,233,214,197,179,161,127,109,83,70,55,34,21,11,3,0,0,0,0,0,0,0,0,1,2,3,4,5,5,5,5],"timestamp_mouse":[4,21,39,59,79,101,120,141,160,181,199,220,239,259,279,300,320,341,360,381,401,420,441,461,480,501,520,539,559,581,600,621,639,660,680,700,720,740,760,780,799,821,840,860,880,900,920,939,960,980,1000,1021,1040,1059,1080,1101,1121,1140,1161,1181,1200,1221,1240,1260,1280,1301,1320,1341,1361,1380,1400,1421,1441,1460,1481,1500,1521,1541],"xSR":741.5,"ySR":573.95,"xT1":424.9,"yT1":0,"xT2":1058.1,"yT2":0,"toosoon":0,"cond_shown":"Congruent","ratio_trial":300,"L_num":20,"L_den":25,"R_num":5,"R_den":10,"correct_side":1,"subjID":"LauraPuentes34","gender":"1","school":"4","age":"9"},{"start_time":1552069168122,"click_time":1552069170848,"finger_time":1552069169467,"fix_duration":1112.0212409800693,"trial":21,"RT":1345,"MT":1381,"sideResp":1,"stimulus":[],"xmouse":[780,780,780,780,780,780,780,780,780,780,780,780,780,780,780,780,780,780,780,780,780,780,780,780,780,780,780,780,780,780,780,780,780,780,780,780,780,780,780,780,780,780,780,780,780,780,780,780,780,780,780,778,777,775,774,773,773,773,773,773,773,773,771,769,764,759,746,741,739,737,736,734,732,728,725,722,719,718,710,706,700,698,696,693,692,691,690,690,690,692,695,700,703,704,707,708,716,721,726,734,736,736,736,735,734,733,733,733,732,730,728,724,723,723,723,719,716,710,699,686,673,641,623,602,588,572,566,562,562,562,562,559,558,556,550,531,514],"ymouse":[624,624,624,624,624,624,624,624,624,624,624,624,624,624,624,624,624,624,624,624,624,624,624,624,624,624,624,624,624,624,624,624,624,624,624,624,624,624,624,624,624,624,624,624,624,624,624,624,624,624,624,624,624,625,625,625,625,625,625,625,625,625,625,625,624,620,610,605,603,599,593,566,549,530,511,483,471,462,445,437,422,417,409,403,398,389,384,377,371,366,361,353,350,344,337,327,299,283,267,242,198,192,186,181,176,171,164,159,149,144,140,131,130,130,130,125,121,114,107,98,91,74,67,58,52,42,39,38,38,38,38,37,37,37,37,37,37],"timestamp_mouse":[10,26,47,66,86,106,126,146,167,186,205,226,247,266,286,307,327,345,366,387,407,426,446,467,485,507,527,546,567,587,606,627,646,667,687,705,727,746,766,787,807,826,845,865,887,906,926,946,966,987,1006,1026,1047,1066,1086,1106,1127,1147,1167,1187,1207,1226,1247,1266,1285,1306,1327,1345,1365,1385,1405,1427,1446,1467,1487,1506,1526,1546,1566,1585,1607,1626,1646,1666,1687,1708,1725,1746,1766,1785,1807,1827,1846,1866,1887,1905,1926,1946,1967,1987,2007,2026,2046,2066,2087,2107,2126,2146,2166,2185,2206,2227,2246,2267,2287,2307,2326,2346,2366,2386,2405,2425,2447,2466,2486,2507,2525,2546,2566,2587,2606,2627,2646,2666,2686,2707,2725],"xSR":741.5,"ySR":573.95,"xT1":424.9,"yT1":0,"xT2":1058.1,"yT2":0,"toosoon":0,"cond_shown":"Congruent","ratio_trial":200,"L_num":12,"L_den":20,"R_num":6,"R_den":15,"correct_side":1,"subjID":"LauraPuentes34","gender":"1","school":"4","age":"9"},{"start_time":1552069172760,"click_time":1552069175068,"finger_time":1552069173788,"fix_duration":250,"trial":22,"RT":1028,"MT":1280,"sideResp":2,"stimulus":[],"xmouse":[782,782,782,782,782,782,782,782,782,782,782,782,782,782,781,779,775,769,759,746,746,746,746,746,746,746,746,746,746,746,746,746,746,746,746,746,746,746,746,746,746,746,746,746,746,745,745,745,745,745,743,741,739,738,738,739,739,739,739,739,739,739,743,744,749,749,747,743,740,745,754,761,772,778,796,798,799,800,800,803,805,809,816,827,874,900,931,965,1002,1081,1115,1142,1161,1179,1202,1206,1206,1208,1210,1210,1210,1210,1210,1210,1209,1207,1206,1204,1201,1199,1197,1196,1194,1191,1171,1157],"ymouse":[651,651,651,651,651,651,651,651,651,651,651,651,651,651,650,650,651,651,653,653,653,653,653,653,653,653,653,653,653,653,653,653,653,653,653,653,653,653,653,653,653,653,653,653,653,653,653,653,653,652,650,647,645,643,642,642,642,642,642,637,629,615,599,591,531,499,454,411,363,260,197,143,102,93,71,69,68,67,67,66,65,65,65,64,71,75,82,89,95,112,118,123,127,130,132,132,132,132,130,130,130,130,130,129,128,125,123,121,119,117,115,113,110,108,98,94],"timestamp_mouse":[14,41,48,68,89,107,128,149,169,188,207,228,249,269,288,309,328,348,369,388,408,427,448,469,487,508,529,549,568,587,609,629,649,669,689,708,727,749,768,788,809,827,847,869,889,909,929,947,968,988,1008,1028,1049,1068,1089,1109,1128,1149,1169,1188,1208,1228,1249,1268,1288,1307,1327,1349,1368,1388,1408,1428,1448,1469,1488,1508,1528,1548,1569,1588,1609,1629,1647,1668,1688,1708,1728,1748,1768,1788,1809,1827,1848,1868,1888,1909,1928,1949,1968,1988,2008,2029,2049,2068,2088,2108,2128,2148,2168,2188,2207,2228,2248,2269,2288,2308],"xSR":741.5,"ySR":573.95,"xT1":424.9,"yT1":0,"xT2":1058.1,"yT2":0,"toosoon":0,"cond_shown":"Incongruent","ratio_trial":200,"L_num":9,"L_den":15,"R_num":8,"R_den":10,"correct_side":2,"subjID":"LauraPuentes34","gender":"1","school":"4","age":"9"},{"start_time":1552069176705,"click_time":1552069179828,"finger_time":1552069177529,"fix_duration":254.07771931681054,"trial":23,"RT":824,"MT":2299,"sideResp":1,"stimulus":[],"xmouse":[777,777,777,777,777,777,777,777,777,777,777,777,777,777,777,777,777,777,777,777,777,777,777,777,777,777,777,777,777,777,777,777,777,777,777,777,777,777,780,798,819,842,879,896,911,919,925,925,923,918,913,910,904,900,897,893,891,884,882,881,881,881,886,886,887,889,892,904,915,928,940,957,986,1005,1020,1036,1042,1047,1048,1048,1048,1041,1020,1011,1007,1007,1005,1005,1005,1005,1005,1005,1005,1004,1004,1004,1004,1004,1003,1003,1002,1002,1002,1002,1001,1000,998,994,991,987,982,977,975,968,960,944,930,909,897,883,868,851,818,807,802,799,789,770,756,743,733,719,700,692,681,673,663,642,632,624,616,608,605,605,605,604,602,598,587,579,570,564,559,549,545,539,524],"ymouse":[609,609,609,609,609,609,609,609,609,609,609,609,609,609,609,609,609,609,609,609,609,609,609,609,609,609,609,609,609,609,609,609,609,609,609,609,609,609,610,611,609,602,585,572,561,547,517,472,451,430,414,402,383,375,371,364,362,350,344,336,327,318,294,287,278,271,261,242,227,214,204,194,180,172,168,163,159,154,153,153,151,145,128,122,119,116,113,111,110,110,109,107,105,104,101,98,97,91,90,85,81,79,79,79,79,78,78,77,75,73,71,68,67,65,62,58,54,51,49,45,42,40,35,33,32,32,33,35,37,37,38,38,38,38,38,38,38,38,38,39,40,41,43,43,43,43,43,45,45,45,45,45,43,41,41,41,41],"timestamp_mouse":[11,24,43,64,84,102,123,143,164,184,202,224,243,264,282,304,324,343,364,383,404,423,444,464,483,503,522,542,564,584,603,624,643,662,683,703,724,744,764,784,803,824,843,863,882,903,924,943,963,983,1004,1022,1043,1063,1082,1104,1123,1143,1163,1183,1203,1224,1243,1263,1283,1304,1323,1343,1364,1383,1404,1424,1443,1463,1484,1503,1522,1543,1563,1583,1603,1624,1643,1663,1684,1703,1723,1743,1763,1783,1802,1824,1843,1863,1882,1902,1923,1943,1962,1983,2004,2023,2044,2063,2084,2104,2122,2142,2163,2182,2202,2224,2244,2264,2283,2303,2324,2344,2363,2383,2404,2424,2444,2463,2484,2503,2523,2543,2563,2582,2603,2623,2643,2663,2683,2703,2723,2744,2762,2783,2803,2823,2843,2863,2883,2904,2923,2943,2963,2983,3003,3024,3043,3064,3083,3104,3123],"xSR":741.5,"ySR":573.95,"xT1":424.9,"yT1":0,"xT2":1058.1,"yT2":0,"toosoon":0,"cond_shown":"Congruent","ratio_trial":100,"L_num":6,"L_den":20,"R_num":5,"R_den":25,"correct_side":1,"subjID":"LauraPuentes34","gender":"1","school":"4","age":"9"},{"start_time":1552069182425,"click_time":1552069184968,"finger_time":1552069183308,"fix_duration":1374.2601431032836,"trial":24,"RT":883,"MT":1660,"sideResp":1,"stimulus":[],"xmouse":[767,767,767,767,767,767,767,767,767,767,767,767,767,767,767,767,767,767,765,764,764,764,764,763,763,763,763,763,763,763,763,762,762,762,764,765,765,765,765,765,765,766,760,748,737,731,730,723,717,713,706,702,697,697,705,722,745,765,768,773,778,786,799,804,812,816,822,827,827,827,827,827,827,827,823,818,813,793,783,771,759,745,720,710,704,701,700,700,698,697,696,696,695,695,695,695,695,694,686,674,662,645,621,615,611,608,607,602,600,596,592,587,573,568,562,555,549,538,536,535,533,532,529,529,528,526,526,519],"ymouse":[622,622,622,622,622,622,622,622,622,623,624,625,627,628,629,630,630,631,632,633,633,633,635,638,640,642,644,648,649,649,649,650,650,650,653,653,654,654,654,654,654,654,649,640,623,602,586,563,547,535,524,514,488,468,440,395,339,232,208,188,170,155,136,132,128,127,124,120,120,120,120,120,120,119,118,116,112,100,94,88,83,78,71,65,62,61,61,61,61,62,64,65,66,66,66,66,66,67,66,62,58,53,42,38,37,37,37,37,36,35,33,31,23,20,17,13,10,4,4,4,4,4,5,5,5,5,5,8],"timestamp_mouse":[10,23,42,64,83,103,123,143,163,183,202,223,243,263,282,302,322,343,363,383,404,424,444,464,484,502,524,543,564,583,603,623,642,663,684,703,724,742,763,783,804,824,844,863,883,902,922,943,963,982,1004,1024,1043,1062,1084,1104,1124,1143,1164,1182,1202,1224,1243,1264,1283,1304,1324,1343,1363,1384,1402,1422,1442,1464,1484,1503,1524,1543,1563,1583,1604,1623,1644,1662,1683,1704,1724,1743,1764,1783,1804,1823,1843,1863,1883,1903,1923,1942,1964,1984,2004,2024,2043,2064,2084,2104,2124,2143,2163,2182,2203,2224,2242,2263,2284,2304,2324,2343,2363,2383,2403,2423,2443,2463,2483,2503,2522,2543],"xSR":741.5,"ySR":573.95,"xT1":424.9,"yT1":0,"xT2":1058.1,"yT2":0,"toosoon":0,"cond_shown":"Incongruent","ratio_trial":300,"L_num":8,"L_den":10,"R_num":9,"R_den":18,"correct_side":1,"subjID":"LauraPuentes34","gender":"1","school":"4","age":"9"},{"start_time":1552069187451,"click_time":1552069190067,"finger_time":1552069188308,"fix_duration":801.1349356447138,"trial":25,"RT":857,"MT":1759,"sideResp":1,"stimulus":[],"xmouse":[782,782,782,782,782,782,782,782,782,782,782,782,782,782,782,782,782,782,782,782,782,782,782,782,782,782,782,783,785,785,785,785,786,786,786,786,786,784,781,780,774,771,769,767,766,766,766,766,766,766,766,766,766,766,766,766,766,768,773,780,806,821,826,830,834,835,834,830,825,820,809,804,803,803,802,800,798,795,793,790,788,786,784,780,777,759,751,741,731,724,720,714,710,709,707,703,701,701,701,701,701,701,702,710,718,726,732,732,732,732,732,732,731,729,717,702,663,642,620,599,561,555,554,553,552,550,543,537,531,528,524],"ymouse":[637,637,637,637,637,637,637,637,637,637,637,637,637,637,637,637,637,637,637,637,637,637,637,637,637,637,635,632,629,628,625,623,622,621,620,618,617,614,610,605,586,577,570,564,562,561,561,561,561,561,561,561,561,561,561,561,556,546,530,506,414,360,314,274,246,211,176,163,150,138,119,114,113,113,113,111,109,107,106,105,104,104,102,98,95,82,78,72,68,63,60,55,46,41,25,13,10,10,10,10,10,10,10,15,22,27,31,31,31,31,31,31,30,30,25,21,15,11,7,4,0,0,0,0,0,0,0,2,3,4,5],"timestamp_mouse":[17,37,58,77,97,116,138,157,177,197,216,238,258,278,298,317,338,357,377,398,418,438,456,476,498,517,537,556,577,597,617,636,657,678,698,717,736,758,778,797,817,838,857,876,897,916,937,958,977,998,1018,1037,1057,1078,1097,1117,1137,1157,1178,1197,1216,1237,1257,1276,1297,1317,1337,1357,1377,1397,1417,1438,1457,1478,1497,1517,1536,1557,1576,1598,1617,1637,1657,1677,1698,1717,1737,1757,1778,1797,1817,1837,1857,1877,1897,1917,1937,1957,1977,1998,2018,2037,2057,2076,2098,2117,2137,2157,2178,2196,2216,2237,2256,2277,2297,2317,2337,2358,2377,2397,2417,2437,2457,2477,2497,2518,2538,2557,2578,2597,2616],"xSR":741.5,"ySR":573.95,"xT1":424.9,"yT1":0,"xT2":1058.1,"yT2":0,"toosoon":0,"cond_shown":"Congruent","ratio_trial":100,"L_num":4,"L_den":8,"R_num":6,"R_den":10,"correct_side":2,"subjID":"LauraPuentes34","gender":"1","school":"4","age":"9"},{"start_time":1552069197206,"click_time":1552069202869,"finger_time":1552069198569,"fix_duration":1496.7938612761418,"trial":26,"RT":1363,"MT":4300,"sideResp":1,"stimulus":[],"xmouse":[768,768,768,768,768,768,768,768,768,768,768,768,768,768,768,768,768,768,768,768,768,768,768,768,768,768,768,768,768,768,768,768,768,768,768,768,768,768,768,768,769,769,769,769,768,768,768,768,768,768,768,764,763,763,761,760,759,759,759,758,758,758,758,757,757,757,759,764,775,836,871,877,889,889,887,867,851,832,827,827,827,827,784,780,779,775,774,772,770,769,768,768,768,768,768,768,768,768,768,768,768,768,768,768,768,768,768,768,768,768,766,765,764,763,762,760,760,760,760,759,759,759,759,759,759,761,762,764,765,767,770,770,771,771,771,771,771,771,771,771,771,769,769,769,768,767,766,766,765,765,765,765,764,764,764,764,764,764,764,763,761,760,760,759,759,759,758,758,758,758,758,758,758,758,758,758,758,758,758,758,758,758,758,758,758,758,758,758,758,758,758,758,758,758,758,758,758,758,758,758,758,758,758,758,758,758,758,758,758,758,758,758,758,758,758,758,758,758,758,758,758,758,758,758,758,758,758,758,758,758,758,758,758,758,758,758,758,758,758,758,758,758,758,758,758,758,758,758,758,758,758,758,758,758,758,758,758,758,758,757,756,755,755,754,754,753,752,751,747,735,699,679,661,648,644,642,636,628,617,596,563,546,527,504],"ymouse":[617,617,617,617,617,617,617,617,617,617,617,617,617,617,617,617,617,617,617,617,617,617,617,617,617,617,617,617,617,617,617,617,617,617,617,617,617,617,617,617,617,617,617,617,616,616,616,616,616,616,616,615,615,614,614,614,614,614,614,614,614,614,614,614,614,611,601,586,560,425,338,319,258,209,161,56,13,0,0,0,0,0,0,0,0,0,0,1,3,4,4,5,5,5,5,5,5,5,5,5,5,5,5,5,5,5,5,5,5,6,9,10,11,12,13,15,15,15,15,16,16,17,19,21,24,30,32,36,40,43,51,52,54,55,55,57,58,58,58,59,62,63,64,64,65,67,68,69,71,71,72,73,74,75,75,76,77,77,78,79,83,85,85,87,87,87,90,91,91,91,91,91,91,91,91,91,91,91,91,91,91,91,91,91,91,91,91,91,91,91,91,91,91,91,91,91,91,91,91,91,91,91,91,91,91,91,91,91,91,91,91,91,91,91,91,91,91,91,91,91,91,91,91,91,91,91,91,91,91,91,91,91,91,91,91,91,91,91,91,91,91,91,91,91,91,91,91,91,91,91,91,91,91,91,91,91,91,91,91,92,92,92,92,92,92,92,92,92,90,85,75,69,64,61,60,60,60,61,63,64,64,64,63,60],"timestamp_mouse":[9,22,47,62,83,103,123,143,163,183,203,222,243,262,282,303,323,342,362,382,403,422,443,462,483,503,522,543,562,583,602,621,642,663,681,702,723,743,763,782,802,822,843,862,883,902,922,942,961,982,1002,1023,1042,1063,1083,1103,1122,1142,1161,1182,1202,1222,1243,1262,1282,1302,1322,1343,1363,1383,1402,1422,1442,1463,1482,1502,1523,1542,1562,1582,1602,1622,1642,1662,1682,1703,1721,1741,1762,1782,1802,1821,1841,1862,1882,1902,1922,1943,1962,1983,2001,2022,2043,2063,2082,2102,2121,2141,2163,2182,2202,2222,2243,2263,2282,2303,2323,2342,2362,2383,2402,2422,2442,2463,2481,2501,2522,2542,2563,2582,2602,2623,2642,2662,2683,2702,2723,2742,2762,2782,2804,2822,2841,2863,2883,2902,2921,2942,2963,2983,3002,3022,3042,3063,3082,3103,3122,3142,3163,3182,3203,3222,3243,3262,3283,3302,3323,3343,3362,3383,3402,3422,3441,3461,3483,3503,3522,3542,3563,3583,3602,3622,3642,3663,3683,3703,3723,3743,3761,3782,3802,3821,3842,3862,3883,3903,3921,3941,3963,3982,4002,4022,4042,4061,4082,4102,4122,4143,4163,4181,4203,4222,4243,4263,4283,4302,4322,4343,4363,4381,4402,4422,4442,4463,4482,4502,4522,4543,4563,4582,4603,4622,4642,4663,4683,4703,4722,4742,4762,4782,4803,4821,4843,4863,4882,4902,4922,4941,4961,4983,5003,5021,5042,5062,5082,5102,5121,5142,5162,5183,5202,5222,5241,5262,5283,5302,5322,5342,5363,5383,5403,5422,5443,5462,5482,5502,5522,5542,5562,5582,5602,5621,5641,5663],"xSR":741.5,"ySR":573.95,"xT1":424.9,"yT1":0,"xT2":1058.1,"yT2":0,"toosoon":0,"cond_shown":"Incongruent","ratio_trial":300,"L_num":1,"L_den":2,"R_num":3,"R_den":15,"correct_side":1,"subjID":"LauraPuentes34","gender":"1","school":"4","age":"9"},{"start_time":1552069208168,"click_time":1552069210688,"finger_time":1552069209667,"fix_duration":816.2691558013778,"trial":27,"RT":1499,"MT":1021,"sideResp":2,"stimulus":[],"xmouse":[810,810,810,810,810,810,810,810,810,810,810,810,810,810,810,809,809,809,807,806,806,806,806,806,806,806,806,806,806,806,806,806,806,806,806,806,806,806,806,806,806,806,806,806,806,806,806,806,806,806,806,806,806,806,806,806,806,806,806,806,806,806,806,806,806,806,806,806,806,806,806,806,807,816,828,843,861,875,883,866,848,836,835,839,843,845,845,845,845,845,845,844,842,831,826,825,825,825,824,823,820,808,792,768,761,755,746,736,706,697,689,684,683,689,697,709,722,747,789,813,837,864,894,963,999,1037,1097],"ymouse":[620,620,620,620,619,619,619,619,619,619,620,621,622,622,622,623,623,623,627,627,628,628,628,628,628,628,628,628,628,628,629,629,629,629,629,629,629,629,629,629,629,629,629,629,629,629,629,629,629,629,629,629,629,629,629,629,629,629,629,629,629,629,629,629,629,629,629,629,629,629,629,629,630,631,622,603,573,536,469,431,411,400,394,389,386,385,385,385,384,383,380,378,375,368,365,365,365,365,363,362,359,350,338,318,310,301,288,273,228,214,203,194,186,169,161,154,148,140,134,130,126,124,119,109,104,99,90],"timestamp_mouse":[1,32,40,61,80,101,121,140,161,180,200,221,241,261,280,300,321,341,359,379,401,421,440,461,480,501,521,540,560,581,600,621,641,661,680,700,720,740,760,780,801,819,841,861,881,899,921,941,959,980,1000,1021,1040,1061,1080,1099,1121,1140,1161,1181,1201,1220,1241,1261,1279,1300,1321,1340,1360,1380,1401,1420,1440,1459,1479,1499,1519,1540,1560,1580,1600,1621,1641,1660,1681,1700,1721,1740,1760,1781,1799,1820,1840,1860,1880,1901,1920,1940,1960,1981,2001,2021,2041,2059,2081,2100,2121,2141,2160,2181,2200,2220,2240,2260,2279,2300,2321,2341,2360,2380,2400,2421,2441,2460,2479,2500,2520],"xSR":741.5,"ySR":573.95,"xT1":424.9,"yT1":0,"xT2":1058.1,"yT2":0,"toosoon":0,"cond_shown":"Congruent","ratio_trial":200,"L_num":3,"L_den":10,"R_num":11,"R_den":22,"correct_side":2,"subjID":"LauraPuentes34","gender":"1","school":"4","age":"9"},{"start_time":1552069213207,"click_time":1552069215128,"finger_time":1552069214748,"fix_duration":317.9870116116638,"trial":28,"RT":1541,"MT":380,"sideResp":1,"stimulus":[],"xmouse":[757,757,757,757,758,758,759,759,759,759,759,759,759,759,759,759,759,759,759,759,759,759,759,759,759,759,759,759,759,759,759,759,759,759,759,759,759,759,759,759,759,759,759,759,759,759,759,759,759,759,759,759,759,759,759,759,759,759,759,759,759,759,759,759,759,759,759,759,759,759,759,759,759,759,759,759,762,797,829,847,848,842,794,759,713,688,648,586,565,549,540,535,533,532,532,530,524],"ymouse":[631,631,631,631,630,629,628,628,628,628,628,628,628,628,628,628,627,627,627,627,627,627,627,627,627,627,627,627,627,627,627,627,627,627,627,627,627,627,627,627,627,627,627,627,627,627,627,627,627,627,627,627,627,627,627,627,627,627,627,627,627,627,627,627,627,627,627,627,627,627,627,627,627,627,627,627,625,515,432,362,310,268,193,141,84,62,28,0,0,0,0,0,0,0,0,0,4],"timestamp_mouse":[3,26,40,62,82,102,121,142,161,182,202,220,240,262,281,302,322,341,360,381,400,421,441,462,481,502,521,542,560,582,601,622,640,660,682,702,721,741,761,782,801,822,841,862,882,900,920,940,961,980,1000,1021,1042,1061,1082,1101,1122,1141,1160,1182,1200,1221,1241,1262,1280,1301,1321,1340,1361,1381,1400,1421,1441,1460,1482,1500,1521,1541,1560,1581,1600,1620,1641,1661,1681,1702,1721,1741,1761,1782,1801,1820,1841,1861,1882,1902,1921],"xSR":741.5,"ySR":573.95,"xT1":424.9,"yT1":0,"xT2":1058.1,"yT2":0,"toosoon":0,"cond_shown":"Congruent","ratio_trial":100,"L_num":3,"L_den":6,"R_num":2,"R_den":5,"correct_side":1,"subjID":"LauraPuentes34","gender":"1","school":"4","age":"9"},{"start_time":1552069217630,"click_time":1552069220008,"finger_time":1552069218829,"fix_duration":1081.9317738104382,"trial":29,"RT":1199,"MT":1179,"sideResp":2,"stimulus":[],"xmouse":[775,775,775,775,775,775,775,775,775,775,775,775,775,775,775,775,775,775,775,775,775,775,775,775,775,775,775,775,775,775,775,775,775,775,775,775,775,775,775,775,775,775,775,775,775,775,775,775,775,775,775,775,775,775,775,776,778,778,776,774,767,765,765,764,762,759,756,752,749,746,751,757,764,775,791,833,851,869,883,893,905,906,907,907,907,906,899,894,886,877,872,871,871,871,871,871,869,869,867,867,876,877,878,879,879,879,880,882,888,894,908,908,921,929,953,979,1030,1050,1081],"ymouse":[648,648,648,648,648,648,648,648,648,648,648,648,648,648,648,648,648,648,648,648,648,648,648,648,648,648,648,648,648,648,648,648,648,648,648,648,648,648,648,648,648,648,648,648,648,648,648,648,648,648,648,648,648,648,648,648,629,605,576,569,538,526,514,500,486,457,439,417,394,370,311,295,283,273,264,248,240,232,225,219,207,203,198,193,186,178,163,153,144,131,121,116,107,100,95,90,87,82,76,67,42,37,35,34,34,34,34,34,34,34,33,33,32,33,35,39,46,48,52],"timestamp_mouse":[19,45,59,78,98,119,139,158,177,199,219,237,258,279,299,319,338,357,378,398,418,439,459,479,498,519,537,559,579,598,617,638,658,679,699,718,739,758,779,799,817,838,859,879,899,919,938,958,979,998,1019,1038,1059,1079,1098,1118,1138,1159,1178,1199,1218,1238,1258,1279,1298,1318,1338,1359,1378,1398,1418,1437,1458,1478,1499,1517,1537,1558,1579,1598,1618,1638,1658,1677,1698,1718,1739,1758,1779,1798,1818,1838,1858,1878,1899,1917,1938,1958,1978,1997,2018,2038,2058,2079,2097,2118,2138,2158,2178,2199,2218,2239,2259,2277,2298,2318,2339,2358,2378],"xSR":741.5,"ySR":573.95,"xT1":424.9,"yT1":0,"xT2":1058.1,"yT2":0,"toosoon":0,"cond_shown":"Incongruent","ratio_trial":300,"L_num":13,"L_den":26,"R_num":12,"R_den":15,"correct_side":2,"subjID":"LauraPuentes34","gender":"1","school":"4","age":"9"},{"start_time":1552069222507,"click_time":1552069224808,"finger_time":1552069223869,"fix_duration":1317.7677565394429,"trial":30,"RT":1362,"MT":939,"sideResp":1,"stimulus":[],"xmouse":[805,804,804,804,804,804,804,804,804,804,804,804,804,804,804,804,804,804,804,804,804,804,804,804,804,804,804,804,804,804,804,804,804,804,804,804,804,802,799,794,792,787,784,778,775,774,773,772,771,768,767,765,762,756,752,751,750,750,750,750,750,750,750,750,750,750,750,750,738,722,703,688,673,662,646,637,630,624,622,622,622,622,623,631,638,638,638,649,662,664,665,665,665,665,664,660,656,653,644,636,626,613,583,574,565,564,564,563,563,562,562,562,561,546,531,517],"ymouse":[627,627,627,627,627,627,627,627,627,627,627,627,627,627,627,627,627,627,627,627,627,627,627,627,627,627,627,627,627,627,627,627,627,627,627,627,627,627,627,627,627,627,626,625,625,624,623,623,622,620,619,617,614,609,607,606,605,605,605,605,605,605,605,605,605,605,600,589,536,505,471,443,396,370,335,321,309,294,285,277,266,256,231,218,211,211,211,206,200,198,195,192,190,186,184,175,165,152,118,100,85,76,68,67,65,65,65,65,65,65,65,65,65,66,67,67],"timestamp_mouse":[1,22,46,61,82,101,121,141,162,180,201,221,241,261,281,301,321,341,362,382,402,422,441,462,481,501,521,542,562,582,602,621,640,661,681,702,722,742,762,780,801,822,841,861,881,900,921,942,961,982,1002,1021,1041,1062,1080,1102,1121,1140,1161,1180,1202,1221,1242,1261,1282,1301,1321,1341,1362,1381,1401,1421,1442,1460,1482,1502,1520,1541,1560,1581,1602,1622,1642,1661,1681,1702,1721,1742,1761,1781,1801,1821,1842,1861,1881,1901,1921,1942,1961,1982,2002,2022,2042,2060,2082,2101,2120,2142,2161,2181,2201,2222,2241,2260,2281,2301],"xSR":741.5,"ySR":573.95,"xT1":424.9,"yT1":0,"xT2":1058.1,"yT2":0,"toosoon":0,"cond_shown":"Incongruent","ratio_trial":200,"L_num":7,"L_den":10,"R_num":8,"R_den":16,"correct_side":1,"subjID":"LauraPuentes34","gender":"1","school":"4","age":"9"},{"start_time":1552069227828,"click_time":1552069229808,"finger_time":1552069229089,"fix_duration":1158.2628995596444,"trial":31,"RT":1261,"MT":719,"sideResp":2,"stimulus":[],"xmouse":[768,768,768,768,768,768,768,768,768,768,768,768,768,768,768,768,768,768,768,768,768,768,768,768,768,768,768,768,768,768,768,768,768,768,768,768,768,768,768,768,768,768,768,768,768,768,768,768,768,768,768,768,768,768,768,768,768,768,768,768,768,767,762,758,752,743,738,727,726,726,726,726,733,739,744,751,758,768,770,771,771,772,778,779,780,782,782,782,782,783,784,788,796,799,803,819,850,929,987,1069],"ymouse":[628,628,628,628,628,628,628,628,628,628,628,628,628,628,628,628,628,628,628,628,628,628,628,628,628,628,628,628,628,628,628,628,628,628,628,628,628,628,628,628,628,628,628,628,628,628,628,628,628,628,628,628,628,628,628,628,628,628,628,627,622,608,578,563,544,522,502,447,420,396,375,354,317,298,279,259,241,202,185,165,143,119,93,89,86,83,82,82,82,82,82,82,80,78,77,69,62,50,40,37],"timestamp_mouse":[1,20,42,61,80,99,121,141,160,180,200,220,240,260,280,300,321,340,360,380,400,420,440,460,480,501,519,539,561,581,601,621,640,660,681,701,720,740,760,781,800,820,840,861,880,901,920,940,960,981,1001,1020,1040,1061,1080,1100,1120,1141,1160,1179,1200,1220,1240,1261,1279,1300,1320,1340,1359,1380,1400,1420,1440,1460,1480,1500,1521,1540,1561,1580,1601,1621,1640,1661,1681,1701,1720,1741,1760,1780,1800,1821,1840,1859,1881,1900,1920,1940,1959,1979],"xSR":741.5,"ySR":573.95,"xT1":424.9,"yT1":0,"xT2":1058.1,"yT2":0,"toosoon":0,"cond_shown":"Congruent","ratio_trial":200,"L_num":6,"L_den":12,"R_num":7,"R_den":10,"correct_side":2,"subjID":"LauraPuentes34","gender":"1","school":"4","age":"9"},{"start_time":1552069232855,"click_time":1552069235209,"finger_time":1552069233870,"fix_duration":1426.356882423628,"trial":32,"RT":1015,"MT":1339,"sideResp":2,"stimulus":[],"xmouse":[768,768,768,768,768,768,768,768,768,768,768,768,768,768,768,768,768,768,768,768,768,768,768,768,768,768,768,768,768,768,768,768,768,768,768,768,768,768,768,768,768,768,768,768,768,768,768,768,763,759,739,731,720,709,708,708,708,708,708,708,708,708,708,708,707,708,718,728,735,742,748,764,776,784,792,807,814,818,824,827,834,836,839,840,840,840,840,840,840,840,840,843,843,843,843,843,843,843,843,843,843,843,843,843,843,843,843,843,843,843,843,843,847,858,867,913,978,1070],"ymouse":[622,622,622,622,622,622,622,622,622,622,622,622,622,622,622,622,622,622,622,622,622,622,622,622,622,622,622,622,622,622,622,622,622,622,622,622,622,622,622,622,622,622,622,622,622,622,622,622,622,622,627,629,633,636,636,636,636,636,636,636,636,636,636,636,636,631,599,577,555,532,509,465,439,421,403,365,347,332,318,295,253,237,217,204,193,183,163,149,131,113,99,77,75,75,75,75,75,75,75,75,75,75,75,75,75,75,75,75,75,75,75,75,75,71,70,69,69,69],"timestamp_mouse":[13,46,52,72,92,114,134,154,173,194,214,232,252,274,292,312,334,353,373,392,414,434,453,474,493,513,532,554,574,593,614,633,652,674,694,712,734,753,772,793,814,833,854,873,894,914,934,954,973,993,1015,1033,1053,1073,1094,1113,1133,1153,1172,1193,1213,1234,1254,1273,1293,1313,1333,1353,1374,1394,1414,1434,1454,1473,1493,1514,1533,1553,1574,1594,1615,1633,1653,1673,1693,1714,1734,1754,1774,1793,1813,1832,1853,1874,1894,1913,1934,1953,1973,1994,2014,2033,2053,2073,2093,2113,2134,2154,2173,2193,2214,2233,2252,2272,2293,2314,2332,2354],"xSR":741.5,"ySR":573.95,"xT1":424.9,"yT1":0,"xT2":1058.1,"yT2":0,"toosoon":0,"cond_shown":"Congruent","ratio_trial":200,"L_num":3,"L_den":6,"R_num":14,"R_den":20,"correct_side":2,"subjID":"LauraPuentes34","gender":"1","school":"4","age":"9"},{"start_time":1552069237772,"click_time":1552069242068,"finger_time":1552069239187,"fix_duration":981.715423021117,"trial":33,"RT":1415,"MT":2881,"sideResp":2,"stimulus":[],"xmouse":[761,761,761,761,761,761,761,761,761,761,761,761,761,761,761,761,761,761,761,761,761,761,761,761,761,761,761,761,761,761,761,761,761,761,761,761,761,761,761,761,761,761,761,761,761,761,761,761,761,761,761,761,761,761,761,761,761,761,761,761,761,761,761,761,761,761,761,761,761,761,761,766,771,779,785,791,791,785,779,770,746,722,699,674,647,596,588,584,580,579,579,579,579,579,579,579,579,579,579,579,579,579,579,579,578,577,577,576,577,580,588,592,598,604,606,615,619,621,622,624,627,628,629,629,631,634,639,650,663,685,741,772,800,822,834,834,834,834,834,834,834,834,834,831,828,823,808,789,757,702,622,601,596,596,596,620,634,645,656,671,745,782,858,1015,1109,1350,1496,1496,1496,1496,1496,1496,1496,1496,1496,1496,1496,1496,1496,1496,1496,1496,1496,1496,1496,1496,1496,1496,1496,1496,1578,1537,1472,1418,1347,1286,1245,1239,1237,1236,1235,1233,1233,1233,1233,1233,1233,1233,1232,1230,1227,1196,1179,1159,1140],"ymouse":[636,636,636,636,636,636,636,636,636,636,636,636,636,636,636,636,636,636,636,636,636,636,636,636,636,636,636,636,636,636,636,636,636,636,636,636,636,636,636,636,636,636,636,636,636,636,636,636,636,636,636,636,636,636,636,636,636,636,636,636,636,636,636,636,636,636,636,624,601,579,534,515,496,478,452,419,399,375,351,327,280,247,213,182,143,56,34,22,11,6,5,5,5,5,5,5,5,5,5,5,5,5,5,5,5,5,5,8,13,17,29,33,39,45,46,52,54,55,56,57,60,60,62,62,62,63,63,62,60,58,52,50,46,44,42,42,42,42,42,42,42,42,42,42,43,44,51,58,68,81,105,110,112,112,112,108,105,101,97,92,69,58,38,8,0,0,0,0,0,0,0,0,0,0,0,0,0,0,0,0,0,0,0,0,0,0,0,0,0,0,5,20,39,52,65,74,82,84,85,86,87,90,90,90,90,90,90,90,90,89,87,83,83,83,83],"timestamp_mouse":[17,45,56,76,95,116,137,155,176,196,216,237,255,277,297,316,336,357,377,395,417,437,456,477,496,517,535,557,577,596,616,637,656,677,696,716,737,756,776,797,816,837,857,876,896,915,935,955,977,997,1017,1036,1056,1076,1096,1116,1135,1156,1177,1196,1215,1237,1257,1276,1297,1317,1337,1356,1376,1397,1415,1436,1456,1475,1496,1516,1536,1556,1576,1597,1616,1637,1657,1677,1696,1715,1736,1757,1776,1795,1817,1836,1856,1877,1896,1915,1935,1956,1975,1997,2017,2036,2057,2076,2095,2116,2137,2156,2176,2197,2216,2237,2257,2276,2295,2315,2335,2356,2377,2397,2416,2437,2455,2476,2497,2516,2535,2555,2577,2597,2615,2636,2656,2676,2695,2716,2737,2756,2777,2796,2817,2835,2856,2877,2896,2916,2936,2957,2975,2996,3016,3036,3057,3076,3095,3116,3136,3156,3177,3197,3216,3236,3257,3276,3296,3317,3336,3355,3377,3397,3416,3436,3456,3476,3497,3515,3535,3555,3576,3597,3616,3635,3656,3676,3697,3716,3737,3757,3777,3797,3817,3836,3857,3876,3897,3917,3937,3957,3976,3996,4016,4037,4056,4077,4096,4116,4137,4155,4176,4196,4216,4237,4257,4276,4296],"xSR":741.5,"ySR":573.95,"xT1":424.9,"yT1":0,"xT2":1058.1,"yT2":0,"toosoon":0,"cond_shown":"Incongruent","ratio_trial":200,"L_num":6,"L_den":20,"R_num":3,"R_den":6,"correct_side":2,"subjID":"LauraPuentes34","gender":"1","school":"4","age":"9"},{"start_time":1552069244238,"click_time":1552069246628,"finger_time":1552069245127,"fix_duration":429.8445790018829,"trial":34,"RT":889,"MT":1501,"sideResp":2,"stimulus":[],"xmouse":[773,773,773,773,773,773,773,773,773,773,773,773,773,773,773,773,773,773,773,773,773,773,773,773,773,773,773,773,773,773,773,773,773,773,773,773,773,773,773,773,773,773,776,796,811,813,813,813,792,776,759,745,740,739,739,739,739,739,739,747,760,762,762,762,762,766,794,808,823,823,823,824,826,827,827,827,827,827,827,824,824,823,823,820,819,817,815,814,814,814,814,814,817,832,838,841,844,844,841,838,835,833,830,830,830,830,830,832,842,851,866,878,891,906,938,956,983,1002,1023,1060],"ymouse":[634,634,634,634,634,634,634,634,634,634,634,634,634,634,634,634,634,634,634,634,634,634,634,634,634,634,634,634,634,634,634,634,634,634,634,634,634,634,634,634,634,634,629,598,571,565,563,560,540,529,517,506,500,494,493,493,493,493,490,460,411,387,379,379,379,377,363,355,345,342,339,334,328,317,311,304,294,284,278,266,263,261,261,260,259,256,254,252,252,252,252,252,249,230,207,183,160,135,119,111,105,103,99,99,99,98,97,94,91,87,83,80,79,77,77,76,73,70,68,66],"timestamp_mouse":[14,34,50,71,90,111,129,150,171,189,211,230,251,269,291,311,331,351,371,390,411,430,451,471,490,511,531,551,570,590,611,631,649,670,690,711,730,750,771,790,809,830,850,869,889,911,930,950,970,990,1010,1030,1050,1070,1090,1110,1130,1149,1170,1190,1211,1230,1250,1270,1290,1311,1330,1349,1370,1391,1410,1430,1451,1470,1490,1509,1531,1549,1569,1589,1610,1630,1651,1673,1690,1710,1731,1751,1770,1790,1809,1830,1850,1870,1889,1910,1931,1951,1969,1989,2010,2030,2049,2070,2091,2111,2131,2150,2169,2190,2211,2231,2251,2269,2290,2310,2330,2351,2370,2390],"xSR":741.5,"ySR":573.95,"xT1":424.9,"yT1":0,"xT2":1058.1,"yT2":0,"toosoon":0,"cond_shown":"Congruent","ratio_trial":100,"L_num":7,"L_den":14,"R_num":15,"R_den":25,"correct_side":2,"subjID":"LauraPuentes34","gender":"1","school":"4","age":"9"},{"start_time":1552069249137,"click_time":1552069251528,"finger_time":1552069250468,"fix_duration":1406.4347363590139,"trial":35,"RT":1331,"MT":1060,"sideResp":2,"stimulus":[],"xmouse":[785,785,785,785,785,785,785,785,785,785,785,785,785,785,785,785,785,785,785,785,785,785,785,785,785,785,785,785,785,785,785,785,785,785,785,785,785,783,779,769,769,769,769,769,769,769,769,769,769,769,769,769,769,769,768,768,768,768,768,768,768,768,768,768,768,769,777,787,797,809,809,811,811,811,804,799,793,789,784,780,780,779,779,779,781,787,793,802,811,817,818,819,821,823,840,850,859,866,871,879,884,893,904,912,927,929,929,929,929,930,932,932,932,932,932,935,944,968,1002,1103],"ymouse":[631,631,631,631,631,631,631,631,631,631,631,631,631,631,631,631,631,631,631,631,631,631,631,631,631,631,631,631,631,631,631,631,631,631,631,631,631,630,630,633,633,633,633,633,633,633,633,633,633,633,633,633,633,633,632,630,630,630,630,630,630,630,630,628,601,577,551,520,492,436,413,386,362,346,311,291,264,236,213,185,181,180,179,177,168,155,139,125,114,108,108,107,107,105,94,87,82,78,75,71,68,63,58,55,50,50,50,50,50,49,49,48,48,48,48,48,48,44,42,33],"timestamp_mouse":[11,40,52,71,92,112,132,151,172,192,211,232,252,272,292,311,330,350,371,390,410,431,450,472,492,512,532,551,572,592,610,630,652,672,691,710,731,750,771,791,812,830,850,872,891,912,930,952,972,991,1011,1031,1052,1071,1091,1111,1131,1152,1172,1191,1211,1231,1251,1271,1291,1311,1331,1352,1371,1391,1411,1431,1452,1471,1492,1512,1531,1551,1571,1591,1612,1631,1651,1672,1690,1711,1732,1751,1771,1792,1811,1832,1851,1871,1890,1911,1932,1952,1971,1991,2011,2031,2052,2071,2091,2111,2132,2152,2171,2191,2211,2231,2250,2271,2292,2311,2331,2351,2371,2391],"xSR":741.5,"ySR":573.95,"xT1":424.9,"yT1":0,"xT2":1058.1,"yT2":0,"toosoon":0,"cond_shown":"Incongruent","ratio_trial":100,"L_num":12,"L_den":30,"R_num":2,"R_den":4,"correct_side":2,"subjID":"LauraPuentes34","gender":"1","school":"4","age":"9"},{"start_time":1552069253867,"click_time":1552069255829,"finger_time":1552069255089,"fix_duration":875.0251242947526,"trial":36,"RT":1222,"MT":740,"sideResp":2,"stimulus":[],"xmouse":[822,822,822,822,822,822,822,822,822,822,822,822,822,822,822,822,822,822,822,822,822,822,822,822,822,822,822,822,822,822,822,822,822,822,822,822,822,822,822,822,822,822,822,822,822,822,822,822,822,822,822,822,822,822,822,822,822,822,822,818,813,804,797,779,773,770,768,768,799,818,842,869,898,938,946,951,956,960,968,972,976,981,988,990,990,990,990,990,990,991,992,994,995,1001,1007,1014,1022,1032,1060],"ymouse":[637,637,637,637,637,637,637,637,637,637,637,637,637,637,637,637,637,637,637,637,637,637,637,637,637,637,637,637,637,637,637,637,637,637,637,637,637,637,637,637,637,637,637,637,637,637,637,637,637,637,637,637,637,637,637,636,636,636,619,600,584,568,556,531,518,503,482,456,375,331,284,241,202,172,166,156,148,142,129,124,118,112,104,100,100,100,100,100,100,100,99,99,99,96,94,91,88,85,80],"timestamp_mouse":[14,26,41,62,81,101,121,141,161,180,202,221,241,262,280,301,320,342,362,380,401,421,440,462,482,500,521,541,561,581,601,621,642,661,680,702,721,741,761,780,802,822,841,862,881,902,922,941,962,981,1001,1021,1041,1061,1082,1102,1122,1141,1161,1181,1201,1222,1242,1261,1280,1301,1320,1341,1361,1382,1402,1422,1442,1461,1481,1501,1522,1541,1561,1581,1601,1622,1642,1661,1681,1702,1721,1740,1762,1781,1801,1821,1841,1861,1880,1900,1922,1942,1961],"xSR":741.5,"ySR":573.95,"xT1":424.9,"yT1":0,"xT2":1058.1,"yT2":0,"toosoon":0,"cond_shown":"Incongruent","ratio_trial":200,"L_num":7,"L_den":15,"R_num":4,"R_den":6,"correct_side":2,"subjID":"LauraPuentes34","gender":"1","school":"4","age":"9"},{"start_time":1552069257411,"click_time":1552069259249,"finger_time":1552069258129,"fix_duration":401.9208190324973,"trial":37,"RT":718,"MT":1120,"sideResp":2,"stimulus":[],"xmouse":[772,772,772,772,772,772,772,772,772,772,772,772,772,772,772,772,772,772,772,772,772,772,772,772,772,772,771,771,771,771,771,771,771,770,769,769,769,769,769,769,768,762,756,748,744,741,736,736,736,736,736,736,736,738,741,744,752,753,755,757,765,771,777,785,791,799,802,805,806,807,807,807,807,807,807,807,807,808,810,815,821,830,838,843,850,870,889,911,948,988,1018,1081],"ymouse":[604,604,604,604,604,604,604,604,604,604,604,604,604,604,604,604,604,604,604,604,604,604,604,604,604,604,603,603,603,603,598,593,589,585,575,557,544,525,503,478,427,409,394,374,362,351,337,329,321,317,309,305,292,280,269,259,247,245,243,239,229,223,215,204,197,186,182,178,177,175,174,174,174,174,174,174,174,173,171,166,162,157,153,151,149,138,129,116,99,83,75,63],"timestamp_mouse":[17,42,58,78,97,118,137,156,178,198,217,238,257,276,298,318,336,356,377,398,418,437,458,477,498,517,537,558,577,596,618,637,657,678,697,718,737,757,777,797,817,836,857,876,898,917,938,958,976,997,1017,1036,1056,1076,1097,1116,1137,1157,1176,1196,1218,1237,1257,1276,1296,1317,1336,1356,1376,1396,1416,1437,1457,1477,1498,1517,1537,1557,1577,1596,1618,1638,1657,1678,1698,1718,1737,1757,1777,1796,1818,1837],"xSR":741.5,"ySR":573.95,"xT1":424.9,"yT1":0,"xT2":1058.1,"yT2":0,"toosoon":0,"cond_shown":"Congruent","ratio_trial":200,"L_num":7,"L_den":15,"R_num":18,"R_den":27,"correct_side":2,"subjID":"LauraPuentes34","gender":"1","school":"4","age":"9"},{"start_time":1552069260399,"click_time":1552069262229,"finger_time":1552069261387,"fix_duration":250,"trial":38,"RT":988,"MT":842,"sideResp":2,"stimulus":[],"xmouse":[788,788,788,788,788,788,788,788,788,788,788,788,788,788,788,788,788,788,788,788,788,788,788,788,788,788,788,788,788,788,787,787,785,784,784,783,783,781,780,778,777,775,772,770,769,768,768,766,764,762,758,756,733,719,710,698,689,685,685,685,685,688,696,701,705,711,717,734,745,753,760,768,785,793,799,803,808,823,830,838,843,849,863,872,881,895,910,942,960,980,1008,1060],"ymouse":[659,659,658,658,658,658,658,658,658,658,658,658,657,657,657,657,657,657,657,657,657,657,655,655,654,653,652,652,652,652,650,650,647,645,644,644,643,638,635,631,625,621,610,606,604,601,598,587,576,561,532,523,475,454,441,422,404,374,358,343,327,311,270,252,235,217,203,176,164,155,150,145,134,129,126,122,118,108,106,102,101,99,96,95,94,92,90,87,84,83,83,83],"timestamp_mouse":[27,29,48,69,88,109,129,148,168,188,210,228,249,269,289,310,329,349,369,390,408,429,449,470,488,510,529,549,568,589,609,630,649,668,688,710,729,748,769,790,808,830,849,869,889,908,930,949,968,988,1008,1029,1049,1068,1088,1108,1128,1149,1169,1189,1209,1229,1248,1270,1289,1308,1329,1349,1368,1389,1409,1430,1449,1470,1488,1508,1530,1548,1568,1589,1609,1629,1649,1669,1690,1710,1729,1749,1769,1789,1809,1830],"xSR":741.5,"ySR":573.95,"xT1":424.9,"yT1":0,"xT2":1058.1,"yT2":0,"toosoon":0,"cond_shown":"Incongruent","ratio_trial":300,"L_num":4,"L_den":20,"R_num":2,"R_den":4,"correct_side":2,"subjID":"LauraPuentes34","gender":"1","school":"4","age":"9"},{"start_time":1552069264410,"click_time":1552069266627,"finger_time":1552069265489,"fix_duration":821.29310405306,"trial":39,"RT":1079,"MT":1138,"sideResp":2,"stimulus":[],"xmouse":[817,817,817,817,817,817,817,817,817,817,817,817,817,817,817,817,817,817,817,817,817,817,817,817,817,817,817,817,817,817,817,817,817,817,817,817,817,817,817,817,817,817,817,817,817,817,817,817,817,817,817,817,817,813,810,803,799,790,788,782,778,768,765,762,760,759,755,755,753,753,742,738,731,730,729,725,701,672,655,648,645,644,643,643,643,642,641,639,639,638,638,638,638,638,638,638,638,638,638,638,638,638,650,652,670,691,720,857,938,1020,1108],"ymouse":[592,592,592,592,592,592,592,592,592,592,592,592,592,592,592,592,592,592,592,592,592,592,592,592,592,592,592,592,592,592,592,592,592,592,592,592,592,592,5