[{"start_time":1552054837822,"click_time":1552054838527,"finger_time":1552054838386,"fix_duration":751.2183810288159,"trial":0,"RT":564,"MT":141,"sideResp":1,"stimulus":[],"xmouse":[793,793,793,793,793,793,793,793,793,793,793,793,793,793,793,793,793,793,793,793,792,792,789,781,777,765,754,736,715,677,664,644,614,526,460,437],"ymouse":[556,556,556,556,556,556,556,556,556,556,556,556,556,556,556,556,556,556,556,556,556,552,543,526,518,502,486,462,432,388,373,353,320,240,144,87],"timestamp_mouse":[10,42,44,64,85,103,123,144,164,184,203,223,244,265,284,305,323,344,363,384,404,424,444,464,485,503,524,544,564,585,604,624,644,665,683,704],"xSR":735,"ySR":493.35,"xT1":421,"yT1":0,"xT2":1049,"yT2":0,"toosoon":0,"cond_shown":"Incongruent","ratio_trial":200,"L_num":11,"L_den":20,"R_num":3,"R_den":4,"correct_side":2,"subjID":"Laurasofiasanchez2","gender":"1","age":"9","school":"4","test":{"fix_dur":[250,1500],"timestim":1000,"targets_dim":[100,100],"targets_relative_coord":[0.3,0.7],"size_stim":[880,420],"start_dim":[100,100],"size_start":[300,300],"size_fix":60,"samplingrate":20,"img_types":["Congruent","Incongruent"],"ratios":[100,200,300],"rep_conds":19,"nTrials":120,"trials_to_rest":500,"Trials_order":[45,39,1,12,107,82,58,78,65,100,87,91,62,88,97,51,2,30,63,95,80,42,89,60,33,74,43,17,114,105,22,20,86,61,10,16,4,117,11,13,104,3,23,24,29,40,73,27,108,53,76,79,103,8,41,57,56,69,90,67,72,118,46,102,64,28,54,83,81,75,0,9,52,15,111,110,55,94,98,34,7,119,26,115,66,50,101,99,84,48,93,106,5,112,71,70,85,21,109,77,25,38,36,113,31,116,47,19,35,68,18,59,14,37,32,92,96,49,44,6],"cond_shown":["Incongruent","Incongruent","Incongruent","Congruent","Incongruent","Congruent","Congruent","Congruent","Incongruent","Congruent","Incongruent","Incongruent","Congruent","Congruent","Incongruent","Incongruent","Congruent","Congruent","Incongruent","Incongruent","Congruent","Congruent","Incongruent","Congruent","Incongruent","Congruent","Incongruent","Incongruent","Congruent","Incongruent","Congruent","Congruent","Congruent","Incongruent","Congruent","Congruent","Congruent","Incongruent","Incongruent","Incongruent","Congruent","Incongruent","Incongruent","Congruent","Incongruent","Congruent","Incongruent","Incongruent","Congruent","Incongruent","Congruent","Incongruent","Incongruent","Congruent","Incongruent","Incongruent","Congruent","Incongruent","Congruent","Incongruent","Congruent","Congruent","Congruent","Congruent","Congruent","Congruent","Congruent","Incongruent","Incongruent","Incongruent","Congruent","Incongruent","Congruent","Incongruent","Incongruent","Congruent","Incongruent","Congruent","Congruent","Congruent","Incongruent","Incongruent","Congruent","Incongruent","Congruent","Congruent","Incongruent","Incongruent","Congruent","Congruent","Incongruent","Congruent","Incongruent","Congruent","Incongruent","Congruent","Incongruent","Incongruent","Incongruent","Incongruent","Incongruent","Congruent","Congruent","Incongruent","Incongruent","Congruent","Incongruent","Incongruent","Incongruent","Congruent","Congruent","Incongruent","Congruent","Incongruent","Congruent","Congruent","Congruent","Incongruent","Congruent","Congruent"],"ratio_trial":[200,200,100,100,300,300,300,100,300,300,200,100,200,300,100,200,200,100,200,300,200,100,300,100,200,200,100,300,100,200,300,200,200,100,300,300,300,200,300,100,200,200,300,100,300,300,100,200,100,300,300,100,100,200,300,200,200,200,100,100,100,300,300,100,300,300,100,300,200,200,100,200,300,200,200,200,100,300,200,300,100,300,200,100,100,200,300,200,100,100,200,300,300,300,300,300,100,200,100,300,100,200,100,300,100,200,300,100,300,200,100,300,200,100,200,200,100,100,200,100],"left_num":[11,14,9,3,3,1,5,7,7,11,9,6,5,11,3,7,3,11,7,8,21,2,4,4,1,11,12,1,8,3,9,9,6,3,11,20,20,11,13,11,6,4,4,11,13,8,12,14,10,4,1,10,6,6,13,7,6,1,11,13,1,1,1,3,2,9,11,4,7,11,7,4,24,7,4,4,8,1,3,24,2,4,3,10,2,8,13,9,3,10,14,11,8,1,8,1,3,7,11,13,12,16,10,4,9,8,1,4,13,8,1,13,11,3,3,3,6,3,6,3],"right_num":[3,12,13,4,4,7,6,15,8,2,8,7,14,2,8,12,9,4,8,9,2,11,8,15,2,3,9,3,2,1,3,4,3,4,1,9,9,3,12,9,11,6,2,6,12,1,9,12,3,2,3,8,7,11,12,4,11,2,6,6,18,3,11,2,12,3,4,6,14,3,9,6,2,8,14,3,6,6,7,2,6,8,14,8,11,2,12,8,2,3,12,4,14,6,9,6,4,6,9,12,9,9,3,2,13,7,3,8,12,7,3,12,3,4,14,9,15,7,7,2],"left_den":[20,30,15,20,6,20,25,14,10,22,15,10,10,22,5,10,12,22,10,10,30,5,5,10,3,22,24,2,16,10,10,20,15,6,22,25,25,20,26,22,20,5,20,22,26,16,24,30,25,20,5,25,10,20,26,15,20,3,22,26,2,5,5,6,10,10,22,5,10,20,14,5,30,10,6,10,16,5,10,30,4,5,6,25,5,15,26,15,6,25,30,22,10,5,10,5,6,15,22,26,24,30,25,20,15,15,2,8,26,15,2,26,22,6,6,12,12,9,12,6],"right_den":[4,18,26,16,20,20,12,25,20,10,10,14,20,10,16,24,20,10,16,18,4,22,16,30,15,10,15,15,5,2,5,16,15,10,5,18,18,4,15,15,22,10,4,15,15,5,15,18,10,4,6,16,14,22,15,6,22,15,15,10,30,6,22,5,24,5,10,12,28,4,15,10,4,16,30,15,10,12,14,4,15,16,20,16,22,6,15,10,5,10,18,20,28,12,18,12,10,9,15,15,15,27,10,4,26,21,15,20,15,21,5,15,10,10,20,20,25,30,10,5],"correct_side":[2,2,1,2,1,2,2,2,1,1,2,1,2,1,1,1,2,1,1,1,1,2,1,2,1,1,2,1,1,2,1,1,1,1,1,1,1,2,2,2,2,1,2,1,2,1,2,2,1,2,2,2,1,2,2,2,2,1,1,2,2,2,2,1,2,1,1,1,1,2,2,1,1,1,1,1,2,2,2,1,1,1,2,2,2,1,2,2,1,1,2,1,1,2,1,2,1,2,2,2,2,1,1,2,1,1,1,1,2,1,2,2,1,1,2,2,2,1,2,1],"img_shown":["img2/200/Incongruent/R/I_Dist_200_LN_11_LD_20_RN_3_RD_4_1.png","img2/200/Incongruent/R/I_Dist_200_LN_14_LD_30_RN_12_RD_18_1.png","img2/100/Incongruent/L/I_Dist_100_LN_9_LD_15_RN_13_RD_26_0.png","img2/100/Congruent/R/C_Dist_100_LN_3_LD_20_RN_4_RD_16_1.png","img2/300/Incongruent/L/I_Dist_300_LN_3_LD_6_RN_4_RD_20_0.png","img2/300/Congruent/R/C_Dist_300_LN_1_LD_20_RN_7_RD_20_1.png","img2/300/Congruent/R/C_Dist_300_LN_5_LD_25_RN_6_RD_12_1.png","img2/100/Congruent/R/C_Dist_100_LN_7_LD_14_RN_15_RD_25_1.png","img2/300/Incongruent/L/I_Dist_300_LN_7_LD_10_RN_8_RD_20_0.png","img2/300/Congruent/L/C_Dist_300_LN_11_LD_22_RN_2_RD_10_0.png","img2/200/Incongruent/R/I_Dist_200_LN_9_LD_15_RN_8_RD_10_1.png","img2/100/Incongruent/L/I_Dist_100_LN_6_LD_10_RN_7_RD_14_0.png","img2/200/Congruent/R/C_Dist_200_LN_5_LD_10_RN_14_RD_20_1.png","img2/300/Congruent/L/C_Dist_300_LN_11_LD_22_RN_2_RD_10_0.png","img2/100/Incongruent/L/I_Dist_100_LN_3_LD_5_RN_8_RD_16_0.png","img2/200/Incongruent/L/I_Dist_200_LN_7_LD_10_RN_12_RD_24_0.png","img2/200/Congruent/R/C_Dist_200_LN_3_LD_12_RN_9_RD_20_1.png","img2/100/Congruent/L/C_Dist_100_LN_11_LD_22_RN_4_RD_10_0.png","img2/200/Incongruent/L/I_Dist_200_LN_7_LD_10_RN_8_RD_16_0.png","img2/300/Incongruent/L/I_Dist_300_LN_8_LD_10_RN_9_RD_18_0.png","img2/200/Congruent/L/C_Dist_200_LN_21_LD_30_RN_2_RD_4_0.png","img2/100/Congruent/R/C_Dist_100_LN_2_LD_5_RN_11_RD_22_1.png","img2/300/Incongruent/L/I_Dist_300_LN_4_LD_5_RN_8_RD_16_0.png","img2/100/Congruent/R/C_Dist_100_LN_4_LD_10_RN_15_RD_30_1.png","img2/200/Incongruent/L/I_Dist_200_LN_1_LD_3_RN_2_RD_15_0.png","img2/200/Congruent/L/C_Dist_200_LN_11_LD_22_RN_3_RD_10_0.png","img2/100/Incongruent/R/I_Dist_100_LN_12_LD_24_RN_9_RD_15_1.png","img2/300/Incongruent/L/I_Dist_300_LN_1_LD_2_RN_3_RD_15_0.png","img2/100/Congruent/L/C_Dist_100_LN_8_LD_16_RN_2_RD_5_0.png","img2/200/Incongruent/R/I_Dist_200_LN_3_LD_10_RN_1_RD_2_1.png","img2/300/Congruent/L/C_Dist_300_LN_9_LD_10_RN_3_RD_5_0.png","img2/200/Congruent/L/C_Dist_200_LN_9_LD_20_RN_4_RD_16_0.png","img2/200/Congruent/L/C_Dist_200_LN_6_LD_15_RN_3_RD_15_0.png","img2/100/Incongruent/L/I_Dist_100_LN_3_LD_6_RN_4_RD_10_0.png","img2/300/Congruent/L/C_Dist_300_LN_11_LD_22_RN_1_RD_5_0.png","img2/300/Congruent/L/C_Dist_300_LN_20_LD_25_RN_9_RD_18_0.png","img2/300/Congruent/L/C_Dist_300_LN_20_LD_25_RN_9_RD_18_0.png","img2/200/Incongruent/R/I_Dist_200_LN_11_LD_20_RN_3_RD_4_1.png","img2/300/Incongruent/R/I_Dist_300_LN_13_LD_26_RN_12_RD_15_1.png","img2/100/Incongruent/R/I_Dist_100_LN_11_LD_22_RN_9_RD_15_1.png","img2/200/Congruent/R/C_Dist_200_LN_6_LD_20_RN_11_RD_22_1.png","img2/200/Incongruent/L/I_Dist_200_LN_4_LD_5_RN_6_RD_10_0.png","img2/300/Incongruent/R/I_Dist_300_LN_4_LD_20_RN_2_RD_4_1.png","img2/100/Congruent/L/C_Dist_100_LN_11_LD_22_RN_6_RD_15_0.png","img2/300/Incongruent/R/I_Dist_300_LN_13_LD_26_RN_12_RD_15_1.png","img2/300/Congruent/L/C_Dist_300_LN_8_LD_16_RN_1_RD_5_0.png","img2/100/Incongruent/R/I_Dist_100_LN_12_LD_24_RN_9_RD_15_1.png","img2/200/Incongruent/R/I_Dist_200_LN_14_LD_30_RN_12_RD_18_1.png","img2/100/Congruent/L/C_Dist_100_LN_10_LD_25_RN_3_RD_10_0.png","img2/300/Incongruent/R/I_Dist_300_LN_4_LD_20_RN_2_RD_4_1.png","img2/300/Congruent/R/C_Dist_300_LN_1_LD_5_RN_3_RD_6_1.png","img2/100/Incongruent/R/I_Dist_100_LN_10_LD_25_RN_8_RD_16_1.png","img2/100/Incongruent/L/I_Dist_100_LN_6_LD_10_RN_7_RD_14_0.png","img2/200/Congruent/R/C_Dist_200_LN_6_LD_20_RN_11_RD_22_1.png","img2/300/Incongruent/R/I_Dist_300_LN_13_LD_26_RN_12_RD_15_1.png","img2/200/Incongruent/R/I_Dist_200_LN_7_LD_15_RN_4_RD_6_1.png","img2/200/Congruent/R/C_Dist_200_LN_6_LD_20_RN_11_RD_22_1.png","img2/200/Incongruent/L/I_Dist_200_LN_1_LD_3_RN_2_RD_15_0.png","img2/100/Congruent/L/C_Dist_100_LN_11_LD_22_RN_6_RD_15_0.png","img2/100/Incongruent/R/I_Dist_100_LN_13_LD_26_RN_6_RD_10_1.png","img2/100/Congruent/R/C_Dist_100_LN_1_LD_2_RN_18_RD_30_1.png","img2/300/Congruent/R/C_Dist_300_LN_1_LD_5_RN_3_RD_6_1.png","img2/300/Congruent/R/C_Dist_300_LN_1_LD_5_RN_11_RD_22_1.png","img2/100/Congruent/L/C_Dist_100_LN_3_LD_6_RN_2_RD_5_0.png","img2/300/Congruent/R/C_Dist_300_LN_2_LD_10_RN_12_RD_24_1.png","img2/300/Congruent/L/C_Dist_300_LN_9_LD_10_RN_3_RD_5_0.png","img2/100/Congruent/L/C_Dist_100_LN_11_LD_22_RN_4_RD_10_0.png","img2/300/Incongruent/L/I_Dist_300_LN_4_LD_5_RN_6_RD_12_0.png","img2/200/Incongruent/L/I_Dist_200_LN_7_LD_10_RN_14_RD_28_0.png","img2/200/Incongruent/R/I_Dist_200_LN_11_LD_20_RN_3_RD_4_1.png","img2/100/Congruent/R/C_Dist_100_LN_7_LD_14_RN_9_RD_15_1.png","img2/200/Incongruent/L/I_Dist_200_LN_4_LD_5_RN_6_RD_10_0.png","img2/300/Congruent/L/C_Dist_300_LN_24_LD_30_RN_2_RD_4_0.png","img2/200/Incongruent/L/I_Dist_200_LN_7_LD_10_RN_8_RD_16_0.png","img2/200/Incongruent/L/I_Dist_200_LN_4_LD_6_RN_14_RD_30_0.png","img2/200/Congruent/L/C_Dist_200_LN_4_LD_10_RN_3_RD_15_0.png","img2/100/Incongruent/R/I_Dist_100_LN_8_LD_16_RN_6_RD_10_1.png","img2/300/Congruent/R/C_Dist_300_LN_1_LD_5_RN_6_RD_12_1.png","img2/200/Congruent/R/C_Dist_200_LN_3_LD_10_RN_7_RD_14_1.png","img2/300/Congruent/L/C_Dist_300_LN_24_LD_30_RN_2_RD_4_0.png","img2/100/Incongruent/L/I_Dist_100_LN_2_LD_4_RN_6_RD_15_0.png","img2/300/Incongruent/L/I_Dist_300_LN_4_LD_5_RN_8_RD_16_0.png","img2/200/Congruent/R/C_Dist_200_LN_3_LD_6_RN_14_RD_20_1.png","img2/100/Incongruent/R/I_Dist_100_LN_10_LD_25_RN_8_RD_16_1.png","img2/100/Congruent/R/C_Dist_100_LN_2_LD_5_RN_11_RD_22_1.png","img2/200/Congruent/L/C_Dist_200_LN_8_LD_15_RN_2_RD_6_0.png","img2/300/Incongruent/R/I_Dist_300_LN_13_LD_26_RN_12_RD_15_1.png","img2/200/Incongruent/R/I_Dist_200_LN_9_LD_15_RN_8_RD_10_1.png","img2/100/Congruent/L/C_Dist_100_LN_3_LD_6_RN_2_RD_5_0.png","img2/100/Congruent/L/C_Dist_100_LN_10_LD_25_RN_3_RD_10_0.png","img2/200/Incongruent/R/I_Dist_200_LN_14_LD_30_RN_12_RD_18_1.png","img2/300/Congruent/L/C_Dist_300_LN_11_LD_22_RN_4_RD_20_0.png","img2/300/Incongruent/L/I_Dist_300_LN_8_LD_10_RN_14_RD_28_0.png","img2/300/Congruent/R/C_Dist_300_LN_1_LD_5_RN_6_RD_12_1.png","img2/300/Incongruent/L/I_Dist_300_LN_8_LD_10_RN_9_RD_18_0.png","img2/300/Congruent/R/C_Dist_300_LN_1_LD_5_RN_6_RD_12_1.png","img2/100/Incongruent/L/I_Dist_100_LN_3_LD_6_RN_4_RD_10_0.png","img2/200/Incongruent/R/I_Dist_200_LN_7_LD_15_RN_6_RD_9_1.png","img2/100/Incongruent/R/I_Dist_100_LN_11_LD_22_RN_9_RD_15_1.png","img2/300/Incongruent/R/I_Dist_300_LN_13_LD_26_RN_12_RD_15_1.png","img2/100/Incongruent/R/I_Dist_100_LN_12_LD_24_RN_9_RD_15_1.png","img2/200/Congruent/L/C_Dist_200_LN_16_LD_30_RN_9_RD_27_0.png","img2/100/Congruent/L/C_Dist_100_LN_10_LD_25_RN_3_RD_10_0.png","img2/300/Incongruent/R/I_Dist_300_LN_4_LD_20_RN_2_RD_4_1.png","img2/100/Incongruent/L/I_Dist_100_LN_9_LD_15_RN_13_RD_26_0.png","img2/200/Congruent/L/C_Dist_200_LN_8_LD_15_RN_7_RD_21_0.png","img2/300/Incongruent/L/I_Dist_300_LN_1_LD_2_RN_3_RD_15_0.png","img2/100/Incongruent/L/I_Dist_100_LN_4_LD_8_RN_8_RD_20_0.png","img2/300/Incongruent/R/I_Dist_300_LN_13_LD_26_RN_12_RD_15_1.png","img2/200/Congruent/L/C_Dist_200_LN_8_LD_15_RN_7_RD_21_0.png","img2/100/Congruent/R/C_Dist_100_LN_1_LD_2_RN_3_RD_5_1.png","img2/300/Incongruent/R/I_Dist_300_LN_13_LD_26_RN_12_RD_15_1.png","img2/200/Congruent/L/C_Dist_200_LN_11_LD_22_RN_3_RD_10_0.png","img2/100/Incongruent/L/I_Dist_100_LN_3_LD_6_RN_4_RD_10_0.png","img2/200/Congruent/R/C_Dist_200_LN_3_LD_6_RN_14_RD_20_1.png","img2/200/Congruent/R/C_Dist_200_LN_3_LD_12_RN_9_RD_20_1.png","img2/100/Congruent/R/C_Dist_100_LN_6_LD_12_RN_15_RD_25_1.png","img2/100/Incongruent/L/I_Dist_100_LN_3_LD_9_RN_7_RD_30_0.png","img2/200/Congruent/R/C_Dist_200_LN_6_LD_12_RN_7_RD_10_1.png","img2/100/Congruent/L/C_Dist_100_LN_3_LD_6_RN_2_RD_5_0.png"],"dist100_C":[["C_Dist_100_LN_10_LD_25_RN_3_RD_10_0.png","C_Dist_100_LN_11_LD_22_RN_4_RD_10_0.png","C_Dist_100_LN_11_LD_22_RN_6_RD_15_0.png","C_Dist_100_LN_15_LD_25_RN_13_RD_26_0.png","C_Dist_100_LN_3_LD_6_RN_2_RD_5_0.png","C_Dist_100_LN_6_LD_20_RN_5_RD_25_0.png","C_Dist_100_LN_8_LD_16_RN_2_RD_5_0.png","C_Dist_100_LN_9_LD_15_RN_8_RD_16_0.png"],["C_Dist_100_LN_1_LD_2_RN_18_RD_30_1.png","C_Dist_100_LN_1_LD_2_RN_3_RD_5_1.png","C_Dist_100_LN_12_LD_30_RN_13_RD_26_1.png","C_Dist_100_LN_2_LD_5_RN_11_RD_22_1.png","C_Dist_100_LN_2_LD_5_RN_6_RD_12_1.png","C_Dist_100_LN_3_LD_20_RN_4_RD_16_1.png","C_Dist_100_LN_4_LD_10_RN_15_RD_30_1.png","C_Dist_100_LN_4_LD_8_RN_6_RD_10_1.png","C_Dist_100_LN_6_LD_12_RN_15_RD_25_1.png","C_Dist_100_LN_7_LD_14_RN_15_RD_25_1.png","C_Dist_100_LN_7_LD_14_RN_9_RD_15_1.png"]],"dist100_I":[["I_Dist_100_LN_1_LD_2_RN_8_RD_20_0.png","I_Dist_100_LN_2_LD_4_RN_6_RD_15_0.png","I_Dist_100_LN_2_LD_4_RN_8_RD_20_0.png","I_Dist_100_LN_3_LD_5_RN_11_RD_22_0.png","I_Dist_100_LN_3_LD_5_RN_8_RD_16_0.png","I_Dist_100_LN_3_LD_6_RN_4_RD_10_0.png","I_Dist_100_LN_3_LD_9_RN_7_RD_30_0.png","I_Dist_100_LN_4_LD_8_RN_8_RD_20_0.png","I_Dist_100_LN_6_LD_10_RN_11_RD_22_0.png","I_Dist_100_LN_6_LD_10_RN_13_RD_26_0.png","I_Dist_100_LN_6_LD_10_RN_7_RD_14_0.png","I_Dist_100_LN_9_LD_10_RN_20_RD_25_0.png","I_Dist_100_LN_9_LD_15_RN_13_RD_26_0.png","I_Dist_100_LN_9_LD_15_RN_14_RD_28_0.png"],["I_Dist_100_LN_10_LD_25_RN_8_RD_16_1.png","I_Dist_100_LN_10_LD_25_RN_9_RD_18_1.png","I_Dist_100_LN_11_LD_22_RN_9_RD_15_1.png","I_Dist_100_LN_12_LD_24_RN_9_RD_15_1.png","I_Dist_100_LN_12_LD_30_RN_2_RD_4_1.png","I_Dist_100_LN_13_LD_26_RN_12_RD_20_1.png","I_Dist_100_LN_13_LD_26_RN_6_RD_10_1.png","I_Dist_100_LN_17_LD_30_RN_10_RD_15_1.png","I_Dist_100_LN_6_LD_12_RN_3_RD_5_1.png","I_Dist_100_LN_8_LD_16_RN_6_RD_10_1.png","I_Dist_100_LN_8_LD_20_RN_1_RD_2_1.png","I_Dist_100_LN_9_LD_18_RN_6_RD_10_1.png"]],"dist100_S":[["E_Dist_100_LN_2_LD_12_RN_2_RD_30_0.png","E_Dist_100_LN_6_LD_10_RN_6_RD_12_0.png"],["E_Dist_100_LN_6_LD_12_RN_6_RD_10_1.png"]],"dist200_C":[["C_Dist_200_LN_11_LD_22_RN_3_RD_10_0.png","C_Dist_200_LN_12_LD_15_RN_6_RD_10_0.png","C_Dist_200_LN_12_LD_20_RN_6_RD_15_0.png","C_Dist_200_LN_14_LD_28_RN_6_RD_20_0.png","C_Dist_200_LN_15_LD_25_RN_4_RD_10_0.png","C_Dist_200_LN_16_LD_20_RN_12_RD_20_0.png","C_Dist_200_LN_16_LD_30_RN_9_RD_27_0.png","C_Dist_200_LN_20_LD_25_RN_9_RD_15_0.png","C_Dist_200_LN_21_LD_30_RN_2_RD_4_0.png","C_Dist_200_LN_4_LD_10_RN_3_RD_15_0.png","C_Dist_200_LN_4_LD_8_RN_3_RD_10_0.png","C_Dist_200_LN_6_LD_15_RN_3_RD_15_0.png","C_Dist_200_LN_7_LD_21_RN_2_RD_15_0.png","C_Dist_200_LN_8_LD_15_RN_2_RD_6_0.png","C_Dist_200_LN_8_LD_15_RN_3_RD_9_0.png","C_Dist_200_LN_8_LD_15_RN_7_RD_21_0.png","C_Dist_200_LN_9_LD_20_RN_4_RD_16_0.png"],["C_Dist_200_LN_1_LD_2_RN_21_RD_30_1.png","C_Dist_200_LN_13_LD_26_RN_14_RD_20_1.png","C_Dist_200_LN_3_LD_10_RN_11_RD_22_1.png","C_Dist_200_LN_3_LD_10_RN_14_RD_28_1.png","C_Dist_200_LN_3_LD_10_RN_7_RD_14_1.png","C_Dist_200_LN_3_LD_12_RN_9_RD_20_1.png","C_Dist_200_LN_3_LD_6_RN_14_RD_20_1.png","C_Dist_200_LN_5_LD_10_RN_14_RD_20_1.png","C_Dist_200_LN_6_LD_12_RN_7_RD_10_1.png","C_Dist_200_LN_6_LD_20_RN_11_RD_22_1.png","C_Dist_200_LN_7_LD_15_RN_18_RD_27_1.png","C_Dist_200_LN_9_LD_30_RN_13_RD_26_1.png"]],"dist200_I":[["I_Dist_200_LN_1_LD_2_RN_3_RD_10_0.png","I_Dist_200_LN_1_LD_3_RN_2_RD_15_0.png","I_Dist_200_LN_3_LD_4_RN_11_RD_20_0.png","I_Dist_200_LN_4_LD_5_RN_6_RD_10_0.png","I_Dist_200_LN_4_LD_6_RN_14_RD_30_0.png","I_Dist_200_LN_7_LD_10_RN_12_RD_24_0.png","I_Dist_200_LN_7_LD_10_RN_14_RD_28_0.png","I_Dist_200_LN_7_LD_10_RN_8_RD_16_0.png"],["I_Dist_200_LN_11_LD_20_RN_3_RD_4_1.png","I_Dist_200_LN_14_LD_30_RN_12_RD_18_1.png","I_Dist_200_LN_14_LD_30_RN_6_RD_9_1.png","I_Dist_200_LN_3_LD_10_RN_1_RD_2_1.png","I_Dist_200_LN_4_LD_30_RN_1_RD_3_1.png","I_Dist_200_LN_6_LD_20_RN_3_RD_6_1.png","I_Dist_200_LN_7_LD_15_RN_4_RD_6_1.png","I_Dist_200_LN_7_LD_15_RN_6_RD_9_1.png","I_Dist_200_LN_9_LD_15_RN_8_RD_10_1.png"]],"dist200_S":[["E_Dist_200_LN_3_LD_6_RN_3_RD_10_0.png"],["E_Dist_200_LN_3_LD_10_RN_3_RD_6_1.png"]],"dist300_C":[["C_Dist_300_LN_11_LD_22_RN_1_RD_5_0.png","C_Dist_300_LN_11_LD_22_RN_2_RD_10_0.png","C_Dist_300_LN_11_LD_22_RN_4_RD_20_0.png","C_Dist_300_LN_12_LD_24_RN_2_RD_10_0.png","C_Dist_300_LN_18_LD_20_RN_9_RD_15_0.png","C_Dist_300_LN_20_LD_25_RN_13_RD_26_0.png","C_Dist_300_LN_20_LD_25_RN_14_RD_28_0.png","C_Dist_300_LN_20_LD_25_RN_5_RD_10_0.png","C_Dist_300_LN_20_LD_25_RN_8_RD_16_0.png","C_Dist_300_LN_20_LD_25_RN_9_RD_18_0.png","C_Dist_300_LN_24_LD_30_RN_2_RD_4_0.png","C_Dist_300_LN_24_LD_30_RN_8_RD_16_0.png","C_Dist_300_LN_3_LD_6_RN_2_RD_10_0.png","C_Dist_300_LN_4_LD_10_RN_1_RD_10_0.png","C_Dist_300_LN_4_LD_5_RN_2_RD_4_0.png","C_Dist_300_LN_8_LD_16_RN_1_RD_5_0.png","C_Dist_300_LN_9_LD_10_RN_3_RD_5_0.png"],["C_Dist_300_LN_1_LD_20_RN_7_RD_20_1.png","C_Dist_300_LN_1_LD_3_RN_19_RD_30_1.png","C_Dist_300_LN_1_LD_30_RN_8_RD_24_1.png","C_Dist_300_LN_1_LD_5_RN_11_RD_22_1.png","C_Dist_300_LN_1_LD_5_RN_3_RD_6_1.png","C_Dist_300_LN_1_LD_5_RN_6_RD_12_1.png","C_Dist_300_LN_2_LD_10_RN_12_RD_24_1.png","C_Dist_300_LN_2_LD_20_RN_10_RD_25_1.png","C_Dist_300_LN_3_LD_12_RN_11_RD_20_1.png","C_Dist_300_LN_3_LD_6_RN_4_RD_5_1.png","C_Dist_300_LN_4_LD_20_RN_13_RD_26_1.png","C_Dist_300_LN_5_LD_25_RN_6_RD_12_1.png","C_Dist_300_LN_5_LD_25_RN_7_RD_14_1.png","C_Dist_300_LN_7_LD_14_RN_20_RD_25_1.png","C_Dist_300_LN_8_LD_15_RN_10_RD_12_1.png"]],"dist300_I":[["I_Dist_300_LN_1_LD_2_RN_2_RD_10_0.png","I_Dist_300_LN_1_LD_2_RN_3_RD_15_0.png","I_Dist_300_LN_2_LD_4_RN_6_RD_30_0.png","I_Dist_300_LN_3_LD_6_RN_4_RD_20_0.png","I_Dist_300_LN_4_LD_5_RN_6_RD_12_0.png","I_Dist_300_LN_4_LD_5_RN_8_RD_16_0.png","I_Dist_300_LN_7_LD_10_RN_8_RD_20_0.png","I_Dist_300_LN_8_LD_10_RN_14_RD_28_0.png","I_Dist_300_LN_8_LD_10_RN_9_RD_18_0.png"],["I_Dist_300_LN_13_LD_26_RN_12_RD_15_1.png","I_Dist_300_LN_4_LD_20_RN_2_RD_4_1.png"]],"dist300_S":[["E_Dist_300_LN_9_LD_12_RN_9_RD_20_0.png"],["E_Dist_300_LN_18_LD_30_RN_18_RD_20_1.png","E_Dist_300_LN_3_LD_10_RN_3_RD_5_1.png","E_Dist_300_LN_9_LD_20_RN_9_RD_12_1.png"]],"dist500_C":[["C_Dist_500_LN_10_LD_13_RN_7_RD_26_0.png","C_Dist_500_LN_10_LD_15_RN_4_RD_24_0.png","C_Dist_500_LN_12_LD_16_RN_3_RD_12_0.png","C_Dist_500_LN_12_LD_18_RN_4_RD_24_0.png","C_Dist_500_LN_15_LD_18_RN_5_RD_15_0.png","C_Dist_500_LN_15_LD_20_RN_1_RD_4_0.png","C_Dist_500_LN_18_LD_27_RN_1_RD_6_0.png","C_Dist_500_LN_20_LD_24_RN_1_RD_3_0.png","C_Dist_500_LN_20_LD_24_RN_3_RD_9_0.png","C_Dist_500_LN_20_LD_24_RN_7_RD_21_0.png","C_Dist_500_LN_20_LD_28_RN_3_RD_14_0.png","C_Dist_500_LN_21_LD_28_RN_6_RD_24_0.png","C_Dist_500_LN_22_LD_28_RN_2_RD_7_0.png","C_Dist_500_LN_25_LD_30_RN_9_RD_27_0.png","C_Dist_500_LN_4_LD_6_RN_1_RD_6_0.png","C_Dist_500_LN_5_LD_6_RN_2_RD_6_0.png","C_Dist_500_LN_6_LD_9_RN_1_RD_6_0.png","C_Dist_500_LN_7_LD_10_RN_1_RD_5_0.png","C_Dist_500_LN_8_LD_12_RN_1_RD_6_0.png","C_Dist_500_LN_8_LD_12_RN_4_RD_24_0.png"],["C_Dist_500_LN_1_LD_4_RN_12_RD_16_1.png","C_Dist_500_LN_1_LD_4_RN_9_RD_12_1.png","C_Dist_500_LN_1_LD_9_RN_11_RD_18_1.png","C_Dist_500_LN_10_LD_24_RN_22_RD_24_1.png","C_Dist_500_LN_2_LD_12_RN_10_RD_15_1.png","C_Dist_500_LN_2_LD_12_RN_12_RD_18_1.png","C_Dist_500_LN_2_LD_12_RN_4_RD_6_1.png","C_Dist_500_LN_2_LD_24_RN_7_RD_12_1.png","C_Dist_500_LN_2_LD_5_RN_18_RD_20_1.png","C_Dist_500_LN_2_LD_5_RN_9_RD_10_1.png","C_Dist_500_LN_2_LD_8_RN_12_RD_16_1.png","C_Dist_500_LN_2_LD_8_RN_21_RD_28_1.png","C_Dist_500_LN_3_LD_10_RN_4_RD_5_1.png","C_Dist_500_LN_3_LD_12_RN_15_RD_20_1.png","C_Dist_500_LN_3_LD_30_RN_6_RD_10_1.png","C_Dist_500_LN_3_LD_8_RN_14_RD_16_1.png","C_Dist_500_LN_4_LD_16_RN_15_RD_20_1.png","C_Dist_500_LN_4_LD_24_RN_12_RD_18_1.png","C_Dist_500_LN_5_LD_14_RN_6_RD_7_1.png","C_Dist_500_LN_7_LD_21_RN_20_RD_24_1.png","C_Dist_500_LN_7_LD_28_RN_12_RD_16_1.png","C_Dist_500_LN_7_LD_28_RN_9_RD_12_1.png","C_Dist_500_LN_9_LD_27_RN_20_RD_24_1.png"]],"dist500_I":[["I_Dist_500_LN_2_LD_3_RN_4_RD_24_0.png","I_Dist_500_LN_5_LD_6_RN_6_RD_18_0.png","I_Dist_500_LN_7_LD_8_RN_9_RD_24_0.png"],["I_Dist_500_LN_7_LD_21_RN_5_RD_6_1.png"]],"dist500_S":[["E_Dist_500_LN_6_LD_8_RN_6_RD_24_0.png"],["E_Dist_500_LN_2_LD_12_RN_2_RD_3_1.png","E_Dist_500_LN_6_LD_24_RN_6_RD_8_1.png"]]}},{"start_time":1552054841009,"click_time":1552054842587,"finger_time":1552054842147,"fix_duration":601.5409184387221,"trial":1,"RT":1138,"MT":440,"sideResp":1,"stimulus":[],"xmouse":[778,778,778,778,778,778,778,778,778,778,778,778,778,778,778,778,778,778,778,778,778,778,778,778,778,778,778,778,778,778,778,778,778,778,778,778,778,778,778,778,778,778,778,778,778,778,778,778,778,777,776,775,770,767,750,738,723,703,674,579,536,497,474,465,456,444,437,432,428,424,424,426,450,460,479,480,479,469,453],"ymouse":[487,487,487,487,487,487,487,487,487,487,487,487,487,487,487,487,487,487,487,487,487,487,487,487,487,487,487,487,487,487,487,487,487,487,487,487,487,487,487,487,487,487,487,487,487,487,487,487,487,487,487,487,487,487,487,483,474,462,445,403,383,363,346,329,292,236,213,194,181,169,164,159,146,140,126,121,116,105,95],"timestamp_mouse":[32,36,57,77,96,116,138,157,177,198,216,237,258,277,298,316,336,357,376,396,417,438,457,476,496,517,537,556,577,598,617,638,657,676,696,717,737,758,776,796,817,838,857,877,896,916,937,957,977,998,1018,1038,1056,1077,1097,1116,1137,1156,1176,1197,1216,1237,1258,1276,1296,1318,1336,1357,1377,1396,1417,1437,1457,1477,1496,1517,1536,1557,1577],"xSR":735,"ySR":461.5,"xT1":421,"yT1":0,"xT2":1049,"yT2":0,"toosoon":0,"cond_shown":"Incongruent","ratio_trial":200,"L_num":14,"L_den":30,"R_num":12,"R_den":18,"correct_side":2,"subjID":"Laurasofiasanchez2","gender":"1","school":"4","age":"9"},{"start_time":1552054844902,"click_time":1552054846107,"finger_time":1552054845226,"fix_duration":1114.3118166563963,"trial":2,"RT":324,"MT":881,"sideResp":2,"stimulus":[],"xmouse":[797,797,797,797,797,797,795,795,795,795,795,794,792,791,788,782,779,776,776,775,775,775,775,775,775,775,775,775,775,775,775,774,774,774,774,774,778,780,780,780,780,780,780,780,781,818,856,897,968,1038,1114,1253,1253,1253,1253,1253,1253,1253,1253,1253,1119],"ymouse":[514,513,513,510,508,504,500,500,500,500,500,498,495,490,481,466,460,453,452,452,452,452,452,452,452,452,452,452,452,452,452,461,468,475,484,491,505,507,508,508,508,508,508,508,508,477,441,398,327,268,196,15,15,15,15,15,15,15,15,15,7],"timestamp_mouse":[12,40,43,64,85,103,123,143,165,184,204,223,245,264,284,304,324,344,365,384,404,424,443,465,484,504,523,543,563,583,604,624,644,664,684,704,723,744,765,784,804,824,844,863,884,904,923,943,963,984,1004,1023,1044,1063,1083,1103,1123,1144,1165,1184,1204],"xSR":735,"ySR":461.5,"xT1":421,"yT1":0,"xT2":1049,"yT2":0,"toosoon":0,"cond_shown":"Incongruent","ratio_trial":100,"L_num":9,"L_den":15,"R_num":13,"R_den":26,"correct_side":1,"subjID":"Laurasofiasanchez2","gender":"1","school":"4","age":"9"},{"start_time":1552054847537,"click_time":1552054848266,"finger_time":1552054847946,"fix_duration":250,"trial":3,"RT":409,"MT":320,"sideResp":1,"stimulus":[],"xmouse":[758,758,758,758,758,758,758,758,758,758,758,758,758,758,758,758,758,758,758,756,749,740,726,706,631,564,526,492,470,450,450,450,450,450,450,452,459],"ymouse":[504,504,504,504,504,504,504,504,504,504,504,504,504,504,504,504,504,500,497,477,460,440,419,397,320,247,206,166,141,113,108,103,101,101,101,100,99],"timestamp_mouse":[13,29,49,69,89,108,129,148,169,190,210,230,249,269,288,308,330,350,369,389,409,428,450,468,488,508,528,548,568,588,608,629,648,669,690,709,729],"xSR":735,"ySR":461.5,"xT1":421,"yT1":0,"xT2":1049,"yT2":0,"toosoon":0,"cond_shown":"Congruent","ratio_trial":100,"L_num":3,"L_den":20,"R_num":4,"R_den":16,"correct_side":2,"subjID":"Laurasofiasanchez2","gender":"1","school":"4","age":"9"},{"start_time":1552054849994,"click_time":1552054851306,"finger_time":1552054850907,"fix_duration":827.6531925026617,"trial":4,"RT":913,"MT":399,"sideResp":2,"stimulus":[],"xmouse":[780,780,780,780,780,780,780,780,780,781,781,782,782,782,782,782,782,782,782,782,782,783,783,783,783,783,783,783,783,783,783,783,783,783,783,783,783,783,783,783,783,785,790,797,810,828,872,889,901,907,910,917,922,924,924,924,924,922,921,921,922,939,955,976,1011,1057],"ymouse":[512,512,512,512,512,512,512,512,512,512,512,512,512,512,512,512,512,512,512,512,512,512,512,512,512,512,512,512,512,512,512,512,512,512,512,512,512,512,512,512,512,512,509,502,486,461,382,341,305,282,264,235,218,200,184,167,141,134,131,130,126,117,112,105,93,75],"timestamp_mouse":[13,32,53,72,93,112,132,153,172,191,213,233,251,272,293,313,332,352,373,391,412,432,452,472,491,511,531,553,572,592,613,633,653,671,692,712,732,753,772,791,813,832,853,872,891,913,932,952,971,992,1011,1031,1052,1073,1093,1112,1132,1152,1171,1192,1211,1231,1252,1273,1292,1312],"xSR":735,"ySR":461.5,"xT1":421,"yT1":0,"xT2":1049,"yT2":0,"toosoon":0,"cond_shown":"Incongruent","ratio_trial":300,"L_num":3,"L_den":6,"R_num":4,"R_den":20,"correct_side":1,"subjID":"Laurasofiasanchez2","gender":"1","school":"4","age":"9"},{"start_time":1552054852762,"click_time":1552054854345,"finger_time":1552054853866,"fix_duration":274.99431778464447,"trial":5,"RT":1104,"MT":479,"sideResp":2,"stimulus":[],"xmouse":[770,771,773,774,775,776,776,776,777,777,777,777,777,777,777,777,777,777,777,777,777,777,777,777,777,777,777,777,777,777,777,777,777,777,777,777,777,777,777,777,777,777,777,777,777,777,777,777,777,777,777,777,777,811,833,853,877,901,1001,1081,1151,1205,1243,1254,1254,1254,1254,1254,1254,1254,1254,1254,1254,1254,1254,1254,1254,1254,1254,1118],"ymouse":[503,503,503,502,502,502,502,502,501,501,501,501,501,501,501,501,501,501,501,501,501,501,501,501,501,501,501,501,501,501,501,501,501,501,501,501,501,501,501,501,501,501,501,501,501,501,501,501,501,501,501,501,501,490,481,470,452,431,344,277,215,162,100,47,27,9,1,1,1,1,1,1,1,1,1,1,1,1,1,1],"timestamp_mouse":[4,23,43,63,83,104,124,144,164,184,204,223,243,263,284,303,325,343,363,385,405,424,444,464,485,505,523,543,565,584,603,625,645,664,684,705,723,744,764,785,804,824,844,863,884,904,925,945,965,984,1004,1023,1045,1064,1085,1104,1124,1143,1164,1183,1204,1225,1244,1264,1283,1304,1324,1343,1364,1385,1405,1424,1443,1464,1484,1504,1524,1544,1564,1583],"xSR":735,"ySR":461.5,"xT1":421,"yT1":0,"xT2":1049,"yT2":0,"toosoon":0,"cond_shown":"Congruent","ratio_trial":300,"L_num":1,"L_den":20,"R_num":7,"R_den":20,"correct_side":2,"subjID":"Laurasofiasanchez2","gender":"1","school":"4","age":"9"},{"start_time":1552054856576,"click_time":1552054858365,"finger_time":1552054857366,"fix_duration":988.3886652563117,"trial":6,"RT":790,"MT":999,"sideResp":2,"stimulus":[],"xmouse":[776,776,776,776,776,776,776,776,776,776,776,776,776,776,776,776,776,776,776,776,776,776,776,776,776,776,776,776,776,776,776,776,776,776,776,776,776,775,764,757,748,736,723,686,663,642,628,619,606,606,606,606,606,606,606,606,606,606,606,606,606,606,606,606,606,606,606,607,639,698,793,904,1003,1097,1114,1127,1137,1148,1174,1187,1198,1207,1211,1214,1214,1214,1211,1201,1153,1134],"ymouse":[511,511,511,511,511,511,511,511,511,511,511,511,511,511,511,511,511,511,511,511,511,511,511,511,511,511,511,511,511,511,511,511,511,511,511,511,510,505,470,452,433,412,387,327,290,258,232,212,187,187,186,186,186,186,186,186,186,186,186,186,186,186,186,186,186,186,186,186,200,214,244,274,299,306,300,288,274,259,221,204,190,175,163,149,144,141,134,121,95,87],"timestamp_mouse":[12,33,50,71,89,111,130,149,170,190,211,230,249,269,289,311,331,351,370,389,410,429,450,471,490,511,531,551,570,591,611,630,650,670,691,711,730,751,769,790,809,830,850,869,889,910,930,950,969,991,1010,1030,1049,1070,1090,1111,1130,1152,1170,1189,1210,1229,1251,1270,1289,1310,1329,1351,1370,1391,1410,1430,1450,1471,1490,1510,1531,1550,1569,1590,1611,1631,1650,1671,1689,1709,1731,1751,1770,1789],"xSR":735,"ySR":461.5,"xT1":421,"yT1":0,"xT2":1049,"yT2":0,"toosoon":0,"cond_shown":"Congruent","ratio_trial":300,"L_num":5,"L_den":25,"R_num":6,"R_den":12,"correct_side":2,"subjID":"Laurasofiasanchez2","gender":"1","school":"4","age":"9"},{"start_time":1552054862545,"click_time":1552054863906,"finger_time":1552054863246,"fix_duration":975.4097036684269,"trial":7,"RT":701,"MT":660,"sideResp":2,"stimulus":[],"xmouse":[789,789,789,789,789,789,789,789,789,789,789,789,789,789,789,789,789,789,789,789,789,789,789,789,789,789,789,789,789,789,789,789,795,798,808,818,842,851,860,870,877,877,877,878,879,882,899,910,920,929,938,967,981,993,1005,1020,1021,1021,1021,1021,1021,1021,1021,1021,1021,1021,1034,1054,1064],"ymouse":[500,500,500,500,500,500,500,500,500,500,500,500,500,500,500,500,500,500,500,500,500,500,500,500,500,500,500,500,500,500,500,500,492,487,474,460,427,409,393,377,367,367,367,365,364,360,341,326,308,293,271,217,187,159,137,111,109,109,109,109,109,109,109,109,109,108,108,105,98],"timestamp_mouse":[10,31,40,62,81,101,121,141,162,182,201,221,241,260,280,302,320,341,362,381,401,422,440,461,480,502,521,541,560,580,601,622,640,661,681,701,720,741,761,782,801,820,840,860,881,901,921,942,961,981,1000,1021,1041,1060,1081,1100,1120,1142,1161,1182,1200,1221,1241,1261,1281,1300,1322,1342,1361],"xSR":735,"ySR":461.5,"xT1":421,"yT1":0,"xT2":1049,"yT2":0,"toosoon":0,"cond_shown":"Congruent","ratio_trial":100,"L_num":7,"L_den":14,"R_num":15,"R_den":25,"correct_side":2,"subjID":"Laurasofiasanchez2","gender":"1","school":"4","age":"9"},{"start_time":1552054865733,"click_time":1552054867565,"finger_time":1552054867086,"fix_duration":824.1261163578002,"trial":8,"RT":1353,"MT":479,"sideResp":2,"stimulus":[],"xmouse":[776,776,775,775,775,774,771,770,770,770,770,770,770,770,770,770,770,770,770,770,770,770,770,770,770,770,770,770,770,770,770,770,770,770,770,770,770,770,770,770,770,770,770,770,770,770,770,770,770,770,770,770,770,770,770,770,770,770,770,770,770,770,770,770,770,788,811,830,850,870,880,890,893,894,896,898,918,933,947,959,969,984,990,998,1004,1008,1014,1014,1016,1020,1030,1051],"ymouse":[493,493,495,495,495,496,498,498,498,498,498,498,498,498,498,498,498,498,498,498,498,498,498,498,498,498,498,498,498,498,498,498,498,498,498,498,498,498,498,498,498,498,498,498,498,498,498,498,498,498,498,498,498,498,498,498,498,498,498,498,498,498,498,498,499,487,469,453,432,399,373,330,311,296,281,267,220,195,169,143,121,86,75,66,62,60,59,58,58,57,56,53],"timestamp_mouse":[13,34,53,73,93,112,134,152,172,193,214,233,253,273,293,312,332,352,374,394,412,433,452,473,493,513,533,552,574,593,612,633,653,672,694,714,734,752,773,793,812,833,854,874,894,912,933,952,972,994,1012,1033,1052,1073,1092,1114,1133,1154,1173,1193,1212,1234,1253,1273,1293,1314,1332,1353,1374,1394,1413,1432,1453,1472,1493,1513,1532,1553,1573,1593,1613,1632,1652,1672,1694,1713,1732,1752,1773,1793,1813,1832],"xSR":735,"ySR":461.5,"xT1":421,"yT1":0,"xT2":1049,"yT2":0,"toosoon":0,"cond_shown":"Incongruent","ratio_trial":300,"L_num":7,"L_den":10,"R_num":8,"R_den":20,"correct_side":1,"subjID":"Laurasofiasanchez2","gender":"1","school":"4","age":"9"},{"start_time":1552054869739,"click_time":1552054870947,"finger_time":1552054870387,"fix_duration":250,"trial":9,"RT":648,"MT":560,"sideResp":1,"stimulus":[],"xmouse":[771,771,771,771,771,771,771,771,771,771,771,771,771,771,771,771,771,771,771,771,771,771,771,771,771,771,771,771,770,769,762,742,725,682,664,621,584,568,555,546,542,541,539,539,539,539,540,541,542,542,542,542,542,541,541,540,540,536,532,527,516],"ymouse":[536,536,536,536,536,536,536,536,536,536,536,536,536,536,536,536,536,536,536,536,536,536,536,536,536,536,536,536,528,524,514,485,460,395,370,303,225,201,183,170,162,159,156,156,156,156,149,145,141,137,133,127,125,122,117,106,86,70,61,52,38],"timestamp_mouse":[11,39,47,66,87,107,127,146,166,186,206,226,248,267,288,307,326,346,366,386,406,427,446,467,487,508,527,547,568,587,606,627,648,666,687,706,727,746,767,788,808,827,847,866,888,908,927,946,968,987,1007,1027,1046,1068,1086,1106,1127,1146,1166,1187,1208],"xSR":735,"ySR":461.5,"xT1":421,"yT1":0,"xT2":1049,"yT2":0,"toosoon":0,"cond_shown":"Congruent","ratio_trial":300,"L_num":11,"L_den":22,"R_num":2,"R_den":10,"correct_side":1,"subjID":"Laurasofiasanchez2","gender":"1","school":"4","age":"9"},{"start_time":1552054873200,"click_time":1552054875167,"finger_time":1552054874646,"fix_duration":1094.0736071104202,"trial":10,"RT":1446,"MT":521,"sideResp":1,"stimulus":[],"xmouse":[767,767,767,767,767,767,767,767,767,767,767,767,767,767,767,767,767,767,767,767,767,767,767,767,767,767,767,767,767,767,767,767,767,767,767,767,767,767,767,767,767,767,767,767,767,767,767,767,767,767,767,767,767,767,767,767,767,767,767,767,767,767,767,767,767,767,767,767,767,777,790,813,838,869,916,934,949,962,973,989,991,994,997,998,998,998,997,997,997,980,962,932,878,807,642,574,532,505,479],"ymouse":[533,533,533,533,533,533,533,533,533,533,533,533,533,533,533,533,533,533,533,533,533,533,533,533,533,533,533,533,533,533,533,533,533,533,533,533,533,533,533,533,533,533,533,533,533,533,533,533,533,533,533,533,533,533,533,533,533,533,533,533,533,533,533,533,533,533,533,533,533,527,517,499,476,440,374,342,314,282,256,197,179,160,141,120,114,113,111,111,111,111,111,111,111,111,111,111,104,100,97],"timestamp_mouse":[13,33,46,67,85,105,127,146,167,186,206,226,247,266,286,306,327,345,365,387,406,425,445,465,487,506,527,547,567,585,605,627,647,666,685,707,726,746,765,786,806,827,845,865,885,907,927,945,965,987,1006,1026,1046,1065,1087,1105,1126,1146,1165,1186,1205,1226,1246,1265,1285,1305,1327,1346,1366,1385,1406,1426,1446,1466,1485,1505,1527,1546,1566,1585,1605,1626,1647,1667,1686,1706,1725,1745,1766,1785,1806,1827,1846,1866,1886,1905,1925,1946,1966],"xSR":735,"ySR":461.5,"xT1":421,"yT1":0,"xT2":1049,"yT2":0,"toosoon":0,"cond_shown":"Incongruent","ratio_trial":200,"L_num":9,"L_den":15,"R_num":8,"R_den":10,"correct_side":2,"subjID":"Laurasofiasanchez2","gender":"1","school":"4","age":"9"},{"start_time":1552054888922,"click_time":1552054890825,"finger_time":1552054890227,"fix_duration":1415.0457458627461,"trial":11,"RT":1305,"MT":598,"sideResp":2,"stimulus":[],"xmouse":[776,776,776,776,776,776,776,776,776,776,776,776,776,776,776,776,776,776,776,776,776,776,776,776,776,776,776,776,776,776,776,776,776,776,776,776,776,776,776,776,776,776,776,776,776,776,777,783,790,800,814,819,822,823,823,824,824,824,824,824,824,824,824,824,828,838,855,867,881,909,924,933,938,940,941,941,941,941,945,953,960,969,979,987,1002,1008,1016,1019,1021,1022,1030,1036,1038,1041,1046,1053],"ymouse":[510,510,510,510,510,510,510,510,510,510,510,510,510,510,510,510,510,510,510,510,510,510,510,510,510,510,510,510,510,510,510,510,510,510,510,510,510,510,510,510,510,510,510,510,510,510,508,503,497,488,474,471,468,467,466,466,466,466,466,466,466,466,466,466,463,456,440,427,410,372,352,335,324,319,318,318,318,314,305,274,256,240,220,200,156,135,113,106,104,103,100,95,92,88,84,84],"timestamp_mouse":[13,31,43,64,84,103,125,143,163,183,203,225,243,263,284,304,323,344,363,383,405,425,443,465,484,504,525,543,563,583,604,624,644,664,685,704,724,743,764,785,805,825,843,863,885,904,924,944,964,983,1004,1024,1044,1064,1084,1103,1124,1145,1164,1184,1204,1224,1245,1264,1284,1305,1325,1345,1363,1385,1403,1424,1445,1463,1484,1505,1524,1544,1563,1585,1603,1625,1645,1665,1685,1704,1724,1745,1764,1785,1805,1824,1843,1864,1886,1903],"xSR":735,"ySR":461.5,"xT1":421,"yT1":0,"xT2":1049,"yT2":0,"toosoon":0,"cond_shown":"Incongruent","ratio_trial":100,"L_num":6,"L_den":10,"R_num":7,"R_den":14,"correct_side":1,"subjID":"Laurasofiasanchez2","gender":"1","school":"4","age":"9"},{"start_time":1552054893751,"click_time":1552054895026,"finger_time":1552054894625,"fix_duration":1223.5961075269256,"trial":12,"RT":874,"MT":401,"sideResp":2,"stimulus":[],"xmouse":[781,781,783,786,788,789,791,791,791,791,791,791,791,791,791,791,791,791,791,791,791,791,791,791,791,791,791,791,791,791,791,791,791,791,791,791,791,791,791,791,794,795,803,827,846,870,890,908,925,927,927,927,927,936,945,959,971,983,994,1016,1026,1033,1043,1060],"ymouse":[511,510,509,507,505,504,502,501,501,501,501,501,501,501,501,501,499,498,494,492,492,492,492,492,492,492,492,492,492,492,492,492,492,492,492,492,492,492,492,492,487,483,462,417,383,343,307,277,246,242,242,242,242,228,208,183,159,138,123,107,100,95,86,66],"timestamp_mouse":[16,37,54,74,95,114,135,156,174,194,214,234,256,274,296,319,335,355,375,395,414,434,454,475,494,514,535,554,575,595,614,635,655,676,694,715,736,755,774,794,815,835,854,874,894,916,936,955,974,995,1014,1034,1056,1075,1095,1115,1135,1154,1174,1194,1214,1236,1256,1275],"xSR":735,"ySR":461.5,"xT1":421,"yT1":0,"xT2":1049,"yT2":0,"toosoon":0,"cond_shown":"Congruent","ratio_trial":200,"L_num":5,"L_den":10,"R_num":14,"R_den":20,"correct_side":2,"subjID":"Laurasofiasanchez2","gender":"1","school":"4","age":"9"},{"start_time":1552054900185,"click_time":1552054901207,"finger_time":1552054900586,"fix_duration":838.3354569684205,"trial":13,"RT":401,"MT":621,"sideResp":2,"stimulus":[],"xmouse":[786,786,785,785,784,780,780,780,780,780,780,780,780,780,780,780,779,778,775,773,770,770,770,772,774,776,778,781,786,791,794,799,807,826,833,841,850,869,897,935,952,969,982,992,992,992,992,994,1006,1020,1037,1053],"ymouse":[511,511,510,510,509,506,505,505,505,505,505,505,505,505,505,505,505,504,486,471,452,435,420,384,365,350,337,329,313,305,301,293,277,238,217,201,186,165,149,133,125,116,110,104,104,104,104,100,92,85,77,71],"timestamp_mouse":[10,21,42,60,81,100,121,140,162,181,201,222,241,261,280,300,321,342,361,380,401,421,440,461,481,500,520,541,561,581,602,620,640,660,681,700,721,741,761,781,800,820,840,860,881,900,921,942,960,981,1000,1021],"xSR":735,"ySR":461.5,"xT1":421,"yT1":0,"xT2":1049,"yT2":0,"toosoon":0,"cond_shown":"Congruent","ratio_trial":300,"L_num":11,"L_den":22,"R_num":2,"R_den":10,"correct_side":1,"subjID":"Laurasofiasanchez2","gender":"1","school":"4","age":"9"},{"start_time":1552054903329,"click_time":1552054904146,"finger_time":1552054903687,"fix_duration":782.4105356947783,"trial":14,"RT":358,"MT":459,"sideResp":2,"stimulus":[],"xmouse":[803,803,803,803,803,803,803,803,803,803,803,803,803,803,803,803,819,844,866,866,865,865,865,865,871,896,908,916,923,925,953,974,1000,1019,1031,1037,1037,1037,1037,1041,1066],"ymouse":[515,515,515,515,515,515,515,515,515,515,515,515,515,515,515,515,494,445,356,343,309,305,300,296,288,257,235,214,190,183,155,143,129,119,109,104,103,103,103,103,97],"timestamp_mouse":[16,36,56,77,97,117,137,157,176,196,218,236,258,276,296,316,336,358,376,396,417,436,456,478,497,516,537,556,577,596,616,637,657,676,697,716,737,756,777,797,816],"xSR":735,"ySR":461.5,"xT1":421,"yT1":0,"xT2":1049,"yT2":0,"toosoon":0,"cond_shown":"Incongruent","ratio_trial":100,"L_num":3,"L_den":5,"R_num":8,"R_den":16,"correct_side":1,"subjID":"Laurasofiasanchez2","gender":"1","school":"4","age":"9"},{"start_time":1552054906173,"click_time":1552054906986,"finger_time":1552054906466,"fix_duration":1306.0226136575056,"trial":15,"RT":293,"MT":520,"sideResp":1,"stimulus":[],"xmouse":[789,789,789,789,789,789,789,789,789,789,787,784,778,752,727,689,673,658,642,607,586,566,550,527,527,527,527,527,381,369,365,364,364,364,364,364,364,364,378,403,430],"ymouse":[516,516,516,516,516,516,516,516,516,515,514,512,507,483,444,371,314,254,200,98,54,28,11,1,1,1,1,1,0,6,10,12,12,12,12,12,12,12,16,21,27],"timestamp_mouse":[23,38,53,72,92,114,133,154,172,192,213,234,253,274,293,312,333,354,373,394,413,434,454,472,492,512,533,552,573,592,613,633,653,673,692,712,733,753,773,793,813],"xSR":735,"ySR":461.5,"xT1":421,"yT1":0,"xT2":1049,"yT2":0,"toosoon":0,"cond_shown":"Incongruent","ratio_trial":200,"L_num":7,"L_den":10,"R_num":12,"R_den":24,"correct_side":1,"subjID":"Laurasofiasanchez2","gender":"1","school":"4","age":"9"},{"start_time":1552054908893,"click_time":1552054909566,"finger_time":1552054909245,"fix_duration":365.99464325902153,"trial":16,"RT":352,"MT":321,"sideResp":1,"stimulus":[],"xmouse":[775,775,775,775,775,775,775,774,774,774,774,774,774,774,774,769,763,731,639,570,512,481,433,425,423,423,421,420,420,420,427,443,457,481],"ymouse":[501,501,501,501,500,496,495,494,494,494,494,494,494,494,494,483,472,434,336,265,217,188,146,134,130,124,118,115,115,115,114,113,109,96],"timestamp_mouse":[13,34,52,74,94,113,134,153,173,192,214,232,252,273,293,313,334,352,372,392,413,433,454,473,493,512,533,552,572,593,614,633,652,673],"xSR":735,"ySR":461.5,"xT1":421,"yT1":0,"xT2":1049,"yT2":0,"toosoon":0,"cond_shown":"Congruent","ratio_trial":200,"L_num":3,"L_den":12,"R_num":9,"R_den":20,"correct_side":2,"subjID":"Laurasofiasanchez2","gender":"1","school":"4","age":"9"},{"start_time":1552054911877,"click_time":1552054913166,"finger_time":1552054912325,"fix_duration":1089.8393933487057,"trial":17,"RT":448,"MT":841,"sideResp":2,"stimulus":[],"xmouse":[778,778,778,778,778,778,778,778,778,778,778,778,778,778,778,778,778,778,780,788,796,802,803,804,804,806,806,807,807,808,809,809,809,809,809,809,809,809,810,818,828,840,851,861,877,882,887,890,901,916,921,926,930,933,936,936,937,938,941,967,987,1008,1029,1049,1083],"ymouse":[497,497,497,497,497,497,497,497,497,497,497,497,497,497,497,497,497,497,496,484,474,462,459,457,453,450,448,446,445,443,443,443,443,443,443,443,443,443,441,429,413,398,383,369,344,337,330,326,311,279,257,237,213,189,154,148,145,143,141,134,128,116,101,88,65],"timestamp_mouse":[12,34,49,68,90,109,129,149,168,188,209,230,248,269,289,309,328,349,370,389,410,428,448,469,489,508,530,549,568,588,608,628,649,670,690,710,729,748,770,788,809,829,850,870,888,908,929,950,968,989,1008,1029,1050,1070,1088,1109,1129,1149,1169,1188,1208,1230,1249,1270,1288],"xSR":735,"ySR":461.5,"xT1":421,"yT1":0,"xT2":1049,"yT2":0,"toosoon":0,"cond_shown":"Congruent","ratio_trial":100,"L_num":11,"L_den":22,"R_num":4,"R_den":10,"correct_side":1,"subjID":"Laurasofiasanchez2","gender":"1","school":"4","age":"9"},{"start_time":1552054924734,"click_time":1552054926606,"finger_time":1552054925725,"fix_duration":1127.5724529930362,"trial":18,"RT":991,"MT":881,"sideResp":2,"stimulus":[],"xmouse":[793,793,793,793,793,793,793,793,793,793,793,793,793,793,793,793,793,793,793,793,793,793,793,793,793,793,793,793,793,793,793,793,793,793,793,793,793,793,793,793,793,793,793,793,795,796,799,804,818,826,831,834,837,837,837,837,837,837,837,837,837,837,837,837,837,837,837,837,839,844,848,857,868,884,891,897,903,913,918,922,928,934,940,945,948,950,950,951,955,961,971,986,1012,1053],"ymouse":[506,506,506,506,506,506,506,506,506,506,506,506,506,506,506,506,506,506,506,506,506,506,506,506,506,506,506,506,506,506,506,506,506,506,506,506,506,506,506,506,506,506,506,506,503,502,498,491,467,450,438,429,420,420,420,420,420,420,420,420,420,420,420,420,420,420,420,420,418,413,407,400,392,379,373,367,359,343,325,313,298,283,262,222,200,184,173,162,147,139,127,111,95,73],"timestamp_mouse":[12,32,50,72,91,111,132,151,171,190,212,230,251,271,290,311,332,352,371,391,411,431,451,472,492,510,532,550,570,591,612,630,651,671,692,712,731,751,771,791,811,832,852,870,892,911,932,952,972,991,1011,1031,1051,1070,1091,1111,1131,1152,1172,1192,1212,1231,1251,1271,1291,1312,1331,1351,1371,1390,1411,1430,1450,1470,1492,1511,1532,1552,1570,1591,1611,1631,1651,1671,1692,1712,1731,1752,1770,1792,1811,1831,1852,1871],"xSR":735,"ySR":461.5,"xT1":421,"yT1":0,"xT2":1049,"yT2":0,"toosoon":0,"cond_shown":"Incongruent","ratio_trial":200,"L_num":7,"L_den":10,"R_num":8,"R_den":16,"correct_side":1,"subjID":"Laurasofiasanchez2","gender":"1","school":"4","age":"9"},{"start_time":1552054928971,"click_time":1552054929706,"finger_time":1552054929304,"fix_duration":663.2814948117232,"trial":19,"RT":333,"MT":402,"sideResp":1,"stimulus":[],"xmouse":[773,773,773,773,773,773,773,773,773,773,773,773,773,773,773,770,736,697,657,618,592,565,558,552,545,530,519,518,518,518,518,518,518,517,517,516,508],"ymouse":[486,486,486,486,486,486,486,486,486,486,486,486,486,486,483,474,410,355,307,262,230,188,172,161,149,129,116,116,116,116,116,116,115,113,110,109,96],"timestamp_mouse":[14,33,53,74,93,114,135,153,175,194,214,234,253,275,295,314,333,355,374,395,414,434,455,475,495,513,533,553,574,595,615,634,653,673,693,713,734],"xSR":735,"ySR":461.5,"xT1":421,"yT1":0,"xT2":1049,"yT2":0,"toosoon":0,"cond_shown":"Incongruent","ratio_trial":300,"L_num":8,"L_den":10,"R_num":9,"R_den":18,"correct_side":1,"subjID":"Laurasofiasanchez2","gender":"1","school":"4","age":"9"},{"start_time":1552054931431,"click_time":1552054933265,"finger_time":1552054933004,"fix_duration":644.7597513623282,"trial":20,"RT":1573,"MT":261,"sideResp":1,"stimulus":[],"xmouse":[787,787,787,787,787,787,787,787,787,787,787,787,787,787,787,787,786,785,785,785,785,785,785,785,785,785,785,783,781,780,779,779,779,779,779,779,779,779,779,779,779,779,779,779,779,779,779,779,779,779,779,779,779,779,779,779,779,779,779,779,779,779,779,779,779,778,778,778,778,778,778,778,778,778,778,775,770,761,742,649,559,504,458,407,404,404,407,410,413,417,421,430],"ymouse":[501,501,501,501,501,501,501,501,501,501,501,501,501,501,501,499,498,496,495,495,495,495,495,495,495,495,495,495,495,495,495,495,495,495,495,495,495,495,495,495,495,495,495,495,495,495,495,495,495,495,495,495,495,495,495,495,495,495,495,495,495,495,495,495,495,495,495,495,495,495,495,495,495,495,490,485,476,466,450,375,285,230,178,112,100,93,88,83,80,76,75,72],"timestamp_mouse":[14,35,54,74,94,115,134,155,173,193,214,234,255,273,293,315,334,354,374,393,414,434,455,474,494,515,535,554,574,594,613,635,654,675,694,715,735,755,774,794,814,835,855,874,893,915,935,954,975,994,1015,1035,1054,1073,1094,1115,1133,1154,1174,1194,1214,1233,1255,1274,1295,1314,1333,1355,1375,1393,1413,1435,1453,1473,1495,1514,1535,1554,1573,1595,1615,1635,1654,1674,1693,1714,1734,1754,1775,1793,1815,1834],"xSR":735,"ySR":461.5,"xT1":421,"yT1":0,"xT2":1049,"yT2":0,"toosoon":0,"cond_shown":"Congruent","ratio_trial":200,"L_num":21,"L_den":30,"R_num":2,"R_den":4,"correct_side":1,"subjID":"Laurasofiasanchez2","gender":"1","school":"4","age":"9"},{"start_time":1552054935795,"click_time":1552054937126,"finger_time":1552054936624,"fix_duration":1229.6266808751743,"trial":21,"RT":829,"MT":502,"sideResp":2,"stimulus":[],"xmouse":[740,740,740,740,740,740,740,740,740,740,740,740,740,740,740,740,740,740,740,740,740,740,740,740,740,740,740,740,740,740,740,740,740,740,740,740,740,744,752,767,778,805,812,817,819,819,819,819,819,819,819,826,834,848,867,885,917,925,931,934,941,955,963,976,1001,1031,1057],"ymouse":[511,511,511,511,511,511,511,511,511,511,511,511,511,511,511,511,511,511,511,511,511,511,511,511,511,511,511,511,511,511,511,511,511,511,511,511,511,506,498,489,481,444,430,418,412,410,410,410,410,409,409,384,365,337,306,263,185,159,140,127,114,98,88,77,55,35,13],"timestamp_mouse":[12,40,49,70,90,109,130,150,170,190,209,230,249,269,291,310,329,350,370,391,411,430,450,470,490,511,529,549,570,591,611,630,649,671,690,711,731,750,770,789,810,829,851,870,890,910,930,950,969,989,1012,1031,1050,1071,1091,1110,1130,1150,1171,1190,1210,1229,1249,1270,1290,1310,1330],"xSR":735,"ySR":461.5,"xT1":421,"yT1":0,"xT2":1049,"yT2":0,"toosoon":0,"cond_shown":"Congruent","ratio_trial":100,"L_num":2,"L_den":5,"R_num":11,"R_den":22,"correct_side":2,"subjID":"Laurasofiasanchez2","gender":"1","school":"4","age":"9"},{"start_time":1552054941146,"click_time":1552054942605,"finger_time":1552054942126,"fix_duration":1059.7420009324542,"trial":22,"RT":980,"MT":479,"sideResp":2,"stimulus":[],"xmouse":[802,803,803,803,803,803,803,803,803,803,803,803,803,804,805,805,805,805,805,805,805,805,805,805,805,805,805,805,805,805,805,805,805,805,805,805,805,805,805,805,805,805,805,805,805,807,812,821,851,881,904,919,928,934,938,942,946,951,955,959,961,963,963,965,966,968,969,972,980,989,1005,1029,1063],"ymouse":[495,497,502,510,513,514,515,515,515,515,515,515,515,515,514,514,513,512,512,512,512,512,512,512,512,512,512,512,512,512,512,512,512,512,512,512,512,512,512,512,512,512,512,512,512,507,497,485,447,407,381,359,342,319,307,294,280,261,211,183,170,164,160,155,149,145,139,129,106,95,91,88,87],"timestamp_mouse":[20,39,58,79,100,120,140,159,179,200,220,240,259,280,299,319,339,358,380,398,419,439,460,478,498,520,538,558,580,599,620,640,660,679,699,720,740,760,780,799,819,840,859,878,898,918,939,960,980,999,1020,1039,1059,1079,1100,1119,1138,1159,1180,1198,1219,1240,1259,1279,1299,1319,1339,1359,1380,1398,1419,1440,1459],"xSR":735,"ySR":461.5,"xT1":421,"yT1":0,"xT2":1049,"yT2":0,"toosoon":0,"cond_shown":"Incongruent","ratio_trial":300,"L_num":4,"L_den":5,"R_num":8,"R_den":16,"correct_side":1,"subjID":"Laurasofiasanchez2","gender":"1","school":"4","age":"9"},{"start_time":1552054945524,"click_time":1552054946744,"finger_time":1552054945926,"fix_duration":1377.6501274948891,"trial":23,"RT":402,"MT":818,"sideResp":1,"stimulus":[],"xmouse":[806,806,806,806,806,806,806,806,806,806,806,806,806,806,806,806,805,804,802,797,766,629,558,513,498,493,492,492,492,492,492,492,492,492,492,493,495,496,496,497,498,499,500,501,501,501,501,502,502,502,503,508,509,510,512,513,513,513,513,507,501,471],"ymouse":[514,514,514,514,514,514,514,514,514,514,514,514,514,511,509,504,492,486,478,466,435,353,317,290,279,274,267,265,263,263,263,263,263,263,263,262,257,253,250,245,236,229,225,223,222,221,221,220,220,219,216,204,197,191,182,174,161,154,147,136,124,94],"timestamp_mouse":[20,21,41,61,81,101,121,140,162,181,200,222,242,261,281,301,322,340,361,381,402,421,441,461,480,501,520,540,560,581,602,621,641,661,681,702,720,740,760,781,801,821,842,862,880,901,921,941,961,981,1000,1020,1042,1061,1082,1102,1120,1141,1161,1181,1201,1220],"xSR":735,"ySR":461.5,"xT1":421,"yT1":0,"xT2":1049,"yT2":0,"toosoon":0,"cond_shown":"Congruent","ratio_trial":100,"L_num":4,"L_den":10,"R_num":15,"R_den":30,"correct_side":2,"subjID":"Laurasofiasanchez2","gender":"1","school":"4","age":"9"},{"start_time":1552054948498,"click_time":1552054950784,"finger_time":1552054949725,"fix_duration":250,"trial":24,"RT":1227,"MT":1059,"sideResp":2,"stimulus":[],"xmouse":[753,755,756,756,756,756,756,756,756,756,756,756,756,756,756,756,756,756,756,756,756,756,756,756,756,756,756,756,756,756,756,756,756,756,756,756,756,756,756,756,756,756,756,756,756,756,756,756,756,756,756,755,754,754,754,754,754,754,751,750,745,742,739,735,734,732,730,725,722,720,717,714,714,714,714,714,714,714,714,714,716,723,735,777,806,836,875,902,935,953,962,970,987,994,999,1003,1008,1015,1022,1028,1033,1041,1045,1045,1046,1046,1046,1046,1046,1046,1046,1047,1049,1049,1052],"ymouse":[506,507,508,508,508,508,508,508,509,509,509,509,509,509,509,509,509,510,510,510,510,510,510,510,510,510,510,510,510,510,510,510,510,510,510,510,510,510,510,510,510,510,510,510,510,510,510,510,510,510,510,509,507,506,505,503,502,499,488,480,466,457,451,441,436,432,426,417,408,403,394,390,389,388,388,388,388,388,387,386,383,380,374,352,338,320,298,279,244,220,207,195,173,162,152,143,131,99,79,69,62,56,55,55,54,54,54,54,54,54,54,54,54,54,54],"timestamp_mouse":[7,38,47,66,87,108,127,146,167,188,206,227,247,268,287,308,328,346,366,386,408,427,447,467,487,508,528,546,568,586,607,628,647,667,687,708,726,748,768,786,808,826,847,867,887,907,928,947,967,986,1007,1028,1047,1066,1088,1107,1127,1147,1167,1188,1207,1227,1247,1268,1287,1308,1327,1347,1367,1387,1407,1427,1448,1468,1487,1506,1527,1547,1567,1588,1608,1628,1647,1667,1688,1707,1727,1747,1768,1787,1808,1827,1847,1866,1888,1907,1926,1948,1967,1987,2008,2028,2047,2067,2087,2108,2126,2147,2167,2186,2207,2227,2247,2266,2286],"xSR":735,"ySR":461.5,"xT1":421,"yT1":0,"xT2":1049,"yT2":0,"toosoon":0,"cond_shown":"Incongruent","ratio_trial":200,"L_num":1,"L_den":3,"R_num":2,"R_den":15,"correct_side":1,"subjID":"Laurasofiasanchez2","gender":"1","school":"4","age":"9"},{"start_time":1552054953507,"click_time":1552054955584,"finger_time":1552054954965,"fix_duration":840.1323177476551,"trial":25,"RT":1458,"MT":619,"sideResp":1,"stimulus":[],"xmouse":[770,770,769,769,769,769,769,769,769,769,769,769,769,769,769,769,769,770,771,772,773,774,777,779,780,780,780,780,780,780,780,780,780,780,780,780,780,780,780,780,780,780,780,780,780,780,780,780,780,780,780,780,780,780,780,780,780,780,780,780,780,780,782,782,782,782,782,783,784,785,785,786,784,774,752,683,609,453,390,348,307,243,243,243,243,243,243,243,243,243,243,243,243,243,243,243,243,243,243,243,243,243,483,482],"ymouse":[534,534,535,535,535,535,535,535,535,535,535,535,535,535,535,534,532,527,525,522,519,517,507,503,501,499,496,496,496,496,496,496,496,496,496,496,496,496,496,496,496,496,496,496,496,496,496,496,496,496,496,496,496,496,496,496,496,496,496,496,496,496,495,494,494,494,494,492,489,487,483,477,459,439,409,332,273,157,112,81,52,4,4,4,4,4,4,4,4,4,4,4,4,4,4,4,4,4,4,4,4,4,0,7],"timestamp_mouse":[18,38,59,77,97,119,139,159,178,198,219,237,257,278,297,318,337,359,378,398,418,437,458,478,498,518,537,558,578,597,619,639,657,679,699,717,737,757,779,797,819,839,857,879,899,918,937,957,977,998,1017,1039,1059,1077,1099,1118,1138,1158,1178,1199,1217,1238,1259,1277,1298,1317,1337,1358,1377,1397,1419,1438,1458,1478,1497,1517,1538,1557,1578,1599,1617,1638,1658,1677,1699,1718,1738,1758,1778,1798,1819,1839,1858,1878,1899,1918,1938,1958,1979,1999,2018,2038,2059,2077],"xSR":735,"ySR":461.5,"xT1":421,"yT1":0,"xT2":1049,"yT2":0,"toosoon":0,"cond_shown":"Congruent","ratio_trial":200,"L_num":11,"L_den":22,"R_num":3,"R_den":10,"correct_side":1,"subjID":"Laurasofiasanchez2","gender":"1","school":"4","age":"9"},{"start_time":1552054957477,"click_time":1552054960784,"finger_time":1552054960265,"fix_duration":250,"trial":26,"RT":2788,"MT":519,"sideResp":1,"stimulus":[],"xmouse":[827,827,827,827,827,827,827,827,827,827,827,827,827,827,827,827,827,824,820,806,805,804,803,802,799,796,794,794,794,794,794,793,793,793,793,793,793,793,793,793,793,793,793,793,793,793,793,793,793,793,793,793,793,793,793,793,793,793,793,793,793,793,793,793,793,793,793,793,793,793,793,793,793,793,793,793,793,793,793,793,793,793,793,793,793,793,793,793,793,792,791,790,790,789,789,789,789,787,786,784,784,784,784,783,783,782,782,782,782,782,782,782,782,782,782,782,782,782,782,782,782,782,782,782,782,782,782,782,782,782,782,782,782,779,774,768,756,748,739,732,731,731,731,731,724,715,705,693,676,632,606,577,543,522,501,483,480,480,479,479,479,479,479,474,462,443],"ymouse":[522,522,522,522,522,522,522,522,522,522,522,522,522,522,522,522,522,522,522,521,521,521,521,521,520,517,516,516,516,516,516,516,516,516,516,516,516,516,516,516,516,516,516,516,516,516,516,516,516,516,516,516,516,516,516,516,516,516,516,516,516,516,516,516,516,516,516,516,516,516,516,516,516,516,516,516,516,516,516,516,516,516,516,516,516,516,516,516,516,515,515,515,514,514,514,514,514,514,514,513,513,513,513,513,512,511,510,509,509,509,509,509,509,509,508,508,508,508,508,508,508,508,508,508,508,508,508,508,508,508,508,508,508,507,507,504,500,496,491,487,486,486,486,486,484,480,475,469,459,431,411,386,360,339,319,292,284,279,275,268,245,226,205,183,157,94],"timestamp_mouse":[11,35,49,67,88,108,127,147,169,188,209,229,248,268,288,307,329,348,368,388,408,429,448,468,488,508,528,547,569,588,608,627,647,668,689,709,728,748,769,787,809,828,848,867,887,907,929,948,968,988,1009,1027,1048,1069,1088,1107,1127,1148,1168,1189,1208,1228,1249,1269,1288,1308,1328,1349,1369,1388,1407,1427,1447,1468,1488,1509,1528,1548,1569,1587,1608,1629,1648,1669,1688,1707,1729,1747,1769,1787,1808,1828,1848,1868,1888,1909,1928,1948,1969,1988,2009,2028,2049,2068,2089,2108,2129,2147,2168,2188,2208,2228,2249,2268,2288,2309,2329,2348,2368,2389,2409,2428,2448,2469,2489,2507,2528,2549,2569,2588,2609,2629,2649,2667,2688,2708,2728,2748,2768,2788,2807,2828,2849,2868,2889,2907,2929,2949,2967,2989,3007,3027,3049,3068,3089,3108,3127,3148,3167,3189,3208,3227,3249,3268,3288,3307],"xSR":735,"ySR":461.5,"xT1":421,"yT1":0,"xT2":1049,"yT2":0,"toosoon":0,"cond_shown":"Incongruent","ratio_trial":100,"L_num":12,"L_den":24,"R_num":9,"R_den":15,"correct_side":2,"subjID":"Laurasofiasanchez2","gender":"1","school":"4","age":"9"},{"start_time":1552054963995,"click_time":1552054964784,"finger_time":1552054964686,"fix_duration":1429.5538199867947,"trial":27,"RT":691,"MT":98,"sideResp":2,"stimulus":[],"xmouse":[765,765,765,765,765,765,765,765,765,768,772,777,783,786,786,786,786,786,786,786,786,786,786,786,786,786,786,786,786,786,786,786,786,788,807,882,981,1054,1090,1096],"ymouse":[506,506,506,506,506,506,506,506,506,500,494,484,476,471,469,469,469,469,469,469,469,469,469,469,469,469,469,469,469,469,469,469,469,468,451,402,322,216,118,31],"timestamp_mouse":[12,35,50,69,89,111,129,149,171,190,211,231,250,269,290,310,330,350,370,389,409,429,449,469,489,510,531,549,569,589,610,631,650,670,691,710,731,750,770,789],"xSR":735,"ySR":461.5,"xT1":421,"yT1":0,"xT2":1049,"yT2":0,"toosoon":0,"cond_shown":"Incongruent","ratio_trial":300,"L_num":1,"L_den":2,"R_num":3,"R_den":15,"correct_side":1,"subjID":"Laurasofiasanchez2","gender":"1","school":"4","age":"9"},{"start_time":1552054970559,"click_time":1552054971264,"finger_time":1552054970846,"fix_duration":792.1227548682334,"trial":28,"RT":287,"MT":418,"sideResp":1,"stimulus":[],"xmouse":[783,783,783,783,783,783,783,783,783,783,783,783,782,778,765,743,685,536,504,485,478,470,466,466,466,466,466,480,488,493,498,500,502,502,502,502],"ymouse":[483,483,483,483,483,483,483,483,483,483,483,483,483,477,460,441,401,299,268,234,204,170,141,140,140,140,139,139,138,136,133,131,122,116,107,99],"timestamp_mouse":[14,37,47,66,86,106,125,146,167,187,206,226,246,266,287,306,326,345,366,387,407,425,445,465,486,507,525,545,566,586,606,627,647,667,687,705],"xSR":735,"ySR":461.5,"xT1":421,"yT1":0,"xT2":1049,"yT2":0,"toosoon":0,"cond_shown":"Congruent","ratio_trial":100,"L_num":8,"L_den":16,"R_num":2,"R_den":5,"correct_side":1,"subjID":"Laurasofiasanchez2","gender":"1","school":"4","age":"9"},{"start_time":1552054972580,"click_time":1552054973305,"finger_time":1552054972966,"fix_duration":274.87838579048815,"trial":29,"RT":386,"MT":339,"sideResp":1,"stimulus":[],"xmouse":[771,771,772,772,772,773,773,773,773,773,773,773,773,773,773,773,773,771,762,743,716,654,626,604,589,578,575,572,566,558,543,521,517,516,516,516,506],"ymouse":[491,491,491,491,491,491,491,491,491,491,491,491,491,491,491,491,491,488,474,453,425,370,343,317,296,274,257,243,221,194,163,126,117,112,111,101,85],"timestamp_mouse":[11,35,44,65,85,105,125,146,166,184,205,224,244,266,286,305,324,345,366,386,404,425,445,465,486,506,524,545,565,586,606,625,645,665,685,706,725],"xSR":735,"ySR":461.5,"xT1":421,"yT1":0,"xT2":1049,"yT2":0,"toosoon":0,"cond_shown":"Incongruent","ratio_trial":200,"L_num":3,"L_den":10,"R_num":1,"R_den":2,"correct_side":2,"subjID":"Laurasofiasanchez2","gender":"1","school":"4","age":"9"},{"start_time":1552054974927,"click_time":1552054975565,"finger_time":1552054975304,"fix_duration":440.63166732733015,"trial":30,"RT":377,"MT":261,"sideResp":2,"stimulus":[],"xmouse":[758,758,758,758,758,758,759,760,767,770,771,772,774,775,777,778,780,783,799,817,842,874,898,961,999,1025,1037,1052,1069,1073,1073,1073],"ymouse":[496,496,496,496,496,496,496,496,496,496,495,494,494,492,491,489,486,481,454,434,409,383,364,307,271,243,222,190,139,117,104,96],"timestamp_mouse":[18,41,58,77,98,118,139,158,178,198,217,239,259,277,298,318,338,358,377,399,419,438,459,479,498,519,539,559,578,597,619,638],"xSR":735,"ySR":461.5,"xT1":421,"yT1":0,"xT2":1049,"yT2":0,"toosoon":0,"cond_shown":"Congruent","ratio_trial":300,"L_num":9,"L_den":10,"R_num":3,"R_den":5,"correct_side":1,"subjID":"Laurasofiasanchez2","gender":"1","school":"4","age":"9"},{"start_time":1552054981637,"click_time":1552054982825,"finger_time":1552054982046,"fix_duration":250,"trial":31,"RT":409,"MT":779,"sideResp":1,"stimulus":[],"xmouse":[807,807,807,807,807,807,807,807,807,807,807,807,807,807,807,807,807,807,807,799,776,727,676,629,596,594,594,594,594,594,594,594,594,594,594,594,594,594,595,603,612,624,645,671,734,757,772,779,780,780,779,766,736,653,453,423,423,428,443,460],"ymouse":[491,491,491,491,491,491,491,491,491,491,491,491,491,491,491,491,491,491,491,481,460,427,396,372,352,351,351,351,351,351,351,351,351,351,351,351,351,351,351,351,351,352,360,374,416,428,435,438,439,439,429,409,366,293,141,107,106,102,100,97],"timestamp_mouse":[11,34,48,69,87,107,128,149,168,187,208,227,249,267,289,307,328,347,369,388,409,429,448,469,488,508,528,547,568,589,609,629,648,667,689,708,727,748,768,788,808,829,848,869,888,908,928,948,968,987,1007,1027,1047,1069,1088,1107,1128,1148,1167,1187],"xSR":735,"ySR":461.5,"xT1":421,"yT1":0,"xT2":1049,"yT2":0,"toosoon":0,"cond_shown":"Congruent","ratio_trial":200,"L_num":9,"L_den":20,"R_num":4,"R_den":16,"correct_side":1,"subjID":"Laurasofiasanchez2","gender":"1","school":"4","age":"9"},{"start_time":1552054987162,"click_time":1552054988845,"finger_time":1552054988504,"fix_duration":715.1896075624496,"trial":32,"RT":1342,"MT":341,"sideResp":1,"stimulus":[],"xmouse":[758,758,758,758,758,758,758,758,758,759,761,762,762,763,763,763,763,763,763,763,763,763,764,767,769,769,769,770,770,770,770,772,775,776,779,779,779,779,779,779,779,780,781,782,782,782,782,782,782,782,782,782,782,782,782,783,783,784,784,786,787,789,791,797,798,798,797,785,745,691,670,652,631,616,594,586,570,564,561,561,561,558,552,543,512],"ymouse":[539,539,539,539,539,539,539,539,540,540,540,540,540,540,540,540,540,540,540,540,540,540,540,540,540,540,540,540,539,539,539,536,535,534,533,532,532,532,532,532,532,532,532,532,532,532,532,532,532,532,532,532,532,532,532,531,531,531,531,528,527,524,520,507,496,483,466,444,396,350,329,309,288,268,231,196,159,145,129,119,109,99,86,73,47],"timestamp_mouse":[13,25,43,63,81,102,123,143,161,182,203,223,242,262,281,302,323,341,362,381,403,423,442,462,482,502,522,541,561,582,601,623,641,662,681,701,721,741,761,783,803,822,842,861,883,901,922,941,962,982,1002,1021,1043,1062,1082,1103,1122,1142,1161,1182,1202,1222,1242,1263,1281,1302,1322,1342,1362,1382,1403,1421,1442,1462,1482,1502,1523,1543,1564,1581,1602,1621,1642,1661,1682],"xSR":735,"ySR":461.5,"xT1":421,"yT1":0,"xT2":1049,"yT2":0,"toosoon":0,"cond_shown":"Congruent","ratio_trial":200,"L_num":6,"L_den":15,"R_num":3,"R_den":15,"correct_side":1,"subjID":"Laurasofiasanchez2","gender":"1","school":"4","age":"9"},{"start_time":1552054990825,"click_time":1552054993144,"finger_time":1552054992264,"fix_duration":1078.0874014583435,"trial":33,"RT":1439,"MT":880,"sideResp":2,"stimulus":[],"xmouse":[792,792,792,792,792,792,792,792,792,792,792,792,792,792,792,792,792,792,792,793,793,793,793,793,795,795,795,795,795,795,795,795,795,795,795,795,795,795,795,795,795,795,795,795,795,795,795,795,795,795,795,795,795,795,795,795,795,795,795,795,795,795,795,795,795,795,795,795,795,795,793,781,761,712,691,626,568,546,527,508,499,497,497,498,506,555,615,759,837,903,952,980,1001,1013,1027,1048,1084,1098,1108,1117,1130,1161,1169,1172,1173,1173,1173,1173,1173,1173,1173,1172,1172,1171,1169,1162,1125],"ymouse":[513,513,513,513,513,513,513,513,513,513,513,513,513,513,513,513,513,513,513,513,513,513,513,513,512,512,512,512,512,512,512,512,512,512,512,512,512,512,512,512,512,512,512,512,512,512,512,512,512,512,512,512,512,512,512,512,512,512,512,512,512,512,512,512,512,512,512,512,509,507,502,476,448,395,374,321,275,257,240,226,217,214,214,213,213,213,213,213,213,213,212,206,195,186,180,171,152,140,131,123,117,103,97,90,81,76,71,71,71,71,71,70,70,70,70,70,70],"timestamp_mouse":[1,29,39,58,79,99,120,139,158,180,200,220,239,258,278,299,320,340,359,379,398,419,440,458,478,499,520,538,558,578,598,619,639,659,678,699,718,740,758,779,800,819,839,859,880,899,919,938,959,980,998,1019,1040,1059,1079,1099,1118,1139,1160,1178,1199,1218,1238,1259,1280,1300,1318,1338,1359,1379,1398,1419,1439,1459,1479,1498,1519,1539,1559,1578,1599,1620,1640,1659,1679,1698,1719,1739,1758,1779,1799,1819,1840,1860,1878,1899,1918,1938,1960,1979,2000,2019,2038,2058,2078,2099,2119,2138,2160,2179,2199,2219,2239,2259,2278,2299,2318],"xSR":735,"ySR":461.5,"xT1":421,"yT1":0,"xT2":1049,"yT2":0,"toosoon":0,"cond_shown":"Incongruent","ratio_trial":100,"L_num":3,"L_den":6,"R_num":4,"R_den":10,"correct_side":1,"subjID":"Laurasofiasanchez2","gender":"1","school":"4","age":"9"},{"start_time":1552054997637,"click_time":1552054997764,"finger_time":1552054997668,"fix_duration":250,"trial":34,"RT":31,"MT":96,"sideResp":1,"stimulus":[],"xmouse":[777,783,771,704,619,539,485],"ymouse":[483,431,297,214,147,103,72],"timestamp_mouse":[10,31,46,67,86,107,126],"xSR":735,"ySR":461.5,"xT1":421,"yT1":0,"xT2":1049,"yT2":0,"toosoon":0,"cond_shown":"Congruent","ratio_trial":300,"L_num":11,"L_den":22,"R_num":1,"R_den":5,"correct_side":1,"subjID":"Laurasofiasanchez2","gender":"1","school":"4","age":"9"},{"start_time":1552055000036,"click_time":1552055000924,"finger_time":1552055000404,"fix_duration":1390.573851822644,"trial":35,"RT":368,"MT":520,"sideResp":1,"stimulus":[],"xmouse":[799,799,799,799,799,799,799,799,799,799,799,799,799,799,799,799,783,759,723,682,620,571,563,561,561,561,561,561,557,552,550,550,554,558,562,564,564,562,561,560,559,552,544,531,520],"ymouse":[507,507,507,507,507,506,506,506,506,506,506,506,506,506,506,504,489,469,441,412,364,322,314,311,309,306,288,268,245,215,198,176,165,155,142,128,108,103,100,99,99,97,94,89,86],"timestamp_mouse":[12,39,47,68,88,108,128,148,169,188,207,227,248,269,289,308,328,349,368,389,407,428,448,468,488,508,528,548,568,587,607,628,648,668,688,707,728,748,769,788,809,828,847,868,888],"xSR":735,"ySR":461.5,"xT1":421,"yT1":0,"xT2":1049,"yT2":0,"toosoon":0,"cond_shown":"Congruent","ratio_trial":300,"L_num":20,"L_den":25,"R_num":9,"R_den":18,"correct_side":1,"subjID":"Laurasofiasanchez2","gender":"1","school":"4","age":"9"},{"start_time":1552055004778,"click_time":1552055005684,"finger_time":1552055004944,"fix_duration":673.8246419119433,"trial":36,"RT":166,"MT":740,"sideResp":1,"stimulus":[],"xmouse":[781,781,781,781,781,783,786,790,793,795,796,796,796,796,796,775,744,689,621,543,538,540,544,553,562,563,563,563,563,563,563,563,563,559,542,527,526,526,526,526,526,526,526,526,525,520],"ymouse":[495,495,495,495,494,484,476,468,460,454,448,448,448,448,448,428,406,350,262,135,107,102,102,102,102,102,102,102,102,102,102,102,102,101,97,94,93,93,93,93,93,93,92,91,89,85],"timestamp_mouse":[10,26,45,65,85,105,126,147,166,185,205,226,247,267,286,306,325,346,366,387,405,426,445,466,487,505,527,547,565,586,605,627,647,667,687,705,726,745,766,785,805,826,846,866,885,906],"xSR":735,"ySR":461.5,"xT1":421,"yT1":0,"xT2":1049,"yT2":0,"toosoon":0,"cond_shown":"Congruent","ratio_trial":300,"L_num":20,"L_den":25,"R_num":9,"R_den":18,"correct_side":1,"subjID":"Laurasofiasanchez2","gender":"1","school":"4","age":"9"},{"start_time":1552055007948,"click_time":1552055008644,"finger_time":1552055008264,"fix_duration":1183.4361490935723,"trial":37,"RT":316,"MT":380,"sideResp":1,"stimulus":[],"xmouse":[780,780,780,780,780,780,780,780,780,780,780,780,776,771,751,725,652,622,584,533,444,405,405,405,407,407,409,410,414,418,426,436,452,459,463],"ymouse":[487,487,487,487,487,487,487,487,487,487,487,487,486,482,471,457,413,392,358,301,198,146,143,141,139,139,138,138,137,136,133,129,116,108,98],"timestamp_mouse":[17,37,56,76,96,116,137,155,176,197,215,235,256,276,297,316,336,356,376,395,417,435,456,475,496,515,536,555,576,595,616,636,655,675,696],"xSR":735,"ySR":461.5,"xT1":421,"yT1":0,"xT2":1049,"yT2":0,"toosoon":0,"cond_shown":"Incongruent","ratio_trial":200,"L_num":11,"L_den":20,"R_num":3,"R_den":4,"correct_side":2,"subjID":"Laurasofiasanchez2","gender":"1","school":"4","age":"9"},{"start_time":1552055019476,"click_time":1552055032184,"finger_time":1552055021483,"fix_duration":250,"trial":38,"RT":2007,"MT":10701,"sideResp":1,"stimulus":[],"xmouse":[798,798,798,798,798,798,798,798,798,798,798,798,798,798,798,798,798,798,798,798,798,798,798,798,798,798,798,798,798,798,798,798,798,798,798,798,798,798,798,798,798,798,798,798,798,798,798,798,798,798,798,798,798,798,798,798,798,798,798,798,798,798,798,798,798,798,798,798,798,798,798,798,798,798,798,798,798,798,798,798,798,798,798,798,798,798,798,798,798,798,798,796,793,791,790,789,785,782,778,768,757,749,748,748,748,748,748,748,748,749,750,750,736,723,709,688,688,688,688,688,688,688,688,688,688,688,688,688,688,688,688,688,688,688,688,688,688,688,688,688,688,688,688,688,688,688,688,688,688,688,688,688,688,688,688,688,688,688,688,688,196,329,396,454,489,506,514,537,550,560,565,570,577,584,591,600,604,615,623,644,660,660,660,660,660,660,660,660,660,660,660,660,660,790,812,834,842,830,819,809,801,795,787,787,787,790,791,791,791,791,791,791,792,796,800,805,807,808,808,808,807,804,800,799,799,799,799,799,799,799,799,799,799,794,792,780,779,777,777,777,777,777,777,777,777,777,777,777,777,777,777,777,777,777,777,777,775,774,774,773,773,773,773,773,773,773,773,773,773,773,773,773,773,773,773,773,773,773,773,773,773,773,773,773,773,773,773,773,773,773,773,773,773,773,773,773,773,773,773,773,772,772,772,772,772,772,772,772,772,772,772,772,772,772,772,772,772,772,772,772,772,772,772,772,772,772,772,772,772,772,772,772,772,772,772,772,772,772,772,772,772,772,772,772,772,772,772,772,772,772,772,774,774,775,775,776,776,776,776,776,776,776,776,776,776,776,776,776,776,776,776,776,776,776,776,776,776,776,776,776,776,776,776,783,792,818,820,820,820,820,820,820,820,820,820,815,807,803,753,734,727,720,715,711,703,696,691,687,685,685,685,685,685,685,685,685,685,685,685,685,685,685,691,716,745,763,777,798,802,805,807,810,811,812,812,812,812,812,812,812,812,812,812,810,807,805,804,803,803,803,803,803,803,803,803,802,802,800,800,798,797,796,795,794,790,787,782,760,753,753,753,753,753,753,753,753,753,753,756,758,759,761,762,764,766,768,770,778,784,790,792,793,795,795,795,795,795,795,795,795,795,795,795,793,792,790,789,788,788,787,787,787,787,787,787,786,784,783,781,781,781,781,781,781,781,781,781,781,781,779,778,776,775,775,775,775,775,775,775,775,775,775,775,775,775,775,774,773,773,773,772,772,769,764,758,752,749,746,746,746,746,745,745,745,746,749,753,756,759,763,769,776,790,799,810,820,822,822,822,822,821,815,804,801,800,800,800,800,803,817,836,852,862,862,862,859,848,830,789,768,757,752,751,769,819,900,964,1013,1013,1013,1013,1006,921,736,674,652,650,653,751,839,943,1029,1076,1087,1087,1081,1030,903,517,361,284,280,291,424,455,461],"ymouse":[491,491,491,491,491,491,491,491,491,491,491,491,491,491,491,491,491,491,491,491,491,491,491,491,491,491,491,491,491,491,491,491,491,491,491,491,491,491,491,491,491,491,491,491,491,491,491,491,491,491,491,491,491,491,491,491,491,491,491,491,491,491,491,491,491,491,491,491,491,491,491,491,491,491,491,491,491,491,491,491,491,491,491,491,491,491,491,491,491,492,494,498,506,510,513,517,524,531,538,551,566,574,574,574,574,574,574,574,574,575,576,580,605,624,649,682,682,682,682,682,682,682,682,682,682,682,682,682,682,682,682,682,682,682,682,682,682,682,682,682,682,682,682,682,682,682,682,682,682,682,682,682,682,682,682,682,682,682,682,682,672,452,357,287,254,248,248,252,253,255,255,256,257,259,260,260,259,204,149,73,30,30,30,30,30,30,30,30,30,30,30,30,30,84,168,244,306,370,389,407,425,442,484,509,531,549,552,554,554,554,554,554,554,551,548,546,545,543,541,537,532,527,519,518,518,518,518,517,510,502,497,496,495,499,504,517,518,520,520,520,520,520,520,520,520,520,520,520,520,520,520,520,520,520,520,520,521,522,522,522,522,522,522,522,522,522,522,522,522,522,522,522,522,522,522,522,522,522,522,522,522,522,522,522,522,522,522,522,522,522,522,522,522,522,522,522,522,522,522,522,522,523,523,523,523,523,523,523,523,523,523,523,523,523,523,523,523,523,523,523,523,523,523,523,523,523,523,523,523,523,523,523,523,523,523,523,523,523,523,523,523,523,523,523,523,523,523,523,523,523,523,522,521,519,519,519,519,519,519,519,518,518,518,518,518,518,518,518,518,518,518,518,518,518,518,518,518,518,518,518,518,518,518,534,554,597,603,603,603,603,603,603,603,603,603,603,569,451,451,448,447,449,466,475,490,501,508,514,518,518,518,518,518,518,518,518,518,518,518,518,518,518,518,514,506,501,497,490,486,483,480,477,474,472,468,465,464,459,459,459,459,459,459,469,480,498,512,529,534,536,537,537,537,537,537,538,538,539,539,539,539,539,539,539,536,534,531,520,516,515,515,515,515,515,515,515,515,515,515,515,515,515,514,514,513,511,511,508,505,503,502,500,500,499,499,499,499,499,499,499,499,499,499,499,499,499,500,501,501,501,501,501,501,501,501,502,504,505,507,507,507,507,507,507,507,507,507,507,506,506,506,506,505,505,505,505,505,505,505,505,505,505,505,505,505,505,505,505,505,505,505,506,512,519,522,523,523,523,523,523,523,523,523,521,521,521,521,521,521,520,518,516,509,504,500,496,495,495,495,498,503,515,526,527,527,527,527,527,525,517,513,511,510,510,510,512,522,533,544,548,548,548,547,532,508,484,470,459,459,459,459,462,490,534,542,544,543,534,436,387,351,326,313,306,306,306,324,362,472,515,532,532,517,262,130,2],"timestamp_mouse":[12,27,47,68,87,107,127,147,167,189,208,228,249,268,288,308,328,348,369,389,407,428,448,468,488,508,527,547,567,589,607,628,648,667,688,709,728,747,769,789,807,827,849,867,888,909,928,948,969,988,1009,1028,1047,1069,1089,1107,1128,1149,1169,1188,1208,1228,1248,1267,1287,1308,1327,1347,1369,1387,1408,1427,1448,1467,1489,1508,1527,1548,1568,1589,1609,1628,1648,1668,1687,1709,1727,1748,1769,1788,1807,1828,1848,1868,1888,1908,1928,1947,1968,1988,2007,2027,2048,2067,2087,2107,2129,2147,2168,2188,2208,2229,2247,2268,2289,2307,2327,2348,2368,2388,2407,2427,2447,2467,2488,2508,2527,2548,2568,2587,2608,2627,2647,2668,2689,2709,2728,2748,2767,2788,2807,2827,2848,2867,2887,2907,2928,2948,2968,2988,3009,3027,3048,3068,3087,3108,3127,3148,3167,3187,3207,3229,3248,3269,3288,3308,3327,3347,3367,3388,3408,3428,3447,3467,3488,3508,3528,3547,3567,3587,3609,3629,3649,3668,3688,3707,3727,3747,3768,3787,3807,3827,3847,3867,3887,3907,3928,3948,3967,3987,4008,4027,4048,4067,4087,4107,4127,4148,4169,4188,4209,4227,4248,4268,4289,4308,4328,4347,4367,4388,4407,4429,4448,4467,4488,4507,4528,4549,4567,4587,4607,4628,4647,4668,4687,4708,4728,4747,4768,4789,4809,4828,4849,4867,4888,4908,4928,4949,4967,4988,5008,5028,5049,5067,5088,5109,5128,5148,5168,5189,5208,5227,5247,5267,5288,5309,5329,5347,5367,5388,5409,5428,5448,5468,5489,5507,5527,5549,5569,5589,5608,5628,5647,5667,5689,5708,5727,5747,5768,5789,5809,5828,5847,5867,5887,5907,5928,5948,5968,5988,6007,6027,6048,6069,6088,6107,6128,6148,6167,6187,6207,6228,6247,6269,6287,6309,6328,6347,6367,6388,6409,6428,6447,6469,6489,6507,6528,6548,6568,6589,6608,6628,6647,6669,6689,6708,6728,6747,6767,6789,6809,6828,6847,6867,6888,6908,6928,6949,6967,6987,7008,7027,7048,7069,7089,7107,7128,7147,7167,7187,7209,7228,7247,7267,7287,7308,7328,7348,7367,7388,7407,7429,7447,7468,7487,7507,7528,7548,7567,7587,7609,7627,7648,7668,7687,7708,7729,7748,7768,7788,7808,7829,7847,7867,7887,7908,7928,7948,7969,7987,8008,8028,8049,8069,8087,8108,8128,8148,8169,8189,8208,8228,8248,8267,8287,8308,8329,8348,8369,8387,8409,8428,8448,8467,8487,8507,8528,8548,8568,8589,8608,8628,8647,8667,8688,8707,8729,8748,8767,8787,8808,8828,8848,8869,8888,8907,8927,8947,8968,8988,9008,9028,9049,9067,9088,9108,9127,9148,9167,9189,9209,9228,9249,9269,9288,9308,9328,9347,9368,9388,9407,9429,9448,9469,9488,9507,9528,9549,9567,9588,9607,9628,9649,9667,9687,9708,9729,9748,9768,9788,9809,9829,9847,9867,9889,9909,9928,9947,9969,9988,10007,10028,10047,10067,10088,10108,10128,10148,10168,10189,10209,10228,10249,10268,10288,10308,10327,10348,10369,10388,10408,10428,10448,10467,10488,10509,10529,10548,10568,10588,10608,10628,10649,10669,10687,10707,10729,10747,10768,10787,10807,10828,10849,10869,10888,10908,10927,10948,10969,10987,11007,11027,11048,11068,11088,11109,11128,11148,11167,11188,11208,11228,11248,11269,11288,11309,11328,11348,11368,11388,11408,11428,11449,11468,11488,11509,11528,11549,11567,11587,11608,11628,11648,11669,11689,11707,11727,11748,11767,11788,11808,11828,11847,11867,11888,11909,11929,11948,11967,11988,12007,12028,12049,12069,12088,12107,12128,12149,12168,12188,12207,12228,12248,12267,12287,12307,12327,12347,12368,12388,12408,12428,12447,12469,12488,12507,12528,12548,12568,12588,12608,12629,12647,12667,12688,12707],"xSR":735,"ySR":461.5,"xT1":421,"yT1":0,"xT2":1049,"yT2":0,"toosoon":0,"cond_shown":"Incongruent","ratio_trial":300,"L_num":13,"L_den":26,"R_num":12,"R_den":15,"correct_side":2,"subjID":"Laurasofiasanchez2","gender":"1","school":"4","age":"9"},{"start_time":1552055034222,"click_time":1552055036084,"finger_time":1552055035684,"fix_duration":398.50003668149026,"trial":39,"RT":1462,"MT":400,"sideResp":2,"stimulus":[],"xmouse":[786,785,785,785,785,785,785,785,785,785,785,785,785,785,786,787,788,789,789,790,790,790,791,791,791,791,791,791,791,791,791,791,791,791,791,791,791,791,791,791,791,791,791,791,791,791,791,791,791,791,791,791,791,791,791,791,791,791,791,791,791,791,791,791,791,791,791,791,791,792,793,800,803,812,830,856,896,905,908,910,911,917,920,923,928,930,930,930,930,931,937,973,1022,1079],"ymouse":[522,524,524,526,526,526,526,526,526,526,526,526,526,526,526,526,526,526,526,526,526,526,526,526,526,526,526,526,526,526,526,526,526,526,526,526,526,526,526,526,526,526,526,526,526,526,526,526,526,526,526,526,526,526,526,526,526,526,526,526,526,526,526,526,526,526,526,526,525,522,517,492,474,437,401,361,294,269,247,230,216,179,155,131,106,98,96,96,96,95,95,95,95,95],"timestamp_mouse":[1,36,42,62,81,102,123,142,162,181,202,221,242,262,281,301,321,342,363,381,402,422,442,461,482,502,523,542,563,583,602,623,641,663,683,702,721,741,762,783,801,821,843,863,882,901,921,941,963,982,1002,1021,1041,1063,1083,1102,1121,1142,1161,1181,1203,1221,1241,1261,1281,1303,1321,1342,1362,1382,1402,1421,1442,1462,1482,1501,1522,1541,1562,1581,1601,1622,1641,1662,1681,1702,1722,1741,1762,1783,1802,1822,1842,1862],"xSR":735,"ySR":461.5,"xT1":421,"yT1":0,"xT2":1049,"yT2":0,"toosoon":0,"cond_shown":"Incongruent","ratio_trial":100,"L_num":11,"L_den":22,"R_num":9,"R_den":15,"correct_side":2,"subjID":"Laurasofiasanchez2","gender":"1","school":"4","age":"9"},{"start_time":1552055048982,"click_time":1552055052403,"finger_time":1552055049502,"fix_duration":678.3015439219909,"trial":40,"RT":520,"MT":2901,"sideResp":2,"stimulus":[],"xmouse":[775,775,775,775,775,775,775,775,775,775,775,775,775,775,775,775,775,775,775,775,775,775,775,781,788,795,797,799,799,800,800,800,800,800,801,803,806,808,810,815,815,815,816,816,816,816,813,810,804,790,766,751,737,728,724,723,723,723,723,723,723,729,738,751,780,790,793,794,794,794,794,794,794,794,794,794,794,794,794,794,794,794,794,794,794,794,794,794,794,794,791,790,789,789,789,789,789,788,787,785,780,778,777,776,776,776,776,776,776,776,776,776,776,776,776,776,776,776,776,776,776,776,776,776,776,776,776,776,776,776,776,776,776,776,776,776,776,776,776,776,776,776,776,778,779,786,796,818,867,937,969,975,981,988,994,994,994,994,994,994,994,994,994,994,994,994,994,994,994,994,994,1101],"ymouse":[509,507,507,507,507,507,507,507,507,507,507,507,507,507,507,507,507,507,507,507,507,507,502,493,483,465,458,452,448,446,446,446,446,446,446,446,446,448,453,466,467,468,469,470,472,478,483,487,491,499,516,529,541,548,550,550,551,551,551,551,551,550,545,540,528,525,523,523,523,523,523,523,523,523,523,523,523,523,523,523,523,523,523,523,523,523,523,523,523,523,524,524,524,524,524,524,524,524,524,524,524,525,525,525,525,525,525,525,525,525,525,525,525,525,525,525,525,525,525,525,525,525,525,525,525,525,525,525,525,525,525,525,525,525,525,525,525,525,525,525,525,525,525,525,525,519,506,486,449,345,207,160,117,73,21,21,21,21,21,21,21,21,21,21,21,21,21,21,21,21,21,3],"timestamp_mouse":[1,33,41,61,82,101,120,142,161,182,202,221,242,262,280,301,322,342,362,382,400,421,440,461,481,501,520,541,560,580,601,621,642,662,680,701,722,742,761,782,801,822,841,861,881,901,920,940,962,981,1001,1020,1040,1061,1080,1101,1121,1141,1161,1181,1201,1221,1240,1261,1282,1301,1321,1341,1361,1382,1402,1420,1441,1460,1480,1501,1522,1542,1562,1580,1602,1622,1641,1660,1681,1702,1721,1742,1761,1780,1801,1820,1841,1862,1881,1902,1922,1941,1962,1982,2002,2020,2041,2061,2081,2102,2121,2141,2162,2181,2202,2222,2240,2261,2282,2302,2322,2341,2361,2382,2402,2420,2442,2462,2481,2502,2521,2541,2562,2581,2602,2621,2640,2662,2682,2701,2722,2740,2762,2782,2801,2821,2842,2860,2881,2900,2920,2941,2961,2982,3001,3021,3040,3061,3081,3101,3121,3142,3161,3181,3202,3221,3240,3260,3280,3301,3321,3341,3360,3382,3401,3421],"xSR":735,"ySR":461.5,"xT1":421,"yT1":0,"xT2":1049,"yT2":0,"toosoon":0,"cond_shown":"Congruent","ratio_trial":200,"L_num":6,"L_den":20,"R_num":11,"R_den":22,"correct_side":2,"subjID":"Laurasofiasanchez2","gender":"1","school":"4","age":"9"},{"start_time":1552055054957,"click_time":1552055057203,"finger_time":1552055056484,"fix_duration":732.7852771655573,"trial":41,"RT":1527,"MT":719,"sideResp":2,"stimulus":[],"xmouse":[771,771,771,771,771,771,771,771,771,771,771,771,771,771,771,771,771,771,771,771,771,771,771,771,771,771,771,771,771,771,771,771,771,771,771,771,771,771,771,771,771,771,771,771,771,771,771,771,771,771,771,771,771,771,771,771,772,772,772,772,772,772,772,772,772,772,772,773,774,776,778,782,782,782,782,782,767,758,753,753,764,796,988,1113,1209,1263,1281,1276,1256,1231,1203,1187,1166,1159,1156,1155,1155,1155,1162,1177,1188,1196,1198,1198,1193,1187,1179,1170,1169,1166,1162,1150,1148],"ymouse":[515,515,515,515,515,515,515,515,515,515,515,515,515,515,515,515,515,515,515,515,515,515,515,515,515,515,515,515,515,515,515,515,515,515,515,515,515,515,515,515,515,515,515,515,515,516,516,516,516,516,516,516,516,516,516,516,516,516,516,516,516,516,516,516,516,516,516,516,516,515,512,503,500,499,499,493,459,431,404,376,350,333,305,287,265,245,213,177,140,113,98,89,77,75,74,74,74,74,75,78,78,76,67,60,52,44,40,38,38,38,38,41,42],"timestamp_mouse":[11,25,45,66,86,107,126,146,167,185,206,226,247,266,287,307,326,347,365,385,407,426,446,467,485,507,526,547,567,587,606,627,646,667,685,706,726,747,766,787,806,827,845,866,887,907,926,947,966,987,1006,1026,1047,1067,1087,1106,1126,1147,1166,1187,1206,1227,1245,1267,1287,1306,1327,1346,1366,1386,1406,1427,1446,1465,1486,1506,1527,1545,1565,1585,1607,1627,1646,1666,1687,1705,1727,1745,1766,1787,1807,1826,1845,1866,1887,1906,1926,1947,1966,1986,2006,2026,2045,2067,2086,2107,2126,2147,2166,2185,2206,2228,2245],"xSR":735,"ySR":461.5,"xT1":421,"yT1":0,"xT2":1049,"yT2":0,"toosoon":0,"cond_shown":"Incongruent","ratio_trial":200,"L_num":4,"L_den":5,"R_num":6,"R_den":10,"correct_side":1,"subjID":"Laurasofiasanchez2","gender":"1","school":"4","age":"9"},{"start_time":1552055071332,"click_time":1552055072643,"finger_time":1552055072423,"fix_duration":768.6704196180681,"trial":42,"RT":1091,"MT":220,"sideResp":2,"stimulus":[],"xmouse":[775,775,775,775,775,779,785,790,795,804,809,810,811,811,813,815,815,815,815,815,815,815,816,816,816,816,816,816,816,816,816,816,816,816,816,816,816,817,817,818,819,819,819,819,819,819,819,819,819,820,821,824,826,830,920,960,976,979,983,990,1005,1014,1027,1046,1060,1062],"ymouse":[470,470,470,470,470,470,469,469,469,469,469,469,469,469,469,469,469,469,469,469,469,469,469,469,469,469,469,469,469,469,469,469,469,469,469,469,469,468,468,468,469,469,469,469,469,469,469,469,469,469,469,469,469,468,431,413,399,385,366,341,291,249,208,164,115,92],"timestamp_mouse":[12,36,51,71,91,111,131,150,171,191,211,232,251,272,291,311,331,351,371,391,411,432,451,471,491,512,532,550,572,591,612,631,651,672,691,712,731,751,772,790,812,832,851,872,891,911,932,952,972,991,1011,1031,1050,1072,1091,1111,1131,1151,1170,1192,1210,1230,1251,1272,1292,1311],"xSR":735,"ySR":461.5,"xT1":421,"yT1":0,"xT2":1049,"yT2":0,"toosoon":0,"cond_shown":"Incongruent","ratio_trial":300,"L_num":4,"L_den":20,"R_num":2,"R_den":4,"correct_side":2,"subjID":"Laurasofiasanchez2","gender":"1","school":"4","age":"9"},{"start_time":1552055081901,"click_time":1552055083642,"finger_time":1552055083343,"fix_duration":736.0292599218137,"trial":43,"RT":1442,"MT":299,"sideResp":1,"stimulus":[],"xmouse":[785,785,785,785,785,785,785,785,785,785,785,785,785,785,785,785,785,785,785,785,785,785,785,785,785,785,785,785,785,785,785,785,785,785,785,785,785,785,785,785,785,785,785,785,785,785,785,785,785,785,785,785,785,785,785,785,785,785,785,785,785,785,785,785,785,785,785,785,785,783,771,758,745,727,723,716,709,670,630,611,592,575,565,533,523,494,471,439],"ymouse":[511,511,511,511,511,511,511,511,511,511,511,511,511,511,511,511,511,511,511,511,511,511,511,511,511,511,511,511,511,511,511,511,511,511,511,511,511,511,511,511,511,511,511,511,511,511,511,511,511,511,511,511,511,511,511,511,511,511,511,511,511,511,511,511,511,511,511,511,510,498,481,466,453,441,438,437,435,424,411,399,385,370,361,328,312,262,208,99],"timestamp_mouse":[12,22,42,63,82,101,123,141,163,182,201,221,242,263,281,301,323,343,362,381,401,423,441,462,482,503,522,542,562,582,603,623,642,662,683,702,723,743,762,781,801,823,843,862,883,902,923,942,962,983,1001,1022,1042,1063,1083,1103,1123,1143,1163,1182,1201,1223,1242,1262,1283,1303,1323,1343,1361,1382,1402,1423,1442,1462,1482,1501,1522,1543,1561,1583,1603,1621,1643,1662,1683,1702,1721,1741],"xSR":735,"ySR":461.5,"xT1":421,"yT1":0,"xT2":1049,"yT2":0,"toosoon":0,"cond_shown":"Congruent","ratio_trial":100,"L_num":11,"L_den":22,"R_num":6,"R_den":15,"correct_side":1,"subjID":"Laurasofiasanchez2","gender":"1","school":"4","age":"9"},{"start_time":1552055087480,"click_time":1552055088864,"finger_time":1552055088704,"fix_duration":535.3907779787996,"trial":44,"RT":1224,"MT":160,"sideResp":2,"stimulus":[],"xmouse":[789,789,789,789,789,789,789,789,789,789,789,789,789,789,789,789,789,789,789,789,789,789,789,789,789,789,789,789,789,789,789,788,786,786,786,786,786,786,785,785,785,785,785,785,785,785,785,785,785,785,785,785,785,785,785,785,785,785,790,807,824,855,896,936,971,1025,1059,1077,1087,1091],"ymouse":[521,521,521,521,521,521,521,521,521,521,521,521,521,521,521,521,521,521,521,521,521,521,521,521,521,521,521,521,521,521,521,521,520,520,520,520,520,520,520,520,520,520,520,520,520,520,520,520,520,520,520,520,520,520,520,520,520,520,508,486,471,445,409,375,346,276,208,163,125,60],"timestamp_mouse":[7,22,43,62,83,102,123,144,164,184,202,222,243,262,283,303,324,342,364,382,402,423,443,462,483,504,523,542,564,583,602,623,644,662,685,703,722,742,762,782,802,822,842,862,882,903,923,942,964,983,1003,1024,1043,1063,1082,1102,1123,1143,1163,1183,1202,1224,1244,1263,1283,1304,1323,1343,1362,1383],"xSR":735,"ySR":461.5,"xT1":421,"yT1":0,"xT2":1049,"yT2":0,"toosoon":0,"cond_shown":"Incongruent","ratio_trial":300,"L_num":13,"L_den":26,"R_num":12,"R_den":15,"correct_side":2,"subjID":"Laurasofiasanchez2","gender":"1","school":"4","age":"9"},{"start_time":1552055091311,"click_time":1552055092965,"finger_time":1552055092443,"fix_duration":1386.393390387917,"trial":45,"RT":1132,"MT":522,"sideResp":1,"stimulus":[],"xmouse":[793,792,790,789,789,789,789,789,789,789,789,789,789,789,789,789,789,789,789,789,789,789,789,789,789,789,789,789,789,789,789,789,789,789,789,789,789,789,789,789,789,789,789,789,789,789,789,789,789,789,789,789,787,786,785,782,771,755,710,688,680,676,675,674,674,674,674,673,671,671,670,669,665,662,658,650,638,621,582,565,545,528,498],"ymouse":[475,475,475,475,475,475,475,475,475,475,475,475,475,475,475,475,475,475,475,475,475,475,475,475,475,475,475,475,475,475,475,475,475,475,475,475,475,475,475,475,475,475,475,475,475,475,475,475,475,475,475,475,474,474,473,469,455,432,364,324,303,287,262,252,247,241,236,230,218,215,212,208,196,189,181,169,157,142,114,101,87,71,44],"timestamp_mouse":[13,32,53,72,93,113,132,153,172,193,212,231,253,273,292,312,332,353,372,391,412,432,453,473,493,512,532,551,573,593,612,632,653,673,693,712,731,753,773,793,813,833,853,872,891,913,933,952,972,993,1012,1032,1052,1071,1092,1113,1132,1153,1171,1192,1211,1232,1253,1272,1292,1313,1333,1352,1372,1393,1412,1433,1453,1472,1492,1511,1533,1552,1572,1592,1612,1633,1653],"xSR":735,"ySR":461.5,"xT1":421,"yT1":0,"xT2":1049,"yT2":0,"toosoon":0,"cond_shown":"Congruent","ratio_trial":300,"L_num":8,"L_den":16,"R_num":1,"R_den":5,"correct_side":1,"subjID":"Laurasofiasanchez2","gender":"1","school":"4","age":"9"},{"start_time":1552055099022,"click_time":1552055101644,"finger_time":1552055100404,"fix_duration":837.5731488647284,"trial":46,"RT":1382,"MT":1240,"sideResp":1,"stimulus":[],"xmouse":[777,777,777,777,777,777,777,777,777,777,777,777,777,777,777,777,777,777,777,777,777,777,777,777,777,777,777,777,777,777,777,777,777,777,777,777,777,777,777,777,777,777,777,777,777,777,777,777,777,777,777,777,777,777,777,777,777,777,777,777,777,777,777,777,777,777,777,777,782,837,864,891,927,958,1004,1004,1004,1004,1004,1004,1004,1004,1004,1004,1008,1008,1007,1007,1007,1007,1007,1006,1006,1005,1003,1003,1002,997,974,942,883,810,745,672,635,634,634,634,634,638,638,638,638,632,587,570,563,558,544,537,536,536,536,536,536,536,536,536,536,536,534,513],"ymouse":[516,516,516,516,516,516,516,516,516,516,516,516,516,516,516,516,516,516,516,516,516,516,516,516,516,516,516,516,516,516,516,516,516,516,516,516,516,516,516,516,516,516,516,516,516,516,516,516,516,516,516,516,516,516,516,516,516,516,516,516,516,516,516,516,516,516,516,513,495,385,328,259,180,103,6,6,6,6,6,6,6,6,6,6,20,25,30,33,35,37,39,42,44,50,52,53,54,55,55,54,47,42,42,47,59,60,60,60,60,60,55,50,44,37,20,17,17,18,32,37,38,38,38,38,38,38,38,38,38,38,38,36],"timestamp_mouse":[10,20,40,60,82,100,120,141,162,181,201,221,241,261,282,301,322,341,361,381,401,422,441,462,481,502,521,542,562,581,601,621,642,661,682,700,722,742,762,780,800,820,842,861,881,902,920,942,962,981,1002,1020,1042,1061,1081,1101,1121,1140,1161,1181,1201,1220,1241,1260,1280,1301,1320,1340,1361,1382,1401,1422,1441,1462,1481,1501,1521,1542,1561,1581,1600,1621,1641,1661,1682,1701,1721,1741,1762,1780,1801,1821,1842,1862,1882,1900,1920,1942,1962,1980,2002,2022,2042,2061,2081,2102,2122,2142,2160,2180,2201,2221,2242,2261,2280,2301,2322,2342,2363,2380,2400,2422,2442,2462,2482,2502,2522,2542,2562,2582,2601,2621],"xSR":735,"ySR":461.5,"xT1":421,"yT1":0,"xT2":1049,"yT2":0,"toosoon":0,"cond_shown":"Incongruent","ratio_trial":100,"L_num":12,"L_den":24,"R_num":9,"R_den":15,"correct_side":2,"subjID":"Laurasofiasanchez2","gender":"1","school":"4","age":"9"},{"start_time":1552055104615,"click_time":1552055106944,"finger_time":1552055106123,"fix_duration":1370.8274165054709,"trial":47,"RT":1508,"MT":821,"sideResp":1,"stimulus":[],"xmouse":[786,786,786,786,786,786,786,786,786,786,786,786,786,786,786,786,786,786,786,786,786,786,786,786,786,786,786,786,786,786,786,786,786,786,786,786,786,786,786,786,786,786,786,786,786,786,786,786,786,786,786,786,786,786,786,786,786,786,786,786,786,786,786,786,786,786,786,786,786,786,786,786,788,790,805,820,833,842,848,849,849,849,849,849,850,856,861,865,867,867,867,867,867,864,839,817,808,803,782,731,690,654,627,595,533,533,533,533,533,533,533,533,533,533,533,533,471],"ymouse":[497,497,497,497,497,497,497,497,497,497,497,497,497,497,497,497,497,497,497,497,497,497,497,497,497,497,497,497,497,497,497,497,497,497,497,497,497,497,497,497,497,497,497,497,497,497,497,497,497,497,497,497,497,497,497,497,497,497,497,497,497,497,497,497,497,497,497,497,497,497,497,497,496,493,463,439,411,386,368,337,335,335,335,335,335,335,335,335,334,334,334,334,334,333,330,323,320,318,308,271,235,191,159,110,18,18,18,18,18,18,18,18,18,18,18,18,9],"timestamp_mouse":[12,34,48,68,87,109,129,148,169,188,208,228,249,267,288,308,328,349,367,388,408,429,449,468,487,507,529,547,569,589,607,628,649,668,687,708,728,749,768,788,808,828,847,867,888,909,929,949,969,989,1008,1028,1048,1068,1089,1108,1128,1147,1169,1189,1207,1227,1249,1268,1288,1308,1327,1347,1369,1388,1408,1427,1448,1469,1488,1508,1529,1548,1569,1588,1608,1627,1647,1668,1689,1707,1729,1749,1768,1787,1807,1827,1848,1868,1889,1908,1929,1948,1969,1988,2008,2028,2048,2069,2088,2109,2128,2147,2169,2188,2209,2229,2248,2268,2288,2308,2329],"xSR":735,"ySR":461.5,"xT1":421,"yT1":0,"xT2":1049,"yT2":0,"toosoon":0,"cond_shown":"Incongruent","ratio_trial":200,"L_num":14,"L_den":30,"R_num":12,"R_den":18,"correct_side":2,"subjID":"Laurasofiasanchez2","gender":"1","school":"4","age":"9"},{"start_time":1552055109607,"click_time":1552055111562,"finger_time":1552055110862,"fix_duration":1203.9405702345598,"trial":48,"RT":1255,"MT":700,"sideResp":1,"stimulus":[],"xmouse":[782,782,782,782,782,782,782,782,782,782,782,782,782,782,782,782,782,782,782,782,782,782,782,782,782,782,782,782,782,782,782,782,782,782,782,782,782,782,782,782,782,782,782,782,782,782,782,782,782,782,782,782,782,782,782,782,782,782,781,776,768,753,739,728,727,727,727,727,727,727,726,726,726,724,721,704,691,675,660,649,622,615,608,603,598,589,585,582,575,562,547,544,544,544,544,542,534,514],"ymouse":[483,483,483,483,483,483,483,483,483,483,483,483,483,483,483,483,483,483,483,483,483,483,483,483,483,483,483,483,483,483,483,483,483,483,483,483,483,483,483,483,483,483,483,483,483,483,483,483,483,483,483,483,483,483,483,483,483,483,482,481,475,463,454,447,446,446,446,446,446,446,446,445,444,440,434,400,379,357,338,320,282,274,264,256,248,229,221,214,201,171,140,137,137,137,137,133,121,94],"timestamp_mouse":[15,35,56,75,95,116,135,155,174,196,215,235,255,276,295,315,335,355,375,396,415,436,456,476,494,516,536,555,576,595,615,635,656,676,694,716,736,755,775,794,816,836,855,874,896,916,936,956,975,996,1015,1035,1055,1074,1096,1115,1136,1154,1176,1196,1216,1235,1255,1276,1296,1314,1335,1356,1375,1396,1415,1436,1455,1476,1495,1515,1536,1556,1576,1595,1615,1635,1655,1675,1695,1715,1735,1756,1775,1795,1815,1836,1855,1875,1895,1915,1935,1955],"xSR":735,"ySR":461.5,"xT1":421,"yT1":0,"xT2":1049,"yT2":0,"toosoon":0,"cond_shown":"Congruent","ratio_trial":100,"L_num":10,"L_den":25,"R_num":3,"R_den":10,"correct_side":1,"subjID":"Laurasofiasanchez2","gender":"1","school":"4","age":"9"},{"start_time":1552055113227,"click_time":1552055115423,"finger_time":1552055114762,"fix_duration":304.90834674797287,"trial":49,"RT":1535,"MT":661,"sideResp":1,"stimulus":[],"xmouse":[814,814,813,810,804,801,796,795,795,795,795,795,795,795,795,795,795,795,795,795,795,795,795,795,795,795,795,795,795,795,795,795,795,795,795,795,795,795,795,795,795,795,795,795,795,795,795,795,795,795,795,795,795,795,795,795,795,795,795,795,795,795,795,795,795,795,795,795,795,795,795,795,795,795,795,792,780,754,715,630,587,544,510,490,487,487,487,487,487,487,487,487,487,487,487,487,487,487,487,487,486,484,483,481,481,481,481,481,481,480],"ymouse":[483,483,483,483,480,479,477,476,476,476,476,476,476,476,476,476,476,476,476,476,476,476,476,476,476,476,476,476,476,476,476,476,476,476,476,476,476,476,476,476,476,476,476,476,476,476,476,476,476,476,476,476,476,476,476,476,476,476,476,476,476,476,476,476,476,476,476,476,476,476,476,476,476,476,476,475,461,430,384,293,244,195,155,134,128,128,128,128,128,128,128,128,128,128,128,128,128,128,128,123,118,113,108,105,103,103,103,103,103,99],"timestamp_mouse":[27,36,55,75,95,116,134,155,176,196,215,234,255,275,295,316,336,355,376,396,415,435,456,475,494,516,535,556,576,596,616,636,655,676,694,716,735,755,776,796,815,836,855,876,896,916,936,956,975,996,1015,1035,1056,1075,1095,1115,1136,1155,1175,1195,1214,1234,1255,1276,1295,1315,1335,1355,1375,1395,1415,1436,1455,1475,1495,1516,1535,1555,1576,1596,1615,1636,1655,1675,1695,1715,1735,1755,1775,1795,1815,1835,1856,1876,1895,1914,1934,1955,1975,1996,2014,2036,2056,2076,2095,2114,2136,2155,2175,2196],"xSR":735,"ySR":461.5,"xT1":421,"yT1":0,"xT2":1049,"yT2":0,"toosoon":0,"cond_shown":"Incongruent","ratio_trial":300,"L_num":4,"L_den":20,"R_num":2,"R_den":4,"correct_side":2,"subjID":"Laurasofiasanchez2","gender":"1","school":"4","age":"9"},{"start_time":1552055118074,"click_time":1552055148782,"finger_time":1552055120502,"fix_duration":250,"trial":50,"RT":2428,"MT":28280,"sideResp":1,"stimulus":[],"xmouse":[800,800,800,800,800,800,800,800,800,800,800,800,800,800,800,800,800,800,800,800,800,800,800,800,800,800,800,800,800,798,797,797,797,797,797,797,797,797,797,797,797,797,797,797,797,797,797,797,797,797,797,797,797,796,796,796,796,796,796,796,796,796,796,796,796,796,796,795,795,795,795,795,795,795,795,795,795,795,795,795,795,795,795,795,795,795,795,795,795,795,795,795,795,795,795,795,795,795,795,795,795,795,795,795,795,796,796,796,796,796,797,798,798,798,799,799,799,799,799,799,800,799,792,779,777,777,777,777,777,777,777,777,777,777,777,777,777,777,777,777,777,777,777,777,777,777,777,777,777,777,777,777,777,777,777,777,776,776,775,775,775,775,775,775,775,775,775,775,775,775,775,775,775,775,775,775,775,775,775,775,775,775,775,774,773,773,773,773,773,773,773,773,773,773,773,773,773,773,773,773,773,773,773,773,773,773,773,773,773,773,773,773,773,773,773,773,773,773,773,773,773,773,773,773,773,773,773,773,773,773,773,773,773,773,773,773,773,773,773,773,773,773,773,773,773,773,773,773,773,773,773,773,773,773,773,773,773,773,773,773,773,773,773,773,773,773,773,773,773,773,773,773,773,773,773,773,773,773,773,773,773,773,773,773,773,773,773,773,773,773,773,773,773,773,773,773,773,773,773,773,773,773,773,773,773,773,773,773,773,773,773,773,773,772,772,772,772,772,772,772,772,772,773,773,774,774,774,774,774,774,774,774,774,774,774,774,774,774,774,774,774,773,772,771,770,770,769,768,766,765,764,762,762,762,762,762,761,761,761,761,761,761,761,757,753,749,746,745,744,744,744,744,744,744,744,744,744,744,744,744,744,744,744,744,744,744,744,744,744,744,744,744,744,744,744,749,757,766,774,784,793,802,808,811,811,811,811,811,811,811,811,811,811,811,811,811,811,811,811,811,811,811,811,811,811,811,811,811,811,811,811,811,811,811,811,811,811,811,811,811,811,811,811,811,811,811,811,811,811,811,811,811,811,809,807,805,803,800,800,800,800,800,800,800,800,800,800,800,800,800,800,800,800,800,800,800,800,800,800,800,800,800,800,800,800,800,800,800,800,800,800,800,800,800,800,800,800,799,798,796,795,794,793,793,793,793,793,795,797,805,810,814,819,823,831,833,833,833,833,833,833,833,833,833,833,833,833,833,833,833,833,833,833,833,833,834,835,836,839,839,839,839,839,840,842,843,843,843,843,843,841,839,836,836,836,836,838,842,847,851,852,852,852,852,845,839,834,820,801,760,712,663,637,597,515,493,460,447,444,449,470,526,607,694,835,835,835,835,835,835,835,835,835,886,855,842,833,827,824,818,810,803,798,798,798,798,798,797,795,784,784,783,783,783,783,783,783,783,783,782,781,780,780,780,780,780,780,780,780,780,780,780,780,780,780,778,778,778,777,777,777,777,777,777,777,777,777,777,777,777,777,777,777,777,777,777,777,777,777,777,777,777,777,777,777,777,777,776,776,776,776,776,776,776,776,776,776,776,776,776,776,776,776,776,776,776,776,776,776,776,776,776,776,776,776,776,776,776,776,776,776,776,776,776,776,776,776,776,776,776,776,776,776,776,776,776,776,776,776,776,776,776,776,776,776,776,776,776,776,776,776,776,776,776,776,776,776,777,779,781,783,787,791,796,806,812,813,813,813,814,814,814,814,814,814,814,814,814,814,814,814,814,814,813,812,811,811,811,811,811,811,811,811,811,811,811,811,811,811,811,811,810,810,809,807,805,804,803,802,787,774,759,744,734,725,724,724,724,724,730,736,743,752,759,777,787,788,788,789,789,789,789,789,787,782,777,775,773,772,772,772,772,772,772,772,772,772,772,772,772,772,772,772,772,772,772,772,772,772,772,772,772,772,772,772,772,772,772,772,772,772,773,773,773,773,773,773,773,773,773,773,773,773,773,773,773,773,773,773,773,773,773,773,773,773,773,773,774,775,780,780,780,780,780,780,780,780,780,780,780,780,780,780,780,780,777,775,774,773,772,772,772,772,772,772,772,772,772,772,772,772,772,772,772,772,772,772,772,772,772,772,772,772,772,772,772,772,772,772,772,772,772,772,772,772,772,772,772,772,772,772,764,757,747,678,649,624,607,604,602,602,601,600,593,583,575,574,574,571,569,566,564,564,563,563,563,563,563,