[{"start_time":1552055838491,"click_time":1552055847920,"finger_time":1552055838504,"fix_duration":688.0544384601523,"trial":0,"RT":13,"MT":9416,"sideResp":2,"stimulus":"img/500/equaldotsize/R/15_Ratio_500_L_1_R_2.png","xmouse":[789,789,789,789,789,789,789,789,789,789,789,789,789,789,789,789,789,789,789,789,789,789,790,790,790,790,790,790,789,789,789,783,777,769,764,758,752,752,752,752,752,752,752,752,752,752,752,752,752,752,752,752,752,752,753,753,756,760,760,760,760,761,761,761,761,761,761,761,761,761,761,761,761,761,761,761,761,761,761,761,761,761,761,761,761,761,761,761,761,761,761,761,761,761,761,761,761,761,761,761,761,761,761,761,761,761,761,761,761,762,762,762,762,762,762,762,762,762,762,762,762,762,762,762,762,762,762,762,762,762,762,762,762,762,762,762,762,762,762,762,762,762,762,762,762,762,762,762,762,762,762,762,762,762,762,762,762,762,762,762,762,762,762,762,762,762,764,771,775,777,778,778,778,778,778,778,778,778,778,778,778,781,783,784,786,786,786,786,786,786,786,786,786,786,786,786,786,786,786,786,786,786,786,786,783,782,782,782,782,782,782,782,782,782,782,782,782,782,782,782,782,782,782,782,782,782,782,782,782,782,782,782,782,782,782,782,782,782,782,782,782,782,782,782,782,782,782,782,782,782,782,782,782,782,782,782,782,782,782,782,782,782,782,782,782,782,782,782,782,782,782,782,782,782,782,782,782,782,782,782,782,782,782,782,782,782,782,782,782,782,782,782,782,782,782,782,780,780,780,780,780,780,780,780,780,780,780,780,780,780,780,780,780,780,780,780,780,780,780,780,780,780,780,780,780,780,780,780,780,780,780,780,780,780,780,780,780,780,780,780,780,780,780,780,780,780,780,780,780,780,780,780,780,780,780,780,780,780,780,780,780,780,780,780,780,780,780,780,780,780,780,780,780,780,780,780,780,780,780,780,780,780,780,780,780,780,780,780,780,780,780,780,780,780,780,780,780,780,780,779,778,778,778,778,778,778,778,778,778,778,778,778,778,778,778,778,778,778,778,778,778,778,778,778,778,778,778,778,778,778,778,778,778,778,792,807,816,837,852,869,888,908,945,968,987,1011,1025,1029,1032,1033,1033,1033,1034,1034,1034,1034,1035,1039,1042,1045,1049,1050,1050,1051,1051,1052,1053,1053,1055,1061,1069,1079],"ymouse":[517,517,517,517,517,517,517,517,517,517,517,517,517,517,517,517,517,517,517,517,517,517,517,517,517,517,517,518,518,518,519,529,537,548,556,564,572,572,572,572,572,572,572,572,572,572,572,572,573,573,575,580,583,584,584,585,591,599,603,607,611,617,618,618,618,618,618,618,618,618,618,618,618,618,618,618,618,618,618,618,618,618,618,618,618,618,618,618,618,618,618,618,618,618,618,618,618,618,618,618,618,618,618,618,618,618,618,618,618,618,618,618,618,618,618,618,618,618,618,618,618,618,618,618,618,618,618,618,618,618,618,618,618,618,618,618,618,618,618,618,618,618,618,618,618,618,618,618,618,618,618,618,618,618,618,618,618,618,618,618,618,618,618,618,618,618,618,617,616,615,615,615,615,615,615,615,615,615,615,615,615,614,614,614,614,614,614,614,614,614,614,614,614,614,614,614,614,614,614,614,614,614,614,614,614,614,614,614,614,614,614,614,614,614,614,614,614,614,614,614,614,614,614,614,614,614,614,614,614,614,614,614,614,614,614,614,614,614,614,614,614,614,614,614,614,614,614,614,614,614,614,614,614,614,614,614,614,614,614,614,614,614,614,614,614,614,614,614,614,614,614,614,614,614,614,614,614,614,614,614,614,614,614,614,614,614,614,614,614,614,614,614,614,614,614,614,613,613,613,613,613,613,613,613,613,613,613,613,613,613,613,613,613,613,613,613,613,613,613,613,613,613,613,613,613,613,613,613,613,613,613,613,613,613,613,613,613,613,613,613,613,613,613,613,613,613,613,613,613,613,613,613,613,613,613,613,613,613,613,613,613,613,613,613,613,613,613,613,613,613,613,613,613,613,613,613,613,613,613,613,613,613,613,613,613,613,613,613,613,613,613,613,613,613,613,613,613,613,613,613,613,613,613,613,613,613,613,613,613,613,613,613,613,613,613,613,613,613,613,613,613,613,613,613,613,613,613,613,613,613,613,613,613,613,600,587,579,562,549,532,516,498,449,407,361,306,266,253,243,238,234,230,221,219,215,212,209,200,195,185,172,166,163,160,157,150,145,142,137,125,110,93],"timestamp_mouse":[12,28,49,68,89,110,129,148,169,189,209,229,248,269,289,310,329,349,368,389,409,428,448,469,489,509,528,549,568,588,609,629,649,669,689,710,728,749,769,789,809,829,849,869,888,908,929,949,970,989,1009,1028,1050,1070,1088,1108,1129,1148,1169,1188,1208,1228,1249,1270,1288,1309,1329,1350,1370,1388,1408,1429,1450,1469,1489,1508,1529,1548,1570,1590,1609,1628,1648,1668,1689,1709,1730,1748,1768,1789,1810,1829,1848,1868,1890,1909,1928,1949,1970,1988,2009,2028,2050,2069,2089,2108,2128,2148,2170,2190,2209,2229,2249,2269,2289,2308,2329,2350,2369,2389,2409,2428,2449,2470,2489,2508,2528,2548,2569,2590,2609,2629,2648,2669,2688,2708,2729,2748,2769,2788,2810,2830,2849,2869,2889,2909,2930,2949,2968,2989,3009,3028,3048,3068,3088,3109,3129,3149,3168,3188,3208,3228,3248,3269,3289,3310,3328,3349,3368,3388,3408,3430,3450,3469,3488,3508,3529,3548,3568,3590,3608,3629,3648,3670,3690,3708,3729,3749,3769,3789,3809,3829,3848,3869,3888,3909,3930,3950,3970,3988,4008,4029,4049,4068,4088,4110,4129,4149,4168,4188,4209,4228,4250,4269,4289,4309,4328,4349,4368,4388,4408,4429,4449,4469,4489,4508,4530,4548,4568,4588,4608,4629,4648,4669,4689,4708,4728,4748,4768,4788,4808,4828,4848,4869,4887,4908,4929,4949,4969,4989,5009,5029,5049,5069,5087,5108,5129,5147,5168,5189,5208,5228,5248,5268,5289,5308,5329,5348,5367,5387,5408,5429,5449,5469,5487,5509,5529,5548,5568,5588,5607,5628,5648,5669,5688,5709,5728,5749,5769,5788,5809,5828,5848,5867,5889,5909,5927,5948,5969,5989,6008,6029,6049,6068,6087,6107,6129,6149,6168,6189,6208,6228,6249,6268,6289,6309,6329,6348,6368,6389,6409,6429,6449,6468,6488,6507,6529,6549,6568,6589,6609,6628,6649,6668,6689,6709,6728,6749,6769,6789,6809,6828,6849,6868,6887,6908,6928,6948,6968,6987,7008,7029,7048,7069,7089,7108,7129,7148,7167,7188,7209,7229,7248,7269,7288,7309,7328,7349,7369,7389,7409,7429,7449,7468,7489,7508,7529,7548,7569,7588,7609,7627,7648,7668,7688,7709,7728,7749,7769,7788,7809,7828,7848,7868,7889,7909,7929,7948,7969,7988,8007,8028,8049,8069,8087,8107,8129,8149,8169,8187,8208,8229,8248,8269,8289,8307,8327,8348,8368,8389,8408,8429,8449,8468,8489,8508,8529,8549,8569,8589,8609,8627,8648,8669,8687,8708,8728,8747,8767,8788,8808,8828,8847,8869,8888,8909,8929,8948,8968,8988,9007,9028,9048,9068,9089,9109,9128,9149,9168,9188,9208,9229,9249,9268,9289,9307,9327,9348,9368,9387,9408,9428],"xSR":735,"ySR":493.35,"xT1":421,"yT1":0,"xT2":1049,"yT2":0,"toosoon":0,"cond_shown":"equaldotsize","ratio_trial":500,"smaller_num":"1","larger_num":"2","correct_side":2,"subjID":"laurasofiasanchez","gender":"1","age":"9","school":"4","test":{"fix_dur":[250,1500],"timestim":300,"targets_dim":[100,100],"targets_relative_coord":[0.3,0.7],"size_stim":[880,420],"start_dim":[100,100],"size_start":[300,300],"size_fix":60,"samplingrate":20,"img_types":["equaldotsize","equaldotanddens","randomdotsizeEA"],"ratios":[250,500,750,900],"rep_conds":9,"nTrials":120,"trials_to_rest":500,"Trials_order":[111,64,60,59,104,83,48,19,50,43,87,71,85,9,18,91,86,28,73,89,21,84,117,72,74,80,88,16,77,22,52,12,31,29,8,46,106,95,44,7,11,55,41,68,26,69,30,92,90,5,105,109,23,24,2,34,40,81,3,67,100,112,62,10,102,58,116,118,39,99,108,54,119,115,98,33,42,37,1,94,36,14,107,45,57,113,51,78,20,47,32,27,17,114,25,75,6,101,56,0,13,103,66,93,97,79,76,63,15,96,70,35,38,110,4,53,61,65,49,82],"cond_shown":["equaldotsize","equaldotanddens","equaldotsize","randomdotsizeEA","randomdotsizeEA","randomdotsizeEA","equaldotsize","equaldotanddens","randomdotsizeEA","equaldotanddens","equaldotsize","randomdotsizeEA","equaldotanddens","equaldotsize","equaldotsize","equaldotanddens","randomdotsizeEA","equaldotanddens","equaldotanddens","randomdotsizeEA","equaldotsize","equaldotsize","equaldotsize","equaldotsize","randomdotsizeEA","randomdotsizeEA","equaldotanddens","equaldotanddens","randomdotsizeEA","equaldotanddens","equaldotanddens","equaldotsize","equaldotanddens","randomdotsizeEA","randomdotsizeEA","equaldotanddens","equaldotanddens","randomdotsizeEA","randomdotsizeEA","equaldotanddens","randomdotsizeEA","equaldotanddens","randomdotsizeEA","randomdotsizeEA","randomdotsizeEA","equaldotsize","equaldotsize","randomdotsizeEA","equaldotsize","randomdotsizeEA","equaldotsize","equaldotanddens","randomdotsizeEA","equaldotsize","randomdotsizeEA","equaldotanddens","equaldotanddens","equaldotsize","equaldotsize","equaldotanddens","equaldotanddens","equaldotanddens","randomdotsizeEA","equaldotanddens","equaldotsize","equaldotanddens","randomdotsizeEA","equaldotanddens","equaldotsize","equaldotsize","equaldotsize","equaldotsize","randomdotsizeEA","equaldotanddens","randomdotsizeEA","equaldotsize","equaldotsize","equaldotanddens","equaldotanddens","equaldotanddens","equaldotsize","randomdotsizeEA","randomdotsizeEA","equaldotsize","equaldotsize","randomdotsizeEA","equaldotsize","equaldotsize","randomdotsizeEA","randomdotsizeEA","randomdotsizeEA","equaldotsize","randomdotsizeEA","equaldotsize","equaldotanddens","equaldotsize","equaldotsize","randomdotsizeEA","randomdotsizeEA","equaldotsize","equaldotanddens","equaldotanddens","equaldotsize","equaldotsize","equaldotanddens","equaldotanddens","equaldotanddens","equaldotsize","equaldotsize","equaldotsize","equaldotanddens","randomdotsizeEA","randomdotsizeEA","randomdotsizeEA","equaldotanddens","randomdotsizeEA","equaldotanddens","randomdotsizeEA","equaldotanddens","equaldotanddens"],"ratio_trial":[500,500,250,900,750,900,250,750,250,750,500,900,250,900,750,750,250,500,250,500,900,250,900,250,250,750,500,500,500,900,500,250,750,500,750,900,900,900,750,750,900,750,500,750,250,900,750,750,750,500,900,250,900,250,250,900,500,900,500,750,500,500,250,900,750,900,750,900,500,500,250,750,900,750,250,900,750,250,250,900,250,250,900,900,900,500,500,750,750,900,750,500,500,750,250,500,750,500,750,250,250,750,750,900,250,750,500,500,500,250,900,900,250,250,500,500,250,500,250,900],"smaller_num":["1","9","1","18","15","18","5","15","3","3","2","18","2","18","3","15","1","3","1","6","18","4","9","6","2","3","10","6","2","18","5","5","3","2","3","18","18","9","6","18","18","6","5","6","3","18","15","15","6","6","9","2","18","3","3","9","2","18","1","15","9","1","3","9","6","18","6","9","5","9","3","3","9","3","3","18","18","2","2","18","6","2","9","18","18","6","1","15","3","18","15","3","1","12","6","9","3","9","6","6","3","15","15","18","3","12","6","1","4","3","18","18","2","6","2","2","2","3","2","18"],"larger_num":["2","18","4","20","20","20","20","20","12","4","4","20","8","20","4","20","4","6","4","12","20","16","10","24","8","4","20","12","4","20","10","20","4","4","4","20","20","10","8","24","20","8","10","8","12","20","20","20","8","12","10","8","20","12","12","10","4","20","2","20","18","2","12","10","8","20","8","10","10","18","12","4","10","4","12","20","24","8","8","20","24","8","10","20","20","12","2","20","4","20","20","6","2","16","24","18","4","18","8","24","12","20","20","20","12","16","12","2","8","12","20","20","8","24","4","4","8","6","8","20"],"correct_side":[2,2,2,1,2,1,2,1,2,1,1,1,1,1,1,2,2,2,2,1,1,2,2,1,2,1,2,1,1,2,1,2,1,1,1,1,1,2,1,1,2,1,1,1,1,2,1,1,1,1,2,1,2,1,2,1,1,1,2,2,2,2,1,2,2,2,2,1,1,1,2,1,2,2,2,1,1,1,2,2,2,1,1,2,2,1,2,2,1,1,2,2,2,2,2,1,2,2,1,2,2,1,1,2,2,2,1,2,1,1,1,1,2,1,1,1,1,2,1,2],"img_shown":["img/500/equaldotsize/R/15_Ratio_500_L_1_R_2.png","img/500/equaldotanddens/R/6_Ratio_500_L_9_R_18.png","img/250/equaldotsize/R/8_Ratio_250_L_1_R_4.png","img/900/randomdotsizeEA/L/4_Ratio_900_L_20_R_18.png","img/750/randomdotsizeEA/R/4_Ratio_750_L_15_R_20.png","img/900/randomdotsizeEA/L/2_Ratio_900_L_20_R_18.png","img/250/equaldotsize/R/12_Ratio_250_L_5_R_20.png","img/750/equaldotanddens/L/1_Ratio_750_L_20_R_15.png","img/250/randomdotsizeEA/R/11_Ratio_250_L_3_R_12.png","img/750/equaldotanddens/L/9_Ratio_750_L_4_R_3.png","img/500/equaldotsize/L/5_Ratio_500_L_4_R_2.png","img/900/randomdotsizeEA/L/2_Ratio_900_L_20_R_18.png","img/250/equaldotanddens/L/7_Ratio_250_L_8_R_2.png","img/900/equaldotsize/L/2_Ratio_900_L_20_R_18.png","img/750/equaldotsize/L/10_Ratio_750_L_4_R_3.png","img/750/equaldotanddens/R/3_Ratio_750_L_15_R_20.png","img/250/randomdotsizeEA/R/8_Ratio_250_L_1_R_4.png","img/500/equaldotanddens/R/2_Ratio_500_L_3_R_6.png","img/250/equaldotanddens/R/8_Ratio_250_L_1_R_4.png","img/500/randomdotsizeEA/L/11_Ratio_500_L_12_R_6.png","img/900/equaldotsize/L/4_Ratio_900_L_20_R_18.png","img/250/equaldotsize/R/10_Ratio_250_L_4_R_16.png","img/900/equaldotsize/R/6_Ratio_900_L_9_R_10.png","img/250/equaldotsize/L/5_Ratio_250_L_24_R_6.png","img/250/randomdotsizeEA/R/13_Ratio_250_L_2_R_8.png","img/750/randomdotsizeEA/L/10_Ratio_750_L_4_R_3.png","img/500/equaldotanddens/R/3_Ratio_500_L_10_R_20.png","img/500/equaldotanddens/L/13_Ratio_500_L_12_R_6.png","img/500/randomdotsizeEA/L/10_Ratio_500_L_4_R_2.png","img/900/equaldotanddens/R/9_Ratio_900_L_18_R_20.png","img/500/equaldotanddens/L/7_Ratio_500_L_10_R_5.png","img/250/equaldotsize/R/12_Ratio_250_L_5_R_20.png","img/750/equaldotanddens/L/9_Ratio_750_L_4_R_3.png","img/500/randomdotsizeEA/L/10_Ratio_500_L_4_R_2.png","img/750/randomdotsizeEA/L/8_Ratio_750_L_4_R_3.png","img/900/equaldotanddens/L/4_Ratio_900_L_20_R_18.png","img/900/equaldotanddens/L/4_Ratio_900_L_20_R_18.png","img/900/randomdotsizeEA/R/7_Ratio_900_L_9_R_10.png","img/750/randomdotsizeEA/L/13_Ratio_750_L_8_R_6.png","img/750/equaldotanddens/L/6_Ratio_750_L_24_R_18.png","img/900/randomdotsizeEA/R/11_Ratio_900_L_18_R_20.png","img/750/equaldotanddens/L/13_Ratio_750_L_8_R_6.png","img/500/randomdotsizeEA/L/7_Ratio_500_L_10_R_5.png","img/750/randomdotsizeEA/L/14_Ratio_750_L_8_R_6.png","img/250/randomdotsizeEA/L/14_Ratio_250_L_12_R_3.png","img/900/equaldotsize/R/14_Ratio_900_L_18_R_20.png","img/750/equaldotsize/L/1_Ratio_750_L_20_R_15.png","img/750/randomdotsizeEA/L/1_Ratio_750_L_20_R_15.png","img/750/equaldotsize/L/13_Ratio_750_L_8_R_6.png","img/500/randomdotsizeEA/L/11_Ratio_500_L_12_R_6.png","img/900/equaldotsize/R/7_Ratio_900_L_9_R_10.png","img/250/equaldotanddens/L/1_Ratio_250_L_8_R_2.png","img/900/randomdotsizeEA/R/11_Ratio_900_L_18_R_20.png","img/250/equaldotsize/L/15_Ratio_250_L_12_R_3.png","img/250/randomdotsizeEA/R/4_Ratio_250_L_3_R_12.png","img/900/equaldotanddens/L/1_Ratio_900_L_10_R_9.png","img/500/equaldotanddens/L/10_Ratio_500_L_4_R_2.png","img/900/equaldotsize/L/4_Ratio_900_L_20_R_18.png","img/500/equaldotsize/R/12_Ratio_500_L_1_R_2.png","img/750/equaldotanddens/R/3_Ratio_750_L_15_R_20.png","img/500/equaldotanddens/R/1_Ratio_500_L_9_R_18.png","img/500/equaldotanddens/R/12_Ratio_500_L_1_R_2.png","img/250/randomdotsizeEA/L/15_Ratio_250_L_12_R_3.png","img/900/equaldotanddens/R/5_Ratio_900_L_9_R_10.png","img/750/equaldotsize/R/2_Ratio_750_L_6_R_8.png","img/900/equaldotanddens/R/13_Ratio_900_L_18_R_20.png","img/750/randomdotsizeEA/R/2_Ratio_750_L_6_R_8.png","img/900/equaldotanddens/L/1_Ratio_900_L_10_R_9.png","img/500/equaldotsize/L/7_Ratio_500_L_10_R_5.png","img/500/equaldotsize/L/4_Ratio_500_L_18_R_9.png","img/250/equaldotsize/R/9_Ratio_250_L_3_R_12.png","img/750/equaldotsize/L/9_Ratio_750_L_4_R_3.png","img/900/randomdotsizeEA/R/6_Ratio_900_L_9_R_10.png","img/750/equaldotanddens/R/12_Ratio_750_L_3_R_4.png","img/250/randomdotsizeEA/R/11_Ratio_250_L_3_R_12.png","img/900/equaldotsize/L/10_Ratio_900_L_20_R_18.png","img/750/equaldotsize/L/6_Ratio_750_L_24_R_18.png","img/250/equaldotanddens/L/1_Ratio_250_L_8_R_2.png","img/250/equaldotanddens/R/13_Ratio_250_L_2_R_8.png","img/900/equaldotanddens/R/14_Ratio_900_L_18_R_20.png","img/250/equaldotsize/R/6_Ratio_250_L_6_R_24.png","img/250/randomdotsizeEA/L/3_Ratio_250_L_8_R_2.png","img/900/randomdotsizeEA/L/1_Ratio_900_L_10_R_9.png","img/900/equaldotsize/R/9_Ratio_900_L_18_R_20.png","img/900/equaldotsize/R/11_Ratio_900_L_18_R_20.png","img/500/randomdotsizeEA/L/13_Ratio_500_L_12_R_6.png","img/500/equaldotsize/R/15_Ratio_500_L_1_R_2.png","img/750/equaldotsize/R/4_Ratio_750_L_15_R_20.png","img/750/randomdotsizeEA/L/10_Ratio_750_L_4_R_3.png","img/900/randomdotsizeEA/L/4_Ratio_900_L_20_R_18.png","img/750/randomdotsizeEA/R/5_Ratio_750_L_15_R_20.png","img/500/equaldotsize/R/2_Ratio_500_L_3_R_6.png","img/500/randomdotsizeEA/R/15_Ratio_500_L_1_R_2.png","img/750/equaldotsize/R/11_Ratio_750_L_12_R_16.png","img/250/equaldotanddens/R/6_Ratio_250_L_6_R_24.png","img/500/equaldotsize/L/4_Ratio_500_L_18_R_9.png","img/750/equaldotsize/R/7_Ratio_750_L_3_R_4.png","img/500/randomdotsizeEA/R/6_Ratio_500_L_9_R_18.png","img/750/randomdotsizeEA/L/14_Ratio_750_L_8_R_6.png","img/250/equaldotsize/R/6_Ratio_250_L_6_R_24.png","img/250/equaldotanddens/R/11_Ratio_250_L_3_R_12.png","img/750/equaldotanddens/L/1_Ratio_750_L_20_R_15.png","img/750/equaldotsize/L/1_Ratio_750_L_20_R_15.png","img/900/equaldotsize/R/11_Ratio_900_L_18_R_20.png","img/250/equaldotanddens/R/4_Ratio_250_L_3_R_12.png","img/750/equaldotanddens/R/11_Ratio_750_L_12_R_16.png","img/500/equaldotanddens/L/11_Ratio_500_L_12_R_6.png","img/500/equaldotsize/R/12_Ratio_500_L_1_R_2.png","img/500/equaldotsize/L/8_Ratio_500_L_8_R_4.png","img/250/equaldotsize/L/14_Ratio_250_L_12_R_3.png","img/900/equaldotanddens/L/10_Ratio_900_L_20_R_18.png","img/900/randomdotsizeEA/L/2_Ratio_900_L_20_R_18.png","img/250/randomdotsizeEA/R/13_Ratio_250_L_2_R_8.png","img/250/randomdotsizeEA/L/5_Ratio_250_L_24_R_6.png","img/500/equaldotanddens/L/5_Ratio_500_L_4_R_2.png","img/500/randomdotsizeEA/L/5_Ratio_500_L_4_R_2.png","img/250/equaldotanddens/L/1_Ratio_250_L_8_R_2.png","img/500/randomdotsizeEA/R/2_Ratio_500_L_3_R_6.png","img/250/equaldotanddens/L/1_Ratio_250_L_8_R_2.png","img/900/equaldotanddens/R/9_Ratio_900_L_18_R_20.png"],"Rat0":[["12_Ratio_0_L_9_R_0.png","13_Ratio_0_L_6_R_0.png","5_Ratio_0_L_2_R_0.png","6_Ratio_0_L_4_R_0.png","8_Ratio_0_L_6_R_0.png"],["1_Ratio_0_L_0_R_17.png","10_Ratio_0_L_0_R_22.png","11_Ratio_0_L_0_R_1.png","14_Ratio_0_L_0_R_24.png","15_Ratio_0_L_0_R_4.png","2_Ratio_0_L_0_R_5.png","3_Ratio_0_L_0_R_17.png","4_Ratio_0_L_0_R_7.png","7_Ratio_0_L_0_R_19.png","9_Ratio_0_L_0_R_15.png"]],"Rat250":[["1_Ratio_250_L_8_R_2.png","14_Ratio_250_L_12_R_3.png","15_Ratio_250_L_12_R_3.png","2_Ratio_250_L_16_R_4.png","3_Ratio_250_L_8_R_2.png","5_Ratio_250_L_24_R_6.png","7_Ratio_250_L_8_R_2.png"],["10_Ratio_250_L_4_R_16.png","11_Ratio_250_L_3_R_12.png","12_Ratio_250_L_5_R_20.png","13_Ratio_250_L_2_R_8.png","4_Ratio_250_L_3_R_12.png","6_Ratio_250_L_6_R_24.png","8_Ratio_250_L_1_R_4.png","9_Ratio_250_L_3_R_12.png"]],"Rat500":[["10_Ratio_500_L_4_R_2.png","11_Ratio_500_L_12_R_6.png","13_Ratio_500_L_12_R_6.png","4_Ratio_500_L_18_R_9.png","5_Ratio_500_L_4_R_2.png","7_Ratio_500_L_10_R_5.png","8_Ratio_500_L_8_R_4.png"],["1_Ratio_500_L_9_R_18.png","12_Ratio_500_L_1_R_2.png","14_Ratio_500_L_5_R_10.png","15_Ratio_500_L_1_R_2.png","2_Ratio_500_L_3_R_6.png","3_Ratio_500_L_10_R_20.png","6_Ratio_500_L_9_R_18.png","9_Ratio_500_L_2_R_4.png"]],"Rat750":[["1_Ratio_750_L_20_R_15.png","10_Ratio_750_L_4_R_3.png","13_Ratio_750_L_8_R_6.png","14_Ratio_750_L_8_R_6.png","6_Ratio_750_L_24_R_18.png","8_Ratio_750_L_4_R_3.png","9_Ratio_750_L_4_R_3.png"],["11_Ratio_750_L_12_R_16.png","12_Ratio_750_L_3_R_4.png","15_Ratio_750_L_9_R_12.png","2_Ratio_750_L_6_R_8.png","3_Ratio_750_L_15_R_20.png","4_Ratio_750_L_15_R_20.png","5_Ratio_750_L_15_R_20.png","7_Ratio_750_L_3_R_4.png"]],"Rat900":[["1_Ratio_900_L_10_R_9.png","10_Ratio_900_L_20_R_18.png","2_Ratio_900_L_20_R_18.png","4_Ratio_900_L_20_R_18.png","8_Ratio_900_L_20_R_18.png"],["11_Ratio_900_L_18_R_20.png","12_Ratio_900_L_18_R_20.png","13_Ratio_900_L_18_R_20.png","14_Ratio_900_L_18_R_20.png","15_Ratio_900_L_9_R_10.png","3_Ratio_900_L_9_R_10.png","5_Ratio_900_L_9_R_10.png","6_Ratio_900_L_9_R_10.png","7_Ratio_900_L_9_R_10.png","9_Ratio_900_L_18_R_20.png"]],"Rat1000":[["10_Ratio_1000_L_16_R_16.png","11_Ratio_1000_L_6_R_6.png","12_Ratio_1000_L_14_R_14.png","13_Ratio_1000_L_20_R_20.png","15_Ratio_1000_L_15_R_15.png","2_Ratio_1000_L_17_R_17.png","4_Ratio_1000_L_9_R_9.png","5_Ratio_1000_L_6_R_6.png","6_Ratio_1000_L_19_R_19.png","8_Ratio_1000_L_14_R_14.png","9_Ratio_1000_L_25_R_25.png"],["1_Ratio_1000_L_1_R_1.png","14_Ratio_1000_L_17_R_17.png","3_Ratio_1000_L_17_R_17.png","7_Ratio_1000_L_6_R_6.png"]]}},{"start_time":1552055850735,"click_time":1552055852440,"finger_time":1552055851778,"fix_duration":1434.7077804440391,"trial":1,"RT":1043,"MT":662,"sideResp":2,"stimulus":"img/500/equaldotanddens/R/6_Ratio_500_L_9_R_18.png","xmouse":[780,780,780,780,780,780,780,780,780,780,780,780,780,780,780,780,780,780,780,780,780,780,780,780,780,780,780,780,780,780,780,780,780,780,780,780,780,780,780,780,780,780,780,780,780,780,780,780,780,795,806,826,849,863,878,880,880,880,880,880,880,882,888,901,962,1004,1039,1061,1075,1080,1080,1080,1080,1080,1080,1080,1080,1084,1088,1091,1093,1095,1096,1092,1075],"ymouse":[612,612,612,612,612,612,612,612,612,612,612,612,612,612,612,612,612,612,612,612,612,612,612,612,612,612,612,612,612,612,612,612,612,612,612,612,612,612,612,612,612,612,612,612,612,612,612,612,611,594,577,537,476,427,374,357,352,352,352,352,352,350,343,328,265,221,192,178,170,167,167,167,167,167,167,166,163,157,152,145,139,130,117,100,67],"timestamp_mouse":[11,44,63,84,104,125,145,164,185,205,223,244,265,284,305,324,344,363,384,404,425,444,465,484,503,525,544,565,584,603,625,644,664,685,705,725,744,765,783,805,824,845,865,883,903,923,944,963,985,1003,1024,1043,1064,1084,1104,1124,1143,1164,1185,1205,1224,1243,1264,1284,1305,1325,1343,1364,1384,1404,1425,1444,1463,1485,1505,1523,1543,1563,1584,1604,1624,1643,1664,1684,1704],"xSR":741.5,"ySR":573.95,"xT1":424.9,"yT1":0,"xT2":1058.1,"yT2":0,"toosoon":0,"cond_shown":"equaldotanddens","ratio_trial":500,"smaller_num":"9","larger_num":"18","correct_side":2,"subjID":"laurasofiasanchez","gender":"1","age":"9","school":"4"},{"start_time":1552055854125,"click_time":1552055856739,"finger_time":1552055855658,"fix_duration":763.347568882721,"trial":2,"RT":1533,"MT":1081,"sideResp":1,"stimulus":"img/250/equaldotsize/R/8_Ratio_250_L_1_R_4.png","xmouse":[784,784,784,784,784,785,785,785,785,785,785,785,785,785,785,785,785,785,785,785,785,785,785,785,785,785,785,785,785,785,785,785,785,785,785,785,785,785,785,785,785,785,785,785,785,785,785,785,785,785,785,785,785,785,785,785,785,785,785,785,785,785,785,785,785,785,785,785,785,785,785,785,785,785,785,771,728,676,615,571,545,543,543,543,543,543,543,543,543,543,543,535,530,527,527,527,527,527,527,527,527,527,526,524,524,521,519,519,519,518,518,518,518,518,518,518,518,518,518,518,518,518,518,518,518,518,518,518,518,518,519],"ymouse":[660,660,660,660,660,660,660,660,660,660,660,660,660,660,660,660,660,660,660,660,660,660,660,660,660,660,660,660,660,660,660,660,660,660,660,660,660,660,660,660,660,660,660,660,660,660,660,660,660,660,660,660,660,660,660,660,660,660,660,660,660,660,660,660,660,660,660,660,660,660,660,660,660,660,660,633,570,508,426,354,286,262,261,261,261,261,260,260,256,252,232,190,174,163,161,161,161,161,161,159,159,148,141,133,126,120,111,109,108,107,107,107,107,107,106,105,105,105,105,105,104,104,104,104,104,104,104,104,102,101,97],"timestamp_mouse":[14,34,55,74,93,114,134,155,174,194,214,234,255,275,294,315,335,355,375,395,414,435,454,475,495,515,533,555,575,595,615,635,654,674,694,714,734,755,775,795,815,834,854,875,895,913,933,953,975,994,1014,1034,1054,1075,1094,1115,1134,1155,1174,1195,1215,1234,1254,1274,1294,1315,1335,1353,1375,1394,1415,1434,1454,1475,1493,1514,1533,1555,1574,1593,1615,1633,1654,1674,1694,1715,1734,1754,1773,1794,1814,1835,1854,1875,1894,1915,1935,1955,1973,1995,2014,2035,2054,2075,2094,2114,2133,2154,2173,2194,2214,2233,2254,2274,2294,2313,2334,2354,2374,2394,2415,2434,2455,2475,2494,2514,2534,2554,2574,2594,2614],"xSR":741.5,"ySR":573.95,"xT1":424.9,"yT1":0,"xT2":1058.1,"yT2":0,"toosoon":0,"cond_shown":"equaldotsize","ratio_trial":250,"smaller_num":"1","larger_num":"4","correct_side":2,"subjID":"laurasofiasanchez","gender":"1","age":"9","school":"4"},{"start_time":1552055859076,"click_time":1552055860081,"finger_time":1552055859958,"fix_duration":515.5801410209383,"trial":3,"RT":882,"MT":123,"sideResp":2,"stimulus":"img/900/randomdotsizeEA/L/4_Ratio_900_L_20_R_18.png","xmouse":[775,775,775,775,775,775,775,775,775,775,775,775,775,775,775,775,775,775,775,775,775,775,775,775,775,775,775,775,775,775,775,775,775,775,775,775,775,775,775,775,775,775,778,797,853,881,900,912,945,1065,1117],"ymouse":[622,622,622,622,622,622,622,622,622,622,622,622,622,622,622,622,622,622,622,622,622,622,622,622,622,622,622,622,622,622,622,622,622,622,622,622,622,622,622,622,622,622,610,574,460,392,344,308,250,119,82],"timestamp_mouse":[11,31,43,64,84,104,123,142,164,183,202,223,244,264,284,304,324,344,363,383,402,422,444,464,484,503,524,544,564,583,603,623,642,664,683,704,723,742,762,784,803,822,844,862,882,903,923,943,963,983,1004],"xSR":741.5,"ySR":573.95,"xT1":424.9,"yT1":0,"xT2":1058.1,"yT2":0,"toosoon":0,"cond_shown":"randomdotsizeEA","ratio_trial":900,"smaller_num":"18","larger_num":"20","correct_side":1,"subjID":"laurasofiasanchez","gender":"1","age":"9","school":"4"},{"start_time":1552055861492,"click_time":1552055863240,"finger_time":1552055862280,"fix_duration":250,"trial":4,"RT":788,"MT":960,"sideResp":1,"stimulus":"img/750/randomdotsizeEA/R/4_Ratio_750_L_15_R_20.png","xmouse":[785,785,785,785,785,785,785,785,785,785,785,785,785,785,785,785,785,785,785,785,785,785,785,785,785,785,785,785,785,785,785,785,785,785,785,785,785,783,780,743,731,723,718,716,714,709,697,677,655,625,617,611,608,599,597,595,593,590,581,572,568,566,562,556,553,550,547,543,539,527,526,525,524,523,523,523,523,523,523,523,522,521,521,518,515,512,509,507],"ymouse":[627,627,627,627,627,627,627,627,627,627,627,627,627,627,627,627,627,627,627,627,627,627,627,627,627,627,627,627,627,627,627,627,627,627,627,627,627,626,619,541,520,506,495,490,485,474,455,425,390,328,311,298,290,277,271,266,261,257,239,223,215,210,202,189,180,173,167,158,149,129,127,126,124,122,122,122,121,121,121,121,120,119,118,113,109,105,101,99],"timestamp_mouse":[11,30,47,67,88,108,128,149,167,188,207,227,247,267,288,306,327,347,368,388,407,427,447,468,487,507,527,548,567,587,607,628,648,668,688,707,726,747,767,788,807,828,846,867,886,908,927,948,966,987,1007,1028,1047,1067,1086,1108,1127,1147,1167,1186,1207,1227,1247,1267,1286,1308,1327,1348,1367,1388,1407,1427,1446,1467,1488,1508,1527,1547,1568,1587,1606,1627,1648,1667,1686,1707,1727,1748],"xSR":741.5,"ySR":573.95,"xT1":424.9,"yT1":0,"xT2":1058.1,"yT2":0,"toosoon":0,"cond_shown":"randomdotsizeEA","ratio_trial":750,"smaller_num":"15","larger_num":"20","correct_side":2,"subjID":"laurasofiasanchez","gender":"1","age":"9","school":"4"},{"start_time":1552055867871,"click_time":1552055870979,"finger_time":1552055868739,"fix_duration":1490.9183471256745,"trial":5,"RT":868,"MT":2240,"sideResp":2,"stimulus":"img/900/randomdotsizeEA/L/2_Ratio_900_L_20_R_18.png","xmouse":[824,824,824,824,824,824,824,824,824,824,823,823,823,822,822,822,822,821,821,821,821,821,821,821,821,821,821,821,821,821,821,821,821,821,821,821,821,821,821,821,821,821,822,827,836,838,839,840,840,841,841,842,845,848,853,859,865,881,896,911,948,967,987,1010,1030,1056,1064,1070,1070,1071,1072,1074,1076,1079,1087,1089,1090,1090,1092,1093,1095,1095,1095,1095,1095,1095,1095,1095,1095,1095,1095,1095,1095,1093,1092,1091,1091,1091,1091,1091,1090,1090,1090,1090,1090,1090,1090,1090,1090,1090,1089,1089,1089,1089,1089,1089,1089,1089,1089,1089,1089,1089,1089,1089,1089,1089,1088,1088,1088,1088,1088,1088,1088,1088,1088,1088,1088,1088,1088,1088,1088,1088,1088,1088,1088,1088,1088,1088,1088,1088,1088,1088,1088,1088,1088,1088],"ymouse":[645,645,645,645,645,645,645,645,645,645,643,643,643,643,642,642,642,642,642,642,642,642,642,642,642,642,642,642,642,642,642,642,642,642,642,642,642,642,642,641,630,614,592,566,532,524,520,518,517,517,517,515,511,506,501,492,483,461,441,421,371,345,322,297,273,238,226,218,216,215,214,211,206,199,186,182,180,179,174,170,160,155,154,153,153,153,151,150,147,144,138,134,130,125,121,117,117,117,117,117,116,116,116,116,116,116,115,113,112,111,106,106,106,106,106,106,106,106,106,106,106,105,105,105,105,103,103,102,102,102,102,102,102,102,102,102,102,102,102,102,102,102,102,102,102,102,102,102,102,102,102,102,102,101,101,99],"timestamp_mouse":[18,39,49,67,88,108,129,149,169,189,208,227,248,267,289,309,328,348,369,389,408,428,448,468,489,508,529,548,568,589,609,628,648,668,688,709,728,749,768,787,809,827,849,868,889,908,928,947,968,988,1009,1027,1048,1068,1088,1107,1128,1148,1169,1188,1208,1228,1248,1268,1288,1308,1328,1348,1368,1387,1408,1429,1449,1468,1489,1508,1528,1547,1569,1588,1609,1628,1648,1669,1687,1707,1728,1748,1768,1788,1809,1827,1848,1868,1888,1909,1929,1948,1969,1987,2008,2027,2049,2069,2089,2108,2128,2148,2168,2187,2208,2228,2249,2268,2288,2309,2328,2348,2368,2387,2408,2429,2449,2469,2489,2508,2528,2549,2568,2589,2609,2629,2647,2669,2688,2709,2729,2748,2768,2788,2807,2828,2848,2869,2888,2907,2927,2948,2969,2988,3008,3028,3048,3068,3088,3108],"xSR":741.5,"ySR":573.95,"xT1":424.9,"yT1":0,"xT2":1058.1,"yT2":0,"toosoon":0,"cond_shown":"randomdotsizeEA","ratio_trial":900,"smaller_num":"18","larger_num":"20","correct_side":1,"subjID":"laurasofiasanchez","gender":"1","age":"9","school":"4"},{"start_time":1552055873741,"click_time":1552055875680,"finger_time":1552055874560,"fix_duration":819.5366586175626,"trial":6,"RT":819,"MT":1120,"sideResp":2,"stimulus":"img/250/equaldotsize/R/12_Ratio_250_L_5_R_20.png","xmouse":[783,783,783,783,783,783,783,783,783,783,783,783,783,783,783,783,783,783,783,783,783,783,783,783,783,783,783,783,783,783,783,783,783,783,783,783,784,784,785,785,785,777,774,773,773,772,772,772,772,772,772,796,842,909,980,1028,1091,1114,1131,1140,1143,1148,1150,1155,1164,1173,1187,1191,1192,1193,1193,1181,1173,1168,1163,1158,1150,1148,1146,1145,1144,1141,1139,1139,1137,1135,1134,1133,1132,1132,1131,1130,1128,1126,1124,1120,1119],"ymouse":[613,613,613,613,613,613,613,613,613,613,613,613,613,613,613,613,613,613,613,613,613,613,613,613,613,613,613,613,613,613,613,613,613,613,613,613,613,610,602,587,568,535,521,516,515,514,514,514,514,514,513,508,498,481,460,441,394,373,354,337,330,320,314,304,290,275,249,239,233,225,217,178,164,156,149,142,131,129,127,126,125,122,121,120,120,118,117,115,114,114,112,112,109,106,104,100,99],"timestamp_mouse":[19,38,58,77,99,119,138,159,178,199,219,238,259,278,297,318,338,358,377,399,419,438,458,478,499,519,537,559,579,598,618,638,659,679,699,718,738,757,778,798,819,838,857,879,898,919,938,957,979,999,1018,1038,1059,1078,1098,1118,1138,1157,1178,1198,1218,1238,1258,1278,1298,1318,1338,1357,1379,1397,1418,1438,1458,1478,1499,1518,1538,1557,1578,1599,1618,1638,1658,1678,1699,1718,1738,1758,1779,1799,1817,1838,1859,1878,1898,1917,1939],"xSR":741.5,"ySR":573.95,"xT1":424.9,"yT1":0,"xT2":1058.1,"yT2":0,"toosoon":0,"cond_shown":"equaldotsize","ratio_trial":250,"smaller_num":"5","larger_num":"20","correct_side":2,"subjID":"laurasofiasanchez","gender":"1","age":"9","school":"4"},{"start_time":1552055877092,"click_time":1552055878040,"finger_time":1552055877839,"fix_duration":250,"trial":7,"RT":747,"MT":201,"sideResp":1,"stimulus":"img/750/equaldotanddens/L/1_Ratio_750_L_20_R_15.png","xmouse":[784,784,784,784,786,787,787,787,787,787,788,788,788,788,788,788,789,789,789,789,789,789,789,789,789,789,789,789,789,789,790,792,793,793,793,783,776,757,735,702,625,592,572,548,533,503,489,474],"ymouse":[658,658,658,658,658,658,658,658,658,658,658,658,658,658,658,658,658,658,658,658,658,658,658,658,658,658,658,658,658,658,657,655,648,641,632,601,577,535,472,399,261,210,181,159,146,117,103,88],"timestamp_mouse":[11,35,47,68,88,106,127,147,167,188,208,228,248,268,288,308,328,346,368,388,408,426,448,466,488,508,527,548,568,587,607,627,647,667,687,707,727,747,767,788,807,827,847,867,887,906,927,948],"xSR":741.5,"ySR":573.95,"xT1":424.9,"yT1":0,"xT2":1058.1,"yT2":0,"toosoon":0,"cond_shown":"equaldotanddens","ratio_trial":750,"smaller_num":"15","larger_num":"20","correct_side":1,"subjID":"laurasofiasanchez","gender":"1","age":"9","school":"4"},{"start_time":1552055879251,"click_time":1552055881119,"finger_time":1552055880520,"fix_duration":250,"trial":8,"RT":1269,"MT":599,"sideResp":2,"stimulus":"img/250/randomdotsizeEA/R/11_Ratio_250_L_3_R_12.png","xmouse":[816,816,816,816,816,816,816,816,816,816,816,816,816,816,816,816,816,816,816,816,816,816,816,816,816,816,816,816,816,816,816,816,816,816,816,816,816,816,815,813,810,810,810,810,810,810,810,810,810,810,810,810,810,810,810,810,810,810,810,810,810,810,819,842,864,885,909,932,999,1025,1039,1052,1058,1064,1065,1065,1065,1065,1065,1065,1065,1064,1064,1064,1064,1064,1064,1065,1067,1067,1067,1067,1067,1067],"ymouse":[644,644,644,644,644,644,644,644,644,644,644,644,644,644,644,644,644,644,644,644,644,644,644,644,644,644,644,644,644,644,644,644,644,644,644,644,644,644,639,634,628,627,627,627,627,627,627,627,627,627,627,627,627,627,627,627,627,627,627,627,627,624,615,591,561,531,498,467,375,339,315,294,282,264,261,260,259,254,248,244,240,231,223,189,172,156,141,130,121,117,114,107,104,98],"timestamp_mouse":[10,28,49,68,88,109,128,148,169,187,209,228,248,269,289,308,328,349,367,389,409,429,449,469,488,509,528,548,568,588,607,629,648,667,688,708,729,749,767,788,808,827,849,869,888,908,927,949,969,987,1009,1028,1049,1069,1087,1109,1128,1148,1169,1189,1208,1229,1248,1269,1288,1309,1329,1348,1369,1388,1408,1428,1448,1469,1488,1509,1528,1549,1568,1588,1608,1628,1648,1668,1688,1707,1728,1748,1767,1788,1808,1828,1848,1868],"xSR":741.5,"ySR":573.95,"xT1":424.9,"yT1":0,"xT2":1058.1,"yT2":0,"toosoon":0,"cond_shown":"randomdotsizeEA","ratio_trial":250,"smaller_num":"3","larger_num":"12","correct_side":2,"subjID":"laurasofiasanchez","gender":"1","age":"9","school":"4"},{"start_time":1552055883244,"click_time":1552055885579,"finger_time":1552055884638,"fix_duration":783.1455824120795,"trial":9,"RT":1394,"MT":941,"sideResp":1,"stimulus":"img/750/equaldotanddens/L/9_Ratio_750_L_4_R_3.png","xmouse":[770,770,770,770,770,770,770,770,770,770,770,770,770,770,770,770,770,770,770,770,770,770,770,770,770,770,770,770,770,770,770,770,770,770,770,770,770,770,770,770,770,770,770,770,770,770,768,766,754,751,750,750,750,750,750,750,750,749,749,749,749,749,749,749,749,749,749,748,762,790,800,802,802,802,802,802,802,802,802,802,802,802,802,802,802,802,804,817,880,913,937,953,962,969,970,972,972,972,972,972,972,972,972,972,972,972,972,972,967,966,961,943,910,777,679,571,479],"ymouse":[615,615,615,615,615,615,615,615,615,615,615,615,615,615,615,615,615,615,615,615,615,615,615,615,615,615,615,615,615,615,615,615,615,615,615,615,615,615,615,615,615,615,615,615,615,615,615,614,602,599,598,598,597,597,597,597,597,597,597,597,597,597,597,597,597,597,597,596,582,559,549,547,546,546,546,546,546,546,546,546,546,546,546,546,546,546,545,522,404,345,309,288,275,262,258,254,251,248,247,245,245,244,226,198,139,114,96,81,70,69,69,71,72,72,72,72,72],"timestamp_mouse":[15,37,55,76,95,115,136,156,175,196,216,236,256,275,295,316,335,355,374,395,415,436,455,475,495,515,535,555,576,595,616,635,655,676,695,716,734,754,776,796,815,836,856,875,895,915,935,956,975,995,1015,1035,1055,1074,1096,1116,1135,1156,1176,1194,1216,1236,1255,1276,1296,1316,1335,1355,1375,1394,1415,1436,1455,1475,1496,1515,1535,1554,1576,1595,1615,1636,1655,1675,1696,1715,1734,1755,1775,1794,1815,1835,1855,1875,1894,1915,1935,1954,1975,1995,2015,2036,2054,2075,2095,2115,2135,2156,2175,2195,2215,2236,2255,2275,2294,2315,2335],"xSR":741.5,"ySR":573.95,"xT1":424.9,"yT1":0,"xT2":1058.1,"yT2":0,"toosoon":0,"cond_shown":"equaldotanddens","ratio_trial":750,"smaller_num":"3","larger_num":"4","correct_side":1,"subjID":"laurasofiasanchez","gender":"1","age":"9","school":"4"},{"start_time":1552055889510,"click_time":1552055894420,"finger_time":1552055893800,"fix_duration":369.0284010337371,"trial":10,"RT":4290,"MT":620,"sideResp":2,"stimulus":"img/500/equaldotsize/L/5_Ratio_500_L_4_R_2.png","xmouse":[795,795,795,795,795,795,795,795,795,795,795,795,795,795,795,795,795,795,795,795,795,795,795,795,795,795,795,795,795,795,795,795,795,795,795,795,795,795,795,795,795,795,795,795,795,795,795,795,795,795,795,795,795,795,795,795,795,795,795,795,795,795,795,795,795,795,795,795,795,795,795,795,795,795,795,795,795,795,795,795,795,795,795,795,795,795,795,795,795,795,795,795,795,795,795,795,795,795,795,795,795,795,795,795,795,794,793,792,791,790,789,786,784,784,784,784,784,784,784,784,784,784,784,784,784,784,784,784,784,784,784,783,783,782,782,782,782,782,782,782,782,782,782,782,782,783,784,784,785,786,786,786,786,786,786,786,786,786,786,786,786,786,780,779,779,779,779,779,779,779,779,779,779,779,779,779,779,779,779,779,779,779,779,783,788,796,817,823,824,825,826,830,830,830,830,830,830,830,830,830,830,830,829,820,810,798,785,785,785,785,785,784,789,798,817,854,931,959,974,986,999,1009,1009,1009,1009,1011,1016,1017,1017,1017,1017,1017,1022,1030,1038,1045,1046,1046,1047,1047,1048,1049,1051,1054,1056,1060],"ymouse":[628,628,628,628,628,628,628,628,628,628,628,628,628,628,628,628,628,628,628,628,628,628,628,628,628,628,628,628,628,628,628,628,628,628,628,628,628,628,628,628,628,628,628,628,628,628,628,628,628,628,628,628,628,628,628,628,628,628,628,628,628,628,628,628,628,628,628,628,628,628,628,628,628,628,628,628,628,628,628,628,628,628,628,628,628,628,628,628,628,628,628,628,628,628,628,628,628,628,628,628,628,628,628,628,628,628,624,623,620,617,615,608,604,603,603,603,603,603,603,603,603,603,603,603,603,603,603,603,603,603,603,605,608,610,613,614,620,622,622,622,623,623,623,623,623,623,621,618,616,614,611,609,609,609,609,609,609,609,609,609,609,610,616,617,617,617,617,617,617,617,617,617,617,617,617,617,617,617,617,617,617,617,617,613,610,607,600,599,599,599,599,598,598,598,598,598,598,598,598,598,598,598,599,606,612,620,627,627,627,627,627,627,621,606,572,508,336,228,133,59,17,0,0,0,0,0,0,0,0,0,0,0,5,18,32,42,46,46,47,47,47,50,52,55,57,58],"timestamp_mouse":[11,39,49,69,89,110,130,150,169,188,208,229,250,270,289,309,328,349,370,388,409,430,450,470,490,510,530,549,568,588,609,628,649,669,688,708,730,750,770,788,810,830,849,868,890,910,929,950,970,990,1010,1030,1050,1069,1090,1109,1128,1149,1169,1190,1210,1230,1249,1270,1289,1309,1330,1348,1370,1389,1409,1430,1450,1469,1489,1510,1530,1549,1568,1588,1609,1628,1648,1670,1690,1710,1730,1749,1769,1789,1809,1829,1850,1870,1888,1909,1929,1949,1968,1990,2010,2030,2049,2068,2089,2109,2129,2149,2170,2189,2210,2228,2250,2270,2289,2309,2330,2350,2370,2390,2410,2429,2449,2470,2490,2510,2530,2549,2570,2590,2610,2629,2650,2669,2690,2709,2729,2749,2769,2789,2810,2829,2850,2868,2890,2910,2929,2949,2970,2989,3010,3028,3050,3069,3090,3109,3128,3150,3169,3190,3210,3228,3250,3268,3289,3310,3329,3350,3370,3390,3409,3429,3450,3470,3490,3508,3530,3550,3570,3588,3609,3630,3650,3670,3689,3708,3729,3750,3769,3789,3810,3830,3849,3870,3889,3909,3930,3950,3968,3990,4010,4030,4050,4069,4090,4108,4129,4149,4170,4190,4210,4230,4249,4269,4290,4309,4329,4350,4370,4389,4410,4429,4449,4470,4489,4510,4532,4549,4570,4590,4609,4630,4649,4670,4690,4709,4729,4750,4769,4789,4810,4830,4849,4868,4890,4910],"xSR":741.5,"ySR":573.95,"xT1":424.9,"yT1":0,"xT2":1058.1,"yT2":0,"toosoon":0,"cond_shown":"equaldotsize","ratio_trial":500,"smaller_num":"2","larger_num":"4","correct_side":1,"subjID":"laurasofiasanchez","gender":"1","age":"9","school":"4"},{"start_time":1552055896412,"click_time":1552055897499,"finger_time":1552055897280,"fix_duration":731.4710518751375,"trial":11,"RT":868,"MT":219,"sideResp":2,"stimulus":"img/900/randomdotsizeEA/L/2_Ratio_900_L_20_R_18.png","xmouse":[782,782,782,782,782,782,782,782,782,782,782,782,782,782,782,782,782,782,782,782,782,782,782,782,782,782,782,782,782,782,782,782,782,782,782,782,782,782,782,782,782,782,797,846,877,885,904,931,959,995,1031,1063,1092,1097,1099],"ymouse":[616,616,616,616,616,616,616,616,616,616,616,616,616,616,616,616,616,616,616,616,616,616,616,616,616,616,616,616,616,616,616,616,616,616,616,616,616,616,616,616,616,617,595,510,459,441,402,356,319,269,219,175,122,107,97],"timestamp_mouse":[7,27,47,66,88,107,127,148,168,187,207,227,247,268,287,307,327,346,368,387,408,427,447,468,487,508,528,547,567,587,608,628,647,668,687,708,727,748,767,787,806,828,847,868,887,907,927,947,967,987,1008,1027,1047,1068,1087],"xSR":741.5,"ySR":573.95,"xT1":424.9,"yT1":0,"xT2":1058.1,"yT2":0,"toosoon":0,"cond_shown":"randomdotsizeEA","ratio_trial":900,"smaller_num":"18","larger_num":"20","correct_side":1,"subjID":"laurasofiasanchez","gender":"1","age":"9","school":"4"},{"start_time":1552055900099,"click_time":1552055901479,"finger_time":1552055900739,"fix_duration":1298.394016733252,"trial":12,"RT":640,"MT":740,"sideResp":1,"stimulus":"img/250/equaldotanddens/L/7_Ratio_250_L_8_R_2.png","xmouse":[812,812,812,812,812,812,812,812,812,812,812,812,812,812,812,812,812,812,812,812,812,812,812,812,812,812,812,812,812,814,816,819,819,819,819,809,795,783,752,734,721,709,700,666,636,588,543,500,445,425,419,418,418,417,416,413,410,408,408,408,410,413,417,423,423,423,424,424,426,428],"ymouse":[613,613,613,613,613,613,613,613,613,613,613,613,613,613,613,613,613,613,613,613,613,613,613,613,613,613,613,613,613,609,594,577,556,499,464,423,386,361,325,311,305,300,296,282,269,249,232,214,192,181,176,175,175,169,164,154,143,134,124,122,118,114,110,105,105,105,104,104,100,96],"timestamp_mouse":[6,25,40,61,81,100,121,140,161,180,201,220,239,260,281,301,320,341,361,380,401,421,440,461,481,500,520,540,561,581,599,620,640,659,681,701,720,740,760,781,800,820,840,860,881,900,920,940,960,980,1000,1021,1041,1059,1079,1101,1120,1140,1160,1180,1200,1221,1240,1259,1280,1301,1321,1340,1359,1380],"xSR":741.5,"ySR":573.95,"xT1":424.9,"yT1":0,"xT2":1058.1,"yT2":0,"toosoon":0,"cond_shown":"equaldotanddens","ratio_trial":250,"smaller_num":"2","larger_num":"8","correct_side":1,"subjID":"laurasofiasanchez","gender":"1","age":"9","school":"4"},{"start_time":1552055903532,"click_time":1552055905799,"finger_time":1552055904819,"fix_duration":872.808017095014,"trial":13,"RT":1287,"MT":980,"sideResp":2,"stimulus":"img/900/equaldotsize/L/2_Ratio_900_L_20_R_18.png","xmouse":[797,797,797,797,797,797,797,797,797,797,796,796,796,796,796,796,796,796,796,796,796,796,796,796,796,796,796,796,796,796,796,796,796,796,794,790,788,787,786,786,785,784,783,779,776,775,775,775,775,775,775,775,775,775,775,775,775,775,775,775,775,774,777,781,786,787,793,796,800,803,806,811,813,818,822,829,841,860,868,879,890,901,921,926,930,933,943,951,960,970,979,989,1011,1023,1036,1048,1068,1086,1094,1099,1100,1100,1100,1100,1100,1099,1097,1091,1088,1086,1085,1083,1083,1083],"ymouse":[618,618,618,618,618,618,618,618,618,618,618,618,618,618,618,618,618,618,618,618,618,618,618,618,618,618,618,618,618,618,618,618,618,618,618,618,618,617,616,616,615,614,612,607,603,602,602,602,602,602,602,602,602,602,602,602,602,602,602,602,602,601,591,581,572,562,526,511,496,482,469,453,445,436,428,419,403,381,371,365,358,353,345,341,339,337,330,326,319,313,306,299,280,269,255,242,220,190,171,157,148,143,138,136,136,135,132,126,122,120,116,107,102,98],"timestamp_mouse":[10,40,47,68,86,107,126,147,167,187,207,227,247,267,287,306,328,347,367,386,407,426,447,467,487,507,526,546,566,586,607,626,647,666,687,707,726,747,767,787,806,827,846,866,887,907,927,946,967,987,1007,1027,1046,1067,1086,1108,1127,1147,1166,1187,1206,1226,1246,1266,1287,1306,1326,1346,1367,1387,1406,1427,1446,1466,1486,1506,1526,1547,1567,1587,1606,1626,1646,1666,1686,1707,1726,1746,1766,1787,1806,1826,1846,1867,1887,1906,1926,1946,1967,1987,2007,2026,2046,2067,2086,2106,2128,2146,2166,2187,2206,2227,2246,2266],"xSR":741.5,"ySR":573.95,"xT1":424.9,"yT1":0,"xT2":1058.1,"yT2":0,"toosoon":0,"cond_shown":"equaldotsize","ratio_trial":900,"smaller_num":"18","larger_num":"20","correct_side":1,"subjID":"laurasofiasanchez","gender":"1","age":"9","school":"4"},{"start_time":1552055907751,"click_time":1552055909359,"finger_time":1552055908578,"fix_duration":310.00301070043315,"trial":14,"RT":827,"MT":781,"sideResp":1,"stimulus":"img/750/equaldotsize/L/10_Ratio_750_L_4_R_3.png","xmouse":[802,802,802,802,802,802,802,802,802,802,802,802,802,802,802,802,802,802,802,802,802,802,802,802,802,802,802,802,802,802,802,802,802,802,802,802,802,799,786,770,750,701,661,592,549,506,426,394,369,349,336,327,326,326,326,326,326,326,326,329,341,386,392,401,404,408,413,413,414,415,417,430,444,449,455,462,470,473,474,476,476],"ymouse":[623,623,623,623,623,623,623,623,623,623,623,623,623,623,623,623,623,623,623,623,623,623,623,623,623,623,623,623,623,623,623,623,623,623,623,623,622,618,605,591,574,534,500,449,414,376,301,273,252,235,223,215,214,214,214,214,214,214,213,211,203,183,180,173,169,163,153,151,149,147,144,134,124,120,115,110,103,101,101,100,99],"timestamp_mouse":[15,37,47,67,97,108,127,148,168,187,207,228,247,268,288,308,328,347,367,387,408,427,448,468,488,507,527,547,567,589,608,627,648,668,687,707,727,748,767,787,809,827,847,867,888,908,927,947,967,987,1008,1027,1048,1069,1088,1108,1127,1148,1167,1187,1208,1227,1248,1267,1287,1308,1327,1348,1367,1387,1408,1427,1448,1467,1487,1507,1527,1547,1568,1588,1608],"xSR":741.5,"ySR":573.95,"xT1":424.9,"yT1":0,"xT2":1058.1,"yT2":0,"toosoon":0,"cond_shown":"equaldotsize","ratio_trial":750,"smaller_num":"3","larger_num":"4","correct_side":1,"subjID":"laurasofiasanchez","gender":"1","age":"9","school":"4"},{"start_time":1552055912653,"click_time":1552055914758,"finger_time":1552055913499,"fix_duration":631.2648534980973,"trial":15,"RT":846,"MT":1259,"sideResp":2,"stimulus":"img/750/equaldotanddens/R/3_Ratio_750_L_15_R_20.png","xmouse":[810,810,810,810,810,810,810,810,810,810,810,810,810,810,810,810,810,810,810,810,810,810,810,810,810,810,810,810,810,810,810,810,810,810,810,810,810,810,810,810,807,801,797,795,795,795,794,794,794,794,794,794,802,814,831,869,942,974,991,1004,1010,1015,1019,1019,1019,1019,1016,1015,1015,1015,1015,1019,1026,1032,1042,1046,1049,1049,1049,1048,1045,1015,996,984,976,969,964,964,964,964,976,1103,1189,1230,1243,1244,1244,1239,1232,1220,1209,1198,1181,1176,1169,1158],"ymouse":[603,603,603,603,603,603,603,603,603,603,603,603,603,603,603,603,603,603,603,603,603,603,603,603,603,603,603,603,603,603,603,603,603,603,603,603,603,603,603,603,596,576,558,535,510,489,465,464,464,464,463,461,451,442,431,412,373,355,342,327,314,303,286,280,275,269,259,258,258,258,257,242,230,218,204,195,189,188,188,186,185,181,178,178,178,178,177,177,177,175,165,119,94,83,78,77,77,77,80,82,86,89,91,92,92,94],"timestamp_mouse":[11,38,45,66,87,106,127,146,166,186,206,225,246,265,285,306,326,345,365,385,406,425,445,466,485,505,526,546,567,585,605,625,646,665,686,706,725,745,766,787,805,826,846,865,885,905,925,945,967,986,1005,1025,1045,1066,1085,1105,1126,1145,1165,1187,1206,1225,1245,1265,1285,1305,1325,1345,1365,1385,1405,1425,1445,1465,1486,1505,1526,1546,1566,1587,1606,1626,1645,1665,1685,1707,1726,1745,1765,1786,1805,1826,1845,1865,1885,1905,1926,1946,1965,1985,2005,2025,2045,2065,2085,2105],"xSR":741.5,"ySR":573.95,"xT1":424.9,"yT1":0,"xT2":1058.1,"yT2":0,"toosoon":0,"cond_shown":"equaldotanddens","ratio_trial":750,"smaller_num":"15","larger_num":"20","correct_side":2,"subjID":"laurasofiasanchez","gender":"1","age":"9","school":"4"},{"start_time":1552055916205,"click_time":1552055918339,"finger_time":1552055917398,"fix_duration":404.3708362951344,"trial":16,"RT":1193,"MT":941,"sideResp":2,"stimulus":"img/250/randomdotsizeEA/R/8_Ratio_250_L_1_R_4.png","xmouse":[800,800,800,800,800,800,800,800,800,800,800,800,800,800,800,800,800,800,800,800,800,800,800,800,800,800,800,800,800,800,800,800,800,800,800,800,800,800,800,800,800,800,800,800,800,800,800,800,800,800,800,800,800,800,800,800,800,798,788,705,674,650,627,605,567,538,529,498,478,447,441,438,436,436,436,436,436,436,436,436,436,438,456,479,542,594,692,752,818,934,977,1012,1045,1074,1157,1193,1224,1227,1227,1227,1224,1213,1200,1188,1171,1160,1148],"ymouse":[633,633,633,633,633,633,633,633,633,633,633,633,633,633,633,633,633,633,633,633,633,633,633,633,633,633,633,633,633,633,633,633,633,633,633,633,633,633,633,633,633,633,633,633,633,633,633,633,633,633,633,633,633,633,633,633,633,634,634,614,604,594,582,568,541,514,504,462,436,395,384,374,368,364,363,363,362,362,362,362,362,362,360,356,345,338,312,294,271,221,203,186,172,160,125,108,94,92,92,92,92,91,91,91,91,91,92],"timestamp_mouse":[14,35,54,74,93,113,134,153,174,194,214,233,253,274,293,313,333,353,374,394,414,434,453,474,493,514,533,554,573,593,613,633,654,674,693,714,734,754,773,793,814,834,853,873,894,915,934,953,975,994,1015,1033,1053,1075,1093,1113,1133,1153,1173,1193,1214,1233,1253,1273,1293,1313,1333,1353,1374,1395,1413,1433,1453,1474,1493,1514,1534,1554,1574,1594,1613,1634,1653,1674,1693,1713,1733,1754,1773,1793,1813,1833,1853,1873,1893,1913,1933,1953,1974,1994,2013,2033,2053,2073,2094,2113,2134],"xSR":741.5,"ySR":573.95,"xT1":424.9,"yT1":0,"xT2":1058.1,"yT2":0,"toosoon":0,"cond_shown":"randomdotsizeEA","ratio_trial":250,"smaller_num":"1","larger_num":"4","correct_side":2,"subjID":"laurasofiasanchez","gender":"1","age":"9","school":"4"},{"start_time":1552055920650,"click_time":1552055922178,"finger_time":1552055921479,"fix_duration":1130.9947257831727,"trial":17,"RT":829,"MT":699,"sideResp":2,"stimulus":"img/500/equaldotanddens/R/2_Ratio_500_L_3_R_6.png","xmouse":[755,755,755,755,755,755,755,755,755,755,755,755,756,756,756,756,756,756,756,757,757,757,757,757,757,757,757,757,757,757,757,757,758,758,758,758,758,759,761,766,775,804,857,902,956,970,981,993,994,995,997,1000,1004,1014,1017,1019,1021,1024,1025,1028,1032,1035,1040,1041,1043,1044,1046,1051,1053,1054,1056,1057,1058,1060,1064,1069,1071],"ymouse":[610,610,610,610,610,610,610,610,610,610,610,609,607,606,605,605,605,605,605,605,605,605,605,605,605,605,605,605,605,604,603,602,601,601,601,601,600,598,595,587,577,546,499,463,415,395,374,343,334,324,316,304,290,255,245,238,233,224,220,213,206,199,187,181,176,171,166,153,147,143,139,138,129,123,115,105,97],"timestamp_mouse":[10,30,49,69,88,108,129,149,168,189,209,228,248,268,288,309,329,348,368,389,410,429,449,468,489,508,529,548,569,589,608,629,648,669,689,710,729,748,769,790,810,829,848,868,888,908,928,948,968,989,1008,1029,1048,1069,1088,1108,1129,1148,1169,1189,1208,1229,1248,1268,1288,1308,1328,1348,1368,1389,1408,1429,1448,1469,1488,1510,1528],"xSR":741.5,"ySR":573.95,"xT1":424.9,"yT1":0,"xT2":1058.1,"yT2":0,"toosoon":0,"cond_shown":"equaldotanddens","ratio_trial":500,"smaller_num":"3","larger_num":"6","correct_side":2,"subjID":"laurasofiasanchez","gender":"1","age":"9","school":"4"},{"start_time":1552055924880,"click_time":1552055926758,"finger_time":1552055925759,"fix_duration":1380.401450835649,"trial":18,"RT":879,"MT":999,"sideResp":2,"stimulus":"img/250/equaldotanddens/R/8_Ratio_250_L_1_R_4.png","xmouse":[763,767,767,767,768,768,768,768,768,768,768,768,768,768,768,768,768,768,768,768,768,768,768,768,768,768,768,768,768,768,768,768,768,768,768,768,768,768,768,768,772,798,825,861,895,928,972,981,982,982,980,980,987,996,1005,1013,1022,1026,1032,1034,1041,1049,1053,1056,1057,1058,1058,1058,1058,1058,1058,1058,1060,1060,1062,1065,1066,1067,1067,1067,1067,1067,1067,1066,1066,1066,1066,1066,1066,1066,1066,1066,1066,1066],"ymouse":[634,632,632,632,631,630,630,630,630,630,630,630,630,630,630,630,630,630,630,630,630,630,630,630,630,630,630,630,630,630,630,630,630,630,630,630,630,630,630,630,628,615,602,582,557,529,479,462,451,433,420,384,362,339,318,299,271,258,238,231,210,181,169,160,157,155,155,155,155,155,155,155,150,147,142,137,130,127,126,122,118,111,108,106,104,103,103,103,103,103,102,101,100,99],"timestamp_mouse":[19,38,58,79,100,119,138,158,178,198,218,239,259,279,299,318,338,358,378,399,418,439,458,479,498,519,539,558,579,599,619,638,659,679,698,718,740,759,779,798,818,838,858,879,899,918,938,958,979,998,1018,1038,1058,1079,1098,1118,1140,1158,1178,1198,1218,1239,1258,1279,1299,1318,1338,1358,1378,1398,1418,1438,1458,1479,1498,1519,1538,1558,1578,1598,1618,1639,1658,1678,1698,1719,1738,1758,1779,1799,1819,1838,1858,1878],"xSR":741.5,"ySR":573.95,"xT1":424.9,"yT1":0,"xT2":1058.1,"yT2":0,"toosoon":0,"cond_shown":"equaldotanddens","ratio_trial":250,"smaller_num":"1","larger_num":"4","correct_side":2,"subjID":"laurasofiasanchez","gender":"1","age":"9","school":"4"},{"start_time":1552055928939,"click_time":1552055931218,"finger_time":1552055929818,"fix_duration":1137.6458839981783,"trial":19,"RT":879,"MT":1400,"sideResp":1,"stimulus":"img/500/randomdotsizeEA/L/11_Ratio_500_L_12_R_6.png","xmouse":[810,810,810,810,810,810,810,810,810,810,810,810,810,810,810,810,810,810,810,810,810,810,810,810,810,812,813,813,813,813,813,813,813,813,813,813,813,813,813,813,813,813,813,813,800,794,781,757,733,679,649,629,615,607,600,598,595,591,587,577,573,570,566,562,556,553,547,541,539,538,538,538,537,537,534,533,531,529,526,521,519,517,514,513,511,511,511,511,511,511,511,511,511,511,511,511,511,511,511,511,511,511,511,511,511,511,511,511,511,511,511,511,511,511,511],"ymouse":[625,625,625,625,625,625,625,625,625,625,625,625,625,625,625,625,625,625,625,625,625,625,625,625,625,623,621,621,621,621,621,621,621,621,621,621,621,621,621,621,621,621,617,612,558,527,485,431,375,290,263,249,239,235,231,230,230,228,225,216,205,193,181,172,165,162,160,159,159,158,158,158,158,158,155,153,146,143,139,130,125,121,117,114,110,109,108,108,108,108,108,108,108,107,106,103,102,101,100,100,100,100,100,100,100,100,100,100,100,100,100,100,100,100,98],"timestamp_mouse":[1,19,39,60,81,100,120,139,160,180,201,220,239,259,279,299,319,339,359,380,399,420,439,459,480,500,520,539,560,579,599,619,639,659,679,700,719,741,761,781,801,820,839,860,879,900,920,939,959,979,999,1020,1040,1060,1080,1099,1120,1140,1159,1179,1199,1220,1239,1260,1280,1300,1319,1339,1360,1380,1399,1419,1440,1460,1480,1500,1519,1540,1559,1579,1600,1619,1639,1659,1679,1699,1719,1741,1760,1779,1800,1819,1839,1859,1879,1899,1920,1940,1961,1981,1999,2020,2039,2060,2080,2100,2120,2139,2161,2179,2199,2220,2240,2260,2279],"xSR":741.5,"ySR":573.95,"xT1":424.9,"yT1":0,"xT2":1058.1,"yT2":0,"toosoon":0,"cond_shown":"randomdotsizeEA","ratio_trial":500,"smaller_num":"6","larger_num":"12","correct_side":1,"subjID":"laurasofiasanchez","gender":"1","age":"9","school":"4"},{"start_time":1552055932890,"click_time":1552055935219,"finger_time":1552055933918,"fix_duration":250,"trial":20,"RT":1028,"MT":1301,"sideResp":2,"stimulus":"img/900/equaldotsize/L/4_Ratio_900_L_20_R_18.png","xmouse":[750,750,750,750,750,750,750,750,750,750,750,750,750,750,751,754,765,768,768,769,769,769,769,769,769,769,769,769,769,769,769,769,769,769,769,769,769,769,769,769,773,781,782,783,784,786,788,791,797,804,816,861,892,912,933,946,979,993,1006,1019,1030,1047,1054,1061,1064,1067,1073,1076,1079,1082,1086,1088,1087,1087,1087,1087,1087,1087,1087,1087,1086,1086,1086,1086,1086,1086,1086,1086,1086,1086,1086,1085,1085,1085,1085,1085,1085,1085,1085,1084,1084,1084,1084,1084,1084,1084,1084,1084,1084,1084,1084,1084,1084,1084,1084,1084,1083],"ymouse":[629,629,629,629,629,629,629,629,629,629,629,629,629,629,628,627,626,626,625,625,625,625,625,625,625,625,625,625,625,625,625,625,625,625,625,625,625,625,625,625,623,621,620,619,619,618,616,614,612,609,602,572,546,522,491,464,392,364,342,326,312,290,280,269,261,255,237,225,210,190,169,140,138,138,138,138,137,137,136,134,132,126,123,120,116,111,109,108,108,108,108,106,106,106,105,105,104,103,103,103,103,103,103,103,103,103,102,102,102,102,102,102,101,100,100,100,99],"timestamp_mouse":[11,41,49,68,89,109,128,148,168,189,209,228,249,269,288,308,329,349,368,389,408,430,449,468,489,508,528,548,569,589,609,628,649,669,688,708,729,748,769,788,808,828,848,868,889,908,928,948,968,988,1008,1028,1048,1069,1088,1109,1128,1148,1168,1188,1209,1228,1248,1269,1289,1309,1328,1348,1368,1388,1408,1429,1448,1468,1489,1509,1529,1548,1568,1589,1608,1628,1648,1669,1689,1710,1729,1748,1769,1789,1809,1828,1848,1868,1888,1908,1929,1948,1968,1989,2008,2028,2048,2068,2088,2108,2128,2148,2168,2188,2209,2229,2249,2269,2288,2309,2329],"xSR":741.5,"ySR":573.95,"xT1":424.9,"yT1":0,"xT2":1058.1,"yT2":0,"toosoon":0,"cond_shown":"equaldotsize","ratio_trial":900,"smaller_num":"18","larger_num":"20","correct_side":1,"subjID":"laurasofiasanchez","gender":"1","age":"9","school":"4"},{"start_time":1552055940409,"click_time":1552055942158,"finger_time":1552055941278,"fix_duration":250,"trial":21,"RT":869,"MT":880,"sideResp":2,"stimulus":"img/250/equaldotsize/R/10_Ratio_250_L_4_R_16.png","xmouse":[790,790,790,790,790,790,790,790,790,790,790,790,790,790,790,790,790,790,790,790,790,790,790,790,790,790,790,790,790,790,790,790,790,790,790,790,790,790,790,790,790,791,802,853,912,979,1042,1130,1152,1162,1162,1162,1168,1180,1186,1186,1186,1182,1175,1165,1151,1134,1110,1106,1102,1100,1099,1096,1095,1095,1095,1095,1094,1093,1093,1093,1092,1091,1091,1090,1090,1090,1090,1089,1089,1089,1089,1089],"ymouse":[643,643,643,643,643,643,643,643,643,643,643,643,643,643,643,643,643,643,643,643,643,643,643,643,643,643,643,643,643,643,643,643,643,643,643,643,643,643,643,643,643,641,631,603,579,551,519,459,439,422,410,399,368,331,302,275,255,229,217,202,185,166,138,133,128,126,125,122,122,121,121,121,119,118,116,113,112,110,109,108,108,107,105,104,103,102,101,98],"timestamp_mouse":[10,29,50,70,90,110,130,150,170,190,210,229,249,269,290,309,329,350,369,389,410,430,449,470,489,511,529,549,569,589,610,629,649,669,689,710,729,749,769,790,809,830,849,869,889,910,929,949,969,989,1009,1029,1049,1070,1089,1109,1130,1150,1170,1189,1210,1229,1249,1269,1289,1309,1329,1349,1370,1389,1410,1430,1449,1469,1489,1509,1530,1549,1569,1589,1610,1631,1649,1669,1690,1710,1729,1749],"xSR":741.5,"ySR":573.95,"xT1":424.9,"yT1":0,"xT2":1058.1,"yT2":0,"toosoon":0,"cond_shown":"equaldotsize","ratio_trial":250,"smaller_num":"4","larger_num":"16","correct_side":2,"subjID":"laurasofiasanchez","gender":"1","age":"9","school":"4"},{"start_time":1552055943925,"click_time":1552055945679,"finger_time":1552055944738,"fix_duration":504.8520876175988,"trial":22,"RT":813,"MT":941,"sideResp":1,"stimulus":"img/900/equaldotsize/R/6_Ratio_900_L_9_R_10.png","xmouse":[774,774,774,774,774,774,774,774,774,774,774,774,774,774,774,774,775,775,775,775,775,775,775,775,775,775,775,775,775,775,775,775,775,775,775,776,776,776,774,773,773,762,751,736,715,672,541,468,449,437,434,431,430,426,421,418,418,418,420,422,423,424,424,425,425,425,429,433,439,447,454,462,463,463,464,465,465,465,465,465,465,465,465,465,465,465,465,464],"ymouse":[619,619,619,619,619,619,619,619,619,619,619,619,619,619,619,619,619,618,618,618,618,618,618,618,618,618,618,618,618,618,618,618,618,618,618,618,618,610,596,581,561,524,508,489,467,433,354,317,305,299,298,295,292,285,274,262,236,225,215,204,196,190,188,187,184,181,170,165,157,148,141,133,130,127,123,119,110,107,106,106,106,105,104,102,101,101,100,99],"timestamp_mouse":[13,34,54,73,94,113,133,154,173,194,213,235,254,273,294,313,333,354,373,393,413,433,453,473,494,515,533,554,574,594,614,633,653,675,693,713,733,754,773,793,813,833,855,874,893,913,933,953,973,993,1013,1033,1054,1073,1095,1113,1133,1154,1173,1193,1213,1233,1254,1273,1293,1314,1333,1354,1373,1394,1413,1434,1453,1474,1494,1513,1534,1554,1574,1594,1613,1634,1653,1673,1693,1713,1733,1754],"xSR":741.5,"ySR":573.95,"xT1":424.9,"yT1":0,"xT2":1058.1,"yT2":0,"toosoon":0,"cond_shown":"equaldotsize","ratio_trial":900,"smaller_num":"9","larger_num":"10","correct_side":2,"subjID":"laurasofiasanchez","gender":"1","age":"9","school":"4"},{"start_time":1552055947689,"click_time":1552055948978,"finger_time":1552055948359,"fix_duration":250,"trial":23,"RT":670,"MT":619,"sideResp":1,"stimulus":"img/250/equaldotsize/L/5_Ratio_250_L_24_R_6.png","xmouse":[796,796,796,796,796,796,796,796,796,796,796,796,796,796,796,796,796,796,796,796,796,796,796,796,796,796,796,796,795,793,782,769,753,703,674,632,556,487,414,292,251,223,211,209,209,209,209,209,213,240,262,292,331,357,370,370,372,376,381,388,389,394,401,414,428],"ymouse":[610,610,610,610,610,610,610,610,610,610,610,610,610,610,610,610,610,610,610,610,610,610,610,610,610,610,610,610,610,610,606,601,594,567,551,521,459,405,335,181,116,73,57,55,55,55,55,54,50,40,37,34,34,34,34,34,34,34,34,34,34,34,35,39,43],"timestamp_mouse":[11,33,50,69,90,110,131,149,169,189,209,229,249,270,290,310,329,350,371,390,409,430,450,469,490,509,530,549,569,589,609,629,650,670,689,709,729,751,769,789,809,829,849,869,889,909,929,951,969,989,1010,1030,1049,1069,1089,1110,1129,1150,1169,1189,1209,1229,1250,1270,1289],"xSR":741.5,"ySR":573.95,"xT1":424.9,"yT1":0,"xT2":1058.1,"yT2":0,"toosoon":0,"cond_shown":"equaldotsize","ratio_trial":250,"smaller_num":"6","larger_num":"24","correct_side":1,"subjID":"laurasofiasanchez","gender":"1","age":"9","school":"4"},{"start_time":1552055952204,"click_time":1552055953918,"finger_time":1552055953278,"fix_duration":784.4802363401371,"trial":24,"RT":1074,"MT":640,"sideResp":2,"stimulus":"img/250/randomdotsizeEA/R/13_Ratio_250_L_2_R_8.png","xmouse":[792,792,792,792,792,792,792,792,792,792,792,792,792,792,792,792,792,792,792,792,792,792,792,792,792,792,792,792,792,792,792,792,792,792,792,792,792,792,792,792,792,792,792,792,792,792,792,792,792,793,796,808,827,927,998,1055,1097,1121,1136,1138,1138,1138,1138,1138,1138,1137,1134,1129,1115,1110,1101,1098,1097,1095,1094,1092,1092,1092,1092,1092,1093,1094,1096,1098,1099,1100],"ymouse":[634,634,634,634,634,634,634,634,634,634,634,634,634,634,634,634,634,634,634,634,634,634,634,634,634,634,634,634,634,634,634,634,634,634,634,634,634,634,634,634,634,634,634,634,633,633,633,633,633,633,628,618,605,539,488,447,416,396,378,373,367,361,353,331,316,302,287,271,231,221,199,189,183,173,165,156,150,146,141,138,133,127,123,114,105,98],"timestamp_mouse":[17,35,54,75,95,116,135,154,175,194,214,235,255,274,295,315,334,354,374,395,415,434,454,475,494,515,535,555,574,595,615,635,655,675,694,715,735,755,774,795,815,834,854,875,894,914,934,956,975,995,1014,1034,1054,1074,1094,1114,1134,1154,1174,1195,1214,1234,1254,1274,1294,1314,1334,1354,1374,1394,1414,1434,1454,1474,1494,1514,1535,1555,1574,1595,1615,1634,1654,1674,1695,1714],"xSR":741.5,"ySR":573.95,"xT1":424.9,"yT1":0,"xT2":1058.1,"yT2":0,"toosoon":0,"cond_shown":"randomdotsizeEA","ratio_trial":250,"smaller_num":"2","larger_num":"8","correct_side":2,"subjID":"laurasofiasanchez","gender":"1","age":"9","school":"4"},{"start_time":1552055955530,"click_time":1552055957158,"finger_time":1552055956439,"fix_duration":489.3864039946512,"trial":25,"RT":909,"MT":719,"sideResp":2,"stimulus":"img/750/randomdotsizeEA/L/10_Ratio_750_L_4_R_3.png","xmouse":[755,755,755,756,756,756,756,756,757,758,758,758,759,759,760,760,760,760,760,760,760,761,761,761,761,761,761,761,761,761,761,761,761,761,761,761,761,761,761,761,761,761,761,761,755,744,730,687,655,623,593,569,538,535,535,535,535,535,535,535,535,537,570,605,660,709,755,851,896,948,1000,1059,1192,1215,1226,1226,1226,1222,1217,1196,1162,1121],"ymouse":[611,611,611,611,611,611,611,611,611,611,611,611,611,611,611,611,611,611,611,611,611,611,611,611,611,611,611,611,611,611,611,611,611,611,611,611,611,611,611,611,611,611,611,607,591,573,547,459,404,345,292,252,213,211,211,211,211,211,211,211,211,210,210,210,210,210,210,210,207,200,192,177,132,120,109,104,100,92,88,85,80,76],"timestamp_mouse":[10,32,48,69,89,109,128,149,168,188,209,229,249,268,288,309,329,348,369,389,410,428,449,469,489,509,529,549,568,589,609,630,649,669,688,710,729,749,770,789,808,829,848,870,888,909,928,948,968,988,1010,1028,1048,1068,1088,1108,1129,1148,1169,1188,1209,1228,1249,1269,1288,1308,1328,1348,1368,1389,1409,1429,1448,1468,1488,1508,1528,1549,1568,1588,1610,1628],"xSR":741.5,"ySR":573.95,"xT1":424.9,"yT1":0,"xT2":1058.1,"yT2":0,"toosoon":0,"cond_shown":"randomdotsizeEA","ratio_trial":750,"smaller_num":"3","larger_num":"4","correct_side":1,"subjID":"laurasofiasanchez","gender":"1","age":"9","school":"4"},{"start_time":1552055959765,"click_time":1552055960798,"finger_time":1552055960418,"fix_duration":1444.5099464212963,"trial":26,"RT":653,"MT":380,"sideResp":2,"stimulus":"img/500/equaldotanddens/R/3_Ratio_500_L_10_R_20.png","xmouse":[796,796,796,796,796,796,796,796,796,796,796,796,796,796,796,796,796,796,796,796,796,796,796,796,796,796,796,796,796,796,797,807,831,876,934,1002,1080,1104,1132,1149,1165,1195,1203,1205,1206,1204,1201,1196,1189,1176,1166,1148],"ymouse":[617,617,617,617,617,617,617,617,617,617,617,617,617,617,617,617,617,617,617,617,617,617,617,617,617,617,617,617,617,617,613,591,554,491,437,385,320,299,271,240,202,136,117,104,93,78,73,67,60,52,48,44],"timestamp_mouse":[18,37,53,74,94,113,134,153,173,194,215,234,254,274,294,313,333,353,373,393,414,434,454,473,494,513,534,554,573,595,613,634,653,673,693,714,733,753,773,794,813,834,853,873,893,914,933,953,973,994,1013,1033],"xSR":741.5,"ySR":573.95,"xT1":424.9,"yT1":0,"xT2":1058.1,"yT2":0,"toosoon":0,"cond_shown":"equaldotanddens","ratio_trial":500,"smaller_num":"10","larger_num":"20","correct_side":2,"subjID":"laurasofiasanchez","gender":"1","age":"9","school":"4"},{"start_time":1552055961851,"click_time":1552055962879,"finger_time":1552055962498,"fix_duration":250,"trial":27,"RT":647,"MT":381,"sideResp":1,"stimulus":"img/500/equaldotanddens/L/13_Ratio_500_L_12_R_6.png","xmouse":[800,800,800,800,800,800,800,800,800,800,800,800,800,800,800,800,800,800,800,800,800,800,800,800,800,800,800,800,800,800,797,785,738,699,616,534,452,315,276,260,256,256,259,272,289,300,315,356,378,397,414,428],"ymouse":[655,655,655,655,655,655,655,655,655,655,655,655,655,655,655,655,655,655,655,655,655,655,655,655,655,655,655,655,655,655,653,650,629,609,556,496,418,247,192,168,161,159,154,144,134,129,123,111,104,99,93,88],"timestamp_mouse":[10,30,47,68,88,109,127,148,167,187,208,227,247,267,288,307,327,348,368,388,408,429,447,468,488,507,528,547,568,588,607,627,647,667,688,707,727,747,768,787,807,828,847,867,887,908,928,948,968,987,1007,1028],"xSR":741.5,"ySR":573.95,"xT1":424.9,"yT1":0,"xT2":1058.1,"yT2":0,"toosoon":0,"cond_shown":"equaldotanddens","ratio_trial":500,"smaller_num":"6","larger_num":"12","correct_side":1,"subjID":"laurasofiasanchez","gender":"1","age":"9","school":"4"},{"start_time":1552055964888,"click_time":1552055966901,"finger_time":1552055965922,"fix_duration":965.3410181595295,"trial":28,"RT":1034,"MT":979,"sideResp":1,"stimulus":"img/500/randomdotsizeEA/L/10_Ratio_500_L_4_R_2.png","xmouse":[786,786,786,786,786,786,786,786,786,786,786,786,786,786,786,786,786,786,786,786,786,786,786,786,786,786,786,786,786,786,786,786,786,786,786,786,786,786,786,786,786,786,786,786,786,786,786,786,785,774,750,597,505,396,297,191,181,180,180,180,183,203,240,303,364,445,463,475,481,488,490,499,502,502,502,502,502,502,502,502,502,501,501,501,501,499,499,498,498,498,497,497,497,496,496,495,495,495,495,495,495],"ymouse":[607,607,607,607,608,608,608,608,608,608,608,608,608,608,608,608,608,608,608,608,608,608,608,608,608,608,608,608,608,608,608,608,608,608,608,608,608,608,608,608,608,608,608,608,608,608,608,608,607,604,599,552,511,451,394,347,343,343,343,343,340,331,316,294,273,231,217,206,195,181,177,153,144,137,133,127,126,124,123,123,120,119,119,118,117,113,112,111,111,110,108,106,105,104,103,101,101,100,100,100,99],"timestamp_mouse":[17,36,53,74,93,114,134,154,174,194,213,234,254,274,293,314,333,353,373,394,414,434,453,474,493,513,533,553,574,594,613,634,654,673,694,713,734,754,774,793,814,834,854,874,894,914,933,954,973,994,1013,1034,1053,1074,1093,1113,1133,1153,1174,1193,1213,1233,1253,1273,1293,1313,1333,1354,1373,1394,1413,1434,1453,1474,1493,1513,1533,1553,1573,1593,1613,1633,1653,1673,1693,1713,1734,1753,1773,1793,1814,1834,1853,1874,1893,1913,1934,1954,1973,1993,2013],"xSR":741.5,"ySR":573.95,"xT1":424.9,"yT1":0,"xT2":1058.1,"yT2":0,"toosoon":0,"cond_shown":"randomdotsizeEA","ratio_trial":500,"smaller_num":"2","larger_num":"4","correct_side":1,"subjID":"laurasofiasanchez","gender":"1","age":"9","school":"4"},{"start_time":1552055969116,"click_time":1552055971661,"finger_time":1552055970081,"fix_duration":1013.3038928655469,"trial":29,"RT":965,"MT":1580,"sideResp":2,"stimulus":"img/900/equaldotanddens/R/9_Ratio_900_L_18_R_20.png","xmouse":[816,815,815,815,815,815,815,815,815,815,815,815,815,815,815,815,815,815,815,815,815,815,815,815,815,815,815,815,815,815,815,815,815,815,815,815,815,815,815,815,815,813,812,811,807,803,802,809,852,874,918,945,969,988,1004,1015,1019,1021,1021,1021,1021,1023,1024,1026,1030,1043,1046,1048,1050,1053,1059,1065,1071,1077,1083,1086,1088,1090,1093,1094,1094,1094,1094,1094,1094,1094,1094,1094,1094,1094,1096,1097,1097,1097,1097,1098,1100,1100,1101,1101,1101,1101,1101,1101,1101,1101,1101,1101,1101,1101,1101,1101,1101,1101,1101,1101,1101,1101,1101,1101,1101,1101,1101,1101,1101,1101,1101,1101],"ymouse":[624,624,625,626,626,626,626,626,626,626,626,626,626,626,626,626,626,626,626,626,626,626,626,626,626,626,626,626,626,626,626,626,626,626,626,626,626,626,626,626,626,625,624,620,611,600,588,577,512,486,441,418,396,378,360,339,330,323,315,312,306,301,294,284,271,242,231,225,216,210,191,176,162,149,134,129,125,121,117,115,115,115,115,115,115,115,115,115,114,112,108,106,106,105,104,104,102,102,101,101,101,101,101,101,101,101,101,101,101,101,101,101,101,101,101,101,101,101,101,101,101,101,100,100,100,100,100,99],"timestamp_mouse":[12,34,45,65,86,106,126,146,165,186,205,225,246,265,286,306,326,346,365,385,405,425,445,466,485,506,525,545,566,585,606,625,646,666,685,705,726,745,765,786,806,825,846,865,886,905,926,945,965,985,1005,1025,1045,1065,1085,1106,1125,1145,1165,1185,1205,1225,1245,1265,1285,1305,1326,1345,1366,1385,1406,1426,1446,1465,1486,1505,1525,1546,1565,1586,1605,1625,1645,1666,1685,1706,1726,1746,1765,1785,1805,1825,1845,1865,1886,1905,1925,1945,1965,1986,2005,2026,2046,2065,2085,2105,2125,2145,2166,2185,2205,2225,2246,2266,2285,2305,2326,2346,2365,2386,2406,2425,2445,2465,2486,2505,2527,2545],"xSR":741.5,"ySR":573.95,"xT1":424.9,"yT1":0,"xT2":1058.1,"yT2":0,"toosoon":0,"cond_shown":"equaldotanddens","ratio_trial":900,"smaller_num":"18","larger_num":"20","correct_side":2,"subjID":"laurasofiasanchez","gender":"1","age":"9","school":"4"},{"start_time":1552055973514,"click_time":1552055974903,"finger_time":1552055974341,"fix_duration":312.38476757358603,"trial":30,"RT":827,"MT":562,"sideResp":1,"stimulus":"img/500/equaldotanddens/L/7_Ratio_500_L_10_R_5.png","xmouse":[770,770,770,770,770,770,770,770,770,770,770,770,770,770,770,770,770,770,770,770,770,770,770,770,770,770,770,770,770,770,770,770,770,770,770,770,770,770,770,771,763,747,718,681,646,592,582,578,577,576,574,572,571,570,568,564,548,545,542,540,535,534,532,530,524,511,495,481,468,458],"ymouse":[603,603,603,603,603,604,604,604,604,604,604,604,604,604,604,604,604,604,604,604,604,604,604,604,604,604,604,604,604,604,604,604,604,604,604,604,604,604,604,604,591,569,528,476,424,343,318,304,298,294,286,281,277,272,265,255,221,211,204,200,193,190,187,184,176,159,137,118,100,86],"timestamp_mouse":[11,35,48,68,87,107,128,148,167,188,208,227,247,268,287,307,327,348,367,388,407,428,447,468,488,507,528,548,567,588,608,628,648,667,687,708,727,748,768,787,807,827,847,867,887,908,928,947,967,987,1007,1027,1047,1067,1088,1107,1127,1147,1167,1187,1207,1228,1247,1268,1287,1307,1327,1347,1368,1388],"xSR":741.5,"ySR":573.95,"xT1":424.9,"yT1":0,"xT2":1058.1,"yT2":0,"toosoon":0,"cond_shown":"equaldotanddens","ratio_trial":500,"smaller_num":"5","larger_num":"10","correct_side":1,"subjID":"laurasofiasanchez","gender":"1","age":"9","school":"4"},{"start_time":1552055976705,"click_time":1552055978181,"finger_time":1552055977381,"fix_duration":942.1391888464211,"trial":31,"RT":676,"MT":800,"sideResp":2,"stimulus":"img/250/equaldotsize/R/12_Ratio_250_L_5_R_20.png","xmouse":[784,784,784,784,784,784,784,784,784,784,784,784,784,784,784,784,784,784,784,784,784,784,784,784,784,784,784,784,784,786,791,798,809,827,852,919,936,949,952,952,953,953,953,955,959,976,986,995,1005,1014,1031,1038,1042,1046,1051,1057,1059,1061,1062,1063,1064,1065,1065,1065,1066,1068,1070,1071,1072,1074,1075,1077,1078,1078],"ymouse":[639,639,639,639,639,639,639,639,639,639,639,639,639,639,639,639,639,639,639,639,639,639,639,639,639,639,639,639,639,637,631,618,600,569,519,400,367,344,333,329,326,325,324,322,316,296,285,274,262,248,227,217,210,202,196,178,172,166,162,159,155,153,151,147,143,132,127,124,120,115,111,104,101,99],"timestamp_mouse":[30,36,56,76,97,117,136,156,176,197,217,237,257,276,297,316,337,356,377,397,416,436,456,477,496,516,537,556,577,596,615,636,656,676,696,716,737,756,776,796,817,836,857,877,896,916,936,956,976,996,1016,1036,1057,1076,1096,1116,1136,1156,1177,1196,1217,1236,1256,1276,1296,1316,1336,1356,1376,1397,1416,1436,1456,1476],"xSR":741.5,"ySR":573.95,"xT1":424.9,"yT1":0,"xT2":1058.1,"yT2":0,"toosoon":0,"cond_shown":"equaldotsize","ratio_trial":250,"smaller_num":"5","larger_num":"20","correct_side":2,"subjID":"laurasofiasanchez","gender":"1","age":"9","school":"4"},{"start_time":1552055979765,"click_time":1552055985181,"finger_time":1552055981242,"fix_duration":421.2691466069168,"trial":32,"RT":1477,"MT":3939,"sideResp":2,"stimulus":"img/750/equaldotanddens/L/9_Ratio_750_L_4_R_3.png","xmouse":[756,756,756,756,756,756,756,756,756,756,756,756,756,756,756,756,756,756,756,756,756,756,756,756,756,756,756,756,756,756,756,756,756,756,756,756,756,756,756,756,756,756,756,756,756,756,756,756,756,756,756,756,756,756,756,756,757,759,767,786,800,806,808,808,808,808,808,808,808,809,810,815,834,866,926,994,1060,1107,1159,1169,1174,1177,1179,1183,1185,1186,1187,1187,1185,1184,1184,1182,1182,1180,1178,1176,1173,1171,1170,1170,1170,1170,1170,1164,1156,1141,1125,1092,1012,977,916,859,795,686,638,607,588,582,580,578,576,572,571,568,566,565,561,556,549,545,542,539,538,536,536,536,536,536,536,540,576,622,690,831,886,918,936,943,947,955,962,986,1002,1027,1034,1037,1037,1037,1037,1037,1037,1037,1036,1027,1016,1002,982,953,850,776,652,567,486,358,327,307,301,300,300,300,305,314,343,451,529,614,698,769,803,803,802,786,761,674,603,525,441,367,310,308,309,312,324,376,432,500,576,661,804,905,971,1030,1092,1250,1332,1391,1422,1432,1432,1429,1422,1409,1391,1336,1291,1245,1203,1161,1107,1097,1095,1095,1095,1096,1097,1098,1098,1098,1094,1091,1090,1089,1087,1086,1085,1085,1084,1083,1081,1080,1079,1076,1074,1072,1072,1072,1072,1072,1071,1070,1069,1069,1068,1068,1067,1067,1067,1066,1065,1065,1065],"ymouse":[643,643,643,643,643,643,643,643,643,643,643,643,643,643,643,643,643,643,643,643,643,643,643,643,643,643,643,643,643,643,643,643,643,643,643,643,643,643,643,643,643,643,643,643,643,643,643,643,643,643,643,643,643,643,643,643,642,641,638,630,624,621,620,620,620,620,620,620,619,617,616,611,592,570,530,480,431,388,322,295,272,245,233,206,194,182,171,163,155,154,152,151,150,147,144,142,140,138,138,138,138,138,138,137,137,137,137,141,153,153,153,153,149,135,129,124,122,122,122,122,122,122,122,122,122,122,122,121,119,119,119,118,118,118,118,118,118,118,118,118,118,118,118,118,118,118,118,118,118,118,118,118,118,118,119,119,119,119,119,119,119,119,119,119,121,124,129,137,154,164,175,177,177,177,177,178,179,179,179,179,180,181,185,197,208,221,233,244,249,249,249,249,249,249,249,249,249,249,255,255,256,257,257,259,262,272,283,296,313,323,327,331,339,363,375,380,383,383,383,383,383,383,383,380,371,358,343,331,308,300,296,292,286,276,269,260,250,235,203,189,183,181,179,176,175,173,172,169,163,155,148,139,133,129,129,129,129,129,126,122,120,119,118,112,109,107,105,102,100,100,99],"timestamp_mouse":[17,37,56,77,97,116,137,157,176,197,217,236,257,277,297,316,337,356,376,396,417,437,456,477,497,516,536,556,577,596,616,637,657,677,697,716,736,756,777,797,817,837,857,877,897,916,937,956,977,997,1017,1037,1057,1076,1096,1117,1137,1156,1176,1197,1216,1236,1257,1277,1297,1317,1336,1357,1376,1396,1416,1436,1457,1477,1497,1516,1536,1556,1576,1597,1616,1636,1656,1676,1696,1716,1736,1756,1776,1797,1816,1836,1856,1876,1896,1917,1937,1956,1976,1996,2016,2036,2056,2077,2096,2117,2136,2156,2176,2197,2216,2236,2256,2277,2296,2316,2336,2356,2376,2396,2416,2436,2456,2476,2496,2517,2536,2556,2576,2597,2616,2636,2657,2676,2696,2716,2736,2756,2777,2796,2816,2837,2856,2877,2896,2916,2936,2956,2976,2996,3017,3036,3056,3076,3096,3116,3137,3156,3176,3197,3216,3236,3257,3277,3296,3316,3336,3356,3377,3396,3416,3436,3456,3476,3496,3516,3536,3557,3577,3596,3616,3636,3656,3676,3697,3717,3736,3756,3776,3796,3816,3836,3856,3876,3897,3916,3936,3956,3976,3996,4016,4037,4056,4076,4096,4116,4136,4157,4177,4196,4216,4236,4256,4276,4297,4316,4336,4357,4376,4397,4416,4436,4457,4476,4496,4516,4536,4557,4576,4597,4616,4637,4656,4676,4696,4716,4736,4757,4776,4796,4816,4836,4856,4876,4896,4916,4936,4956,4976,4997,5016,5037,5056,5076,5096,5116,5137,5156,5176,5197,5216,5237,5256,5276,5296,5316,5336,5356,5376,5397,5416],"xSR":741.5,"ySR":573.95,"xT1":424.9,"yT1":0,"xT2":1058.1,"yT2":0,"toosoon":0,"cond_shown":"equaldotanddens","ratio_trial":750,"smaller_num":"3","larger_num":"4","correct_side":1,"subjID":"laurasofiasanchez","gender":"1","age":"9","school":"4"},{"start_time":1552055989850,"click_time":1552055990961,"finger_time":1552055990581,"fix_duration":1306.7334221388692,"trial":33,"RT":731,"MT":380,"sideResp":1,"stimulus":"img/500/randomdotsizeEA/L/10_Ratio_500_L_4_R_2.png","xmouse":[767,767,767,767,767,767,767,767,767,767,767,767,767,767,767,767,767,767,767,767,767,767,767,767,767,767,767,767,767,767,767,767,767,767,767,769,751,712,668,622,537,466,443,399,376,370,366,361,357,352,352,353,357,370,388,428],"ymouse":[601,601,601,601,601,601,601,601,601,601,601,601,601,601,601,601,601,601,601,601,601,601,601,601,601,601,601,601,601,601,601,601,601,601,601,594,554,502,453,412,341,280,262,228,204,192,182,172,159,136,127,121,114,106,99,84],"timestamp_mouse":[12,37,52,71,92,112,132,152,172,192,212,232,252,271,291,313,332,352,371,392,411,432,451,471,492,511,532,552,571,591,612,631,652,672,692,712,731,752,771,792,811,831,851,871,892,911,931,952,971,992,1012,1031,1051,1072,1091,1111],"xSR":741.5,"ySR":573.95,"xT1":424.9,"yT1":0,"xT2":1058.1,"yT2":0,"toosoon":0,"cond_shown":"randomdotsizeEA","ratio_trial":500,"smaller_num":"2","larger_num":"4","correct_side":1,"subjID":"laurasofiasanchez","gender":"1","age":"9","school":"4"},{"start_time":1552055992893,"click_time":1552055995021,"finger_time":1552055993821,"fix_duration":872.8577168296321,"trial":34,"RT":928,"MT":1200,"sideResp":2,"stimulus":"img/750/randomdotsizeEA/L/8_Ratio_750_L_4_R_3.png","xmouse":[790,790,790,790,790,790,790,790,790,790,790,790,790,790,790,790,790,790,790,790,790,790,790,790,790,790,790,790,790,790,790,790,790,790,790,790,790,790,790,790,790,790,790,797,811,833,867,916,1004,1038,1047,1051,1053,1055,1057,1060,1064,1066,1067,1067,1067,1067,1067,1067,1067,1067,1067,1067,1065,1064,1062,1060,1059,1055,1054,1054,1053,1053,1053,1053,1053,1053,1052,1052,1052,1052,1052,1052,1052,1052,1052,1052,1052,1052,1052,1052,1052,1052,1052,1052,1052,1052,1053,1060,1064,1068,1076],"ymouse":[613,613,613,613,613,613,613,613,613,613,613,613,613,613,613,613,613,613,613,613,613,613,613,613,613,613,613,613,613,613,613,613,613,613,613,613,613,613,613,613,613,613,613,609,599,584,565,533,472,445,436,427,420,400,388,374,361,350,334,328,325,324,321,313,310,307,304,301,298,297,294,286,278,251,243,237,232,229,228,228,227,224,220,213,208,203,195,183,150,143,141,141,141,141,140,138,138,138,138,138,137,135,132,121,114,106,95],"timestamp_mouse":[8,29,49,68,89,109,128,149,169,189,209,228,249,268,289,308,329,349,368,388,409,428,449,469,488,508,529,549,569,588,609,629,649,669,688,708,729,749,769,788,809,829,848,868,888,908,928,949,968,988,1008,1029,1049,1068,1088,1108,1128,1149,1168,1189,1208,1229,1248,1268,1288,1308,1328,1348,1368,1388,1408,1428,1448,1468,1488,1508,1528,1549,1568,1588,1608,1628,1648,1668,1688,1709,1728,1748,1768,1789,1809,1829,1848,1868,1888,1908,1928,1949,1969,1988,2008,2029,2048,2068,2088,2109,2128],"xSR":741.5,"ySR":573.95,"xT1":424.9,"yT1":0,"xT2":1058.1,"yT2":0,"toosoon":0,"cond_shown":"randomdotsizeEA","ratio_trial":750,"smaller_num":"3","larger_num":"4","correct_side":1,"subjID":"laurasofiasanchez","gender":"1","age":"9","school":"4"},{"start_time":1552055997742,"click_time":1552055999862,"finger_time":1552055998441,"fix_duration":298.47433675000303,"trial":35,"RT":699,"MT":1421,"sideResp":1,"stimulus":"img/900/equaldotanddens/L/4_Ratio_900_L_20_R_18.png","xmouse":[785,785,785,785,785,785,785,785,785,785,785,785,785,785,785,785,785,785,785,785,785,785,785,785,785,785,785,785,785,785,785,785,785,784,775,767,745,738,731,724,715,692,679,666,651,637,600,584,575,569,566,565,565,565,565,565,567,568,568,568,568,568,566,563,560,557,551,547,544,543,543,541,541,540,539,537,536,535,535,534,534,534,533,532,530,528,528,526,525,524,523,522,522,521,521,521,520,519,519,519,519,519,519,519,518,518,518],"ymouse":[602,602,602,602,602,602,602,602,602,602,602,602,602,602,602,602,602,602,602,602,602,602,602,602,602,602,602,602,602,602,602,602,600,594,576,559,514,497,481,463,445,403,380,359,339,321,275,257,244,233,228,220,216,212,207,201,184,178,172,167,163,155,151,146,142,137,130,128,126,124,124,123,123,122,121,119,119,118,118,117,116,115,114,113,112,111,111,110,109,108,107,106,106,105,105,105,104,102,101,101,101,100,100,100,100,100,99],"timestamp_mouse":[1,19,39,60,80,99,119,140,159,181,200,220,239,259,279,299,320,339,359,379,400,419,439,460,479,499,519,540,559,580,600,619,639,659,679,699,719,739,759,779,800,820,839,859,879,899,919,939,959,980,999,1019,1039,1059,1079,1099,1119,1139,1159,1179,1200,1220,1238,1259,1279,1299,1319,1339,1359,1379,1400,1419,1439,1459,1479,1499,1519,1539,1559,1580,1599,1619,1639,1660,1679,1700,1719,1740,1759,1780,1800,1820,1840,1860,1880,1900,1919,1939,1959,1979,2000,2019,2040,2060,2080,2099,2120],"xSR":741.5,"ySR":573.95,"xT1":424.9,"yT1":0,"xT2":1058.1,"yT2":0,"toosoon":0,"cond_shown":"equaldotanddens","ratio_trial":900,"smaller_num":"18","larger_num":"20","correct_side":1,"subjID":"laurasofiasanchez","gender":"1","age":"9","school":"4"},{"start_time":1552056001503,"click_time":1552056003262,"finger_time":1552056002301,"fix_duration":439.828263425693,"trial":36,"RT":798,"MT":961,"sideResp":1,"stimulus":"img/900/equaldotanddens/L/4_Ratio_900_L_20_R_18.png","xmouse":[788,788,788,788,788,788,788,788,788,788,788,788,788,788,788,788,788,788,788,788,788,788,788,788,788,788,788,788,788,788,788,788,788,788,788,788,788,788,788,788,777,760,731,691,657,595,570,554,548,546,545,545,544,544,543,543,543,543,543,541,536,533,529,526,523,517,513,509,504,500,496,495,494,493,492,491,491,491,491,491,490,489,488,488,488,487,487,487,487],"ymouse":[619,619,619,619,619,619,619,619,619,619,619,619,619,619,619,619,619,619,619,619,619,619,619,619,619,619,619,619,619,619,619,619,619,619,619,619,619,617,614,607,558,520,469,414,367,281,254,238,232,230,229,229,229,226,218,211,204,194,187,181,171,166,161,158,156,148,144,138,132,128,122,121,119,118,116,115,115,115,115,115,112,110,109,108,107,103,100,100,99],"timestamp_mouse":[0,18,38,58,78,98,118,139,159,178,198,219,238,259,279,299,318,339,359,378,398,419,439,459,478,499,519,538,558,579,598,619,638,659,679,698,718,738,759,779,798,819,839,860,878,898,919,938,958,978,999,1018,1038,1058,1080,1098,1119,1139,1158,1179,1198,1218,1238,1258,1278,1298,1318,1338,1358,1378,1398,1418,1438,1460,1479,1498,1518,1539,1559,1579,1598,1618,1639,1658,1678,1698,1719,1739,1759],"xSR":741.5,"ySR":573.95,"xT1":424.9,"yT1":0,"xT2":1058.1,"yT2":0,"toosoon":0,"cond_shown":"equaldotanddens","ratio_trial":900,"smaller_num":"18","larger_num":"20","correct_side":1,"subjID":"laurasofiasanchez","gender":"1","age":"9","school":"4"},{"start_time":1552056005057,"click_time":1552056007503,"finger_time":1552056006001,"fix_duration":754.3133450871645,"trial":37,"RT":944,"MT":1502,"sideResp":2,"stimulus":"img/900/randomdotsizeEA/R/7_Ratio_900_L_9_R_10.png","xmouse":[782,782,782,782,782,782,782,782,782,782,782,782,782,782,782,782,782,782,782,782,782,782,782,782,782,782,783,783,783,783,783,784,784,784,784,785,785,785,785,785,787,787,789,789,790,790,792,793,793,793,794,799,834,856,879,895,908,924,926,928,929,931,933,934,934,934,934,934,933,933,933,933,933,933,933,933,933,932,925,913,900,880,852,661,544,414,304,124,74,53,48,48,47,60,101,182,296,599,765,921,1046,1143,1201,1208,1208,1208,1208,1209,1215,1230,1254,1281,1303,1303,1303,1303,1303,1299,1285,1260,1227,1196,1152],"ymouse":[600,600,600,600,600,600,600,600,600,600,600,600,600,600,600,600,600,600,600,600,600,600,600,600,600,600,600,600,600,600,600,599,598,596,595,595,595,594,594,593,590,589,586,585,583,580,575,560,553,541,528,509,446,415,382,360,342,313,306,302,297,294,288,279,274,270,266,262,259,259,257,257,257,257,257,257,257,257,260,263,266,267,267,239,223,204,190,164,161,161,161,161,160,157,150,139,121,77,42,0,0,0,0,0,0,0,0,0,0,0,0,0,0,0,0,0,0,0,0,7,15,25,41],"timestamp_mouse":[10,24,44,65,84,104,124,145,164,184,205,225,244,264,285,304,324,344,365,385,404,425,444,464,484,504,525,544,565,584,605,625,645,665,684,704,724,744,764,785,804,825,845,864,884,904,924,944,965,985,1004,1025,1043,1064,1084,1105,1126,1144,1164,1185,1204,1225,1244,1265,1284,1304,1324,1344,1365,1384,1406,1425,1444,1464,1484,1504,1525,1545,1566,1585,1604,1625,1644,1665,1684,1705,1724,1744,1764,1785,1804,1825,1844,1865,1884,1904,1924,1944,1964,1984,2004,2024,2044,2064,2085,2105,2125,2145,2164,2184,2205,2224,2246,2264,2285,2305,2324,2344,2364,2385,2404,2424,2446],"xSR":741.5,"ySR":573.95,"xT1":424.9,"yT1":0,"xT2":1058.1,"yT2":0,"toosoon":0,"cond_shown":"randomdotsizeEA","ratio_trial":900,"smaller_num":"9","larger_num":"10","correct_side":2,"subjID":"laurasofiasanchez","gender":"1","age":"9","school":"4"},{"start_time":1552056010410,"click_time":1552056011581,"finger_time":1552056011321,"fix_duration":1327.1752883520542,"trial":38,"RT":911,"MT":260,"sideResp":1,"stimulus":"img/750/randomdotsizeEA/L/13_Ratio_750_L_8_R_6.png","xmouse":[773,773,773,773,773,773,773,773,773,773,773,773,773,773,773,773,773,773,773,773,773,773,773,773,773,773,773,773,773,773,773,773,773,773,770,765,765,765,765,765,765,765,765,773,790,836,871,897,914,924,928,926,906,883,846,710,620,534,465],"ymouse":[618,618,618,618,618,618,618,618,618,618,618,618,618,618,618,618,618,618,618,618,618,618,618,618,618,618,618,618,618,618,618,618,618,618,618,618,618,618,617,617,617,617,616,609,597,571,550,530,514,495,464,442,398,363,317,197,131,72,34],"timestamp_mouse":[11,39,52,72,91,111,132,151,172,191,212,231,252,272,292,311,332,352,372,392,412,432,452,471,492,512,531,552,572,591,611,632,652,672,691,711,732,751,772,791,811,832,851,872,891,911,931,952,971,991,1012,1031,1051,1072,1091,1112,1131,1151,1171],"xSR":741.5,"ySR":573.95,"xT1":424.9,"yT1":0,"xT2":1058.1,"yT2":0,"toosoon":0,"cond_shown":"randomdotsizeEA","ratio_trial":750,"smaller_num":"6","larger_num":"8","correct_side":1,"subjID":"laurasofiasanchez","gender":"1","age":"9","school":"4"},{"start_time":1552056014278,"click_time":1552056015421,"finger_time":1552056015061,"fix_duration":1315.786333777348,"trial":39,"RT":783,"MT":360,"sideResp":1,"stimulus":"img/750/equaldotanddens/L/6_Ratio_750_L_24_R_18.png","xmouse":[754,754,754,754,754,754,754,754,754,754,754,754,754,754,754,754,754,754,754,754,754,754,754,754,754,754,754,754,754,754,754,754,754,754,754,754,754,754,754,740,692,638,573,456,404,360,346,345,345,345,345,345,345,349,361,380,398,431],"ymouse":[636,636,636,636,636,636,636,636,636,636,636,636,636,636,636,636,636,636,636,636,636,636,636,636,636,636,636,636,636,636,636,636,636,636,636,636,636,636,636,615,556,487,407,239,160,111,96,96,96,96,96,95,93,87,80,73,69,65],"timestamp_mouse":[10,23,44,64,84,104,123,143,165,184,203,224,243,264,284,303,323,343,363,384,404,423,444,463,484,504,523,543,563,584,604,623,643,664,684,704,724,743,763,783,803,824,843,864,883,903,924,943,964,984,1003,1024,1043,1063,1084,1103,1123,1143],"xSR":741.5,"ySR":573.95,"xT1":424.9,"yT1":0,"xT2":1058.1,"yT2":0,"toosoon":0,"cond_shown":"equaldotanddens","ratio_trial":750,"smaller_num":"18","larger_num":"24","correct_side":1,"subjID":"laurasofiasanchez","gender":"1","age":"9","school":"4"},{"start_time":1552056018419,"click_time":1552056020922,"finger_time":1552056020281,"fix_duration":814.3871452680011,"trial":40,"RT":1862,"MT":641,"sideResp":1,"stimulus":"img/900/randomdotsizeEA/R/11_Ratio_900_L_18_R_20.png","xmouse":[791,791,791,791,791,791,791,791,791,791,791,791,791,791,791,791,791,791,791,791,791,791,791,791,791,791,791,791,791,791,791,791,791,791,791,791,791,791,791,791,791,791,791,791,790,788,780,774,773,769,766,763,762,762,762,762,762,762,762,762,762,762,762,762,762,762,762,762,762,762,762,762,762,762,762,762,762,762,762,762,762,762,762,762,762,762,762,762,762,762,762,762,763,764,765,766,768,761,748,727,695,609,551,502,462,440,434,434,434,434,434,437,441,445,449,455,467,473,477,481,482,483,483,483,483,481],"ymouse":[619,619,619,619,619,619,619,619,619,619,619,619,619,619,619,619,619,619,619,619,619,619,619,619,619,619,619,619,619,619,619,619,619,619,619,619,619,619,619,619,619,619,619,619,619,617,606,597,595,587,583,578,577,577,577,577,577,577,577,577,577,577,577,577,577,577,577,577,577,577,577,577,577,577,577,577,577,577,577,577,577,577,577,577,577,577,577,577,577,577,577,576,574,572,570,567,541,512,483,442,395,296,252,219,203,199,199,199,199,198,196,193,190,187,184,180,169,157,148,140,129,124,119,112,100,87],"timestamp_mouse":[17,35,42,63,82,102,122,142,162,183,203,222,243,263,283,302,322,343,362,383,403,423,442,462,482,503,523,543,562,583,602,623,642,663,683,703,723,742,763,782,802,823,843,863,883,902,922,943,963,982,1002,1022,1043,1063,1083,1103,1123,1143,1163,1182,1202,1222,1242,1262,1283,1302,1322,1342,1363,1383,1402,1422,1442,1463,1483,1502,1522,1543,1563,1582,1601,1622,1642,1662,1683,1702,1722,1742,1762,1782,1803,1823,1842,1862,1882,1902,1922,1943,1962,1982,2002,2022,2042,2062,2083,2102,2123,2143,2163,2182,2203,2222,2242,2262,2282,2303,2323,2343,2362,2382,2403,2422,2442,2462,2483,2502],"xSR":741.5,"ySR":573.95,"xT1":424.9,"yT1":0,"xT2":1058.1,"yT2":0,"toosoon":0,"cond_shown":"randomdotsizeEA","ratio_trial":900,"smaller_num":"18","larger_num":"20","correct_side":2,"subjID":"laurasofiasanchez","gender":"1","age":"9","school":"4"},{"start_time":1552056022599,"click_time":1552056024145,"finger_time":1552056023341,"fix_duration":257.7341409468549,"trial":41,"RT":742,"MT":804,"sideResp":1,"stimulus":"img/750/equaldotanddens/L/13_Ratio_750_L_8_R_6.png","xmouse":[768,768,768,768,768,768,768,768,768,768,768,768,768,768,768,768,768,768,768,768,768,768,768,768,768,768,768,768,768,768,768,768,768,768,768,768,768,778,782,783,782,772,745,724,705,680,650,599,592,584,579,575,569,566,563,561,557,551,539,525,512,501,488,481,475,469,462,452,449,448,448,448,450,453,455,456,456,460],"ymouse":[633,633,633,633,633,633,633,633,633,633,633,633,633,633,633,633,633,633,633,633,633,633,633,633,633,633,633,633,633,633,633,633,632,629,624,616,604,565,547,524,498,467,400,361,331,304,276,242,237,232,229,225,219,215,212,209,204,195,188,178,169,163,155,154,153,152,151,150,148,148,146,142,133,126,116,106,102,94],"timestamp_mouse":[12,22,43,62,83,102,122,143,162,182,203,223,243,263,282,303,323,343,362,382,402,422,442,463,483,502,523,542,563,582,602,623,643,662,682,702,723,742,763,782,804,823,843,863,882,902,922,942,962,982,1002,1023,1042,1062,1082,1103,1128,1147,1167,1187,1206,1226,1246,1268,1287,1306,1327,1347,1368,1386,1407,1426,1447,1467,1487,1507,1526,1546],"xSR":741.5,"ySR":573.95,"xT1":424.9,"yT1":0,"xT2":1058.1,"yT2":0,"toosoon":0,"cond_shown":"equaldotanddens","ratio_trial":750,"smaller_num":"6","larger_num":"8","correct_side":1,"subjID":"laurasofiasanchez","gender":"1","age":"9","school":"4"},{"start_time":1552056025555,"click_time":1552056027407,"finger_time":1552056026526,"fix_duration":387.7769507377754,"trial":42,"RT":971,"MT":881,"sideResp":1,"stimulus":"img/500/randomdotsizeEA/L/7_Ratio_500_L_10_R_5.png","xmouse":[781,781,781,781,781,781,781,781,781,781,781,781,781,781,781,781,781,781,781,781,781,781,781,781,781,781,781,781,781,781,781,781,781,781,781,781,781,781,781,781,781,781,781,781,781,779,776,772,764,744,693,658,625,589,538,532,532,532,532,532,532,532,532,532,532,532,532,532,531,527,527,526,525,524,523,523,523,522,521,518,516,515,514,514,512,511,511,510,509,507,503,502,501],"ymouse":[622,622,622,622,622,622,622,622,622,622,622,622,622,622,622,622,622,622,622,622,622,622,622,622,622,622,622,622,622,622,622,622,622,622,622,622,622,622,622,622,622,622,622,620,619,610,601,587,569,529,432,371,313,263,207,201,199,199,199,196,195,194,192,191,180,175,169,166,159,152,150,148,147,145,142,141,139,137,136,131,129,127,126,124,121,119,117,116,114,110,102,100,99],"timestamp_mouse":[18,37,51,70,90,112,132,150,170,190,210,232,251,270,290,311,332,351,371,391,412,430,450,471,491,512,532,552,572,591,612,631,651,671,690,712,731,751,770,790,811,830,850,870,890,910,931,952,971,990,1010,1030,1052,1070,1091,1110,1131,1150,1171,1191,1210,1231,1250,1270,1291,1310,1332,1352,1372,1391,1411,1432,1451,1471,1491,1511,1530,1550,1570,1591,1610,1631,1652,1671,1691,1711,1732,1750,1770,1790,1811,1830,1852],"xSR":741.5,"ySR":573.95,"xT1":424.9,"yT1":0,"xT2":1058.1,"yT2":0,"toosoon":0,"cond_shown":"randomdotsizeEA","ratio_trial":500,"smaller_num":"5","larger_num":"10","correct_side":1,"subjID":"laurasofiasanchez","gender":"1","age":"9","school":"4"},{"start_time":1552056029631,"click_time":1552056031866,"finger_time":1552056030485,"fix_duration":482.9371392659657,"trial":43,"RT":854,"MT":1381,"sideResp":2,"stimulus":"img/750/randomdotsizeEA/L/14_Ratio_750_L_8_R_6.png","xmouse":[804,804,804,804,804,804,804,804,804,804,804,804,804,804,804,804,797,794,793,793,793,792,792,792,792,792,792,791,789,784,779,775,774,774,774,773,773,773,773,773,773,774,775,775,775,766,700,649,606,583,573,558,555,550,546,539,517,506,500,498,497,497,497,497,497,497,497,497,497,506,535,656,756,838,927,1014,1144,1171,1188,1190,1190,1169,1160,1136,1126,1117,1094,1080,1071,1068,1068,1068,1068,1068,1068,1068,1071,1074,1077,1078,1079,1079,1079,1079,1080,1084,1087,1087,1087,1087,1090,1091],"ymouse":[592,592,592,592,592,592,592,592,592,592,592,592,592,592,592,592,592,592,592,592,592,592,592,592,592,592,592,592,592,592,592,591,591,590,590,589,589,588,587,586,584,574,559,544,521,493,403,358,330,314,305,295,292,288,280,268,230,212,199,193,191,191,190,189,187,183,181,179,177,176,172,163,163,163,163,173,190,190,190,189,189,178,175,164,159,156,149,144,139,139,138,138,138,138,137,135,131,126,120,115,111,107,107,105,105,105,105,105,104,104,102,99],"timestamp_mouse":[15,35,54,75,96,115,136,155,174,195,214,235,256,275,295,315,335,354,375,394,415,436,454,474,496,516,535,554,576,594,614,634,656,675,695,714,734,754,774,796,814,834,854,875,895,915,934,955,974,994,1016,1035,1054,1074,1095,1114,1135,1155,1174,1194,1215,1235,1256,1275,1296,1316,1335,1354,1374,1394,1414,1434,1454,1474,1495,1514,1535,1556,1574,1595,1615,1635,1654,1674,1695,1716,1735,1755,1775,1795,1816,1836,1854,1874,1895,1916,1936,1955,1976,1996,2014,2034,2054,2075,2094,2115,2134,2154,2174,2195,2216,2235],"xSR":741.5,"ySR":573.95,"xT1":424.9,"yT1":0,"xT2":1058.1,"yT2":0,"toosoon":0,"cond_shown":"randomdotsizeEA","ratio_trial":750,"smaller_num":"6","larger_num":"8","correct_side":1,"subjID":"laurasofiasanchez","gender":"1","age":"9","school":"4"},{"start_time":1552056034275,"click_time":1552056035545,"finger_time":1552056035105,"fix_duration":1108.5851808071914,"trial":44,"RT":830,"MT":440,"sideResp":1,"stimulus":"img/250/randomdotsizeEA/L/14_Ratio_250_L_12_R_3.png","xmouse":[808,808,808,808,808,808,808,808,808,808,808,808,808,808,808,808,808,808,808,808,808,808,808,808,808,808,808,808,808,808,808,808,808,808,808,808,808,808,808,791,770,743,713,670,580,539,502,474,447,428,425,423,420,415,407,405,405,405,409,432,440,443,446,448],"ymouse":[621,621,621,621,621,621,621,621,621,621,621,621,621,621,621,621,621,621,621,621,621,621,621,621,621,621,621,621,621,621,621,621,621,621,621,621,621,621,620,604,590,572,545,504,425,387,354,327,306,289,284,278,267,253,224,209,194,175,158,117,108,105,101,98],"timestamp_mouse":[11,37,50,72,90,110,130,151,170,190,211,231,250,271,290,311,331,350,371,391,412,430,450,471,490,511,531,550,571,591,610,632,650,670,691,710,731,752,771,791,810,830,851,872,890,910,931,952,971,991,1012,1030,1051,1072,1090,1110,1131,1152,1172,1191,1210,1231,1250,1270],"xSR":741.5,"ySR":573.95,"xT1":424.9,"yT1":0,"xT2":1058.1,"yT2":0,"toosoon":0,"cond_shown":"randomdotsizeEA","ratio_trial":250,"smaller_num":"3","larger_num":"12","correct_side":1,"subjID":"laurasofiasanchez","gender":"1","age":"9","school":"4"},{"start_time":1552056037077,"click_time":1552056039006,"finger_time":1552056038325,"fix_duration":389.2580288581151,"trial":45,"RT":1248,"MT":681,"sideResp":2,"stimulus":"img/900/equaldotsize/R/14_Ratio_900_L_18_R_20.png","xmouse":[784,784,784,784,784,784,784,784,784,784,784,784,784,784,784,784,784,784,784,784,784,784,784,784,784,784,784,784,784,784,784,784,784,784,784,784,784,784,784,784,784,784,784,784,784,784,784,784,784,784,784,785,786,789,793,794,796,797,800,801,811,828,876,939,1017,1129,1157,1169,1172,1165,1150,1137,1129,1124,1119,1119,1119,1123,1129,1134,1139,1140,1140,1140,1140,1140,1138,1134,1130,1126,1118,1114,1109,1105,1094,1089,1085],"ymouse":[634,634,634,634,634,634,634,634,634,634,634,634,634,634,634,634,634,634,634,634,634,634,634,634,634,634,634,634,634,634,634,634,634,634,634,634,634,634,634,634,634,634,634,634,634,634,634,634,634,632,629,627,624,621,617,616,613,613,608,604,589,576,549,514,471,392,361,340,325,310,308,305,301,295,279,272,266,257,242,230,215,210,206,204,201,199,197,191,186,180,169,162,153,141,119,107,99],"timestamp_mouse":[10,35,48,68,88,108,130,149,169,188,209,229,250,270,289,308,328,350,368,389,409,428,450,470,489,509,530,548,569,590,609,629,650,668,689,709,730,749,769,788,808,829,849,869,890,909,930,948,969,990,1009,1030,1050,1068,1089,1110,1129,1150,1168,1188,1209,1230,1248,1270,1288,1308,1329,1348,1369,1389,1408,1429,1449,1469,1489,1509,1529,1549,1570,1588,1609,1629,1650,1670,1689,1709,1728,1748,1769,1788,1808,1828,1848,1868,1889,1909,1929],"xSR":741.5,"ySR":573.95,"xT1":424.9,"yT1":0,"xT2":1058.1,"yT2":0,"toosoon":0,"cond_shown":"equaldotsize","ratio_trial":900,"smaller_num":"18","larger_num":"20","correct_side":2,"subjID":"laurasofiasanchez","gender":"1","age":"9","school":"4"},{"start_time":1552056042580,"click_time":1552056043885,"finger_time":1552056043265,"fix_duration":851.1363933375045,"trial":46,"RT":685,"MT":620,"sideResp":1,"stimulus":"img/750/equaldotsize/L/1_Ratio_750_L_20_R_15.png","xmouse":[831,831,831,831,831,831,831,831,831,831,831,831,831,831,831,831,831,831,831,831,831,831,831,831,831,831,831,831,831,831,831,825,805,785,760,701,670,637,610,592,575,574,574,574,574,573,571,567,566,563,559,556,553,550,546,538,537,536,536,536,534,531,529,529,528,521],"ymouse":[622,622,622,622,622,622,622,622,622,622,622,622,622,622,622,622,622,622,622,622,622,622,622,622,622,622,622,622,622,622,622,620,611,596,572,498,454,405,364,335,268,248,234,226,219,205,196,183,171,161,148,145,140,137,130,117,114,112,112,112,109,105,104,102,101,96],"timestamp_mouse":[11,31,46,65,87,105,126,145,165,186,205,226,246,265,285,307,326,345,366,387,406,426,445,467,486,505,527,545,567,585,606,626,646,666,685,705,725,745,765,786,806,826,846,866,887,906,926,946,966,985,1005,1026,1045,1065,1085,1105,1127,1146,1166,1185,1205,1227,1246,1266,1285,1305],"xSR":741.5,"ySR":573.95,"xT1":424.9,"yT1":0,"xT2":1058.1,"yT2":0,"toosoon":0,"cond_shown":"equaldotsize","ratio_trial":750,"smaller_num":"15","larger_num":"20","correct_side":1,"subjID":"laurasofiasanchez","gender":"1","age":"9","school":"4"},{"start_time":1552056045469,"click_time":1552056047386,"finger_time":1552056046427,"fix_duration":680.8443386890772,"trial":47,"RT":958,"MT":959,"sideResp":2,"stimulus":"img/750/randomdotsizeEA/L/1_Ratio_750_L_20_R_15.png","xmouse":[781,781,781,781,781,781,781,781,781,781,781,781,781,781,781,781,781,781,781,781,781,781,781,781,781,781,781,781,781,781,781,781,781,781,781,781,781,781,781,781,781,783,784,786,789,794,794,797,798,798,790,779,768,757,742,724,720,719,719,720,741,753,762,766,767,768,768,767,764,762,761,762,771,789,871,954,966,971,971,971,971,971,971,971,973,984,992,998,1010,1020,1033,1062,1080,1085,1085,1078],"ymouse":[650,650,650,650,650,650,650,650,650,650,650,650,650,650,650,650,650,650,650,650,650,650,650,650,650,650,650,