[{"start_time":1552055027217,"click_time":1552055028403,"finger_time":1552055028183,"fix_duration":250,"trial":0,"RT":966,"MT":220,"sideResp":2,"stimulus":"img/750/equaldotsize/L/13_Ratio_750_L_8_R_6.png","xmouse":[771,771,771,771,771,771,771,773,775,788,791,793,794,794,794,794,794,794,794,794,794,794,794,794,794,794,794,794,794,794,794,794,794,794,794,794,794,795,795,795,795,796,796,796,798,804,814,825,852,902,927,942,951,966,976,989,1005,1031,1071,1079],"ymouse":[569,569,569,569,569,569,569,561,555,518,506,500,498,498,498,498,498,498,498,498,498,498,498,498,498,503,508,510,510,510,510,510,510,510,510,510,510,511,511,511,511,511,511,511,511,509,502,490,464,415,382,347,320,270,249,228,205,168,103,78],"timestamp_mouse":[8,28,45,65,87,106,126,147,166,186,206,227,247,266,286,307,327,346,365,387,407,426,446,466,485,505,527,547,567,586,605,625,647,665,686,706,725,745,766,787,806,826,845,867,886,906,927,947,966,986,1006,1026,1046,1066,1085,1105,1126,1147,1167,1185],"xSR":741.5,"ySR":469.95,"xT1":424.9,"yT1":0,"xT2":1058.1,"yT2":0,"toosoon":0,"cond_shown":"equaldotsize","ratio_trial":750,"smaller_num":"6","larger_num":"8","correct_side":1,"subjID":"AnaDaza","gender":"9","age":"9","school":"4","test":{"fix_dur":[250,1500],"timestim":300,"targets_dim":[100,100],"targets_relative_coord":[0.3,0.7],"size_stim":[880,420],"start_dim":[100,100],"size_start":[300,300],"size_fix":60,"samplingrate":20,"img_types":["equaldotsize","equaldotanddens","randomdotsizeEA"],"ratios":[250,500,750,900],"rep_conds":9,"nTrials":120,"trials_to_rest":500,"Trials_order":[6,17,10,99,46,52,22,16,104,9,89,21,14,102,111,31,25,54,8,7,85,55,41,19,81,84,53,28,94,76,35,82,58,56,109,106,40,108,98,69,65,4,15,115,33,18,93,48,97,68,13,101,20,116,32,1,64,3,34,62,37,70,67,80,42,61,78,92,112,117,24,72,2,74,66,105,75,59,71,100,87,118,36,39,23,47,43,44,12,30,88,57,45,119,49,38,29,83,27,110,5,73,90,114,79,91,11,103,77,86,96,50,63,0,95,107,60,51,113,26],"cond_shown":["equaldotsize","randomdotsizeEA","equaldotanddens","equaldotsize","equaldotanddens","equaldotanddens","equaldotanddens","equaldotanddens","randomdotsizeEA","equaldotsize","randomdotsizeEA","equaldotsize","randomdotsizeEA","equaldotsize","equaldotsize","equaldotanddens","equaldotanddens","equaldotsize","randomdotsizeEA","equaldotanddens","equaldotanddens","equaldotanddens","randomdotsizeEA","equaldotanddens","equaldotsize","equaldotsize","randomdotsizeEA","equaldotanddens","equaldotanddens","equaldotanddens","randomdotsizeEA","equaldotanddens","equaldotanddens","randomdotsizeEA","equaldotanddens","equaldotanddens","equaldotanddens","equaldotsize","randomdotsizeEA","equaldotsize","randomdotsizeEA","equaldotanddens","equaldotsize","equaldotanddens","equaldotsize","equaldotsize","equaldotsize","equaldotsize","equaldotanddens","randomdotsizeEA","equaldotanddens","randomdotsizeEA","randomdotsizeEA","randomdotsizeEA","randomdotsizeEA","equaldotanddens","equaldotanddens","equaldotsize","equaldotanddens","randomdotsizeEA","equaldotanddens","equaldotanddens","equaldotanddens","randomdotsizeEA","equaldotsize","equaldotanddens","equaldotsize","randomdotsizeEA","equaldotanddens","equaldotsize","equaldotsize","equaldotsize","randomdotsizeEA","randomdotsizeEA","equaldotsize","equaldotsize","equaldotsize","randomdotsizeEA","randomdotsizeEA","equaldotanddens","equaldotsize","equaldotanddens","equaldotsize","equaldotsize","randomdotsizeEA","randomdotsizeEA","equaldotanddens","randomdotsizeEA","equaldotsize","equaldotsize","equaldotanddens","equaldotsize","equaldotsize","randomdotsizeEA","equaldotanddens","randomdotsizeEA","randomdotsizeEA","randomdotsizeEA","equaldotsize","randomdotsizeEA","randomdotsizeEA","equaldotanddens","equaldotsize","equaldotsize","equaldotanddens","equaldotanddens","randomdotsizeEA","equaldotanddens","randomdotsizeEA","randomdotsizeEA","equaldotsize","randomdotsizeEA","equaldotsize","equaldotsize","randomdotsizeEA","randomdotsizeEA","equaldotsize","equaldotsize","randomdotsizeEA","randomdotsizeEA"],"ratio_trial":[750,500,900,500,900,500,900,500,750,900,500,900,250,750,500,750,250,750,750,750,250,750,500,750,900,250,500,500,900,500,900,900,900,750,250,900,500,250,250,900,500,500,500,750,900,750,900,250,250,750,250,500,750,750,750,250,500,500,900,250,250,900,750,750,750,250,750,750,500,900,250,250,250,250,750,900,500,900,900,500,500,900,250,500,900,900,750,750,250,750,500,900,900,900,250,250,500,900,500,250,500,250,750,750,750,750,900,750,500,250,250,250,500,250,900,900,250,500,500,250],"smaller_num":["6","6","18","2","18","9","9","2","3","18","9","18","3","18","9","6","5","15","3","6","1","6","2","6","9","3","3","1","18","9","18","9","18","3","6","9","1","6","4","18","4","10","4","6","18","15","18","2","3","15","6","9","3","6","18","2","1","1","18","6","2","9","18","3","3","2","3","12","9","9","2","2","3","3","3","9","5","9","18","1","1","18","2","9","18","9","18","6","2","9","9","18","9","18","6","4","1","9","6","2","2","2","12","18","9","12","9","3","5","2","1","2","3","4","9","18","2","5","2","2"],"larger_num":["8","12","20","4","20","18","10","4","4","20","18","20","12","24","18","8","20","20","4","8","4","8","4","8","10","12","6","2","20","18","20","10","20","4","24","10","2","24","16","20","8","20","8","8","20","20","20","8","12","20","24","18","4","8","24","8","2","2","20","24","8","10","24","4","4","8","4","16","18","10","8","8","12","12","4","10","10","10","20","2","2","20","8","18","20","10","24","8","8","12","18","20","10","20","24","16","2","10","12","8","4","8","16","24","12","16","10","4","10","8","4","8","6","16","10","20","8","10","4","8"],"correct_side":[1,1,1,2,1,2,2,1,1,1,2,1,2,1,1,1,2,2,1,1,2,1,1,1,2,2,2,2,1,2,2,1,2,2,2,2,2,2,1,2,1,2,1,2,2,2,1,1,1,1,1,1,2,2,1,2,2,2,2,2,1,2,1,2,1,2,1,2,1,2,2,1,2,1,2,2,2,2,1,2,2,2,1,1,2,2,1,1,1,2,2,2,1,2,1,1,2,2,1,1,2,1,2,1,2,2,2,1,2,1,2,1,2,2,1,1,1,2,1,1],"img_shown":["img/750/equaldotsize/L/13_Ratio_750_L_8_R_6.png","img/500/randomdotsizeEA/L/13_Ratio_500_L_12_R_6.png","img/900/equaldotanddens/L/4_Ratio_900_L_20_R_18.png","img/500/equaldotsize/R/9_Ratio_500_L_2_R_4.png","img/900/equaldotanddens/L/8_Ratio_900_L_20_R_18.png","img/500/equaldotanddens/R/6_Ratio_500_L_9_R_18.png","img/900/equaldotanddens/R/7_Ratio_900_L_9_R_10.png","img/500/equaldotanddens/L/10_Ratio_500_L_4_R_2.png","img/750/randomdotsizeEA/L/9_Ratio_750_L_4_R_3.png","img/900/equaldotsize/L/2_Ratio_900_L_20_R_18.png","img/500/randomdotsizeEA/R/1_Ratio_500_L_9_R_18.png","img/900/equaldotsize/L/2_Ratio_900_L_20_R_18.png","img/250/randomdotsizeEA/R/9_Ratio_250_L_3_R_12.png","img/750/equaldotsize/L/6_Ratio_750_L_24_R_18.png","img/500/equaldotsize/L/4_Ratio_500_L_18_R_9.png","img/750/equaldotanddens/L/14_Ratio_750_L_8_R_6.png","img/250/equaldotanddens/R/12_Ratio_250_L_5_R_20.png","img/750/equaldotsize/R/4_Ratio_750_L_15_R_20.png","img/750/randomdotsizeEA/L/9_Ratio_750_L_4_R_3.png","img/750/equaldotanddens/L/13_Ratio_750_L_8_R_6.png","img/250/equaldotanddens/R/8_Ratio_250_L_1_R_4.png","img/750/equaldotanddens/L/13_Ratio_750_L_8_R_6.png","img/500/randomdotsizeEA/L/10_Ratio_500_L_4_R_2.png","img/750/equaldotanddens/L/14_Ratio_750_L_8_R_6.png","img/900/equaldotsize/R/5_Ratio_900_L_9_R_10.png","img/250/equaldotsize/R/11_Ratio_250_L_3_R_12.png","img/500/randomdotsizeEA/R/2_Ratio_500_L_3_R_6.png","img/500/equaldotanddens/R/15_Ratio_500_L_1_R_2.png","img/900/equaldotanddens/L/10_Ratio_900_L_20_R_18.png","img/500/equaldotanddens/R/1_Ratio_500_L_9_R_18.png","img/900/randomdotsizeEA/R/14_Ratio_900_L_18_R_20.png","img/900/equaldotanddens/L/1_Ratio_900_L_10_R_9.png","img/900/equaldotanddens/R/12_Ratio_900_L_18_R_20.png","img/750/randomdotsizeEA/R/7_Ratio_750_L_3_R_4.png","img/250/equaldotanddens/R/6_Ratio_250_L_6_R_24.png","img/900/equaldotanddens/R/3_Ratio_900_L_9_R_10.png","img/500/equaldotanddens/R/12_Ratio_500_L_1_R_2.png","img/250/equaldotsize/R/6_Ratio_250_L_6_R_24.png","img/250/randomdotsizeEA/L/2_Ratio_250_L_16_R_4.png","img/900/equaldotsize/R/13_Ratio_900_L_18_R_20.png","img/500/randomdotsizeEA/L/8_Ratio_500_L_8_R_4.png","img/500/equaldotanddens/R/3_Ratio_500_L_10_R_20.png","img/500/equaldotsize/L/8_Ratio_500_L_8_R_4.png","img/750/equaldotanddens/R/2_Ratio_750_L_6_R_8.png","img/900/equaldotsize/R/9_Ratio_900_L_18_R_20.png","img/750/equaldotsize/R/3_Ratio_750_L_15_R_20.png","img/900/equaldotsize/L/10_Ratio_900_L_20_R_18.png","img/250/equaldotsize/L/1_Ratio_250_L_8_R_2.png","img/250/equaldotanddens/L/15_Ratio_250_L_12_R_3.png","img/750/randomdotsizeEA/L/1_Ratio_750_L_20_R_15.png","img/250/equaldotanddens/L/5_Ratio_250_L_24_R_6.png","img/500/randomdotsizeEA/L/4_Ratio_500_L_18_R_9.png","img/750/randomdotsizeEA/R/7_Ratio_750_L_3_R_4.png","img/750/randomdotsizeEA/R/2_Ratio_750_L_6_R_8.png","img/750/randomdotsizeEA/L/6_Ratio_750_L_24_R_18.png","img/250/equaldotanddens/R/13_Ratio_250_L_2_R_8.png","img/500/equaldotanddens/R/12_Ratio_500_L_1_R_2.png","img/500/equaldotsize/R/15_Ratio_500_L_1_R_2.png","img/900/equaldotanddens/R/11_Ratio_900_L_18_R_20.png","img/250/randomdotsizeEA/R/6_Ratio_250_L_6_R_24.png","img/250/equaldotanddens/L/3_Ratio_250_L_8_R_2.png","img/900/equaldotanddens/R/3_Ratio_900_L_9_R_10.png","img/750/equaldotanddens/L/6_Ratio_750_L_24_R_18.png","img/750/randomdotsizeEA/R/12_Ratio_750_L_3_R_4.png","img/750/equaldotsize/L/8_Ratio_750_L_4_R_3.png","img/250/equaldotanddens/R/13_Ratio_250_L_2_R_8.png","img/750/equaldotsize/L/8_Ratio_750_L_4_R_3.png","img/750/randomdotsizeEA/R/11_Ratio_750_L_12_R_16.png","img/500/equaldotanddens/L/4_Ratio_500_L_18_R_9.png","img/900/equaldotsize/R/5_Ratio_900_L_9_R_10.png","img/250/equaldotsize/R/13_Ratio_250_L_2_R_8.png","img/250/equaldotsize/L/3_Ratio_250_L_8_R_2.png","img/250/randomdotsizeEA/R/9_Ratio_250_L_3_R_12.png","img/250/randomdotsizeEA/L/15_Ratio_250_L_12_R_3.png","img/750/equaldotsize/R/7_Ratio_750_L_3_R_4.png","img/900/equaldotsize/R/5_Ratio_900_L_9_R_10.png","img/500/equaldotsize/R/14_Ratio_500_L_5_R_10.png","img/900/randomdotsizeEA/R/5_Ratio_900_L_9_R_10.png","img/900/randomdotsizeEA/L/4_Ratio_900_L_20_R_18.png","img/500/equaldotanddens/R/12_Ratio_500_L_1_R_2.png","img/500/equaldotsize/R/12_Ratio_500_L_1_R_2.png","img/900/equaldotanddens/R/13_Ratio_900_L_18_R_20.png","img/250/equaldotsize/L/7_Ratio_250_L_8_R_2.png","img/500/equaldotsize/L/4_Ratio_500_L_18_R_9.png","img/900/randomdotsizeEA/R/14_Ratio_900_L_18_R_20.png","img/900/randomdotsizeEA/R/3_Ratio_900_L_9_R_10.png","img/750/equaldotanddens/L/6_Ratio_750_L_24_R_18.png","img/750/randomdotsizeEA/L/13_Ratio_750_L_8_R_6.png","img/250/equaldotsize/L/1_Ratio_250_L_8_R_2.png","img/750/equaldotsize/R/15_Ratio_750_L_9_R_12.png","img/500/equaldotanddens/R/1_Ratio_500_L_9_R_18.png","img/900/equaldotsize/R/12_Ratio_900_L_18_R_20.png","img/900/equaldotsize/L/1_Ratio_900_L_10_R_9.png","img/900/randomdotsizeEA/R/9_Ratio_900_L_18_R_20.png","img/250/equaldotanddens/L/5_Ratio_250_L_24_R_6.png","img/250/randomdotsizeEA/L/2_Ratio_250_L_16_R_4.png","img/500/randomdotsizeEA/R/15_Ratio_500_L_1_R_2.png","img/900/randomdotsizeEA/R/5_Ratio_900_L_9_R_10.png","img/500/equaldotsize/L/11_Ratio_500_L_12_R_6.png","img/250/randomdotsizeEA/L/1_Ratio_250_L_8_R_2.png","img/500/randomdotsizeEA/R/9_Ratio_500_L_2_R_4.png","img/250/equaldotanddens/L/3_Ratio_250_L_8_R_2.png","img/750/equaldotsize/R/11_Ratio_750_L_12_R_16.png","img/750/equaldotsize/L/6_Ratio_750_L_24_R_18.png","img/750/equaldotanddens/R/15_Ratio_750_L_9_R_12.png","img/750/equaldotanddens/R/11_Ratio_750_L_12_R_16.png","img/900/randomdotsizeEA/R/6_Ratio_900_L_9_R_10.png","img/750/equaldotanddens/L/10_Ratio_750_L_4_R_3.png","img/500/randomdotsizeEA/R/14_Ratio_500_L_5_R_10.png","img/250/randomdotsizeEA/L/3_Ratio_250_L_8_R_2.png","img/250/equaldotsize/R/8_Ratio_250_L_1_R_4.png","img/250/randomdotsizeEA/L/7_Ratio_250_L_8_R_2.png","img/500/equaldotsize/R/2_Ratio_500_L_3_R_6.png","img/250/equaldotsize/R/10_Ratio_250_L_4_R_16.png","img/900/randomdotsizeEA/L/1_Ratio_900_L_10_R_9.png","img/900/randomdotsizeEA/L/8_Ratio_900_L_20_R_18.png","img/250/equaldotsize/L/7_Ratio_250_L_8_R_2.png","img/500/equaldotsize/R/14_Ratio_500_L_5_R_10.png","img/500/randomdotsizeEA/L/10_Ratio_500_L_4_R_2.png","img/250/randomdotsizeEA/L/7_Ratio_250_L_8_R_2.png"],"Rat0":[["12_Ratio_0_L_9_R_0.png","13_Ratio_0_L_6_R_0.png","5_Ratio_0_L_2_R_0.png","6_Ratio_0_L_4_R_0.png","8_Ratio_0_L_6_R_0.png"],["1_Ratio_0_L_0_R_17.png","10_Ratio_0_L_0_R_22.png","11_Ratio_0_L_0_R_1.png","14_Ratio_0_L_0_R_24.png","15_Ratio_0_L_0_R_4.png","2_Ratio_0_L_0_R_5.png","3_Ratio_0_L_0_R_17.png","4_Ratio_0_L_0_R_7.png","7_Ratio_0_L_0_R_19.png","9_Ratio_0_L_0_R_15.png"]],"Rat250":[["1_Ratio_250_L_8_R_2.png","14_Ratio_250_L_12_R_3.png","15_Ratio_250_L_12_R_3.png","2_Ratio_250_L_16_R_4.png","3_Ratio_250_L_8_R_2.png","5_Ratio_250_L_24_R_6.png","7_Ratio_250_L_8_R_2.png"],["10_Ratio_250_L_4_R_16.png","11_Ratio_250_L_3_R_12.png","12_Ratio_250_L_5_R_20.png","13_Ratio_250_L_2_R_8.png","4_Ratio_250_L_3_R_12.png","6_Ratio_250_L_6_R_24.png","8_Ratio_250_L_1_R_4.png","9_Ratio_250_L_3_R_12.png"]],"Rat500":[["10_Ratio_500_L_4_R_2.png","11_Ratio_500_L_12_R_6.png","13_Ratio_500_L_12_R_6.png","4_Ratio_500_L_18_R_9.png","5_Ratio_500_L_4_R_2.png","7_Ratio_500_L_10_R_5.png","8_Ratio_500_L_8_R_4.png"],["1_Ratio_500_L_9_R_18.png","12_Ratio_500_L_1_R_2.png","14_Ratio_500_L_5_R_10.png","15_Ratio_500_L_1_R_2.png","2_Ratio_500_L_3_R_6.png","3_Ratio_500_L_10_R_20.png","6_Ratio_500_L_9_R_18.png","9_Ratio_500_L_2_R_4.png"]],"Rat750":[["1_Ratio_750_L_20_R_15.png","10_Ratio_750_L_4_R_3.png","13_Ratio_750_L_8_R_6.png","14_Ratio_750_L_8_R_6.png","6_Ratio_750_L_24_R_18.png","8_Ratio_750_L_4_R_3.png","9_Ratio_750_L_4_R_3.png"],["11_Ratio_750_L_12_R_16.png","12_Ratio_750_L_3_R_4.png","15_Ratio_750_L_9_R_12.png","2_Ratio_750_L_6_R_8.png","3_Ratio_750_L_15_R_20.png","4_Ratio_750_L_15_R_20.png","5_Ratio_750_L_15_R_20.png","7_Ratio_750_L_3_R_4.png"]],"Rat900":[["1_Ratio_900_L_10_R_9.png","10_Ratio_900_L_20_R_18.png","2_Ratio_900_L_20_R_18.png","4_Ratio_900_L_20_R_18.png","8_Ratio_900_L_20_R_18.png"],["11_Ratio_900_L_18_R_20.png","12_Ratio_900_L_18_R_20.png","13_Ratio_900_L_18_R_20.png","14_Ratio_900_L_18_R_20.png","15_Ratio_900_L_9_R_10.png","3_Ratio_900_L_9_R_10.png","5_Ratio_900_L_9_R_10.png","6_Ratio_900_L_9_R_10.png","7_Ratio_900_L_9_R_10.png","9_Ratio_900_L_18_R_20.png"]],"Rat1000":[["10_Ratio_1000_L_16_R_16.png","11_Ratio_1000_L_6_R_6.png","12_Ratio_1000_L_14_R_14.png","13_Ratio_1000_L_20_R_20.png","15_Ratio_1000_L_15_R_15.png","2_Ratio_1000_L_17_R_17.png","4_Ratio_1000_L_9_R_9.png","5_Ratio_1000_L_6_R_6.png","6_Ratio_1000_L_19_R_19.png","8_Ratio_1000_L_14_R_14.png","9_Ratio_1000_L_25_R_25.png"],["1_Ratio_1000_L_1_R_1.png","14_Ratio_1000_L_17_R_17.png","3_Ratio_1000_L_17_R_17.png","7_Ratio_1000_L_6_R_6.png"]]}},{"start_time":1552055031711,"click_time":1552055033164,"finger_time":1552055032483,"fix_duration":446.91462979490194,"trial":1,"RT":772,"MT":681,"sideResp":1,"stimulus":"img/500/randomdotsizeEA/L/13_Ratio_500_L_12_R_6.png","xmouse":[796,795,795,795,795,795,795,795,795,795,795,795,795,795,795,795,795,795,795,795,795,795,795,795,795,795,795,795,795,795,795,795,795,795,795,795,795,793,783,776,766,760,755,750,743,741,739,738,738,736,729,717,707,692,683,675,662,642,613,607,605,603,598,596,591,585,578,572,563,546,537,528,517],"ymouse":[489,489,489,489,489,489,489,489,489,489,489,489,489,489,489,489,489,489,489,489,489,489,489,489,489,489,489,489,489,489,489,489,489,489,489,489,489,477,436,404,364,325,295,266,208,196,191,190,190,189,186,179,173,166,163,159,152,141,124,119,117,116,112,110,104,99,90,84,77,67,63,61,58],"timestamp_mouse":[11,36,51,71,93,111,132,152,173,193,212,232,252,273,292,312,333,352,372,391,412,433,453,472,492,511,533,552,572,592,613,632,651,673,693,712,733,752,772,792,812,832,852,871,892,912,933,951,972,991,1013,1033,1052,1072,1091,1111,1133,1152,1173,1192,1212,1233,1252,1272,1293,1312,1332,1352,1371,1391,1412,1432,1452],"xSR":741.5,"ySR":469.95,"xT1":424.9,"yT1":0,"xT2":1058.1,"yT2":0,"toosoon":0,"cond_shown":"randomdotsizeEA","ratio_trial":500,"smaller_num":"6","larger_num":"12","correct_side":1,"subjID":"AnaDaza","gender":"9","age":"9","school":"4"},{"start_time":1552055036576,"click_time":1552055038123,"finger_time":1552055037383,"fix_duration":1490.1026658747458,"trial":2,"RT":807,"MT":740,"sideResp":1,"stimulus":"img/900/equaldotanddens/L/4_Ratio_900_L_20_R_18.png","xmouse":[773,773,773,773,773,773,773,773,773,773,773,773,773,774,774,774,774,774,774,774,774,774,774,774,774,774,774,774,774,774,774,774,774,774,774,774,774,774,774,777,775,764,756,752,748,744,744,742,738,728,714,679,671,665,661,657,647,639,632,627,617,606,600,599,599,600,600,600,594,587,569,564,562,561,557,538,528,513],"ymouse":[501,501,501,501,501,501,501,501,501,501,501,501,501,502,502,502,502,502,502,502,502,502,502,502,502,502,502,502,502,502,502,502,502,502,502,502,502,502,502,488,452,411,391,376,367,361,361,358,354,338,318,269,259,250,246,243,236,229,224,218,205,185,172,166,162,157,154,148,135,120,94,88,86,85,84,78,75,73],"timestamp_mouse":[10,36,47,68,87,107,127,146,167,188,207,227,247,267,286,306,326,347,367,388,407,427,447,468,488,506,527,547,567,587,607,627,648,667,687,707,728,747,767,788,807,826,847,866,887,908,927,947,968,987,1007,1028,1046,1067,1087,1106,1126,1146,1168,1188,1208,1226,1247,1268,1287,1307,1327,1347,1368,1388,1408,1426,1447,1467,1487,1508,1526,1547],"xSR":741.5,"ySR":469.95,"xT1":424.9,"yT1":0,"xT2":1058.1,"yT2":0,"toosoon":0,"cond_shown":"equaldotanddens","ratio_trial":900,"smaller_num":"18","larger_num":"20","correct_side":1,"subjID":"AnaDaza","gender":"9","age":"9","school":"4"},{"start_time":1552055040725,"click_time":1552055042684,"finger_time":1552055041984,"fix_duration":1220.826277263359,"trial":3,"RT":1259,"MT":700,"sideResp":2,"stimulus":"img/500/equaldotsize/R/9_Ratio_500_L_2_R_4.png","xmouse":[789,789,789,789,789,789,789,789,789,789,789,789,789,789,789,789,789,789,789,790,791,794,795,798,799,799,799,799,799,801,802,804,805,807,808,809,809,809,809,809,809,809,809,809,809,809,809,809,809,809,809,809,809,809,809,809,809,811,820,823,827,834,843,868,883,894,903,916,928,938,950,967,990,1064,1082,1095,1107,1117,1118,1120,1129,1143,1156,1162,1164,1173,1181,1187,1188,1188,1188,1188,1188,1188,1185,1177,1162,1136],"ymouse":[502,502,502,502,502,502,502,502,502,502,502,502,502,502,502,502,502,502,502,502,502,502,502,502,502,502,502,502,502,502,502,502,502,501,501,500,500,500,500,500,500,500,500,500,500,500,500,500,500,500,500,500,500,500,500,500,500,499,493,491,488,483,476,457,444,431,421,402,391,380,365,351,336,279,264,250,239,234,233,233,227,217,205,195,188,170,146,114,103,95,92,91,91,91,91,89,85,78],"timestamp_mouse":[19,38,58,78,99,118,138,158,178,197,217,239,258,278,297,317,337,357,379,398,417,439,458,479,498,517,539,558,577,598,618,637,658,679,698,718,738,759,778,798,819,837,857,879,898,919,937,957,977,998,1017,1038,1059,1079,1098,1118,1138,1158,1181,1198,1217,1238,1259,1279,1298,1318,1339,1358,1377,1397,1418,1439,1458,1478,1498,1519,1538,1559,1577,1598,1617,1638,1658,1679,1698,1719,1738,1759,1777,1798,1819,1838,1858,1877,1897,1917,1937,1959],"xSR":741.5,"ySR":469.95,"xT1":424.9,"yT1":0,"xT2":1058.1,"yT2":0,"toosoon":0,"cond_shown":"equaldotsize","ratio_trial":500,"smaller_num":"2","larger_num":"4","correct_side":2,"subjID":"AnaDaza","gender":"9","age":"9","school":"4"},{"start_time":1552055058212,"click_time":1552055059662,"finger_time":1552055059203,"fix_duration":367.48541086419107,"trial":4,"RT":991,"MT":459,"sideResp":1,"stimulus":"img/900/equaldotanddens/L/8_Ratio_900_L_20_R_18.png","xmouse":[794,794,794,794,794,794,794,794,794,794,794,794,794,794,794,794,794,794,794,794,794,794,796,798,798,798,798,798,798,798,798,798,798,798,798,798,798,798,798,798,798,798,798,799,796,794,788,781,772,729,705,676,646,622,577,553,528,501,481,445,439,435,431,423,422,417,414,414,426,434,435,435,430],"ymouse":[550,550,550,550,550,550,550,550,550,550,550,550,550,550,550,550,550,550,550,550,550,549,549,549,549,549,549,549,549,549,549,549,549,549,549,549,549,549,549,549,549,549,549,548,540,532,520,507,494,453,437,421,403,388,361,350,341,331,322,297,291,287,281,270,267,254,237,221,184,149,130,113,96],"timestamp_mouse":[11,34,50,70,90,110,132,150,171,192,211,232,250,271,291,312,331,351,370,392,411,431,451,470,491,512,531,551,571,590,610,631,651,671,691,710,732,751,771,792,811,830,851,871,891,911,931,951,970,991,1010,1032,1051,1070,1090,1111,1131,1151,1171,1191,1211,1232,1250,1272,1290,1310,1331,1352,1371,1391,1411,1431,1450],"xSR":741.5,"ySR":469.95,"xT1":424.9,"yT1":0,"xT2":1058.1,"yT2":0,"toosoon":0,"cond_shown":"equaldotanddens","ratio_trial":900,"smaller_num":"18","larger_num":"20","correct_side":1,"subjID":"AnaDaza","gender":"9","age":"9","school":"4"},{"start_time":1552055062908,"click_time":1552055064663,"finger_time":1552055063784,"fix_duration":784.8889156993635,"trial":5,"RT":876,"MT":879,"sideResp":2,"stimulus":"img/500/equaldotanddens/R/6_Ratio_500_L_9_R_18.png","xmouse":[777,777,777,777,777,777,777,777,777,777,777,777,777,777,777,777,777,777,777,777,777,777,777,777,777,777,777,777,777,777,777,777,777,777,777,777,777,777,777,777,779,786,805,866,882,894,903,911,922,927,930,932,935,937,940,943,945,949,953,964,970,973,975,976,985,997,1013,1023,1028,1030,1030,1030,1030,1030,1031,1033,1039,1043,1047,1047,1047,1048,1048,1048,1048,1049,1054,1059],"ymouse":[512,512,512,512,512,512,512,512,512,512,512,512,512,512,512,512,512,512,512,512,512,512,512,512,512,512,512,512,512,512,512,512,512,512,512,512,512,512,512,512,505,498,480,412,384,354,322,287,237,219,204,193,186,178,171,166,159,150,140,115,106,101,98,97,96,94,92,90,90,90,90,90,90,90,90,89,88,87,87,87,87,86,86,86,86,86,86,85],"timestamp_mouse":[14,39,55,74,95,116,134,154,176,194,214,235,255,274,296,316,335,355,374,395,414,436,456,475,495,516,535,556,575,595,614,635,655,674,694,716,735,756,776,795,815,835,856,876,894,915,935,954,976,994,1015,1035,1055,1076,1094,1115,1134,1154,1175,1195,1215,1235,1255,1274,1294,1314,1336,1355,1374,1394,1415,1435,1455,1474,1494,1515,1534,1556,1575,1594,1615,1634,1655,1675,1695,1714,1735,1754],"xSR":741.5,"ySR":469.95,"xT1":424.9,"yT1":0,"xT2":1058.1,"yT2":0,"toosoon":0,"cond_shown":"equaldotanddens","ratio_trial":500,"smaller_num":"9","larger_num":"18","correct_side":2,"subjID":"AnaDaza","gender":"9","age":"9","school":"4"},{"start_time":1552055069575,"click_time":1552055076483,"finger_time":1552055071783,"fix_duration":1471.993716750464,"trial":6,"RT":2208,"MT":4700,"sideResp":1,"stimulus":"img/900/equaldotanddens/R/7_Ratio_900_L_9_R_10.png","xmouse":[776,776,776,776,776,776,776,776,776,776,776,776,776,776,776,776,776,776,776,776,776,776,776,776,777,777,777,778,778,778,778,778,778,778,778,778,778,778,778,778,778,778,778,778,778,778,778,778,778,778,778,778,778,778,778,778,778,778,778,778,778,778,778,778,778,778,778,778,778,778,778,778,778,778,778,778,778,778,778,778,778,778,778,778,778,778,778,778,778,778,778,778,778,778,778,778,778,778,778,778,778,778,778,778,778,778,778,778,778,778,778,778,778,778,778,778,778,778,778,778,778,778,778,778,778,778,778,778,778,778,778,778,778,778,778,778,778,778,778,778,778,778,778,778,778,778,778,778,778,778,778,778,778,778,778,778,778,778,778,778,775,731,707,683,664,652,640,638,638,638,638,638,638,637,633,624,600,586,575,563,548,535,524,510,495,473,466,460,456,452,450,449,449,450,452,466,487,511,538,574,578,591,593,596,597,598,599,599,599,599,599,599,599,599,599,600,600,601,603,611,637,649,659,666,669,671,671,671,671,671,671,671,671,670,669,668,668,667,666,663,656,641,638,635,633,631,627,627,627,627,625,618,614,610,606,603,599,599,599,599,598,598,598,598,597,597,593,587,580,573,568,559,559,559,559,559,559,559,559,559,559,559,559,559,559,559,557,555,554,552,551,551,551,551,551,550,548,547,546,545,543,540,539,537,535,532,531,531,530,529,525,523,521,518,515,508,504,504,502,501,500,500,500,500,500,500,498,497,496,494,492,492,492,492,491,491,491,491,491,491,491,490,489,488,488,488],"ymouse":[553,553,553,553,553,553,553,553,553,553,553,553,553,555,557,557,557,558,558,558,558,558,558,559,561,561,561,561,561,561,561,561,561,561,561,561,561,561,561,561,561,561,561,561,561,561,561,561,561,561,561,561,561,561,561,561,561,561,561,561,561,561,561,561,561,561,561,561,561,561,561,561,561,561,561,561,561,561,561,561,561,561,561,561,561,561,561,561,561,561,561,561,561,561,561,561,561,561,561,561,561,561,561,561,561,561,561,561,561,561,632,632,632,632,632,632,632,632,632,632,632,632,632,632,632,632,632,632,632,632,632,632,632,632,632,632,632,632,632,632,632,632,632,632,632,632,632,632,632,632,632,632,632,632,632,632,632,632,632,632,632,632,631,628,626,624,621,621,621,621,621,621,621,621,619,614,596,581,566,546,526,505,482,454,421,374,351,329,311,298,286,282,276,265,256,213,165,111,44,0,0,0,0,0,0,0,0,0,0,0,0,0,0,0,0,0,0,0,1,11,49,68,82,94,99,103,103,103,103,105,107,119,125,130,133,138,141,141,142,146,151,167,171,175,178,180,182,182,182,182,182,183,183,183,183,183,183,183,183,183,183,183,183,183,183,183,183,183,183,181,179,177,177,177,177,177,177,177,177,177,177,177,177,177,177,177,177,175,175,173,173,172,172,172,172,172,172,172,172,171,169,168,167,165,164,161,161,160,159,158,154,152,149,145,142,132,129,128,126,125,123,123,123,123,123,123,120,118,116,114,111,110,110,108,108,108,108,108,108,108,107,103,102,100,100,99],"timestamp_mouse":[10,37,47,67,89,107,127,149,169,188,207,227,247,267,289,308,329,347,368,389,408,428,448,468,489,508,528,548,568,589,608,627,649,667,687,709,729,748,769,788,807,829,847,868,889,908,928,949,969,987,1009,1028,1048,1069,1087,1107,1129,1147,1169,1189,1208,1229,1247,1268,1288,1309,1328,1348,1368,1388,1409,1428,1448,1468,1488,1508,1529,1548,1569,1589,1608,1629,1647,1669,1687,1709,1729,1748,1769,1788,1807,1829,1849,1869,1887,1909,1929,1948,1969,1988,2008,2028,2047,2069,2088,2108,2127,2151,2167,2187,2208,2228,2248,2267,2288,2308,2327,2348,2367,2388,2408,2429,2448,2468,2488,2508,2528,2549,2568,2587,2608,2629,2648,2668,2687,2707,2728,2747,2768,2787,2808,2827,2849,2869,2889,2907,2928,2949,2968,2988,3009,3029,3048,3068,3087,3108,3127,3147,3168,3187,3207,3228,3247,3267,3287,3307,3327,3349,3369,3388,3409,3428,3448,3468,3487,3508,3527,3548,3568,3589,3608,3629,3648,3667,3687,3709,3727,3747,3767,3787,3808,3827,3847,3867,3888,3909,3927,3948,3967,3988,4008,4028,4047,4067,4088,4108,4128,4148,4168,4188,4208,4229,4249,4269,4288,4308,4328,4348,4367,4389,4409,4429,4449,4468,4488,4508,4529,4548,4568,4587,4608,4629,4648,4668,4688,4709,4727,4747,4768,4787,4808,4828,4848,4868,4887,4908,4930,4948,4969,4989,5008,5027,5047,5068,5087,5107,5127,5148,5169,5189,5209,5228,5248,5267,5287,5308,5327,5348,5367,5388,5408,5429,5448,5468,5488,5508,5528,5547,5567,5588,5608,5629,5647,5668,5687,5709,5728,5748,5767,5787,5808,5827,5847,5867,5887,5908,5927,5948,5968,5988,6008,6027,6047,6067,6088,6108,6128,6147,6167,6187,6209,6228,6248,6267,6287,6309,6327,6349,6368,6389,6408,6427,6447,6468,6488,6508,6528,6548,6568,6588,6609,6629,6648,6669,6688,6707,6727,6747,6767,6787,6808,6829,6848,6868,6889,6908],"xSR":741.5,"ySR":469.95,"xT1":424.9,"yT1":0,"xT2":1058.1,"yT2":0,"toosoon":0,"cond_shown":"equaldotanddens","ratio_trial":900,"smaller_num":"9","larger_num":"10","correct_side":2,"subjID":"AnaDaza","gender":"9","age":"9","school":"4"},{"start_time":1552055085735,"click_time":1552055089143,"finger_time":1552055086202,"fix_duration":450.98220518338275,"trial":7,"RT":467,"MT":2941,"sideResp":1,"stimulus":"img/500/equaldotanddens/L/10_Ratio_500_L_4_R_2.png","xmouse":[817,817,817,817,818,819,820,821,821,821,821,821,821,821,821,821,821,821,821,824,825,831,837,847,848,848,848,848,848,848,848,848,848,848,848,848,848,848,848,848,848,848,848,848,848,848,848,848,843,823,791,745,710,710,709,707,707,704,700,699,699,699,699,699,698,698,698,698,698,698,698,698,698,698,698,698,698,715,752,761,788,788,788,788,788,788,788,788,788,788,788,788,788,788,788,788,788,788,788,788,788,788,788,788,788,788,788,724,677,625,577,525,397,351,315,291,267,244,211,203,194,184,168,161,156,153,152,151,151,151,151,151,157,171,194,224,268,352,364,369,372,375,384,398,404,411,419,422,422,422,422,423,423,423,423,423,423,423,423,423,423,423,423,423,423,423,423,423,425,428,430],"ymouse":[654,654,654,654,654,654,654,654,654,654,654,654,654,654,654,654,654,654,654,655,656,662,666,674,675,675,675,675,675,675,675,675,675,675,675,675,675,675,675,675,675,675,675,675,675,675,675,675,673,662,647,631,614,610,606,602,597,591,569,567,567,566,564,561,559,557,552,537,524,514,514,514,514,514,514,514,514,513,524,524,522,522,522,522,522,522,522,522,522,522,522,522,522,522,522,522,522,522,522,522,522,522,522,522,522,522,522,523,523,523,520,512,491,486,481,476,468,462,448,442,435,427,413,407,401,397,393,385,380,375,369,361,346,328,303,256,179,40,13,0,0,0,0,0,0,0,0,0,0,0,0,0,0,0,0,0,0,0,0,0,0,0,0,0,0,0,0,0,0,0,1],"timestamp_mouse":[10,31,48,67,87,107,129,148,167,187,209,228,249,268,288,307,328,348,367,388,409,428,448,467,487,508,528,549,568,589,608,628,647,667,688,708,727,748,768,788,808,828,848,867,888,908,927,948,967,989,1008,1028,1048,1068,1088,1107,1128,1148,1167,1188,1207,1228,1248,1268,1288,1307,1328,1348,1368,1387,1407,1429,1449,1469,1489,1509,1528,1548,1567,1588,1607,1628,1649,1669,1688,1709,1727,1748,1769,1788,1808,1828,1848,1867,1888,1907,1929,1947,1968,1988,2008,2028,2048,2067,2088,2109,2127,2147,2167,2188,2209,2229,2248,2267,2288,2309,2328,2348,2368,2389,2408,2427,2448,2467,2488,2509,2528,2547,2567,2587,2607,2629,2648,2667,2689,2707,2727,2747,2768,2788,2808,2827,2848,2867,2888,2908,2929,2949,2967,2988,3009,3028,3048,3068,3088,3108,3128,3148,3167,3188,3207,3229,3248,3267,3288,3308,3328,3349,3367,3388,3408],"xSR":741.5,"ySR":573.95,"xT1":424.9,"yT1":0,"xT2":1058.1,"yT2":0,"toosoon":0,"cond_shown":"equaldotanddens","ratio_trial":500,"smaller_num":"2","larger_num":"4","correct_side":1,"subjID":"AnaDaza","gender":"9","age":"9","school":"4"},{"start_time":1552055097301,"click_time":1552055098723,"finger_time":1552055098183,"fix_duration":558.6812813900091,"trial":8,"RT":882,"MT":540,"sideResp":1,"stimulus":"img/750/randomdotsizeEA/L/9_Ratio_750_L_4_R_3.png","xmouse":[801,801,801,801,801,801,801,801,801,801,801,801,801,801,801,801,801,801,801,801,801,801,801,801,801,801,801,801,801,801,801,801,801,801,801,801,801,801,801,801,801,801,801,779,650,595,559,540,534,525,520,516,509,504,500,501,512,520,532,545,554,554,554,546,536,495,483,473,465,464,464,463],"ymouse":[615,615,615,616,616,616,616,616,616,616,616,616,616,616,616,616,616,616,616,616,616,616,616,616,616,616,616,616,616,616,616,616,616,616,616,616,616,616,616,616,616,616,616,604,564,553,545,542,538,528,518,506,491,473,449,376,338,307,266,220,126,80,30,0,0,0,0,0,0,0,0,7],"timestamp_mouse":[1,34,42,62,82,102,121,141,162,183,203,222,241,263,282,302,321,342,362,382,401,423,442,462,482,502,522,543,561,582,601,622,642,661,682,703,722,741,763,783,801,821,841,862,882,901,922,941,961,982,1001,1022,1042,1062,1081,1101,1121,1141,1161,1181,1201,1222,1242,1261,1281,1302,1322,1342,1362,1382,1403,1422],"xSR":741.5,"ySR":573.95,"xT1":424.9,"yT1":0,"xT2":1058.1,"yT2":0,"toosoon":0,"cond_shown":"randomdotsizeEA","ratio_trial":750,"smaller_num":"3","larger_num":"4","correct_side":1,"subjID":"AnaDaza","gender":"9","age":"9","school":"4"},{"start_time":1552055103991,"click_time":1552055105844,"finger_time":1552055104703,"fix_duration":1027.325715082263,"trial":9,"RT":712,"MT":1141,"sideResp":1,"stimulus":"img/900/equaldotsize/L/2_Ratio_900_L_20_R_18.png","xmouse":[806,806,806,806,806,806,806,806,806,806,806,806,806,806,806,806,806,806,806,806,806,806,806,806,806,806,806,806,806,806,806,805,802,800,779,758,730,700,677,660,631,615,600,590,586,582,582,579,574,565,548,543,542,541,540,538,533,527,521,514,514,514,513,506,493,457,427,398,367,351,335,331,327,325,325,325,325,325,325,325,325,325,325,325,325,325,325,325,326,368,404,423,429],"ymouse":[629,629,629,629,629,629,629,629,629,629,629,629,629,629,629,629,629,629,629,629,629,629,629,629,629,629,629,629,629,629,629,629,626,621,590,568,544,523,508,496,472,459,448,441,436,433,430,424,411,395,371,361,352,342,322,309,296,286,279,271,271,271,268,257,240,202,174,152,129,118,96,87,82,80,80,80,80,80,80,80,80,80,80,80,80,80,80,80,77,57,44,29,18],"timestamp_mouse":[13,38,52,72,92,112,133,151,171,192,211,232,251,273,292,313,331,351,371,392,412,432,452,472,491,512,531,553,573,593,611,631,652,673,692,712,732,752,771,791,811,832,851,871,891,911,933,951,971,992,1012,1032,1051,1071,1091,1111,1131,1151,1173,1192,1212,1232,1251,1271,1291,1311,1331,1351,1371,1391,1411,1431,1452,1471,1492,1513,1532,1553,1572,1592,1612,1632,1651,1673,1693,1711,1733,1751,1772,1792,1812,1831,1852],"xSR":741.5,"ySR":573.95,"xT1":424.9,"yT1":0,"xT2":1058.1,"yT2":0,"toosoon":0,"cond_shown":"equaldotsize","ratio_trial":900,"smaller_num":"18","larger_num":"20","correct_side":1,"subjID":"AnaDaza","gender":"9","age":"9","school":"4"},{"start_time":1552055109090,"click_time":1552055110783,"finger_time":1552055109884,"fix_duration":846.1365181000157,"trial":10,"RT":794,"MT":899,"sideResp":1,"stimulus":"img/500/randomdotsizeEA/R/1_Ratio_500_L_9_R_18.png","xmouse":[773,773,773,773,773,773,773,773,773,773,773,773,773,773,773,773,773,773,773,773,773,773,773,773,773,773,773,773,773,773,773,773,773,773,773,773,773,773,773,754,724,701,675,646,581,562,551,545,519,492,480,474,469,464,456,454,450,441,436,428,424,419,415,411,409,405,405,405,405,405,405,405,404,403,398,398,400,408,414,419,420,421,422,423,425],"ymouse":[633,633,633,633,633,633,633,633,633,633,633,633,633,633,633,633,633,633,633,633,633,633,633,633,633,633,633,633,633,633,633,633,633,633,633,633,633,625,615,563,524,498,469,443,399,393,391,390,386,383,382,380,379,378,374,372,368,358,351,333,325,316,308,301,296,281,278,278,278,278,278,278,277,270,240,220,198,170,145,118,73,58,50,46,41],"timestamp_mouse":[12,38,52,72,94,114,133,153,173,192,212,233,254,273,292,313,334,353,372,393,414,433,453,474,492,513,534,552,572,592,613,633,654,672,692,714,733,753,772,793,812,833,853,874,893,912,932,953,973,993,1013,1032,1052,1073,1093,1112,1132,1154,1173,1193,1212,1232,1252,1272,1292,1312,1332,1353,1372,1393,1413,1433,1453,1474,1493,1513,1533,1553,1573,1592,1612,1633,1653,1674,1693],"xSR":741.5,"ySR":573.95,"xT1":424.9,"yT1":0,"xT2":1058.1,"yT2":0,"toosoon":0,"cond_shown":"randomdotsizeEA","ratio_trial":500,"smaller_num":"9","larger_num":"18","correct_side":2,"subjID":"AnaDaza","gender":"9","age":"9","school":"4"},{"start_time":1552055113881,"click_time":1552055117082,"finger_time":1552055114662,"fix_duration":695.5565727808353,"trial":11,"RT":781,"MT":2420,"sideResp":1,"stimulus":"img/900/equaldotsize/L/2_Ratio_900_L_20_R_18.png","xmouse":[819,819,819,819,819,819,819,819,819,819,819,819,819,819,819,819,819,819,819,819,819,819,819,819,819,819,819,819,819,819,819,819,819,819,819,819,819,830,837,842,844,844,844,844,844,844,844,844,844,844,844,844,844,844,844,844,844,844,844,844,844,844,844,844,844,844,844,844,844,844,844,844,844,844,844,844,844,844,844,844,844,844,844,844,844,844,844,844,844,844,844,844,844,844,844,844,844,844,844,844,844,844,844,844,844,844,844,844,844,844,837,815,794,768,743,729,723,723,723,722,719,719,709,693,670,560,506,448,413,396,390,390,390,390,390,390,390,390,390,393,401,404,407,409,411,411,413,413,413,413,413,413,414,414,415,419,419,419,420,423,425],"ymouse":[632,632,632,632,632,632,632,632,632,632,632,632,632,632,632,632,632,632,632,632,632,632,632,632,632,632,632,632,632,632,632,632,632,632,632,632,626,610,597,581,566,549,547,546,546,546,546,546,546,546,546,546,546,546,546,546,546,546,546,546,546,546,546,546,546,546,546,546,546,546,546,546,546,546,546,546,546,546,546,546,546,546,546,546,546,546,546,546,546,546,546,546,546,546,546,546,546,546,546,546,546,546,546,546,546,546,546,546,546,546,539,523,508,486,461,447,437,437,437,435,432,432,423,409,390,293,246,203,180,169,167,167,167,167,167,167,167,166,160,150,131,121,109,96,82,70,57,55,54,53,53,53,52,52,51,51,51,51,51,50,49],"timestamp_mouse":[10,32,42,62,82,102,123,143,161,181,203,223,242,262,283,301,322,342,362,382,401,423,443,462,481,501,522,541,562,583,602,621,643,663,682,702,721,741,762,781,802,821,842,863,881,902,921,942,963,982,1002,1021,1042,1062,1082,1103,1123,1142,1161,1182,1202,1221,1242,1262,1283,1301,1322,1343,1363,1382,1401,1422,1442,1462,1482,1501,1522,1541,1561,1581,1602,1622,1643,1662,1681,1702,1723,1743,1762,1781,1802,1821,1841,1863,1882,1901,1922,1942,1963,1982,2002,2022,2043,2062,2082,2101,2121,2141,2162,2182,2202,2221,2242,2262,2283,2301,2323,2342,2362,2381,2402,2421,2443,2462,2481,2502,2521,2542,2562,2582,2602,2622,2643,2661,2682,2702,2721,2741,2762,2782,2802,2821,2842,2862,2882,2902,2922,2941,2962,2981,3002,3021,3042,3062,3082,3102,3121,3141,3162,3181,3201],"xSR":741.5,"ySR":573.95,"xT1":424.9,"yT1":0,"xT2":1058.1,"yT2":0,"toosoon":0,"cond_shown":"equaldotsize","ratio_trial":900,"smaller_num":"18","larger_num":"20","correct_side":1,"subjID":"AnaDaza","gender":"9","age":"9","school":"4"},{"start_time":1552055119702,"click_time":1552055120983,"finger_time":1552055120402,"fix_duration":798.3594117333081,"trial":12,"RT":700,"MT":581,"sideResp":2,"stimulus":"img/250/randomdotsizeEA/R/9_Ratio_250_L_3_R_12.png","xmouse":[801,801,801,801,801,801,801,800,800,800,800,800,800,800,800,800,800,800,800,800,800,800,800,799,799,799,799,799,799,799,799,799,799,799,799,799,799,800,801,801,806,815,831,845,864,873,876,877,881,881,886,890,892,894,898,914,928,940,953,981,997,1013,1030,1046,1072],"ymouse":[590,590,590,590,590,589,588,587,587,587,587,587,587,587,587,587,587,587,587,586,584,583,582,581,581,581,581,581,581,581,581,581,581,580,575,572,566,561,555,549,533,517,493,475,445,424,404,397,357,347,317,302,287,278,265,236,220,207,196,169,151,133,110,91,61],"timestamp_mouse":[9,29,42,61,80,102,120,141,160,180,202,222,241,261,281,302,321,342,360,380,400,421,440,460,482,502,521,541,562,581,601,621,641,661,681,700,721,742,761,780,800,822,841,860,881,900,920,941,960,980,1000,1021,1041,1061,1080,1100,1121,1142,1161,1180,1200,1222,1241,1261,1281],"xSR":741.5,"ySR":573.95,"xT1":424.9,"yT1":0,"xT2":1058.1,"yT2":0,"toosoon":0,"cond_shown":"randomdotsizeEA","ratio_trial":250,"smaller_num":"3","larger_num":"12","correct_side":2,"subjID":"AnaDaza","gender":"9","age":"9","school":"4"},{"start_time":1552055124337,"click_time":1552055126382,"finger_time":1552055125063,"fix_duration":1152.3587515365894,"trial":13,"RT":726,"MT":1319,"sideResp":1,"stimulus":"img/750/equaldotsize/L/6_Ratio_750_L_24_R_18.png","xmouse":[814,814,814,815,815,815,815,815,815,815,815,815,815,815,815,815,815,817,818,818,818,819,819,819,819,819,819,820,820,820,820,820,821,821,821,822,816,805,746,689,611,524,387,374,372,372,372,371,369,369,369,369,376,388,405,422,436,446,446,446,446,446,446,446,446,446,446,446,446,446,448,451,458,458,458,460,460,461,461,461,461,461,461,461,461,461,461,461,461,461,461,461,461,461,461,461,461,461,461,461,461,461,461],"ymouse":[605,605,604,603,603,603,603,603,603,603,603,603,603,603,603,603,602,600,599,599,599,599,599,598,598,598,598,598,598,597,596,596,596,596,592,586,573,552,479,427,365,304,208,195,191,189,188,183,180,177,175,174,166,161,156,149,141,129,128,128,128,127,127,127,127,127,127,127,127,127,125,122,111,111,108,106,105,101,100,100,100,100,100,100,100,100,100,100,100,100,100,100,100,100,100,100,100,100,100,100,100,100,99],"timestamp_mouse":[9,31,45,67,85,106,126,145,166,186,217,225,247,266,286,305,325,346,366,385,405,426,445,465,487,507,526,547,566,586,606,625,646,667,685,707,726,746,766,785,805,826,846,865,886,905,926,946,965,985,1005,1025,1045,1065,1085,1106,1126,1146,1167,1187,1205,1226,1246,1266,1286,1306,1326,1346,1366,1386,1406,1425,1446,1466,1486,1506,1526,1546,1566,1586,1607,1626,1646,1667,1687,1707,1727,1746,1765,1786,1805,1825,1846,1867,1886,1905,1926,1947,1967,1985,2006,2026,2045],"xSR":741.5,"ySR":573.95,"xT1":424.9,"yT1":0,"xT2":1058.1,"yT2":0,"toosoon":0,"cond_shown":"equaldotsize","ratio_trial":750,"smaller_num":"18","larger_num":"24","correct_side":1,"subjID":"AnaDaza","gender":"9","age":"9","school":"4"},{"start_time":1552055130270,"click_time":1552055132182,"finger_time":1552055131123,"fix_duration":1486.4134834655354,"trial":14,"RT":853,"MT":1059,"sideResp":1,"stimulus":"img/500/equaldotsize/L/4_Ratio_500_L_18_R_9.png","xmouse":[797,797,797,797,797,797,797,797,797,797,797,797,797,797,797,797,797,797,797,797,797,797,797,797,797,797,797,797,797,797,797,797,797,797,790,782,781,781,781,781,781,788,793,793,793,775,753,737,729,724,716,716,705,679,625,566,541,539,538,536,527,473,445,445,438,438,438,438,438,441,441,444,444,444,444,444,444,444,444,445,446,452,452,453,453,453,453,453,455,455,456,457,457,457,457,458],"ymouse":[631,631,631,631,631,631,631,631,631,631,631,631,631,631,631,631,631,631,631,631,631,631,631,631,631,631,631,631,631,631,631,631,631,631,628,623,622,622,622,622,614,588,557,533,533,507,478,458,446,435,419,419,408,389,356,319,297,293,287,285,272,218,188,188,177,177,177,173,168,163,160,154,154,154,154,154,154,154,154,153,147,130,126,125,125,125,125,119,111,111,105,101,101,101,100,94],"timestamp_mouse":[15,33,52,73,93,116,133,153,173,192,213,233,252,273,293,313,332,354,374,394,413,433,452,473,492,512,532,554,574,594,614,634,652,673,694,714,732,752,772,792,813,833,853,872,892,913,932,952,973,993,1012,1032,1053,1073,1092,1112,1133,1153,1174,1194,1212,1234,1253,1273,1294,1313,1333,1353,1372,1393,1412,1432,1453,1472,1492,1513,1534,1553,1573,1592,1612,1632,1652,1672,1693,1712,1733,1753,1774,1794,1812,1832,1854,1872,1892,1912],"xSR":741.5,"ySR":573.95,"xT1":424.9,"yT1":0,"xT2":1058.1,"yT2":0,"toosoon":0,"cond_shown":"equaldotsize","ratio_trial":500,"smaller_num":"9","larger_num":"18","correct_side":1,"subjID":"AnaDaza","gender":"9","age":"9","school":"4"},{"start_time":1552055135365,"click_time":1552055136822,"finger_time":1552055136364,"fix_duration":1061.2025047418429,"trial":15,"RT":999,"MT":458,"sideResp":1,"stimulus":"img/750/equaldotanddens/L/14_Ratio_750_L_8_R_6.png","xmouse":[778,778,778,778,778,778,778,778,778,778,778,778,778,778,778,778,778,778,778,778,778,778,778,778,778,778,778,778,778,778,778,778,778,778,778,780,781,784,789,798,815,831,838,841,841,841,841,833,821,780,662,632,625,622,621,619,612,595,574,566,557,544,539,538,537,531,524,513,508,500,485,485,485],"ymouse":[583,583,583,583,583,583,583,583,583,583,583,583,583,583,583,583,583,583,583,583,583,583,583,583,583,583,583,583,583,583,583,583,583,583,583,584,586,589,596,603,618,628,632,633,633,633,633,614,592,546,430,390,376,368,365,356,339,319,302,296,284,275,271,270,266,251,237,219,212,191,138,113,90],"timestamp_mouse":[31,38,58,78,99,118,139,159,177,199,218,237,259,278,298,318,337,359,378,399,418,437,457,479,498,518,539,558,578,598,617,637,659,679,697,717,737,757,778,799,818,838,857,879,898,918,937,957,977,999,1018,1038,1058,1079,1097,1118,1137,1158,1179,1198,1218,1237,1257,1278,1297,1318,1338,1357,1377,1397,1418,1438,1457],"xSR":741.5,"ySR":573.95,"xT1":424.9,"yT1":0,"xT2":1058.1,"yT2":0,"toosoon":0,"cond_shown":"equaldotanddens","ratio_trial":750,"smaller_num":"6","larger_num":"8","correct_side":1,"subjID":"AnaDaza","gender":"9","age":"9","school":"4"},{"start_time":1552055139203,"click_time":1552055140722,"finger_time":1552055140003,"fix_duration":479.1518031540486,"trial":16,"RT":800,"MT":719,"sideResp":2,"stimulus":"img/250/equaldotanddens/R/12_Ratio_250_L_5_R_20.png","xmouse":[801,801,801,801,801,801,801,801,801,801,801,801,801,801,801,801,801,801,801,801,801,801,801,801,801,801,801,801,801,801,801,801,801,801,801,801,808,822,830,869,871,873,873,885,888,893,894,898,907,913,917,927,942,973,986,1001,1011,1016,1025,1026,1030,1032,1035,1038,1039,1039,1039,1039,1039,1039,1039,1039,1039,1043,1055,1066],"ymouse":[607,607,607,607,607,607,607,607,607,607,607,607,607,607,607,607,607,607,607,607,607,607,607,607,607,607,607,607,607,607,607,607,607,607,607,607,602,588,583,553,550,549,549,523,515,497,491,471,418,398,380,355,329,282,257,222,192,171,115,103,93,83,71,55,54,54,54,54,54,54,54,54,54,53,53,53],"timestamp_mouse":[30,39,59,80,100,119,139,161,181,200,220,241,260,281,300,320,339,360,380,401,419,441,461,479,500,520,541,561,579,600,621,640,659,679,701,721,739,760,779,800,820,840,859,880,899,920,939,959,979,1000,1020,1040,1060,1080,1099,1120,1139,1160,1180,1199,1220,1240,1259,1280,1299,1320,1340,1361,1380,1400,1419,1439,1460,1480,1499,1519],"xSR":741.5,"ySR":573.95,"xT1":424.9,"yT1":0,"xT2":1058.1,"yT2":0,"toosoon":0,"cond_shown":"equaldotanddens","ratio_trial":250,"smaller_num":"5","larger_num":"20","correct_side":2,"subjID":"AnaDaza","gender":"9","age":"9","school":"4"},{"start_time":1552055143771,"click_time":1552055145583,"finger_time":1552055145102,"fix_duration":687.3021067822822,"trial":17,"RT":1331,"MT":481,"sideResp":1,"stimulus":"img/750/equaldotsize/R/4_Ratio_750_L_15_R_20.png","xmouse":[783,783,783,783,783,783,783,783,783,783,783,783,783,783,783,783,783,783,783,783,783,783,783,783,783,783,783,783,783,783,783,783,783,783,783,783,783,783,783,783,783,783,783,783,783,783,783,783,783,783,783,783,783,783,783,783,783,783,783,783,783,783,783,783,783,783,762,707,627,580,516,513,513,513,513,510,499,489,480,475,471,471,472,475,478,482,486,487,489,488,487],"ymouse":[600,600,600,600,600,600,600,600,600,600,600,600,600,600,600,600,600,600,600,600,600,600,600,600,600,600,600,600,600,600,600,600,600,600,600,600,600,600,600,600,600,600,600,600,600,600,600,600,600,600,600,600,600,600,600,600,600,600,600,600,600,600,600,600,600,600,564,505,440,406,359,357,357,357,357,327,298,273,249,231,213,211,207,201,192,179,153,138,123,109,96],"timestamp_mouse":[11,31,51,72,91,112,131,153,172,192,211,231,252,271,293,312,332,352,371,391,413,431,451,471,491,512,531,553,571,591,612,632,652,672,691,711,731,751,773,791,812,833,853,873,892,912,931,953,971,992,1012,1032,1052,1072,1092,1113,1133,1152,1172,1192,1211,1233,1252,1271,1292,1313,1331,1352,1371,1393,1411,1433,1452,1472,1492,1511,1531,1552,1572,1591,1611,1631,1652,1672,1692,1712,1731,1751,1771,1791,1812],"xSR":741.5,"ySR":573.95,"xT1":424.9,"yT1":0,"xT2":1058.1,"yT2":0,"toosoon":0,"cond_shown":"equaldotsize","ratio_trial":750,"smaller_num":"15","larger_num":"20","correct_side":2,"subjID":"AnaDaza","gender":"9","age":"9","school":"4"},{"start_time":1552055148514,"click_time":1552055150103,"finger_time":1552055149302,"fix_duration":250,"trial":18,"RT":788,"MT":801,"sideResp":1,"stimulus":"img/750/randomdotsizeEA/L/9_Ratio_750_L_4_R_3.png","xmouse":[794,794,794,794,794,794,794,794,794,794,794,794,794,794,794,794,794,794,794,794,794,794,794,794,794,794,794,794,794,794,794,794,794,794,794,794,794,794,795,870,956,1046,1105,1155,1156,1156,1156,1150,1126,1115,1099,1099,1097,1096,1094,1093,1087,1080,1045,992,916,822,723,523,490,469,459,453,448,447,445,445,445,445,445,444,441,440,437,426],"ymouse":[595,595,595,595,595,595,595,595,595,595,595,595,595,595,595,595,595,595,595,595,595,595,595,595,595,595,595,595,595,595,595,595,595,595,595,595,595,595,593,556,520,477,440,377,341,341,341,335,318,311,307,307,306,305,305,305,304,304,305,308,308,308,288,251,241,234,230,229,227,227,227,227,227,227,225,210,186,156,128,87],"timestamp_mouse":[11,30,49,68,90,109,129,150,169,189,210,228,248,268,288,309,330,349,369,388,408,429,449,469,488,510,529,549,568,590,609,628,648,670,688,708,730,748,769,788,808,828,848,869,888,909,928,949,969,988,1008,1028,1050,1069,1090,1109,1128,1148,1168,1188,1210,1229,1249,1269,1288,1310,1330,1350,1369,1389,1409,1428,1448,1468,1488,1509,1528,1548,1568,1589],"xSR":741.5,"ySR":573.95,"xT1":424.9,"yT1":0,"xT2":1058.1,"yT2":0,"toosoon":0,"cond_shown":"randomdotsizeEA","ratio_trial":750,"smaller_num":"3","larger_num":"4","correct_side":1,"subjID":"AnaDaza","gender":"9","age":"9","school":"4"},{"start_time":1552055153634,"click_time":1552055156144,"finger_time":1552055154622,"fix_duration":1410.0300175963491,"trial":19,"RT":988,"MT":1522,"sideResp":1,"stimulus":"img/750/equaldotanddens/L/13_Ratio_750_L_8_R_6.png","xmouse":[787,787,787,787,787,787,787,787,787,787,787,787,787,787,787,787,787,787,787,787,787,787,787,787,787,787,787,787,787,787,787,787,787,787,787,787,787,787,787,787,787,787,787,787,787,787,778,774,752,743,734,727,721,719,718,717,716,707,702,699,694,689,680,673,664,653,645,627,619,613,607,599,579,569,558,549,541,521,512,505,498,492,487,487,486,486,486,485,485,484,484,483,483,483,483,483,483,483,483,483,483,483,483,483,483,483,483,483,483,483,483,483,483,483,483,483,483,483,483,483,483,483,483,483,483,483],"ymouse":[658,658,658,658,658,658,658,658,658,658,658,658,658,658,658,657,656,655,655,654,654,654,654,654,654,654,654,654,654,654,654,654,654,654,654,654,654,654,654,654,654,654,654,654,654,652,631,622,578,559,539,523,508,504,501,499,495,479,471,466,458,452,436,424,409,392,378,345,331,320,309,297,260,241,224,208,193,159,146,138,130,122,116,116,115,115,115,112,110,107,106,104,104,104,104,104,104,104,104,104,104,104,104,104,104,104,104,104,104,104,104,104,104,104,104,104,104,104,104,104,104,104,104,104,100,97],"timestamp_mouse":[10,31,49,69,90,109,130,148,169,190,209,228,248,269,288,309,328,348,368,389,408,429,450,469,489,509,529,549,569,590,608,629,648,668,690,709,728,749,768,788,810,829,849,869,889,908,929,949,969,988,1009,1029,1048,1069,1089,1108,1128,1148,1168,1188,1208,1229,1249,1268,1290,1309,1329,1349,1369,1389,1408,1429,1449,1468,1490,1509,1529,1548,1568,1589,1609,1629,1649,1669,1688,1709,1729,1749,1769,1788,1809,1829,1849,1869,1888,1908,1928,1948,1969,1989,2010,2029,2049,2070,2089,2108,2128,2148,2169,2189,2209,2229,2248,2268,2290,2309,2329,2348,2369,2388,2408,2429,2448,2469,2489,2510],"xSR":741.5,"ySR":573.95,"xT1":424.9,"yT1":0,"xT2":1058.1,"yT2":0,"toosoon":0,"cond_shown":"equaldotanddens","ratio_trial":750,"smaller_num":"6","larger_num":"8","correct_side":1,"subjID":"AnaDaza","gender":"9","age":"9","school":"4"},{"start_time":1552055158955,"click_time":1552055160403,"finger_time":1552055159702,"fix_duration":1070.5038242402668,"trial":20,"RT":747,"MT":701,"sideResp":2,"stimulus":"img/250/equaldotanddens/R/8_Ratio_250_L_1_R_4.png","xmouse":[805,805,805,805,805,805,805,805,805,805,805,805,805,805,805,805,805,805,805,805,805,805,805,805,805,805,805,805,805,805,805,805,805,805,805,805,829,849,883,914,937,975,984,989,991,991,994,997,1000,1002,1007,1008,1008,1008,1008,1008,1008,1008,1008,1008,1008,1008,1008,1008,1008,1008,1008,1013,1018,1024,1031,1045,1093],"ymouse":[617,617,617,617,617,617,617,617,617,617,617,617,617,617,617,617,617,617,617,617,617,617,617,617,617,617,617,617,617,617,617,617,617,617,617,618,595,572,531,480,443,339,301,275,253,241,210,194,177,158,131,82,70,69,69,69,69,69,69,69,69,69,69,69,69,69,67,64,63,61,60,59,59],"timestamp_mouse":[10,38,48,67,88,109,128,149,167,187,208,228,247,267,288,308,329,347,368,388,408,428,448,469,489,508,527,549,568,589,607,627,648,667,688,707,728,747,768,787,809,828,848,868,888,907,927,947,969,988,1008,1027,1052,1068,1087,1107,1127,1149,1167,1187,1207,1228,1249,1268,1289,1308,1327,1347,1367,1387,1408,1427,1448],"xSR":741.5,"ySR":573.95,"xT1":424.9,"yT1":0,"xT2":1058.1,"yT2":0,"toosoon":0,"cond_shown":"equaldotanddens","ratio_trial":250,"smaller_num":"1","larger_num":"4","correct_side":2,"subjID":"AnaDaza","gender":"9","age":"9","school":"4"},{"start_time":1552055162808,"click_time":1552055163662,"finger_time":1552055163523,"fix_duration":943.8155119003545,"trial":21,"RT":715,"MT":139,"sideResp":1,"stimulus":"img/750/equaldotanddens/L/13_Ratio_750_L_8_R_6.png","xmouse":[811,811,811,811,811,811,809,801,790,788,788,788,788,788,788,788,788,788,788,788,788,788,788,788,788,788,788,788,788,788,788,788,788,788,781,725,649,586,492,454,443,435,430],"ymouse":[646,646,646,646,646,646,646,646,646,646,646,646,646,646,646,646,646,646,646,646,646,646,646,646,646,646,646,646,646,646,646,646,646,646,634,541,442,358,219,148,121,102,90],"timestamp_mouse":[14,37,55,75,96,114,135,155,175,196,215,235,256,274,294,314,335,355,374,396,415,435,454,474,494,516,535,555,574,594,615,635,654,675,694,715,735,755,774,794,815,836,854],"xSR":741.5,"ySR":573.95,"xT1":424.9,"yT1":0,"xT2":1058.1,"yT2":0,"toosoon":0,"cond_shown":"equaldotanddens","ratio_trial":750,"smaller_num":"6","larger_num":"8","correct_side":1,"subjID":"AnaDaza","gender":"9","age":"9","school":"4"},{"start_time":1552055165775,"click_time":1552055167263,"finger_time":1552055166603,"fix_duration":731.9219861823047,"trial":22,"RT":828,"MT":660,"sideResp":1,"stimulus":"img/500/randomdotsizeEA/L/10_Ratio_500_L_4_R_2.png","xmouse":[763,763,763,763,763,763,763,763,763,763,763,763,763,763,763,763,763,763,763,763,763,763,763,763,763,763,763,763,763,763,763,763,763,764,766,777,777,778,779,779,779,764,752,738,716,654,614,569,524,474,358,337,328,326,326,326,326,328,330,334,352,363,372,380,386,389,393,393,393,393,393,393,394,408,448],"ymouse":[619,619,619,619,619,619,619,619,619,619,619,619,619,619,619,619,619,619,619,619,619,619,619,619,619,619,619,619,619,619,619,619,619,614,612,604,602,601,599,595,587,550,533,513,485,419,375,321,261,202,94,68,51,45,45,44,44,44,43,40,28,22,17,16,13,13,13,13,13,13,13,13,13,13,18],"timestamp_mouse":[11,36,48,68,89,108,129,148,169,187,207,227,248,267,288,309,329,348,368,387,407,427,449,469,489,509,528,549,567,587,607,627,648,669,687,708,728,749,767,789,808,828,848,867,887,907,927,947,968,989,1008,1027,1048,1068,1089,1108,1127,1147,1168,1187,1208,1227,1247,1268,1288,1307,1328,1348,1367,1388,1408,1429,1447,1468,1488],"xSR":741.5,"ySR":573.95,"xT1":424.9,"yT1":0,"xT2":1058.1,"yT2":0,"toosoon":0,"cond_shown":"randomdotsizeEA","ratio_trial":500,"smaller_num":"2","larger_num":"4","correct_side":1,"subjID":"AnaDaza","gender":"9","age":"9","school":"4"},{"start_time":1552055170269,"click_time":1552055171943,"finger_time":1552055171082,"fix_duration":966.5500175086347,"trial":23,"RT":813,"MT":861,"sideResp":1,"stimulus":"img/750/equaldotanddens/L/14_Ratio_750_L_8_R_6.png","xmouse":[776,776,776,776,776,776,776,776,776,776,776,776,776,776,776,776,776,776,776,776,776,776,776,776,776,776,776,776,776,776,776,776,776,776,776,776,776,772,771,770,766,766,766,766,766,766,765,758,754,745,733,716,712,710,710,710,709,692,672,662,662,660,657,651,640,580,576,557,545,537,526,521,518,516,514,512,510,508,504,502,497,486,472,458],"ymouse":[610,610,610,610,610,610,610,610,610,610,610,610,610,610,610,610,610,610,610,610,610,610,610,610,610,610,610,610,610,610,610,610,610,610,610,610,610,592,589,581,573,573,573,573,573,573,571,557,545,535,525,507,501,495,493,493,485,440,402,383,383,368,356,343,318,241,235,210,193,182,168,161,159,156,154,151,147,143,136,133,127,115,100,83],"timestamp_mouse":[18,38,54,73,95,114,134,153,174,193,213,234,254,273,294,314,334,354,375,394,413,434,454,475,494,514,534,553,575,594,614,634,653,674,695,714,733,754,774,794,813,834,854,875,895,914,933,954,974,993,1014,1035,1055,1074,1095,1114,1133,1153,1173,1194,1214,1234,1255,1274,1294,1314,1333,1353,1374,1393,1413,1433,1455,1473,1493,1514,1533,1553,1575,1594,1614,1633,1654,1674],"xSR":741.5,"ySR":573.95,"xT1":424.9,"yT1":0,"xT2":1058.1,"yT2":0,"toosoon":0,"cond_shown":"equaldotanddens","ratio_trial":750,"smaller_num":"6","larger_num":"8","correct_side":1,"subjID":"AnaDaza","gender":"9","age":"9","school":"4"},{"start_time":1552055173887,"click_time":1552055175503,"finger_time":1552055175023,"fix_duration":422.2355895200045,"trial":24,"RT":1136,"MT":480,"sideResp":2,"stimulus":"img/900/equaldotsize/R/5_Ratio_900_L_9_R_10.png","xmouse":[788,788,788,788,788,788,788,788,788,788,788,788,788,788,788,788,788,788,788,788,788,788,788,788,788,788,788,788,788,788,788,788,788,788,788,788,788,788,788,788,788,788,788,790,791,791,791,791,791,791,791,791,791,791,791,791,795,811,825,842,861,895,915,935,972,989,991,992,992,992,992,992,992,992,992,992,992,992,996,1035,1062],"ymouse":[606,606,606,606,606,606,606,606,606,606,606,606,606,606,606,606,606,606,606,606,606,606,606,606,606,606,606,606,606,606,606,606,606,606,606,606,606,606,606,606,606,606,606,598,588,577,576,576,576,576,576,576,576,576,576,576,568,546,528,502,464,396,338,247,13,0,0,0,0,0,0,0,0,0,0,0,0,0,0,16,29],"timestamp_mouse":[17,35,57,75,95,117,136,156,176,197,215,237,256,276,296,316,336,356,375,396,415,437,457,477,497,516,535,557,575,595,617,637,655,675,695,715,735,756,776,797,817,836,855,876,896,915,937,957,977,997,1017,1035,1056,1075,1097,1117,1136,1155,1175,1195,1217,1235,1255,1276,1295,1315,1335,1355,1376,1396,1416,1435,1455,1475,1496,1515,1536,1556,1576,1598,1615],"xSR":741.5,"ySR":573.95,"xT1":424.9,"yT1":0,"xT2":1058.1,"yT2":0,"toosoon":0,"cond_shown":"equaldotsize","ratio_trial":900,"smaller_num":"9","larger_num":"10","correct_side":2,"subjID":"AnaDaza","gender":"9","age":"9","school":"4"},{"start_time":1552055178409,"click_time":1552055179703,"finger_time":1552055179182,"fix_duration":905.5417411324667,"trial":25,"RT":773,"MT":521,"sideResp":2,"stimulus":"img/250/equaldotsize/R/11_Ratio_250_L_3_R_12.png","xmouse":[758,758,758,758,758,758,758,758,758,758,758,758,758,758,758,758,758,758,758,758,758,758,758,758,758,758,758,758,758,758,758,759,762,766,768,772,776,784,814,851,851,884,905,908,912,917,917,917,917,922,923,929,929,935,940,944,951,961,975,1020,1036,1046,1054,1069,1077],"ymouse":[671,671,671,671,671,671,671,671,671,671,671,671,671,671,671,671,671,671,671,671,671,671,671,671,671,671,671,671,671,671,670,668,663,652,647,638,629,615,567,514,514,458,421,415,396,382,382,382,382,374,369,352,351,327,310,296,280,263,245,193,173,158,140,103,86],"timestamp_mouse":[14,36,53,73,94,113,134,155,173,194,215,234,253,275,294,314,333,355,375,393,413,435,453,475,493,514,534,555,573,595,614,635,654,675,694,714,734,755,773,793,813,834,854,874,895,913,933,953,973,994,1014,1035,1054,1073,1093,1113,1134,1154,1173,1195,1213,1234,1254,1274,1294],"xSR":741.5,"ySR":573.95,"xT1":424.9,"yT1":0,"xT2":1058.1,"yT2":0,"toosoon":0,"cond_shown":"equaldotsize","ratio_trial":250,"smaller_num":"3","larger_num":"12","correct_side":2,"subjID":"AnaDaza","gender":"9","age":"9","school":"4"},{"start_time":1552055182159,"click_time":1552055183943,"finger_time":1552055183442,"fix_duration":354.9334877807493,"trial":26,"RT":1283,"MT":501,"sideResp":2,"stimulus":"img/500/randomdotsizeEA/R/2_Ratio_500_L_3_R_6.png","xmouse":[804,804,804,804,804,804,804,804,804,804,804,804,804,804,804,804,804,804,804,804,804,804,804,804,804,804,804,804,804,804,804,804,804,804,804,804,804,804,804,804,804,804,804,804,804,804,804,804,804,804,804,804,804,804,804,804,804,804,804,804,804,809,817,823,825,829,840,850,865,889,892,914,952,981,988,988,987,987,987,987,991,997,998,999,1000,1006,1031,1045,1057,1068],"ymouse":[648,648,648,648,648,648,648,648,648,648,648,648,648,648,648,648,648,648,648,648,648,648,648,648,648,648,648,648,648,648,648,648,648,648,648,648,648,648,648,648,648,648,648,648,648,648,648,648,648,648,648,648,648,648,648,648,648,648,648,648,648,627,602,583,570,559,534,517,497,470,465,447,373,301,262,253,240,236,236,225,211,181,174,162,158,137,77,45,26,10],"timestamp_mouse":[11,35,44,65,83,104,125,144,165,183,203,225,243,264,284,305,323,345,363,384,405,425,445,464,484,504,523,545,565,584,605,624,645,664,684,704,723,745,764,783,804,824,845,864,884,903,923,944,964,984,1003,1023,1045,1065,1083,1105,1124,1145,1164,1184,1204,1224,1245,1264,1283,1303,1323,1344,1363,1383,1404,1423,1445,1464,1485,1505,1524,1545,1565,1584,1604,1623,1643,1663,1684,1703,1724,1745,1763,1784],"xSR":741.5,"ySR":573.95,"xT1":424.9,"yT1":0,"xT2":1058.1,"yT2":0,"toosoon":0,"cond_shown":"randomdotsizeEA","ratio_trial":500,"smaller_num":"3","larger_num":"6","correct_side":2,"subjID":"AnaDaza","gender":"9","age":"9","school":"4"},{"start_time":1552055186364,"click_time":1552055190943,"finger_time":1552055187302,"fix_duration":979.4517167764474,"trial":27,"RT":938,"MT":3641,"sideResp":1,"stimulus":"img/500/equaldotanddens/R/15_Ratio_500_L_1_R_2.png","xmouse":[823,823,823,823,823,823,823,823,823,823,823,823,823,823,823,823,823,823,823,823,823,823,823,823,823,823,823,823,823,823,823,823,823,823,823,823,823,823,823,823,823,823,823,823,820,820,820,828,830,830,830,830,830,831,831,831,831,831,832,834,839,861,874,887,908,927,941,965,969,984,999,1030,1035,1035,1035,1035,1035,1035,1035,1035,1035,1037,1037,1037,1037,1042,1042,1046,1048,1048,1049,1055,1057,1057,1057,1058,1063,1067,1072,1073,1073,1073,1073,1073,1073,1073,1073,1073,1073,1073,1073,1073,1073,1073,1073,1073,1073,1073,1073,1073,1073,1073,1073,1073,1073,1073,1073,1073,1073,1073,1073,1073,1073,1073,1073,1073,1073,1073,1073,1073,1072,1070,1069,1069,1069,1068,1064,1026,982,890,786,629,609,601,599,598,598,598,598,598,598,598,598,598,598,598,598,586,573,561,553,537,537,537,537,537,537,537,537,537,537,537,537,537,537,537,537,537,537,537,537,537,537,537,537,537,537,537,537,537,537,537,537,537,537,537,537,537,537,537,537,537,537,537,537,537,537,537,537,537,537,537,537,537,537,537,537,537,529,517],"ymouse":[654,654,654,654,654,654,654,654,654,654,654,654,654,654,654,654,654,654,654,654,654,654,654,654,654,654,654,654,654,654,654,654,654,654,654,654,654,654,654,654,654,654,654,654,623,609,582,542,528,520,514,508,506,505,503,502,499,497,493,488,481,460,450,437,415,389,367,328,319,296,273,236,231,231,231,231,231,231,231,231,230,227,227,227,227,217,217,207,203,203,201,190,188,188,188,186,174,167,155,149,149,149,137,132,128,124,117,116,116,116,116,116,116,116,116,116,116,116,116,116,116,116,116,116,116,116,116,116,116,116,116,116,116,116,116,116,116,116,116,116,116,116,116,116,116,116,116,116,116,116,110,101,101,103,103,103,103,103,103,103,103,103,103,103,103,103,103,103,103,103,103,103,103,103,103,103,103,103,103,103,103,103,103,103,103,103,103,103,103,103,103,103,103,103,103,103,103,103,103,103,103,103,103,103,103,103,103,103,103,103,103,103,103,103,103,103,103,103,103,103,103,103,103,103,103,103,103,103,101,99],"timestamp_mouse":[7,19,40,58,80,98,119,139,159,178,199,218,240,259,278,298,318,339,358,378,398,418,438,460,479,498,519,540,558,580,600,620,639,658,680,698,720,738,760,778,799,819,840,860,879,898,918,938,958,978,1000,1019,1039,1059,1078,1099,1118,1138,1158,1179,1199,1219,1240,1259,1280,1298,1318,1338,1360,1379,1400,1419,1438,1458,1478,1499,1519,1538,1558,1579,1600,1620,1640,1660,1680,1699,1719,1739,1759,1779,1798,1818,1838,1859,1880,1899,1918,1938,1960,1979,1999,2018,2039,2059,2078,2098,2119,2140,2159,2179,2200,2220,2240,2258,2279,2298,2318,2339,2359,2379,2398,2418,2439,2458,2478,2498,2518,2539,2560,2579,2600,2620,2639,2658,2679,2699,2719,2739,2759,2778,2799,2818,2838,2859,2879,2898,2918,2938,2958,2978,2998,3019,3038,3059,3079,3099,3119,3140,3160,3178,3199,3220,3240,3260,3279,3298,3318,3338,3359,3379,3399,3419,3439,3458,3480,3499,3519,3538,3559,3579,3599,3619,3639,3658,3678,3699,3720,3739,3760,3779,3798,3818,3838,3858,3878,3899,3920,3939,3959,3979,3998,4018,4038,4059,4078,4098,4119,4139,4158,4178,4200,4218,4238,4258,4278,4298,4318,4338,4359,4378,4398,4418,4440,4459,4480,4499,4518,4538,4559,4579],"xSR":741.5,"ySR":573.95,"xT1":424.9,"yT1":0,"xT2":1058.1,"yT2":0,"toosoon":0,"cond_shown":"equaldotanddens","ratio_trial":500,"smaller_num":"1","larger_num":"2","correct_side":2,"subjID":"AnaDaza","gender":"9","age":"9","school":"4"},{"start_time":1552055197974,"click_time":1552055198923,"finger_time":1552055198482,"fix_duration":250,"trial":28,"RT":508,"MT":441,"sideResp":1,"stimulus":"img/900/equaldotanddens/L/10_Ratio_900_L_20_R_18.png","xmouse":[790,790,790,790,790,790,790,790,790,790,790,788,788,788,788,788,788,788,787,785,780,772,765,754,743,723,716,710,709,706,701,697,686,673,656,626,614,602,586,572,546,543,541,537,533,517,509,499],"ymouse":[630,630,630,630,630,630,630,630,630,630,630,630,630,630,630,630,630,630,629,627,623,615,606,594,579,549,537,527,524,520,509,505,491,476,455,415,396,375,347,321,264,253,246,237,225,166,111,48],"timestamp_mouse":[11,38,49,69,89,108,130,150,168,189,208,230,248,268,289,309,328,349,370,389,408,429,449,470,489,508,529,549,568,588,609,630,648,669,689,708,728,749,769,788,809,828,848,869,889,908,928,949],"xSR":741.5,"ySR":573.95,"xT1":424.9,"yT1":0,"xT2":1058.1,"yT2":0,"toosoon":0,"cond_shown":"equaldotanddens","ratio_trial":900,"smaller_num":"18","larger_num":"20","correct_side":1,"subjID":"AnaDaza","gender":"9","age":"9","school":"4"},{"start_time":1552055201652,"click_time":1552055203884,"finger_time":1552055202422,"fix_duration":786.5211613660315,"trial":29,"RT":770,"MT":1462,"sideResp":2,"stimulus":"img/500/equaldotanddens/R/1_Ratio_500_L_9_R_18.png","xmouse":[754,754,758,758,758,758,758,758,758,758,758,758,758,758,758,758,758,758,758,758,758,758,758,758,758,758,758,758,758,758,758,758,758,761,761,764,770,778,780,780,780,782,786,794,794,799,812,812,821,831,846,871,876,876,876,876,879,883,883,884,891,924,940,961,976,989,1007,1019,1023,1025,1027,1032,1036,1042,1045,1048,1054,1055,1055,1055,1056,1056,1056,1056,1056,1056,1056,1056,1056,1056,1056,1056,1056,1056,1056,1056,1056,1056,1056,1056,1056,1056,1056,1056,1056,1056,1056,1056,1056,1056,1058,1086],"ymouse":[630,630,630,630,630,630,630,630,630,630,630,630,630,630,630,630,630,630,630,630,630,630,630,630,630,630,630,630,630,630,630,630,630,626,626,621,603,577,569,569,569,566,557,541,540,531,512,512,502,487,467,422,408,406,406,403,393,386,386,383,364,293,253,206,169,139,96,75,68,64,61,51,44,34,27,23,16,15,15,15,15,15,15,15,15,15,15,15,15,15,15,15,15,15,15,15,15,15,15,15,15,15,15,15,15,15,15,15,15,15,16,62],"timestamp_mouse":[11,32,52,71,91,110,130,151,171,192,210,232,250,271,291,311,331,352,370,390,411,431,450,472,492,511,531,550,570,591,612,631,651,671,690,711,731,752,770,791,810,830,850,871,891,910,930,951,970,991,1010,1030,1050,1071,1091,1111,1131,1150,1171,1190,1211,1230,1250,1271,1291,1312,1330,1351,1370,1392,1411,1430,1450,1470,1491,1512,1531,1550,1570,1592,1611,1632,1650,1670,1691,1710,1731,1750,1770,1791,1812,1832,1850,1870,1891,1911,1931,1952,1970,1991,2011,2031,2050,2070,2090,2112,2132,2151,2170,2191,2211,2232],"xSR":741.5,"ySR":573.95,"xT1":424.9,"yT1":0,"xT2":1058.1,"yT2":0,"toosoon":0,"cond_shown":"equaldotanddens","ratio_trial":500,"smaller_num":"9","larger_num":"18","correct_side":2,"subjID":"AnaDaza","gender":"9","age":"9","school":"4"},{"start_time":1552055208245,"click_time":1552055210902,"finger_time":1552055208964,"fix_duration":1419.0472594294088,"trial":30,"RT":719,"MT":1938,"sideResp":1,"stimulus":"img/900/randomdotsizeEA/R/14_Ratio_900_L_18_R_20.png","xmouse":[794,794,794,794,794,794,794,794,794,794,794,794,794,794,794,794,794,794,794,794,794,794,794,794,794,794,794,794,794,794,794,794,794,806,819,853,886,903,904,910,917,934,947,956,961,962,962,962,962,961,960,960,960,960,960,960,960,960,960,960,960,960,960,956,954,949,937,934,925,903,887,876,869,852,838,830,816,809,799,780,765,730,728,724,720,715,692,659,656,642,635,635,635,635,635,635,635,635,635,635,635,635,635,631,605,605,580,580,580,580,580,580,580,580,580,580,580,580,571,561,549,549,549,549,549,549,549,549,549,548,540,530,522],"ymouse":[637,637,637,637,637,637,637,637,637,637,637,637,637,637,637,637,637,637,637,637,637,637,637,637,637,637,637,637,637,637,637,637,637,630,618,583,537,514,512,499,479,432,376,318,292,271,250,186,182,172,169,169,169,169,169,169,169,169,169,169,169,169,169,167,167,167,164,163,163,159,158,158,157,155,152,149,144,143,139,136,132,120,120,117,116,115,111,107,107,104,103,103,103,103,103,103,103,103,103,103,103,103,103,102,98,98,92,92,92,92,92,92,92,92,92,92,92,92,89,85,81,81,81,81,81,81,81,81,81,81,81,80,79],"timestamp_mouse":[18,39,57,77,98,119,138,157,177,197,217,238,257,278,298,318,339,358,379,397,417,437,457,479,498,517,539,557,578,599,619,637,658,679,697,719,737,757,777,798,817,837,857,879,898,917,938,958,978,997,1018,1037,1058,1077,1098,1118,1138,1158,1178,1197,1219,1238,1259,1279,1297,1318,1337,1358,1377,1399,1418,1437,1457,1478,1497,1517,1537,1558,1578,1597,1617,1637,1658,1679,1698,1719,1737,1758,1777,1797,1817,1839,1858,1879,1897,1917,1938,1957,1977,1997,2019,2038,2058,2077,2097,2117,2137,2158,2179,2198,2218,2237,2257,2278,2297,2318,2338,2357,2377,2398,2418,2437,2458,2478,2497,2518,2537,2557,2578,2597,2619,2638,2657],"xSR":741.5,"ySR":573.95,"xT1":424.9,"yT1":0,"xT2":1058.1,"yT2":0,"toosoon":0,"cond_shown":"randomdotsizeEA","ratio_trial":900,"smaller_num":"18","larger_num":"20","correct_side":2,"subjID":"AnaDaza","gender":"9","age":"9","school":"4"},{"start_time":1552055230115,"click_time":1552055232582,"finger_time":1552055230942,"fix_duration":650.45161947139,"trial":31,"RT":827,"MT":1640,"sideResp":1,"stimulus":"img/900/equaldotanddens/L/1_Ratio_900_L_10_R_9.png","xmouse":[812,812,812,812,812,812,812,812,812,812,812,812,812,812,812,812,812,825,833,833,833,833,833,833,833,833,833,833,833,833,833,833,833,833,833,833,833,833,833,833,833,842,855,963,1011,1055,1083,1092,1098,1098,1098,1099,1104,1136,1137,1151,1153,1168,1184,1184,1184,1184,1184,1184,1184,1184,1184,1184,1184,1184,1179,1158,1127,1055,1041,1007,976,915,884,868,855,853,853,848,830,829,829,820,776,770,770,770,760,744,739,733,731,731,728,728,728,724,719,711,697,697,697,697,697,697,693,684,673,669,667,652,636,630,608,590,571,556,529,509],"ymouse":[609,609,609,609,609,609,609,609,609,609,609,609,609,609,609,609,609,607,605,605,605,605,605,605,605,605,605,605,605,605,605,605,605,605,605,605,605,605,605,605,605,603,596,518,476,439,396,365,348,348,348,346,339,313,313,297,295,272,229,224,224,224,224,224,224,224,224,224,224,224,222,216,207,187,183,172,163,148,137,133,132,131,131,129,121,121,121,117,106,104,104,104,100,96,96,94,93,93,92,92,92,92,91,88,83,83,83,83,83,83,83,83,83,83,83,83,83,83,82,79,75,71,63,59],"timestamp_mouse":[11,31,47,68,87,107,127,148,167,189,209,228,247,269,289,309,328,347,367,389,407,428,447,469,489,508,527,547,567,587,608,627,647,667,689,709,728,748,768,787,807,827,848,868,887,908,928,947,967,987,1008,1027,1047,1067,1089,1108,1128,1149,1167,1187,1207,1228,1247,1268,1288,1307,1328,1349,1369,1389,1409,1428,1447,1467,1489,1507,1528,1548,1567,1587,1608,1628,1647,1668,1687,1708,1728,1747,1767,1788,1808,1827,1847,1868,1888,1908,1928,1948,1967,1987,2008,2028,2047,2067,2087,2108,2128,2149,2169,2188,2208,2227,2249,2268,2287,2307,2328,2347,2367,2387,2408,2428,2448,2467],"xSR":741.5,"ySR":573.95,"xT1":424.9,"yT1":0,"xT2":1058.1,"yT2":0,"toosoon":0,"cond_shown":"equaldotanddens","ratio_trial":900,"smaller_num":"9","larger_num":"10","correct_side":1,"subjID":"AnaDaza","gender":"9","age":"9","school":"4"},{"start_time":1552055235431,"click_time":1552055237723,"finger_time":1552055236243,"fix_duration":686.3093208868368,"trial":32,"RT":812,"MT":1480,"sideResp":2,"stimulus":"img/900/equaldotanddens/R/12_Ratio_900_L_18_R_20.png","xmouse":[788,788,788,788,788,788,788,788,788,788,788,788,788,788,788,788,788,788,788,788,788,788,788,788,788,788,788,788,788,788,788,788,788,788,788,788,788,788,788,788,822,880,994,1020,1031,1038,1038,1038,1038,1038,1038,1038,1038,1038,1038,1038,1038,1038,1038,1038,1038,1038,1038,1038,1038,1038,1038,1038,1038,1038,1038,1038,1038,1054,1060,1060,1060,1061,1061,1062,1062,1065,1074,1081,1088,1089,1092,1106,1111,1115,1115,1115,1115,1115,1115,1115,1116,1116,1116,1116,1116,1116,1116,1116,1116,1116,1116,1116,1116,1116,1116,1116,1116,1115,1112],"ymouse":[591,591,591,591,591,591,591,591,591,591,591,591,591,591,591,591,591,591,591,591,591,591,591,591,591,591,591,591,591,591,591,591,591,591,591,591,591,591,591,591,563,507,347,292,280,262,262,262,262,262,262,262,262,262,262,262,262,262,262,262,262,262,262,262,262,262,262,262,262,262,262,262,262,262,262,262,262,262,262,262,262,260,238,224,209,208,202,169,157,147,144,144,144,139,137,133,122,116,116,116,116,116,116,116,116,116,116,116,116,116,116,115,115,105,89],"timestamp_mouse":[12,31,51,73,92,111,133,151,171,191,212,231,253,271,291,313,332,351,373,391,413,431,451,472,493,511,531,551,572,593,613,631,651,673,692,712,731,751,771,791,812,831,851,871,893,912,931,952,972,991,1012,1033,1052,1071,1092,1111,1132,1153,1172,1191,1212,1231,1252,1273,1291,1312,1331,1351,1371,1393,1413,1433,1452,1471,1491,1511,1532,1552,1572,1591,1611,1631,1651,1671,1691,1712,1732,1751,1771,1791,1812,1833,1851,1871,1891,1911,1932,1951,1971,1991,2012,2031,2051,2071,2092,2112,2132,2152,2171,2192,2212,2232,2252,2271,2291],"xSR":741.5,"ySR":573.95,"xT1":424.9,"yT1":0,"xT2":1058.1,"yT2":0,"toosoon":0,"cond_shown":"equaldotanddens","ratio_trial":900,"smaller_num":"18","larger_num":"20","correct_side":2,"subjID":"AnaDaza","gender":"9","age":"9","school":"4"},{"start_time":1552055242006,"click_time":1552055244242,"finger_time":1552055243523,"fix_duration":501.2428720882529,"trial":33,"RT":1517,"MT":719,"sideResp":2,"stimulus":"img/750/randomdotsizeEA/R/7_Ratio_750_L_3_R_4.png","xmouse":[790,790,790,790,790,790,790,790,790,790,790,790,790,790,790,790,790,790,790,790,790,790,790,790,790,790,790,790,790,790,790,790,790,790,790,790,790,790,790,790,790,790,790,790,790,790,790,790,790,790,790,790,790,790,790,790,790,790,790,790,790,790,790,790,790,790,790,790,790,790,790,790,793,816,834,844,854,863,885,901,912,921,933,953,967,984,1003,1018,1054,1064,1072,1080,1087,1102,1110,1118,1123,1127,1133,1135,1139,1143,1146,1150,1150,1150,1150,1150,1150,1150,1150,1142],"ymouse":[647,647,647,647,647,647,647,647,647,647,647,647,647,647,647,647,647,647,647,647,647,647,647,647,647,647,647,647,647,647,647,647,647,647,647,647,647,647,647,647,647,647,647,647,647,647,647,647,647,647,647,647,647,647,647,647,647,647,647,647,647,647,647,647,647,647,647,647,647,647,647,647,644,640,638,635,630,624,609,594,580,564,543,502,479,446,414,388,325,307,291,278,267,247,236,224,212,202,179,164,152,141,134,122,118,115,114,114,114,114,107,93],"timestamp_mouse":[16,39,58,78,97,117,137,158,176,197,217,237,258,277,297,317,338,358,377,397,416,438,457,476,497,516,536,557,578,598,616,637,656,677,696,716,736,756,778,797,817,837,857,878,897,917,937,958,978,997,1017,1036,1057,1076,1098,1116,1137,1156,1177,1196,1216,1236,1257,1278,1298,1316,1336,1357,1378,1397,1417,1438,1457,1476,1496,1517,1536,1556,1576,1597,1616,1636,1657,1676,1697,1716,1738,1757,1776,1797,1816,1838,1856,1876,1897,1917,1936,1957,1977,1997,2016,2036,2056,2076,2096,2116,2137,2158,2177,2196,2216,2236],"xSR":741.5,"ySR":573.95,"xT1":424.9,"yT1":0,"xT2":1058.1,"yT2":0,"toosoon":0,"cond_shown":"randomdotsizeEA","ratio_trial":750,"smaller_num":"3","larger_num":"4","correct_side":2,"subjID":"AnaDaza","gender":"9","age":"9","school":"4"},{"start_time":1552055276687,"click_time":1552055278263,"finger_time":1552055277283,"fix_duration":864.4499222775922,"trial":34,"RT":596,"MT":980,"sideResp":2,"stimulus":"img/250/equaldotanddens/R/6_Ratio_250_L_6_R_24.png","xmouse":[791,791,791,791,791,791,791,791,791,791,791,791,791,791,791,791,791,791,791,791,791,791,791,791,792,797,804,809,821,865,895,913,926,944,980,994,1009,1029,1030,1034,1036,1039,1041,1041,1041,1041,1041,1041,1043,1043,1043,1043,1043,1044,1048,1049,1049,1049,1049,1049,1049,1049,1049,1049,1049,1049,1050,1052,1054,1054,1055,1055,1055,1055,1055,1055,1057,1057,1059],"ymouse":[634,634,634,634,634,634,634,634,634,634,634,634,634,634,634,634,634,634,634,634,634,634,634,634,634,632,628,627,621,591,568,550,536,520,483,454,404,301,233,155,131,114,107,106,105,105,105,104,103,103,103,103,103,103,103,103,103,103,103,103,103,103,103,103,102,102,102,99,96,95,93,92,91,91,91,91,89,86,82],"timestamp_mouse":[17,38,56,77,97,115,135,156,176,197,215,235,256,275,295,315,337,356,376,397,416,437,456,475,495,515,535,556,576,596,615,636,656,676,696,717,737,755,776,796,815,837,857,876,897,916,937,956,976,995,1015,1036,1056,1075,1095,1115,1137,1156,1176,1197,1216,1235,1256,1276,1295,1316,1335,1356,1377,1396,1416,1436,1456,1476,1496,1516,1535,1555,1575],"xSR":741.5,"ySR":573.95,"xT1":424.9,"yT1":0,"xT2":1058.1,"yT2":0,"toosoon":0,"cond_shown":"equaldotanddens","ratio_trial":250,"smaller_num":"6","larger_num":"24","correct_side":2,"subjID":"AnaDaza","gender":"9","age":"9","school":"4"},{"start_time":1552055279454,"click_time":1552055280664,"finger_time":1552055280484,"fix_duration":250,"trial":35,"RT":1030,"MT":180,"sideResp":2,"stimulus":"img/900/equaldotanddens/R/3_Ratio_900_L_9_R_10.png","xmouse":[800,800,800,800,800,800,800,800,800,800,800,802,803,803,803,803,803,803,803,803,803,803,803,803,803,803,803,803,803,803,803,803,803,803,803,803,804,804,804,804,805,805,805,805,805,805,806,809,811,821,836,877,903,929,964,1049,1080,1095,1100,1100,1100],"ymouse":[648,648,648,648,648,648,648,648,648,648,647,646,645,645,645,645,645,645,645,645,645,645,645,645,645,645,645,645,645,645,645,645,645,645,645,644,644,644,644,644,643,643,643,643,643,643,641,640,638,632,624,594,572,548,512,377,292,220,139,111,91],"timestamp_mouse":[16,37,48,68,88,109,128,150,168,190,208,228,249,268,288,309,329,349,368,389,408,428,450,469,488,509,530,548,569,588,608,628,650,668,689,710,729,749,768,788,809,829,850,868,889,910,928,949,968,989,1008,1030,1049,1068,1088,1109,1128,1149,1168,1189,1210],"xSR":741.5,"ySR":573.95,"xT1":424.9,"yT1":0,"xT2":1058.1,"yT2":0,"toosoon":0,"cond_shown":"equaldotanddens","ratio_trial":900,"smaller_num":"9","larger_num":"10","correct_side":2,"subjID":"AnaDaza","gender":"9","age":"9","school":"4"},{"start_time":1552055287598,"click_time":1552055288842,"finger_time":1552055288303,"fix_duration":1394.5077244229433,"trial":36,"RT":705,"MT":539,"sideResp":2,"stimulus":"img/500/equaldotanddens/R/12_Ratio_500_L_1_R_2.png","xmouse":[811,811,811,811,811,811,811,811,811,811,811,811,811,811,811,811,811,811,811,811,811,811,811,811,811,811,811,811,811,811,811,811,811,812,826,841,855,862,867,880,886,892,895,899,904,906,907,908,909,914,921,924,930,936,945,951,959,969,984,1045,1086,1110,1125],"ymouse":[647,647,647,647,647,647,647,647,647,647,647,647,647,647,647,647,647,647,647,647,647,647,647,647,647,647,647,647,647,647,647,647,644,637,591,547,480,431,408,365,355,347,342,337,330,328,327,326,325,321,316,312,308,303,294,288,281,270,253,188,151,119,89],"timestamp_mouse":[10,29,45,64,84,105,125,146,165,185,205,225,244,266,285,304,325,344,364,385,406,425,444,465,484,504,526,545,564,585,606,624,644,664,684,705,724,744,764,784,806,824,844,864,884,906,925,945,964,984,1006,1024,1046,1066,1085,1104,1125,1144,1164,1184,1205,1224,1244],"xSR":741.5,"ySR":573.95,"xT1":424.9,"yT1":0,"xT2":1058.1,"yT2":0,"toosoon":0,"cond_shown":"equaldotanddens","ratio_trial":500,"smaller_num":"1","larger_num":"2","correct_side":2,"subjID":"AnaDaza","gender":"9","age":"9","school":"4"},{"start_time":1552055290830,"click_time":1552055292283,"finger_time":1552055291622,"fix_duration":1066.7010671197727,"trial":37,"RT":792,"MT":661,"sideResp":2,"stimulus":"img/250/equaldotsize/R/6_Ratio_250_L_6_R_24.png","xmouse":[779,779,779,779,779,779,779,779,779,779,779,779,779,779,779,779,779,779,779,779,779,779,779,779,779,779,779,779,779,779,779,779,779,779,779,779,779,786,833,866,892,934,994,1024,1028,1046,1059,1078,1080,1080,1080,1080,1082,1083,1083,1083,1083,1083,1083,1083,1083,1083,1083,1083,1083,1083,1083,1083,1083,1083,1083,1083,1085],"ymouse":[646,646,646,646,646,646,646,646,646,646,646,646,646,646,646,646,646,646,646,646,646,646,646,646,646,646,646,646,646,646,646,646,646,646,646,646,646,640,593,533,482,406,314,281,275,259,248,236,235,235,235,235,234,232,230,230,230,223,212,205,200,194,189,188,182,175,170,162,157,156,140,107,29],"timestamp_mouse":[13,32,53,72,93,114,134,153,174,194,213,233,254,274,293,313,334,354,373,392,414,432,452,472,494,512,533,553,574,593,614,633,653,673,694,713,732,752,773,792,812,832,852,873,892,913,932,952,973,992,1013,1034,1052,1073,1093,1112,1133,1152,1173,1192,1214,1232,1252,1272,1293,1313,1333,1353,1373,1392,1413,1433,1453],"xSR":741.5,"ySR":573.95,"xT1":424.9,"yT1":0,"xT2":1058.1,"yT2":0,"toosoon":0,"cond_shown":"equaldotsize","ratio_trial":250,"smaller_num":"6","larger_num":"24","correct_side":2,"subjID":"AnaDaza","gender":"9","age":"9","school":"4"},{"start_time":1552055293728,"click_time":1552055295902,"finger_time":1552055294603,"fix_duration":445.1853744911423,"trial":38,"RT":875,"MT":1299,"sideResp":1,"stimulus":"img/250/randomdotsizeEA/L/2_Ratio_250_L_16_R_4.png","xmouse":[790,790,790,790,790,790,790,790,790,794,797,798,800,801,802,802,802,802,802,802,802,802,802,802,802,802,802,802,802,802,802,802,802,802,802,802,803,807,817,821,826,830,840,844,848,852,856,860,865,868,868,868,868,868,869,873,882,921,950,973,991,1018,1058,1066,1069,1071,1071,1073,1073,1070,1065,1052,980,937,894,855,820,782,774,762,752,742,724,719,719,719,718,710,700,692,682,669,657,654,652,651,649,647,644,641,638,634,620,611,595,573,550,533,505],"ymouse":[652,652,652,652,652,652,652,652,652,649,646,646,645,644,643,642,642,642,642,642,642,642,642,642,642,642,642,642,642,642,642,642,642,642,642,642,641,636,623,618,613,607,593,588,583,579,571,561,551,546,545,545,545,545,544,541,535,507,491,478,467,458,446,443,441,439,437,429,429,421,411,390,277,226,177,127,89,57,50,43,36,30,19,18,18,18,18,20,27,34,42,54,63,65,66,66,66,66,66,66,66,67,70,73,75,78,81,84,89],"timestamp_mouse":[18,38,54,75,94,114,136,155,175,195,214,235,255,274,294,315,334,354,375,394,414,436,454,475,496,516,534,555,576,596,615,635,654,676,695,715,734,754,776,795,814,835,854,875,894,916,936,954,974,994,1015,1034,1055,1076,1094,1114,1134,1154,1175,1194,1214,1235,1254,1274,1294,1314,1335,1355,1374,1394,1414,1434,1454,1474,1494,1514,1534,1554,1574,1595,1614,1634,1654,1674,1694,1714,1736,1755,1774,1795,1814,1835,1854,1876,1894,1914,1934,1955,1975,1994,2014,2035,2054,2076,2094,2114,2134,2154,2174],"xSR":741.5,"ySR":573.95,"xT1":424.9,"yT1":0,"xT2":1058.1,"yT2":0,"toosoon":0,"cond_shown":"randomdotsizeEA","ratio_trial":250,"smaller_num":"4","larger_num":"16","correct_side":1,"subjID":"AnaDaza","gender":"9","age":"9","school":"4"},{"start_time":1552055298141,"click_time":1552055300082,"finger_time":1552055298983,"fix_duration":1176.2720718150686,"trial":39,"RT":842,"MT":1099,"sideResp":1,"stimulus":"img/900/equaldotsize/R/13_Ratio_900_L_18_R_20.png","xmouse":[807,807,807,807,807,807,807,807,807,807,807,807,807,807,807,807,807,807,807,807,807,807,807,807,807,807,807,807,807,807,807,807,807,807,807,807,807,809,812,819,828,836,849,861,877,921,960,1024,1024,1024,1034,1047,1055,1061,1062,1062,1062,1062,1062,1062,1062,1062,1022,980,910,878,847,822,816,811,798,789,776,757,742,726,706,675,666,652,639,627,619,616,615,608,601,583,578,576,575,574,562,555,548,537,527,517],"ymouse":[668,668,668,668,668,668,668,668,668,668,668,668,668,668,668,668,668,668,668,668,668,668,668,668,668,668,668,668,668,668,668,668,668,668,668,668,668,667,659,647,631,614,593,579,572,553,534,507,507,507,502,492,480,467,463,459,459,454,454,454,454,454,433,407,361,334,303,283,280,278,273,269,264,253,243,230,212,173,157,137,116,99,89,86,86,83,83,77,76,75,75,74,72,71,70,69,69,69],"timestamp_mouse":[10,22,42,61,82,103,122,142,162,183,202,221,242,261,282,302,322,341,361,382,401,421,442,461,481,501,522,542,562,582,601,622,641,662,683,703,722,742,761,782,801,822,842,862,881,901,921,941,963,982,1001,1022,1042,1063,1081,1101,1121,1142,1162,1181,1201,1221,1242,1262,1281,1301,1321,1341,1362,1381,1401,1421,1442,1463,1481,1502,1521,1541,1562,1582,1603,1623,1641,1662,1681,1702,1721,1741,1762,1781,1801,1821,1841,1862,1881,1902,1921,1941],"xSR":741.5,"ySR":573.95,"xT1":424.9,"yT1":0,"xT2":1058.1,"yT2":0,"toosoon":0,"cond_shown":"equaldotsize","ratio_trial":900,"smaller_num":"18","larger_num":"20","correct_side":2,"subjID":"AnaDaza","gender":"9","age":"9","school":"4"},{"start_time":1552055302653,"click_time":1552055308682,"finger_time":1552055307783,"fix_duration":1269.3874879868472,"trial":40,"RT":5130,"MT":899,"sideResp":2,"stimulus":"img/500/randomdotsizeEA/L/8_Ratio_500_L_8_R_4.png","xmouse":[781,781,781,781,781,781,781,781,781,781,781,781,781,781,781,781,781,781,781,781,781,781,781,781,781,781,781,781,781,781,781,781,781,781,781,781,781,781,781,781,781,781,781,781,781,781,781,781,781,781,781,781,781,781,781,781,781,781,781,781,781,781,781,781,781,781,781,781,781,781,781,781,781,781,781,781,781,781,781,781,781,781,781,781,781,781,781,781,781,781,781,781,781,781,781,781,781,781,781,781,781,781,781,781,781,781,781,781,781,781,781,781,781,781,781,781,781,781,781,781,781,781,781,781,781,781,781,781,781,781,781,781,781,781,781,781,781,781,781,781,781,781,781,781,781,781,781,781,781,781,781,781,781,781,781,781,781,781,781,781,781,781,781,781,781,781,781,781,781,781,781,781,781,781,781,781,781,781,781,781,781,781,781,781,781,781,781,781,781,781,781,781,781,781,781,781,781,781,781,781,781,781,781,781,781,781,781,781,781,781,781,781,781,781,781,781,781,781,781,781,781,781,781,781,781,781,781,781,781,781,781,781,781,781,781,781,781,781,781,781,781,781,781,781,781,781,781,781,781,781,781,782,799,808,812,819,863,886,893,912,952,998,1017,1039,1060,1079,1099,1105,1112,1120,1131,1161,1188,1204,1227,1241,1262,1265,1267,1267,1267,1267,1267,1267,1269,1269,1265,1263,1260,1258,1251,1228,1221,1217,1214,1213,1203,1197,1193,1190,1185,1155],"ymouse":[631,631,631,631,631,631,631,631,631,631,631,631,631,631,631,631,631,631,631,631,631,631,631,631,631,631,631,631,631,631,631,631,631,631,631,631,631,631,631,631,631,631,631,631,631,631,631,631,631,631,631,631,631,631,631,631,631,631,631,631,631,631,631,631,631,631,631,631,631,631,631,631,631,631,631,631,631,631,631,631,631,631,631,631,631,631,631,631,631,631,631,631,631,631,631,631,631,631,631,631,631,631,631,631,631,631,631,631,631,631,631,631,631,631,631,631,631,631,631,631,631,631,631,631,631,631,631,631,631,631,631,631,631,631,631,631,631,631,631,631,631,631,631,631,631,631,631,631,631,631,631,631,631,631,631,631,631,631,631,631,631,631,631,631,631,631,631,631,631,631,631,631,631,631,631,631,631,631,631,631,631,631,631,631,631,631,631,631,631,631,631,631,631,631,631,631,631,631,631,631,631,631,631,631,631,631,631,631,631,631,631,631,631,631,631,631,631,631,631,631,631,631,631,631,631,631,631,631,631,631,631,631,631,631,631,631,631,631,631,631,631,631,631,631,631,631,631,631,631,631,631,631,631,626,623,616,598,593,591,584,567,542,531,518,510,498,481,472,459,444,423,366,318,285,248,227,202,202,201,201,201,201,201,201,200,200,184,182,180,176,169,148,142,138,136,135,126,121,116,112,106,82],"timestamp_mouse":[11,30,50,70,90,109,130,149,169,190,210,230,249,270,291,310,330,350,370,390,410,430,449,470,490,509,530,550,571,590,609,630,651,670,690,710,729,750,769,790,811,830,849,870,889,910,930,950,970,991,1010,1030,1050,1069,1090,1111,1131,1149,1169,1190,1209,1229,1251,1271,1291,1310,1330,1350,1369,1391,1411,1431,1451,1469,1490,1509,1531,1551,1570,1590,1610,1631,1649,1670,1690,1711,1730,1749,1769,1790,1809,1829,1850,1869,1889,1910,1930,1950,1971,1989,2009,2030,2050,2069,2090,2111,2131,2149,2169,2190,2210,2230,2251,2271,2290,2310,2330,2350,2370,2390,2411,2429,2451,2470,2489,2510,2531,2550,2569,2590,2611,2631,2650,2670,2690,2711,2731,2750,2770,2789,2810,2831,2851,2870,2890,2909,2931,2950,2971,2990,3009,3030,3050,3071,3089,3110,3129,3150,3169,3190,3210,3229,3251,3269,3290,3310,3330,3349,3370,3389,3411,3430,3449,3470,3490,3511,3531,3549,3569,3590,3610,3630,3650,3671,3689,3710,3730,3751,3770,3789,3809,3830,3850,3870,3890,3911,3929,3951,3970,3989,4009,4030,4049,4070,4091,4111,4130,4150,4170,4191,4211,4230,4250,4269,4290,4310,4329,4350,4371,4389,4410,4429,4450,4471,4490,4511,4530,4550,4570,4591,4610,4630,4650,4669,4691,4710,4730,4750,4771,4790,4809,4829,4850,4869,4890,4910,4929,4950,4970,4989,5009,5029,5050,5070,5091,5110,5130,5150,5169,5189,5209,5229,5250,5269,5290,5310,5330,5349,5369,5390,5409,5429,5450,5470,5489,5509,5529,5550,5570,5589,5610,5630,5650,5670,5690,5709,5730,5749,5769,5789,5809,5829,5849,5869,5890,5910,5930,5950,5969,5990,6011,6029],"xSR":741.5,"ySR":573.95,"xT1":424.9,"yT1":0,"xT2":1058.1,"yT2":0,"toosoon":0,"cond_shown":"randomdotsizeEA","ratio_trial":500,"smaller_num":"4","larger_num":"8","correct_side":1,"subjID":"AnaDaza","gender":"9","age":"9","school":"4"},{"start_time":1552055310575,"click_time":1552055313302,"finger_time":1552055311743,"fix_duration":350.0790902342729,"trial":41,"RT":1168,"MT":1559,"sideResp":2,"stimulus":"img/500/equaldotanddens/R/3_Ratio_500_L_10_R_20.png","xmouse":[746,746,746,746,746,746,746,746,746,746,746,746,746,746,746,746,746,746,746,746,746,746,746,746,746,746,746,746,746,746,746,746,746,746,746,746,746,746,746,746,746,746,746,746,746,746,746,746,746,746,746,746,746,746,751,758,758,758,762,766,768,776,782,790,797,817,822,825,825,825,825,825,826,834,843,866,880,893,901,908,915,918,921,926,931,940,945,948,948,957,975,989,996,996,996,1005,1019,1030,1038,1038,1038,1038,1038,1039,1052,1066,1068,1073,1079,1088,1101,1101,1101,1106,1108,1113,1115,1116,1116,1116,1117,1117,1117,1117,1117,1117,1117,1117,1117,1117,1117,1117,1115,1113,1113,1107,1106],"ymouse":[584,584,584,584,584,584,584,584,584,584,584,584,584,584,584,584,584,584,584,584,584,584,584,584,584,584,584,584,584,584,584,584,584,584,584,584,584,584,584,584,584,584,584,584,584,584,584,584,584,584,584,584,584,585,583,577,577,577,573,568,558,546,542,536,532,521,518,518,518,518,518,518,518,518,518,518,518,514,509,503,498,496,491,481,469,448,438,433,433,424,409,401,396,396,396,389,381,374,372,372,372,372,372,370,358,345,343,334,326,313,295,295,295,286,273,249,234,219,202,187,163,146,141,137,136,136,136,136,136,136,135,134,129,125,120,102,97],"timestamp_mouse":[11,37,49,69,88,109,127,148,169,188,209,227,248,267,289,309,327,347,368,387,408,429,449,467,488,508,528,548,568,587,607,629,648,668,688,708,728,748,768,788,807,827,848,869,889,908,927,949,967,988,1007,1029,1049,1067,1087,1107,1129,1148,1168,1187,1207,1228,1247,1267,1287,1307,1329,1347,1368,1388,1407,1427,1447,1467,1487,1507,1528,1547,1568,1588,1608,1628,1647,1669,1688,1708,1728,1748,1767,1788,1807,1827,1847,1867,1887,1907,1928,1947,1967,1988,2007,2029,2049,2068,2087,2107,2128,2148,2168,2188,2207,2227,2248,2268,2289,2307,2327,2348,2367,2387,2407,2428,2447,2467,2488,2507,2527,2547,2568,2588,2608,2629,2647,2669,2689,2707,2727],"xSR":741.5,"ySR":573.95,"xT1":424.9,"yT1":0,"xT2":1058.1,"yT2":0,"toosoon":0,"cond_shown":"equaldotanddens","ratio_trial":500,"smaller_num":"10","larger_num":"20","correct_side":2,"subjID":"AnaDaza","gender":"9","age":"9","school":"4"},{"start_time":1552055318689,"click_time":1552055319885,"finger_time":1552055319502,"fix_duration":945.5772695405238,"trial":42,"RT":813,"MT":383,"sideResp":1,"stimulus":"img/500/equaldotsize/L/8_Ratio_500_L_8_R_4.png","xmouse":[787,787,787,787,787,787,787,787,787,787,787,787,787,787,787,787,787,787,787,787,787,787,787,787,787,787,787,787,787,787,787,787,787,787,789,791,795,798,803,812,820,820,820,814,758,716,648,603,568,529,513,500,487,477,464,463,463,463,463,456],"ymouse":[658,658,658,658,658,658,658,658,658,658,658,658,658,658,658,658,658,658,658,658,658,658,658,658,658,658,658,658,658,658,658,658,658,658,657,654,643,634,624,578,524,472,426,372,233,160,70,22,0,0,0,0,0,0,0,0,0,0,0,14],"timestamp_mouse":[14,36,54,73,93,115,135,154,173,195,215,233,254,275,295,314,334,354,375,395,414,434,453,474,493,514,534,554,575,593,614,633,655,674,693,714,733,754,775,793,813,834,855,874,893,913,933,954,975,996,1013,1034,1054,1073,1093,1114,1134,1154,1175,1196],"xSR":741.5,"ySR":573.95,"xT1":424.9,"yT1":0,"xT2":1058.1,"yT2":0,"toosoon":0,"cond_shown":"equaldotsize","ratio_trial":500,"smaller_num":"4","larger_num":"8","correct_side":1,"subjID":"AnaDaza","gender":"9","age":"9","school":"4"},{"start_time":1552055322444,"click_time":1552055323882,"finger_time":1552055323122,"fix_duration":860.2786582818654,"trial":43,"RT":678,"MT":760,"sideResp":2,"stimulus":"img/750/equaldotanddens/R/2_Ratio_750_L_6_R_8.png","xmouse":[781,781,781,781,781,781,781,781,781,781,781,781,781,781,781,781,781,781,787,793,794,794,794,794,794,794,794,794,794,794,799,821,838,867,909,952,1005,1030,1045,1055,1066,1099,1115,1128,1137,1141,1147,1147,1147,1147,1147,1147,1147,1147,1147,1147,1147,1147,1145,1142,1142,1140,1139,1139,1139,1139,1138,1138,1138,1138,1136,1120],"ymouse":[642,642,642,642,642,642,642,642,642,642,642,642,642,642,642,642,642,642,642,641,640,640,640,640,640,640,640,640,640,640,637,619,603,579,511,434,334,292,270,254,236,201,181,169,164,160,153,153,153,153,153,153,153,153,153,153,147,141,133,129,124,118,115,115,115,114,113,113,113,113,111,95],"timestamp_mouse":[19,38,59,80,99,118,138,159,179,198,219,239,258,279,299,319,338,360,379,399,419,440,460,479,499,519,539,559,579,599,618,638,658,678,698,718,739,760,779,798,818,838,859,879,899,918,938,959,980,998,1019,1039,1058,1079,1099,1119,1139,1159,1178,1199,1219,1239,1258,1280,1299,1319,1338,1358,1378,1400,1418,1438],"xSR":741.5,"ySR":573.95,"xT1":424.9,"yT1":0,"xT2":1058.1,"yT2":0,"toosoon":0,"cond_shown":"equaldotanddens","ratio_trial":750,"smaller_num":"6","larger_num":"8","correct_side":2,"subjID":"AnaDaza","gender":"9","age":"9","school":"4"},{"start_time":1552055328668,"click_time":1552055329903,"finger_time":1552055329483,"fix_duration":1124.578460061812,"trial":44,"RT":815,"MT":420,"sideResp":1,"stimulus":"img/900/equaldotsize/R/9_Ratio_900_L_18_R_20.png","xmouse":[785,785,785,785,785,785,785,785,785,785,785,785,785,785,785,785,785,785,785,785,785,785,785,785,785,785,785,785,785,785,785,785,785,785,785,785,785,785,785,779,742,728,715,705,696,654,636,619,609,606,601,595,585,576,566,558,535,527,522,519,522,523],"ymouse":[631,631,631,631,631,631,631,631,631,631,631,631,631,631,631,631,631,631,631,631,631,631,631,631,631,631,631,628,625,623,620,620,620,620,620,620,620,620,615,603,553,534,515,502,490,459,449,438,431,428,422,413,402,391,375,357,278,226,183,156,114,97],"timestamp_mouse":[19,37,54,74,96,114,134,155,175,196,214,234,255,275,295,315,335,354,376,395,414,435,454,475,496,514,535,556,575,594,614,635,656,674,695,715,736,756,775,794,815,834,854,874,895,915,935,954,975,995,1014,1034,1054,1074,1094,1114,1134,1154,1174,1194,1214,1235],"xSR":741.5,"ySR":573.95,"xT1":424.9,"yT1":0,"xT2":1058.1,"yT2":0,"toosoon":0,"cond_shown":"equaldotsize","ratio_trial":900,"smaller_num":"18","larger_num":"20","correct_side":2,"subjID":"AnaDaza","gender":"9","age":"9","school":"4"},{"start_time":1552055332503,"click_time":1552055333885,"finger_time":1552055333263,"fix_duration":1319.6945563031757,"trial":45,"RT":760,"MT":622,"sideResp":2,"stimulus":"img/750/equaldotsize/R/3_Ratio_750_L_15_R_20.png","xmouse":[819,819,819,819,819,819,819,819,819,819,819,819,819,819,819,819,819,819,819,819,819,819,819,819,819,819,819,819,819,819,819,819,819,819,819,819,820,829,844,868,882,901,938,986,1047,1175,1222,1254,1274,1291,1296,1298,1300,1301,1300,1296,1291,1286,1284,1283,1283,1283,1283,1281,1269,1232,1212,1191,1173,1147],"ymouse":[618,618,618,618,618,618,618,618,618,618,618,618,618,618,618,618,618,618,618,618,618,618,618,618,618,618,618,618,618,618,618,618,618,618,618,618,617,616,611,601,590,573,538,495,431,219,158,118,92,56,42,32,24,13,0,0,0,0,0,0,0,0,0,0,5,20,28,37,47,63],"timestamp_mouse":[1,32,39,60,81,99,119,141,159,179,200,221,239,261,279,300,320,340,359,380,399,421,440,459,480,499,519,540,560,580,600,620,640,660,680,700,719,739,760,780,801,820,841,860,879,899,919,939,959,979,999,1020,1039,1060,1082,1100,1120,1140,1160,1181,1200,1221,1241,1261,1279,1300,1320,1340,1360,1381],"xSR":741.5,"ySR":573.95,"xT1":424.9,"yT1":0,"xT2":1058.1,"yT2":0,"toosoon":0,"cond_shown":"equaldotsize","ratio_trial":750,"smaller_num":"15","larger_num":"20","correct_side":2,"subjID":"AnaDaza","gender":"9","age":"9","school":"4"},{"start_time":1552055335655,"click_time":1552055337483,"finger_time":1552055336723,"fix_duration":250,"trial":46,"RT":1068,"MT":760,"sideResp":1,"stimulus":"img/900/equaldotsize/L/10_Ratio_900_L_20_R_18.png","xmouse":[785,785,785,785,785,785,785,785,785,785,785,785,785,785,785,785,785,785,785,785,785,785,785,785,785,785,785,785,785,785,785,785,785,785,785,785,785,785,785,785,785,785,785,785,785,785,785,785,785,785,785,785,768,754,725,705,688,685,685,685,685,677,670,668,666,666,666,666,657,642,627,598,585,574,566,558,542,537,533,529,526,525,525,523,521,517,508,507,506,505,503,496],"ymouse":[620,620,620,620,620,620,620,620,620,620,620,620,620,620,620,620,620,620,620,620,620,620,620,620,620,620,620,620,620,620,620,620,620,620,620,620,620,620,620,620,620,620,620,620,620,620,620,620,620,620,620,620,590,566,517,478,448,427,408,384,355,297,275,263,259,257,257,257,249,233,212,176,160,149,141,137,132,132,131,131,131,130,130,130,130,129,128,127,127,125,120,98],"timestamp_mouse":[18,35,48,68,89,108,128,147,168,187,208,228,247,269,288,308,328,348,368,387,409,428,447,468,489,507,529,548,568,588,609,628,649,667,688,707,728,749,768,788,809,827,847,867,888,907,929,949,968,989,1008,1029,1048,1068,1089,1108,1127,1148,1167,1187,1209,1228,1249,1268,1289,1308,1329,1348,1368,1389,1408,1427,1448,1468,1488,1508,1528,1548,1567,1588,1607,1627,1647,1668,1688,1708,1728,1747,1767,1788,1808,1828],"xSR":741.5,"ySR":573.95,"xT1":424.9,"yT1":0,"xT2":1058.1,"yT2":0,"toosoon":0,"cond_shown":"equaldotsize","ratio_trial":900,"smaller_num":"18","larger_num":"20","correct_side":1,"subjID":"AnaDaza","gender":"9","age":"9","school":"4"},{"start_time":1552055339568,"click_time":1552055341783,"finger_time":1552055340282,"fix_duration":784.4442870680017,"trial":47,"RT":714,"MT":1501,"sideResp":1,"stimulus":"img/250/equaldotsize/L/1_Ratio_250_L_8_R_2.png","xmouse":[811,808,767,757,753,752,752,752,752,752,752,752,752,752,752,752,752,752,752,752,752,752,752,752,752,753,755,756,757,757,758,758,760,760,760,745,727,701,674,638,547,533,525,521,519,513,509,505,501,500,500,500,500,500,500,500,500,500,500,500,500,500,500,500,500,500,500,500,503,508,510,510,510,510,510,512,516,522,526,532,538,539,539,539,541,541,543,544,544,544,545,546,547,547,547,547,547,547,547,547,545,545,545,545,545,545,545,545,543,536,514],"ymouse":[643,643,627,624,622,622,622,622,622,622,622,622,622,622,622,622,622,622,622,622,622,622,622,622,621,620,618,617,616,616,616,612,606,596,576,512,472,415,367,311,179,163,152,146,143,135,129,122,117,114,113,113,113,113,113,113,113,113,113,113,113,113,113,113,113,113,113,113,113,113,113,113,113,113,113,112,112,109,107,103,97,96,96,96,94,93,91,89,89,89,88,88,87,87,87,87,86,84,81,76,67,67,67,67,67,67,67,67,67,68,76],"timestamp_mouse":[15,36,56,75,96,114,135,156,176,196,214,235,256,275,296,315,336,354,375,396,415,436,456,476,494,515,534,555,576,594,614,636,655,675,694,714,735,755,776,796,815,834,854,874,896,915,935,955,975,995,1015,1035,1056,1075,1094,1114,1135,1155,1174,1195,1214,1236,1255,1276,1294,1315,1335,1355,1376,1396,1415,1435,1456,1475,1495,1514,1536,1555,1576,1595,1615,1635,1654,1676,1695,1714,1734,1754,1775,1795,1814,1836,1856,1875,1894,1915,1934,1954,1975,1996,2015,2036,2054,2074,2096,2116,2135,2155,2176,2195,2215],"xSR":741.5,"ySR":573.95,"xT1":424.9,"yT1":0,"xT2":1058.1,"yT2":0,"toosoon":0,"cond_shown":"equaldotsize","ratio_trial":250,"smaller_num":"2","larger_num":"8","correct_side":1,"subjID":"AnaDaza","gender":"9","age":"9","school":"4"},{"start_time":1552055343655,"click_time":1552055345623,"finger_time":1552055344483,"fix_duration":250,"trial":48,"RT":828,"MT":1140,"sideResp":1,"stimulus":"img/250/equaldotanddens/L/15_Ratio_250_L_12_R_3.png","xmouse":[768,768,768,768,768,768,768,768,768,769,771,771,771,771,771,771,771,774,776,776,776,776,776,776,776,776,776,776,776,776,776,776,776,776,777,778,780,780,782,786,788,793,794,796,796,790,752,743,738,733,727,722,722,722,722,722,722,722,722,721,709,536,415,340,311,303,302,302,302,302,302,302,302,302,302,302,302,302,312,329,341,349,355,363,372,384,386,386,387,390,393,408,411,411,411,411,415,420,429],"ymouse":[614,614,614,614,614,614,614,614,614,615,615,615,615,615,615,615,615,614,614,614,614,614,614,614,614,614,614,614,614,614,614,614,614,614,614,614,613,613,611,605,598,565,536,478,397,314,180,157,136,122,113,106,106,106,106,106,106,106,106,106,106,106,96,67,54,50,50,50,50,50,50,50,50,50,50,50,50,50,50,50,51,51,51,51,51,50,49,49,48,47,47,47,47,47,47,47,47,47,47],"timestamp_mouse":[16,39,49,67,87,109,127,149,168,188,208,229,249,267,288,309,329,348,367,389,408,428,449,467,488,507,529,549,569,587,609,629,648,667,687,707,728,747,767,788,807,828,848,868,888,907,928,947,968,988,1008,1028,1047,1068,1089,1107,1128,1149,1169,1188,1209,1227,1248,1267,1288,1309,1328,1347,1369,1388,1408,1429,1449,1468,1488,1508,1528,1548,1569,1587,1607,1628,1648,1668,1689,1709,1727,1748,1767,1787,1807,1827,1848,1867,1888,1908,1928,1948,1968],"xSR":741.5,"ySR":573.95,"xT1":424.9,"yT1":0,"xT2":1058.1,"yT2":0,"toosoon":0,"cond_shown":"equaldotanddens","ratio_trial":250,"smaller_num":"3","larger_num":"12","correct_side":1,"subjID":"AnaDaza","gender":"9","age":"9","school":"4"},{"start_time":1552055348377,"click_time":1552055350223,"finger_time":1552055349322,"fix_duration":393.1256265531622,"trial":49,"RT":945,"MT":901,"si