[{"start_time":1552054098271,"click_time":1552054099583,"finger_time":1552054099301,"fix_duration":765.6651572052785,"trial":0,"RT":1030,"MT":282,"sideResp":2,"stimulus":[],"xmouse":[779,779,779,779,779,779,779,779,779,779,779,779,779,779,779,779,779,779,779,779,779,779,779,779,779,779,779,779,779,779,779,779,779,779,779,779,779,779,779,779,779,779,779,779,779,779,779,783,790,800,817,880,915,945,973,998,1033,1043,1052,1061,1067,1076,1083,1089,1094,1100],"ymouse":[526,526,526,526,526,526,526,526,526,526,526,526,526,526,526,526,526,526,526,526,526,526,526,526,526,526,526,526,526,526,526,526,526,526,526,526,526,526,526,526,526,526,526,526,526,526,526,520,509,497,480,431,400,373,341,309,262,246,228,208,194,159,143,125,108,94],"timestamp_mouse":[10,35,50,71,90,110,131,151,171,191,212,231,252,270,290,311,331,350,372,390,410,430,452,470,491,510,532,552,571,591,611,630,651,670,692,710,730,751,772,790,811,830,852,870,891,911,931,950,970,991,1010,1030,1050,1071,1090,1110,1131,1151,1171,1191,1212,1231,1251,1270,1290,1312],"xSR":741.5,"ySR":501.8,"xT1":424.9,"yT1":0,"xT2":1058.1,"yT2":0,"toosoon":0,"cond_shown":"Incongruent","ratio_trial":300,"L_num":8,"L_den":10,"R_num":9,"R_den":18,"correct_side":1,"subjID":"AnaMariaDazaMarin35","gender":"20.19","age":"9","school":"4","test":{"fix_dur":[250,1500],"timestim":1000,"targets_dim":[100,100],"targets_relative_coord":[0.3,0.7],"size_stim":[880,420],"start_dim":[100,100],"size_start":[300,300],"size_fix":60,"samplingrate":20,"img_types":["Congruent","Incongruent"],"ratios":[100,200,300],"rep_conds":19,"nTrials":120,"trials_to_rest":500,"Trials_order":[101,88,46,47,37,117,95,20,14,87,27,93,50,41,3,44,21,91,4,86,9,105,85,97,113,111,2,104,84,35,109,70,77,22,98,56,108,13,52,6,100,64,65,15,25,55,60,102,7,24,80,78,115,61,119,83,49,73,51,66,11,114,34,43,96,116,0,45,72,110,94,30,18,17,26,79,58,39,31,75,5,48,59,76,12,19,53,57,71,63,10,67,112,23,89,62,106,118,54,74,90,1,38,42,81,92,40,8,16,28,68,103,33,32,69,36,82,99,29,107],"cond_shown":["Incongruent","Congruent","Congruent","Incongruent","Incongruent","Incongruent","Incongruent","Congruent","Congruent","Incongruent","Incongruent","Incongruent","Congruent","Incongruent","Incongruent","Congruent","Incongruent","Incongruent","Congruent","Congruent","Incongruent","Incongruent","Incongruent","Incongruent","Incongruent","Incongruent","Congruent","Congruent","Congruent","Incongruent","Incongruent","Congruent","Incongruent","Congruent","Congruent","Congruent","Congruent","Incongruent","Congruent","Congruent","Congruent","Congruent","Incongruent","Incongruent","Incongruent","Incongruent","Congruent","Congruent","Incongruent","Congruent","Congruent","Congruent","Incongruent","Incongruent","Incongruent","Incongruent","Incongruent","Incongruent","Incongruent","Congruent","Incongruent","Congruent","Congruent","Incongruent","Congruent","Congruent","Congruent","Incongruent","Congruent","Congruent","Congruent","Congruent","Congruent","Incongruent","Congruent","Incongruent","Congruent","Incongruent","Incongruent","Incongruent","Incongruent","Congruent","Incongruent","Congruent","Congruent","Incongruent","Incongruent","Incongruent","Incongruent","Incongruent","Congruent","Incongruent","Congruent","Incongruent","Incongruent","Congruent","Congruent","Congruent","Congruent","Congruent","Congruent","Incongruent","Congruent","Congruent","Incongruent","Congruent","Congruent","Congruent","Congruent","Congruent","Congruent","Incongruent","Incongruent","Congruent","Incongruent","Congruent","Congruent","Incongruent","Incongruent","Incongruent"],"ratio_trial":[300,300,300,300,100,200,300,200,200,200,200,200,200,300,200,200,200,100,300,200,200,200,100,100,300,200,200,200,100,300,100,300,300,300,200,200,100,100,300,100,300,300,300,200,100,100,100,100,100,100,200,100,100,100,300,300,100,100,200,100,300,100,300,100,100,200,100,200,100,200,300,100,100,300,200,100,300,200,100,200,300,100,300,300,100,100,300,200,300,200,300,100,300,300,300,200,300,300,100,200,100,100,200,100,200,200,300,200,300,300,200,100,200,200,200,100,300,200,300,300],"left_num":[8,20,4,4,8,14,13,3,6,7,4,9,16,4,7,16,1,9,2,3,7,14,3,1,13,1,3,3,1,7,9,2,4,18,16,7,10,12,1,1,20,4,8,7,3,6,7,9,2,1,12,9,12,13,2,4,2,11,7,15,13,7,1,6,8,13,6,7,8,4,9,6,12,4,3,4,3,4,6,6,4,2,1,1,9,13,4,7,7,1,20,6,11,13,8,3,1,8,2,4,4,9,8,11,4,21,18,16,8,2,13,2,7,15,9,1,1,3,13,4],"right_num":[9,8,13,2,1,12,12,9,7,14,6,8,12,2,12,12,3,13,10,11,8,6,4,8,12,2,14,14,18,8,20,10,2,9,9,18,3,2,3,18,5,2,14,8,4,7,15,8,8,3,6,8,9,6,6,2,6,9,12,13,12,15,6,7,2,14,15,8,2,3,3,15,13,2,11,8,2,14,13,3,2,11,2,3,8,12,2,12,8,3,14,13,1,12,9,14,7,1,6,3,15,6,2,4,6,2,9,9,10,10,14,8,8,4,8,18,11,1,12,2],"left_den":[10,25,20,20,20,30,26,12,12,10,5,15,20,20,10,20,2,15,20,10,10,30,6,2,26,3,10,6,2,10,10,20,20,20,30,15,25,30,5,2,25,5,10,10,6,10,14,15,4,2,15,15,24,26,4,20,4,22,10,25,26,14,5,10,16,26,12,10,16,10,10,12,30,20,10,8,6,6,10,20,20,5,2,5,15,26,20,10,10,2,25,10,22,26,10,10,20,16,5,10,10,18,15,22,5,30,20,30,15,20,26,4,10,25,15,2,5,10,26,20],"right_den":[18,16,26,4,2,18,15,20,10,28,10,10,20,4,24,20,10,26,25,22,16,9,10,20,15,15,28,20,30,20,25,25,4,15,27,27,10,4,6,30,10,4,28,16,10,14,25,16,20,5,10,16,15,10,30,4,15,15,24,26,15,25,12,14,5,20,25,16,5,15,5,25,26,4,22,20,10,30,26,6,4,22,10,6,16,20,4,24,20,10,28,26,5,15,18,28,20,5,12,15,30,10,6,10,10,4,15,27,12,25,20,20,16,10,10,30,22,2,15,4],"correct_side":[1,1,2,2,2,2,2,2,2,1,1,2,1,2,1,1,1,1,2,2,1,2,1,1,2,1,2,2,2,1,1,2,2,1,1,2,1,2,2,2,1,1,1,1,1,1,2,1,1,2,1,1,2,2,1,2,1,2,1,1,2,2,2,1,1,2,2,1,1,1,1,2,2,2,2,1,1,1,1,2,2,2,1,2,1,2,2,1,1,1,1,1,1,2,1,2,2,1,2,1,2,2,1,1,1,1,1,1,2,2,2,1,1,1,2,2,2,2,2,2],"img_shown":["img2/300/Incongruent/L/I_Dist_300_LN_8_LD_10_RN_9_RD_18_0.png","img2/300/Congruent/L/C_Dist_300_LN_20_LD_25_RN_8_RD_16_0.png","img2/300/Congruent/R/C_Dist_300_LN_4_LD_20_RN_13_RD_26_1.png","img2/300/Incongruent/R/I_Dist_300_LN_4_LD_20_RN_2_RD_4_1.png","img2/100/Incongruent/R/I_Dist_100_LN_8_LD_20_RN_1_RD_2_1.png","img2/200/Incongruent/R/I_Dist_200_LN_14_LD_30_RN_12_RD_18_1.png","img2/300/Incongruent/R/I_Dist_300_LN_13_LD_26_RN_12_RD_15_1.png","img2/200/Congruent/R/C_Dist_200_LN_3_LD_12_RN_9_RD_20_1.png","img2/200/Congruent/R/C_Dist_200_LN_6_LD_12_RN_7_RD_10_1.png","img2/200/Incongruent/L/I_Dist_200_LN_7_LD_10_RN_14_RD_28_0.png","img2/200/Incongruent/L/I_Dist_200_LN_4_LD_5_RN_6_RD_10_0.png","img2/200/Incongruent/R/I_Dist_200_LN_9_LD_15_RN_8_RD_10_1.png","img2/200/Congruent/L/C_Dist_200_LN_16_LD_20_RN_12_RD_20_0.png","img2/300/Incongruent/R/I_Dist_300_LN_4_LD_20_RN_2_RD_4_1.png","img2/200/Incongruent/L/I_Dist_200_LN_7_LD_10_RN_12_RD_24_0.png","img2/200/Congruent/L/C_Dist_200_LN_16_LD_20_RN_12_RD_20_0.png","img2/200/Incongruent/L/I_Dist_200_LN_1_LD_2_RN_3_RD_10_0.png","img2/100/Incongruent/L/I_Dist_100_LN_9_LD_15_RN_13_RD_26_0.png","img2/300/Congruent/R/C_Dist_300_LN_2_LD_20_RN_10_RD_25_1.png","img2/200/Congruent/R/C_Dist_200_LN_3_LD_10_RN_11_RD_22_1.png","img2/200/Incongruent/L/I_Dist_200_LN_7_LD_10_RN_8_RD_16_0.png","img2/200/Incongruent/R/I_Dist_200_LN_14_LD_30_RN_6_RD_9_1.png","img2/100/Incongruent/L/I_Dist_100_LN_3_LD_6_RN_4_RD_10_0.png","img2/100/Incongruent/L/I_Dist_100_LN_1_LD_2_RN_8_RD_20_0.png","img2/300/Incongruent/R/I_Dist_300_LN_13_LD_26_RN_12_RD_15_1.png","img2/200/Incongruent/L/I_Dist_200_LN_1_LD_3_RN_2_RD_15_0.png","img2/200/Congruent/R/C_Dist_200_LN_3_LD_10_RN_14_RD_28_1.png","img2/200/Congruent/R/C_Dist_200_LN_3_LD_6_RN_14_RD_20_1.png","img2/100/Congruent/R/C_Dist_100_LN_1_LD_2_RN_18_RD_30_1.png","img2/300/Incongruent/L/I_Dist_300_LN_7_LD_10_RN_8_RD_20_0.png","img2/100/Incongruent/L/I_Dist_100_LN_9_LD_10_RN_20_RD_25_0.png","img2/300/Congruent/R/C_Dist_300_LN_2_LD_20_RN_10_RD_25_1.png","img2/300/Incongruent/R/I_Dist_300_LN_4_LD_20_RN_2_RD_4_1.png","img2/300/Congruent/L/C_Dist_300_LN_18_LD_20_RN_9_RD_15_0.png","img2/200/Congruent/L/C_Dist_200_LN_16_LD_30_RN_9_RD_27_0.png","img2/200/Congruent/R/C_Dist_200_LN_7_LD_15_RN_18_RD_27_1.png","img2/100/Congruent/L/C_Dist_100_LN_10_LD_25_RN_3_RD_10_0.png","img2/100/Incongruent/R/I_Dist_100_LN_12_LD_30_RN_2_RD_4_1.png","img2/300/Congruent/R/C_Dist_300_LN_1_LD_5_RN_3_RD_6_1.png","img2/100/Congruent/R/C_Dist_100_LN_1_LD_2_RN_18_RD_30_1.png","img2/300/Congruent/L/C_Dist_300_LN_20_LD_25_RN_5_RD_10_0.png","img2/300/Congruent/L/C_Dist_300_LN_4_LD_5_RN_2_RD_4_0.png","img2/300/Incongruent/L/I_Dist_300_LN_8_LD_10_RN_14_RD_28_0.png","img2/200/Incongruent/L/I_Dist_200_LN_7_LD_10_RN_8_RD_16_0.png","img2/100/Incongruent/L/I_Dist_100_LN_3_LD_6_RN_4_RD_10_0.png","img2/100/Incongruent/L/I_Dist_100_LN_6_LD_10_RN_7_RD_14_0.png","img2/100/Congruent/R/C_Dist_100_LN_7_LD_14_RN_15_RD_25_1.png","img2/100/Congruent/L/C_Dist_100_LN_9_LD_15_RN_8_RD_16_0.png","img2/100/Incongruent/L/I_Dist_100_LN_2_LD_4_RN_8_RD_20_0.png","img2/100/Congruent/R/C_Dist_100_LN_1_LD_2_RN_3_RD_5_1.png","img2/200/Congruent/L/C_Dist_200_LN_12_LD_15_RN_6_RD_10_0.png","img2/100/Congruent/L/C_Dist_100_LN_9_LD_15_RN_8_RD_16_0.png","img2/100/Incongruent/R/I_Dist_100_LN_12_LD_24_RN_9_RD_15_1.png","img2/100/Incongruent/R/I_Dist_100_LN_13_LD_26_RN_6_RD_10_1.png","img2/300/Incongruent/L/I_Dist_300_LN_2_LD_4_RN_6_RD_30_0.png","img2/300/Incongruent/R/I_Dist_300_LN_4_LD_20_RN_2_RD_4_1.png","img2/100/Incongruent/L/I_Dist_100_LN_2_LD_4_RN_6_RD_15_0.png","img2/100/Incongruent/R/I_Dist_100_LN_11_LD_22_RN_9_RD_15_1.png","img2/200/Incongruent/L/I_Dist_200_LN_7_LD_10_RN_12_RD_24_0.png","img2/100/Congruent/L/C_Dist_100_LN_15_LD_25_RN_13_RD_26_0.png","img2/300/Incongruent/R/I_Dist_300_LN_13_LD_26_RN_12_RD_15_1.png","img2/100/Congruent/R/C_Dist_100_LN_7_LD_14_RN_15_RD_25_1.png","img2/300/Congruent/R/C_Dist_300_LN_1_LD_5_RN_6_RD_12_1.png","img2/100/Incongruent/L/I_Dist_100_LN_6_LD_10_RN_7_RD_14_0.png","img2/100/Congruent/L/C_Dist_100_LN_8_LD_16_RN_2_RD_5_0.png","img2/200/Congruent/R/C_Dist_200_LN_13_LD_26_RN_14_RD_20_1.png","img2/100/Congruent/R/C_Dist_100_LN_6_LD_12_RN_15_RD_25_1.png","img2/200/Incongruent/L/I_Dist_200_LN_7_LD_10_RN_8_RD_16_0.png","img2/100/Congruent/L/C_Dist_100_LN_8_LD_16_RN_2_RD_5_0.png","img2/200/Congruent/L/C_Dist_200_LN_4_LD_10_RN_3_RD_15_0.png","img2/300/Congruent/L/C_Dist_300_LN_9_LD_10_RN_3_RD_5_0.png","img2/100/Congruent/R/C_Dist_100_LN_6_LD_12_RN_15_RD_25_1.png","img2/100/Congruent/R/C_Dist_100_LN_12_LD_30_RN_13_RD_26_1.png","img2/300/Incongruent/R/I_Dist_300_LN_4_LD_20_RN_2_RD_4_1.png","img2/200/Congruent/R/C_Dist_200_LN_3_LD_10_RN_11_RD_22_1.png","img2/100/Incongruent/L/I_Dist_100_LN_4_LD_8_RN_8_RD_20_0.png","img2/300/Congruent/L/C_Dist_300_LN_3_LD_6_RN_2_RD_10_0.png","img2/200/Incongruent/L/I_Dist_200_LN_4_LD_6_RN_14_RD_30_0.png","img2/100/Incongruent/L/I_Dist_100_LN_6_LD_10_RN_13_RD_26_0.png","img2/200/Incongruent/R/I_Dist_200_LN_6_LD_20_RN_3_RD_6_1.png","img2/300/Incongruent/R/I_Dist_300_LN_4_LD_20_RN_2_RD_4_1.png","img2/100/Congruent/R/C_Dist_100_LN_2_LD_5_RN_11_RD_22_1.png","img2/300/Incongruent/L/I_Dist_300_LN_1_LD_2_RN_2_RD_10_0.png","img2/300/Congruent/R/C_Dist_300_LN_1_LD_5_RN_3_RD_6_1.png","img2/100/Congruent/L/C_Dist_100_LN_9_LD_15_RN_8_RD_16_0.png","img2/100/Incongruent/R/I_Dist_100_LN_13_LD_26_RN_12_RD_20_1.png","img2/300/Incongruent/R/I_Dist_300_LN_4_LD_20_RN_2_RD_4_1.png","img2/200/Incongruent/L/I_Dist_200_LN_7_LD_10_RN_12_RD_24_0.png","img2/300/Incongruent/L/I_Dist_300_LN_7_LD_10_RN_8_RD_20_0.png","img2/200/Incongruent/L/I_Dist_200_LN_1_LD_2_RN_3_RD_10_0.png","img2/300/Congruent/L/C_Dist_300_LN_20_LD_25_RN_14_RD_28_0.png","img2/100/Incongruent/L/I_Dist_100_LN_6_LD_10_RN_13_RD_26_0.png","img2/300/Congruent/L/C_Dist_300_LN_11_LD_22_RN_1_RD_5_0.png","img2/300/Incongruent/R/I_Dist_300_LN_13_LD_26_RN_12_RD_15_1.png","img2/300/Incongruent/L/I_Dist_300_LN_8_LD_10_RN_9_RD_18_0.png","img2/200/Congruent/R/C_Dist_200_LN_3_LD_10_RN_14_RD_28_1.png","img2/300/Congruent/R/C_Dist_300_LN_1_LD_20_RN_7_RD_20_1.png","img2/300/Congruent/L/C_Dist_300_LN_8_LD_16_RN_1_RD_5_0.png","img2/100/Congruent/R/C_Dist_100_LN_2_LD_5_RN_6_RD_12_1.png","img2/200/Congruent/L/C_Dist_200_LN_4_LD_10_RN_3_RD_15_0.png","img2/100/Congruent/R/C_Dist_100_LN_4_LD_10_RN_15_RD_30_1.png","img2/100/Incongruent/R/I_Dist_100_LN_9_LD_18_RN_6_RD_10_1.png","img2/200/Congruent/L/C_Dist_200_LN_8_LD_15_RN_2_RD_6_0.png","img2/100/Congruent/L/C_Dist_100_LN_11_LD_22_RN_4_RD_10_0.png","img2/200/Incongruent/L/I_Dist_200_LN_4_LD_5_RN_6_RD_10_0.png","img2/200/Congruent/L/C_Dist_200_LN_21_LD_30_RN_2_RD_4_0.png","img2/300/Congruent/L/C_Dist_300_LN_18_LD_20_RN_9_RD_15_0.png","img2/200/Congruent/L/C_Dist_200_LN_16_LD_30_RN_9_RD_27_0.png","img2/300/Congruent/R/C_Dist_300_LN_8_LD_15_RN_10_RD_12_1.png","img2/300/Congruent/R/C_Dist_300_LN_2_LD_20_RN_10_RD_25_1.png","img2/200/Congruent/R/C_Dist_200_LN_13_LD_26_RN_14_RD_20_1.png","img2/100/Incongruent/L/I_Dist_100_LN_2_LD_4_RN_8_RD_20_0.png","img2/200/Incongruent/L/I_Dist_200_LN_7_LD_10_RN_8_RD_16_0.png","img2/200/Congruent/L/C_Dist_200_LN_15_LD_25_RN_4_RD_10_0.png","img2/200/Incongruent/R/I_Dist_200_LN_9_LD_15_RN_8_RD_10_1.png","img2/100/Congruent/R/C_Dist_100_LN_1_LD_2_RN_18_RD_30_1.png","img2/300/Congruent/R/C_Dist_300_LN_1_LD_5_RN_11_RD_22_1.png","img2/200/Incongruent/R/I_Dist_200_LN_3_LD_10_RN_1_RD_2_1.png","img2/300/Incongruent/R/I_Dist_300_LN_13_LD_26_RN_12_RD_15_1.png","img2/300/Incongruent/R/I_Dist_300_LN_4_LD_20_RN_2_RD_4_1.png"],"dist100_C":[["C_Dist_100_LN_10_LD_25_RN_3_RD_10_0.png","C_Dist_100_LN_11_LD_22_RN_4_RD_10_0.png","C_Dist_100_LN_11_LD_22_RN_6_RD_15_0.png","C_Dist_100_LN_15_LD_25_RN_13_RD_26_0.png","C_Dist_100_LN_3_LD_6_RN_2_RD_5_0.png","C_Dist_100_LN_6_LD_20_RN_5_RD_25_0.png","C_Dist_100_LN_8_LD_16_RN_2_RD_5_0.png","C_Dist_100_LN_9_LD_15_RN_8_RD_16_0.png"],["C_Dist_100_LN_1_LD_2_RN_18_RD_30_1.png","C_Dist_100_LN_1_LD_2_RN_3_RD_5_1.png","C_Dist_100_LN_12_LD_30_RN_13_RD_26_1.png","C_Dist_100_LN_2_LD_5_RN_11_RD_22_1.png","C_Dist_100_LN_2_LD_5_RN_6_RD_12_1.png","C_Dist_100_LN_3_LD_20_RN_4_RD_16_1.png","C_Dist_100_LN_4_LD_10_RN_15_RD_30_1.png","C_Dist_100_LN_4_LD_8_RN_6_RD_10_1.png","C_Dist_100_LN_6_LD_12_RN_15_RD_25_1.png","C_Dist_100_LN_7_LD_14_RN_15_RD_25_1.png","C_Dist_100_LN_7_LD_14_RN_9_RD_15_1.png"]],"dist100_I":[["I_Dist_100_LN_1_LD_2_RN_8_RD_20_0.png","I_Dist_100_LN_2_LD_4_RN_6_RD_15_0.png","I_Dist_100_LN_2_LD_4_RN_8_RD_20_0.png","I_Dist_100_LN_3_LD_5_RN_11_RD_22_0.png","I_Dist_100_LN_3_LD_5_RN_8_RD_16_0.png","I_Dist_100_LN_3_LD_6_RN_4_RD_10_0.png","I_Dist_100_LN_3_LD_9_RN_7_RD_30_0.png","I_Dist_100_LN_4_LD_8_RN_8_RD_20_0.png","I_Dist_100_LN_6_LD_10_RN_11_RD_22_0.png","I_Dist_100_LN_6_LD_10_RN_13_RD_26_0.png","I_Dist_100_LN_6_LD_10_RN_7_RD_14_0.png","I_Dist_100_LN_9_LD_10_RN_20_RD_25_0.png","I_Dist_100_LN_9_LD_15_RN_13_RD_26_0.png","I_Dist_100_LN_9_LD_15_RN_14_RD_28_0.png"],["I_Dist_100_LN_10_LD_25_RN_8_RD_16_1.png","I_Dist_100_LN_10_LD_25_RN_9_RD_18_1.png","I_Dist_100_LN_11_LD_22_RN_9_RD_15_1.png","I_Dist_100_LN_12_LD_24_RN_9_RD_15_1.png","I_Dist_100_LN_12_LD_30_RN_2_RD_4_1.png","I_Dist_100_LN_13_LD_26_RN_12_RD_20_1.png","I_Dist_100_LN_13_LD_26_RN_6_RD_10_1.png","I_Dist_100_LN_17_LD_30_RN_10_RD_15_1.png","I_Dist_100_LN_6_LD_12_RN_3_RD_5_1.png","I_Dist_100_LN_8_LD_16_RN_6_RD_10_1.png","I_Dist_100_LN_8_LD_20_RN_1_RD_2_1.png","I_Dist_100_LN_9_LD_18_RN_6_RD_10_1.png"]],"dist100_S":[["E_Dist_100_LN_2_LD_12_RN_2_RD_30_0.png","E_Dist_100_LN_6_LD_10_RN_6_RD_12_0.png"],["E_Dist_100_LN_6_LD_12_RN_6_RD_10_1.png"]],"dist200_C":[["C_Dist_200_LN_11_LD_22_RN_3_RD_10_0.png","C_Dist_200_LN_12_LD_15_RN_6_RD_10_0.png","C_Dist_200_LN_12_LD_20_RN_6_RD_15_0.png","C_Dist_200_LN_14_LD_28_RN_6_RD_20_0.png","C_Dist_200_LN_15_LD_25_RN_4_RD_10_0.png","C_Dist_200_LN_16_LD_20_RN_12_RD_20_0.png","C_Dist_200_LN_16_LD_30_RN_9_RD_27_0.png","C_Dist_200_LN_20_LD_25_RN_9_RD_15_0.png","C_Dist_200_LN_21_LD_30_RN_2_RD_4_0.png","C_Dist_200_LN_4_LD_10_RN_3_RD_15_0.png","C_Dist_200_LN_4_LD_8_RN_3_RD_10_0.png","C_Dist_200_LN_6_LD_15_RN_3_RD_15_0.png","C_Dist_200_LN_7_LD_21_RN_2_RD_15_0.png","C_Dist_200_LN_8_LD_15_RN_2_RD_6_0.png","C_Dist_200_LN_8_LD_15_RN_3_RD_9_0.png","C_Dist_200_LN_8_LD_15_RN_7_RD_21_0.png","C_Dist_200_LN_9_LD_20_RN_4_RD_16_0.png"],["C_Dist_200_LN_1_LD_2_RN_21_RD_30_1.png","C_Dist_200_LN_13_LD_26_RN_14_RD_20_1.png","C_Dist_200_LN_3_LD_10_RN_11_RD_22_1.png","C_Dist_200_LN_3_LD_10_RN_14_RD_28_1.png","C_Dist_200_LN_3_LD_10_RN_7_RD_14_1.png","C_Dist_200_LN_3_LD_12_RN_9_RD_20_1.png","C_Dist_200_LN_3_LD_6_RN_14_RD_20_1.png","C_Dist_200_LN_5_LD_10_RN_14_RD_20_1.png","C_Dist_200_LN_6_LD_12_RN_7_RD_10_1.png","C_Dist_200_LN_6_LD_20_RN_11_RD_22_1.png","C_Dist_200_LN_7_LD_15_RN_18_RD_27_1.png","C_Dist_200_LN_9_LD_30_RN_13_RD_26_1.png"]],"dist200_I":[["I_Dist_200_LN_1_LD_2_RN_3_RD_10_0.png","I_Dist_200_LN_1_LD_3_RN_2_RD_15_0.png","I_Dist_200_LN_3_LD_4_RN_11_RD_20_0.png","I_Dist_200_LN_4_LD_5_RN_6_RD_10_0.png","I_Dist_200_LN_4_LD_6_RN_14_RD_30_0.png","I_Dist_200_LN_7_LD_10_RN_12_RD_24_0.png","I_Dist_200_LN_7_LD_10_RN_14_RD_28_0.png","I_Dist_200_LN_7_LD_10_RN_8_RD_16_0.png"],["I_Dist_200_LN_11_LD_20_RN_3_RD_4_1.png","I_Dist_200_LN_14_LD_30_RN_12_RD_18_1.png","I_Dist_200_LN_14_LD_30_RN_6_RD_9_1.png","I_Dist_200_LN_3_LD_10_RN_1_RD_2_1.png","I_Dist_200_LN_4_LD_30_RN_1_RD_3_1.png","I_Dist_200_LN_6_LD_20_RN_3_RD_6_1.png","I_Dist_200_LN_7_LD_15_RN_4_RD_6_1.png","I_Dist_200_LN_7_LD_15_RN_6_RD_9_1.png","I_Dist_200_LN_9_LD_15_RN_8_RD_10_1.png"]],"dist200_S":[["E_Dist_200_LN_3_LD_6_RN_3_RD_10_0.png"],["E_Dist_200_LN_3_LD_10_RN_3_RD_6_1.png"]],"dist300_C":[["C_Dist_300_LN_11_LD_22_RN_1_RD_5_0.png","C_Dist_300_LN_11_LD_22_RN_2_RD_10_0.png","C_Dist_300_LN_11_LD_22_RN_4_RD_20_0.png","C_Dist_300_LN_12_LD_24_RN_2_RD_10_0.png","C_Dist_300_LN_18_LD_20_RN_9_RD_15_0.png","C_Dist_300_LN_20_LD_25_RN_13_RD_26_0.png","C_Dist_300_LN_20_LD_25_RN_14_RD_28_0.png","C_Dist_300_LN_20_LD_25_RN_5_RD_10_0.png","C_Dist_300_LN_20_LD_25_RN_8_RD_16_0.png","C_Dist_300_LN_20_LD_25_RN_9_RD_18_0.png","C_Dist_300_LN_24_LD_30_RN_2_RD_4_0.png","C_Dist_300_LN_24_LD_30_RN_8_RD_16_0.png","C_Dist_300_LN_3_LD_6_RN_2_RD_10_0.png","C_Dist_300_LN_4_LD_10_RN_1_RD_10_0.png","C_Dist_300_LN_4_LD_5_RN_2_RD_4_0.png","C_Dist_300_LN_8_LD_16_RN_1_RD_5_0.png","C_Dist_300_LN_9_LD_10_RN_3_RD_5_0.png"],["C_Dist_300_LN_1_LD_20_RN_7_RD_20_1.png","C_Dist_300_LN_1_LD_3_RN_19_RD_30_1.png","C_Dist_300_LN_1_LD_30_RN_8_RD_24_1.png","C_Dist_300_LN_1_LD_5_RN_11_RD_22_1.png","C_Dist_300_LN_1_LD_5_RN_3_RD_6_1.png","C_Dist_300_LN_1_LD_5_RN_6_RD_12_1.png","C_Dist_300_LN_2_LD_10_RN_12_RD_24_1.png","C_Dist_300_LN_2_LD_20_RN_10_RD_25_1.png","C_Dist_300_LN_3_LD_12_RN_11_RD_20_1.png","C_Dist_300_LN_3_LD_6_RN_4_RD_5_1.png","C_Dist_300_LN_4_LD_20_RN_13_RD_26_1.png","C_Dist_300_LN_5_LD_25_RN_6_RD_12_1.png","C_Dist_300_LN_5_LD_25_RN_7_RD_14_1.png","C_Dist_300_LN_7_LD_14_RN_20_RD_25_1.png","C_Dist_300_LN_8_LD_15_RN_10_RD_12_1.png"]],"dist300_I":[["I_Dist_300_LN_1_LD_2_RN_2_RD_10_0.png","I_Dist_300_LN_1_LD_2_RN_3_RD_15_0.png","I_Dist_300_LN_2_LD_4_RN_6_RD_30_0.png","I_Dist_300_LN_3_LD_6_RN_4_RD_20_0.png","I_Dist_300_LN_4_LD_5_RN_6_RD_12_0.png","I_Dist_300_LN_4_LD_5_RN_8_RD_16_0.png","I_Dist_300_LN_7_LD_10_RN_8_RD_20_0.png","I_Dist_300_LN_8_LD_10_RN_14_RD_28_0.png","I_Dist_300_LN_8_LD_10_RN_9_RD_18_0.png"],["I_Dist_300_LN_13_LD_26_RN_12_RD_15_1.png","I_Dist_300_LN_4_LD_20_RN_2_RD_4_1.png"]],"dist300_S":[["E_Dist_300_LN_9_LD_12_RN_9_RD_20_0.png"],["E_Dist_300_LN_18_LD_30_RN_18_RD_20_1.png","E_Dist_300_LN_3_LD_10_RN_3_RD_5_1.png","E_Dist_300_LN_9_LD_20_RN_9_RD_12_1.png"]],"dist500_C":[["C_Dist_500_LN_10_LD_13_RN_7_RD_26_0.png","C_Dist_500_LN_10_LD_15_RN_4_RD_24_0.png","C_Dist_500_LN_12_LD_16_RN_3_RD_12_0.png","C_Dist_500_LN_12_LD_18_RN_4_RD_24_0.png","C_Dist_500_LN_15_LD_18_RN_5_RD_15_0.png","C_Dist_500_LN_15_LD_20_RN_1_RD_4_0.png","C_Dist_500_LN_18_LD_27_RN_1_RD_6_0.png","C_Dist_500_LN_20_LD_24_RN_1_RD_3_0.png","C_Dist_500_LN_20_LD_24_RN_3_RD_9_0.png","C_Dist_500_LN_20_LD_24_RN_7_RD_21_0.png","C_Dist_500_LN_20_LD_28_RN_3_RD_14_0.png","C_Dist_500_LN_21_LD_28_RN_6_RD_24_0.png","C_Dist_500_LN_22_LD_28_RN_2_RD_7_0.png","C_Dist_500_LN_25_LD_30_RN_9_RD_27_0.png","C_Dist_500_LN_4_LD_6_RN_1_RD_6_0.png","C_Dist_500_LN_5_LD_6_RN_2_RD_6_0.png","C_Dist_500_LN_6_LD_9_RN_1_RD_6_0.png","C_Dist_500_LN_7_LD_10_RN_1_RD_5_0.png","C_Dist_500_LN_8_LD_12_RN_1_RD_6_0.png","C_Dist_500_LN_8_LD_12_RN_4_RD_24_0.png"],["C_Dist_500_LN_1_LD_4_RN_12_RD_16_1.png","C_Dist_500_LN_1_LD_4_RN_9_RD_12_1.png","C_Dist_500_LN_1_LD_9_RN_11_RD_18_1.png","C_Dist_500_LN_10_LD_24_RN_22_RD_24_1.png","C_Dist_500_LN_2_LD_12_RN_10_RD_15_1.png","C_Dist_500_LN_2_LD_12_RN_12_RD_18_1.png","C_Dist_500_LN_2_LD_12_RN_4_RD_6_1.png","C_Dist_500_LN_2_LD_24_RN_7_RD_12_1.png","C_Dist_500_LN_2_LD_5_RN_18_RD_20_1.png","C_Dist_500_LN_2_LD_5_RN_9_RD_10_1.png","C_Dist_500_LN_2_LD_8_RN_12_RD_16_1.png","C_Dist_500_LN_2_LD_8_RN_21_RD_28_1.png","C_Dist_500_LN_3_LD_10_RN_4_RD_5_1.png","C_Dist_500_LN_3_LD_12_RN_15_RD_20_1.png","C_Dist_500_LN_3_LD_30_RN_6_RD_10_1.png","C_Dist_500_LN_3_LD_8_RN_14_RD_16_1.png","C_Dist_500_LN_4_LD_16_RN_15_RD_20_1.png","C_Dist_500_LN_4_LD_24_RN_12_RD_18_1.png","C_Dist_500_LN_5_LD_14_RN_6_RD_7_1.png","C_Dist_500_LN_7_LD_21_RN_20_RD_24_1.png","C_Dist_500_LN_7_LD_28_RN_12_RD_16_1.png","C_Dist_500_LN_7_LD_28_RN_9_RD_12_1.png","C_Dist_500_LN_9_LD_27_RN_20_RD_24_1.png"]],"dist500_I":[["I_Dist_500_LN_2_LD_3_RN_4_RD_24_0.png","I_Dist_500_LN_5_LD_6_RN_6_RD_18_0.png","I_Dist_500_LN_7_LD_8_RN_9_RD_24_0.png"],["I_Dist_500_LN_7_LD_21_RN_5_RD_6_1.png"]],"dist500_S":[["E_Dist_500_LN_6_LD_8_RN_6_RD_24_0.png"],["E_Dist_500_LN_2_LD_12_RN_2_RD_3_1.png","E_Dist_500_LN_6_LD_24_RN_6_RD_8_1.png"]]}},{"start_time":1552054103452,"click_time":1552054105041,"finger_time":1552054104342,"fix_duration":250,"trial":1,"RT":890,"MT":699,"sideResp":1,"stimulus":[],"xmouse":[790,790,790,790,790,790,790,790,790,790,790,790,790,790,790,790,790,790,790,790,790,790,790,790,790,790,790,790,790,790,790,790,790,790,790,790,790,790,790,790,790,790,780,751,698,637,579,532,530,530,525,519,471,438,409,385,363,335,331,331,331,332,332,337,341,347,351,371,389,396,401,405,411,413,414,415,417,422,424,431],"ymouse":[535,535,535,535,535,535,535,535,535,535,535,535,535,535,535,535,535,535,535,535,535,535,535,535,535,535,535,535,535,535,535,535,535,535,535,535,535,535,535,535,535,535,519,483,431,370,312,268,266,266,260,252,200,164,135,117,103,75,68,66,62,60,57,52,50,49,48,44,42,40,39,38,37,37,36,36,36,35,35,35],"timestamp_mouse":[12,32,49,70,89,110,131,149,170,190,211,229,249,270,290,310,329,349,369,390,410,430,449,471,490,510,530,550,570,590,610,629,649,671,689,710,730,750,770,790,811,829,850,869,890,910,931,950,970,989,1009,1029,1049,1070,1090,1109,1129,1149,1170,1190,1209,1229,1249,1270,1289,1309,1330,1349,1370,1389,1409,1429,1449,1470,1489,1510,1530,1550,1570,1589],"xSR":741.5,"ySR":469.95,"xT1":424.9,"yT1":0,"xT2":1058.1,"yT2":0,"toosoon":0,"cond_shown":"Congruent","ratio_trial":300,"L_num":20,"L_den":25,"R_num":8,"R_den":16,"correct_side":1,"subjID":"AnaMariaDazaMarin35","gender":"20.19","school":"4","age":"9"},{"start_time":1552054116311,"click_time":1552054118561,"finger_time":1552054118001,"fix_duration":425.73498356337427,"trial":2,"RT":1690,"MT":560,"sideResp":2,"stimulus":[],"xmouse":[780,780,780,780,780,780,780,780,780,780,780,780,780,780,780,780,780,780,780,780,780,780,780,780,780,780,780,780,780,780,780,780,780,780,780,780,780,780,780,780,780,780,780,780,780,780,780,780,780,780,780,780,780,780,780,780,780,780,780,780,780,780,780,780,780,780,780,780,780,780,780,780,780,780,780,780,780,780,780,784,786,791,801,804,863,923,975,1005,1021,1032,1032,1032,1032,1027,1017,1014,1012,1012,1012,1013,1016,1017,1018,1020,1029,1036,1038,1042,1046,1054,1057,1057,1059],"ymouse":[538,538,538,538,538,538,538,538,538,538,538,538,538,538,538,538,538,538,538,538,538,538,538,538,538,538,538,538,538,538,538,538,538,538,538,538,538,538,538,538,538,538,538,538,538,538,538,538,538,538,538,538,538,538,538,538,538,538,538,538,538,538,538,538,538,538,538,538,538,538,538,538,538,538,538,538,538,538,538,535,531,526,515,512,489,460,423,396,370,286,255,227,201,178,156,141,131,121,111,101,98,97,96,96,92,90,89,89,86,83,82,82,81],"timestamp_mouse":[11,37,51,71,91,111,132,150,170,190,211,231,251,270,291,311,331,351,370,390,411,431,452,470,490,511,531,550,571,591,610,631,652,671,690,710,730,751,770,792,811,831,851,871,890,911,930,952,971,990,1011,1031,1052,1070,1091,1111,1130,1151,1172,1191,1210,1230,1251,1272,1291,1310,1331,1351,1372,1391,1411,1431,1451,1472,1490,1510,1531,1551,1571,1590,1610,1630,1651,1671,1690,1711,1730,1750,1771,1790,1810,1831,1851,1871,1891,1911,1930,1951,1970,1991,2010,2031,2050,2071,2090,2112,2131,2152,2172,2190,2210,2230,2250],"xSR":741.5,"ySR":469.95,"xT1":424.9,"yT1":0,"xT2":1058.1,"yT2":0,"toosoon":0,"cond_shown":"Congruent","ratio_trial":300,"L_num":4,"L_den":20,"R_num":13,"R_den":26,"correct_side":2,"subjID":"AnaMariaDazaMarin35","gender":"20.19","school":"4","age":"9"},{"start_time":1552054120089,"click_time":1552054121901,"finger_time":1552054120761,"fix_duration":586.1483746137678,"trial":3,"RT":672,"MT":1140,"sideResp":1,"stimulus":[],"xmouse":[817,817,817,817,817,817,817,817,817,817,817,817,817,817,817,817,817,817,817,817,817,817,817,817,817,817,817,817,817,817,817,801,752,691,629,597,597,597,597,597,597,597,593,589,585,584,584,584,584,584,584,584,584,584,582,574,571,567,564,562,560,551,532,532,532,532,532,532,532,532,532,532,532,532,532,532,532,532,532,532,532,532,532,532,532,532,532,532,407,414,439],"ymouse":[523,523,523,523,523,523,523,523,523,523,523,523,523,523,523,523,523,523,523,523,523,523,523,523,523,523,523,523,523,523,523,510,481,444,405,389,389,389,389,389,388,384,378,374,371,369,369,369,369,369,369,369,369,367,363,350,344,335,318,291,184,100,40,40,40,40,40,40,40,40,40,40,40,40,40,40,40,40,40,40,40,40,40,40,40,40,40,40,11,17,34],"timestamp_mouse":[13,32,53,72,94,112,134,152,173,192,212,233,252,273,293,312,333,352,373,392,412,432,453,472,493,512,534,552,573,594,613,634,652,672,694,714,733,753,773,792,812,832,853,872,893,913,933,953,973,993,1014,1033,1052,1073,1093,1112,1134,1153,1173,1193,1212,1232,1253,1272,1293,1312,1333,1354,1374,1394,1414,1433,1454,1473,1494,1513,1533,1554,1572,1592,1612,1633,1652,1672,1692,1713,1732,1753,1773,1794,1812],"xSR":741.5,"ySR":469.95,"xT1":424.9,"yT1":0,"xT2":1058.1,"yT2":0,"toosoon":0,"cond_shown":"Incongruent","ratio_trial":300,"L_num":4,"L_den":20,"R_num":2,"R_den":4,"correct_side":2,"subjID":"AnaMariaDazaMarin35","gender":"20.19","school":"4","age":"9"},{"start_time":1552054123761,"click_time":1552054125302,"finger_time":1552054124262,"fix_duration":458.11600416767664,"trial":4,"RT":501,"MT":1040,"sideResp":2,"stimulus":[],"xmouse":[800,800,800,800,800,800,800,800,800,800,800,799,802,803,803,803,803,803,803,803,803,803,803,803,798,795,791,785,783,782,782,782,782,782,782,782,782,782,782,782,782,782,782,782,782,782,782,782,782,782,782,782,782,782,782,782,782,782,782,782,782,782,782,786,807,831,851,903,946,985,1003,1035,1053,1053,1053,1055,1057,1063],"ymouse":[505,505,505,505,505,505,505,505,505,505,505,504,495,492,491,491,491,491,491,491,491,491,491,489,475,464,457,446,439,439,438,438,438,438,438,438,438,438,438,438,438,438,438,438,438,438,438,438,438,438,438,438,438,438,438,438,438,438,438,438,438,438,437,435,424,411,398,356,315,265,244,204,149,134,121,111,101,85],"timestamp_mouse":[9,22,40,61,80,100,121,141,160,181,202,221,240,262,280,300,321,340,361,380,401,421,440,460,480,501,521,540,562,580,600,620,640,660,682,700,721,741,761,782,801,820,841,860,881,901,920,940,961,980,1000,1020,1040,1061,1080,1100,1120,1141,1160,1180,1200,1222,1240,1261,1280,1301,1320,1341,1360,1380,1402,1421,1440,1462,1480,1501,1520,1540],"xSR":741.5,"ySR":469.95,"xT1":424.9,"yT1":0,"xT2":1058.1,"yT2":0,"toosoon":0,"cond_shown":"Incongruent","ratio_trial":100,"L_num":8,"L_den":20,"R_num":1,"R_den":2,"correct_side":2,"subjID":"AnaMariaDazaMarin35","gender":"20.19","school":"4","age":"9"},{"start_time":1552054128030,"click_time":1552054129102,"finger_time":1552054128543,"fix_duration":1187.1780534716966,"trial":5,"RT":513,"MT":559,"sideResp":1,"stimulus":[],"xmouse":[797,797,797,797,797,797,797,797,797,797,797,797,797,797,797,797,797,797,797,797,797,797,797,793,774,733,690,646,619,618,618,618,618,618,618,618,618,618,618,618,618,618,618,618,618,618,621,633,674,697,699,699,663,487],"ymouse":[549,549,549,549,549,549,549,549,549,549,549,549,549,549,549,549,549,549,549,549,549,549,549,545,520,482,445,412,393,392,392,392,392,392,392,392,392,392,392,392,392,392,392,392,392,392,389,380,352,328,312,301,239,49],"timestamp_mouse":[11,34,51,72,92,111,132,153,172,192,212,232,252,271,292,313,332,352,371,392,413,433,453,471,491,513,531,552,571,591,612,632,652,671,692,713,731,752,772,791,811,832,852,872,892,911,931,952,971,992,1011,1031,1051,1072],"xSR":741.5,"ySR":469.95,"xT1":424.9,"yT1":0,"xT2":1058.1,"yT2":0,"toosoon":0,"cond_shown":"Incongruent","ratio_trial":200,"L_num":14,"L_den":30,"R_num":12,"R_den":18,"correct_side":2,"subjID":"AnaMariaDazaMarin35","gender":"20.19","school":"4","age":"9"},{"start_time":1552054131932,"click_time":1552054132743,"finger_time":1552054132482,"fix_duration":286.8580331089461,"trial":6,"RT":550,"MT":261,"sideResp":2,"stimulus":[],"xmouse":[791,791,791,791,791,791,791,791,791,791,791,791,791,791,791,791,791,791,791,791,791,791,792,792,795,798,803,810,834,839,874,917,944,1006,1023,1036,1045,1053,1060,1063,1066],"ymouse":[538,538,538,538,538,538,538,538,538,538,538,538,538,538,536,531,529,529,529,527,524,517,510,510,506,498,483,464,412,406,350,290,258,197,182,168,157,141,113,101,92],"timestamp_mouse":[11,34,50,71,91,111,132,150,170,192,212,230,252,272,291,310,331,351,370,390,411,431,451,470,490,511,530,550,571,592,612,632,652,671,691,710,731,751,770,790,811],"xSR":741.5,"ySR":469.95,"xT1":424.9,"yT1":0,"xT2":1058.1,"yT2":0,"toosoon":0,"cond_shown":"Incongruent","ratio_trial":300,"L_num":13,"L_den":26,"R_num":12,"R_den":15,"correct_side":2,"subjID":"AnaMariaDazaMarin35","gender":"20.19","school":"4","age":"9"},{"start_time":1552054134114,"click_time":1552054136822,"finger_time":1552054135523,"fix_duration":309.29385502651354,"trial":7,"RT":1409,"MT":1299,"sideResp":2,"stimulus":[],"xmouse":[800,800,800,800,800,800,800,800,800,800,800,800,800,800,800,800,800,800,800,800,800,800,800,800,800,800,800,800,800,800,800,800,800,800,800,800,800,800,800,800,800,800,800,800,800,800,800,800,800,800,800,800,800,800,800,800,800,800,800,800,800,800,800,800,800,800,800,800,796,770,757,746,740,739,737,732,723,706,690,662,653,643,633,619,596,585,581,579,577,577,577,577,577,576,576,576,576,576,576,576,576,576,576,581,620,650,684,736,792,904,961,978,1035,1095,1249,1292,1323,1344,1359,1373,1376,1379,1380,1380,1381,1381,1377,1363,1345,1300,1230,1210,1200,1194,1168,1157],"ymouse":[512,512,512,512,512,512,512,512,512,512,512,512,512,512,512,512,512,512,512,512,512,512,512,512,512,512,512,512,512,512,512,512,512,512,512,512,512,512,512,512,512,512,512,512,512,512,512,512,512,512,512,512,512,512,512,512,512,512,512,512,512,512,512,512,512,512,512,512,508,473,450,428,405,394,341,310,271,233,204,170,161,154,147,139,127,124,123,123,123,123,123,123,123,123,123,123,123,123,123,123,123,123,123,123,138,147,157,172,187,203,203,204,198,188,139,121,109,99,93,87,85,82,78,73,68,68,66,63,58,48,31,29,29,30,37,38],"timestamp_mouse":[11,33,50,70,89,109,129,150,169,189,208,230,248,268,288,309,330,349,369,388,409,430,450,468,489,510,529,548,570,590,610,628,650,670,688,708,730,749,768,788,810,830,849,870,889,910,929,950,969,988,1008,1028,1048,1070,1089,1108,1130,1149,1168,1188,1208,1228,1249,1270,1288,1310,1329,1350,1368,1388,1409,1429,1449,1469,1489,1509,1528,1549,1568,1588,1608,1629,1648,1668,1688,1710,1729,1748,1769,1789,1808,1828,1849,1870,1890,1909,1929,1949,1969,1990,2009,2028,2049,2069,2088,2108,2128,2148,2169,2188,2209,2229,2249,2269,2289,2308,2328,2348,2368,2388,2408,2429,2450,2469,2489,2510,2529,2550,2568,2588,2608,2629,2648,2669,2689,2708],"xSR":741.5,"ySR":469.95,"xT1":424.9,"yT1":0,"xT2":1058.1,"yT2":0,"toosoon":0,"cond_shown":"Congruent","ratio_trial":200,"L_num":3,"L_den":12,"R_num":9,"R_den":20,"correct_side":2,"subjID":"AnaMariaDazaMarin35","gender":"20.19","school":"4","age":"9"},{"start_time":1552054139190,"click_time":1552054140682,"finger_time":1552054139984,"fix_duration":1326.3346373866027,"trial":8,"RT":794,"MT":698,"sideResp":2,"stimulus":[],"xmouse":[802,802,802,802,802,802,802,802,802,802,802,802,802,802,802,802,802,802,802,802,802,802,802,802,802,802,802,802,802,802,802,802,802,802,802,802,802,802,803,807,822,835,849,864,878,912,934,957,995,995,995,995,995,995,995,995,995,995,995,995,995,995,995,995,995,995,995,995,995,995,995,995,995,995,1119],"ymouse":[494,494,494,494,494,494,494,494,494,494,494,494,494,494,494,494,494,494,494,494,494,494,494,494,494,494,494,494,494,494,494,494,494,494,494,494,493,490,482,469,432,407,378,349,324,217,151,87,4,4,4,4,4,4,4,4,4,4,4,4,4,4,4,4,4,4,4,4,4,4,4,4,4,4,2],"timestamp_mouse":[12,33,54,72,93,113,134,153,174,192,212,233,253,274,293,312,334,352,373,392,412,433,454,473,493,513,533,552,573,594,613,634,654,672,694,713,732,753,772,794,813,834,852,872,892,913,932,953,973,992,1013,1033,1053,1072,1093,1112,1132,1152,1172,1192,1213,1234,1254,1273,1294,1313,1333,1353,1373,1392,1412,1433,1453,1474,1492],"xSR":741.5,"ySR":469.95,"xT1":424.9,"yT1":0,"xT2":1058.1,"yT2":0,"toosoon":0,"cond_shown":"Congruent","ratio_trial":200,"L_num":6,"L_den":12,"R_num":7,"R_den":10,"correct_side":2,"subjID":"AnaMariaDazaMarin35","gender":"20.19","school":"4","age":"9"},{"start_time":1552054142655,"click_time":1552054143963,"finger_time":1552054143463,"fix_duration":250,"trial":9,"RT":808,"MT":500,"sideResp":2,"stimulus":[],"xmouse":[768,768,768,768,768,768,768,768,768,768,768,768,768,768,768,768,768,768,768,768,768,768,768,768,768,768,768,768,768,768,768,768,768,768,772,776,779,782,787,790,799,813,874,917,949,986,1015,1042,1153,1176,1186,1186,1188,1193,1198,1201,1202,1203,1203,1198,1191,1185,1168,1161,1159,1158],"ymouse":[497,497,497,497,497,497,497,497,497,497,497,497,497,497,497,497,497,497,497,497,497,497,497,497,497,497,497,497,497,497,497,497,497,497,496,494,492,489,480,476,464,448,399,371,352,331,311,288,195,179,173,173,170,162,150,143,138,116,101,86,65,49,17,9,7,6],"timestamp_mouse":[10,31,48,69,88,108,127,148,169,188,209,227,247,269,287,308,329,348,367,387,409,428,448,467,488,508,529,548,568,588,609,629,648,668,688,708,727,747,768,787,808,827,847,868,889,907,928,947,968,987,1009,1029,1047,1068,1088,1108,1127,1148,1167,1187,1208,1229,1247,1267,1287,1308],"xSR":741.5,"ySR":469.95,"xT1":424.9,"yT1":0,"xT2":1058.1,"yT2":0,"toosoon":0,"cond_shown":"Incongruent","ratio_trial":200,"L_num":7,"L_den":10,"R_num":14,"R_den":28,"correct_side":1,"subjID":"AnaMariaDazaMarin35","gender":"20.19","school":"4","age":"9"},{"start_time":1552054146916,"click_time":1552054148763,"finger_time":1552054148462,"fix_duration":250,"trial":10,"RT":1546,"MT":301,"sideResp":1,"stimulus":[],"xmouse":[784,784,784,784,784,784,784,784,784,784,784,784,784,784,784,784,784,784,784,784,784,784,784,784,784,784,784,784,784,784,784,784,784,784,784,784,784,784,784,784,784,784,784,784,784,784,784,784,784,784,784,784,784,784,784,784,784,784,784,784,784,784,784,784,784,784,784,784,784,784,784,784,784,784,784,784,767,722,712,653,630,621,618,618,619,621,621,621,621,621,612,583,524],"ymouse":[544,544,544,544,544,544,544,544,544,544,544,544,544,544,544,544,544,544,544,544,544,544,544,544,544,544,544,544,544,544,544,544,544,544,544,544,544,544,544,544,544,544,544,544,544,544,544,544,544,544,544,544,544,544,544,544,544,544,544,544,544,544,544,544,544,544,544,544,544,544,544,544,544,544,544,544,527,481,471,417,392,379,371,363,329,313,299,284,267,210,162,107,27],"timestamp_mouse":[16,39,47,67,86,106,126,148,168,187,207,228,246,266,287,307,328,347,366,387,406,427,446,467,487,507,528,546,566,587,606,627,646,668,688,707,728,748,767,787,807,826,847,868,886,906,927,948,966,986,1006,1027,1047,1067,1086,1106,1128,1147,1167,1186,1207,1228,1246,1267,1287,1307,1326,1346,1366,1386,1407,1427,1446,1467,1487,1508,1528,1546,1567,1586,1606,1628,1646,1668,1687,1708,1726,1747,1766,1787,1806,1827,1847],"xSR":741.5,"ySR":469.95,"xT1":424.9,"yT1":0,"xT2":1058.1,"yT2":0,"toosoon":0,"cond_shown":"Incongruent","ratio_trial":200,"L_num":4,"L_den":5,"R_num":6,"R_den":10,"correct_side":1,"subjID":"AnaMariaDazaMarin35","gender":"20.19","school":"4","age":"9"},{"start_time":1552054151860,"click_time":1552054153602,"finger_time":1552054152664,"fix_duration":1235.5002010835083,"trial":11,"RT":804,"MT":938,"sideResp":2,"stimulus":[],"xmouse":[826,826,826,826,826,826,826,826,826,826,826,826,826,826,826,826,826,826,826,826,826,826,826,826,826,826,826,826,826,826,826,826,826,826,826,826,826,826,826,839,844,849,859,868,868,870,870,870,870,871,872,872,876,878,881,887,894,929,948,973,995,1018,1087,1099,1099,1099,1099,1099,1102,1093,1088,1044,978,977,977,977,977,977,977,977,977,977,977,977,979,990,1004,1099],"ymouse":[487,487,487,487,487,487,487,487,487,487,487,487,487,487,487,487,487,487,487,487,487,487,487,487,487,487,487,487,487,487,487,487,487,487,487,487,487,487,487,476,470,462,446,431,431,415,415,405,379,362,357,349,327,324,321,319,317,301,292,282,276,266,246,243,243,243,243,243,192,159,147,81,14,13,13,13,13,13,13,13,13,13,13,13,13,13,12,33],"timestamp_mouse":[11,23,42,63,82,104,123,142,162,183,204,223,242,264,282,302,323,343,363,382,404,423,442,464,484,504,524,542,563,584,603,623,642,664,684,703,723,743,764,782,804,824,842,862,883,903,923,942,963,982,1002,1022,1042,1062,1083,1104,1123,1142,1163,1183,1202,1223,1243,1263,1283,1302,1324,1343,1363,1383,1403,1424,1442,1463,1483,1504,1523,1542,1562,1583,1602,1623,1644,1663,1683,1702,1722,1742],"xSR":741.5,"ySR":469.95,"xT1":424.9,"yT1":0,"xT2":1058.1,"yT2":0,"toosoon":0,"cond_shown":"Incongruent","ratio_trial":200,"L_num":9,"L_den":15,"R_num":8,"R_den":10,"correct_side":2,"subjID":"AnaMariaDazaMarin35","gender":"20.19","school":"4","age":"9"},{"start_time":1552054157227,"click_time":1552054158903,"finger_time":1552054157904,"fix_duration":1482.3564321286117,"trial":12,"RT":677,"MT":999,"sideResp":2,"stimulus":[],"xmouse":[822,822,822,822,822,822,822,822,822,822,822,822,822,822,822,822,822,822,822,822,822,822,822,822,822,822,822,822,822,822,822,828,830,846,846,862,870,890,900,907,910,916,929,936,940,946,949,950,950,950,950,962,978,1008,1016,1024,1031,1052,1052,1052,1052,1052,1052,1052,1052,1052,1052,1052,1052,1052,1052,1052,1052,1052,1052,1052,1216,1203,1177,1172,1171,1168,1164,1154],"ymouse":[495,495,495,495,495,495,495,495,495,495,495,495,495,495,495,495,495,495,495,495,495,495,495,495,495,495,495,495,495,495,495,487,485,468,468,450,440,409,397,389,384,376,363,352,339,318,304,300,300,300,298,281,244,153,96,61,41,13,13,13,13,13,13,13,13,13,13,13,13,13,13,13,13,13,13,13,3,21,66,75,76,79,85,97],"timestamp_mouse":[29,37,56,76,96,116,137,156,177,195,216,236,255,275,297,317,336,356,375,396,417,437,456,476,496,517,536,556,576,597,616,636,657,677,696,717,735,756,775,797,816,835,876,878,895,915,936,956,975,996,1017,1036,1055,1075,1095,1116,1137,1156,1177,1196,1217,1237,1257,1276,1296,1315,1336,1355,1377,1396,1416,1436,1455,1477,1496,1516,1537,1556,1576,1595,1615,1636,1657,1675],"xSR":741.5,"ySR":469.95,"xT1":424.9,"yT1":0,"xT2":1058.1,"yT2":0,"toosoon":0,"cond_shown":"Congruent","ratio_trial":200,"L_num":16,"L_den":20,"R_num":12,"R_den":20,"correct_side":1,"subjID":"AnaMariaDazaMarin35","gender":"20.19","school":"4","age":"9"},{"start_time":1552054164352,"click_time":1552054166323,"finger_time":1552054165124,"fix_duration":928.3657675553853,"trial":13,"RT":772,"MT":1199,"sideResp":2,"stimulus":[],"xmouse":[774,774,774,774,774,774,774,774,774,774,774,774,774,774,774,774,774,774,774,774,774,774,774,774,774,774,774,774,774,774,774,774,774,774,775,776,784,819,860,878,910,910,920,920,920,920,920,918,918,918,918,919,927,927,927,927,927,927,927,927,926,926,874,823,787,768,765,768,771,776,780,788,814,846,866,891,914,932,938,947,956,960,971,977,984,991,1004,1025,1033,1035,1035,1035,1036,1038,1040,1045,1050,1058,1062],"ymouse":[548,548,548,548,548,548,548,548,548,548,548,548,548,548,548,548,548,548,548,548,548,548,548,548,548,548,548,548,548,548,548,548,548,548,543,542,537,522,505,496,481,481,474,474,470,455,449,438,438,438,438,434,416,416,416,416,416,416,416,416,402,402,271,214,183,167,160,149,144,140,140,137,133,123,117,108,101,96,93,89,84,83,76,74,70,70,68,65,63,63,63,63,63,62,61,60,59,56,55],"timestamp_mouse":[11,30,51,71,91,110,131,152,171,192,210,231,251,271,292,310,330,350,371,391,411,431,450,470,492,511,531,550,572,591,611,631,650,672,690,711,730,750,772,790,810,832,852,872,892,910,931,950,971,990,1011,1030,1051,1072,1092,1111,1131,1152,1170,1190,1211,1230,1251,1271,1292,1311,1332,1350,1371,1391,1411,1431,1450,1470,1490,1510,1531,1550,1571,1592,1611,1632,1651,1671,1691,1710,1731,1751,1771,1790,1811,1832,1850,1871,1891,1910,1932,1950,1971],"xSR":741.5,"ySR":469.95,"xT1":424.9,"yT1":0,"xT2":1058.1,"yT2":0,"toosoon":0,"cond_shown":"Incongruent","ratio_trial":300,"L_num":4,"L_den":20,"R_num":2,"R_den":4,"correct_side":2,"subjID":"AnaMariaDazaMarin35","gender":"20.19","school":"4","age":"9"},{"start_time":1552054168046,"click_time":1552054169304,"finger_time":1552054169102,"fix_duration":822.499905603665,"trial":14,"RT":1056,"MT":202,"sideResp":1,"stimulus":[],"xmouse":[819,819,819,819,819,819,819,819,819,819,819,819,819,819,819,819,819,819,819,819,819,819,819,819,819,819,819,819,819,819,819,819,819,819,819,819,819,819,819,819,819,819,819,819,819,819,819,819,819,819,819,809,751,703,658,624,607,591,578,567,551,535,515],"ymouse":[546,546,546,546,546,546,546,546,546,546,546,546,546,546,546,546,546,546,546,546,546,546,546,546,546,546,546,546,546,546,546,546,546,546,546,546,546,546,546,546,546,546,546,546,546,546,546,546,546,546,543,514,406,324,249,195,164,123,94,72,49,28,6],"timestamp_mouse":[18,38,56,77,97,116,136,157,178,196,218,237,256,276,298,316,336,356,377,396,418,438,457,477,498,516,538,556,576,596,618,637,656,677,698,716,737,756,776,798,818,836,856,876,896,918,938,957,977,996,1016,1036,1056,1077,1096,1118,1137,1156,1176,1197,1217,1236,1258],"xSR":741.5,"ySR":469.95,"xT1":424.9,"yT1":0,"xT2":1058.1,"yT2":0,"toosoon":0,"cond_shown":"Incongruent","ratio_trial":200,"L_num":7,"L_den":10,"R_num":12,"R_den":24,"correct_side":1,"subjID":"AnaMariaDazaMarin35","gender":"20.19","school":"4","age":"9"},{"start_time":1552054173350,"click_time":1552054174124,"finger_time":1552054174003,"fix_duration":664.6379405327286,"trial":15,"RT":653,"MT":121,"sideResp":2,"stimulus":[],"xmouse":[784,784,784,784,784,784,784,784,784,784,784,784,784,784,784,784,784,784,784,784,784,784,784,784,784,784,784,784,787,794,805,818,838,852,873,912,962,1077,1133],"ymouse":[522,522,522,522,522,522,522,522,522,522,522,522,522,522,522,522,522,522,522,522,522,522,522,522,522,522,522,522,519,512,499,486,459,443,413,360,292,138,62],"timestamp_mouse":[13,33,52,72,93,114,132,152,172,193,214,233,252,272,293,313,333,353,374,393,414,434,452,473,493,514,533,552,572,593,614,634,653,672,693,713,732,753,773],"xSR":741.5,"ySR":469.95,"xT1":424.9,"yT1":0,"xT2":1058.1,"yT2":0,"toosoon":0,"cond_shown":"Congruent","ratio_trial":200,"L_num":16,"L_den":20,"R_num":12,"R_den":20,"correct_side":1,"subjID":"AnaMariaDazaMarin35","gender":"20.19","school":"4","age":"9"},{"start_time":1552054175916,"click_time":1552054178043,"finger_time":1552054176464,"fix_duration":250,"trial":16,"RT":548,"MT":1579,"sideResp":1,"stimulus":[],"xmouse":[776,776,776,776,776,776,776,776,776,776,776,776,776,776,776,776,776,776,776,776,776,776,776,776,772,767,765,762,758,757,757,757,757,757,757,757,757,757,757,757,757,757,757,757,757,757,757,757,757,757,757,757,757,757,757,757,757,757,757,757,757,755,753,752,747,746,745,742,737,722,711,699,694,686,656,637,626,619,614,609,607,605,600,595,581,573,573,567,560,555,554,554,554,554,554,554,554,554,554,554,554,554,552,543,499,483,465],"ymouse":[508,508,508,508,508,508,508,508,508,508,508,508,508,508,508,508,508,508,508,508,508,508,508,508,498,488,477,467,460,457,457,457,457,457,457,457,457,457,457,457,457,457,457,457,457,457,457,457,457,457,457,457,457,457,457,457,457,457,457,457,452,446,439,433,426,424,421,416,409,387,373,357,351,340,306,284,273,264,259,252,248,241,231,219,186,170,170,161,150,141,140,139,139,139,139,139,139,139,139,139,139,139,139,136,113,107,98],"timestamp_mouse":[17,33,47,67,88,108,128,147,168,187,206,227,246,268,287,306,326,348,366,388,407,426,448,466,487,506,526,548,568,588,607,626,646,667,687,707,726,747,767,787,806,826,847,867,887,906,926,947,968,987,1007,1026,1047,1067,1088,1107,1126,1147,1167,1188,1207,1228,1248,1267,1286,1307,1327,1347,1367,1387,1408,1427,1446,1467,1486,1507,1527,1548,1568,1586,1606,1627,1646,1666,1686,1707,1727,1747,1767,1786,1806,1827,1846,1866,1886,1907,1927,1948,1968,1988,2008,2027,2047,2066,2086,2106,2127],"xSR":741.5,"ySR":469.95,"xT1":424.9,"yT1":0,"xT2":1058.1,"yT2":0,"toosoon":0,"cond_shown":"Incongruent","ratio_trial":200,"L_num":1,"L_den":2,"R_num":3,"R_den":10,"correct_side":1,"subjID":"AnaMariaDazaMarin35","gender":"20.19","school":"4","age":"9"},{"start_time":1552054181628,"click_time":1552054182703,"finger_time":1552054182063,"fix_duration":963.6553605509423,"trial":17,"RT":435,"MT":640,"sideResp":2,"stimulus":[],"xmouse":[776,776,776,776,776,776,776,776,776,776,776,776,776,776,776,776,777,777,783,791,798,805,815,830,836,843,849,854,866,879,890,899,912,944,962,971,982,982,982,982,982,982,982,982,982,982,982,982,982,982,982,982,1168,1152],"ymouse":[511,511,511,511,511,511,511,511,511,511,511,511,511,511,511,511,510,509,498,486,476,465,451,418,401,384,362,342,299,253,217,182,148,88,59,39,6,6,6,6,6,6,6,6,6,6,6,6,6,6,6,6,3,30],"timestamp_mouse":[14,36,56,74,96,116,136,155,174,195,215,235,254,274,294,316,336,355,374,395,415,435,454,474,494,515,536,554,575,595,614,636,654,675,696,714,734,755,774,794,814,834,856,874,894,915,936,955,975,995,1015,1034,1055,1075],"xSR":741.5,"ySR":469.95,"xT1":424.9,"yT1":0,"xT2":1058.1,"yT2":0,"toosoon":0,"cond_shown":"Incongruent","ratio_trial":100,"L_num":9,"L_den":15,"R_num":13,"R_den":26,"correct_side":1,"subjID":"AnaMariaDazaMarin35","gender":"20.19","school":"4","age":"9"},{"start_time":1552054187541,"click_time":1552054189364,"finger_time":1552054188703,"fix_duration":1137.6610776917985,"trial":18,"RT":1162,"MT":661,"sideResp":2,"stimulus":[],"xmouse":[818,818,818,818,818,818,818,818,818,818,818,818,818,818,818,818,818,818,818,818,818,818,818,818,818,818,818,818,818,818,818,818,818,818,818,818,818,818,818,818,818,818,818,818,818,818,818,818,818,818,818,818,818,818,818,818,820,832,986,1097,1180,1237,1268,1289,1289,1290,1287,1281,1281,1281,1281,1281,1281,1281,1281,1281,1281,1281,1201,1197,1193,1184,1177,1173,1170,1170,1167,1166,1162,1160,1159,1158],"ymouse":[510,510,510,510,510,510,510,510,510,510,510,510,510,510,510,510,510,510,510,510,510,510,510,510,510,510,510,510,510,510,510,510,510,510,510,510,510,510,510,510,510,510,510,510,510,510,510,510,510,510,510,510,510,510,510,510,505,491,376,299,236,194,161,106,85,62,36,0,0,0,0,0,0,0,0,0,0,0,4,12,21,29,38,41,44,46,49,51,57,60,61,63],"timestamp_mouse":[8,21,41,62,81,103,122,141,161,182,203,222,242,261,283,302,321,341,361,382,401,423,442,462,481,502,522,542,562,582,603,623,642,661,681,702,722,743,762,781,802,822,841,863,883,902,923,942,961,983,1002,1022,1042,1062,1082,1102,1121,1142,1162,1181,1201,1222,1243,1261,1282,1302,1321,1341,1361,1381,1401,1422,1443,1462,1482,1502,1521,1543,1562,1581,1603,1623,1643,1661,1682,1703,1723,1743,1761,1782,1803,1823],"xSR":741.5,"ySR":469.95,"xT1":424.9,"yT1":0,"xT2":1058.1,"yT2":0,"toosoon":0,"cond_shown":"Congruent","ratio_trial":300,"L_num":2,"L_den":20,"R_num":10,"R_den":25,"correct_side":2,"subjID":"AnaMariaDazaMarin35","gender":"20.19","school":"4","age":"9"},{"start_time":1552054190966,"click_time":1552054193542,"finger_time":1552054192583,"fix_duration":361.2943540815354,"trial":19,"RT":1617,"MT":959,"sideResp":2,"stimulus":[],"xmouse":[808,808,808,808,808,808,808,808,808,808,808,808,808,808,808,808,808,808,808,808,808,808,808,808,808,808,808,808,808,808,808,808,808,808,808,808,808,808,808,808,808,808,808,808,808,808,808,808,808,808,808,808,808,808,808,808,808,808,808,808,808,808,808,808,808,808,808,808,808,808,808,808,808,808,808,808,808,809,812,818,832,881,922,974,1011,1029,1042,1048,1053,1055,1056,1056,1058,1058,1058,1058,1058,1058,1058,1058,1058,1058,1058,1058,1058,1058,1058,1058,1056,1056,1056,1056,1056,1056,1056,1056,1056,1056,1056,1056,1056,1056,1056,1056,1056,1056,1056,1057,1062],"ymouse":[516,516,516,516,516,516,516,516,516,516,516,516,516,516,516,516,516,516,516,516,516,516,516,516,516,516,516,516,516,516,516,516,516,516,516,516,516,516,516,516,516,516,516,516,516,516,516,516,516,516,516,516,516,516,516,516,516,516,516,516,516,516,516,516,516,516,516,516,516,516,516,516,516,516,516,516,516,509,502,483,459,377,331,294,276,266,251,234,208,165,126,55,13,1,1,1,1,1,1,1,1,1,1,1,1,1,1,1,11,31,42,46,46,46,46,46,46,46,46,46,46,46,46,46,46,46,46,47,47],"timestamp_mouse":[16,36,56,78,96,116,136,157,176,198,216,237,257,277,297,316,336,356,376,398,417,437,456,476,496,517,538,556,576,598,616,637,657,678,696,718,736,758,778,797,816,838,856,878,898,917,936,958,978,997,1016,1037,1058,1078,1097,1117,1136,1158,1177,1198,1217,1236,1256,1276,1298,1317,1336,1357,1377,1397,1417,1437,1457,1476,1498,1517,1536,1556,1577,1596,1617,1636,1657,1677,1697,1716,1736,1757,1777,1798,1817,1837,1856,1876,1898,1918,1937,1958,1977,1996,2016,2037,2057,2076,2096,2117,2137,2156,2177,2198,2217,2236,2257,2277,2297,2318,2337,2358,2377,2397,2418,2437,2457,2477,2496,2516,2537,2557,2576],"xSR":741.5,"ySR":469.95,"xT1":424.9,"yT1":0,"xT2":1058.1,"yT2":0,"toosoon":0,"cond_shown":"Congruent","ratio_trial":200,"L_num":3,"L_den":10,"R_num":11,"R_den":22,"correct_side":2,"subjID":"AnaMariaDazaMarin35","gender":"20.19","school":"4","age":"9"},{"start_time":1552054195817,"click_time":1552054197102,"finger_time":1552054196602,"fix_duration":872.9668414368223,"trial":20,"RT":785,"MT":500,"sideResp":1,"stimulus":[],"xmouse":[780,780,780,780,780,780,780,780,780,780,780,780,780,780,780,780,780,780,780,780,780,780,780,780,780,780,780,780,780,780,780,780,780,780,780,780,780,777,767,707,624,587,562,543,513,502,501,495,479,449,445,444,443,443,443,443,444,446,448,451,452,454,457,460,464],"ymouse":[515,515,515,515,515,515,515,515,515,515,515,515,515,515,515,515,515,515,515,515,515,515,515,515,515,515,515,515,515,515,515,515,515,515,515,515,515,510,503,469,422,401,382,365,319,297,295,284,261,220,211,202,189,184,175,170,166,161,155,147,143,136,127,117,97],"timestamp_mouse":[17,39,46,67,87,105,127,146,166,186,205,225,247,267,286,306,326,346,366,387,407,425,446,465,486,505,527,547,565,585,607,625,647,665,685,705,726,746,766,785,806,825,845,867,885,907,926,946,966,986,1005,1025,1046,1067,1085,1107,1125,1146,1165,1185,1207,1227,1247,1266,1285],"xSR":741.5,"ySR":469.95,"xT1":424.9,"yT1":0,"xT2":1058.1,"yT2":0,"toosoon":0,"cond_shown":"Incongruent","ratio_trial":200,"L_num":7,"L_den":10,"R_num":8,"R_den":16,"correct_side":1,"subjID":"AnaMariaDazaMarin35","gender":"20.19","school":"4","age":"9"},{"start_time":1552054199988,"click_time":1552054201403,"finger_time":1552054200803,"fix_duration":1184.5815876698866,"trial":21,"RT":815,"MT":600,"sideResp":1,"stimulus":[],"xmouse":[787,787,787,787,787,787,787,787,787,787,787,787,787,787,787,787,787,787,787,787,786,785,785,785,785,785,785,785,785,785,785,785,784,784,783,783,782,781,780,778,765,756,745,732,716,682,668,654,641,627,604,595,586,576,569,549,538,526,518,513,503,501,501,499,499,499,499,499,499,499,499],"ymouse":[502,502,502,502,502,502,502,502,502,502,502,502,502,502,502,502,502,502,502,502,502,502,502,502,502,502,502,502,502,502,502,502,502,500,498,496,495,494,491,485,459,438,415,385,359,312,297,286,274,264,242,231,221,209,202,181,167,155,146,142,130,128,127,124,123,120,117,113,107,100,77],"timestamp_mouse":[14,34,54,74,96,114,134,156,176,194,215,235,255,276,295,314,335,355,374,396,415,435,455,475,494,515,535,554,574,595,615,635,654,675,695,714,734,755,776,794,815,835,854,876,895,914,935,954,975,995,1015,1036,1055,1075,1095,1116,1134,1154,1176,1195,1214,1235,1255,1275,1295,1314,1335,1355,1376,1395,1414],"xSR":741.5,"ySR":469.95,"xT1":424.9,"yT1":0,"xT2":1058.1,"yT2":0,"toosoon":0,"cond_shown":"Incongruent","ratio_trial":200,"L_num":14,"L_den":30,"R_num":6,"R_den":9,"correct_side":2,"subjID":"AnaMariaDazaMarin35","gender":"20.19","school":"4","age":"9"},{"start_time":1552054203513,"click_time":1552054205002,"finger_time":1552054204303,"fix_duration":728.4415009352084,"trial":22,"RT":790,"MT":699,"sideResp":1,"stimulus":[],"xmouse":[809,809,809,809,809,809,809,809,809,809,809,809,809,809,809,809,809,809,809,809,809,809,809,809,809,809,809,809,809,809,809,809,809,809,809,809,809,809,809,804,801,798,796,796,793,790,788,786,785,783,783,782,779,778,776,774,773,772,771,768,765,759,752,746,688,667,614,580,580,578,569,554,541,530,517],"ymouse":[506,506,506,506,506,506,506,506,506,506,506,506,506,506,506,506,506,506,506,506,506,506,506,506,506,506,506,506,506,506,506,506,506,506,506,506,506,497,489,468,458,453,450,448,444,439,436,433,432,430,429,427,424,422,418,415,413,412,410,403,398,384,366,356,214,177,123,96,96,94,90,80,72,67,60],"timestamp_mouse":[11,33,49,70,89,109,129,149,170,190,210,230,250,271,290,311,331,350,370,390,409,430,450,471,490,509,529,549,569,590,610,629,649,670,689,709,729,750,770,790,810,830,850,871,890,910,929,950,971,989,1010,1030,1050,1069,1089,1111,1130,1149,1171,1190,1210,1231,1250,1270,1289,1310,1330,1349,1370,1389,1411,1430,1450,1470,1489],"xSR":741.5,"ySR":469.95,"xT1":424.9,"yT1":0,"xT2":1058.1,"yT2":0,"toosoon":0,"cond_shown":"Incongruent","ratio_trial":100,"L_num":3,"L_den":6,"R_num":4,"R_den":10,"correct_side":1,"subjID":"AnaMariaDazaMarin35","gender":"20.19","school":"4","age":"9"},{"start_time":1552054206920,"click_time":1552054209064,"finger_time":1552054208583,"fix_duration":516.9829006251,"trial":23,"RT":1663,"MT":481,"sideResp":1,"stimulus":[],"xmouse":[783,783,783,783,783,783,783,783,783,783,783,783,783,783,783,783,783,783,783,783,785,785,785,785,785,785,785,785,785,785,785,785,785,785,785,785,785,785,785,785,785,785,785,785,785,785,785,785,785,785,785,785,785,785,785,785,785,785,785,785,785,785,785,785,785,785,785,785,785,785,785,785,785,785,785,785,785,785,785,785,785,785,785,773,690,643,611,588,575,565,565,565,565,565,565,562,558,558,558,556,556,556,555,554,554,548,527,504],"ymouse":[525,525,525,525,525,525,525,525,525,525,525,525,525,525,525,525,525,525,525,523,522,522,520,520,520,520,520,520,520,520,520,520,520,520,520,520,520,520,520,520,520,520,520,520,520,520,520,520,520,520,520,520,520,520,520,520,520,520,520,520,520,520,520,520,520,520,520,520,520,520,520,520,520,520,520,520,520,520,520,520,520,515,503,467,262,174,116,85,68,54,54,54,54,54,53,48,45,45,45,45,45,45,45,45,45,45,45,45],"timestamp_mouse":[12,23,43,63,82,102,124,143,164,182,203,224,244,262,283,302,322,342,364,384,403,423,443,463,482,503,522,544,563,583,603,624,643,662,683,703,722,743,763,782,802,824,844,863,883,902,923,943,962,983,1003,1022,1044,1064,1083,1103,1124,1143,1162,1184,1202,1223,1244,1262,1283,1302,1323,1343,1364,1384,1403,1423,1444,1464,1482,1502,1524,1544,1564,1582,1603,1623,1643,1663,1682,1703,1722,1743,1764,1782,1802,1822,1843,1862,1882,1903,1922,1943,1962,1982,2002,2024,2043,2063,2083,2103,2123,2144],"xSR":741.5,"ySR":469.95,"xT1":424.9,"yT1":0,"xT2":1058.1,"yT2":0,"toosoon":0,"cond_shown":"Incongruent","ratio_trial":100,"L_num":1,"L_den":2,"R_num":8,"R_den":20,"correct_side":1,"subjID":"AnaMariaDazaMarin35","gender":"20.19","school":"4","age":"9"},{"start_time":1552054210776,"click_time":1552054212663,"finger_time":1552054211544,"fix_duration":250,"trial":24,"RT":768,"MT":1119,"sideResp":2,"stimulus":[],"xmouse":[802,802,802,802,802,802,802,802,802,802,802,802,802,802,802,802,802,802,802,802,802,802,802,795,788,782,779,779,779,778,778,775,774,774,773,772,772,771,769,769,768,768,767,767,766,766,766,766,766,766,766,766,766,766,766,766,766,766,766,766,766,766,766,775,793,822,850,858,858,866,877,890,898,914,927,935,936,936,939,944,944,959,965,970,975,979,986,990,997,1006,1015,1033,1047,1058,1077],"ymouse":[526,526,526,526,526,526,526,526,526,526,526,526,526,526,526,526,526,526,526,526,526,526,526,518,506,498,494,494,494,492,491,486,484,482,481,479,476,473,468,468,467,464,463,462,462,461,461,461,461,461,461,461,461,461,461,461,461,461,461,461,461,461,459,428,358,258,142,126,125,116,108,101,101,98,98,97,97,97,96,93,93,83,77,71,65,60,51,48,46,44,42,40,37,35,34],"timestamp_mouse":[11,40,48,67,86,106,127,148,167,187,206,227,247,266,287,307,328,347,367,387,408,427,448,468,487,508,526,548,566,586,607,627,646,667,688,706,726,747,768,788,808,826,846,866,887,907,926,947,967,986,1006,1027,1048,1068,1087,1107,1127,1147,1167,1186,1207,1228,1246,1266,1287,1307,1326,1347,1368,1387,1408,1427,1446,1466,1486,1508,1528,1547,1567,1587,1607,1627,1648,1668,1688,1708,1726,1747,1767,1787,1806,1826,1847,1866,1887],"xSR":741.5,"ySR":469.95,"xT1":424.9,"yT1":0,"xT2":1058.1,"yT2":0,"toosoon":0,"cond_shown":"Incongruent","ratio_trial":300,"L_num":13,"L_den":26,"R_num":12,"R_den":15,"correct_side":2,"subjID":"AnaMariaDazaMarin35","gender":"20.19","school":"4","age":"9"},{"start_time":1552054214426,"click_time":1552054217302,"finger_time":1552054216644,"fix_duration":462.2197256298216,"trial":25,"RT":2218,"MT":658,"sideResp":1,"stimulus":[],"xmouse":[789,789,789,789,789,789,789,789,789,789,789,789,789,789,789,789,789,789,789,789,789,789,789,789,789,789,789,789,789,789,789,789,789,789,789,789,789,789,789,789,789,789,789,789,789,789,789,789,789,789,789,789,789,789,789,789,789,789,789,789,789,789,789,789,789,789,789,789,789,789,789,789,789,789,789,789,789,789,789,789,789,789,789,789,789,789,789,789,789,789,789,789,791,802,810,814,816,816,818,818,818,818,818,818,818,818,818,818,818,818,777,755,752,725,704,675,637,592,569,569,569,569,569,575,575,577,579,581,561,560,557,552,547,538,534,530,529,528,527,526,525,524,523,501],"ymouse":[510,510,510,510,510,510,510,510,510,510,510,510,510,510,510,510,510,510,510,510,510,510,510,510,510,510,510,510,510,510,510,510,510,510,510,510,510,510,510,510,510,510,510,510,510,510,510,510,510,510,510,510,510,510,510,510,510,510,510,510,510,510,510,510,510,510,510,510,510,510,510,510,510,510,510,510,510,510,510,510,510,510,510,510,510,510,510,510,510,510,510,510,510,498,492,489,487,486,484,483,481,481,481,481,481,481,481,481,481,480,462,454,452,439,428,414,397,372,350,349,349,349,346,331,330,328,317,308,229,227,223,217,212,209,209,209,208,207,202,193,177,154,142,68],"timestamp_mouse":[17,38,56,77,98,118,137,157,176,196,218,237,258,276,296,317,337,357,376,397,416,438,457,477,496,516,538,557,577,597,618,638,656,676,697,718,737,757,776,798,817,836,856,877,896,918,936,956,976,997,1017,1038,1057,1076,1097,1117,1136,1156,1177,1196,1216,1238,1256,1276,1297,1317,1336,1357,1377,1397,1416,1437,1457,1476,1497,1517,1537,1558,1576,1598,1616,1637,1658,1677,1697,1717,1737,1757,1777,1798,1817,1838,1857,1877,1898,1916,1937,1956,1976,1997,2018,2037,2056,2077,2096,2116,2137,2156,2178,2197,2218,2237,2258,2277,2297,2317,2336,2356,2376,2398,2417,2437,2457,2477,2497,2517,2537,2558,2577,2596,2616,2636,2658,2676,2696,2717,2736,2757,2776,2796,2817,2837,2858,2876],"xSR":741.5,"ySR":469.95,"xT1":424.9,"yT1":0,"xT2":1058.1,"yT2":0,"toosoon":0,"cond_shown":"Incongruent","ratio_trial":200,"L_num":1,"L_den":3,"R_num":2,"R_den":15,"correct_side":1,"subjID":"AnaMariaDazaMarin35","gender":"20.19","school":"4","age":"9"},{"start_time":1552054219236,"click_time":1552054221403,"finger_time":1552054220103,"fix_duration":451.53434916110604,"trial":26,"RT":867,"MT":1300,"sideResp":2,"stimulus":[],"xmouse":[821,821,821,821,821,821,821,821,821,821,821,821,821,821,821,821,821,821,821,821,821,821,821,821,821,821,821,821,821,821,821,821,821,821,821,821,821,821,821,821,822,825,831,845,856,869,885,888,888,888,888,888,888,888,888,888,888,889,897,905,917,932,940,947,952,952,960,960,967,977,982,988,994,1000,1000,1000,1000,1000,1000,1000,999,999,999,999,999,999,999,999,999,999,999,999,999,993,990,988,988,988,1008,1024,1034,1035,1035,1035,1036,1040,1049,1058,1067],"ymouse":[507,507,507,507,507,507,507,507,507,507,507,507,507,507,507,507,507,507,507,507,507,507,507,507,507,507,507,507,507,507,507,507,507,507,507,507,507,507,507,507,502,495,484,458,442,419,401,395,395,395,395,395,395,395,395,395,395,393,379,366,351,339,333,330,327,326,324,324,318,305,295,285,269,244,239,235,234,234,234,234,234,234,234,234,234,234,234,234,234,234,234,234,234,225,218,214,208,197,161,132,115,113,113,111,106,93,72,50,31],"timestamp_mouse":[11,33,47,66,87,108,127,146,167,186,207,228,247,266,287,308,328,347,366,387,408,426,446,466,488,506,527,547,567,588,606,628,647,668,686,707,727,746,766,786,808,828,847,867,887,906,927,948,967,986,1006,1028,1047,1067,1086,1106,1127,1147,1166,1186,1207,1227,1246,1266,1287,1307,1327,1347,1366,1387,1407,1427,1448,1467,1487,1507,1526,1548,1567,1588,1607,1627,1647,1668,1688,1707,1728,1748,1766,1787,1807,1827,1847,1866,1887,1908,1927,1948,1967,1987,2006,2027,2047,2066,2087,2106,2127,2148,2167],"xSR":741.5,"ySR":469.95,"xT1":424.9,"yT1":0,"xT2":1058.1,"yT2":0,"toosoon":0,"cond_shown":"Congruent","ratio_trial":200,"L_num":3,"L_den":10,"R_num":14,"R_den":28,"correct_side":2,"subjID":"AnaMariaDazaMarin35","gender":"20.19","school":"4","age":"9"},{"start_time":1552054223199,"click_time":1552054224585,"finger_time":1552054224364,"fix_duration":355.25040279466344,"trial":27,"RT":1165,"MT":221,"sideResp":2,"stimulus":[],"xmouse":[823,823,823,823,823,823,823,823,823,823,823,823,823,823,823,823,823,823,823,823,823,823,823,823,823,823,823,823,823,823,823,823,823,823,823,823,823,823,823,823,823,823,823,823,823,823,823,823,823,823,823,823,823,823,823,823,825,830,836,850,890,907,925,946,960,993,1007,1026,1051,1089],"ymouse":[513,513,513,513,513,513,513,513,513,513,513,513,513,513,513,513,513,513,513,513,513,513,513,513,513,513,513,513,513,513,513,513,513,513,513,513,513,513,513,513,513,513,513,513,513,513,513,513,513,513,513,513,513,513,513,513,498,481,460,424,349,324,303,279,258,213,192,165,131,90],"timestamp_mouse":[11,32,45,64,84,105,123,144,163,184,205,224,244,264,283,304,323,345,364,383,404,425,443,463,484,503,524,544,565,584,604,623,644,664,683,704,725,743,764,785,804,824,845,865,883,903,924,943,964,983,1003,1024,1043,1063,1084,1105,1123,1144,1165,1184,1204,1223,1244,1264,1285,1303,1325,1344,1365,1385],"xSR":741.5,"ySR":469.95,"xT1":424.9,"yT1":0,"xT2":1058.1,"yT2":0,"toosoon":0,"cond_shown":"Congruent","ratio_trial":200,"L_num":3,"L_den":6,"R_num":14,"R_den":20,"correct_side":2,"subjID":"AnaMariaDazaMarin35","gender":"20.19","school":"4","age":"9"},{"start_time":1552054226586,"click_time":1552054228923,"finger_time":1552054227362,"fix_duration":561.1494507744025,"trial":28,"RT":776,"MT":1561,"sideResp":1,"stimulus":[],"xmouse":[800,800,800,800,800,800,800,800,800,800,800,800,800,800,800,800,800,800,800,800,800,800,800,800,800,800,800,800,800,800,800,800,800,800,800,800,811,819,835,854,910,924,947,966,969,976,987,996,996,996,998,1000,1004,1008,1012,1015,1016,1016,1018,1019,1023,1024,1027,1030,1033,1033,1033,1034,1035,1039,1043,1046,1048,1050,1050,1050,1050,1050,1050,1050,1050,1050,1050,1050,1050,1050,1050,1050,1050,1050,1032,1029,1029,1029,986,932,925,921,912,894,876,873,872,870,867,853,840,825,819,794,730,686,642,602,588,540,521],"ymouse":[515,515,515,515,515,515,515,515,515,515,515,515,515,515,515,515,515,515,515,515,515,515,515,515,515,515,515,515,515,515,515,515,515,515,515,515,496,483,454,420,306,282,244,216,211,200,188,175,175,175,170,168,164,158,152,148,148,148,145,144,139,138,133,130,127,127,127,126,125,119,111,106,102,100,99,98,97,97,97,97,97,97,97,97,97,97,97,97,97,97,98,98,98,98,93,88,87,87,87,88,93,94,96,96,97,97,99,101,102,103,103,98,91,83,79,67,64],"timestamp_mouse":[28,36,57,77,97,116,136,158,176,197,217,238,258,277,296,317,336,356,377,398,417,437,457,476,498,518,537,557,578,598,616,637,658,678,697,716,737,756,776,797,816,836,857,877,898,916,936,957,977,998,1017,1037,1057,1077,1098,1116,1137,1157,1177,1196,1216,1236,1258,1277,1297,1317,1337,1356,1376,1397,1417,1436,1457,1477,1497,1516,1537,1558,1578,1597,1616,1637,1657,1676,1696,1717,1737,1757,1776,1797,1816,1837,1858,1877,1898,1916,1937,1956,1977,1998,2017,2037,2058,2077,2096,2116,2137,2156,2177,2196,2216,2237,2257,2277,2297,2316,2337],"xSR":741.5,"ySR":469.95,"xT1":424.9,"yT1":0,"xT2":1058.1,"yT2":0,"toosoon":0,"cond_shown":"Congruent","ratio_trial":100,"L_num":1,"L_den":2,"R_num":18,"R_den":30,"correct_side":2,"subjID":"AnaMariaDazaMarin35","gender":"20.19","school":"4","age":"9"},{"start_time":1552054230276,"click_time":1552054232963,"finger_time":1552054231924,"fix_duration":250,"trial":29,"RT":1648,"MT":1039,"sideResp":2,"stimulus":[],"xmouse":[823,823,823,823,823,823,823,823,823,823,824,824,824,824,824,824,824,824,824,824,824,824,824,824,824,824,824,824,824,824,824,824,824,824,824,824,824,824,824,824,824,824,824,824,824,824,824,824,824,824,824,824,824,824,824,824,824,824,824,824,825,825,825,825,825,825,825,825,825,825,825,825,825,825,825,825,825,825,825,825,825,837,857,884,898,936,970,985,990,996,1001,1018,1040,1065,1108,1164,1274,1300,1300,1300,1300,1300,1300,1300,1300,1300,1300,1300,1300,1300,1300,1300,1300,1300,1300,1300,950,947,947,949,964,1000,1021,1037,1041,1041,1041,1041,1041,1044,1050,1050,1054,1060,1067],"ymouse":[557,557,557,557,557,557,557,557,557,557,557,552,541,534,534,534,534,534,534,534,534,534,534,534,534,534,534,534,534,534,534,534,534,534,534,534,534,534,534,534,534,534,534,534,534,534,534,534,534,534,534,534,534,534,534,534,534,534,534,534,534,534,534,534,534,534,534,534,534,534,534,534,534,534,534,534,534,534,534,534,534,522,508,491,479,441,409,398,394,389,382,363,342,315,267,205,38,2,2,2,2,2,2,2,2,2,2,2,2,2,2,2,2,2,2,2,6,15,23,35,51,76,93,111,114,114,114,114,114,114,113,113,110,101,93],"timestamp_mouse":[18,34,46,67,87,106,127,147,166,186,207,226,247,266,287,307,327,346,368,386,407,427,448,467,486,508,526,547,568,587,606,628,648,667,688,708,726,747,768,787,806,826,846,867,886,908,928,948,967,986,1006,1026,1047,1068,1087,1107,1126,1147,1166,1188,1206,1226,1246,1267,1287,1306,1327,1347,1367,1387,1406,1426,1446,1466,1487,1507,1526,1548,1566,1586,1607,1627,1648,1666,1687,1708,1726,1747,1766,1788,1807,1827,1847,1867,1887,1907,1926,1946,1966,1987,2006,2027,2047,2068,2087,2107,2127,2146,2166,2187,2206,2226,2247,2267,2287,2308,2326,2346,2367,2386,2407,2426,2446,2468,2487,2507,2527,2547,2567,2587,2608,2627,2647,2667,2687],"xSR":741.5,"ySR":469.95,"xT1":424.9,"yT1":0,"xT2":1058.1,"yT2":0,"toosoon":0,"cond_shown":"Incongruent","ratio_trial":300,"L_num":7,"L_den":10,"R_num":8,"R_den":20,"correct_side":1,"subjID":"AnaMariaDazaMarin35","gender":"20.19","school":"4","age":"9"},{"start_time":1552054236445,"click_time":1552054238363,"finger_time":1552054237442,"fix_duration":519.0898575775242,"trial":30,"RT":997,"MT":921,"sideResp":1,"stimulus":[],"xmouse":[784,784,784,784,784,784,784,784,784,784,784,784,784,784,784,784,784,784,784,784,784,784,784,784,784,784,784,784,784,784,784,784,784,784,784,784,784,784,784,784,784,784,784,784,784,784,784,784,787,790,792,796,824,846,852,854,869,879,897,906,909,910,910,914,917,917,917,920,927,934,945,952,967,975,976,977,979,979,979,979,979,979,979,979,978,973,965,958,946,895,840,780,620,576,542,523],"ymouse":[513,513,513,513,513,513,513,513,513,513,513,513,513,513,513,513,513,513,513,513,513,513,513,513,513,513,513,513,513,513,513,513,513,513,513,513,513,513,513,513,513,513,513,513,513,513,513,513,496,469,461,452,397,358,350,348,327,308,272,248,241,241,239,237,235,235,235,233,227,220,212,205,194,187,187,186,185,185,185,185,185,185,185,185,185,185,184,183,179,165,149,131,83,75,64,61],"timestamp_mouse":[17,37,57,79,98,117,138,158,179,197,217,239,257,279,298,317,337,358,377,397,419,437,457,477,499,519,537,557,579,598,618,637,659,678,699,717,738,758,777,798,819,839,858,878,898,917,938,959,978,997,1017,1038,1057,1079,1097,1118,1138,1159,1178,1197,1217,1237,1258,1278,1298,1319,1339,1357,1377,1397,1418,1438,1457,1477,1497,1518,1538,1558,1578,1598,1618,1638,1658,1679,1699,1718,1739,1758,1779,1798,1818,1839,1857,1878,1898,1918],"xSR":741.5,"ySR":469.95,"xT1":424.9,"yT1":0,"xT2":1058.1,"yT2":0,"toosoon":0,"cond_shown":"Incongruent","ratio_trial":100,"L_num":9,"L_den":10,"R_num":20,"R_den":25,"correct_side":1,"subjID":"AnaMariaDazaMarin35","gender":"20.19","school":"4","age":"9"},{"start_time":1552054241891,"click_time":1552054244502,"finger_time":1552054242703,"fix_duration":486.68247752552963,"trial":31,"RT":812,"MT":1799,"sideResp":2,"stimulus":[],"xmouse":[794,794,794,794,794,794,794,794,794,794,794,794,794,794,794,794,794,794,794,794,794,794,794,794,794,794,794,794,794,794,794,794,794,794,794,794,796,800,806,818,842,856,878,894,902,927,937,946,953,958,965,971,978,984,988,990,993,994,996,1002,1019,1025,1029,1032,1032,1032,1032,1032,1033,1035,1046,1046,1046,1046,1046,1046,1046,1046,1046,1046,1046,1046,1046,1048,1051,1058,1058,1058,1058,1058,1058,1058,1058,1058,1059,1061,1062,1063,1063,1063,1063,1063,1063,1063,1063,1063,1063,1066,1094,1115,1143,1143,1143,1143,1143,1143,1143,1143,1143,1143,1143,1143,1143,1143,1143,1143,1143,1143,1145,1145,1141],"ymouse":[550,550,550,550,550,550,547,545,544,544,543,543,542,542,542,541,541,541,541,541,540,540,540,540,540,540,540,538,537,536,536,536,536,536,536,536,533,525,517,503,475,456,413,385,369,313,290,275,266,259,249,244,238,232,228,224,220,218,214,207,196,192,190,188,188,188,188,188,187,183,159,159,159,159,159,159,159,159,159,159,159,159,159,157,155,151,151,151,151,151,151,151,151,151,151,149,149,149,146,143,143,143,143,143,142,142,142,142,142,142,134,134,134,134,134,134,134,134,134,134,134,134,134,134,134,124,120,120,113,112,96],"timestamp_mouse":[12,40,52,72,91,113,132,151,172,191,211,232,252,271,293,311,331,352,371,392,412,432,452,472,492,513,531,551,572,591,612,632,651,671,692,711,731,751,773,792,812,832,852,873,892,912,932,951,973,993,1013,1031,1053,1073,1092,1112,1132,1152,1171,1193,1211,1232,1252,1273,1292,1313,1332,1352,1372,1392,1411,1433,1453,1473,1492,1511,1531,1553,1572,1592,1612,1632,1652,1672,1692,1711,1731,1751,1772,1793,1812,1832,1852,1872,1892,1912,1932,1952,1971,1992,2012,2032,2053,2072,2091,2112,2132,2153,2172,2192,2213,2233,2252,2271,2291,2311,2331,2352,2372,2392,2413,2432,2452,2472,2492,2511,2531,2552,2571,2593,2611],"xSR":741.5,"ySR":469.95,"xT1":424.9,"yT1":0,"xT2":1058.1,"yT2":0,"toosoon":0,"cond_shown":"Congruent","ratio_trial":300,"L_num":2,"L_den":20,"R_num":10,"R_den":25,"correct_side":2,"subjID":"AnaMariaDazaMarin35","gender":"20.19","school":"4","age":"9"},{"start_time":1552054246800,"click_time":1552054248802,"finger_time":1552054247964,"fix_duration":616.7880215285703,"trial":32,"RT":1164,"MT":838,"sideResp":2,"stimulus":[],"xmouse":[802,802,802,802,802,802,802,802,802,802,802,802,802,802,802,802,802,802,802,802,802,802,802,802,802,802,802,802,802,802,802,802,802,802,802,802,802,802,802,802,802,802,802,802,802,802,806,813,817,819,823,823,823,823,823,824,827,836,846,849,856,873,884,884,893,902,902,903,903,903,942,943,943,943,943,943,943,943,943,943,946,946,946,947,964,979,1005,1012,1029,1036,1047,1064,1083,1092,1098,1103,1105,1111,1114,1117,1118],"ymouse":[540,540,540,540,540,540,540,540,540,540,540,540,540,540,540,540,540,540,540,540,540,540,540,540,540,540,540,540,540,540,540,540,540,540,540,540,540,540,540,540,540,540,540,540,540,539,539,536,533,532,530,530,530,530,529,528,526,517,507,504,497,480,465,463,453,442,442,437,437,437,391,391,391,384,379,378,378,378,376,376,370,370,370,369,338,310,267,258,234,225,215,203,192,185,179,171,163,146,127,107,61],"timestamp_mouse":[11,32,43,62,84,104,123,144,164,182,204,223,242,264,284,302,323,343,363,383,404,424,443,463,482,502,524,544,562,582,602,624,643,664,684,704,722,743,762,782,802,824,842,862,882,904,924,943,963,983,1002,1023,1043,1064,1083,1102,1123,1143,1164,1183,1203,1223,1242,1263,1283,1303,1323,1342,1362,1383,1403,1423,1444,1463,1482,1503,1523,1544,1564,1583,1602,1622,1643,1662,1683,1702,1724,1744,1763,1783,1803,1823,1843,1864,1884,1904,1923,1944,1964,1982,2002],"xSR":741.5,"ySR":469.95,"xT1":424.9,"yT1":0,"xT2":1058.1,"yT2":0,"toosoon":0,"cond_shown":"Incongruent","ratio_trial":300,"L_num":4,"L_den":20,"R_num":2,"R_den":4,"correct_side":2,"subjID":"AnaMariaDazaMarin35","gender":"20.19","school":"4","age":"9"},{"start_time":1552054251764,"click_time":1552054253105,"finger_time":1552054252424,"fix_duration":1439.3157027011946,"trial":33,"RT":660,"MT":681,"sideResp":1,"stimulus":[],"xmouse":[764,764,764,764,764,764,764,764,764,764,764,764,764,764,764,764,764,764,764,764,764,764,764,764,764,764,764,766,770,774,777,777,779,783,786,787,787,786,775,775,749,745,742,707,699,699,699,681,673,653,611,576,535,534,534,533,533,533,533,533,533,533,533,533,533,532,531,522],"ymouse":[501,501,501,501,501,501,501,501,501,501,501,501,501,501,501,501,501,501,501,501,501,501,501,501,501,501,501,501,497,493,487,486,475,459,446,441,440,428,390,390,328,318,312,261,252,252,252,234,227,207,173,145,108,107,107,103,102,102,102,102,102,102,102,102,102,101,100,91],"timestamp_mouse":[9,20,41,60,80,100,120,141,161,180,201,221,241,261,280,300,320,340,361,381,401,422,440,460,480,501,522,540,560,581,601,620,640,660,681,700,721,740,760,781,800,821,840,860,881,901,921,941,960,980,1001,1020,1040,1060,1082,1100,1121,1141,1160,1181,1201,1222,1240,1261,1280,1301,1321,1340],"xSR":741.5,"ySR":469.95,"xT1":424.9,"yT1":0,"xT2":1058.1,"yT2":0,"toosoon":0,"cond_shown":"Congruent","ratio_trial":300,"L_num":18,"L_den":20,"R_num":9,"R_den":15,"correct_side":1,"subjID":"AnaMariaDazaMarin35","gender":"20.19","school":"4","age":"9"},{"start_time":1552054254418,"click_time":1552054257165,"finger_time":1552054256004,"fix_duration":250,"trial":34,"RT":1586,"MT":1161,"sideResp":2,"stimulus":[],"xmouse":[809,809,809,808,808,807,807,805,805,805,805,805,805,805,805,805,805,805,805,805,805,805,805,805,805,805,805,805,805,805,805,805,805,805,805,805,805,805,805,805,805,805,805,805,805,805,805,805,805,805,805,805,805,805,805,805,805,805,805,805,805,805,805,805,805,805,805,805,805,805,805,805,804,804,801,787,777,768,763,756,755,745,735,722,693,683,673,671,671,677,678,678,678,673,669,668,665,665,663,658,652,649,646,646,646,646,646,646,646,646,646,646,646,646,654,654,654,672,699,711,757,790,797,803,819,832,832,863,884,932,935,940,944,944,998,1026,1042,1065],"ymouse":[495,494,494,494,494,494,494,494,494,494,494,494,494,494,494,494,494,494,494,494,494,494,494,494,494,494,494,494,494,494,494,494,494,494,494,494,494,494,494,494,494,494,494,494,494,494,494,494,494,494,494,494,494,494,494,494,494,494,494,494,494,494,494,494,494,494,494,494,494,494,494,494,494,494,493,491,491,480,474,467,465,457,448,440,418,407,391,378,366,353,338,292,256,225,201,199,195,195,193,188,185,183,183,183,183,183,183,183,183,183,183,183,183,183,183,183,183,183,183,182,182,181,179,176,166,157,157,140,127,102,101,100,98,98,91,88,84,80],"timestamp_mouse":[10,33,46,66,86,107,127,146,166,186,206,227,246,266,288,306,327,347,366,386,407,427,447,467,486,506,527,546,566,586,606,627,646,666,688,706,727,747,766,786,806,826,846,867,886,906,926,947,967,987,1007,1026,1046,1066,1086,1106,1126,1148,1166,1186,1207,1226,1247,1268,1286,1306,1327,1348,1366,1386,1407,1426,1447,1467,1486,1506,1526,1547,1566,1586,1607,1626,1647,1667,1686,1706,1726,1746,1767,1786,1807,1826,1846,1867,1886,1907,1926,1946,1967,1986,2008,2026,2047,2067,2086,2107,2127,2146,2167,2186,2206,2226,2247,2266,2286,2307,2326,2346,2366,2387,2407,2427,2446,2467,2486,2507,2527,2546,2568,2587,2607,2627,2646,2667,2686,2706,2727,2747],"xSR":741.5,"ySR":469.95,"xT1":424.9,"yT1":0,"xT2":1058.1,"yT2":0,"toosoon":0,"cond_shown":"Congruent","ratio_trial":200,"L_num":16,"L_den":30,"R_num":9,"R_den":27,"correct_side":1,"subjID":"AnaMariaDazaMarin35","gender":"20.19","school":"4","age":"9"},{"start_time":1552054262056,"click_time":1552054265004,"finger_time":1552054264485,"fix_duration":250,"trial":35,"RT":2429,"MT":519,"sideResp":2,"stimulus":[],"xmouse":[769,770,776,779,781,782,784,785,785,785,785,785,785,785,785,785,785,785,785,785,785,785,785,785,785,785,785,785,785,785,785,785,785,785,785,782,778,766,757,753,751,750,750,750,750,749,749,749,749,747,747,746,745,745,745,745,745,745,745,745,745,745,745,745,745,745,745,745,745,745,745,747,750,750,753,754,756,756,756,756,756,756,756,757,757,757,758,760,761,766,769,772,772,772,772,772,772,772,772,772,772,773,773,773,775,776,778,780,780,780,779,778,778,778,778,780,781,795,814,814,814,849,962,1090,1090,1134,1148,1152,1151,1149,1145,1142,1125,1120,1113,1104,1101,1096,1096,1096,1096,1099,1102,1105,1109,1115,1120,1138],"ymouse":[549,547,540,536,532,530,526,523,522,522,522,522,522,522,522,522,522,522,522,522,522,522,522,522,522,522,522,522,522,522,522,522,522,522,522,522,522,522,522,522,522,522,522,522,522,522,522,522,522,522,522,522,522,522,522,522,522,522,522,522,522,522,522,522,522,522,522,522,522,522,522,522,522,522,522,522,522,522,522,522,522,522,522,522,522,522,522,522,522,522,523,523,523,523,523,523,523,523,523,523,523,523,523,523,523,523,522,521,521,517,513,511,504,494,489,485,482,476,472,472,472,466,411,335,335,313,301,286,277,272,263,259,238,233,224,214,210,202,202,202,198,193,183,169,155,139,124,75],"timestamp_mouse":[13,33,48,69,89,108,129,148,169,189,209,229,248,269,288,308,328,348,368,388,409,428,450,469,489,509,529,548,569,589,608,628,649,668,689,709,728,749,768,788,809,829,850,868,889,909,929,948,968,989,1009,1028,1049,1069,1089,1110,1129,1148,1169,1188,1209,1228,1248,1268,1288,1310,1329,1348,1368,1389,1409,1428,1448,1468,1489,1509,1529,1548,1569,1588,1609,1629,1648,1669,1688,1708,1729,1749,1769,1789,1809,1829,1849,1869,1889,1910,1929,1948,1968,1990,2009,2028,2049,2068,2089,2109,2129,2148,2168,2188,2209,2228,2248,2268,2289,2309,2328,2349,2369,2389,2408,2429,2449,2468,2490,2509,2528,2548,2570,2588,2608,2629,2648,2669,2688,2709,2728,2748,2769,2788,2808,2829,2848,2868,2888,2909,2928,2948],"xSR":741.5,"ySR":469.95,"xT1":424.9,"yT1":0,"xT2":1058.1,"yT2":0,"toosoon":0,"cond_shown":"Congruent","ratio_trial":200,"L_num":7,"L_den":15,"R_num":18,"R_den":27,"correct_side":2,"subjID":"AnaMariaDazaMarin35","gender":"20.19","school":"4","age":"9"},{"start_time":1552054266917,"click_time":1552054269824,"finger_time":1552054268545,"fix_duration":869.5030648783822,"trial":36,"RT":1628,"MT":1279,"sideResp":1,"stimulus":[],"xmouse":[805,805,805,805,805,805,805,805,805,805,805,805,805,805,805,805,805,805,805,805,805,805,805,805,805,805,805,805,805,805,805,805,805,805,805,805,805,805,804,804,804,804,804,804,803,803,803,803,803,803,802,801,799,798,796,796,796,796,796,796,796,796,796,796,796,796,796,796,796,796,796,796,796,796,796,796,796,796,796,796,806,819,835,841,880,891,896,898,899,908,909,910,910,909,903,902,900,894,883,860,824,790,759,758,753,743,719,692,678,652,641,638,638,638,633,633,633,629,628,625,625,625,626,634,630,630,630,630,630,630,630,630,630,630,630,630,630,630,630,630,630,630,630,630,630,503],"ymouse":[535,535,535,535,535,535,535,535,535,535,535,535,535,535,535,535,535,535,535,535,535,535,535,535,535,535,535,535,535,535,535,535,535,535,535,535,535,535,532,529,525,524,523,520,516,515,514,513,513,512,511,509,507,505,498,493,493,493,493,493,493,493,493,493,493,493,493,493,493,493,493,493,493,493,493,493,493,493,493,492,480,466,446,439,388,370,363,361,356,339,330,323,317,312,303,302,300,298,294,290,283,277,272,272,271,267,258,247,243,235,231,231,231,231,221,221,221,212,209,194,182,178,154,85,25,25,25,25,25,25,25,25,25,25,25,25,25,25,25,25,25,25,25,25,25,1],"timestamp_mouse":[11,34,47,69,88,108,127,148,168,188,208,228,248,267,288,307,328,348,367,388,408,427,448,468,487,508,527,547,568,587,607,627,647,667,688,707,727,748,768,787,807,827,847,867,887,907,928,947,967,987,1007,1027,1047,1067,1089,1108,1128,1147,1168,1188,1207,1228,1248,1267,1287,1307,1327,1347,1368,1388,1407,1427,1448,1468,1488,1508,1528,1548,1568,1587,1607,1628,1648,1668,1688,1708,1727,1748,1768,1788,1808,1827,1848,1867,1888,1907,1927,1947,1967,1987,2008,2027,2048,2068,2087,2107,2127,2148,2167,2187,2207,2227,2247,2267,2287,2309,2327,2347,2367,2387,2407,2428,2447,2467,2487,2508,2527,2547,2567,2587,2608,2628,2647,2668,2688,2707,2728,2748,2767,2788,2808,2827,2849,2867,2888,2907],"xSR":741.5,"ySR":469.95,"xT1":424.9,"yT1":0,"xT2":1058.1,"yT2":0,"toosoon":0,"cond_shown":"Congruent","ratio_trial":100,"L_num":10,"L_den":25,"R_num":3,"R_den":10,"correct_side":1,"subjID":"AnaMariaDazaMarin35","gender":"20.19","school":"4","age":"9"},{"start_time":1552054273255,"click_time":1552054275305,"finger_time":1552054274924,"fix_duration":250,"trial":37,"RT":1669,"MT":381,"sideResp":2,"stimulus":[],"xmouse":[772,772,772,772,772,772,772,772,772,772,772,772,772,772,772,772,772,772,772,772,772,772,772,772,772,772,772,772,772,772,772,773,776,779,781,781,782,782,782,782,782,782,782,782,782,782,782,782,782,782,782,782,782,783,783,783,783,783,783,783,783,783,783,783,783,783,783,783,783,783,783,783,783,783,783,783,783,783,783,783,783,786,802,845,847,847,861,905,920,952,970,973,980,983,989,1006,1021,1055,1076,1087,1095,1106,1116],"ymouse":[529,529,529,529,529,529,529,529,529,529,529,529,529,529,529,529,529,529,529,529,529,529,529,529,529,529,529,529,529,529,529,527,522,518,515,513,513,513,513,513,513,513,513,513,513,513,513,509,504,500,499,497,495,493,493,493,493,493,493,493,493,493,493,493,493,493,493,493,493,493,493,493,493,493,493,493,493,493,493,493,493,489,473,441,440,440,431,383,367,332,314,309,290,285,277,258,241,190,154,134,117,100,86],"timestamp_mouse":[12,34,49,70,90,109,130,149,169,190,209,229,249,269,289,309,329,350,369,389,409,429,449,469,490,509,529,549,569,589,609,629,650,670,689,709,731,750,769,789,810,830,849,869,890,909,929,949,969,989,1009,1030,1050,1070,1091,1110,1130,1149,1170,1190,1209,1229,1249,1270,1289,1309,1330,1350,1369,1389,1410,1430,1449,1469,1489,1509,1529,1549,1569,1590,1610,1629,1649,1669,1689,1710,1730,1749,1769,1789,1809,1830,1849,1869,1889,1910,1930,1949,1969,1990,2009,2030,2050],"xSR":741.5,"ySR":469.95,"xT1":424.9,"yT1":0,"xT2":1058.1,"yT2":0,"toosoon":0,"cond_shown":"Incongruent","ratio_trial":100,"L_num":12,"L_den":30,"R_num":2,"R_den":4,"correct_side":2,"subjID":"AnaMariaDazaMarin35","gender":"20.19","school":"4","age":"9"},{"start_time":1552054282521,"click_time":1552054284604,"finger_time":1552054283965,"fix_duration":735.3120009324077,"trial":38,"RT":1444,"MT":639,"sideResp":2,"stimulus":[],"xmouse":[802,802,802,802,802,803,803,803,803,803,803,803,803,803,803,803,803,803,803,803,803,803,803,803,803,803,803,803,803,803,803,803,803,803,803,803,803,803,803,803,803,803,803,803,803,803,807,814,820,828,829,829,829,829,829,829,829,829,829,829,829,829,829,829,829,829,829,829,829,814,803,779,750,740,724,716,706,703,702,702,702,702,702,702,702,709,719,723,730,769,795,834,859,877,888,888,892,902,913,940,957,975,994,1016,1093],"ymouse":[558,558,558,558,555,553,551,551,551,551,551,551,551,551,551,551,551,551,551,551,551,551,551,551,551,551,551,551,551,551,551,551,551,551,551,551,551,551,551,551,551,551,551,551,551,551,544,537,533,526,526,526,526,526,526,526,526,526,526,526,526,526,526,526,526,526,526,524,522,507,494,475,449,440,425,420,412,410,409,409,409,409,409,409,407,398,389,385,379,354,338,312,296,286,275,275,268,243,218,176,155,130,105,76,17],"timestamp_mouse":[10,30,43,63,83,104,123,145,163,183,203,223,244,264,283,304,323,343,364,383,403,424,443,464,483,503,524,543,564,583,603,623,644,664,684,703,723,744,763,783,804,823,844,864,884,903,924,944,963,983,1003,1024,1043,1063,1084,1103,1123,1145,1164,1183,1203,1224,1244,1263,1283,1304,1323,1343,1363,1383,1403,1424,1444,1464,1483,1504,1523,1543,1563,1583,1604,1624,1643,1663,1684,1704,1724,1743,1764,1783,1805,1824,1844,1863,1883,1903,1923,1943,1963,1983,2003,2024,2044,2063,2083],"xSR":741.5,"ySR":469.95,"xT1":424.9,"yT1":0,"xT2":1058.1,"yT2":0,"toosoon":0,"cond_shown":"Congruent","ratio_trial":300,"L_num":1,"L_den":5,"R_num":3,"R_den":6,"correct_side":2,"subjID":"AnaMariaDazaMarin35","gender":"20.19","school":"4","age":"9"},{"start_time":1552054287215,"click_time":1552054288785,"finger_time":1552054288084,"fix_duration":1006.8622818990555,"trial":39,"RT":869,"MT":701,"sideResp":2,"stimulus":[],"xmouse":[802,802,802,802,802,802,802,802,802,802,802,802,802,802,802,802,802,802,802,802,802,802,802,802,802,802,802,802,802,802,802,802,802,802,802,802,802,804,805,823,825,829,838,847,874,892,915,936,945,972,985,988,990,990,1001,1010,1017,1018,1019,1031,1038,1052,1064,1086,1120,1122,1122,1123,1123,1123,1123,1123,1123,1124,1125,1125,1125,1125,1125],"ymouse":[501,501,501,501,501,501,501,501,501,501,501,501,501,501,501,501,501,501,501,501,501,501,501,501,501,501,501,501,501,501,501,501,501,501,501,501,501,501,501,486,486,483,478,473,453,439,423,410,405,375,357,352,348,348,328,312,297,295,289,243,218,194,174,150,120,120,119,118,118,118,118,118,117,117,113,112,106,101,94],"timestamp_mouse":[10,34,49,69,90,110,130,149,170,189,209,230,249,270,289,309,329,350,370,390,410,429,449,469,489,509,529,550,570,589,610,629,650,669,689,709,729,749,769,789,809,830,850,869,889,909,929,949,969,989,1009,1029,1050,1069,1089,1109,1129,1149,1170,1190,1209,1230,1250,1269,1289,1310,1329,1350,1369,1389,1410,1430,1449,1471,1489,1510,1529,1549,1570],"xSR":741.5,"ySR":469.95,"xT1":424.9,"yT1":0,"xT2":1058.1,"yT2":0,"toosoon":0,"cond_shown":"Congruent","ratio_trial":100,"L_num":1,"L_den":2,"R_num":18,"R_den":30,"correct_side":2,"subjID":"AnaMariaDazaMarin35","gender":"20.19","school":"4","age":"9"},{"start_time":1552054292654,"click_time":1552054294285,"finger_time":1552054293424,"fix_duration":1286.924522106722,"trial":40,"RT":770,"MT":861,"sideResp":1,"stimulus":[],"xmouse":[807,807,807,807,807,807,807,807,807,807,807,807,807,807,807,807,807,807,807,807,807,807,807,807,807,807,807,807,807,807,807,807,807,804,801,800,800,798,785,784,783,776,763,760,754,751,745,711,697,679,667,665,657,646,644,643,643,639,630,628,622,609,601,600,598,592,580,540,533,528,524,523,520,520,518,511,507,506,505,504,503,501],"ymouse":[500,500,500,500,500,500,500,500,500,500,500,500,500,500,500,500,500,500,500,500,500,500,500,500,500,500,500,500,500,500,500,500,500,499,495,493,490,485,469,469,468,461,439,428,419,411,403,356,331,294,258,249,227,209,205,204,204,191,178,177,170,157,151,150,150,147,145,129,127,125,124,123,123,123,123,118,115,113,109,105,100,95],"timestamp_mouse":[12,31,51,70,90,112,130,151,171,190,211,230,251,271,291,311,331,350,371,390,410,431,450,470,491,512,530,551,570,592,611,630,651,671,691,710,731,750,770,791,810,830,851,870,890,911,931,950,971,990,1010,1030,1050,1071,1090,1110,1130,1150,1170,1191,1212,1231,1250,1271,1291,1311,1331,1351,1370,1391,1411,1430,1450,1470,1491,1511,1531,1550,1570,1590,1610,1631],"xSR":741.5,"ySR":469.95,"xT1":424.9,"yT1":0,"xT2":1058.1,"yT2":0,"toosoon":0,"cond_shown":"Congruent","ratio_trial":300,"L_num":20,"L_den":25,"R_num":5,"R_den":10,"correct_side":1,"subjID":"AnaMariaDazaMarin35","gender":"20.19","school":"4","age":"9"},{"start_time":1552054297154,"click_time":1552054298765,"finger_time":1552054298285,"fix_duration":1329.2353348135905,"trial":41,"RT":1131,"MT":480,"sideResp":1,"stimulus":[],"xmouse":[816,815,814,814,814,814,814,814,814,814,814,814,812,811,810,810,809,809,809,809,809,809,809,809,809,809,809,809,809,809,809,809,808,806,806,806,806,806,806,806,806,806,806,806,806,805,805,805,805,805,805,805,801,801,800,798,797,792,790,783,781,768,745,734,725,716,706,676,670,663,637,602,557,555,552,550,547,547,545,528,509],"ymouse":[537,536,535,535,535,535,535,535,535,535,535,534,527,523,519,517,516,516,516,516,516,516,516,516,516,516,516,516,516,516,515,513,505,502,501,501,501,501,501,501,501,501,499,498,497,497,497,497,497,496,495,491,482,482,479,471,460,435,423,401,395,365,330,315,303,292,280,245,237,231,203,174,119,114,107,100,94,94,91,75,58],"timestamp_mouse":[11,30,50,70,90,110,130,151,170,190,211,231,250,271,291,310,331,350,371,390,410,431,451,470,491,510,530,551,571,590,610,630,650,670,691,711,730,750,771,791,810,831,851,871,890,911,930,951,971,990,1011,1031,1050,1070,1091,1111,1131,1150,1171,1190,1212,1230,1251,1270,1290,1310,1331,1350,1370,1390,1410,1431,1450,1471,1491,1510,1531,1550,1570,1590,1611],"xSR":741.5,"ySR":469.95,"xT1":424.9,"yT1":0,"xT2":1058.1,"yT2":0,"toosoon":0,"cond_shown":"Congruent","ratio_trial":300,"L_num":4,"L_den":5,"R_num":2,"R_den":4,"correct_side":1,"subjID":"AnaMariaDazaMarin35","gender":"20.19","school":"4","age":"9"},{"start_time":1552054300217,"click_time":1552054301724,"finger_time":1552054301544,"fix_duration":250,"trial":42,"RT":1327,"MT":180,"sideResp":1,"stimulus":[],"xmouse":[819,819,819,819,819,819,819,819,819,819,819,819,819,819,819,819,819,819,819,819,819,819,819,819,819,819,819,819,820,820,820,820,820,820,820,820,820,820,820,820,820,820,820,820,820,820,820,820,820,820,820,820,820,820,820,820,820,820,819,807,802,797,794,793,791,789,787,784,775,749,738,729,710,674,581,514],"ymouse":[542,542,542,542,542,542,542,542,542,542,542,542,542,542,542,542,542,542,542,542,542,542,542,542,542,542,542,542,542,542,542,542,542,542,542,542,542,542,542,542,542,542,542,542,542,542,542,542,542,542,542,542,542,542,542,542,542,542,542,529,519,511,504,499,489,475,463,439,405,319,288,261,226,176,103,61],"timestamp_mouse":[10,34,47,68,87,107,129,148,167,188,209,228,247,268,287,307,327,348,367,388,407,428,448,467,488,507,528,548,568,587,608,628,647,667,687,707,727,748,767,787,807,828,848,868,888,907,928,947,967,987,1007,1027,1048,1067,1087,1108,1127,1148,1167,1187,1207,1227,1248,1268,1288,1308,1327,1348,1368,1387,1407,1427,1447,1467,1487,1507],"xSR":741.5,"ySR":469.95,"xT1":424.9,"yT1":0,"xT2":1058.1,"yT2":0,"toosoon":0,"cond_shown":"Incongruent","ratio_trial":300,"L_num":8,"L_den":10,"R_num":14,"R_den":28,"correct_side":1,"subjID":"AnaMariaDazaMarin35","gender":"20.19","school":"4","age":"9"},{"start_time":1552054304547,"click_time":1552054306826,"finger_time":1552054306204,"fix_duration":1441.830229252058,"trial":43,"RT":1657,"MT":622,"sideResp":1,"stimulus":[],"xmouse":[760,760,760,760,760,760,760,760,760,760,760,760,760,760,760,760,760,760,760,760,760,760,760,760,760,760,760,760,760,760,760,760,760,760,760,760,760,760,760,760,760,760,760,760,760,760,760,760,760,760,760,760,760,760,760,760,760,760,760,760,760,760,760,760,760,760,760,760,760,760,760,760,760,760,760,760,760,760,760,760,760,760,765,773,775,775,796,811,827,842,845,850,853,845,838,833,832,830,825,821,816,810,796,793,787,766,743,717,708,702,682,664,581,516],"ymouse":[487,487,487,487,487,487,487,487,487,487,487,487,487,487,487,487,487,487,487,487,487,487,483,482,481,481,481,481,481,481,481,481,481,481,481,481,481,481,481,481,481,481,481,481,481,481,481,481,481,481,481,481,481,481,481,481,481,481,481,481,481,481,481,481,481,481,481,481,481,481,481,481,481,481,481,481,481,481,481,481,481,478,465,451,447,447,426,413,401,389,382,364,325,295,278,266,262,260,255,250,245,239,225,224,220,206,194,178,174,171,163,156,123,97],"timestamp_mouse":[18,37,57,78,97,118,137,157,178,197,217,238,259,277,297,318,337,357,377,398,417,437,457,477,497,517,537,557,578,598,618,637,657,677,697,718,737,758,777,798,817,838,857,877,897,919,937,957,977,999,1017,1038,1057,1077,1098,1117,1138,1157,1177,1197,1218,1237,1259,1278,1298,1317,1337,1357,1378,1398,1418,1438,1459,1478,1498,1518,1537,1557,1577,1598,1617,1637,1657,1677,1697,1717,1739,1757,1777,1797,1817,1838,1857,1878,1897,1917,1938,1958,1977,1997,2018,2037,2057,2078,2097,2118,2138,2157,2179,2197,2217,2237,2257,2278],"xSR":741.5,"ySR":469.95,"xT1":424.9,"yT1":0,"xT2":1058.1,"yT2":0,"toosoon":0,"cond_shown":"Incongruent","ratio_trial":200,"L_num":7,"L_den":10,"R_num":8,"R_den":16,"correct_side":1,"subjID":"AnaMariaDazaMarin35","gender":"20.19","school":"4","age":"9"},{"start_time":1552054308981,"click_time":1552054311485,"finger_time":1552054310406,"fix_duration":474.8941609879691,"trial":44,"RT":1425,"MT":1079,"sideResp":2,"stimulus":[],"xmouse":[813,813,813,813,813,813,813,813,813,813,813,813,813,813,813,813,813,813,813,813,813,813,813,813,813,813,813,813,813,813,813,813,813,813,813,813,813,813,813,813,813,813,813,813,813,813,813,813,813,813,813,813,813,813,813,813,813,813,813,813,813,813,813,813,813,813,813,813,813,813,811,786,776,756,746,740,736,735,734,732,721,716,710,706,703,699,697,697,693,687,680,662,653,649,640,637,633,633,633,633,633,633,633,633,632,632,643,656,678,711,752,856,860,876,892,902,912,912,918,936,955,990,1020,1042,1063,1093],"ymouse":[510,510,510,510,510,510,510,510,510,510,510,510,510,510,510,510,510,510,510,510,510,510,510,510,510,510,510,510,510,510,510,510,510,510,510,510,510,510,510,510,510,510,510,510,510,510,510,510,510,510,510,510,510,510,510,510,510,510,510,510,510,510,510,510,510,510,510,510,509,500,472,416,404,384,374,367,359,358,357,351,328,318,306,294,283,274,268,268,264,259,255,243,237,235,233,232,231,231,231,231,231,231,231,231,231,231,239,249,261,275,289,307,308,308,306,299,287,287,282,267,248,216,187,152,117,84],"timestamp_mouse":[11,35,43,63,84,104,123,144,164,183,205,223,243,264,284,303,323,344,363,384,404,425,444,463,484,503,524,543,563,584,603,623,643,664,683,703,723,744,763,784,804,825,844,864,884,904,924,943,963,984,1003,1023,1044,1064,1083,1103,1124,1143,1163,1184,1203,1223,1243,1263,1283,1304,1324,1344,1363,1384,1404,1425,1444,1464,1484,1503,1523,1544,1563,1583,1605,1624,1643,1663,1683,1704,1724,1744,1763,1783,1804,1823,1844,1863,1884,1904,1923,1943,1964,1983,2004,2023,2044,2063,2083,2103,2124,2144,2163,2183,2205,2223,2243,2263,2283,2303,2323,2343,2363,2384,2403,2423,2443,2465,2483,2504],"xSR":741.5,"ySR":469.95,"xT1":424.9,"yT1":0,"xT2":1058.1,"yT2":0,"toosoon":0,"cond_shown":"Incongruent","ratio_trial":100,"L_num":3,"L_den":6,"R_num":4,"R_den":10,"correct_side":1,"subjID":"AnaMariaDazaMarin35","gender":"20.19","school":"4","age":"9"},{"start_time":1552054313337,"click_time":1552054315325,"finger_time":1552054315024,"fix_duration":250,"trial":45,"RT":1687,"MT":301,"sideResp":1,"stimulus":[],"xmouse":[798,791,791,775,773,773,772,772,772,772,772,772,772,772,772,772,772,772,772,772,772,772,772,772,772,772,772,772,772,772,772,772,772,772,772,772,772,772,772,772,772,772,772,772,772,772,772,772,772,772,772,772,772,772,772,772,772,772,772,772,772,772,772,772,772,772,772,772,772,772,772,772,772,772,772,772,772,772,772,772,772,769,760,748,738,725,709,682,595,558,527,509,502,496,496,496,500,511,522,524],"ymouse":[534,532,532,522,521,521,521,521,521,521,521,521,521,521,521,521,521,521,521,521,521,521,521,521,521,521,521,521,521,521,521,521,521,521,521,521,521,521,521,521,521,521,521,521,521,521,521,521,521,521,521,521,521,521,521,521,521,521,521,521,521,521,521,521,521,521,521,521,521,521,521,521,521,521,521,521,521,521,521,521,521,521,520,519,517,515,508,495,439,416,395,378,358,290,264,236,196,158,107,90],"timestamp_mouse":[9,36,48,68,89,107,128,149,167,187,209,229,247,267,287,307,327,349,367,387,408,428,447,469,488,507,529,547,568,588,607,628,648,669,688,709,727,749,768,788,808,828,849,867,888,907,928,948,969,988,1008,1027,1048,1069,1088,1109,1128,1147,1168,1187,1209,1228,1248,1267,1289,1307,1328,1348,1367,1389,1407,1428,1448,1468,1488,1507,1528,1547,1569,1589,1608,1629,1649,1667,1687,1707,1727,1748,1768,1789,1807,1827,1848,1868,1888,1908,1927,1948,1968,1988],"xSR":741.5,"ySR":469.95,"xT1":424.9,"yT1":0,"xT2":1058.1,"yT2":0,"toosoon":0,"cond_shown":"Incongruent","ratio_trial":100,"L_num":6,"L_den":10,"R_num":7,"R_den":14,"correct_side":1,"subjID":"AnaMariaDazaMarin35","gender":"20.19","school":"4","age":"9"},{"start_time":1552054318228,"click_time":1552054319505,"finger_time":1552054319005,"fix_duration":882.886438812551,"trial":46,"RT":777,"MT":500,"sideResp":2,"stimulus":[],"xmouse":[807,807,807,807,807,807,807,807,807,807,807,807,807,807,807,807,807,807,807,807,807,807,807,807,807,807,807,807,807,807,807,807,807,807,807,807,807,807,826,860,888,906,920,971,997,1013,1027,1035,1043,1044,1045,1046,1046,1046,1046,1046,1047,1049,1051,1053,1054,1056,1058,1067],"ymouse":[482,482,482,482,482,482,482,482,482,482,482,482,482,482,482,482,482,482,482,482,482,482,482,482,482,482,482,482,482,482,482,482,482,482,482,482,482,482,456,409,366,342,321,245,209,186,168,156,136,128,119,113,109,105,105,104,101,96,92,89,87,86,84,78],"timestamp_mouse":[16,38,56,77,97,118,136,156,177,198,217,238,257,278,297,317,338,357,377,398,417,437,458,478,497,518,538,558,577,597,616,637,656,678,698,718,737,758,777,797,818,837,858,877,896,916,936,958,977,997,1017,1036,1056,1076,1097,1118,1137,1158,1176,1197,1217,1236,1257,1277],"xSR":741.5,"ySR":469.95,"xT1":424.9,"yT1":0,"xT2":1058.1,"yT2":0,"toosoon":0,"cond_shown":"Congruent","ratio_trial":100,"L_num":7,"L_den":14,"R_num":15,"R_den":25,"correct_side":2,"subjID":"AnaMariaDazaMarin35","gender":"20.19","school":"4","age":"9"},{"start_time":1552054321317,"click_time":1552054323264,"finger_time":1552054322904,"fix_duration":368.3990358146885,"trial":47,"RT":1587,"MT":360,"sideResp":1,"stimulus":[],"xmouse":[805,805,805,805,805,805,805,805,805,805,805,805,805,805,805,805,805,805,805,805,805,805,805,805,805,805,805,805,805,805,805,805,805,805,805,805,805,805,805,805,805,805,805,805,805,805,805,805,805,805,805,805,805,805,805,805,805,805,805,805,805,805,805,805,805,805,805,805,805,805,805,805,805,805,805,805,805,805,805,740,693,639,591,562,541,541,541,541,541,541,541,541,541,541,541,541,402,426],"ymouse":[528,528,528,528,528,528,528,528,528,528,528,528,528,528,528,528,528,528,528,528,528,528,528,528,528,528,528,528,528,528,528,528,528,528,528,528,528,528,528,528,528,528,528,528,528,528,528,528,528,528,528,528,528,528,528,528,528,528,528,528,528,528,528,528,528,528,528,528,528,528,528,528,528,528,528,528,528,522,507,363,273,180,95,42,7,7,7,7,7,7,7,7,7,7,7,7,20,69],"timestamp_mouse":[10,31,48,68,87,108,128,149,167,189,208,229,248,269,287,308,328,347,367,389,407,428,449,469,487,509,529,549,567,589,608,627,648,668,689,708,727,748,768,788,807,828,849,868,889,908,928,949,967,988,1009,1028,1048,1069,1087,1107,1128,1149,1169,1189,1207,1228,1248,1268,1289,1308,1327,1347,1369,1387,1407,1428,1448,1469,1487,1507,1529,1548,1568,1587,1608,1627,1648,1669,1688,1707,1727,1748,1767,1787,1807,1828,1847,1869,1889,1908,1928,1947],"xSR":741.5,"ySR":469.95,"xT1":424.9,"yT1":0,"xT2":1058.1,"yT2":0,"toosoon":0,"cond_shown":"Congruent","ratio_trial":100,"L_num":9,"L_den":15,"R_num":8,"R_den":16,"correct_side":1,"subjID":"AnaMariaDazaMarin35","gender":"20.19","school":"4","age":"9"},{"start_time":1552054326285,"click_time":1552054327744,"finger_time":1552054327544,"fix_duration":819.389308555884,"trial":48,"RT":1259,"MT":200,"sideResp":1,"stimulus":[],"xmouse":[773,773,773,773,773,773,773,773,773,773,773,773,773,773,773,773,773,773,773,773,773,773,773,773,773,773,773,773,773,773,773,773,773,773,773,773,773,773,773,773,773,773,773,773,773,773,773,773,773,773,773,773,773,773,773,773,773,773,773,773,772,770,768,764,750,730,695,655,610,545,520,493],"ymouse":[483,483,483,483,483,483,483,483,483,483,483,483,483,483,483,483,483,483,483,483,483,483,483,483,483,483,483,483,483,483,483,483,483,483,483,483,484,484,485,485,485,485,485,485,485,485,485,485,485,485,485,485,485,485,485,485,485,485,485,483,477,467,454,438,395,355,297,246,201,143,121,97],"timestamp_mouse":[40,61,80,100,121,139,161,179,199,219,240,259,281,300,320,340,359,381,401,420,440,460,481,499,519,540,560,579,599,621,640,659,680,699,719,739,761,780,799,821,839,859,880,899,920,940,961,980,999,1019,1040,1059,1081,1101,1119,1140,1160,1181,1200,1220,1240,1259,1279,1300,1321,1340,1360,1380,1401,1420,1439,1459],"xSR":741.5,"ySR":469.95,"xT1":424.9,"yT1":0,"xT2":1058.1,"yT2":0,"toosoon":0,"cond_shown":"Incongruent","ratio_trial":100,"L_num":2,"L_den":4,"R_num":8,"R_den":20,"correct_side":1,"subjID":"AnaMariaDazaMarin35","gender":"20.19","school":"4","age":"9"},{"start_time":1552054330624,"click_time":1552054332985,"finger_time":1552054332304,"fix_duration":1138.693475654287,"trial":49,"RT":1680,"MT":681,"sideResp":1,"stimulus":[],"xmouse":[777,777,777,777,777,777,777,777,777,777,777,777,777,777,777,777,777,777,777,777,777,777,777,777,777,777,777,777,777,777,777,777,777,777,777,777,777,777,777,777,777,777,777,777,777,777,777,777,777,777,777,777,777,777,777,777,777,777,777,777,777,777,777,777,777,777,777,777,777,777,777,777,777,777,777,777,777,777,776,770,767,767,762,751,727,712,697,688,685,685,685,684,680,677,670,666,66