[{"start_time":1552054118556,"click_time":1552054121477,"finger_time":1552054118568,"fix_duration":674.7581114612293,"trial":0,"RT":12,"MT":2909,"sideResp":2,"stimulus":[],"xmouse":[759,759,759,759,759,759,759,759,759,759,759,759,759,759,759,759,759,759,759,759,759,759,759,759,759,759,759,759,759,759,759,759,759,759,759,759,759,760,763,765,767,768,769,769,769,769,768,768,768,768,768,768,768,771,772,774,776,776,776,776,776,776,776,776,776,776,776,776,776,776,776,776,776,776,776,776,776,776,776,776,776,776,776,776,776,776,776,776,776,776,776,776,776,776,776,776,776,776,776,776,776,776,776,776,776,776,776,776,776,776,776,776,776,776,776,777,781,800,810,817,823,830,835,838,842,850,870,884,898,917,940,981,996,1013,1029,1039,1056,1063,1068,1071,1075,1081,1083,1084,1084,1084,1088],"ymouse":[526,526,526,526,526,526,526,526,526,526,526,526,526,526,526,526,526,526,526,526,526,526,526,526,526,526,526,526,526,526,526,526,526,526,526,526,526,530,534,537,541,546,553,556,561,567,582,587,590,592,593,595,600,605,609,615,620,621,621,621,621,621,623,624,624,624,624,624,624,624,624,624,624,624,624,624,624,624,624,624,624,624,624,624,624,624,624,624,624,624,624,624,624,624,624,624,624,624,624,624,624,624,624,624,624,624,624,624,624,624,624,624,624,624,624,624,624,601,588,579,572,567,563,560,554,541,506,482,452,430,408,361,344,326,310,298,281,273,267,259,249,216,199,178,154,130,92],"timestamp_mouse":[12,24,41,61,80,100,121,140,161,180,202,221,242,261,282,301,320,341,362,380,401,421,440,460,481,500,521,540,560,581,600,621,640,660,681,700,721,740,761,782,801,820,840,860,881,901,921,940,961,981,1001,1021,1041,1061,1080,1101,1120,1141,1160,1180,1201,1222,1240,1260,1281,1300,1321,1342,1361,1381,1400,1421,1441,1461,1481,1501,1520,1542,1561,1581,1602,1621,1642,1660,1682,1701,1720,1740,1760,1780,1801,1822,1840,1861,1880,1901,1920,1940,1961,1980,2001,2021,2041,2062,2080,2101,2120,2140,2160,2180,2200,2220,2241,2261,2281,2301,2320,2340,2361,2380,2401,2420,2442,2461,2481,2500,2521,2540,2561,2580,2601,2620,2640,2661,2681,2701,2720,2740,2761,2781,2801,2821,2840,2860,2881,2900,2921],"xSR":741.5,"ySR":469.95,"xT1":424.9,"yT1":0,"xT2":1058.1,"yT2":0,"toosoon":0,"cond_shown":"Incongruent","ratio_trial":200,"L_num":3,"L_den":10,"R_num":1,"R_den":2,"correct_side":2,"subjID":"LidaDiaz21","gender":"1","age":"9 años","school":"4","test":{"fix_dur":[250,1500],"timestim":1000,"targets_dim":[100,100],"targets_relative_coord":[0.3,0.7],"size_stim":[880,420],"start_dim":[100,100],"size_start":[300,300],"size_fix":60,"samplingrate":20,"img_types":["Congruent","Incongruent"],"ratios":[100,200,300],"rep_conds":19,"nTrials":120,"trials_to_rest":500,"Trials_order":[75,81,74,55,98,35,15,103,5,80,41,95,58,92,21,40,0,63,64,23,44,49,79,73,84,67,14,48,87,105,61,82,89,68,13,104,43,53,88,70,50,10,83,2,85,102,100,1,117,28,33,24,56,101,109,6,46,7,86,108,99,69,78,93,20,37,116,4,96,12,11,72,65,25,8,107,38,62,17,30,90,29,114,57,45,31,91,54,34,119,3,9,118,115,77,113,32,27,51,22,106,18,59,110,39,16,76,42,66,97,19,94,47,36,26,60,111,52,71,112],"cond_shown":["Incongruent","Incongruent","Congruent","Incongruent","Congruent","Incongruent","Incongruent","Incongruent","Incongruent","Congruent","Incongruent","Incongruent","Congruent","Congruent","Incongruent","Congruent","Congruent","Incongruent","Congruent","Incongruent","Congruent","Incongruent","Incongruent","Incongruent","Congruent","Incongruent","Congruent","Congruent","Incongruent","Incongruent","Incongruent","Congruent","Incongruent","Congruent","Incongruent","Congruent","Incongruent","Incongruent","Congruent","Congruent","Congruent","Congruent","Incongruent","Congruent","Incongruent","Congruent","Congruent","Incongruent","Incongruent","Congruent","Incongruent","Congruent","Congruent","Incongruent","Incongruent","Congruent","Congruent","Incongruent","Congruent","Congruent","Incongruent","Incongruent","Congruent","Incongruent","Congruent","Incongruent","Congruent","Congruent","Congruent","Congruent","Incongruent","Congruent","Incongruent","Incongruent","Congruent","Incongruent","Congruent","Congruent","Incongruent","Congruent","Congruent","Incongruent","Congruent","Incongruent","Incongruent","Incongruent","Incongruent","Congruent","Congruent","Incongruent","Incongruent","Incongruent","Congruent","Incongruent","Incongruent","Incongruent","Congruent","Incongruent","Incongruent","Congruent","Congruent","Congruent","Incongruent","Congruent","Incongruent","Congruent","Congruent","Congruent","Congruent","Incongruent","Incongruent","Congruent","Incongruent","Congruent","Congruent","Congruent","Incongruent","Congruent","Incongruent","Congruent"],"ratio_trial":[200,200,200,100,200,300,200,100,300,200,300,300,300,200,200,300,100,200,300,300,200,100,100,100,100,100,200,100,200,200,100,300,300,200,100,200,100,300,300,300,200,300,300,200,100,100,300,100,200,300,200,100,200,300,100,100,300,100,200,100,200,200,100,200,200,100,200,300,100,100,300,100,300,100,200,300,200,200,300,100,100,300,100,200,200,100,100,100,300,300,200,200,300,100,300,300,200,200,200,300,300,100,300,200,200,300,300,100,100,100,100,300,300,100,200,100,200,300,300,300],"left_num":[3,14,3,10,15,8,14,10,4,16,13,8,5,6,14,8,8,11,18,4,6,10,3,9,1,6,16,1,1,7,8,2,13,21,13,3,8,4,24,3,3,2,8,1,9,15,3,9,6,8,7,12,6,2,3,7,9,2,3,12,7,3,11,7,11,9,6,9,11,10,13,6,13,12,12,1,7,16,7,15,15,2,9,3,7,2,4,3,1,8,3,4,8,13,4,8,11,1,14,20,5,4,7,3,7,20,20,1,3,10,9,24,13,6,8,1,4,1,3,20],"right_num":[1,12,14,9,4,9,12,8,6,12,12,14,7,3,6,1,2,3,9,8,11,8,8,20,18,7,12,18,2,14,6,10,12,2,6,14,1,6,2,4,11,12,14,21,20,13,4,20,3,1,4,13,11,6,7,15,3,8,7,13,14,1,4,4,3,6,11,3,6,3,12,5,12,2,6,2,2,12,8,13,13,6,8,1,8,6,8,4,7,9,11,6,10,6,2,9,3,3,12,9,7,15,8,14,4,14,14,18,2,8,6,8,12,5,7,3,1,11,4,13],"left_den":[10,30,10,25,25,10,30,25,5,20,26,10,25,15,30,16,16,20,20,5,20,25,5,10,2,10,20,2,3,10,16,20,26,30,26,10,20,5,30,6,10,10,10,2,10,25,6,10,20,16,15,30,20,4,9,14,10,4,10,30,10,10,22,15,22,18,20,10,22,25,26,20,26,30,20,2,21,20,10,25,25,4,15,10,10,4,8,20,20,10,4,5,15,26,20,10,22,2,30,25,25,10,10,6,15,25,25,2,6,25,18,30,26,20,15,2,30,5,6,25],"right_den":[2,18,28,18,10,18,18,16,12,20,15,28,14,15,9,5,5,4,15,16,22,16,16,25,30,14,20,30,15,28,10,25,15,4,10,28,2,12,4,5,22,24,28,30,25,26,5,25,6,5,6,26,22,30,30,25,5,20,14,26,28,2,10,6,10,10,22,5,15,10,15,25,15,4,15,10,15,20,20,26,26,30,16,2,16,15,20,16,20,18,20,10,12,10,4,18,10,10,18,18,14,30,20,20,6,28,28,30,5,16,10,16,15,25,21,5,3,22,20,26],"correct_side":[2,2,2,2,1,1,2,2,1,1,2,1,2,1,2,1,1,2,1,1,2,2,1,1,2,1,1,2,1,1,2,2,2,1,2,2,2,1,1,2,2,2,1,2,1,1,2,1,2,1,2,2,2,1,1,2,1,1,2,2,1,2,1,2,1,2,2,1,1,1,2,1,2,2,1,1,1,1,1,1,1,1,1,2,1,1,1,2,2,1,1,1,2,2,2,1,1,1,2,1,2,2,1,2,2,1,1,2,1,2,2,1,2,1,1,2,2,2,1,1],"img_shown":["img2/200/Incongruent/R/I_Dist_200_LN_3_LD_10_RN_1_RD_2_1.png","img2/200/Incongruent/R/I_Dist_200_LN_14_LD_30_RN_12_RD_18_1.png","img2/200/Congruent/R/C_Dist_200_LN_3_LD_10_RN_14_RD_28_1.png","img2/100/Incongruent/R/I_Dist_100_LN_10_LD_25_RN_9_RD_18_1.png","img2/200/Congruent/L/C_Dist_200_LN_15_LD_25_RN_4_RD_10_0.png","img2/300/Incongruent/L/I_Dist_300_LN_8_LD_10_RN_9_RD_18_0.png","img2/200/Incongruent/R/I_Dist_200_LN_14_LD_30_RN_12_RD_18_1.png","img2/100/Incongruent/R/I_Dist_100_LN_10_LD_25_RN_8_RD_16_1.png","img2/300/Incongruent/L/I_Dist_300_LN_4_LD_5_RN_6_RD_12_0.png","img2/200/Congruent/L/C_Dist_200_LN_16_LD_20_RN_12_RD_20_0.png","img2/300/Incongruent/R/I_Dist_300_LN_13_LD_26_RN_12_RD_15_1.png","img2/300/Incongruent/L/I_Dist_300_LN_8_LD_10_RN_14_RD_28_0.png","img2/300/Congruent/R/C_Dist_300_LN_5_LD_25_RN_7_RD_14_1.png","img2/200/Congruent/L/C_Dist_200_LN_6_LD_15_RN_3_RD_15_0.png","img2/200/Incongruent/R/I_Dist_200_LN_14_LD_30_RN_6_RD_9_1.png","img2/300/Congruent/L/C_Dist_300_LN_8_LD_16_RN_1_RD_5_0.png","img2/100/Congruent/L/C_Dist_100_LN_8_LD_16_RN_2_RD_5_0.png","img2/200/Incongruent/R/I_Dist_200_LN_11_LD_20_RN_3_RD_4_1.png","img2/300/Congruent/L/C_Dist_300_LN_18_LD_20_RN_9_RD_15_0.png","img2/300/Incongruent/L/I_Dist_300_LN_4_LD_5_RN_8_RD_16_0.png","img2/200/Congruent/R/C_Dist_200_LN_6_LD_20_RN_11_RD_22_1.png","img2/100/Incongruent/R/I_Dist_100_LN_10_LD_25_RN_8_RD_16_1.png","img2/100/Incongruent/L/I_Dist_100_LN_3_LD_5_RN_8_RD_16_0.png","img2/100/Incongruent/L/I_Dist_100_LN_9_LD_10_RN_20_RD_25_0.png","img2/100/Congruent/R/C_Dist_100_LN_1_LD_2_RN_18_RD_30_1.png","img2/100/Incongruent/L/I_Dist_100_LN_6_LD_10_RN_7_RD_14_0.png","img2/200/Congruent/L/C_Dist_200_LN_16_LD_20_RN_12_RD_20_0.png","img2/100/Congruent/R/C_Dist_100_LN_1_LD_2_RN_18_RD_30_1.png","img2/200/Incongruent/L/I_Dist_200_LN_1_LD_3_RN_2_RD_15_0.png","img2/200/Incongruent/L/I_Dist_200_LN_7_LD_10_RN_14_RD_28_0.png","img2/100/Incongruent/R/I_Dist_100_LN_8_LD_16_RN_6_RD_10_1.png","img2/300/Congruent/R/C_Dist_300_LN_2_LD_20_RN_10_RD_25_1.png","img2/300/Incongruent/R/I_Dist_300_LN_13_LD_26_RN_12_RD_15_1.png","img2/200/Congruent/L/C_Dist_200_LN_21_LD_30_RN_2_RD_4_0.png","img2/100/Incongruent/R/I_Dist_100_LN_13_LD_26_RN_6_RD_10_1.png","img2/200/Congruent/R/C_Dist_200_LN_3_LD_10_RN_14_RD_28_1.png","img2/100/Incongruent/R/I_Dist_100_LN_8_LD_20_RN_1_RD_2_1.png","img2/300/Incongruent/L/I_Dist_300_LN_4_LD_5_RN_6_RD_12_0.png","img2/300/Congruent/L/C_Dist_300_LN_24_LD_30_RN_2_RD_4_0.png","img2/300/Congruent/R/C_Dist_300_LN_3_LD_6_RN_4_RD_5_1.png","img2/200/Congruent/R/C_Dist_200_LN_3_LD_10_RN_11_RD_22_1.png","img2/300/Congruent/R/C_Dist_300_LN_2_LD_10_RN_12_RD_24_1.png","img2/300/Incongruent/L/I_Dist_300_LN_8_LD_10_RN_14_RD_28_0.png","img2/200/Congruent/R/C_Dist_200_LN_1_LD_2_RN_21_RD_30_1.png","img2/100/Incongruent/L/I_Dist_100_LN_9_LD_10_RN_20_RD_25_0.png","img2/100/Congruent/L/C_Dist_100_LN_15_LD_25_RN_13_RD_26_0.png","img2/300/Congruent/R/C_Dist_300_LN_3_LD_6_RN_4_RD_5_1.png","img2/100/Incongruent/L/I_Dist_100_LN_9_LD_10_RN_20_RD_25_0.png","img2/200/Incongruent/R/I_Dist_200_LN_6_LD_20_RN_3_RD_6_1.png","img2/300/Congruent/L/C_Dist_300_LN_8_LD_16_RN_1_RD_5_0.png","img2/200/Incongruent/R/I_Dist_200_LN_7_LD_15_RN_4_RD_6_1.png","img2/100/Congruent/R/C_Dist_100_LN_12_LD_30_RN_13_RD_26_1.png","img2/200/Congruent/R/C_Dist_200_LN_6_LD_20_RN_11_RD_22_1.png","img2/300/Incongruent/L/I_Dist_300_LN_2_LD_4_RN_6_RD_30_0.png","img2/100/Incongruent/L/I_Dist_100_LN_3_LD_9_RN_7_RD_30_0.png","img2/100/Congruent/R/C_Dist_100_LN_7_LD_14_RN_15_RD_25_1.png","img2/300/Congruent/L/C_Dist_300_LN_9_LD_10_RN_3_RD_5_0.png","img2/100/Incongruent/L/I_Dist_100_LN_2_LD_4_RN_8_RD_20_0.png","img2/200/Congruent/R/C_Dist_200_LN_3_LD_10_RN_7_RD_14_1.png","img2/100/Congruent/R/C_Dist_100_LN_12_LD_30_RN_13_RD_26_1.png","img2/200/Incongruent/L/I_Dist_200_LN_7_LD_10_RN_14_RD_28_0.png","img2/200/Incongruent/R/I_Dist_200_LN_3_LD_10_RN_1_RD_2_1.png","img2/100/Congruent/L/C_Dist_100_LN_11_LD_22_RN_4_RD_10_0.png","img2/200/Incongruent/R/I_Dist_200_LN_7_LD_15_RN_4_RD_6_1.png","img2/200/Congruent/L/C_Dist_200_LN_11_LD_22_RN_3_RD_10_0.png","img2/100/Incongruent/R/I_Dist_100_LN_9_LD_18_RN_6_RD_10_1.png","img2/200/Congruent/R/C_Dist_200_LN_6_LD_20_RN_11_RD_22_1.png","img2/300/Congruent/L/C_Dist_300_LN_9_LD_10_RN_3_RD_5_0.png","img2/100/Congruent/L/C_Dist_100_LN_11_LD_22_RN_6_RD_15_0.png","img2/100/Congruent/L/C_Dist_100_LN_10_LD_25_RN_3_RD_10_0.png","img2/300/Incongruent/R/I_Dist_300_LN_13_LD_26_RN_12_RD_15_1.png","img2/100/Congruent/L/C_Dist_100_LN_6_LD_20_RN_5_RD_25_0.png","img2/300/Incongruent/R/I_Dist_300_LN_13_LD_26_RN_12_RD_15_1.png","img2/100/Incongruent/R/I_Dist_100_LN_12_LD_30_RN_2_RD_4_1.png","img2/200/Congruent/L/C_Dist_200_LN_12_LD_20_RN_6_RD_15_0.png","img2/300/Incongruent/L/I_Dist_300_LN_1_LD_2_RN_2_RD_10_0.png","img2/200/Congruent/L/C_Dist_200_LN_7_LD_21_RN_2_RD_15_0.png","img2/200/Congruent/L/C_Dist_200_LN_16_LD_20_RN_12_RD_20_0.png","img2/300/Incongruent/L/I_Dist_300_LN_7_LD_10_RN_8_RD_20_0.png","img2/100/Congruent/L/C_Dist_100_LN_15_LD_25_RN_13_RD_26_0.png","img2/100/Congruent/L/C_Dist_100_LN_15_LD_25_RN_13_RD_26_0.png","img2/300/Incongruent/L/I_Dist_300_LN_2_LD_4_RN_6_RD_30_0.png","img2/100/Congruent/L/C_Dist_100_LN_9_LD_15_RN_8_RD_16_0.png","img2/200/Incongruent/R/I_Dist_200_LN_3_LD_10_RN_1_RD_2_1.png","img2/200/Incongruent/L/I_Dist_200_LN_7_LD_10_RN_8_RD_16_0.png","img2/100/Incongruent/L/I_Dist_100_LN_2_LD_4_RN_6_RD_15_0.png","img2/100/Incongruent/L/I_Dist_100_LN_4_LD_8_RN_8_RD_20_0.png","img2/100/Congruent/R/C_Dist_100_LN_3_LD_20_RN_4_RD_16_1.png","img2/300/Congruent/R/C_Dist_300_LN_1_LD_20_RN_7_RD_20_1.png","img2/300/Incongruent/L/I_Dist_300_LN_8_LD_10_RN_9_RD_18_0.png","img2/200/Incongruent/L/I_Dist_200_LN_3_LD_4_RN_11_RD_20_0.png","img2/200/Incongruent/L/I_Dist_200_LN_4_LD_5_RN_6_RD_10_0.png","img2/300/Congruent/R/C_Dist_300_LN_8_LD_15_RN_10_RD_12_1.png","img2/100/Incongruent/R/I_Dist_100_LN_13_LD_26_RN_6_RD_10_1.png","img2/300/Incongruent/R/I_Dist_300_LN_4_LD_20_RN_2_RD_4_1.png","img2/300/Incongruent/L/I_Dist_300_LN_8_LD_10_RN_9_RD_18_0.png","img2/200/Congruent/L/C_Dist_200_LN_11_LD_22_RN_3_RD_10_0.png","img2/200/Incongruent/L/I_Dist_200_LN_1_LD_2_RN_3_RD_10_0.png","img2/200/Incongruent/R/I_Dist_200_LN_14_LD_30_RN_12_RD_18_1.png","img2/300/Congruent/L/C_Dist_300_LN_20_LD_25_RN_9_RD_18_0.png","img2/300/Congruent/R/C_Dist_300_LN_5_LD_25_RN_7_RD_14_1.png","img2/100/Congruent/R/C_Dist_100_LN_4_LD_10_RN_15_RD_30_1.png","img2/300/Incongruent/L/I_Dist_300_LN_7_LD_10_RN_8_RD_20_0.png","img2/200/Congruent/R/C_Dist_200_LN_3_LD_6_RN_14_RD_20_1.png","img2/200/Incongruent/R/I_Dist_200_LN_7_LD_15_RN_4_RD_6_1.png","img2/300/Congruent/L/C_Dist_300_LN_20_LD_25_RN_14_RD_28_0.png","img2/300/Congruent/L/C_Dist_300_LN_20_LD_25_RN_14_RD_28_0.png","img2/100/Congruent/R/C_Dist_100_LN_1_LD_2_RN_18_RD_30_1.png","img2/100/Congruent/L/C_Dist_100_LN_3_LD_6_RN_2_RD_5_0.png","img2/100/Incongruent/R/I_Dist_100_LN_10_LD_25_RN_8_RD_16_1.png","img2/100/Incongruent/R/I_Dist_100_LN_9_LD_18_RN_6_RD_10_1.png","img2/300/Congruent/L/C_Dist_300_LN_24_LD_30_RN_8_RD_16_0.png","img2/300/Incongruent/R/I_Dist_300_LN_13_LD_26_RN_12_RD_15_1.png","img2/100/Congruent/L/C_Dist_100_LN_6_LD_20_RN_5_RD_25_0.png","img2/200/Congruent/L/C_Dist_200_LN_8_LD_15_RN_7_RD_21_0.png","img2/100/Congruent/R/C_Dist_100_LN_1_LD_2_RN_3_RD_5_1.png","img2/200/Incongruent/R/I_Dist_200_LN_4_LD_30_RN_1_RD_3_1.png","img2/300/Congruent/R/C_Dist_300_LN_1_LD_5_RN_11_RD_22_1.png","img2/300/Incongruent/L/I_Dist_300_LN_3_LD_6_RN_4_RD_20_0.png","img2/300/Congruent/L/C_Dist_300_LN_20_LD_25_RN_13_RD_26_0.png"],"dist100_C":[["C_Dist_100_LN_10_LD_25_RN_3_RD_10_0.png","C_Dist_100_LN_11_LD_22_RN_4_RD_10_0.png","C_Dist_100_LN_11_LD_22_RN_6_RD_15_0.png","C_Dist_100_LN_15_LD_25_RN_13_RD_26_0.png","C_Dist_100_LN_3_LD_6_RN_2_RD_5_0.png","C_Dist_100_LN_6_LD_20_RN_5_RD_25_0.png","C_Dist_100_LN_8_LD_16_RN_2_RD_5_0.png","C_Dist_100_LN_9_LD_15_RN_8_RD_16_0.png"],["C_Dist_100_LN_1_LD_2_RN_18_RD_30_1.png","C_Dist_100_LN_1_LD_2_RN_3_RD_5_1.png","C_Dist_100_LN_12_LD_30_RN_13_RD_26_1.png","C_Dist_100_LN_2_LD_5_RN_11_RD_22_1.png","C_Dist_100_LN_2_LD_5_RN_6_RD_12_1.png","C_Dist_100_LN_3_LD_20_RN_4_RD_16_1.png","C_Dist_100_LN_4_LD_10_RN_15_RD_30_1.png","C_Dist_100_LN_4_LD_8_RN_6_RD_10_1.png","C_Dist_100_LN_6_LD_12_RN_15_RD_25_1.png","C_Dist_100_LN_7_LD_14_RN_15_RD_25_1.png","C_Dist_100_LN_7_LD_14_RN_9_RD_15_1.png"]],"dist100_I":[["I_Dist_100_LN_1_LD_2_RN_8_RD_20_0.png","I_Dist_100_LN_2_LD_4_RN_6_RD_15_0.png","I_Dist_100_LN_2_LD_4_RN_8_RD_20_0.png","I_Dist_100_LN_3_LD_5_RN_11_RD_22_0.png","I_Dist_100_LN_3_LD_5_RN_8_RD_16_0.png","I_Dist_100_LN_3_LD_6_RN_4_RD_10_0.png","I_Dist_100_LN_3_LD_9_RN_7_RD_30_0.png","I_Dist_100_LN_4_LD_8_RN_8_RD_20_0.png","I_Dist_100_LN_6_LD_10_RN_11_RD_22_0.png","I_Dist_100_LN_6_LD_10_RN_13_RD_26_0.png","I_Dist_100_LN_6_LD_10_RN_7_RD_14_0.png","I_Dist_100_LN_9_LD_10_RN_20_RD_25_0.png","I_Dist_100_LN_9_LD_15_RN_13_RD_26_0.png","I_Dist_100_LN_9_LD_15_RN_14_RD_28_0.png"],["I_Dist_100_LN_10_LD_25_RN_8_RD_16_1.png","I_Dist_100_LN_10_LD_25_RN_9_RD_18_1.png","I_Dist_100_LN_11_LD_22_RN_9_RD_15_1.png","I_Dist_100_LN_12_LD_24_RN_9_RD_15_1.png","I_Dist_100_LN_12_LD_30_RN_2_RD_4_1.png","I_Dist_100_LN_13_LD_26_RN_12_RD_20_1.png","I_Dist_100_LN_13_LD_26_RN_6_RD_10_1.png","I_Dist_100_LN_17_LD_30_RN_10_RD_15_1.png","I_Dist_100_LN_6_LD_12_RN_3_RD_5_1.png","I_Dist_100_LN_8_LD_16_RN_6_RD_10_1.png","I_Dist_100_LN_8_LD_20_RN_1_RD_2_1.png","I_Dist_100_LN_9_LD_18_RN_6_RD_10_1.png"]],"dist100_S":[["E_Dist_100_LN_2_LD_12_RN_2_RD_30_0.png","E_Dist_100_LN_6_LD_10_RN_6_RD_12_0.png"],["E_Dist_100_LN_6_LD_12_RN_6_RD_10_1.png"]],"dist200_C":[["C_Dist_200_LN_11_LD_22_RN_3_RD_10_0.png","C_Dist_200_LN_12_LD_15_RN_6_RD_10_0.png","C_Dist_200_LN_12_LD_20_RN_6_RD_15_0.png","C_Dist_200_LN_14_LD_28_RN_6_RD_20_0.png","C_Dist_200_LN_15_LD_25_RN_4_RD_10_0.png","C_Dist_200_LN_16_LD_20_RN_12_RD_20_0.png","C_Dist_200_LN_16_LD_30_RN_9_RD_27_0.png","C_Dist_200_LN_20_LD_25_RN_9_RD_15_0.png","C_Dist_200_LN_21_LD_30_RN_2_RD_4_0.png","C_Dist_200_LN_4_LD_10_RN_3_RD_15_0.png","C_Dist_200_LN_4_LD_8_RN_3_RD_10_0.png","C_Dist_200_LN_6_LD_15_RN_3_RD_15_0.png","C_Dist_200_LN_7_LD_21_RN_2_RD_15_0.png","C_Dist_200_LN_8_LD_15_RN_2_RD_6_0.png","C_Dist_200_LN_8_LD_15_RN_3_RD_9_0.png","C_Dist_200_LN_8_LD_15_RN_7_RD_21_0.png","C_Dist_200_LN_9_LD_20_RN_4_RD_16_0.png"],["C_Dist_200_LN_1_LD_2_RN_21_RD_30_1.png","C_Dist_200_LN_13_LD_26_RN_14_RD_20_1.png","C_Dist_200_LN_3_LD_10_RN_11_RD_22_1.png","C_Dist_200_LN_3_LD_10_RN_14_RD_28_1.png","C_Dist_200_LN_3_LD_10_RN_7_RD_14_1.png","C_Dist_200_LN_3_LD_12_RN_9_RD_20_1.png","C_Dist_200_LN_3_LD_6_RN_14_RD_20_1.png","C_Dist_200_LN_5_LD_10_RN_14_RD_20_1.png","C_Dist_200_LN_6_LD_12_RN_7_RD_10_1.png","C_Dist_200_LN_6_LD_20_RN_11_RD_22_1.png","C_Dist_200_LN_7_LD_15_RN_18_RD_27_1.png","C_Dist_200_LN_9_LD_30_RN_13_RD_26_1.png"]],"dist200_I":[["I_Dist_200_LN_1_LD_2_RN_3_RD_10_0.png","I_Dist_200_LN_1_LD_3_RN_2_RD_15_0.png","I_Dist_200_LN_3_LD_4_RN_11_RD_20_0.png","I_Dist_200_LN_4_LD_5_RN_6_RD_10_0.png","I_Dist_200_LN_4_LD_6_RN_14_RD_30_0.png","I_Dist_200_LN_7_LD_10_RN_12_RD_24_0.png","I_Dist_200_LN_7_LD_10_RN_14_RD_28_0.png","I_Dist_200_LN_7_LD_10_RN_8_RD_16_0.png"],["I_Dist_200_LN_11_LD_20_RN_3_RD_4_1.png","I_Dist_200_LN_14_LD_30_RN_12_RD_18_1.png","I_Dist_200_LN_14_LD_30_RN_6_RD_9_1.png","I_Dist_200_LN_3_LD_10_RN_1_RD_2_1.png","I_Dist_200_LN_4_LD_30_RN_1_RD_3_1.png","I_Dist_200_LN_6_LD_20_RN_3_RD_6_1.png","I_Dist_200_LN_7_LD_15_RN_4_RD_6_1.png","I_Dist_200_LN_7_LD_15_RN_6_RD_9_1.png","I_Dist_200_LN_9_LD_15_RN_8_RD_10_1.png"]],"dist200_S":[["E_Dist_200_LN_3_LD_6_RN_3_RD_10_0.png"],["E_Dist_200_LN_3_LD_10_RN_3_RD_6_1.png"]],"dist300_C":[["C_Dist_300_LN_11_LD_22_RN_1_RD_5_0.png","C_Dist_300_LN_11_LD_22_RN_2_RD_10_0.png","C_Dist_300_LN_11_LD_22_RN_4_RD_20_0.png","C_Dist_300_LN_12_LD_24_RN_2_RD_10_0.png","C_Dist_300_LN_18_LD_20_RN_9_RD_15_0.png","C_Dist_300_LN_20_LD_25_RN_13_RD_26_0.png","C_Dist_300_LN_20_LD_25_RN_14_RD_28_0.png","C_Dist_300_LN_20_LD_25_RN_5_RD_10_0.png","C_Dist_300_LN_20_LD_25_RN_8_RD_16_0.png","C_Dist_300_LN_20_LD_25_RN_9_RD_18_0.png","C_Dist_300_LN_24_LD_30_RN_2_RD_4_0.png","C_Dist_300_LN_24_LD_30_RN_8_RD_16_0.png","C_Dist_300_LN_3_LD_6_RN_2_RD_10_0.png","C_Dist_300_LN_4_LD_10_RN_1_RD_10_0.png","C_Dist_300_LN_4_LD_5_RN_2_RD_4_0.png","C_Dist_300_LN_8_LD_16_RN_1_RD_5_0.png","C_Dist_300_LN_9_LD_10_RN_3_RD_5_0.png"],["C_Dist_300_LN_1_LD_20_RN_7_RD_20_1.png","C_Dist_300_LN_1_LD_3_RN_19_RD_30_1.png","C_Dist_300_LN_1_LD_30_RN_8_RD_24_1.png","C_Dist_300_LN_1_LD_5_RN_11_RD_22_1.png","C_Dist_300_LN_1_LD_5_RN_3_RD_6_1.png","C_Dist_300_LN_1_LD_5_RN_6_RD_12_1.png","C_Dist_300_LN_2_LD_10_RN_12_RD_24_1.png","C_Dist_300_LN_2_LD_20_RN_10_RD_25_1.png","C_Dist_300_LN_3_LD_12_RN_11_RD_20_1.png","C_Dist_300_LN_3_LD_6_RN_4_RD_5_1.png","C_Dist_300_LN_4_LD_20_RN_13_RD_26_1.png","C_Dist_300_LN_5_LD_25_RN_6_RD_12_1.png","C_Dist_300_LN_5_LD_25_RN_7_RD_14_1.png","C_Dist_300_LN_7_LD_14_RN_20_RD_25_1.png","C_Dist_300_LN_8_LD_15_RN_10_RD_12_1.png"]],"dist300_I":[["I_Dist_300_LN_1_LD_2_RN_2_RD_10_0.png","I_Dist_300_LN_1_LD_2_RN_3_RD_15_0.png","I_Dist_300_LN_2_LD_4_RN_6_RD_30_0.png","I_Dist_300_LN_3_LD_6_RN_4_RD_20_0.png","I_Dist_300_LN_4_LD_5_RN_6_RD_12_0.png","I_Dist_300_LN_4_LD_5_RN_8_RD_16_0.png","I_Dist_300_LN_7_LD_10_RN_8_RD_20_0.png","I_Dist_300_LN_8_LD_10_RN_14_RD_28_0.png","I_Dist_300_LN_8_LD_10_RN_9_RD_18_0.png"],["I_Dist_300_LN_13_LD_26_RN_12_RD_15_1.png","I_Dist_300_LN_4_LD_20_RN_2_RD_4_1.png"]],"dist300_S":[["E_Dist_300_LN_9_LD_12_RN_9_RD_20_0.png"],["E_Dist_300_LN_18_LD_30_RN_18_RD_20_1.png","E_Dist_300_LN_3_LD_10_RN_3_RD_5_1.png","E_Dist_300_LN_9_LD_20_RN_9_RD_12_1.png"]],"dist500_C":[["C_Dist_500_LN_10_LD_13_RN_7_RD_26_0.png","C_Dist_500_LN_10_LD_15_RN_4_RD_24_0.png","C_Dist_500_LN_12_LD_16_RN_3_RD_12_0.png","C_Dist_500_LN_12_LD_18_RN_4_RD_24_0.png","C_Dist_500_LN_15_LD_18_RN_5_RD_15_0.png","C_Dist_500_LN_15_LD_20_RN_1_RD_4_0.png","C_Dist_500_LN_18_LD_27_RN_1_RD_6_0.png","C_Dist_500_LN_20_LD_24_RN_1_RD_3_0.png","C_Dist_500_LN_20_LD_24_RN_3_RD_9_0.png","C_Dist_500_LN_20_LD_24_RN_7_RD_21_0.png","C_Dist_500_LN_20_LD_28_RN_3_RD_14_0.png","C_Dist_500_LN_21_LD_28_RN_6_RD_24_0.png","C_Dist_500_LN_22_LD_28_RN_2_RD_7_0.png","C_Dist_500_LN_25_LD_30_RN_9_RD_27_0.png","C_Dist_500_LN_4_LD_6_RN_1_RD_6_0.png","C_Dist_500_LN_5_LD_6_RN_2_RD_6_0.png","C_Dist_500_LN_6_LD_9_RN_1_RD_6_0.png","C_Dist_500_LN_7_LD_10_RN_1_RD_5_0.png","C_Dist_500_LN_8_LD_12_RN_1_RD_6_0.png","C_Dist_500_LN_8_LD_12_RN_4_RD_24_0.png"],["C_Dist_500_LN_1_LD_4_RN_12_RD_16_1.png","C_Dist_500_LN_1_LD_4_RN_9_RD_12_1.png","C_Dist_500_LN_1_LD_9_RN_11_RD_18_1.png","C_Dist_500_LN_10_LD_24_RN_22_RD_24_1.png","C_Dist_500_LN_2_LD_12_RN_10_RD_15_1.png","C_Dist_500_LN_2_LD_12_RN_12_RD_18_1.png","C_Dist_500_LN_2_LD_12_RN_4_RD_6_1.png","C_Dist_500_LN_2_LD_24_RN_7_RD_12_1.png","C_Dist_500_LN_2_LD_5_RN_18_RD_20_1.png","C_Dist_500_LN_2_LD_5_RN_9_RD_10_1.png","C_Dist_500_LN_2_LD_8_RN_12_RD_16_1.png","C_Dist_500_LN_2_LD_8_RN_21_RD_28_1.png","C_Dist_500_LN_3_LD_10_RN_4_RD_5_1.png","C_Dist_500_LN_3_LD_12_RN_15_RD_20_1.png","C_Dist_500_LN_3_LD_30_RN_6_RD_10_1.png","C_Dist_500_LN_3_LD_8_RN_14_RD_16_1.png","C_Dist_500_LN_4_LD_16_RN_15_RD_20_1.png","C_Dist_500_LN_4_LD_24_RN_12_RD_18_1.png","C_Dist_500_LN_5_LD_14_RN_6_RD_7_1.png","C_Dist_500_LN_7_LD_21_RN_20_RD_24_1.png","C_Dist_500_LN_7_LD_28_RN_12_RD_16_1.png","C_Dist_500_LN_7_LD_28_RN_9_RD_12_1.png","C_Dist_500_LN_9_LD_27_RN_20_RD_24_1.png"]],"dist500_I":[["I_Dist_500_LN_2_LD_3_RN_4_RD_24_0.png","I_Dist_500_LN_5_LD_6_RN_6_RD_18_0.png","I_Dist_500_LN_7_LD_8_RN_9_RD_24_0.png"],["I_Dist_500_LN_7_LD_21_RN_5_RD_6_1.png"]],"dist500_S":[["E_Dist_500_LN_6_LD_8_RN_6_RD_24_0.png"],["E_Dist_500_LN_2_LD_12_RN_2_RD_3_1.png","E_Dist_500_LN_6_LD_24_RN_6_RD_8_1.png"]]}},{"start_time":1552054123146,"click_time":1552054125177,"finger_time":1552054124597,"fix_duration":1026.0630076457494,"trial":1,"RT":1451,"MT":580,"sideResp":1,"stimulus":[],"xmouse":[822,822,822,822,822,822,822,822,822,822,822,822,822,822,822,822,822,822,822,822,822,822,822,822,822,822,822,822,822,822,822,822,822,822,822,822,822,822,822,822,822,822,822,822,822,822,822,822,822,822,822,822,822,822,822,822,822,822,822,822,822,822,822,822,822,822,822,827,831,833,833,823,806,786,759,737,704,693,682,673,669,667,660,647,628,604,563,549,543,540,540,540,540,540,540,540,540,540,539,529,514],"ymouse":[650,650,650,650,650,650,650,650,650,650,650,650,650,650,650,650,650,650,650,650,650,650,650,650,650,650,650,650,650,650,650,650,650,650,650,650,650,650,650,650,650,650,650,650,650,650,650,650,650,650,650,650,650,650,650,650,650,650,650,650,650,650,650,650,650,650,648,645,643,634,612,527,454,373,286,223,153,135,121,113,111,109,105,100,94,89,84,83,82,82,82,82,82,82,82,82,82,82,80,74,69],"timestamp_mouse":[14,51,71,91,110,131,151,171,191,212,230,250,271,291,312,331,350,370,391,411,432,451,472,491,511,530,551,571,590,611,630,651,671,691,711,731,750,771,790,811,831,852,871,891,911,930,950,970,991,1012,1031,1050,1070,1091,1111,1131,1151,1171,1190,1210,1230,1250,1271,1291,1310,1330,1350,1370,1391,1410,1431,1451,1470,1491,1510,1530,1550,1570,1590,1610,1632,1650,1671,1690,1711,1731,1750,1771,1790,1810,1830,1850,1871,1891,1911,1930,1950,1971,1991,2011,2030],"xSR":741.5,"ySR":573.95,"xT1":424.9,"yT1":0,"xT2":1058.1,"yT2":0,"toosoon":0,"cond_shown":"Incongruent","ratio_trial":200,"L_num":14,"L_den":30,"R_num":12,"R_den":18,"correct_side":2,"subjID":"LidaDiaz21","gender":"1","school":"4","age":"9 años"},{"start_time":1552054126801,"click_time":1552054128696,"finger_time":1552054128117,"fix_duration":683.7590321782936,"trial":2,"RT":1316,"MT":579,"sideResp":2,"stimulus":[],"xmouse":[759,759,759,759,759,759,759,759,759,759,759,759,759,759,759,759,759,759,759,759,759,759,759,759,759,759,759,759,759,759,759,759,759,759,759,759,759,759,759,759,759,759,759,759,759,759,759,759,759,759,759,759,759,759,757,757,757,757,757,757,757,757,760,763,783,812,831,846,858,878,891,910,933,948,965,977,1007,1030,1047,1064,1071,1078,1080,1080,1083,1085,1088,1088,1088,1089,1090,1093,1096,1100,1106],"ymouse":[614,614,614,614,614,614,614,614,614,614,614,614,614,614,614,614,614,614,614,614,614,614,614,614,614,614,614,614,614,614,614,614,614,614,614,614,614,614,614,614,614,614,614,614,614,614,614,614,614,614,614,614,614,615,617,617,617,617,617,617,617,617,617,615,596,561,542,523,510,480,456,425,394,373,350,337,310,285,265,227,208,190,176,165,153,146,142,137,132,124,120,114,108,101,83],"timestamp_mouse":[15,37,56,75,95,116,135,157,177,195,215,236,255,275,296,315,336,356,375,396,415,437,456,476,495,516,537,556,575,595,616,636,656,676,695,717,736,755,775,795,817,835,856,875,895,916,935,955,976,995,1015,1037,1055,1076,1096,1117,1135,1156,1175,1195,1216,1237,1256,1277,1295,1316,1335,1357,1375,1395,1415,1436,1455,1475,1495,1516,1535,1555,1575,1595,1615,1635,1655,1675,1695,1716,1735,1755,1775,1795,1815,1835,1856,1876,1895],"xSR":741.5,"ySR":573.95,"xT1":424.9,"yT1":0,"xT2":1058.1,"yT2":0,"toosoon":0,"cond_shown":"Congruent","ratio_trial":200,"L_num":3,"L_den":10,"R_num":14,"R_den":28,"correct_side":2,"subjID":"LidaDiaz21","gender":"1","school":"4","age":"9 años"},{"start_time":1552054132186,"click_time":1552054133437,"finger_time":1552054133016,"fix_duration":948.95564236194,"trial":3,"RT":830,"MT":421,"sideResp":2,"stimulus":[],"xmouse":[797,797,797,797,797,797,797,797,797,797,797,797,797,797,797,797,797,797,797,797,797,797,797,797,797,797,797,797,797,797,797,797,797,797,797,797,797,797,797,797,808,847,855,855,855,855,878,893,905,914,921,932,948,966,984,1006,1027,1038,1053,1069,1089,1117,1124],"ymouse":[631,631,631,631,631,631,631,631,631,631,631,631,631,631,631,631,631,631,631,631,631,631,631,631,631,631,631,631,631,631,631,631,631,631,631,631,631,631,630,629,616,547,507,447,365,329,271,250,235,230,226,221,214,205,198,186,173,164,152,142,127,103,94],"timestamp_mouse":[25,31,60,71,91,111,130,150,170,190,211,231,251,270,292,312,331,350,372,390,410,431,452,471,490,511,530,550,571,592,611,630,650,671,692,710,731,750,771,790,810,830,851,871,891,910,931,950,972,990,1011,1030,1051,1070,1090,1110,1130,1150,1170,1190,1210,1230,1251],"xSR":741.5,"ySR":573.95,"xT1":424.9,"yT1":0,"xT2":1058.1,"yT2":0,"toosoon":0,"cond_shown":"Incongruent","ratio_trial":100,"L_num":10,"L_den":25,"R_num":9,"R_den":18,"correct_side":2,"subjID":"LidaDiaz21","gender":"1","school":"4","age":"9 años"},{"start_time":1552054137945,"click_time":1552054140177,"finger_time":1552054139456,"fix_duration":1106.546636688808,"trial":4,"RT":1511,"MT":721,"sideResp":1,"stimulus":[],"xmouse":[796,796,796,796,796,796,796,796,796,796,796,796,796,796,796,796,796,796,796,796,796,796,796,796,796,796,796,796,796,796,796,796,796,796,796,796,796,796,796,796,796,796,796,796,796,796,796,796,796,796,796,796,796,796,796,796,796,796,796,796,796,796,796,796,796,796,796,796,796,796,796,796,796,796,811,836,861,882,909,920,927,933,936,940,951,953,953,953,953,953,951,939,919,845,764,699,645,613,582,575,570,568,567,567,567,567,567,567,564,553,539,521],"ymouse":[625,625,625,625,625,625,625,625,625,625,625,625,625,625,625,625,625,625,625,625,625,625,625,625,625,625,625,625,625,625,625,625,625,625,625,625,625,625,625,625,625,625,625,625,625,625,625,625,625,625,625,625,625,625,625,625,625,625,625,625,625,625,625,625,625,625,625,625,625,625,625,625,625,614,587,558,536,517,493,484,478,471,463,454,424,415,413,413,412,409,405,396,382,332,278,237,201,175,137,128,124,123,122,122,122,122,122,122,120,112,104,94],"timestamp_mouse":[13,35,52,72,92,111,132,152,172,193,212,231,251,272,291,312,331,351,371,393,413,432,451,473,491,511,532,552,573,591,612,633,651,671,691,711,732,753,771,791,811,831,852,873,891,912,933,952,971,991,1012,1031,1051,1072,1092,1112,1132,1153,1173,1192,1212,1232,1252,1272,1291,1311,1333,1352,1371,1391,1411,1433,1453,1471,1493,1511,1531,1551,1571,1591,1611,1631,1651,1671,1692,1711,1732,1752,1771,1791,1811,1831,1851,1871,1891,1912,1932,1952,1971,1991,2011,2032,2051,2073,2092,2112,2131,2151,2172,2191,2212,2231],"xSR":741.5,"ySR":573.95,"xT1":424.9,"yT1":0,"xT2":1058.1,"yT2":0,"toosoon":0,"cond_shown":"Congruent","ratio_trial":200,"L_num":15,"L_den":25,"R_num":4,"R_den":10,"correct_side":1,"subjID":"LidaDiaz21","gender":"1","school":"4","age":"9 años"},{"start_time":1552054141612,"click_time":1552054143416,"finger_time":1552054142976,"fix_duration":374.10631237541816,"trial":5,"RT":1364,"MT":440,"sideResp":1,"stimulus":[],"xmouse":[759,759,759,759,759,759,759,759,759,759,759,759,759,759,759,759,759,759,759,759,759,759,759,759,759,759,759,759,759,759,759,759,759,759,759,759,759,759,759,759,759,759,759,759,759,759,759,759,759,759,759,759,759,759,759,759,759,759,759,759,759,759,759,759,759,759,758,750,741,727,705,652,622,589,555,521,492,487,491,495,497,499,502,503,504,505,505,505,505,502,498],"ymouse":[642,642,642,642,642,642,642,642,642,642,642,642,642,642,642,642,642,642,642,642,642,642,642,642,642,642,642,642,642,642,642,642,642,642,642,642,642,642,642,642,642,642,642,642,642,642,642,642,642,642,642,642,642,642,642,642,642,642,642,642,642,642,642,642,642,636,615,588,565,529,489,399,353,311,270,236,204,167,160,155,153,146,133,127,124,119,119,110,110,102,93],"timestamp_mouse":[14,38,45,66,84,104,124,144,164,184,204,224,244,264,285,304,324,344,364,384,405,425,444,464,484,504,524,544,565,584,604,625,646,665,685,704,724,744,765,785,806,825,844,864,884,905,926,944,964,984,1004,1025,1045,1064,1084,1104,1125,1145,1165,1184,1206,1225,1244,1266,1284,1306,1324,1345,1364,1384,1404,1424,1444,1464,1485,1505,1524,1546,1565,1585,1604,1624,1644,1665,1684,1704,1724,1746,1765,1784,1804],"xSR":741.5,"ySR":573.95,"xT1":424.9,"yT1":0,"xT2":1058.1,"yT2":0,"toosoon":0,"cond_shown":"Incongruent","ratio_trial":300,"L_num":8,"L_den":10,"R_num":9,"R_den":18,"correct_side":1,"subjID":"LidaDiaz21","gender":"1","school":"4","age":"9 años"},{"start_time":1552054145761,"click_time":1552054147176,"finger_time":1552054146756,"fix_duration":1383.5875572131154,"trial":6,"RT":995,"MT":420,"sideResp":2,"stimulus":[],"xmouse":[783,783,783,783,783,783,783,783,783,783,783,783,783,783,783,783,783,783,783,783,783,783,783,783,783,783,783,783,783,783,783,783,783,783,783,783,783,783,783,783,783,783,783,783,783,783,787,807,829,870,878,883,887,910,931,953,968,984,993,1005,1010,1016,1022,1032,1055,1066,1074,1084,1092,1094,1098],"ymouse":[617,617,617,617,617,617,617,617,617,617,617,617,617,617,617,617,617,617,617,617,617,617,617,617,617,617,617,617,617,617,617,617,617,617,617,617,617,617,617,617,617,617,617,617,617,617,616,595,576,541,527,516,503,459,428,400,378,349,328,293,276,262,249,235,203,188,172,149,120,110,96],"timestamp_mouse":[15,35,57,76,96,116,136,156,176,195,215,236,255,275,296,315,335,355,375,395,415,436,457,475,496,516,536,556,576,595,615,635,656,675,697,715,735,755,777,795,816,836,855,875,895,916,935,955,975,995,1015,1035,1056,1076,1095,1117,1136,1156,1175,1195,1215,1235,1256,1275,1296,1315,1335,1355,1376,1396,1415],"xSR":741.5,"ySR":573.95,"xT1":424.9,"yT1":0,"xT2":1058.1,"yT2":0,"toosoon":0,"cond_shown":"Incongruent","ratio_trial":200,"L_num":14,"L_den":30,"R_num":12,"R_den":18,"correct_side":2,"subjID":"LidaDiaz21","gender":"1","school":"4","age":"9 años"},{"start_time":1552054148759,"click_time":1552054150217,"finger_time":1552054149657,"fix_duration":541.33979575884,"trial":7,"RT":898,"MT":560,"sideResp":2,"stimulus":[],"xmouse":[794,794,794,794,794,794,794,794,794,794,794,794,794,794,794,794,794,794,794,794,794,794,794,794,794,794,794,794,794,794,794,794,794,794,794,794,794,794,794,794,794,794,796,799,810,815,828,834,837,841,842,845,848,853,872,902,926,944,959,979,989,1000,1014,1027,1050,1062,1076,1084,1087,1091,1093,1094,1095],"ymouse":[631,631,631,631,631,631,631,631,631,631,631,631,631,631,631,631,631,631,631,631,631,631,631,631,631,631,631,631,631,631,631,631,631,631,631,631,631,631,631,630,626,621,614,603,567,553,531,524,520,512,501,484,468,446,400,357,328,301,283,255,242,230,216,206,185,173,156,146,137,120,114,107,96],"timestamp_mouse":[17,46,58,77,99,118,137,157,178,198,217,239,258,277,297,319,338,358,379,397,418,438,458,478,498,518,538,557,578,599,618,638,658,677,698,717,737,757,778,798,818,837,857,877,898,917,937,958,978,997,1018,1038,1057,1078,1097,1117,1137,1158,1177,1197,1217,1238,1258,1277,1297,1318,1338,1357,1377,1397,1418,1438,1458],"xSR":741.5,"ySR":573.95,"xT1":424.9,"yT1":0,"xT2":1058.1,"yT2":0,"toosoon":0,"cond_shown":"Incongruent","ratio_trial":100,"L_num":10,"L_den":25,"R_num":8,"R_den":16,"correct_side":2,"subjID":"LidaDiaz21","gender":"1","school":"4","age":"9 años"},{"start_time":1552054151917,"click_time":1552054153597,"finger_time":1552054153376,"fix_duration":959.9872964296005,"trial":8,"RT":1459,"MT":221,"sideResp":1,"stimulus":[],"xmouse":[782,782,782,782,782,782,782,782,782,782,782,782,782,782,782,782,782,782,782,782,782,782,782,782,782,782,782,782,782,782,782,782,782,782,782,782,782,782,782,782,782,782,782,782,782,782,782,782,782,782,782,782,782,782,782,782,782,782,782,782,782,782,782,782,782,782,782,782,782,782,782,782,777,760,736,711,689,665,651,644,640,637,588,548,508],"ymouse":[614,614,614,614,614,614,614,614,614,614,614,614,614,614,614,614,614,614,614,614,614,614,614,614,614,614,614,614,614,614,614,614,614,614,614,614,614,614,614,614,614,614,614,614,614,614,614,614,614,614,614,614,614,614,614,614,614,614,614,614,614,614,614,614,614,614,614,614,614,614,614,611,576,523,474,427,387,326,290,269,255,235,164,116,72],"timestamp_mouse":[1,20,39,61,80,99,119,139,160,181,200,219,240,259,280,300,320,339,359,381,401,419,440,459,479,501,520,540,559,580,600,619,640,660,679,700,720,739,760,780,800,820,839,860,880,899,920,941,961,980,1000,1020,1039,1059,1081,1100,1119,1140,1160,1179,1200,1220,1239,1261,1281,1301,1321,1341,1359,1380,1399,1419,1439,1459,1479,1499,1519,1539,1559,1579,1599,1619,1639,1659,1680],"xSR":741.5,"ySR":573.95,"xT1":424.9,"yT1":0,"xT2":1058.1,"yT2":0,"toosoon":0,"cond_shown":"Incongruent","ratio_trial":300,"L_num":4,"L_den":5,"R_num":6,"R_den":12,"correct_side":1,"subjID":"LidaDiaz21","gender":"1","school":"4","age":"9 años"},{"start_time":1552054156064,"click_time":1552054158118,"finger_time":1552054157437,"fix_duration":1287.4710811711818,"trial":9,"RT":1373,"MT":681,"sideResp":1,"stimulus":[],"xmouse":[777,777,777,777,777,777,777,777,777,777,777,777,777,777,777,777,777,777,777,777,777,777,777,777,777,777,777,777,777,777,777,777,777,777,777,777,777,777,777,777,777,777,777,778,780,782,783,786,790,791,791,791,791,791,791,791,791,791,791,791,791,791,791,791,792,793,793,793,793,793,782,771,757,744,729,689,682,664,652,644,623,613,602,584,540,412,391,384,376,369,362,362,362,362,362,362,362,365,371,381,404,417,428],"ymouse":[638,638,638,638,638,638,638,638,638,638,638,638,638,638,638,638,638,638,638,638,638,638,638,638,638,638,638,638,638,638,638,638,638,638,638,638,638,638,638,638,638,638,638,638,638,637,636,634,632,631,631,631,631,631,631,631,631,631,631,631,631,631,631,631,630,618,612,589,572,553,511,488,465,443,421,367,358,328,309,289,249,228,209,189,158,85,66,49,34,19,5,4,4,4,4,4,4,5,10,20,38,47,54],"timestamp_mouse":[14,43,52,73,92,112,133,152,174,193,212,233,253,273,292,312,332,353,372,393,412,432,453,473,492,512,532,552,573,594,613,633,654,673,693,712,732,752,773,793,814,832,852,872,892,912,933,952,973,993,1012,1033,1052,1073,1093,1112,1134,1154,1173,1192,1212,1233,1253,1273,1293,1312,1333,1352,1373,1393,1412,1432,1452,1472,1492,1512,1533,1552,1572,1593,1613,1633,1652,1672,1692,1712,1733,1752,1772,1792,1812,1833,1853,1872,1893,1913,1933,1952,1973,1992,2012,2032,2053],"xSR":741.5,"ySR":573.95,"xT1":424.9,"yT1":0,"xT2":1058.1,"yT2":0,"toosoon":0,"cond_shown":"Congruent","ratio_trial":200,"L_num":16,"L_den":20,"R_num":12,"R_den":20,"correct_side":1,"subjID":"LidaDiaz21","gender":"1","school":"4","age":"9 años"},{"start_time":1552054160105,"click_time":1552054161918,"finger_time":1552054161037,"fix_duration":905.3234850964848,"trial":10,"RT":932,"MT":881,"sideResp":2,"stimulus":[],"xmouse":[807,807,807,807,807,807,807,807,807,807,807,807,807,807,807,807,807,807,807,807,807,807,807,807,807,807,807,807,807,807,807,807,807,807,807,807,807,807,807,807,807,809,810,822,828,836,847,860,896,913,924,932,941,955,963,967,970,973,980,1002,1014,1023,1028,1034,1039,1043,1044,1045,1048,1049,1050,1050,1051,1053,1054,1054,1054,1054,1046,1040,1033,1032,1031,1031,1031,1031,1031,1031,1040,1055,1068],"ymouse":[626,626,626,626,626,626,626,626,626,626,626,626,626,626,626,626,626,626,626,626,626,626,626,626,626,626,626,626,626,627,627,627,627,627,627,627,627,627,627,627,627,626,625,617,608,595,580,563,512,491,471,453,436,402,385,376,365,353,335,283,259,244,237,229,223,219,218,217,213,209,207,203,201,191,184,170,157,143,103,81,56,48,42,32,30,30,30,30,37,50,59],"timestamp_mouse":[14,36,52,72,92,112,133,152,172,192,212,233,251,272,291,313,332,352,372,392,413,433,453,473,492,513,532,551,573,593,613,633,652,672,693,712,731,753,773,793,812,831,852,871,892,912,932,952,972,992,1012,1032,1053,1071,1091,1112,1132,1151,1172,1192,1213,1233,1252,1271,1293,1311,1331,1351,1371,1391,1411,1433,1453,1471,1492,1512,1532,1552,1571,1591,1623,1631,1652,1671,1691,1712,1732,1752,1773,1791,1812],"xSR":741.5,"ySR":573.95,"xT1":424.9,"yT1":0,"xT2":1058.1,"yT2":0,"toosoon":0,"cond_shown":"Incongruent","ratio_trial":300,"L_num":13,"L_den":26,"R_num":12,"R_den":15,"correct_side":2,"subjID":"LidaDiaz21","gender":"1","school":"4","age":"9 años"},{"start_time":1552054164065,"click_time":1552054165579,"finger_time":1552054164857,"fix_duration":526.0487969474674,"trial":11,"RT":792,"MT":722,"sideResp":1,"stimulus":[],"xmouse":[798,798,798,798,798,798,798,798,798,798,798,798,798,798,798,798,798,798,798,798,798,798,798,798,798,798,798,798,798,798,798,798,798,798,798,798,798,807,817,822,819,814,814,814,814,813,803,791,767,733,689,560,482,370,299,237,168,162,162,162,170,180,190,203,216,236,284,320,359,378,384,384,386,400,417,435],"ymouse":[616,616,616,616,616,616,616,616,616,616,616,616,616,616,616,616,616,616,616,616,616,616,616,616,616,616,616,616,616,616,616,616,616,616,616,616,614,597,579,558,497,467,443,400,375,351,289,233,171,106,41,0,0,0,0,0,0,0,0,4,29,56,74,90,102,109,121,126,129,129,126,118,105,87,71,47],"timestamp_mouse":[14,46,52,71,91,112,132,153,172,193,212,232,252,272,293,312,331,353,373,392,411,432,453,473,493,511,531,551,571,593,613,633,652,672,691,712,733,752,773,792,813,831,852,871,893,912,933,952,972,991,1014,1032,1051,1072,1091,1113,1133,1153,1173,1192,1213,1232,1251,1272,1293,1312,1332,1352,1372,1391,1413,1432,1453,1472,1492,1513],"xSR":741.5,"ySR":573.95,"xT1":424.9,"yT1":0,"xT2":1058.1,"yT2":0,"toosoon":0,"cond_shown":"Incongruent","ratio_trial":300,"L_num":8,"L_den":10,"R_num":14,"R_den":28,"correct_side":1,"subjID":"LidaDiaz21","gender":"1","school":"4","age":"9 años"},{"start_time":1552054169722,"click_time":1552054172097,"finger_time":1552054170377,"fix_duration":963.9929967086792,"trial":12,"RT":655,"MT":1720,"sideResp":2,"stimulus":[],"xmouse":[775,775,775,775,775,775,775,775,775,775,775,775,775,775,775,775,775,775,775,775,775,775,775,775,775,775,775,775,778,782,788,795,799,801,805,810,814,818,819,819,819,819,819,819,819,819,819,819,823,826,831,834,837,839,839,838,837,836,831,822,811,804,793,771,767,763,758,750,729,720,708,693,675,657,609,592,586,585,585,585,585,585,585,593,620,716,860,1020,1363,1447,1477,1489,1490,1467,1449,1442,1432,1430,1414,1382,1365,1345,1322,1273,1251,1236,1224,1218,1212,1209,1207,1202,1194,1188,1179,1171,1167,1160,1155],"ymouse":[607,607,607,607,607,607,607,607,607,607,607,607,607,607,607,607,607,607,607,607,607,607,607,607,607,607,607,607,607,604,594,584,573,556,542,531,521,508,504,504,504,504,504,504,504,504,504,502,494,485,475,464,450,431,424,420,417,415,413,411,409,408,402,385,376,369,359,349,319,306,292,275,254,234,173,149,125,117,116,116,116,116,115,114,114,123,144,170,250,263,263,255,244,216,203,194,178,174,157,133,118,104,87,54,41,30,22,20,19,19,19,23,29,35,48,58,62,67,69],"timestamp_mouse":[27,40,54,76,95,115,134,156,175,195,215,236,256,274,296,316,334,355,375,395,415,435,456,475,495,515,535,555,575,595,615,635,655,675,695,715,734,754,775,795,816,835,855,874,895,915,936,954,975,995,1014,1034,1054,1075,1095,1115,1135,1156,1175,1194,1215,1234,1254,1274,1295,1314,1334,1355,1374,1395,1415,1435,1455,1475,1494,1515,1534,1555,1575,1595,1615,1636,1656,1675,1695,1716,1735,1755,1775,1795,1814,1836,1855,1875,1894,1915,1934,1955,1974,1994,2014,2035,2054,2076,2095,2115,2135,2156,2174,2195,2215,2234,2254,2275,2294,2315,2334,2354,2374],"xSR":741.5,"ySR":573.95,"xT1":424.9,"yT1":0,"xT2":1058.1,"yT2":0,"toosoon":0,"cond_shown":"Congruent","ratio_trial":300,"L_num":5,"L_den":25,"R_num":7,"R_den":14,"correct_side":2,"subjID":"LidaDiaz21","gender":"1","school":"4","age":"9 años"},{"start_time":1552054174017,"click_time":1552054175958,"finger_time":1552054175377,"fix_duration":899.6900305106371,"trial":13,"RT":1360,"MT":581,"sideResp":1,"stimulus":[],"xmouse":[802,802,802,802,802,802,802,802,802,802,802,802,802,802,802,802,802,802,802,802,802,802,802,802,802,802,802,802,802,802,802,802,802,802,802,802,802,802,802,802,802,802,802,802,802,802,802,802,802,802,802,802,802,802,802,802,802,802,802,802,802,802,802,802,802,802,802,799,779,765,750,744,726,715,704,685,681,678,676,673,657,644,626,621,617,609,602,590,576,558,532,528,528,528,528,528,527,524],"ymouse":[628,628,628,628,628,628,628,628,628,628,628,628,628,628,628,628,628,628,628,628,628,628,628,628,628,628,628,628,628,628,628,628,628,628,628,628,628,628,628,628,628,628,628,628,628,628,628,628,628,628,628,628,628,629,629,629,629,629,629,629,629,629,629,629,629,629,624,594,518,481,423,408,377,359,344,323,319,313,309,303,278,256,223,205,190,154,133,112,92,73,46,41,41,41,41,40,40,41],"timestamp_mouse":[1,20,40,61,80,99,121,140,160,181,200,220,240,261,281,301,320,340,360,380,400,421,441,460,481,500,519,540,561,581,599,620,641,660,681,700,720,740,761,781,800,821,841,861,880,901,921,941,959,980,1000,1021,1040,1059,1080,1100,1121,1140,1160,1181,1201,1220,1240,1260,1280,1301,1320,1339,1360,1380,1399,1420,1439,1460,1480,1501,1520,1540,1561,1580,1599,1620,1639,1660,1680,1701,1720,1740,1760,1781,1800,1819,1841,1861,1881,1899,1919,1941],"xSR":741.5,"ySR":573.95,"xT1":424.9,"yT1":0,"xT2":1058.1,"yT2":0,"toosoon":0,"cond_shown":"Congruent","ratio_trial":200,"L_num":6,"L_den":15,"R_num":3,"R_den":15,"correct_side":1,"subjID":"LidaDiaz21","gender":"1","school":"4","age":"9 años"},{"start_time":1552054177168,"click_time":1552054179118,"finger_time":1552054178616,"fix_duration":250,"trial":14,"RT":1448,"MT":502,"sideResp":2,"stimulus":[],"xmouse":[779,778,778,778,778,778,778,778,778,778,778,778,778,778,778,778,778,778,778,778,778,778,778,778,778,778,778,778,778,778,778,778,778,778,778,778,778,778,778,778,778,778,778,778,778,778,778,778,778,778,778,778,778,778,778,778,778,778,778,778,778,778,778,778,778,778,778,781,792,800,807,816,847,868,888,916,944,977,987,998,1008,1017,1026,1059,1068,1069,1069,1066,1066,1066,1067,1071,1072,1074,1077,1083,1091,1104],"ymouse":[621,622,622,622,622,622,622,622,622,622,622,622,622,622,622,622,622,622,622,622,622,622,622,622,622,622,622,622,622,622,622,622,622,622,622,622,622,622,622,622,622,622,622,622,622,622,622,622,622,622,622,622,622,622,622,622,622,622,622,622,622,622,622,622,622,622,622,622,615,611,604,595,562,543,524,494,462,423,406,386,370,354,335,245,200,173,160,144,137,130,124,118,116,114,111,107,102,92],"timestamp_mouse":[20,35,49,68,89,110,128,148,170,189,210,229,249,268,290,310,329,350,369,388,410,430,450,469,488,510,530,548,568,590,610,630,650,668,689,709,730,750,770,790,810,829,850,870,890,909,928,950,970,989,1010,1029,1048,1070,1090,1110,1129,1148,1169,1190,1208,1228,1249,1270,1289,1309,1329,1349,1368,1388,1408,1429,1448,1469,1488,1509,1530,1549,1568,1590,1609,1629,1648,1670,1689,1710,1729,1749,1768,1788,1808,1829,1848,1870,1889,1908,1928,1949],"xSR":741.5,"ySR":573.95,"xT1":424.9,"yT1":0,"xT2":1058.1,"yT2":0,"toosoon":0,"cond_shown":"Incongruent","ratio_trial":200,"L_num":14,"L_den":30,"R_num":6,"R_den":9,"correct_side":2,"subjID":"LidaDiaz21","gender":"1","school":"4","age":"9 años"},{"start_time":1552054181619,"click_time":1552054183577,"finger_time":1552054183017,"fix_duration":1481.7531845539113,"trial":15,"RT":1398,"MT":560,"sideResp":1,"stimulus":[],"xmouse":[792,792,792,792,792,792,792,792,792,792,792,792,792,792,792,792,792,792,792,792,792,792,792,792,792,792,792,792,792,792,792,792,792,792,792,792,792,792,792,792,792,792,792,792,792,792,792,792,792,792,792,792,792,792,792,792,792,792,792,792,792,792,792,792,792,792,792,792,792,814,826,830,818,780,746,703,695,693,683,661,640,614,590,571,557,539,539,539,538,538,538,538,538,538,538,535,529,524],"ymouse":[631,631,631,631,631,631,631,631,631,631,631,631,631,631,631,631,631,631,631,631,631,631,631,631,631,631,631,631,631,631,631,631,631,631,631,631,631,631,631,631,631,631,631,631,631,631,631,631,631,631,631,631,631,631,631,631,631,631,631,631,631,631,631,631,631,631,631,631,631,519,483,452,417,369,326,264,247,243,231,223,216,205,191,177,167,154,154,154,154,151,142,138,137,136,135,120,108,97],"timestamp_mouse":[18,38,58,78,99,119,138,158,178,199,219,239,258,277,297,317,339,359,377,399,417,437,458,478,498,519,538,559,578,598,619,639,659,678,698,718,739,759,779,798,817,839,858,878,897,918,939,958,977,999,1018,1038,1058,1079,1099,1117,1138,1159,1177,1197,1218,1237,1259,1278,1299,1318,1339,1359,1379,1398,1417,1437,1457,1478,1498,1518,1538,1557,1578,1598,1617,1638,1658,1678,1698,1719,1738,1758,1778,1799,1817,1838,1858,1878,1898,1918,1938,1958],"xSR":741.5,"ySR":573.95,"xT1":424.9,"yT1":0,"xT2":1058.1,"yT2":0,"toosoon":0,"cond_shown":"Congruent","ratio_trial":300,"L_num":8,"L_den":16,"R_num":1,"R_den":5,"correct_side":1,"subjID":"LidaDiaz21","gender":"1","school":"4","age":"9 años"},{"start_time":1552054185465,"click_time":1552054187657,"finger_time":1552054187117,"fix_duration":827.4089976699275,"trial":16,"RT":1652,"MT":540,"sideResp":1,"stimulus":[],"xmouse":[767,767,767,767,767,767,767,767,767,767,767,767,767,767,767,767,767,767,767,767,767,767,767,767,767,767,767,767,767,767,767,767,767,767,767,767,767,767,767,767,767,767,767,767,767,767,767,767,767,767,767,767,767,767,767,767,767,767,767,767,767,767,767,767,767,767,767,767,767,767,767,766,765,765,765,765,766,767,770,772,772,772,772,768,749,737,723,714,686,673,659,648,638,622,615,612,608,604,597,591,586,582,578,565,554,549,544,538,526,516],"ymouse":[626,626,626,626,626,626,626,626,626,626,626,626,626,626,626,626,626,626,626,626,626,626,626,626,626,626,626,626,626,626,626,626,626,626,626,626,626,626,626,626,626,626,626,626,626,626,626,626,626,626,626,626,626,626,626,626,626,626,626,626,626,626,626,626,626,626,626,626,623,615,605,599,595,593,593,592,591,589,585,582,580,575,564,535,503,478,447,415,345,318,294,275,260,237,227,222,217,212,204,196,188,179,167,146,132,125,114,105,83,70],"timestamp_mouse":[14,36,52,73,91,112,133,153,172,191,212,233,252,272,291,313,333,352,373,391,412,433,453,473,492,512,532,552,573,592,612,632,652,673,693,713,732,753,772,792,813,833,852,872,891,911,933,952,972,993,1013,1032,1051,1072,1093,1112,1133,1152,1172,1193,1212,1231,1253,1272,1292,1312,1332,1352,1372,1391,1412,1431,1452,1473,1492,1513,1532,1551,1572,1592,1612,1632,1652,1672,1691,1711,1731,1752,1771,1791,1812,1831,1851,1871,1892,1911,1932,1952,1971,1991,2012,2032,2052,2071,2091,2111,2132,2152,2171,2192],"xSR":741.5,"ySR":573.95,"xT1":424.9,"yT1":0,"xT2":1058.1,"yT2":0,"toosoon":0,"cond_shown":"Congruent","ratio_trial":100,"L_num":8,"L_den":16,"R_num":2,"R_den":5,"correct_side":1,"subjID":"LidaDiaz21","gender":"1","school":"4","age":"9 años"},{"start_time":1552054190228,"click_time":1552054192516,"finger_time":1552054191976,"fix_duration":250,"trial":17,"RT":1748,"MT":540,"sideResp":1,"stimulus":[],"xmouse":[768,768,768,768,768,768,768,768,768,768,768,768,768,768,768,768,768,770,772,773,775,776,776,776,777,778,779,781,783,786,790,791,792,793,793,794,794,794,794,794,795,796,796,797,797,798,799,799,799,799,799,799,799,799,799,799,799,799,799,799,799,799,799,799,799,799,799,799,799,799,799,799,799,799,799,799,799,799,799,799,799,799,799,799,799,799,798,778,750,712,659,495,398,269,232,220,219,215,209,205,206,237,251,269,286,297,310,320,333,347,361,388,406,417,425],"ymouse":[669,669,669,669,669,669,669,669,669,669,669,669,669,669,669,669,669,667,666,666,664,664,664,664,663,662,661,660,659,657,654,653,652,650,648,646,646,644,643,639,633,630,628,626,624,619,618,617,617,617,617,617,617,617,617,617,617,617,617,617,617,617,617,617,617,617,617,617,617,617,617,617,617,617,617,617,617,617,617,617,617,617,617,617,617,617,594,514,414,271,101,0,0,0,0,0,1,14,35,62,88,142,157,170,180,186,187,184,177,168,156,125,99,85,74],"timestamp_mouse":[12,41,50,69,88,109,128,150,169,189,208,230,249,269,290,309,330,348,369,389,409,428,448,468,489,509,529,548,570,590,609,630,650,668,688,709,730,748,768,788,808,830,850,870,888,908,930,948,969,988,1009,1029,1050,1070,1089,1109,1129,1149,1170,1188,1208,1230,1249,1269,1289,1309,1329,1350,1369,1390,1410,1429,1449,1469,1488,1509,1529,1550,1570,1589,1608,1630,1650,1669,1690,1709,1728,1748,1770,1788,1808,1829,1850,1869,1889,1911,1929,1949,1969,1989,2008,2030,2049,2068,2089,2109,2129,2148,2168,2189,2211,2229,2249,2269,2288],"xSR":741.5,"ySR":573.95,"xT1":424.9,"yT1":0,"xT2":1058.1,"yT2":0,"toosoon":0,"cond_shown":"Incongruent","ratio_trial":200,"L_num":11,"L_den":20,"R_num":3,"R_den":4,"correct_side":2,"subjID":"LidaDiaz21","gender":"1","school":"4","age":"9 años"},{"start_time":1552054197250,"click_time":1552054199258,"finger_time":1552054198676,"fix_duration":1332.157722511711,"trial":18,"RT":1426,"MT":582,"sideResp":1,"stimulus":[],"xmouse":[754,754,754,754,754,754,754,754,754,754,754,754,754,754,754,754,754,754,754,754,754,754,754,754,754,754,754,754,754,754,754,754,754,754,754,754,754,754,754,754,754,754,754,754,754,754,754,754,754,754,754,754,754,754,754,754,754,754,754,754,754,754,754,754,754,754,757,759,767,771,781,787,789,791,796,805,808,809,809,809,801,772,747,718,691,627,606,594,583,573,567,565,565,565,565,567,564,558,549,532,517],"ymouse":[616,616,616,616,616,616,616,616,616,616,616,616,616,616,616,616,616,616,616,616,616,616,616,616,616,616,616,616,616,616,616,616,616,616,616,616,616,616,616,616,616,616,616,616,616,616,616,616,616,616,616,616,616,616,616,616,616,616,616,616,616,616,616,616,616,616,615,611,598,592,579,570,564,557,548,527,516,501,482,462,423,358,320,286,258,211,199,190,182,173,167,163,161,160,156,147,122,104,82,56,32],"timestamp_mouse":[13,39,47,68,86,108,128,148,167,187,208,228,248,268,287,306,328,346,368,387,408,427,448,468,487,508,527,548,567,587,607,628,646,666,688,708,726,748,767,788,806,828,847,868,886,908,928,947,968,988,1007,1028,1047,1068,1088,1106,1128,1146,1168,1187,1206,1228,1246,1268,1288,1307,1326,1347,1367,1388,1406,1426,1447,1468,1486,1508,1527,1547,1567,1587,1606,1627,1647,1666,1686,1708,1727,1747,1768,1788,1807,1827,1848,1867,1888,1906,1927,1947,1967,1986,2007],"xSR":741.5,"ySR":573.95,"xT1":424.9,"yT1":0,"xT2":1058.1,"yT2":0,"toosoon":0,"cond_shown":"Congruent","ratio_trial":300,"L_num":18,"L_den":20,"R_num":9,"R_den":15,"correct_side":1,"subjID":"LidaDiaz21","gender":"1","school":"4","age":"9 años"},{"start_time":1552054201420,"click_time":1552054202977,"finger_time":1552054202277,"fix_duration":1261.914706423843,"trial":19,"RT":857,"MT":700,"sideResp":1,"stimulus":[],"xmouse":[786,786,786,786,786,786,786,786,786,786,785,785,785,785,785,785,785,785,785,785,785,785,785,785,785,785,785,785,785,783,783,782,779,777,774,771,767,758,756,755,751,748,739,735,727,719,712,691,661,639,619,596,559,547,537,534,534,531,526,524,523,523,522,518,516,512,511,503,502,502,502,501,494,486,479,475,472,470],"ymouse":[610,610,610,610,610,610,610,610,610,610,609,609,609,609,609,609,609,609,609,609,609,609,609,609,609,609,609,609,609,608,607,607,605,604,602,600,598,594,593,592,589,586,579,575,570,566,563,556,543,534,518,499,457,437,420,403,387,336,311,296,279,264,240,227,212,194,180,158,156,156,156,154,140,127,115,106,101,92],"timestamp_mouse":[16,41,57,76,98,118,138,158,177,197,218,238,256,306,307,316,336,356,376,397,418,438,458,477,497,518,536,556,576,597,616,636,656,677,698,717,738,757,777,796,818,837,857,876,897,917,938,956,978,997,1017,1036,1056,1077,1098,1117,1136,1157,1176,1196,1216,1237,1257,1278,1297,1316,1338,1358,1377,1396,1417,1437,1457,1477,1496,1517,1538,1557],"xSR":741.5,"ySR":573.95,"xT1":424.9,"yT1":0,"xT2":1058.1,"yT2":0,"toosoon":0,"cond_shown":"Incongruent","ratio_trial":300,"L_num":4,"L_den":5,"R_num":8,"R_den":16,"correct_side":1,"subjID":"LidaDiaz21","gender":"1","school":"4","age":"9 años"},{"start_time":1552054204536,"click_time":1552054206357,"finger_time":1552054205758,"fix_duration":558.7925468674946,"trial":20,"RT":1222,"MT":599,"sideResp":2,"stimulus":[],"xmouse":[769,769,769,769,769,769,769,769,769,769,769,769,769,769,769,769,769,769,769,769,769,769,769,769,769,769,769,769,769,769,769,769,769,769,769,769,769,769,769,769,769,769,769,769,769,769,769,769,769,769,769,769,769,769,771,771,771,774,775,779,787,800,834,844,854,869,887,922,946,965,983,1010,1036,1046,1053,1060,1068,1081,1082,1082,1082,1085,1091,1098,1101,1103,1105,1106,1111,1117,1123,1126],"ymouse":[602,602,602,602,602,602,602,602,602,602,602,602,602,602,602,602,602,602,602,602,602,602,602,602,602,602,602,602,602,602,602,602,602,602,602,602,602,602,602,602,602,602,602,602,602,602,602,602,602,602,602,602,602,602,603,603,603,601,598,593,585,571,542,531,520,505,486,451,424,404,388,366,345,334,318,305,293,257,239,219,198,182,158,136,133,130,127,126,121,116,109,99],"timestamp_mouse":[14,21,41,61,80,101,121,141,162,181,200,222,242,261,280,301,321,342,360,381,400,422,440,461,482,500,521,541,561,582,601,622,641,661,681,701,722,742,762,782,801,822,841,862,881,900,922,942,961,981,1001,1022,1041,1062,1080,1101,1121,1141,1161,1181,1200,1222,1241,1260,1282,1301,1321,1341,1361,1381,1402,1421,1441,1461,1481,1500,1521,1540,1561,1581,1601,1621,1640,1661,1681,1701,1720,1741,1760,1780,1800,1821],"xSR":741.5,"ySR":573.95,"xT1":424.9,"yT1":0,"xT2":1058.1,"yT2":0,"toosoon":0,"cond_shown":"Congruent","ratio_trial":200,"L_num":6,"L_den":20,"R_num":11,"R_den":22,"correct_side":2,"subjID":"LidaDiaz21","gender":"1","school":"4","age":"9 años"},{"start_time":1552054207636,"click_time":1552054209438,"finger_time":1552054208997,"fix_duration":376.16064226603197,"trial":21,"RT":1361,"MT":441,"sideResp":2,"stimulus":[],"xmouse":[757,757,757,757,757,757,757,757,757,757,757,757,757,757,757,757,757,757,757,757,757,757,757,757,757,757,757,757,757,757,757,757,757,757,757,757,757,757,757,757,757,757,757,757,757,757,757,757,757,757,757,757,757,757,757,757,757,757,757,757,757,757,757,757,757,762,782,839,866,881,893,912,927,944,967,1009,1037,1081,1094,1104,1112,1121,1133,1136,1138,1138,1138,1138,1135,1131],"ymouse":[626,626,626,626,626,626,626,626,626,626,626,626,626,626,626,626,626,626,626,626,626,626,626,626,626,626,626,626,626,626,626,626,626,626,626,626,626,626,626,626,626,626,626,626,626,626,626,626,626,626,626,626,626,626,626,626,626,626,626,626,626,626,626,626,626,623,607,556,515,482,461,437,423,405,377,331,305,239,220,205,190,171,137,127,121,119,117,111,104,93],"timestamp_mouse":[14,45,61,80,100,121,140,162,181,201,221,242,260,280,301,322,342,361,382,400,422,442,462,480,502,521,540,562,581,600,620,642,661,682,700,722,742,760,780,802,820,840,861,880,900,921,941,961,981,1000,1022,1041,1061,1082,1102,1122,1141,1161,1181,1202,1221,1242,1261,1280,1302,1321,1341,1361,1381,1401,1421,1442,1460,1480,1500,1522,1541,1562,1581,1601,1620,1640,1661,1681,1701,1721,1740,1760,1780,1802],"xSR":741.5,"ySR":573.95,"xT1":424.9,"yT1":0,"xT2":1058.1,"yT2":0,"toosoon":0,"cond_shown":"Incongruent","ratio_trial":100,"L_num":10,"L_den":25,"R_num":8,"R_den":16,"correct_side":2,"subjID":"LidaDiaz21","gender":"1","school":"4","age":"9 años"},{"start_time":1552054210649,"click_time":1552054211956,"finger_time":1552054211358,"fix_duration":250,"trial":22,"RT":709,"MT":598,"sideResp":1,"stimulus":[],"xmouse":[795,795,795,795,795,795,795,795,795,795,795,795,795,795,795,795,795,795,795,795,795,795,795,795,795,795,795,795,795,795,795,795,793,786,767,728,696,686,686,686,686,686,686,686,685,685,681,672,666,658,652,645,630,619,614,610,607,605,600,590,580,571,556,547,520,494],"ymouse":[610,610,610,610,610,610,610,610,610,610,610,610,610,610,610,610,610,610,610,610,610,610,610,610,610,610,610,610,610,610,610,610,610,611,611,604,597,595,595,595,595,595,595,595,594,591,580,559,544,523,505,485,442,417,403,387,370,348,327,306,282,261,215,190,135,81],"timestamp_mouse":[8,28,48,68,87,108,127,149,169,188,207,228,248,268,287,309,329,348,369,389,408,428,448,468,489,507,527,549,569,588,608,627,647,669,688,709,729,747,767,789,808,827,848,868,888,909,929,948,967,987,1009,1028,1048,1068,1087,1107,1129,1148,1167,1187,1208,1229,1248,1268,1287,1307],"xSR":741.5,"ySR":573.95,"xT1":424.9,"yT1":0,"xT2":1058.1,"yT2":0,"toosoon":0,"cond_shown":"Incongruent","ratio_trial":100,"L_num":3,"L_den":5,"R_num":8,"R_den":16,"correct_side":1,"subjID":"LidaDiaz21","gender":"1","school":"4","age":"9 años"},{"start_time":1552054214111,"click_time":1552054216317,"finger_time":1552054215617,"fix_duration":1231.7407649587756,"trial":23,"RT":1506,"MT":700,"sideResp":1,"stimulus":[],"xmouse":[786,786,786,786,786,786,786,786,786,786,786,786,786,786,786,786,786,786,786,786,786,786,786,786,786,786,786,786,786,786,786,786,786,786,786,786,786,786,786,786,786,786,786,786,786,786,786,786,786,786,786,786,786,786,786,786,786,786,786,786,786,786,786,786,786,786,786,786,786,786,786,786,786,783,775,762,748,729,707,677,668,661,651,639,619,613,606,600,593,574,563,555,550,544,538,534,534,534,532,528,527,527,527,527,527,526,523,522,520,512,508],"ymouse":[630,630,630,630,630,630,630,630,630,630,630,630,630,630,630,630,630,630,630,630,630,630,630,630,630,630,630,630,630,630,630,630,630,630,630,630,630,630,630,630,630,630,630,630,630,630,630,630,630,630,630,630,630,630,630,630,630,630,630,630,630,630,630,630,630,630,630,630,630,630,630,630,630,625,589,545,505,467,438,403,389,377,363,346,306,286,272,258,242,197,179,166,159,148,140,136,136,136,133,127,125,125,125,125,125,125,119,117,115,104,98],"timestamp_mouse":[20,27,46,66,86,106,126,145,165,185,207,227,246,265,286,307,325,347,366,387,406,426,446,467,486,506,526,547,567,587,606,625,647,665,686,707,726,746,767,787,807,826,845,867,886,905,926,946,965,985,1006,1027,1045,1067,1086,1107,1127,1146,1167,1186,1206,1227,1246,1267,1285,1305,1327,1346,1367,1386,1406,1426,1447,1466,1486,1506,1525,1545,1566,1586,1606,1626,1647,1666,1686,1705,1726,1746,1766,1786,1806,1825,1845,1866,1886,1906,1926,1945,1966,1985,2006,2026,2046,2066,2087,2107,2126,2146,2167,2186,2206],"xSR":741.5,"ySR":573.95,"xT1":424.9,"yT1":0,"xT2":1058.1,"yT2":0,"toosoon":0,"cond_shown":"Incongruent","ratio_trial":100,"L_num":9,"L_den":10,"R_num":20,"R_den":25,"correct_side":1,"subjID":"LidaDiaz21","gender":"1","school":"4","age":"9 años"},{"start_time":1552054218900,"click_time":1552054220856,"finger_time":1552054220237,"fix_duration":1420.398863379269,"trial":24,"RT":1337,"MT":619,"sideResp":1,"stimulus":[],"xmouse":[810,810,810,810,810,810,810,810,810,810,810,810,810,810,810,810,810,810,810,810,810,810,810,810,810,810,810,810,810,810,810,810,810,810,810,810,810,810,810,810,810,810,810,810,810,810,810,810,810,810,810,810,810,810,810,810,810,810,810,810,810,810,810,810,809,799,783,747,727,707,660,633,620,611,603,593,589,589,589,588,583,575,569,564,559,546,536,530,522,510,499,495,491,490,489,488,488,488],"ymouse":[608,608,608,608,608,608,608,608,608,608,608,608,608,608,608,608,608,608,608,608,608,608,608,608,608,608,608,608,608,608,608,608,608,608,608,608,608,608,608,608,608,608,608,608,608,608,608,608,608,608,608,608,608,608,608,608,608,608,608,608,608,608,608,608,605,585,564,518,497,480,443,420,405,388,370,339,329,327,323,317,290,269,250,230,214,183,166,155,144,132,119,114,108,105,104,101,100,97],"timestamp_mouse":[17,37,58,76,98,117,138,156,176,196,218,237,258,278,297,317,337,358,378,397,416,437,457,478,498,517,538,557,577,598,617,637,656,678,697,717,737,756,777,798,817,836,858,878,898,917,938,957,978,996,1016,1038,1057,1078,1096,1118,1138,1158,1177,1197,1216,1237,1257,1276,1297,1316,1337,1356,1377,1397,1416,1437,1457,1476,1498,1517,1537,1557,1577,1597,1618,1637,1656,1676,1696,1716,1736,1756,1777,1798,1816,1836,1856,1877,1896,1917,1937,1956],"xSR":741.5,"ySR":573.95,"xT1":424.9,"yT1":0,"xT2":1058.1,"yT2":0,"toosoon":0,"cond_shown":"Congruent","ratio_trial":100,"L_num":1,"L_den":2,"R_num":18,"R_den":30,"correct_side":2,"subjID":"LidaDiaz21","gender":"1","school":"4","age":"9 años"},{"start_time":1552054225348,"click_time":1552054227197,"finger_time":1552054226236,"fix_duration":250,"trial":25,"RT":888,"MT":961,"sideResp":1,"stimulus":[],"xmouse":[814,814,814,814,814,811,810,810,810,810,810,810,810,810,810,810,810,810,810,810,810,810,810,810,810,810,810,810,810,810,810,810,810,810,810,810,810,810,810,810,808,804,792,785,765,756,747,739,731,730,729,728,728,727,722,718,710,700,689,660,648,638,629,624,623,623,622,618,596,584,565,542,499,470,428,422,421,421,421,421,421,421,421,421,422,422,422,422,422,422,423,423,429],"ymouse":[628,628,628,628,628,628,628,628,628,628,628,628,628,628,628,628,628,628,628,628,628,628,628,628,628,628,628,628,628,628,628,628,628,628,628,628,628,628,628,628,628,622,604,589,556,546,535,523,508,504,503,501,500,494,474,459,442,420,395,334,311,293,272,259,257,256,250,243,214,201,184,170,147,132,104,93,82,71,65,47,40,35,32,32,32,31,31,31,31,31,31,31,33],"timestamp_mouse":[12,35,48,68,88,109,129,149,169,189,210,229,250,268,288,308,329,349,370,390,409,428,449,468,488,510,530,548,569,588,609,630,648,668,688,708,729,748,769,788,809,830,850,868,888,909,930,950,969,988,1010,1030,1048,1068,1089,1109,1129,1149,1169,1188,1209,1229,1249,1269,1289,1308,1329,1350,1369,1388,1408,1429,1449,1469,1489,1508,1529,1549,1569,1588,1608,1628,1648,1670,1690,1709,1729,1749,1769,1789,1810,1829,1849],"xSR":741.5,"ySR":573.95,"xT1":424.9,"yT1":0,"xT2":1058.1,"yT2":0,"toosoon":0,"cond_shown":"Incongruent","ratio_trial":100,"L_num":6,"L_den":10,"R_num":7,"R_den":14,"correct_side":1,"subjID":"LidaDiaz21","gender":"1","school":"4","age":"9 años"},{"start_time":1552054229426,"click_time":1552054231137,"finger_time":1552054230877,"fix_duration":1148.9385558598221,"trial":26,"RT":1451,"MT":260,"sideResp":1,"stimulus":[],"xmouse":[812,812,812,812,812,812,812,812,812,812,812,812,812,812,812,812,812,812,812,812,812,812,812,812,812,812,812,812,812,812,812,812,812,812,812,812,812,812,812,812,812,812,812,812,812,812,812,812,812,812,812,812,812,812,812,812,812,812,812,812,812,812,812,812,812,812,812,812,812,812,791,755,712,687,674,668,668,668,662,641,595,568,545,534,528,520],"ymouse":[614,614,614,614,614,614,614,614,614,614,614,614,614,614,614,614,614,614,614,614,614,614,614,614,614,614,614,614,614,614,614,614,614,614,614,614,614,614,614,614,614,614,614,614,614,614,614,614,614,614,614,614,614,614,614,614,614,614,614,614,614,614,614,614,614,614,614,614,614,614,613,608,584,539,505,454,439,427,393,334,236,182,137,113,93,71],"timestamp_mouse":[14,37,51,71,91,111,130,152,170,190,212,230,251,270,290,311,330,352,372,390,410,436,451,471,492,511,530,552,571,590,611,632,652,671,690,711,731,752,772,792,810,830,852,872,892,912,931,951,970,992,1012,1031,1051,1072,1091,1111,1132,1150,1170,1191,1210,1231,1252,1271,1290,1311,1331,1350,1371,1391,1411,1431,1451,1470,1491,1511,1531,1550,1571,1592,1610,1631,1651,1672,1692,1711],"xSR":741.5,"ySR":573.95,"xT1":424.9,"yT1":0,"xT2":1058.1,"yT2":0,"toosoon":0,"cond_shown":"Congruent","ratio_trial":200,"L_num":16,"L_den":20,"R_num":12,"R_den":20,"correct_side":1,"subjID":"LidaDiaz21","gender":"1","school":"4","age":"9 años"},{"start_time":1552054232859,"click_time":1552054234756,"finger_time":1552054234277,"fix_duration":820.716514590086,"trial":27,"RT":1418,"MT":479,"sideResp":2,"stimulus":[],"xmouse":[771,771,771,771,771,771,771,771,771,771,771,771,771,771,771,771,771,771,771,771,771,771,771,771,771,771,771,771,771,771,771,771,771,771,771,771,771,771,771,771,771,771,771,771,771,771,771,771,771,771,771,771,771,771,771,771,771,771,771,771,771,771,771,771,771,771,771,771,778,809,849,900,946,1051,1087,1111,1126,1131,1135,1136,1137,1139,1143,1145,1140,1133,1124,1115,1100,1092,1087,1086,1086,1075,1074],"ymouse":[637,637,637,637,637,637,637,637,637,637,637,637,637,637,637,637,637,637,637,637,637,637,637,637,637,637,637,637,637,637,637,637,637,637,637,637,637,637,637,637,637,637,637,637,637,637,637,637,637,637,637,637,637,637,637,637,637,637,637,637,637,637,637,637,637,637,637,637,635,617,593,564,532,451,415,383,362,352,332,323,316,307,296,283,251,234,220,208,180,166,153,144,136,100,90],"timestamp_mouse":[18,43,58,78,98,118,138,157,177,199,218,237,257,278,298,318,338,357,378,399,419,438,457,479,499,518,538,558,577,597,618,639,659,677,697,717,737,759,779,797,818,839,857,877,897,917,937,957,977,997,1019,1038,1057,1078,1099,1119,1137,1158,1179,1197,1217,1238,1258,1278,1298,1319,1338,1358,1379,1398,1418,1439,1457,1477,1497,1517,1538,1559,1578,1597,1617,1637,1657,1677,1698,1718,1739,1759,1777,1797,1818,1837,1857,1877,1897],"xSR":741.5,"ySR":573.95,"xT1":424.9,"yT1":0,"xT2":1058.1,"yT2":0,"toosoon":0,"cond_shown":"Congruent","ratio_trial":100,"L_num":1,"L_den":2,"R_num":18,"R_den":30,"correct_side":2,"subjID":"LidaDiaz21","gender":"1","school":"4","age":"9 años"},{"start_time":1552054236930,"click_time":1552054238856,"finger_time":1552054238357,"fix_duration":1192.04512480069,"trial":28,"RT":1427,"MT":499,"sideResp":2,"stimulus":[],"xmouse":[791,791,791,791,791,791,791,791,791,791,791,791,791,791,791,791,791,791,791,791,791,791,791,791,791,791,791,791,791,791,791,791,791,791,791,791,791,791,791,791,791,791,791,791,791,791,791,791,791,791,791,791,791,791,791,791,791,791,791,791,791,791,791,791,791,791,791,791,791,791,793,807,820,833,846,864,870,877,878,890,895,913,923,934,944,963,977,982,998,1008,1016,1029,1037,1043,1051,1061,1083],"ymouse":[626,626,626,626,626,626,626,626,626,626,626,626,626,626,626,626,626,626,626,626,626,626,626,626,626,626,626,626,626,626,626,626,626,626,626,626,626,626,626,626,626,626,626,626,626,626,626,626,626,626,626,626,626,626,626,626,626,626,626,626,626,626,626,626,626,626,626,626,626,622,603,492,408,357,341,313,303,294,292,278,271,252,242,233,224,207,192,186,171,162,155,141,134,127,117,104,73],"timestamp_mouse":[19,37,46,67,86,106,127,146,167,187,207,227,246,268,286,307,328,347,366,387,407,427,447,466,487,508,526,548,568,587,607,626,648,667,687,708,728,747,768,787,806,828,848,866,887,907,926,948,966,988,1007,1027,1046,1068,1086,1107,1126,1148,1166,1186,1207,1226,1248,1267,1286,1307,1326,1348,1367,1387,1406,1427,1447,1466,1487,1508,1526,1547,1566,1586,1607,1628,1647,1667,1686,1708,1727,1747,1767,1788,1806,1827,1847,1867,1888,1906,1926],"xSR":741.5,"ySR":573.95,"xT1":424.9,"yT1":0,"xT2":1058.1,"yT2":0,"toosoon":0,"cond_shown":"Incongruent","ratio_trial":200,"L_num":1,"L_den":3,"R_num":2,"R_den":15,"correct_side":1,"subjID":"LidaDiaz21","gender":"1","school":"4","age":"9 años"},{"start_time":1552054246291,"click_time":1552054248037,"finger_time":1552054247557,"fix_duration":250,"trial":29,"RT":1266,"MT":480,"sideResp":1,"stimulus":[],"xmouse":[781,781,781,781,781,781,781,781,781,781,781,781,781,781,781,781,781,781,781,781,781,781,781,781,781,781,781,781,781,781,781,781,781,781,781,781,781,781,781,781,781,781,781,781,781,781,781,781,781,781,781,781,781,781,781,781,781,781,781,781,781,781,777,773,767,760,749,724,698,644,626,614,606,587,575,562,556,555,555,555,552,550,547,542,537,533,526,520],"ymouse":[587,587,587,587,587,587,587,587,587,587,587,587,587,587,587,587,587,587,587,587,587,587,587,587,587,587,587,587,587,587,587,587,587,587,587,587,587,587,587,587,587,587,587,587,587,587,587,587,587,587,587,587,587,587,587,587,587,587,587,587,587,587,577,562,543,517,487,440,404,331,306,288,272,243,228,217,213,212,212,212,207,201,189,163,148,132,109,93],"timestamp_mouse":[14,34,46,67,85,105,125,147,165,185,206,226,245,267,285,305,327,345,366,386,407,426,445,467,486,507,525,546,566,587,605,626,646,666,685,706,726,747,766,785,805,826,846,865,885,905,927,946,967,986,1006,1025,1046,1066,1086,1107,1126,1146,1166,1186,1205,1227,1246,1266,1285,1306,1325,1346,1365,1386,1407,1426,1447,1467,1485,1506,1526,1546,1566,1586,1606,1626,1647,1666,1685,1707,1725,1746],"xSR":741.5,"ySR":573.95,"xT1":424.9,"yT1":0,"xT2":1058.1,"yT2":0,"toosoon":0,"cond_shown":"Incongruent","ratio_trial":200,"L_num":7,"L_den":10,"R_num":14,"R_den":28,"correct_side":1,"subjID":"LidaDiaz21","gender":"1","school":"4","age":"9 años"},{"start_time":1552054249049,"click_time":1552054250796,"finger_time":1552054250278,"fix_duration":250,"trial":30,"RT":1229,"MT":518,"sideResp":2,"stimulus":[],"xmouse":[796,796,796,796,796,796,796,796,796,796,796,796,796,796,796,796,796,796,796,796,796,796,796,796,796,796,796,796,796,796,796,796,796,796,796,796,796,796,796,796,796,796,796,796,796,796,796,796,796,796,796,796,796,796,796,796,799,804,810,818,830,861,875,892,908,925,951,979,996,1003,1004,1005,1005,1006,1010,1014,1022,1026,1029,1034,1038,1048,1053,1057,1062,1066,1077,1081],"ymouse":[651,651,651,651,651,651,651,651,651,651,651,651,651,651,651,651,651,651,651,651,651,651,651,651,651,651,651,651,651,651,651,651,651,651,651,651,651,651,651,651,651,651,651,651,651,651,651,651,651,650,648,645,643,641,640,638,631,622,613,604,588,556,537,514,491,465,415,329,299,291,289,288,288,280,266,253,239,230,221,208,192,160,151,143,134,122,105,91],"timestamp_mouse":[10,39,47,67,89,109,128,148,167,187,208,229,248,269,288,309,328,348,369,387,407,428,448,467,489,509,529,548,568,589,609,628,648,669,688,708,727,747,768,789,808,829,847,867,888,907,929,948,968,988,1007,1027,1047,1069,1087,1108,1128,1149,1167,1188,1207,1229,1248,1268,1287,1308,1327,1348,1367,1388,1408,1428,1448,1467,1487,1508,1527,1548,1567,1587,1607,1629,1647,1668,1689,1708,1728,1747],"xSR":741.5,"ySR":573.95,"xT1":424.9,"yT1":0,"xT2":1058.1,"yT2":0,"toosoon":0,"cond_shown":"Incongruent","ratio_trial":100,"L_num":8,"L_den":16,"R_num":6,"R_den":10,"correct_side":2,"subjID":"LidaDiaz21","gender":"1","school":"4","age":"9 años"},{"start_time":1552054253012,"click_time":1552054254797,"finger_time":1552054254317,"fix_duration":1232.0127682596867,"trial":31,"RT":1305,"MT":480,"sideResp":2,"stimulus":[],"xmouse":[802,802,802,802,802,802,802,802,802,802,802,802,802,802,802,802,802,802,802,802,802,802,802,802,802,802,802,802,802,802,802,802,802,802,802,802,802,802,802,802,802,802,802,802,802,802,802,802,802,802,802,802,802,802,802,802,802,802,802,802,802,802,802,803,819,856,906,934,970,980,986,989,993,1007,1015,1023,1030,1053,1081,1091,1097,1104,1108,1110,1112,1113,1114,1115,1115,1115],"ymouse":[605,605,605,605,605,605,606,606,607,608,609,609,609,609,609,609,609,609,609,609,609,609,609,609,609,609,609,609,609,609,609,609,609,609,609,609,609,609,609,609,609,609,609,609,609,609,609,609,609,609,609,609,609,609,609,609,609,609,609,609,609,609,609,610,597,565,531,510,481,470,460,453,442,409,390,375,358,318,267,247,227,205,190,171,165,162,154,143,110,96],"timestamp_mouse":[13,34,45,65,85,105,124,145,164,185,205,225,244,266,285,306,325,345,366,386,405,424,446,464,484,506,524,545,566,585,604,624,645,664,685,705,725,746,766,784,804,826,846,865,885,904,925,946,965,986,1005,1025,1044,1065,1085,1105,1124,1145,1166,1185,1206,1224,1245,1266,1284,1305,1325,1344,1365,1386,1404,1425,1445,1465,1485,1505,1524,1544,1565,1585,1606,1625,1646,1664,1684,1705,1724,1744,1764,1784],"xSR":741.5,"ySR":573.95,"xT1":424.9,"yT1":0,"xT2":1058.1,"yT2":0,"toosoon":0,"cond_shown":"Congruent","ratio_trial":300,"L_num":2,"L_den":20,"R_num":10,"R_den":25,"correct_side":2,"subjID":"LidaDiaz21","gender":"1","school":"4","age":"9 años"},{"start_time":1552054259007,"click_time":1552054260317,"finger_time":1552054259656,"fix_duration":250,"trial":32,"RT":649,"MT":661,"sideResp":2,"stimulus":[],"xmouse":[825,825,825,825,825,825,825,825,825,825,825,825,825,825,825,825,825,825,825,825,825,825,825,825,825,825,825,825,824,825,828,830,833,841,848,854,860,864,867,873,876,883,890,903,911,916,923,928,935,949,956,966,976,986,991,992,992,992,994,1012,1024,1034,1042,1047,1057,1060],"ymouse":[607,607,607,607,607,607,607,607,607,607,607,607,607,607,607,607,607,607,607,607,607,607,607,607,607,607,607,607,605,592,583,574,565,533,514,495,474,461,448,434,425,411,396,364,349,337,320,310,298,274,261,244,227,213,205,205,205,205,202,173,154,135,122,110,86,83],"timestamp_mouse":[14,36,51,70,90,110,130,151,171,190,211,230,249,270,290,311,330,351,370,390,409,430,451,471,489,510,531,549,569,591,610,631,649,671,689,709,729,750,769,790,809,830,850,871,889,911,929,950,969,991,1010,1029,1049,1069,1091,1111,1131,1151,1169,1189,1210,1231,1251,1270,1290,1309],"xSR":741.5,"ySR":573.95,"xT1":424.9,"yT1":0,"xT2":1058.1,"yT2":0,"toosoon":0,"cond_shown":"Incongruent","ratio_trial":300,"L_num":13,"L_den":26,"R_num":12,"R_den":15,"correct_side":2,"subjID":"LidaDiaz21","gender":"1","school":"4","age":"9 años"},{"start_time":1552054262044,"click_time":1552054263816,"finger_time":1552054263316,"fix_duration":523.3561209469746,"trial":33,"RT":1272,"MT":500,"sideResp":1,"stimulus":[],"xmouse":[807,807,807,807,807,807,806,806,806,806,806,806,806,806,806,806,806,806,806,806,806,806,806,806,806,806,806,806,806,806,806,806,806,806,806,806,806,806,806,806,806,806,806,806,806,806,806,806,806,806,804,801,799,796,796,796,795,794,790,786,782,777,763,714,676,637,602,573,532,518,502,486,472,447,436,416,406,401,400,400,400,402,406,418,423,426,430,433,446],"ymouse":[622,622,622,622,622,622,623,623,623,623,623,623,623,623,623,623,623,623,623,623,623,623,623,623,623,623,623,623,623,623,623,623,623,623,623,623,623,623,623,623,623,623,623,623,623,623,623,623,623,623,623,623,623,621,621,621,620,620,615,610,606,600,588,552,528,499,477,456,420,401,379,359,341,294,265,222,186,166,160,159,157,151,145,128,121,116,111,106,89],"timestamp_mouse":[13,38,54,73,94,114,132,152,172,194,213,232,252,273,294,313,334,353,373,393,412,432,453,472,493,513,532,553,574,594,613,634,654,673,694,714,732,752,773,794,812,833,854,872,892,913,934,953,972,993,1013,1034,1053,1072,1093,1112,1134,1153,1173,1192,1213,1233,1252,1272,1292,1312,1333,1352,1372,1393,1412,1433,1453,1473,1492,1512,1532,1553,1573,1593,1612,1633,1653,1673,1694,1713,1732,1752,1772],"xSR":741.5,"ySR":573.95,"xT1":424.9,"yT1":0,"xT2":1058.1,"yT2":0,"toosoon":0,"cond_shown":"Congruent","ratio_trial":200,"L_num":21,"L_den":30,"R_num":2,"R_den":4,"correct_side":1,"subjID":"LidaDiaz21","gender":"1","school":"4","age":"9 años"},{"start_time":1552054265951,"click_time":1552054267717,"finger_time":1552054267017,"fix_duration":851.2800008558361,"trial":34,"RT":1066,"MT":700,"sideResp":2,"stimulus":[],"xmouse":[793,793,793,793,793,793,793,793,793,793,793,793,793,793,793,793,793,793,793,793,793,793,793,793,793,793,793,793,793,792,792,792,792,792,792,792,792,792,792,792,792,792,792,792,792,792,792,792,794,795,795,795,795,796,798,800,800,801,801,802,802,803,803,803,803,802,802,801,800,802,807,815,825,859,881,904,935,969,1007,1016,1021,1032,1040,1049,1055,1055,1057,1061,1072],"ymouse":[624,624,624,624,624,624,624,624,624,624,624,624,624,624,624,624,624,624,624,624,624,624,624,624,624,624,624,624,624,623,623,622,621,620,620,619,619,618,618,618,618,617,617,616,616,615,614,613,608,605,601,596,589,573,568,565,565,564,564,562,561,560,557,544,534,522,506,491,472,465,461,455,448,419,395,368,336,292,247,231,212,179,155,136,123,117,111,104,88],"timestamp_mouse":[21,30,47,66,86,106,125,147,165,185,206,227,246,266,285,307,326,347,366,386,406,427,445,465,486,505,525,545,567,586,606,626,647,666,686,706,726,746,767,786,806,826,845,866,885,907,926,947,965,985,1006,1025,1047,1066,1087,1107,1126,1147,1166,1186,1207,1225,1245,1265,1286,1306,1326,1345,1365,1386,1406,1427,1446,1466,1486,1505,1526,1547,1565,1586,1606,1626,1647,1666,1686,1705,1725,1746,1766],"xSR":741.5,"ySR":573.95,"xT1":424.9,"yT1":0,"xT2":1058.1,"yT2":0,"toosoon":0,"cond_shown":"Incongruent","ratio_trial":100,"L_num":13,"L_den":26,"R_num":6,"R_den":10,"correct_side":2,"subjID":"LidaDiaz21","gender":"1","school":"4","age":"9 años"},{"start_time":1552054270021,"click_time":1552054272097,"finger_time":1552054271357,"fix_duration":881.0597720638231,"trial":35,"RT":1336,"MT":740,"sideResp":2,"stimulus":[],"xmouse":[789,789,789,789,789,789,789,789,789,789,789,789,789,789,789,789,789,789,789,789,789,789,789,789,789,789,789,789,789,789,789,789,789,789,789,789,789,789,789,789,789,789,789,789,789,789,789,787,787,784,784,784,784,784,784,784,784,784,784,784,784,784,784,784,784,792,807,837,857,884,891,899,908,921,934,968,988,992,994,995,999,1004,1010,1015,1018,1022,1024,1029,1032,1034,1040,1041,1041,1041,1041,1043,1045,1046,1049,1055,1056,1057,1057,1060],"ymouse":[607,607,607,607,607,607,607,607,607,607,607,607,607,607,607,607,607,607,607,607,607,607,607,607,607,607,607,607,607,607,607,607,607,607,607,607,607,607,607,607,607,607,607,607,607,607,607,601,597,593,591,591,591,591,591,591,591,591,591,591,591,591,591,591,590,582,569,544,530,508,500,487,471,450,428,372,335,331,326,323,314,304,288,270,254,228,215,196,174,156,124,114,107,103,101,98,96,93,89,79,78,77,76,73],"timestamp_mouse":[15,47,56,76,96,116,137,155,176,196,216,237,257,275,295,315,335,356,375,396,416,436,455,476,496,516,536,556,576,596,617,636,657,675,696,716,736,756,775,795,816,836,855,876,895,917,936,956,975,995,1015,1036,1055,1075,1095,1115,1135,1157,1176,1196,1216,1236,1256,1276,1295,1315,1336,1356,1376,1397,1416,1436,1455,1475,1496,1515,1535,1556,1577,1597,1616,1636,1657,1677,1696,1717,1736,1756,1776,1796,1817,1836,1856,1877,1897,1916,1935,1955,1977,1997,2016,2036,2055,2076],"xSR":741.5,"ySR":573.95,"xT1":424.9,"yT1":0,"xT2":1058.1,"yT2":0,"toosoon":0,"cond_shown":"Congruent","ratio_trial":200,"L_num":3,"L_den":10,"R_num":14,"R_den":28,"correct_side":2,"subjID":"LidaDiaz21","gender":"1","school":"4","age":"9 años"},{"start_time":1552054273887,"click_time":1552054275837,"finger_time":1552054275218,"fix_duration":648.8439582749845,"trial":36,"RT":1331,"MT":619,"sideResp":1,"stimulus":[],"xmouse":[802,802,802,802,802,802,802,802,802,802,802,802,802,802,802,802,802,802,802,802,802,802,802,802,802,802,802,802,802,802,802,802,802,802,802,802,802,802,802,802,802,802,802,802,802,802,802,802,802,802,802,802,802,802,802,802,802,802,802,802,802,802,802,802,802,802,801,798,796,795,793,790,768,761,752,746,738,719,707,692,676,655,617,611,609,605,599,588,583,576,569,561,549,546,543,539,534,522],"ymouse":[612,612,612,612,612,612,612,612,612,612,612,612,612,612,612,612,612,612,612,612,612,612,612,612,612,612,612,612,612,612,612,612,612,612,612,612,612,612,612,612,612,612,612,612,612,612,612,612,612,612,612,612,612,612,612,612,612,612,612,612,612,612,612,612,606,593,571,538,524,513,500,484,435,417,397,383,365,326,306,282,259,233,174,160,148,139,129,116,110,105,100,95,87,85,83,81,78,74],"timestamp_mouse":[20,45,50,69,90,111,130,150,169,191,209,229,250,270,289,311,329,351,370,390,409,430,451,470,490,509,531,550,569,589,611,629,650,670,689,710,730,750,770,790,809,829,850,870,889,911,930,949,970,991,1010,1030,1049,1070,1090,1110,1131,1149,1171,1189,1211,1230,1249,1271,1289,1309,1331,1350,1369,1390,1410,1429,1449,1471,1489,1510,1530,1550,1571,1591,1610,1629,1649,1671,1689,1711,1730,1750,1770,1790,1810,1829,1849,1870,1889,1909,1929,1949],"xSR":741.5,"ySR":573.95,"xT1":424.9,"yT1":0,"xT2":1058.1,"yT2":0,"toosoon":0,"cond_shown":"Incongruent","ratio_trial":100,"L_num":8,"L_den":20,"R_num":1,"R_den":2,"correct_side":2,"subjID":"LidaDiaz21","gender":"1","school":"4","age":"9 años"},{"start_time":1552054286625,"click_time":1552054288637,"finger_time":1552054288057,"fix_duration":1106.5298199400843,"trial":37,"RT":1432,"MT":580,"sideResp":1,"stimulus":[],"xmouse":[820,820,820,820,820,820,820,820,820,820,820,820,819,819,819,817,817,817,817,817,817,817,817,817,817,817,817,817,817,817,817,817,817,817,817,817,817,817,817,817,817,817,817,817,817,817,817,817,817,817,817,817,817,817,817,817,817,817,817,817,817,817,817,817,817,817,817,817,817,817,817,812,800,785,769,752,723,703,672,652,638,622,611,599,583,555,449,412,402,398,395,394,394,394,394,394,394,395,403,413,432],"ymouse":[609,609,609,609,609,609,609,609,609,609,609,609,610,612,613,615,615,615,615,615,615,615,615,615,615,615,615,615,615,615,615,615,615,615,615,615,615,615,615,615,615,615,615,615,615,615,615,615,615,615,615,615,615,615,615,615,615,615,615,615,615,615,615,615,615,615,615,615,613,609,591,562,540,520,502,485,451,433,403,380,359,331,319,303,280,243,147,113,89,64,40,20,17,16,16,16,16,16,22,30,40],"timestamp_mouse":[13,39,51,71,91,111,133,153,173,191,212,232,252,272,291,311,333,352,372,393,411,432,452,473,493,511,531,551,572,592,612,633,651,671,692,711,732,751,771,792,812,831,851,872,891,911,932,951,971,992,1012,1032,1052,1072,1091,1112,1132,1151,1172,1191,1213,1232,1251,1271,1292,1312,1331,1352,1371,1392,1412,1432,1453,1471,1492,1512,1531,1551,1571,1592,1612,1631,1653,1671,1692,1712,1732,1751,1771,1792,1811,1832,1852,1871,1891,1911,1933,1951,1971,1992,2011],"xSR":741.5,"ySR":573.95,"xT1":424.9,"yT1":0,"xT2":1058.1,"yT2":0,"toosoon":0,"cond_shown":"Incongruent","ratio_trial":300,"L_num":4,"L_den":5,"R_num":6,"R_den":12,"correct_side":1,"subjID":"LidaDiaz21","gender":"1","school":"4","age":"9 años"},{"start_time":1552054293890,"click_time":1552054295816,"finger_time":1552054294976,"fix_duration":972.4988302921745,"trial":38,"RT":1086,"MT":840,"sideResp":1,"stimulus":[],"xmouse":[824,824,824,824,824,824,824,824,824,824,824,824,824,824,824,824,824,824,824,824,824,824,824,824,824,824,824,824,824,824,824,824,824,824,824,824,824,824,824,824,824,824,824,824,824,824,824,824,824,824,824,823,815,805,772,758,746,743,743,743,742,741,740,738,734,727,722,711,697,657,648,643,639,636,627,625,623,621,617,601,591,583,576,568,561,557,552,548,544,537,534,533,532,531,529,526,524],"ymouse":[621,621,621,621,621,621,621,621,621,621,621,621,621,621,621,621,621,621,621,621,621,621,621,621,621,621,621,621,621,621,621,621,621,621,621,621,621,621,621,621,621,621,621,621,621,621,621,621,621,621,621,621,610,597,567,556,547,544,544,544,542,539,533,527,512,494,484,471,453,424,413,402,395,388,374,368,362,352,342,309,287,261,243,222,184,162,149,138,125,107,101,99,97,96,95,91,90],"timestamp_mouse":[21,43,47,67,86,107,126,146,167,186,206,226,247,266,286,307,327,346,367,387,407,427,446,467,486,507,528,548,567,587,606,626,646,666,687,706,727,746,766,786,807,826,847,866,887,906,928,947,967,987,1006,1027,1048,1066,1086,1106,1126,1148,1167,1187,1206,1226,1247,1267,1287,1307,1326,1347,1366,1386,1408,1427,1448,1467,1486,1507,1526,1547,1567,1586,1608,1626,1648,1666,1686,1707,1726,1746,1766,1786,1808,1827,1847,1866,1887,1908,1926],"xSR":741.5,"ySR":573.95,"xT1":424.9,"yT1":0,"xT2":1058.1,"yT2":0,"toosoon":0,"cond_shown":"Congruent","ratio_trial":300,"L_num":24,"L_den":30,"R_num":2,"R_den":4,"correct_side":1,"subjID":"LidaDiaz21","gender":"1","school":"4","age":"9 años"},{"start_time":1552054298623,"click_time":1552054300817,"finger_time":1552054299977,"fix_duration":1404.259972988008,"trial":39,"RT":1354,"MT":840,"sideResp":2,"stimulus":[],"xmouse":[763,763,763,763,763,763,763,763,763,763,763,763,763,763,763,763,763,763,763,763,763,763,763,763,763,763,763,763,763,763,763,763,763,763,763,763,763,763,763,763,763,763,763,763,763,763,763,763,763,763,763,763,763,763,763,763,763,763,763,763,763,763,766,769,773,779,793,801,804,806,808,813,826,837,848,862,883,908,923,938,951,961,966,976,981,982,988,992,1001,1004,1009,1014,1019,1028,1030,1032,1032,1032,1032,1033,1036,1038,1045,1046,1048,1053,1059,1075,1083,1088],"ymouse":[625,625,625,625,625,625,625,625,625,625,625,625,625,625,625,625,625,625,625,625,625,625,625,625,625,625,625,625,625,625,625,625,625,625,625,625,625,625,625,625,625,625,625,625,625,624,624,623,623,623,623,622,621,621,621,621,621,620,619,616,614,608,596,593,588,582,574,568,566,564,561,552,530,516,503,489,466,438,422,404,391,380,370,353,343,340,326,316,294,281,263,247,236,218,213,208,208,208,208,207,203,199,190,189,185,172,159,121,102,84],"timestamp_mouse":[14,34,53,73,93,114,133,153,173,193,213,233,254,273,293,313,334,353,373,393,413,433,453,473,493,513,533,553,573,593,613,633,653,673,694,713,734,753,774,793,814,833,854,873,894,914,934,954,974,993,1013,1034,1054,1074,1093,1114,1133,1154,1174,1193,1214,1233,1254,1273,1294,1313,1334,1354,1373,1394,1413,1434,1454,1473,1494,1513,1533,1554,1573,1593,1613,1633,1653,1673,1693,1714,1733,1753,1774,1793,1813,1833,1854,1873,1893,1914,1934,1954,1973,1993,2013,2033,2053,2073,2093,2113,2133,2154,2173,2193],"xSR":741.5,"ySR":573.95,"xT1":424.9,"yT1":0,"xT2":1058.1,"yT2":0,"toosoon":0,"cond_shown":"Congruent","ratio_trial":300,"L_num":3,"L_den":6,"R_num":4,"R_den":5,"correct_side":2,"subjID":"LidaDiaz21","gender":"1","school":"4","age":"9 años"},{"start_time":1552054302268,"click_time":1552054304556,"finger_time":1552054303717,"fix_duration":250,"trial":40,"RT":1449,"MT":839,"sideResp":2,"stimulus":[],"xmouse":[807,807,807,806,804,801,801,801,801,801,801,801,801,801,801,801,801,801,801,801,801,801,800,799,799,798,798,798,798,798,798,798,798,798,798,798,798,798,798,798,798,798,798,798,798,798,798,798,798,800,802,807,808,811,812,812,813,813,813,813,813,813,813,813,813,813,813,813,813,814,816,826,834,837,838,840,842,844,849,854,861,874,880,886,889,894,903,907,912,915,917,924,931,937,947,957,981,990,1002,1019,1043,1047,1053,1054,1057,1058,1059,1059,1059,1059,1059,1061,1066,1074,1083],"ymouse":[642,642,642,642,642,642,642,642,642,642,642,642,642,642,642,642,642,642,642,642,642,642,642,642,641,640,639,639,639,639,639,639,639,639,639,639,639,639,639,639,639,639,639,639,639,636,634,631,626,621,616,606,603,599,599,598,596,596,596,596,596,595,595,595,595,595,595,595,591,590,585,574,570,568,567,565,563,560,548,535,523,502,480,463,448,433,409,400,392,385,382,370,360,351,335,319,283,270,253,230,204,194,178,173,165,160,159,158,158,157,154,146,129,115,99],"timestamp_mouse":[14,42,49,70,88,109,128,148,168,188,208,228,248,268,288,308,328,348,368,388,408,428,448,470,490,510,530,550,570,589,609,630,650,668,689,708,728,748,769,789,808,829,849,868,889,909,929,949,970,989,1008,1028,1048,1069,1088,1108,1129,1149,1169,1188,1210,1228,1249,1269,1288,1309,1328,1348,1368,1389,1409,1428,1449,1470,1490,1510,1529,1549,1568,1589,1609,1629,1649,1668,1688,1708,1728,1748,1768,1789,1809,1829,1849,1868,1889,1908,1929,1949,1968,1988,2010,2028,2048,2068,2089,2109,2128,2148,2168,2189,2208,2228,2248,2269,2288],"xSR":741.5,"ySR":573.95,"xT1":424.9,"yT1":0,"xT2":1058.1,"yT2":0,"toosoon":0,"cond_shown":"Congruent","ratio_trial":200,"L_num":3,"L_den":10,"R_num":11,"R_den":22,"correct_side":2,"subjID":"LidaDiaz21","gender":"1","school":"4","age":"9 años"},{"start_time":1552054306048,"click_time":1552054308236,"finger_time":1552054307376,"fix_duration":250,"trial":41,"RT":1328,"MT":860,"sideResp":2,"stimulus":[],"xmouse":[815,815,815,815,815,815,815,815,815,815,815,815,815,815,815,815,815,815,815,815,815,815,815,815,815,815,815,815,815,815,815,815,815,815,815,815,815,815,815,815,815,815,815,815,815,815,815,815,815,815,815,815,815,815,815,815,815,815,815,815,815,817,818,827,833,840,847,858,880,892,903,910,916,921,923,925,926,928,932,935,939,944,949,968,979,991,1002,1012,1026,1034,1042,1048,1057,1073,1077,1080,1083,1084,1088,1089,1089,1089,1089,1089,1089,1091,1091,1091,1091,1091],"ymouse":[618,618,618,618,618,618,618,618,618,618,618,618,618,618,618,618,618,618,618,618,618,618,618,618,618,618,618,618,618,618,618,618,618,618,618,618,618,618,618,618,618,618,618,618,618,618,618,618,618,618,618,618,618,618,618,618,618,618,618,618,618,616,614,606,601,595,590,579,515,499,485,474,466,457,455,451,450,448,442,438,434,427,420,392,372,352,336,323,298,281,268,256,243,219,211,206,200,197,185,176,164,152,141,118,111,105,103,101,100,99],"timestamp_mouse":[12,35,50,68,89,108,129,149,169,189,209,229,248,268,289,309,329,349,370,388,408,428,450,469,489,508,529,548,569,589,609,628,648,669,689,710,730,748,768,789,809,829,850,870,888,908,928,949,968,989,1008,1029,1049,1068,1088,1109,1128,1149,1169,1189,1209,1229,1250,1268,1288,1310,1328,1348,1368,1388,1408,1429,1449,1468,1488,1508,1529,1548,1568,1589,1608,1629,1649,1668,1689,1708,1728,1749,1768,1788,1808,1828,1849,1868,1889,1908,1929,1949,1969,1989,2008,2028,2049,2068,2089,2109,2128,2150,2169,2188],"xSR":741.5,"ySR":573.95,"xT1":424.9,"yT1":0,"xT2":1058.1,"yT2":0,"toosoon":0,"cond_shown":"Congruent","ratio_trial":300,"L_num":2,"L_den":10,"R_num":12,"R_den":24,"correct_side":2,"subjID":"LidaDiaz21","gender":"1","school":"4","age":"9 años"},{"start_time":1552054310126,"click_time":1552054312436,"finger_time":1552054311377,"fix_duration":507.44540665503234,"trial":42,"RT":1251,"MT":1059,"sideResp":1,"stimulus":[],"xmouse":[824,824,824,824,824,824,824,824,824,824,824,824,824,824,824,824,824,824,824,824,824,824,824,824,824,824,824,824,824,823,823,823,823,823,823,823,823,823,823,823,823,823,823,823,823,823,823,823,823,823,823,823,823,823,823,823,823,823,823,823,823,811,774,723,629,568,509,452,414,393,382,379,373,356,307,276,252,237,232,232,232,233,237,248,256,272,279,283,287,299,304,309,316,330,341,346,352,358,369,397,408,416,418,419,419,419,419,419,419,419,420,420,420,422,424,426],"ymouse":[600,600,600,600,600,600,600,600,600,600,600,600,600,600,600,600,600,600,600,600,600,600,600,600,600,600,600,600,600,600,600,600,600,600,600,600,600,600,600,600,600,600,600,600,600,600,600,600,600,600,600,600,600,600,600,600,600,600,600,600,600,593,573,550,512,492,477,462,450,441,430,424,410,379,320,289,268,256,249,242,236,230,223,214,210,205,203,203,202,200,197,195,193,186,180,177,172,168,157,108,89,79,76,75,75,75,75,74,74,73,71,71,71,70,69,67],"timestamp_mouse":[21,39,51,71,92,110,131,151,170,190,210,230,252,272,292,310,330,352,371,390,410,431,450,470,492,510,530,551,571,592,611,631,652,670,691,710,730,750,771,791,811,831,850,870,890,911,932,950,971,990,1010,1032,1052,1071,1090,1112,1131,1152,1170,1191,1211,1231,1251,1270,1291,1312,1331,1351,1370,1390,1410,1430,1451,1471,1490,1510,1530,1551,1570,1590,1611,1631,1652,1671,1691,1710,1731,1751,1770,1791,1810,1830,1850,1870,1890,1910,1930,1950,1970,1990,2010,2031,2052,2071,2091,2111,2130,2150,2170,2191,2210,2231,2250,2271,2290,2310],"xSR":741.5,"ySR":573.95,"xT1":424.9,"yT1":0,"xT2":1058.1,"yT2":0,"toosoon":0,"cond_shown":"Incongruent","ratio_trial":300,"L_num":8,"L_den":10,"R_num":14,"R_den":28,"correct_side":1,"subjID":"LidaDiaz21","gender":"1","school":"4","age":"9 años"},{"start_time":1552054314010,"click_time":1552054316236,"finger_time":1552054314917,"fix_duration":270.36423050708123,"trial":43,"RT":907,"MT":1319,"sideResp":2,"stimulus":[],"xmouse":[777,777,777,777,777,777,777,777,777,777,777,777,777,777,777,777,777,777,777,777,777,777,777,777,777,777,777,777,777,777,777,777,777,777,777,777,777,777,777,777,777,777,785,810,833,853,854,855,857,859,860,862,864,865,866,869,869,871,874,876,880,888,894,903,911,920,927,934,941,947,953,954,954,954,954,954,954,954,954,954,954,954,959,960,962,964,967,967,968,968,970,975,978,985,993,1005,1034,1044,1051,1054,1055,1056,1056,1056,1056,1056,1057,1063,1069,1076,1083,1088],"ymouse":[616,616,616,616,616,616,616,616,616,616,616,616,616,616,616,616,616,616,616,616,616,616,616,616,616,616,616,616,616,616,616,616,616,616,616,616,616,616,616,616,616,616,614,594,577,563,561,559,554,551,548,542,538,534,529,521,517,510,503,494,484,457,443,428,417,403,395,386,374,362,353,351,351,351,351,351,351,351,351,351,351,344,337,333,328,323,315,313,311,309,307,298,292,280,263,243,193,176,163,155,151,149,149,149,149,149,148,139,129,115,104,88],"timestamp_mouse":[13,40,46,68,86,107,127,146,167,187,207,228,246,266,287,307,326,346,368,387,406,426,446,468,487,507,526,547,567,588,608,627,647,666,688,706,727,746,767,788,806,826,847,867,886,907,926,947,967,986,1006,1026,1046,1067,1087,1107,1126,1146,1167,1187,1207,1227,1246,1267,1287,1308,1327,1346,1367,1386,1407,1426,1447,1467,1486,1507,1527,1546,1567,1587,1607,1627,1646,1666,1687,1706,1726,1747,1766,1786,1807,1826,1846,1866,1886,1906,1926,1946,1966,1987,2007,2027,2046,2066,2086,2107,2127,2147,2168,2187,2207,2226],"xSR":741.5,"ySR":573.95,"xT1":424.9,"yT1":0,"xT2":1058.1,"yT2":0,"toosoon":0,"cond_shown":"Congruent","ratio_trial":200,"L_num":1,"L_den":2,"R_num":21,"R_den":30,"correct_side":2,"subjID":"LidaDiaz21","gender":"1","school":"4","age":"9 años"},{"start_time":1552054318292,"click_time":1552054320617,"finger_time":1552054319736,"fix_duration":933.0316014881878,"trial":44,"RT":1444,"MT":881,"sideResp":1,"stimulus":[],"xmouse":[815,815,815,815,815,815,815,815,815,815,815,815,815,815,815,815,815,815,815,815,815,815,815,815,815,815,815,815,815,815,815,815,815,815,815,815,815,815,815,815,815,815,815,815,815,815,815,815,815,815,815,815,815,815,815,815,815,815,815,815,815,815,815,815,815,815,815,815,815,815,814,808,764,726,683,648,614,570,559,559,559,558,556,556,555,553,552,545,542,541,540,540,533,528,525,518,512,508,508,507,507,507,505,504,504,503,502,500,500,499,499,499,499,498,498,496,493],"ymouse":[619,619,619,619,619,619,619,619,619,619,619,619,619,619,619,619,619,619,619,619,619,619,619,619,619,619,619,619,619,619,619,619,619,619,619,619,619,619,619,619,619,619,619,619,619,619,619,619,619,619,619,619,619,619,619,619,619,619,619,619,619,619,619,619,619,619,619,619,619,619,618,607,558,531,501,479,453,414,400,397,396,391,377,369,355,344,334,304,291,284,282,282,253,230,209,187,169,159,156,155,153,152,146,145,140,138,133,128,125,124,123,123,123,114,107,100,93],"timestamp_mouse":[14,25,45,65,85,105,124,145,164,185,204,225,244,265,285,304,326,345,364,386,406,425,444,464,485,505,524,546,564,584,604,625,646,665,685,705,724,744,764,784,804,825,844,864,886,904,924,944,964,985,1006,1025,1044,1064,1085,1105,1125,1144,1165,1184,1205,1225,1245,1266,1284,1304,1325,1344,1365,1384,1405,1425,1444,1466,1484,1505,1525,1544,1564,1585,1604,1624,1644,1665,1684,1705,1725,1745,1765,1784,1804,1825,1844,1865,1884,1905,1925,1945,1964,1984,2004,2024,2044,2065,2084,2105,2125,2144,2164,2184,2205,2224,2245,2264,2284,2304,2325],"xSR":741.5,"ySR":573.95,"xT1":424.9,"yT1":0,"xT2":1058.1,"yT2":0,"toosoon":0,"cond_shown":"Incongruent","ratio_trial":100,"L_num":9,"L_den":10,"R_num":20,"R_den":25,"correct_side":1,"subjID":"LidaDiaz21","gender":"1","school":"4","age":"9 años"},{"start_time":1552054322068,"click_time":1552054324056,"finger_time":1552054323517,"fix_duration":250,"trial":45,"RT":1449,"MT":539,"sideResp":2,"stimulus":[],"xmouse":[768,768,768,768,768,768,768,768,768,768,768,768,768,768,768,768,768,768,768,768,768,768,768,768,768,768,768,768,768,768,768,768,768,768,768,768,768,768,768,768,768,768,768,768,768,768,768,768,768,768,768,768,768,768,768,768,768,768,768,768,768,768,768,768,768,768,768,768,768,768,772,778,785,790,806,813,821,830,841,862,884,899,917,937,968,980,995,1008,1022,1046,1056,1062,1068,1079,1082,1087,1090,1093,1094,1096],"ymouse":[602,602,602,602,602,602,602,602,602,602,602,602,602,602,602,602,602,602,602,602,602,602,602,602,602,602,602,602,602,602,602,602,602,602,602,602,602,602,602,602,602,602,602,602,602,602,602,602,602,602,602,602,602,602,602,602,602,602,602,602,602,602,602,602,602,602,602,602,602,602,594,576,563,550,523,513,504,493,482,459,435,416,396,375,336,315,294,278,262,230,217,201,185,155,142,130,119,110,100,86],"timestamp_mouse":[13,35,48,68,88,110,129,148,169,189,210,228,248,269,288,308,328,349,368,390,409,429,448,468,488,509,528,549,569,588,608,628,648,669,688,709,729,750,770,789,810,828,849,868,889,908,929,950,970,989,1009,1029,1048,1069,1088,1109,1129,1149,1169,1188,1209,1229,1248,1270,1289,1308,1329,1349,1368,1388,1408,1430,1449,1469,1488,1509,1528,1549,1569,1588,1609,1628,1649,1669,1688,1709,1728,1748,1768,1788,1808,1828,1848,1870,1888,1908,1928,1949,1968,1988],"xSR":741.5,"ySR":573.95,"xT1":424.9,"yT1":0,"xT2":1058.1,"yT2":0,"toosoon":0,"cond_shown":"Congruent","ratio_trial":100,"L_num":15,"L_den":25,"R_num":13,"R_den":26,"correct_side":1,"subjID":"LidaDiaz21","gender":"1","school":"4","age":"9 años"},{"start_time":1552054328731,"click_time":1552054330798,"finger_time":1552054330277,"fix_duration":632.0802470005195,"trial":46,"RT":1546,"MT":521,"sideResp":2,"stimulus":[],"xmouse":[808,808,808,808,808,808,808,808,808,808,808,808,808,808,808,808,808,808,808,808,808,808,808,808,808,808,808,808,808,808,808,808,808,808,808,808,808,808,808,808,808,808,808,808,808,808,808,808,808,808,808,808,808,808,808,808,808,808,808,808,808,808,808,808,808,808,808,808,808,808,808,808,808,808,808,808,830,842,855,875,892,929,948,961,976,987,1013,1025,1034,1044,1056,1090,1104,1115,1122,1124,1125,1125,1125,1125,1125,1125,1122,1113],"ymouse":[610,610,610,610,610,610,610,610,610,610,610,610,610,610,610,610,610,610,610,610,610,610,610,610,610,610,610,610,610,610,610,610,610,610,610,610,610,610,610,610,610,610,610,610,610,610,610,610,610,610,610,610,610,610,610,610,610,610,610,610,610,610,610,610,610,610,610,610,610,610,610,610,610,610,610,609,578,563,545,518,495,437,403,373,340,323,286,269,252,236,217,173,156,148,141,136,135,135,135,135,135,124,107,88],"timestamp_mouse":[19,37,46,65,85,105,126,145,166,185,206,226,245,266,287,306,325,347,365,385,406,425,446,466,485,505,525,546,566,586,607,625,646,665,687,706,726,746,767,786,806,826,847,866,885,905,925,946,965,985,1006,1026,1045,1066,1087,1105,1125,1146,1165,1186,1205,1226,1245,1266,1285,1306,1326,1345,1366,1385,1406,1425,1447,1466,1486,1506,1526,1546,1565,1586,1606,1626,1645,1666,1685,1706,1726,1745,1765,1786,1806,1826,1845,1866,1886,1905,1926,1946,1966,1985,2006,2026,2045,2067],"xSR":741.5,"ySR":573.95,"xT1":424.9,"yT1":0,"xT2":1058.1,"yT2":0,"toosoon":0,"cond_shown":"Congruent","ratio_trial":300,"L_num":3,"L_den":6,"R_num":4,"R_den":5,"correct_side":2,"subjID":"LidaDiaz21","gender":"1","school":"4","age":"9 años"},{"start_time":1552054335075,"click_time":1552054337216,"finger_time":1552054336376,"fix_duration":856.7491821132415,"trial":47,"RT":1301,"MT":840,"sideResp":1,"stimulus":[],"xmouse":[798,798,798,798,798,798,798,798,798,798,798,798,798,798,798,798,798,798,798,798,798,798,798,798,798,798,798,798,798,798,798,798,798,798,798,798,798,798,798,798,798,798,798,798,798,798,798,798,798,798,798,798,798,798,798,798,798,798,798,798,798,798,798,798,797,775,763,752,734,717,681,670,663,655,645,612,599,587,575,570,570,570,569,569,569,569,568,567,566,565,563,563,563,561,560,551,548,546,546,544,543,543,542,541,538,519,508,495],"ymouse":[606,606,606,606,606,606,606,606,606,606,606,606,606,606,606,606,606,606,606,606,606,606,606,606,606,606,606,606,606,606,606,606,606,606,606,606,606,606,606,606,606,606,606,606,606,606,606,606,606,606,606,606,606,606,606,606,606,606,606,606,606,606,606,606,601,564,547,534,516,496,465,454,443,430,406,350,337,324,313,309,308,306,301,296,289,264,250,243,236,228,221,217,212,207,201,187,183,181,180,178,175,173,170,166,158,129,110,86],"timestamp_mouse":[10,38,42,61,81,101,121,142,163,182,202,221,243,262,283,302,321,342,363,382,402,421,442,461,482,502,521,542,563,581,601,623,643,663,682,701,722,741,762,782,803,822,842,861,882,903,922,941,962,983,1001,1022,1041,1061,1082,1102,1122,1143,1162,1181,1202,1222,1243,1262,1282,1301,1321,1341,1361,1382,1401,1423,1442,1462,1481,1501,1522,1541,1562,1582,1602,1622,1641,1662,1681,1701,1722,1741,1762,1781,1801,1821,1841,1861,1882,1901,1922,1942,1962,1981,2001,2021,2041,2063,2082,2101,2121,2141],"xSR":741.5,"ySR":573.95,"xT1":424.9,"yT1":0,"xT2":1058.1,"yT2":0,"toosoon":0,"cond_shown":"Incongruent","ratio_trial":100,"L_num":9,"L_den":10,"R_num":20,"R_den":25,"correct_side"