[{"start_time":1552054850871,"click_time":1552054852456,"finger_time":1552054851837,"fix_duration":730.695106183601,"trial":0,"RT":966,"MT":619,"sideResp":2,"stimulus":"img/900/equaldotsize/R/12_Ratio_900_L_18_R_20.png","xmouse":[810,810,810,810,810,810,810,810,810,810,810,810,810,810,810,810,810,810,810,810,810,810,810,810,810,810,810,810,810,810,810,810,810,810,810,810,810,810,810,810,810,811,811,812,815,817,818,827,846,854,865,876,888,929,938,944,946,948,950,955,957,960,963,967,972,973,976,981,1008,1020,1032,1038,1044,1051,1072,1079,1084,1089,1092,1093],"ymouse":[508,508,508,508,508,508,508,508,508,508,508,508,508,508,508,508,508,508,508,508,508,508,508,508,508,508,508,508,508,508,508,508,508,508,508,508,508,508,508,508,508,508,507,507,504,503,502,488,460,444,429,413,397,324,309,295,287,281,273,261,254,247,239,230,220,217,212,206,188,181,174,170,166,161,144,137,128,119,110,99],"timestamp_mouse":[10,44,44,65,85,106,124,145,166,184,204,225,246,266,286,306,325,345,365,385,406,425,446,464,486,506,525,544,566,585,606,625,645,666,684,705,726,746,765,786,805,825,844,865,886,905,926,945,966,985,1005,1024,1046,1067,1085,1106,1125,1145,1164,1185,1206,1226,1245,1265,1285,1305,1325,1346,1367,1385,1405,1425,1445,1466,1486,1505,1526,1546,1565,1585],"xSR":741.5,"ySR":469.95,"xT1":424.9,"yT1":0,"xT2":1058.1,"yT2":0,"toosoon":0,"cond_shown":"equaldotsize","ratio_trial":900,"smaller_num":"18","larger_num":"20","correct_side":2,"subjID":"LidaDiaz21","gender":"1","age":"9","school":"4","test":{"fix_dur":[250,1500],"timestim":300,"targets_dim":[100,100],"targets_relative_coord":[0.3,0.7],"size_stim":[880,420],"start_dim":[100,100],"size_start":[300,300],"size_fix":60,"samplingrate":20,"img_types":["equaldotsize","equaldotanddens","randomdotsizeEA"],"ratios":[250,500,750,900],"rep_conds":9,"nTrials":120,"trials_to_rest":500,"Trials_order":[117,63,9,89,111,70,83,34,13,36,95,20,84,35,104,90,26,67,77,92,73,102,2,80,40,48,11,7,42,57,108,68,110,16,64,109,53,99,43,75,54,51,105,4,30,24,114,85,94,71,31,87,78,81,113,10,39,32,74,97,52,119,55,107,96,88,79,37,100,65,103,60,17,106,1,101,93,45,76,61,47,15,118,14,116,8,69,12,23,19,44,91,59,58,49,50,98,5,38,62,46,29,33,25,66,112,6,72,3,82,21,56,22,0,115,41,18,86,27,28],"cond_shown":["equaldotsize","equaldotsize","equaldotsize","randomdotsizeEA","equaldotsize","equaldotanddens","randomdotsizeEA","equaldotanddens","equaldotanddens","equaldotsize","randomdotsizeEA","randomdotsizeEA","equaldotsize","randomdotsizeEA","randomdotsizeEA","equaldotsize","randomdotsizeEA","equaldotanddens","randomdotsizeEA","randomdotsizeEA","equaldotanddens","equaldotsize","randomdotsizeEA","randomdotsizeEA","equaldotanddens","equaldotsize","randomdotsizeEA","equaldotanddens","equaldotsize","equaldotsize","equaldotsize","randomdotsizeEA","randomdotsizeEA","equaldotanddens","equaldotanddens","equaldotanddens","randomdotsizeEA","equaldotsize","equaldotanddens","equaldotsize","equaldotsize","equaldotsize","equaldotsize","equaldotanddens","equaldotsize","equaldotsize","equaldotsize","equaldotanddens","equaldotanddens","randomdotsizeEA","equaldotanddens","equaldotsize","equaldotsize","equaldotsize","randomdotsizeEA","equaldotanddens","equaldotsize","randomdotsizeEA","randomdotsizeEA","equaldotanddens","equaldotanddens","randomdotsizeEA","equaldotanddens","randomdotsizeEA","equaldotsize","equaldotanddens","equaldotanddens","equaldotanddens","equaldotanddens","randomdotsizeEA","equaldotanddens","equaldotsize","randomdotsizeEA","equaldotanddens","equaldotanddens","randomdotsizeEA","equaldotsize","equaldotsize","equaldotanddens","equaldotanddens","randomdotsizeEA","equaldotsize","equaldotanddens","randomdotsizeEA","randomdotsizeEA","randomdotsizeEA","equaldotsize","equaldotsize","randomdotsizeEA","equaldotanddens","randomdotsizeEA","equaldotanddens","randomdotsizeEA","equaldotanddens","equaldotanddens","randomdotsizeEA","randomdotsizeEA","randomdotsizeEA","randomdotsizeEA","randomdotsizeEA","equaldotanddens","randomdotsizeEA","equaldotsize","equaldotanddens","equaldotsize","equaldotanddens","equaldotsize","equaldotsize","equaldotsize","equaldotanddens","equaldotsize","randomdotsizeEA","equaldotanddens","equaldotsize","equaldotanddens","randomdotsizeEA","equaldotsize","randomdotsizeEA","equaldotsize","equaldotanddens"],"ratio_trial":[900,500,900,500,500,900,900,900,250,250,900,750,250,900,750,750,250,750,500,750,250,750,250,750,500,250,900,750,750,900,250,750,250,500,500,250,500,500,750,500,750,500,900,500,750,250,750,250,900,900,750,500,750,900,500,900,500,750,250,250,500,900,750,900,250,500,750,250,500,500,750,250,500,900,250,500,900,900,500,250,900,500,900,250,750,750,900,250,900,750,750,750,900,900,250,250,250,500,250,250,900,500,900,250,750,500,750,250,500,900,900,750,900,250,750,500,750,250,500,500],"smaller_num":["18","6","9","2","5","9","18","18","2","6","9","3","3","9","3","3","2","12","9","3","5","15","6","15","2","2","18","9","3","9","5","18","3","9","3","5","6","2","15","3","3","1","9","9","15","2","15","5","18","18","15","6","3","18","9","18","9","15","6","4","2","18","12","18","5","9","9","2","2","6","6","4","9","18","2","1","9","18","9","3","18","6","18","3","3","15","9","3","9","6","3","3","9","9","2","2","6","9","6","2","9","5","9","5","6","9","6","4","9","18","18","12","18","3","6","5","9","3","5","10"],"larger_num":["20","12","10","4","10","10","20","20","8","24","10","4","12","10","4","4","8","16","18","4","20","20","24","20","4","8","20","12","4","10","20","24","12","18","6","20","12","4","20","6","4","2","10","18","20","8","20","20","20","20","20","12","4","20","18","20","18","20","24","16","4","20","16","20","20","18","12","8","4","12","8","16","18","20","8","2","10","20","18","12","20","12","20","12","4","20","10","12","10","8","4","4","10","10","8","8","24","18","24","8","10","10","10","20","8","18","8","16","18","20","20","16","20","12","8","10","12","12","10","20"],"correct_side":[2,1,2,2,2,2,1,2,1,1,1,1,2,1,2,1,1,2,2,2,2,2,2,1,1,2,1,2,2,2,2,1,1,2,2,2,1,2,1,2,1,2,1,1,2,2,2,2,2,2,1,1,1,2,2,1,2,2,1,2,1,2,2,1,2,1,2,2,1,1,1,2,2,1,1,2,1,2,2,2,1,1,1,1,1,2,2,2,2,1,1,1,2,1,2,1,1,2,2,1,1,2,2,2,2,2,1,2,1,1,2,2,1,1,1,2,2,1,2,2],"img_shown":["img/900/equaldotsize/R/12_Ratio_900_L_18_R_20.png","img/500/equaldotsize/L/13_Ratio_500_L_12_R_6.png","img/900/equaldotsize/R/6_Ratio_900_L_9_R_10.png","img/500/randomdotsizeEA/R/9_Ratio_500_L_2_R_4.png","img/500/equaldotsize/R/14_Ratio_500_L_5_R_10.png","img/900/equaldotanddens/R/3_Ratio_900_L_9_R_10.png","img/900/randomdotsizeEA/L/4_Ratio_900_L_20_R_18.png","img/900/equaldotanddens/R/11_Ratio_900_L_18_R_20.png","img/250/equaldotanddens/L/1_Ratio_250_L_8_R_2.png","img/250/equaldotsize/L/5_Ratio_250_L_24_R_6.png","img/900/randomdotsizeEA/L/1_Ratio_900_L_10_R_9.png","img/750/randomdotsizeEA/L/10_Ratio_750_L_4_R_3.png","img/250/equaldotsize/R/11_Ratio_250_L_3_R_12.png","img/900/randomdotsizeEA/L/1_Ratio_900_L_10_R_9.png","img/750/randomdotsizeEA/R/7_Ratio_750_L_3_R_4.png","img/750/equaldotsize/L/8_Ratio_750_L_4_R_3.png","img/250/randomdotsizeEA/L/7_Ratio_250_L_8_R_2.png","img/750/equaldotanddens/R/11_Ratio_750_L_12_R_16.png","img/500/randomdotsizeEA/R/6_Ratio_500_L_9_R_18.png","img/750/randomdotsizeEA/R/12_Ratio_750_L_3_R_4.png","img/250/equaldotanddens/R/12_Ratio_250_L_5_R_20.png","img/750/equaldotsize/R/5_Ratio_750_L_15_R_20.png","img/250/randomdotsizeEA/R/6_Ratio_250_L_6_R_24.png","img/750/randomdotsizeEA/L/1_Ratio_750_L_20_R_15.png","img/500/equaldotanddens/L/10_Ratio_500_L_4_R_2.png","img/250/equaldotsize/R/13_Ratio_250_L_2_R_8.png","img/900/randomdotsizeEA/L/10_Ratio_900_L_20_R_18.png","img/750/equaldotanddens/R/15_Ratio_750_L_9_R_12.png","img/750/equaldotsize/R/7_Ratio_750_L_3_R_4.png","img/900/equaldotsize/R/3_Ratio_900_L_9_R_10.png","img/250/equaldotsize/R/12_Ratio_250_L_5_R_20.png","img/750/randomdotsizeEA/L/6_Ratio_750_L_24_R_18.png","img/250/randomdotsizeEA/L/14_Ratio_250_L_12_R_3.png","img/500/equaldotanddens/R/6_Ratio_500_L_9_R_18.png","img/500/equaldotanddens/R/2_Ratio_500_L_3_R_6.png","img/250/equaldotanddens/R/12_Ratio_250_L_5_R_20.png","img/500/randomdotsizeEA/L/11_Ratio_500_L_12_R_6.png","img/500/equaldotsize/R/9_Ratio_500_L_2_R_4.png","img/750/equaldotanddens/L/1_Ratio_750_L_20_R_15.png","img/500/equaldotsize/R/2_Ratio_500_L_3_R_6.png","img/750/equaldotsize/L/10_Ratio_750_L_4_R_3.png","img/500/equaldotsize/R/15_Ratio_500_L_1_R_2.png","img/900/equaldotsize/L/1_Ratio_900_L_10_R_9.png","img/500/equaldotanddens/L/4_Ratio_500_L_18_R_9.png","img/750/equaldotsize/R/4_Ratio_750_L_15_R_20.png","img/250/equaldotsize/R/13_Ratio_250_L_2_R_8.png","img/750/equaldotsize/R/4_Ratio_750_L_15_R_20.png","img/250/equaldotanddens/R/12_Ratio_250_L_5_R_20.png","img/900/equaldotanddens/R/12_Ratio_900_L_18_R_20.png","img/900/randomdotsizeEA/R/11_Ratio_900_L_18_R_20.png","img/750/equaldotanddens/L/1_Ratio_750_L_20_R_15.png","img/500/equaldotsize/L/13_Ratio_500_L_12_R_6.png","img/750/equaldotsize/L/10_Ratio_750_L_4_R_3.png","img/900/equaldotsize/R/11_Ratio_900_L_18_R_20.png","img/500/randomdotsizeEA/R/1_Ratio_500_L_9_R_18.png","img/900/equaldotanddens/L/2_Ratio_900_L_20_R_18.png","img/500/equaldotsize/R/6_Ratio_500_L_9_R_18.png","img/750/randomdotsizeEA/R/4_Ratio_750_L_15_R_20.png","img/250/randomdotsizeEA/L/5_Ratio_250_L_24_R_6.png","img/250/equaldotanddens/R/10_Ratio_250_L_4_R_16.png","img/500/equaldotanddens/L/5_Ratio_500_L_4_R_2.png","img/900/randomdotsizeEA/R/11_Ratio_900_L_18_R_20.png","img/750/equaldotanddens/R/11_Ratio_750_L_12_R_16.png","img/900/randomdotsizeEA/L/8_Ratio_900_L_20_R_18.png","img/250/equaldotsize/R/12_Ratio_250_L_5_R_20.png","img/500/equaldotanddens/L/4_Ratio_500_L_18_R_9.png","img/750/equaldotanddens/R/15_Ratio_750_L_9_R_12.png","img/250/equaldotanddens/R/13_Ratio_250_L_2_R_8.png","img/500/equaldotanddens/L/10_Ratio_500_L_4_R_2.png","img/500/randomdotsizeEA/L/13_Ratio_500_L_12_R_6.png","img/750/equaldotanddens/L/14_Ratio_750_L_8_R_6.png","img/250/equaldotsize/R/10_Ratio_250_L_4_R_16.png","img/500/randomdotsizeEA/R/1_Ratio_500_L_9_R_18.png","img/900/equaldotanddens/L/8_Ratio_900_L_20_R_18.png","img/250/equaldotanddens/L/1_Ratio_250_L_8_R_2.png","img/500/randomdotsizeEA/R/15_Ratio_500_L_1_R_2.png","img/900/equaldotsize/L/1_Ratio_900_L_10_R_9.png","img/900/equaldotsize/R/9_Ratio_900_L_18_R_20.png","img/500/equaldotanddens/R/6_Ratio_500_L_9_R_18.png","img/250/equaldotanddens/R/11_Ratio_250_L_3_R_12.png","img/900/randomdotsizeEA/L/10_Ratio_900_L_20_R_18.png","img/500/equaldotsize/L/13_Ratio_500_L_12_R_6.png","img/900/equaldotanddens/L/2_Ratio_900_L_20_R_18.png","img/250/randomdotsizeEA/L/14_Ratio_250_L_12_R_3.png","img/750/randomdotsizeEA/L/9_Ratio_750_L_4_R_3.png","img/750/randomdotsizeEA/R/3_Ratio_750_L_15_R_20.png","img/900/equaldotsize/R/3_Ratio_900_L_9_R_10.png","img/250/equaldotsize/R/4_Ratio_250_L_3_R_12.png","img/900/randomdotsizeEA/R/5_Ratio_900_L_9_R_10.png","img/750/equaldotanddens/L/13_Ratio_750_L_8_R_6.png","img/750/randomdotsizeEA/L/8_Ratio_750_L_4_R_3.png","img/750/equaldotanddens/L/10_Ratio_750_L_4_R_3.png","img/900/randomdotsizeEA/R/5_Ratio_900_L_9_R_10.png","img/900/equaldotanddens/L/1_Ratio_900_L_10_R_9.png","img/250/equaldotanddens/R/13_Ratio_250_L_2_R_8.png","img/250/randomdotsizeEA/L/3_Ratio_250_L_8_R_2.png","img/250/randomdotsizeEA/L/5_Ratio_250_L_24_R_6.png","img/500/randomdotsizeEA/R/1_Ratio_500_L_9_R_18.png","img/250/randomdotsizeEA/R/6_Ratio_250_L_6_R_24.png","img/250/randomdotsizeEA/L/3_Ratio_250_L_8_R_2.png","img/900/equaldotanddens/L/1_Ratio_900_L_10_R_9.png","img/500/randomdotsizeEA/R/14_Ratio_500_L_5_R_10.png","img/900/equaldotsize/R/6_Ratio_900_L_9_R_10.png","img/250/equaldotanddens/R/12_Ratio_250_L_5_R_20.png","img/750/equaldotsize/R/2_Ratio_750_L_6_R_8.png","img/500/equaldotanddens/R/1_Ratio_500_L_9_R_18.png","img/750/equaldotsize/L/13_Ratio_750_L_8_R_6.png","img/250/equaldotsize/R/10_Ratio_250_L_4_R_16.png","img/500/equaldotsize/L/4_Ratio_500_L_18_R_9.png","img/900/equaldotanddens/L/2_Ratio_900_L_20_R_18.png","img/900/equaldotsize/R/9_Ratio_900_L_18_R_20.png","img/750/randomdotsizeEA/R/11_Ratio_750_L_12_R_16.png","img/900/equaldotanddens/L/4_Ratio_900_L_20_R_18.png","img/250/equaldotsize/L/14_Ratio_250_L_12_R_3.png","img/750/equaldotanddens/L/14_Ratio_750_L_8_R_6.png","img/500/randomdotsizeEA/R/14_Ratio_500_L_5_R_10.png","img/750/equaldotsize/R/15_Ratio_750_L_9_R_12.png","img/250/randomdotsizeEA/L/15_Ratio_250_L_12_R_3.png","img/500/equaldotsize/R/14_Ratio_500_L_5_R_10.png","img/500/equaldotanddens/R/3_Ratio_500_L_10_R_20.png"],"Rat0":[["12_Ratio_0_L_9_R_0.png","13_Ratio_0_L_6_R_0.png","5_Ratio_0_L_2_R_0.png","6_Ratio_0_L_4_R_0.png","8_Ratio_0_L_6_R_0.png"],["1_Ratio_0_L_0_R_17.png","10_Ratio_0_L_0_R_22.png","11_Ratio_0_L_0_R_1.png","14_Ratio_0_L_0_R_24.png","15_Ratio_0_L_0_R_4.png","2_Ratio_0_L_0_R_5.png","3_Ratio_0_L_0_R_17.png","4_Ratio_0_L_0_R_7.png","7_Ratio_0_L_0_R_19.png","9_Ratio_0_L_0_R_15.png"]],"Rat250":[["1_Ratio_250_L_8_R_2.png","14_Ratio_250_L_12_R_3.png","15_Ratio_250_L_12_R_3.png","2_Ratio_250_L_16_R_4.png","3_Ratio_250_L_8_R_2.png","5_Ratio_250_L_24_R_6.png","7_Ratio_250_L_8_R_2.png"],["10_Ratio_250_L_4_R_16.png","11_Ratio_250_L_3_R_12.png","12_Ratio_250_L_5_R_20.png","13_Ratio_250_L_2_R_8.png","4_Ratio_250_L_3_R_12.png","6_Ratio_250_L_6_R_24.png","8_Ratio_250_L_1_R_4.png","9_Ratio_250_L_3_R_12.png"]],"Rat500":[["10_Ratio_500_L_4_R_2.png","11_Ratio_500_L_12_R_6.png","13_Ratio_500_L_12_R_6.png","4_Ratio_500_L_18_R_9.png","5_Ratio_500_L_4_R_2.png","7_Ratio_500_L_10_R_5.png","8_Ratio_500_L_8_R_4.png"],["1_Ratio_500_L_9_R_18.png","12_Ratio_500_L_1_R_2.png","14_Ratio_500_L_5_R_10.png","15_Ratio_500_L_1_R_2.png","2_Ratio_500_L_3_R_6.png","3_Ratio_500_L_10_R_20.png","6_Ratio_500_L_9_R_18.png","9_Ratio_500_L_2_R_4.png"]],"Rat750":[["1_Ratio_750_L_20_R_15.png","10_Ratio_750_L_4_R_3.png","13_Ratio_750_L_8_R_6.png","14_Ratio_750_L_8_R_6.png","6_Ratio_750_L_24_R_18.png","8_Ratio_750_L_4_R_3.png","9_Ratio_750_L_4_R_3.png"],["11_Ratio_750_L_12_R_16.png","12_Ratio_750_L_3_R_4.png","15_Ratio_750_L_9_R_12.png","2_Ratio_750_L_6_R_8.png","3_Ratio_750_L_15_R_20.png","4_Ratio_750_L_15_R_20.png","5_Ratio_750_L_15_R_20.png","7_Ratio_750_L_3_R_4.png"]],"Rat900":[["1_Ratio_900_L_10_R_9.png","10_Ratio_900_L_20_R_18.png","2_Ratio_900_L_20_R_18.png","4_Ratio_900_L_20_R_18.png","8_Ratio_900_L_20_R_18.png"],["11_Ratio_900_L_18_R_20.png","12_Ratio_900_L_18_R_20.png","13_Ratio_900_L_18_R_20.png","14_Ratio_900_L_18_R_20.png","15_Ratio_900_L_9_R_10.png","3_Ratio_900_L_9_R_10.png","5_Ratio_900_L_9_R_10.png","6_Ratio_900_L_9_R_10.png","7_Ratio_900_L_9_R_10.png","9_Ratio_900_L_18_R_20.png"]],"Rat1000":[["10_Ratio_1000_L_16_R_16.png","11_Ratio_1000_L_6_R_6.png","12_Ratio_1000_L_14_R_14.png","13_Ratio_1000_L_20_R_20.png","15_Ratio_1000_L_15_R_15.png","2_Ratio_1000_L_17_R_17.png","4_Ratio_1000_L_9_R_9.png","5_Ratio_1000_L_6_R_6.png","6_Ratio_1000_L_19_R_19.png","8_Ratio_1000_L_14_R_14.png","9_Ratio_1000_L_25_R_25.png"],["1_Ratio_1000_L_1_R_1.png","14_Ratio_1000_L_17_R_17.png","3_Ratio_1000_L_17_R_17.png","7_Ratio_1000_L_6_R_6.png"]]}},{"start_time":1552054854650,"click_time":1552054856016,"finger_time":1552054855616,"fix_duration":910.8203057050254,"trial":1,"RT":966,"MT":400,"sideResp":1,"stimulus":"img/500/equaldotsize/L/13_Ratio_500_L_12_R_6.png","xmouse":[786,786,786,786,786,786,786,786,786,786,786,786,786,786,786,786,786,786,786,786,786,786,786,786,786,786,786,786,786,786,786,786,786,786,786,786,786,786,786,785,776,767,763,762,762,762,762,750,734,688,555,507,482,475,470,469,469,469,469,469,469,469,469,469,469,469,469,468,462],"ymouse":[534,534,534,534,534,534,534,534,534,534,534,534,534,534,534,534,534,534,534,534,534,534,534,534,534,534,534,534,534,534,534,534,534,534,534,534,534,534,534,535,540,545,548,548,548,548,548,507,470,400,265,216,184,165,149,144,144,144,143,142,139,139,139,139,139,126,114,103,85],"timestamp_mouse":[14,35,47,66,85,106,127,147,166,187,205,226,246,266,287,306,327,346,366,386,407,427,447,466,487,507,527,547,565,586,607,627,647,666,686,706,727,746,766,786,805,826,845,866,886,906,927,946,966,987,1005,1026,1046,1066,1085,1106,1127,1146,1166,1187,1206,1225,1246,1266,1286,1306,1326,1346,1366],"xSR":741.5,"ySR":469.95,"xT1":424.9,"yT1":0,"xT2":1058.1,"yT2":0,"toosoon":0,"cond_shown":"equaldotsize","ratio_trial":500,"smaller_num":"6","larger_num":"12","correct_side":1,"subjID":"LidaDiaz21","gender":"1","age":"9","school":"4"},{"start_time":1552054857854,"click_time":1552054859276,"finger_time":1552054858736,"fix_duration":836.3967082481147,"trial":2,"RT":882,"MT":540,"sideResp":2,"stimulus":"img/900/equaldotsize/R/6_Ratio_900_L_9_R_10.png","xmouse":[770,770,770,770,770,770,770,770,770,770,770,770,770,770,770,770,770,770,770,770,770,770,770,770,770,770,770,770,770,770,770,770,770,770,770,770,770,770,770,770,771,773,783,802,830,843,858,873,891,926,947,951,958,963,973,977,980,983,984,987,994,1001,1009,1015,1027,1034,1040,1047,1055,1064,1066],"ymouse":[531,531,531,531,531,531,531,531,531,531,531,531,531,531,531,531,531,531,531,531,531,531,531,531,531,531,531,531,531,531,531,531,531,531,531,531,531,531,531,531,530,530,508,465,400,376,355,335,319,295,284,279,273,266,247,239,233,227,225,221,210,202,191,183,164,153,142,130,116,101,97],"timestamp_mouse":[13,45,62,81,101,122,143,161,183,202,222,242,263,282,301,322,342,363,382,402,423,443,463,482,501,522,543,562,582,603,622,643,663,683,702,723,742,762,782,803,822,842,862,882,903,921,943,963,982,1002,1021,1041,1063,1082,1104,1121,1141,1161,1182,1202,1221,1242,1262,1282,1303,1323,1342,1361,1381,1404,1422],"xSR":741.5,"ySR":469.95,"xT1":424.9,"yT1":0,"xT2":1058.1,"yT2":0,"toosoon":0,"cond_shown":"equaldotsize","ratio_trial":900,"smaller_num":"9","larger_num":"10","correct_side":2,"subjID":"LidaDiaz21","gender":"1","age":"9","school":"4"},{"start_time":1552054861215,"click_time":1552054863255,"finger_time":1552054862135,"fix_duration":537.9335233072183,"trial":3,"RT":920,"MT":1120,"sideResp":2,"stimulus":"img/500/randomdotsizeEA/R/9_Ratio_500_L_2_R_4.png","xmouse":[796,796,796,796,796,796,796,796,796,796,796,796,796,796,796,796,796,796,796,796,796,796,796,796,796,796,796,796,796,796,796,796,796,796,796,796,796,796,796,796,796,796,796,796,794,792,790,786,771,766,761,756,746,729,720,710,700,687,665,656,646,635,628,611,602,591,580,572,567,567,567,567,567,567,571,576,581,586,605,620,640,662,698,756,786,816,847,882,942,964,980,992,1004,1013,1013,1013,1014,1015,1023,1029,1040,1053,1064],"ymouse":[506,506,506,506,506,506,506,506,506,506,506,506,506,506,506,506,506,506,506,506,506,506,506,506,506,506,506,506,506,506,506,506,506,506,506,506,506,506,506,506,506,506,506,506,501,477,458,447,420,412,401,390,377,358,347,336,326,316,300,292,284,274,268,245,231,217,205,194,185,185,184,184,184,184,184,184,185,188,201,208,216,224,231,235,235,233,227,218,198,187,175,165,151,130,128,126,125,120,108,99,87,76,68],"timestamp_mouse":[11,22,41,61,81,101,122,141,160,180,200,222,242,261,282,301,321,341,361,380,401,422,441,462,481,501,522,542,561,582,600,622,642,662,681,702,721,741,762,781,802,822,841,860,881,901,920,941,961,981,1000,1020,1041,1061,1081,1101,1121,1142,1160,1181,1201,1222,1242,1261,1281,1301,1321,1341,1360,1381,1401,1421,1440,1460,1482,1501,1521,1542,1561,1582,1600,1621,1640,1661,1681,1703,1720,1742,1760,1782,1802,1821,1840,1861,1881,1901,1922,1940,1960,1981,2002,2022,2040],"xSR":741.5,"ySR":469.95,"xT1":424.9,"yT1":0,"xT2":1058.1,"yT2":0,"toosoon":0,"cond_shown":"randomdotsizeEA","ratio_trial":500,"smaller_num":"2","larger_num":"4","correct_side":2,"subjID":"LidaDiaz21","gender":"1","age":"9","school":"4"},{"start_time":1552054869827,"click_time":1552054871396,"finger_time":1552054870796,"fix_duration":869.8630891901006,"trial":4,"RT":969,"MT":600,"sideResp":2,"stimulus":"img/500/equaldotsize/R/14_Ratio_500_L_5_R_10.png","xmouse":[795,795,795,795,795,795,795,795,795,795,795,795,795,795,795,795,795,795,795,795,795,795,795,795,795,795,795,795,795,795,795,795,795,795,795,795,795,795,795,795,797,799,806,813,815,818,820,828,852,858,866,875,885,918,933,943,952,961,994,1004,1012,1018,1024,1037,1044,1046,1047,1047,1048,1050,1054,1060,1069,1080,1084,1088,1093,1097,1111],"ymouse":[546,546,546,546,546,546,546,546,546,546,546,546,546,546,546,546,546,546,546,546,546,546,546,546,546,546,546,546,546,546,546,546,546,546,546,546,546,545,544,543,542,539,524,518,516,512,511,502,469,462,454,443,431,392,378,370,362,352,306,291,278,269,261,239,230,226,225,225,224,222,219,206,186,164,155,146,135,125,96],"timestamp_mouse":[12,36,50,70,89,109,130,149,170,188,209,230,248,269,289,309,329,349,369,388,410,430,450,470,489,510,530,549,569,589,609,629,648,670,689,710,730,749,768,788,809,830,849,869,889,908,929,949,969,991,1008,1028,1049,1069,1089,1110,1129,1150,1168,1189,1210,1230,1249,1268,1289,1309,1329,1349,1369,1390,1410,1429,1449,1469,1489,1509,1530,1549,1569],"xSR":741.5,"ySR":469.95,"xT1":424.9,"yT1":0,"xT2":1058.1,"yT2":0,"toosoon":0,"cond_shown":"equaldotsize","ratio_trial":500,"smaller_num":"5","larger_num":"10","correct_side":2,"subjID":"LidaDiaz21","gender":"1","age":"9","school":"4"},{"start_time":1552054872809,"click_time":1552054874356,"finger_time":1552054873537,"fix_duration":250,"trial":5,"RT":728,"MT":819,"sideResp":2,"stimulus":"img/900/equaldotanddens/R/3_Ratio_900_L_9_R_10.png","xmouse":[773,773,774,774,774,774,774,774,774,774,773,773,773,772,772,772,771,770,770,769,769,769,769,769,769,769,769,769,769,769,769,771,778,787,799,805,809,813,817,820,821,827,832,837,847,848,850,851,858,874,882,891,898,904,916,925,933,940,945,957,964,977,991,1006,1034,1046,1054,1064,1067,1071,1073,1074,1076,1079,1092,1100,1109,1119],"ymouse":[527,527,527,526,526,526,526,526,526,525,524,523,523,522,522,522,521,520,519,519,519,519,519,519,519,518,518,518,518,518,517,511,502,493,477,470,462,455,449,445,439,429,421,414,402,400,396,393,384,363,354,344,337,330,316,307,300,292,287,276,269,258,246,233,210,200,193,182,177,172,169,166,160,153,130,119,108,94],"timestamp_mouse":[15,33,48,66,87,107,127,147,167,188,207,228,247,267,288,307,328,348,368,386,408,428,446,466,487,507,526,547,567,587,607,627,647,667,686,707,728,747,767,787,807,827,847,867,888,908,928,947,968,987,1006,1027,1047,1067,1087,1107,1127,1148,1167,1188,1206,1227,1247,1267,1287,1306,1326,1347,1367,1387,1406,1427,1447,1468,1488,1506,1527,1547],"xSR":741.5,"ySR":469.95,"xT1":424.9,"yT1":0,"xT2":1058.1,"yT2":0,"toosoon":0,"cond_shown":"equaldotanddens","ratio_trial":900,"smaller_num":"9","larger_num":"10","correct_side":2,"subjID":"LidaDiaz21","gender":"1","age":"9","school":"4"},{"start_time":1552054876975,"click_time":1552054878416,"finger_time":1552054877837,"fix_duration":1317.5783898128936,"trial":6,"RT":862,"MT":579,"sideResp":2,"stimulus":"img/900/randomdotsizeEA/L/4_Ratio_900_L_20_R_18.png","xmouse":[808,808,808,808,808,808,808,808,808,808,808,808,808,808,808,808,808,808,808,808,808,808,808,808,808,808,808,808,808,808,808,808,808,808,808,808,808,808,808,808,808,812,819,823,828,831,834,840,851,861,869,883,924,947,969,985,999,1013,1020,1028,1039,1066,1078,1088,1097,1103,1106,1108,1110,1110,1111,1113,1113],"ymouse":[495,495,495,495,495,495,495,495,495,495,495,495,495,495,495,495,495,495,495,495,495,495,495,495,495,495,495,495,495,495,495,495,495,495,495,495,495,495,495,495,493,485,476,469,462,456,452,442,430,419,411,400,366,348,333,321,312,303,295,285,273,247,233,220,206,198,193,175,161,147,127,101,93],"timestamp_mouse":[20,20,41,61,82,100,122,141,161,181,202,222,241,261,281,300,321,341,362,380,402,420,442,461,480,502,521,541,562,580,602,622,642,662,680,701,722,741,760,782,801,822,842,862,882,900,921,941,961,981,1001,1021,1041,1061,1082,1101,1120,1141,1161,1181,1201,1223,1241,1261,1281,1301,1321,1341,1362,1382,1401,1423,1441],"xSR":741.5,"ySR":469.95,"xT1":424.9,"yT1":0,"xT2":1058.1,"yT2":0,"toosoon":0,"cond_shown":"randomdotsizeEA","ratio_trial":900,"smaller_num":"18","larger_num":"20","correct_side":1,"subjID":"LidaDiaz21","gender":"1","age":"9","school":"4"},{"start_time":1552054880509,"click_time":1552054881657,"finger_time":1552054881255,"fix_duration":250,"trial":7,"RT":746,"MT":402,"sideResp":2,"stimulus":"img/900/equaldotanddens/R/11_Ratio_900_L_18_R_20.png","xmouse":[793,793,793,793,793,793,793,793,793,793,793,793,793,793,793,793,793,793,793,793,793,793,793,793,793,793,793,793,793,793,793,793,793,794,794,816,830,843,857,877,897,906,911,921,942,1010,1039,1052,1058,1058,1058,1058,1058,1059,1059,1062,1062,1064],"ymouse":[539,539,539,539,539,539,539,539,539,539,539,539,539,539,539,539,539,539,539,539,539,539,539,539,539,539,539,539,539,539,539,539,539,539,537,501,480,463,448,426,403,393,388,373,330,191,152,136,126,125,125,125,125,124,122,106,101,95],"timestamp_mouse":[12,38,46,67,87,108,127,147,167,187,208,227,247,267,286,306,328,348,367,387,408,427,448,467,487,508,528,546,566,587,607,626,647,667,688,707,727,746,766,787,807,828,848,868,888,908,927,947,967,988,1008,1028,1047,1068,1087,1107,1127,1148],"xSR":741.5,"ySR":469.95,"xT1":424.9,"yT1":0,"xT2":1058.1,"yT2":0,"toosoon":0,"cond_shown":"equaldotanddens","ratio_trial":900,"smaller_num":"18","larger_num":"20","correct_side":2,"subjID":"LidaDiaz21","gender":"1","age":"9","school":"4"},{"start_time":1552054884193,"click_time":1552054885636,"finger_time":1552054884977,"fix_duration":1493.8229094543326,"trial":8,"RT":784,"MT":659,"sideResp":1,"stimulus":"img/250/equaldotanddens/L/1_Ratio_250_L_8_R_2.png","xmouse":[818,818,818,818,818,818,818,818,818,818,818,818,818,818,818,818,818,818,818,818,818,818,818,818,818,818,818,818,818,818,816,791,772,756,752,750,750,749,744,729,708,672,657,646,626,612,593,591,591,591,591,591,591,590,585,581,572,557,551,547,547,546,546,545,545,542,531,528,525,520,514,502,468],"ymouse":[511,511,511,511,511,511,511,511,511,511,511,511,511,511,511,511,511,511,511,511,511,511,511,511,511,511,511,511,511,511,513,520,524,525,525,525,525,525,524,516,506,483,461,432,369,339,303,301,301,301,301,301,300,295,286,279,270,248,243,239,238,237,235,231,226,218,192,184,177,166,151,128,83],"timestamp_mouse":[13,40,44,63,82,102,123,143,162,183,203,224,242,263,283,303,324,343,363,384,404,422,444,463,484,504,523,544,564,584,604,624,644,664,683,704,724,744,764,784,804,824,842,863,883,904,926,943,963,982,1003,1024,1043,1064,1084,1103,1122,1143,1163,1183,1204,1224,1243,1263,1283,1303,1324,1342,1363,1384,1403,1424,1443],"xSR":741.5,"ySR":469.95,"xT1":424.9,"yT1":0,"xT2":1058.1,"yT2":0,"toosoon":0,"cond_shown":"equaldotanddens","ratio_trial":250,"smaller_num":"2","larger_num":"8","correct_side":1,"subjID":"LidaDiaz21","gender":"1","age":"9","school":"4"},{"start_time":1552054899502,"click_time":1552054901258,"finger_time":1552054900277,"fix_duration":1383.3598889152909,"trial":9,"RT":775,"MT":981,"sideResp":1,"stimulus":"img/250/equaldotsize/L/5_Ratio_250_L_24_R_6.png","xmouse":[779,779,779,779,779,779,779,779,779,779,779,779,779,779,779,779,779,779,779,779,779,779,779,779,779,779,779,779,779,779,779,779,779,779,779,786,788,784,783,783,784,784,771,768,767,766,766,757,742,707,659,593,561,558,558,558,557,557,554,550,547,547,547,546,544,537,533,530,530,530,532,535,535,535,535,534,529,514,508,500,494,491,490,488,488,487,487,487],"ymouse":[503,503,503,503,503,503,503,503,503,503,503,503,503,503,503,503,503,503,503,503,503,503,503,503,503,503,503,503,503,503,503,503,503,503,503,498,495,471,466,454,446,433,412,408,408,407,407,397,383,367,349,327,304,298,292,287,283,274,269,263,258,255,248,244,237,229,223,221,220,219,216,207,203,198,196,188,179,156,147,138,133,129,126,119,115,108,103,89],"timestamp_mouse":[14,36,54,74,95,114,134,155,175,196,215,235,255,275,296,314,335,354,374,394,414,434,454,474,494,514,535,554,575,595,615,636,654,674,695,714,734,754,775,795,815,834,855,875,894,915,935,955,974,995,1016,1034,1055,1075,1094,1115,1134,1155,1174,1194,1215,1234,1255,1274,1294,1315,1334,1355,1376,1394,1414,1435,1454,1475,1495,1514,1535,1555,1574,1594,1614,1634,1654,1675,1694,1715,1734,1756],"xSR":741.5,"ySR":469.95,"xT1":424.9,"yT1":0,"xT2":1058.1,"yT2":0,"toosoon":0,"cond_shown":"equaldotsize","ratio_trial":250,"smaller_num":"6","larger_num":"24","correct_side":1,"subjID":"LidaDiaz21","gender":"1","age":"9","school":"4"},{"start_time":1552054903816,"click_time":1552054905337,"finger_time":1552054904758,"fix_duration":1237.5427646209348,"trial":10,"RT":942,"MT":579,"sideResp":1,"stimulus":"img/900/randomdotsizeEA/L/1_Ratio_900_L_10_R_9.png","xmouse":[800,800,800,800,800,800,800,800,800,800,800,800,800,800,800,800,800,800,800,800,800,800,800,800,800,800,800,800,800,800,800,800,800,800,800,800,800,800,800,800,800,799,799,800,800,800,800,792,788,779,770,760,751,735,716,698,681,670,658,652,650,644,635,604,593,583,575,557,548,541,535,531,529,524,518,513,509],"ymouse":[538,538,538,538,538,538,538,538,538,538,538,538,538,538,538,538,538,538,538,538,538,538,538,538,538,538,538,538,538,538,538,538,538,538,538,538,538,538,538,538,538,537,537,531,515,507,495,469,460,443,432,421,413,390,364,341,324,316,300,291,283,274,263,228,216,204,193,171,158,148,140,133,129,116,109,103,98],"timestamp_mouse":[10,21,41,60,80,100,121,141,161,180,202,221,241,260,280,301,320,341,360,381,401,420,442,460,480,501,520,540,561,581,601,621,641,661,682,701,720,741,760,780,801,820,842,860,881,901,920,942,960,980,1001,1020,1042,1061,1081,1100,1120,1141,1160,1182,1200,1220,1240,1260,1281,1300,1320,1342,1360,1380,1401,1420,1441,1460,1482,1501,1521],"xSR":741.5,"ySR":469.95,"xT1":424.9,"yT1":0,"xT2":1058.1,"yT2":0,"toosoon":0,"cond_shown":"randomdotsizeEA","ratio_trial":900,"smaller_num":"9","larger_num":"10","correct_side":1,"subjID":"LidaDiaz21","gender":"1","age":"9","school":"4"},{"start_time":1552054907226,"click_time":1552054908776,"finger_time":1552054908177,"fix_duration":587.8694696326883,"trial":11,"RT":951,"MT":599,"sideResp":2,"stimulus":"img/750/randomdotsizeEA/L/10_Ratio_750_L_4_R_3.png","xmouse":[796,796,796,796,796,796,796,796,796,796,796,796,796,796,796,796,796,796,796,796,796,796,796,796,796,796,796,796,796,796,796,796,796,796,796,796,796,797,798,799,801,802,809,812,816,823,831,859,879,894,908,926,941,945,949,953,960,984,996,1011,1023,1042,1059,1068,1076,1084,1091,1105,1112,1118,1123,1127,1130,1131,1132,1132,1132,1132],"ymouse":[537,537,537,537,537,537,537,537,537,537,537,537,537,537,537,537,537,537,537,537,537,537,537,537,537,537,537,537,537,537,537,537,537,537,537,537,534,529,526,524,519,517,506,502,497,488,479,460,450,444,436,424,413,410,405,399,391,361,342,322,303,277,253,242,232,224,216,197,186,175,165,145,124,117,111,107,102,99],"timestamp_mouse":[20,30,50,70,90,110,131,150,171,190,210,230,250,271,292,311,331,351,370,391,411,430,450,471,490,511,532,550,570,592,611,631,650,671,690,710,730,750,771,791,810,831,851,870,891,911,930,951,970,990,1010,1030,1051,1071,1090,1110,1130,1150,1170,1190,1210,1231,1251,1271,1290,1310,1331,1351,1370,1390,1411,1431,1450,1471,1491,1511,1530,1550],"xSR":741.5,"ySR":469.95,"xT1":424.9,"yT1":0,"xT2":1058.1,"yT2":0,"toosoon":0,"cond_shown":"randomdotsizeEA","ratio_trial":750,"smaller_num":"3","larger_num":"4","correct_side":1,"subjID":"LidaDiaz21","gender":"1","age":"9","school":"4"},{"start_time":1552054912220,"click_time":1552054913436,"finger_time":1552054912877,"fix_duration":1421.4628231535407,"trial":12,"RT":657,"MT":559,"sideResp":2,"stimulus":"img/250/equaldotsize/R/11_Ratio_250_L_3_R_12.png","xmouse":[812,812,812,812,812,812,812,812,812,812,812,812,812,812,812,812,812,812,812,812,812,812,812,812,812,812,812,812,812,812,817,827,839,841,844,847,853,862,893,902,912,924,956,975,993,1012,1024,1035,1055,1064,1069,1071,1072,1074,1074,1075,1076,1078,1079,1081,1082],"ymouse":[516,516,516,516,516,516,516,516,516,516,516,516,516,516,516,516,516,516,516,516,516,516,516,516,516,516,516,516,516,516,504,487,462,454,444,435,424,409,371,361,347,331,295,273,254,239,227,214,183,167,159,155,153,146,141,134,128,113,106,102,96],"timestamp_mouse":[17,40,57,76,96,117,137,156,178,196,217,238,256,277,296,317,338,356,377,397,417,438,456,477,497,517,537,557,577,596,616,637,657,676,697,717,736,757,776,797,817,837,858,876,897,918,937,956,976,998,1016,1036,1057,1077,1097,1116,1136,1158,1176,1196,1216],"xSR":741.5,"ySR":469.95,"xT1":424.9,"yT1":0,"xT2":1058.1,"yT2":0,"toosoon":0,"cond_shown":"equaldotsize","ratio_trial":250,"smaller_num":"3","larger_num":"12","correct_side":2,"subjID":"LidaDiaz21","gender":"1","age":"9","school":"4"},{"start_time":1552054916728,"click_time":1552054918237,"finger_time":1552054917577,"fix_duration":250,"trial":13,"RT":849,"MT":660,"sideResp":1,"stimulus":"img/900/randomdotsizeEA/L/1_Ratio_900_L_10_R_9.png","xmouse":[816,816,816,816,816,816,816,816,816,816,816,816,816,816,816,816,816,816,816,816,816,816,816,816,816,816,816,816,816,816,816,816,816,816,816,817,819,819,819,819,819,819,817,812,801,794,786,774,756,714,686,633,601,559,546,535,528,523,517,512,509,507,507,507,507,507,507,507,507,507,507,507,507,506,505,505],"ymouse":[512,512,512,512,512,512,512,512,512,512,512,512,512,512,512,512,512,512,512,512,512,512,512,512,512,512,510,509,508,508,508,508,508,508,507,503,498,495,489,487,483,474,460,444,409,393,376,359,341,318,306,285,271,252,243,235,230,225,218,210,202,186,171,146,137,132,129,126,121,120,118,116,114,108,103,97],"timestamp_mouse":[14,34,48,68,88,108,128,149,169,189,208,229,249,268,288,308,329,350,368,389,408,428,449,468,488,510,528,548,568,588,609,629,649,668,688,709,728,749,770,788,808,829,849,869,889,910,929,948,969,988,1009,1028,1049,1068,1088,1108,1129,1149,1169,1188,1208,1228,1248,1269,1290,1308,1328,1349,1369,1389,1409,1429,1448,1469,1489,1509],"xSR":741.5,"ySR":469.95,"xT1":424.9,"yT1":0,"xT2":1058.1,"yT2":0,"toosoon":0,"cond_shown":"randomdotsizeEA","ratio_trial":900,"smaller_num":"9","larger_num":"10","correct_side":1,"subjID":"LidaDiaz21","gender":"1","age":"9","school":"4"},{"start_time":1552054920891,"click_time":1552054923077,"finger_time":1552054921741,"fix_duration":1232.986814333349,"trial":14,"RT":850,"MT":1336,"sideResp":2,"stimulus":"img/750/randomdotsizeEA/R/7_Ratio_750_L_3_R_4.png","xmouse":[778,778,778,778,778,778,778,778,778,778,778,778,778,778,778,778,778,778,778,778,778,778,778,778,778,778,778,778,778,778,778,778,778,778,778,778,780,783,784,786,793,813,824,826,828,830,831,831,831,830,827,816,803,792,783,769,726,703,676,653,633,604,594,586,580,576,568,565,564,564,563,563,563,563,563,563,563,563,563,562,561,555,553,552,562,625,671,701,718,721,722,722,722,723,735,757,822,853,877,902,943,1010,1042,1056,1057,1057,1057,1058,1058,1060],"ymouse":[505,505,505,505,505,505,505,505,505,505,505,505,505,505,505,505,505,505,505,505,505,505,505,505,505,505,505,505,505,505,505,505,505,505,505,504,502,501,499,498,485,451,437,434,425,414,397,389,382,373,364,338,312,296,277,254,197,172,149,133,118,99,92,86,83,81,77,75,75,75,75,75,75,75,74,74,74,74,74,74,74,79,80,81,84,92,99,104,106,107,107,107,107,107,106,103,102,102,102,102,102,102,99,96,96,96,96,95,95,94],"timestamp_mouse":[13,39,46,66,86,105,125,145,165,186,206,225,246,266,286,306,325,346,365,385,406,425,445,465,486,505,525,546,565,587,606,625,646,665,686,705,726,746,766,787,806,850,851,865,886,905,925,946,965,986,1005,1026,1045,1065,1086,1105,1125,1145,1166,1185,1206,1225,1246,1265,1287,1305,1325,1347,1366,1386,1406,1425,1445,1465,1485,1506,1527,1545,1565,1586,1606,1625,1647,1666,1685,1707,1725,1745,1765,1785,1806,1826,1846,1865,1886,1906,1925,1945,1966,1986,2006,2026,2045,2066,2086,2105,2125,2145,2165,2186],"xSR":741.5,"ySR":469.95,"xT1":424.9,"yT1":0,"xT2":1058.1,"yT2":0,"toosoon":0,"cond_shown":"randomdotsizeEA","ratio_trial":750,"smaller_num":"3","larger_num":"4","correct_side":2,"subjID":"LidaDiaz21","gender":"1","age":"9","school":"4"},{"start_time":1552054924842,"click_time":1552054926077,"finger_time":1552054925817,"fix_duration":604.63403699322,"trial":15,"RT":975,"MT":260,"sideResp":1,"stimulus":"img/750/equaldotsize/L/8_Ratio_750_L_4_R_3.png","xmouse":[784,784,784,784,784,784,784,784,784,784,784,784,784,784,784,784,784,784,784,784,784,784,784,784,784,784,784,784,784,784,784,784,784,784,784,784,784,784,784,784,784,784,784,784,784,784,784,784,747,706,669,633,601,595,593,591,588,580,557,545,534,519],"ymouse":[509,509,509,509,509,509,509,509,509,509,509,509,509,509,509,509,509,509,509,509,509,509,509,509,509,509,509,509,509,509,509,509,509,509,509,509,509,509,509,509,509,509,509,509,509,510,510,510,420,357,305,265,228,216,207,202,192,176,134,113,92,68],"timestamp_mouse":[15,37,56,75,95,114,135,156,174,194,214,235,254,276,296,314,334,354,374,394,414,434,454,475,495,516,535,555,576,595,615,635,655,674,694,714,735,754,774,794,815,834,854,874,894,916,934,954,975,995,1016,1034,1054,1074,1095,1114,1135,1155,1175,1194,1214,1235],"xSR":741.5,"ySR":469.95,"xT1":424.9,"yT1":0,"xT2":1058.1,"yT2":0,"toosoon":0,"cond_shown":"equaldotsize","ratio_trial":750,"smaller_num":"3","larger_num":"4","correct_side":1,"subjID":"LidaDiaz21","gender":"1","age":"9","school":"4"},{"start_time":1552054929201,"click_time":1552054930658,"finger_time":1552054929997,"fix_duration":1361.4945465290425,"trial":16,"RT":796,"MT":661,"sideResp":1,"stimulus":"img/250/randomdotsizeEA/L/7_Ratio_250_L_8_R_2.png","xmouse":[773,773,773,773,773,773,773,773,773,773,773,773,773,773,773,773,773,773,773,773,773,773,773,773,773,773,773,773,773,773,773,773,773,773,773,773,773,774,774,774,773,760,752,749,747,742,723,712,700,692,679,666,652,640,627,617,603,594,584,577,570,563,560,556,551,542,538,537,535,535,534,525,520],"ymouse":[507,507,507,507,507,507,507,507,507,507,507,507,507,507,507,507,507,507,507,507,507,507,507,507,507,507,507,507,507,507,507,507,507,507,507,507,507,491,477,453,426,385,365,359,354,342,303,282,262,248,229,218,208,199,189,183,168,161,147,135,125,108,103,94,85,72,69,67,66,64,62,41,30],"timestamp_mouse":[15,38,55,75,96,115,135,155,176,197,216,236,255,276,296,316,336,355,376,396,415,435,456,475,495,517,535,556,576,595,615,636,655,676,696,715,736,756,775,796,817,836,855,875,895,915,935,956,976,995,1017,1035,1055,1076,1096,1115,1136,1156,1175,1195,1215,1235,1255,1276,1296,1318,1336,1355,1376,1396,1415,1435,1456],"xSR":741.5,"ySR":469.95,"xT1":424.9,"yT1":0,"xT2":1058.1,"yT2":0,"toosoon":0,"cond_shown":"randomdotsizeEA","ratio_trial":250,"smaller_num":"2","larger_num":"8","correct_side":1,"subjID":"LidaDiaz21","gender":"1","age":"9","school":"4"},{"start_time":1552054932791,"click_time":1552054934176,"finger_time":1552054933617,"fix_duration":832.3041210458232,"trial":17,"RT":826,"MT":559,"sideResp":2,"stimulus":"img/750/equaldotanddens/R/11_Ratio_750_L_12_R_16.png","xmouse":[781,781,781,781,781,781,781,781,781,781,781,781,781,781,781,781,781,781,781,781,781,781,781,781,781,781,781,781,781,781,781,781,781,781,781,781,781,789,795,805,816,831,839,846,853,861,869,890,900,907,917,932,954,974,998,1020,1041,1052,1065,1068,1072,1080,1098,1104,1106,1108,1109,1107,1101,1095],"ymouse":[518,518,518,518,518,518,518,518,518,518,518,518,518,518,518,518,518,518,518,518,518,518,518,518,518,518,518,518,518,518,518,518,518,518,518,518,517,506,499,488,477,447,419,406,397,385,372,346,334,326,316,305,292,279,265,256,246,237,224,221,216,208,185,174,165,159,147,119,104,93],"timestamp_mouse":[13,25,46,65,86,106,125,145,167,185,206,225,247,265,286,305,326,346,365,386,406,425,446,465,486,506,525,546,565,586,605,625,646,665,686,706,725,746,765,786,805,826,845,865,885,906,925,945,965,986,1005,1025,1045,1065,1085,1107,1126,1145,1165,1186,1206,1226,1245,1266,1285,1305,1325,1345,1365,1385],"xSR":741.5,"ySR":469.95,"xT1":424.9,"yT1":0,"xT2":1058.1,"yT2":0,"toosoon":0,"cond_shown":"equaldotanddens","ratio_trial":750,"smaller_num":"12","larger_num":"16","correct_side":2,"subjID":"LidaDiaz21","gender":"1","age":"9","school":"4"},{"start_time":1552054936878,"click_time":1552054938156,"finger_time":1552054937637,"fix_duration":1441.7697007392494,"trial":18,"RT":759,"MT":519,"sideResp":2,"stimulus":"img/500/randomdotsizeEA/R/6_Ratio_500_L_9_R_18.png","xmouse":[776,776,776,776,776,776,776,776,776,776,776,776,776,776,776,776,776,776,776,776,776,776,776,776,776,776,776,776,776,776,776,776,776,776,776,778,787,821,838,852,855,861,891,924,987,1038,1084,1114,1114,1115,1116,1119,1129,1159,1168,1169,1169,1169,1169,1169,1168,1163,1160,1157],"ymouse":[515,515,515,515,515,515,515,515,515,515,515,515,515,515,515,515,515,515,515,515,515,515,515,515,515,515,515,515,515,515,515,515,514,513,513,512,499,466,446,430,426,420,386,354,297,266,240,229,229,228,227,221,201,134,116,113,113,111,105,101,95,85,80,75],"timestamp_mouse":[18,42,59,79,99,118,139,158,179,199,219,238,258,279,298,319,340,358,379,398,420,439,459,478,499,519,539,558,579,599,618,639,659,678,699,719,739,759,779,800,819,839,860,878,899,919,938,959,978,1000,1020,1039,1058,1078,1099,1119,1138,1158,1179,1198,1218,1238,1259,1278],"xSR":741.5,"ySR":469.95,"xT1":424.9,"yT1":0,"xT2":1058.1,"yT2":0,"toosoon":0,"cond_shown":"randomdotsizeEA","ratio_trial":500,"smaller_num":"9","larger_num":"18","correct_side":2,"subjID":"LidaDiaz21","gender":"1","age":"9","school":"4"},{"start_time":1552054939590,"click_time":1552054941016,"finger_time":1552054940437,"fix_duration":250,"trial":19,"RT":847,"MT":579,"sideResp":2,"stimulus":"img/750/randomdotsizeEA/R/12_Ratio_750_L_3_R_4.png","xmouse":[815,815,815,815,815,815,815,815,815,815,815,815,815,815,815,815,815,815,815,815,815,815,815,815,815,815,815,815,815,815,815,815,815,815,815,815,815,815,815,815,816,821,848,913,933,950,959,965,970,970,971,971,973,979,985,993,1003,1007,1013,1014,1015,1017,1020,1029,1036,1041,1044,1045,1045,1048,1057,1071],"ymouse":[497,497,497,497,497,497,497,497,497,497,497,497,497,497,497,497,497,497,497,497,497,497,497,497,497,497,497,497,497,497,497,497,497,497,497,497,497,497,497,497,496,487,434,349,332,319,310,299,290,288,284,276,267,241,226,211,192,186,178,176,175,172,167,152,146,141,138,137,137,131,114,95],"timestamp_mouse":[12,33,46,67,86,107,126,146,167,188,207,227,246,267,286,307,327,347,367,386,407,426,447,466,487,506,526,547,567,586,607,626,646,666,687,706,727,748,767,786,807,826,847,866,886,907,926,946,966,987,1006,1026,1047,1067,1086,1107,1127,1146,1167,1186,1206,1226,1247,1267,1287,1307,1327,1347,1367,1386,1407,1426],"xSR":741.5,"ySR":469.95,"xT1":424.9,"yT1":0,"xT2":1058.1,"yT2":0,"toosoon":0,"cond_shown":"randomdotsizeEA","ratio_trial":750,"smaller_num":"3","larger_num":"4","correct_side":2,"subjID":"LidaDiaz21","gender":"1","age":"9","school":"4"},{"start_time":1552054943325,"click_time":1552054944817,"finger_time":1552054944097,"fix_duration":1167.7419224781693,"trial":20,"RT":772,"MT":720,"sideResp":2,"stimulus":"img/250/equaldotanddens/R/12_Ratio_250_L_5_R_20.png","xmouse":[797,797,797,797,797,797,797,797,797,797,797,797,797,797,797,797,797,797,797,797,797,797,797,797,797,797,797,797,797,797,797,797,797,797,799,800,808,815,848,868,882,897,899,904,916,929,946,955,958,966,970,973,975,979,988,1000,1020,1025,1028,1031,1032,1036,1038,1041,1044,1048,1062,1071,1074,1076,1079,1086,1090,1096,1100],"ymouse":[517,517,517,517,517,517,517,517,517,517,517,517,517,517,517,517,517,517,517,517,517,517,517,517,517,517,517,517,517,517,517,517,518,518,518,517,512,505,464,446,433,421,420,414,396,381,364,351,349,339,334,332,326,315,295,272,231,212,204,199,196,186,181,175,170,164,148,140,136,133,130,121,113,101,88],"timestamp_mouse":[12,37,51,71,91,111,131,151,171,192,211,231,252,272,291,312,331,351,372,392,412,431,451,471,492,511,532,551,572,592,613,631,651,672,691,712,731,751,772,792,812,831,852,872,892,913,932,951,971,992,1011,1032,1051,1072,1092,1111,1132,1151,1172,1191,1212,1232,1251,1271,1292,1311,1332,1352,1372,1391,1411,1432,1452,1471,1492],"xSR":741.5,"ySR":469.95,"xT1":424.9,"yT1":0,"xT2":1058.1,"yT2":0,"toosoon":0,"cond_shown":"equaldotanddens","ratio_trial":250,"smaller_num":"5","larger_num":"20","correct_side":2,"subjID":"LidaDiaz21","gender":"1","age":"9","school":"4"},{"start_time":1552054946658,"click_time":1552054948196,"finger_time":1552054947456,"fix_duration":999.0648546058416,"trial":21,"RT":798,"MT":740,"sideResp":1,"stimulus":"img/750/equaldotsize/R/5_Ratio_750_L_15_R_20.png","xmouse":[778,778,778,778,778,778,778,778,778,778,778,778,778,778,778,778,778,778,778,778,778,778,778,778,778,778,778,778,778,778,778,778,778,778,778,778,778,779,778,775,755,741,725,713,702,690,686,681,673,668,667,667,667,667,675,682,692,699,707,711,711,710,705,698,679,668,654,635,616,598,572,561,546,529,496,482,476],"ymouse":[510,510,510,510,510,510,510,510,510,510,510,510,510,510,510,510,510,510,510,510,510,510,510,510,510,510,510,510,510,510,510,510,510,510,510,510,510,495,482,458,398,378,364,357,353,346,342,336,328,321,320,319,318,316,307,301,292,281,268,258,258,254,242,233,210,202,193,184,175,169,157,153,144,137,113,100,89],"timestamp_mouse":[19,38,59,78,98,118,138,160,179,199,218,238,259,279,298,318,338,358,379,398,419,439,458,479,498,518,538,559,578,600,619,638,659,680,698,718,739,758,778,798,818,839,858,878,900,918,938,958,979,1000,1018,1038,1059,1078,1100,1118,1139,1159,1179,1200,1218,1238,1258,1279,1300,1318,1338,1359,1379,1399,1418,1438,1458,1478,1500,1518,1538],"xSR":741.5,"ySR":469.95,"xT1":424.9,"yT1":0,"xT2":1058.1,"yT2":0,"toosoon":0,"cond_shown":"equaldotsize","ratio_trial":750,"smaller_num":"15","larger_num":"20","correct_side":2,"subjID":"LidaDiaz21","gender":"1","age":"9","school":"4"},{"start_time":1552054951056,"click_time":1552054952277,"finger_time":1552054951776,"fix_duration":1277.1499790137275,"trial":22,"RT":720,"MT":501,"sideResp":2,"stimulus":"img/250/randomdotsizeEA/R/6_Ratio_250_L_6_R_24.png","xmouse":[769,769,769,769,769,769,769,769,769,769,769,769,769,769,769,769,769,769,769,769,769,769,769,769,769,769,769,769,769,769,769,769,769,771,774,778,838,916,992,1072,1092,1096,1096,1096,1096,1102,1132,1153,1170,1183,1187,1193,1193,1193,1193,1193,1190,1186,1183,1178,1173,1153],"ymouse":[528,528,528,528,528,528,528,528,528,528,528,528,528,528,528,528,528,528,528,528,528,528,528,528,528,528,528,528,528,528,528,528,528,526,524,522,469,423,384,357,348,346,346,346,346,340,302,283,263,235,218,185,174,163,151,140,128,115,108,98,89,67],"timestamp_mouse":[10,38,41,60,81,100,122,141,160,180,201,221,241,261,282,301,320,341,360,380,400,421,440,460,481,501,521,540,560,580,600,621,640,660,681,701,720,741,760,780,800,821,840,861,881,902,921,941,960,981,1000,1020,1040,1061,1081,1101,1120,1140,1161,1181,1201,1221],"xSR":741.5,"ySR":469.95,"xT1":424.9,"yT1":0,"xT2":1058.1,"yT2":0,"toosoon":0,"cond_shown":"randomdotsizeEA","ratio_trial":250,"smaller_num":"6","larger_num":"24","correct_side":2,"subjID":"LidaDiaz21","gender":"1","age":"9","school":"4"},{"start_time":1552054954382,"click_time":1552054955876,"finger_time":1552054955117,"fix_duration":864.4782684274306,"trial":23,"RT":735,"MT":759,"sideResp":1,"stimulus":"img/750/randomdotsizeEA/L/1_Ratio_750_L_20_R_15.png","xmouse":[834,834,834,834,834,834,834,834,834,834,834,834,834,834,834,834,834,834,834,834,834,834,834,834,834,834,834,834,834,834,834,833,829,813,769,750,723,698,677,664,664,664,663,663,658,637,628,623,620,619,617,615,614,614,614,605,602,596,593,591,590,580,568,557,538,535,533,533,533,532,528,526,524,520,516],"ymouse":[516,516,516,516,516,516,516,516,516,516,516,516,516,516,516,516,516,516,516,516,516,516,516,516,516,516,516,516,516,516,516,516,516,515,512,515,519,519,519,519,519,519,509,496,479,422,399,382,371,365,350,336,320,302,286,262,255,246,240,236,234,219,203,189,164,155,150,147,147,145,129,124,116,104,95],"timestamp_mouse":[15,43,54,75,94,115,134,155,174,194,214,235,254,275,295,315,334,355,375,395,415,435,455,474,494,515,535,554,574,594,615,634,655,674,695,715,735,755,775,796,814,835,854,874,894,915,934,956,974,994,1014,1035,1055,1075,1094,1114,1134,1155,1175,1195,1214,1235,1255,1274,1295,1315,1334,1354,1375,1395,1415,1435,1455,1474,1494],"xSR":741.5,"ySR":469.95,"xT1":424.9,"yT1":0,"xT2":1058.1,"yT2":0,"toosoon":0,"cond_shown":"randomdotsizeEA","ratio_trial":750,"smaller_num":"15","larger_num":"20","correct_side":1,"subjID":"LidaDiaz21","gender":"1","age":"9","school":"4"},{"start_time":1552054958346,"click_time":1552054959737,"finger_time":1552054959096,"fix_duration":1187.9025404986414,"trial":24,"RT":750,"MT":641,"sideResp":1,"stimulus":"img/500/equaldotanddens/L/10_Ratio_500_L_4_R_2.png","xmouse":[808,808,808,808,808,808,808,808,808,808,808,808,808,808,808,808,808,808,808,808,808,808,808,808,808,808,808,808,808,808,808,808,808,808,808,811,813,820,820,820,820,819,810,804,801,799,797,792,786,780,770,761,723,703,687,674,661,637,622,611,599,579,558,552,544,531,515,470,450,426],"ymouse":[511,511,511,511,511,511,511,511,511,511,511,511,511,511,511,511,511,511,511,511,511,511,511,511,511,511,511,511,511,511,510,510,510,510,508,498,486,447,433,426,421,417,402,394,390,385,382,372,364,357,350,343,302,285,266,248,232,211,201,195,187,176,168,165,160,154,145,120,108,94],"timestamp_mouse":[13,40,50,70,90,110,132,152,171,190,210,230,251,271,290,310,330,350,370,390,410,430,452,471,491,510,530,551,571,591,611,630,652,671,690,710,730,750,770,791,810,831,850,871,891,910,930,950,970,991,1010,1031,1050,1070,1090,1110,1130,1150,1170,1191,1210,1231,1250,1270,1290,1310,1330,1350,1371,1391],"xSR":741.5,"ySR":469.95,"xT1":424.9,"yT1":0,"xT2":1058.1,"yT2":0,"toosoon":0,"cond_shown":"equaldotanddens","ratio_trial":500,"smaller_num":"2","larger_num":"4","correct_side":1,"subjID":"LidaDiaz21","gender":"1","age":"9","school":"4"},{"start_time":1552054961579,"click_time":1552054962977,"finger_time":1552054962237,"fix_duration":280.7991142731279,"trial":25,"RT":658,"MT":740,"sideResp":2,"stimulus":"img/250/equaldotsize/R/13_Ratio_250_L_2_R_8.png","xmouse":[748,748,748,748,748,748,748,748,748,748,748,748,748,748,748,748,748,748,748,748,748,748,748,748,748,748,750,752,774,790,817,827,831,833,836,845,855,870,895,910,937,948,957,965,970,976,981,984,989,995,1009,1015,1020,1023,1028,1033,1045,1053,1059,1065,1075,1080,1083,1083,1085,1085,1086,1087,1089,1091],"ymouse":[503,503,503,503,503,503,503,503,503,503,503,503,503,503,503,503,503,503,503,503,503,503,503,503,503,503,503,503,501,499,482,471,461,452,444,428,415,400,377,365,344,335,327,322,318,310,305,301,294,284,265,257,249,244,235,226,212,201,188,172,142,130,121,116,115,114,114,113,107,95],"timestamp_mouse":[17,37,57,78,97,117,137,157,178,198,219,238,259,277,297,317,338,359,377,397,417,437,458,477,497,518,537,558,577,598,617,638,658,678,698,719,737,758,777,798,818,837,858,878,897,918,937,958,978,998,1019,1038,1057,1078,1098,1118,1138,1158,1177,1197,1218,1237,1257,1277,1297,1318,1337,1358,1377,1398],"xSR":741.5,"ySR":469.95,"xT1":424.9,"yT1":0,"xT2":1058.1,"yT2":0,"toosoon":0,"cond_shown":"equaldotsize","ratio_trial":250,"smaller_num":"2","larger_num":"8","correct_side":2,"subjID":"LidaDiaz21","gender":"1","age":"9","school":"4"},{"start_time":1552054964814,"click_time":1552054966058,"finger_time":1552054965498,"fix_duration":795.3737473092367,"trial":26,"RT":684,"MT":560,"sideResp":1,"stimulus":"img/900/randomdotsizeEA/L/10_Ratio_900_L_20_R_18.png","xmouse":[810,810,810,810,810,810,810,810,810,810,810,810,810,810,810,810,810,810,810,810,810,810,810,810,810,810,810,810,810,810,810,809,804,798,784,777,776,774,773,769,757,744,727,703,674,641,638,636,632,626,609,599,593,591,591,591,591,591,582,553,541,529,520],"ymouse":[531,531,531,531,531,531,531,531,531,531,531,531,531,531,531,531,531,531,531,531,531,531,531,531,531,531,531,531,531,531,531,520,508,486,452,438,434,431,425,416,386,359,323,285,253,219,216,214,210,202,186,178,172,170,170,169,169,163,148,115,97,80,68],"timestamp_mouse":[13,37,44,62,82,103,122,143,162,183,202,222,243,263,283,302,322,343,362,383,402,422,443,462,483,504,523,543,562,583,603,622,643,662,684,702,722,742,762,782,802,822,844,863,883,902,922,942,962,983,1002,1022,1043,1062,1082,1102,1123,1143,1162,1184,1202,1223,1243],"xSR":741.5,"ySR":469.95,"xT1":424.9,"yT1":0,"xT2":1058.1,"yT2":0,"toosoon":0,"cond_shown":"randomdotsizeEA","ratio_trial":900,"smaller_num":"18","larger_num":"20","correct_side":1,"subjID":"LidaDiaz21","gender":"1","age":"9","school":"4"},{"start_time":1552054968163,"click_time":1552054969556,"finger_time":1552054968977,"fix_duration":964.2421692317052,"trial":27,"RT":814,"MT":579,"sideResp":2,"stimulus":"img/750/equaldotanddens/R/15_Ratio_750_L_9_R_12.png","xmouse":[793,793,793,793,793,793,793,793,793,793,793,793,793,793,793,793,793,793,793,793,793,793,793,793,793,793,793,793,793,793,793,793,796,798,803,805,807,811,815,823,843,861,898,913,923,930,939,948,955,966,975,984,1003,1012,1026,1029,1041,1059,1070,1078,1084,1086,1090,1090,1091,1091,1091,1091,1093,1095],"ymouse":[527,527,527,527,527,527,527,527,527,527,527,527,527,527,527,527,527,527,527,527,527,527,527,527,527,527,527,527,527,527,527,527,526,525,522,521,520,517,515,505,485,472,443,429,415,403,387,370,361,346,334,319,285,272,254,249,237,211,192,173,159,148,139,139,138,138,138,132,108,89],"timestamp_mouse":[13,35,53,75,93,113,133,153,173,193,213,233,255,273,294,313,335,354,374,393,413,434,454,473,494,513,533,553,573,593,613,634,653,673,694,714,734,753,774,795,814,834,853,873,895,913,934,953,973,993,1013,1034,1053,1073,1093,1114,1134,1154,1174,1193,1214,1234,1253,1274,1293,1313,1333,1353,1374,1393],"xSR":741.5,"ySR":469.95,"xT1":424.9,"yT1":0,"xT2":1058.1,"yT2":0,"toosoon":0,"cond_shown":"equaldotanddens","ratio_trial":750,"smaller_num":"9","larger_num":"12","correct_side":2,"subjID":"LidaDiaz21","gender":"1","age":"9","school":"4"},{"start_time":1552054970910,"click_time":1552054972218,"finger_time":1552054971717,"fix_duration":250,"trial":28,"RT":807,"MT":501,"sideResp":2,"stimulus":"img/750/equaldotsize/R/7_Ratio_750_L_3_R_4.png","xmouse":[806,806,806,806,806,806,806,806,806,806,806,806,806,806,806,806,806,806,806,806,806,806,806,806,806,806,806,806,806,806,806,806,806,806,806,806,806,806,812,823,860,878,889,896,898,908,918,936,947,957,979,989,1002,1012,1024,1046,1056,1072,1083,1092,1107,1115,1123,1129,1132,1137],"ymouse":[546,546,546,546,546,546,546,546,546,546,546,546,546,546,546,546,546,546,546,546,546,546,546,546,546,546,546,546,546,546,546,546,546,546,546,546,546,547,543,533,497,479,467,459,457,444,433,414,403,392,367,355,340,326,311,281,268,246,231,215,179,162,145,127,112,83],"timestamp_mouse":[19,37,46,67,87,107,127,147,167,187,206,227,246,267,287,307,327,347,366,386,406,426,447,467,486,506,527,546,567,587,608,627,647,667,687,706,726,746,768,787,807,826,846,867,886,906,927,947,966,986,1007,1026,1047,1066,1088,1108,1126,1146,1167,1187,1208,1227,1246,1267,1288,1308],"xSR":741.5,"ySR":469.95,"xT1":424.9,"yT1":0,"xT2":1058.1,"yT2":0,"toosoon":0,"cond_shown":"equaldotsize","ratio_trial":750,"smaller_num":"3","larger_num":"4","correct_side":2,"subjID":"LidaDiaz21","gender":"1","age":"9","school":"4"},{"start_time":1552054973650,"click_time":1552054975358,"finger_time":1552054974276,"fix_duration":431.85653427425143,"trial":29,"RT":626,"MT":1082,"sideResp":1,"stimulus":"img/900/equaldotsize/R/3_Ratio_900_L_9_R_10.png","xmouse":[789,789,789,789,789,789,789,789,789,789,789,789,789,789,789,789,789,789,789,789,789,789,789,789,789,789,789,789,789,789,790,806,814,819,821,821,821,821,821,821,822,826,833,841,862,872,882,890,897,909,911,914,916,912,906,895,877,854,783,758,736,716,697,681,662,657,654,650,642,616,607,596,585,575,556,550,543,539,537,536,536,536,536,535,530,522],"ymouse":[508,508,508,508,508,508,508,508,508,508,508,508,508,508,508,508,508,508,508,508,508,508,508,508,508,508,508,508,508,508,485,455,443,433,418,410,403,397,392,376,367,355,341,326,294,281,270,261,255,241,234,227,219,209,201,196,187,178,159,147,133,123,116,112,108,107,105,102,97,88,85,85,84,82,82,82,82,82,82,82,82,82,82,81,77,71],"timestamp_mouse":[12,35,46,67,86,107,126,146,166,186,206,228,248,267,287,307,327,346,366,387,407,427,446,467,488,508,526,546,566,586,607,626,646,667,687,706,727,746,767,786,806,826,846,867,887,906,927,946,966,986,1006,1027,1047,1068,1086,1107,1127,1146,1168,1186,1207,1227,1246,1267,1286,1306,1327,1346,1367,1386,1406,1427,1446,1467,1486,1507,1527,1547,1566,1587,1606,1626,1646,1666,1686,1707],"xSR":741.5,"ySR":469.95,"xT1":424.9,"yT1":0,"xT2":1058.1,"yT2":0,"toosoon":0,"cond_shown":"equaldotsize","ratio_trial":900,"smaller_num":"9","larger_num":"10","correct_side":2,"subjID":"LidaDiaz21","gender":"1","age":"9","school":"4"},{"start_time":1552054978574,"click_time":1552054979837,"finger_time":1552054979336,"fix_duration":1075.5062434182707,"trial":30,"RT":762,"MT":501,"sideResp":2,"stimulus":"img/250/equaldotsize/R/12_Ratio_250_L_5_R_20.png","xmouse":[780,780,780,780,780,780,780,780,780,780,780,780,780,780,780,780,780,780,780,780,780,780,780,780,780,780,780,780,780,780,780,782,783,785,786,786,786,790,818,848,858,877,883,896,903,912,923,938,964,980,983,994,997,1002,1007,1008,1012,1016,1024,1029,1035,1038,1043,1061],"ymouse":[504,504,504,504,504,504,504,504,504,504,504,504,504,504,504,504,504,504,504,504,504,504,504,504,504,504,504,504,504,504,504,504,503,502,501,501,501,495,442,406,396,377,372,354,344,333,316,296,262,240,235,220,215,202,192,191,184,176,162,151,140,135,129,99],"timestamp_mouse":[12,22,45,63,82,102,123,144,162,183,203,222,243,262,282,303,323,343,364,382,402,423,442,462,483,503,522,542,564,583,603,622,642,663,683,703,723,743,762,782,802,823,842,863,882,902,923,943,963,982,1002,1023,1043,1063,1091,1102,1123,1143,1163,1182,1203,1223,1242,1263],"xSR":741.5,"ySR":469.95,"xT1":424.9,"yT1":0,"xT2":1058.1,"yT2":0,"toosoon":0,"cond_shown":"equaldotsize","ratio_trial":250,"smaller_num":"5","larger_num":"20","correct_side":2,"subjID":"LidaDiaz21","gender":"1","age":"9","school":"4"},{"start_time":1552054981379,"click_time":1552054982616,"finger_time":1552054982097,"fix_duration":519.6251840731173,"trial":31,"RT":718,"MT":519,"sideResp":1,"stimulus":"img/750/randomdotsizeEA/L/6_Ratio_750_L_24_R_18.png","xmouse":[786,786,786,786,786,786,786,786,786,786,786,786,786,786,786,786,786,786,786,786,786,786,786,786,786,786,786,786,786,786,787,787,785,781,772,765,757,752,745,741,737,729,706,688,668,648,634,609,598,589,581,572,555,546,542,540,536,522,506,493,473,449],"ymouse":[530,530,530,530,530,530,530,530,530,530,530,530,530,530,530,530,530,530,530,530,530,530,530,530,530,530,530,530,530,530,529,529,504,493,477,462,452,441,430,422,416,406,375,359,342,325,310,288,274,262,253,244,231,225,220,217,212,197,176,155,125,89],"timestamp_mouse":[18,40,58,78,97,117,138,157,178,198,218,238,257,277,297,317,337,358,377,397,417,438,458,477,498,517,538,557,578,597,618,637,658,678,698,717,737,758,777,798,817,838,859,877,897,917,938,959,977,997,1018,1038,1058,1077,1098,1117,1137,1158,1177,1198,1218,1237],"xSR":741.5,"ySR":469.95,"xT1":424.9,"yT1":0,"xT2":1058.1,"yT2":0,"toosoon":0,"cond_shown":"randomdotsizeEA","ratio_trial":750,"smaller_num":"18","larger_num":"24","correct_side":1,"subjID":"LidaDiaz21","gender":"1","age":"9","school":"4"},{"start_time":1552054984418,"click_time":1552054985956,"finger_time":1552054985056,"fix_duration":780.2273179718389,"trial":32,"RT":638,"MT":900,"sideResp":1,"stimulus":"img/250/randomdotsizeEA/L/14_Ratio_250_L_12_R_3.png","xmouse":[781,781,781,781,781,781,781,781,781,781,781,781,781,781,781,781,781,781,781,781,781,781,781,781,782,784,797,802,807,810,810,806,799,791,786,781,778,778,778,778,778,761,750,740,727,708,691,686,686,685,680,642,623,610,607,607,607,607,606,604,597,569,561,559,559,559,559,559,558,557,554,549,548,547,543,534,517],"ymouse":[527,527,527,527,527,527,527,527,527,527,527,527,527,527,527,527,527,527,527,527,527,527,527,527,527,527,519,515,512,510,498,469,448,424,406,386,378,378,378,378,375,331,310,292,275,251,233,230,230,229,223,193,180,173,170,170,170,170,169,166,155,138,134,133,133,133,133,133,132,129,123,114,112,109,105,96,88],"timestamp_mouse":[20,39,59,78,98,119,138,159,178,198,218,239,260,279,299,319,338,358,378,398,418,439,458,478,499,519,538,559,579,598,618,638,660,679,699,719,739,759,778,799,818,839,859,879,898,918,938,960,979,1000,1018,1039,1058,1079,1098,1119,1138,1158,1178,1199,1219,1239,1258,1279,1298,1319,1339,1358,1378,1399,1419,1438,1458,1479,1498,1519,1538],"xSR":741.5,"ySR":469.95,"xT1":424.9,"yT1":0,"xT2":1058.1,"yT2":0,"toosoon":0,"cond_shown":"randomdotsizeEA","ratio_trial":250,"smaller_num":"3","larger_num":"12","correct_side":1,"subjID":"LidaDiaz21","gender":"1","age":"9","school":"4"},{"start_time":1552054988190,"click_time":1552054990058,"finger_time":1552054989077,"fix_duration":911.4804757079818,"trial":33,"RT":887,"MT":981,"sideResp":2,"stimulus":"img/500/equaldotanddens/R/6_Ratio_500_L_9_R_18.png","xmouse":[830,830,830,830,830,830,830,830,830,830,830,830,830,830,830,830,830,830,830,830,830,830,830,830,830,830,830,830,830,830,829,829,829,829,829,829,829,829,830,830,832,832,834,835,845,855,862,868,878,886,892,900,910,926,935,946,953,959,973,980,986,991,993,996,997,998,998,1000,1004,1006,1008,1011,1013,1019,1023,1029,1032,1037,1045,1048,1050,1053,1054,1056,1056,1056,1057,1057,1058,1060,1063,1065,1070,1081],"ymouse":[499,499,499,499,499,499,499,499,499,499,499,499,499,499,499,499,499,499,499,499,499,499,499,499,499,499,499,499,499,499,499,499,499,499,499,499,499,499,499,498,497,497,496,494,470,457,446,439,424,416,406,394,383,363,353,340,335,329,314,307,298,293,288,285,284,281,278,275,266,261,255,250,242,222,208,188,178,169,150,144,139,137,133,130,130,130,130,130,129,123,120,118,108,85],"timestamp_mouse":[12,35,47,66,86,107,126,147,166,187,207,227,247,267,287,306,327,347,366,386,407,426,446,466,488,507,527,546,567,587,607,627,646,666,688,707,728,747,767,786,807,827,847,867,887,906,927,947,967,986,1007,1027,1047,1068,1086,1106,1127,1146,1167,1186,1207,1227,1248,1268,1286,1307,1327,1348,1367,1386,1406,1426,1446,1467,1486,1506,1527,1547,1568,1587,1606,1626,1647,1667,1686,1706,1726,1747,1767,1786,1807,1827,1847,1868],"xSR":741.5,"ySR":469.95,"xT1":424.9,"yT1":0,"xT2":1058.1,"yT2":0,"toosoon":0,"cond_shown":"equaldotanddens","ratio_trial":500,"smaller_num":"9","larger_num":"18","correct_side":2,"subjID":"LidaDiaz21","gender":"1","age":"9","school":"4"},{"start_time":1552054991368,"click_time":1552054993176,"finger_time":1552054992158,"fix_duration":250,"trial":34,"RT":790,"MT":1018,"sideResp":2,"stimulus":"img/500/equaldotanddens/R/2_Ratio_500_L_3_R_6.png","xmouse":[804,804,804,804,804,804,804,804,804,804,804,804,804,804,804,804,804,804,804,804,804,804,804,804,804,804,804,804,804,804,804,804,804,805,805,807,809,810,813,842,875,898,908,911,912,915,917,920,923,929,943,950,958,967,987,998,1008,1017,1024,1029,1034,1037,1038,1040,1041,1044,1045,1046,1047,1048,1051,1054,1055,1058,1059,1062,1062,1062,1062,1062,1062,1062,1062,1062,1062,1062,1062,1062,1062,1067,1071],"ymouse":[540,540,540,540,540,540,540,540,540,540,540,540,540,540,540,540,540,540,540,540,540,540,540,540,540,540,540,540,540,540,540,540,540,538,538,536,535,535,525,474,446,428,419,413,411,404,399,393,385,376,359,351,341,331,312,303,294,283,271,261,243,235,228,222,219,209,202,199,195,192,182,177,172,167,164,154,154,154,154,147,145,142,139,138,138,137,130,127,121,108,99],"timestamp_mouse":[13,35,48,68,88,108,128,148,169,189,209,229,249,269,288,308,329,349,369,389,409,428,449,469,489,508,529,548,569,589,609,629,649,669,689,708,729,750,769,790,808,829,849,868,889,908,928,948,969,989,1008,1029,1048,1068,1090,1108,1128,1149,1169,1188,1208,1228,1248,1268,1289,1309,1328,1348,1368,1389,1408,1429,1449,1468,1489,1508,1529,1548,1568,1590,1609,1629,1649,1668,1689,1708,1729,1749,1768,1790,1808],"xSR":741.5,"ySR":469.95,"xT1":424.9,"yT1":0,"xT2":1058.1,"yT2":0,"toosoon":0,"cond_shown":"equaldotanddens","ratio_trial":500,"smaller_num":"3","larger_num":"6","correct_side":2,"subjID":"LidaDiaz21","gender":"1","age":"9","school":"4"},{"start_time":1552054995405,"click_time":1552054997157,"finger_time":1552054996377,"fix_duration":1108.5530840358251,"trial":35,"RT":972,"MT":780,"sideResp":2,"stimulus":"img/250/equaldotanddens/R/12_Ratio_250_L_5_R_20.png","xmouse":[800,800,800,800,800,800,800,800,800,800,800,800,800,800,800,800,800,800,800,800,800,800,800,800,800,800,800,800,799,799,799,799,799,799,799,799,799,800,804,807,810,813,816,820,822,824,827,836,847,851,855,865,874,892,896,901,906,912,932,943,958,962,970,977,980,983,987,991,1002,1011,1027,1037,1045,1049,1050,1051,1052,1055,1060,1060,1061,1065,1069,1077,1080,1084,1085,1087],"ymouse":[531,531,531,531,531,531,531,531,531,531,531,531,531,531,531,531,531,531,531,531,531,531,531,531,531,531,531,531,531,531,531,531,531,531,531,531,531,531,529,527,525,519,507,495,491,487,481,471,458,453,448,428,414,390,381,372,360,347,312,294,277,273,264,256,253,249,245,240,222,211,195,187,182,175,172,168,163,157,146,143,138,129,120,109,104,101,100,98],"timestamp_mouse":[12,35,52,71,91,112,132,151,171,191,211,232,252,271,292,312,331,351,373,391,413,432,451,471,491,511,532,551,571,591,612,631,652,671,691,711,732,751,771,791,811,831,852,871,892,912,932,951,972,991,1012,1033,1052,1071,1091,1111,1132,1151,1172,1191,1212,1231,1253,1271,1292,1311,1332,1351,1372,1392,1412,1431,1452,1471,1491,1511,1531,1552,1572,1592,1611,1631,1652,1672,1691,1711,1732,1751],"xSR":741.5,"ySR":469.95,"xT1":424.9,"yT1":0,"xT2":1058.1,"yT2":0,"toosoon":0,"cond_shown":"equaldotanddens","ratio_trial":250,"smaller_num":"5","larger_num":"20","correct_side":2,"subjID":"LidaDiaz21","gender":"1","age":"9","school":"4"},{"start_time":1552054998409,"click_time":1552054999816,"finger_time":1552054999377,"fix_duration":250,"trial":36,"RT":968,"MT":439,"sideResp":1,"stimulus":"img/500/randomdotsizeEA/L/11_Ratio_500_L_12_R_6.png","xmouse":[776,776,776,776,776,776,776,776,776,776,776,776,776,776,776,776,776,776,776,776,776,776,776,776,776,776,776,776,776,776,776,776,776,776,776,776,774,774,774,774,774,774,774,774,774,774,774,774,768,755,744,733,723,711,691,677,661,640,585,549,536,530,528,527,522,515,507,499,491,477,473],"ymouse":[528,528,528,528,528,528,528,528,528,528,528,528,528,528,528,528,528,528,528,528,528,528,528,528,528,528,528,528,528,528,528,528,528,528,528,529,530,530,530,530,530,530,530,530,530,530,524,515,464,427,407,388,374,363,345,336,324,306,266,237,223,210,196,188,166,157,146,136,127,106,98],"timestamp_mouse":[12,39,48,68,87,107,128,147,168,188,207,227,247,267,287,307,329,347,367,387,408,429,448,468,488,507,527,548,567,588,607,628,647,667,687,707,728,747,767,788,808,827,847,868,888,907,928,948,968,987,1008,1027,1048,1067,1087,1107,1127,1147,1169,1187,1207,1228,1248,1267,1288,1307,1327,1348,1367,1387,1407],"xSR":741.5,"ySR":469.95,"xT1":424.9,"yT1":0,"xT2":1058.1,"yT2":0,"toosoon":0,"cond_shown":"randomdotsizeEA","ratio_trial":500,"smaller_num":"6","larger_num":"12","correct_side":1,"subjID":"LidaDiaz21","gender":"1","age":"9","school":"4"},{"start_time":1552055001580,"click_time":1552055002716,"finger_time":1552055002196,"fix_duration":382.875490670802,"trial":37,"RT":616,"MT":520,"sideResp":2,"stimulus":"img/500/equaldotsize/R/9_Ratio_500_L_2_R_4.png","xmouse":[778,778,778,778,778,778,778,778,778,778,778,778,778,778,778,778,778,778,778,778,778,778,778,778,778,778,778,778,780,785,868,890,896,900,908,910,913,915,921,931,987,1009,1031,1042,1044,1047,1049,1052,1052,1052,1052,1052,1056,1059,1063,1075,1086],"ymouse":[547,547,547,547,547,547,547,547,547,547,547,547,547,547,547,547,547,547,547,547,547,547,547,547,547,547,547,547,547,539,421,394,382,371,347,343,340,338,336,332,307,294,275,259,249,223,208,190,175,162,141,134,125,119,113,102,97],"timestamp_mouse":[21,45,56,76,96,117,136,157,176,198,216,237,256,276,297,316,336,357,377,396,417,436,457,477,496,517,536,557,576,597,616,636,657,676,698,717,738,757,777,797,817,837,857,877,896,916,936,956,977,996,1017,1036,1057,1076,1096,1116,1136],"xSR":741.5,"ySR":469.95,"xT1":424.9,"yT1":0,"xT2":1058.1,"yT2":0,"toosoon":0,"cond_shown":"equaldotsize","ratio_trial":500,"smaller_num":"2","larger_num":"4","correct_side":2,"subjID":"LidaDiaz21","gender":"1","age":"9","school":"4"},{"start_time":1552055004094,"click_time":1552055005537,"finger_time":1552055004796,"fix_duration":396.8206763454127,"trial":38,"RT":702,"MT":741,"sideResp":1,"stimulus":"img/750/equaldotanddens/L/1_Ratio_750_L_20_R_15.png","xmouse":[804,804,804,804,804,804,804,804,804,804,804,804,804,804,804,804,804,804,804,804,804,804,804,804,804,804,804,804,804,804,804,804,804,799,780,734,717,703,698,690,685,676,669,657,647,634,632,631,628,624,619,612,609,592,586,565,555,550,547,546,546,546,546,546,545,544,543,540,538,534,528,527,524],"ymouse":[528,528,528,528,528,528,528,528,528,528,528,528,528,528,528,528,528,528,528,528,528,528,528,528,528,528,528,528,528,528,528,528,528,527,508,475,464,456,451,444,437,424,412,388,371,337,322,304,288,275,256,236,231,196,175,123,106,97,93,90,89,88,86,83,82,80,80,79,79,77,75,75,74],"timestamp_mouse":[11,22,42,62,82,102,122,143,162,182,203,222,242,263,283,303,323,344,363,383,402,422,442,463,483,504,522,543,564,583,604,622,642,662,682,702,723,743,763,783,802,822,843,862,883,902,923,943,962,983,1003,1022,1043,1062,1082,1103,1123,1142,1162,1182,1202,1222,1242,1263,1282,1303,1322,1343,1362,1382,1403,1422,1442],"xSR":741.5,"ySR":469.95,"xT1":424.9,"yT1":0,"xT2":1058.1,"yT2":0,"toosoon":0,"cond_shown":"equaldotanddens","ratio_trial":750,"smaller_num":"15","larger_num":"20","correct_side":1,"subjID":"LidaDiaz21","gender":"1","age":"9","school":"4"},{"start_time":1552055007329,"click_time":1552055008837,"finger_time":1552055008037,"fix_duration":250,"trial":39,"RT":708,"MT":800,"sideResp":2,"stimulus":"img/500/equaldotsize/R/2_Ratio_500_L_3_R_6.png","xmouse":[761,761,761,761,761,761,761,761,761,762,762,762,762,762,762,762,762,762,762,762,762,762,762,762,762,762,762,762,762,762,764,769,774,779,790,797,803,809,819,824,836,845,854,870,876,881,886,891,897,915,920,923,924,926,931,937,943,950,965,975,983,990,995,1010,1025,1045,1067,1088,1122,1134,1137,1139,1140,1141,1141,1141],"ymouse":[502,502,502,502,502,503,503,503,503,503,503,503,503,503,503,503,503,503,503,503,503,503,503,503,503,503,503,503,503,502,499,496,492,488,476,468,458,449,431,421,406,395,385,365,358,348,341,335,329,304,298,294,290,287,276,269,263,255,241,231,226,222,219,208,194,182,170,155,128,113,106,102,101,100,100,99],"timestamp_mouse":[13,32,48,68,88,108,129,147,167,187,207,227,248,267,288,307,328,347,367,387,408,428,448,468,487,508,528,548,568,588,607,628,648,668,688,708,728,748,768,787,808,828,848,869,887,907,928,948,967,988,1007,1028,1047,1068,1087,1107,1127,1147,1169,1187,1207,1227,1247,1269,1287,1308,1329,1347,1368,1388,1407,1428,1447,1468,1487,1508],"xSR":741.5,"ySR":469.95,"xT1":424.9,"yT1":0,"xT2":1058.1,"yT2":0,"toosoon":0,"cond_shown":"equaldotsize","ratio_trial":500,"smaller_num":"3","larger_num":"6","correct_side":2,"subjID":"LidaDiaz21","gender":"1","age":"9","school":"4"},{"start_time":1552055010699,"click_time":1552055012117,"finger_time":1552055011457,"fix_duration":561.0212239869461,"trial":40,"RT":758,"MT":660,"sideResp":1,"stimulus":"img/750/equaldotsize/L/10_Ratio_750_L_4_R_3.png","xmouse":[788,788,788,788,787,787,787,787,787,787,787,787,787,787,787,787,787,787,787,787,787,787,787,787,787,787,787,787,787,787,787,787,787,787,787,787,785,781,774,763,738,731,724,716,708,692,678,659,642,633,625,623,621,619,616,610,605,599,589,584,572,565,557,550,545,542,540,539,535,527,515],"ymouse":[504,504,504,504,505,505,505,505,505,505,505,505,505,505,505,505,505,505,505,505,505,505,505,505,505,505,505,505,505,505,505,505,505,505,505,505,498,466,444,425,394,384,373,363,351,315,277,229,188,157,134,127,123,120,117,108,104,99,93,91,86,84,83,83,83,83,82,82,79,76,71],"timestamp_mouse":[18,37,58,77,98,118,138,157,178,197,218,237,258,277,297,317,337,358,378,397,418,437,457,478,498,517,538,557,578,597,618,637,657,677,697,717,738,758,778,798,818,838,857,877,897,918,938,958,977,997,1017,1038,1058,1077,1098,1117,1137,1158,1178,1198,1218,1237,1258,1278,1299,1317,1338,1357,1377,1398,1417],"xSR":741.5,"ySR":469.95,"xT1":424.9,"yT1":0,"xT2":1058.1,"yT2":0,"toosoon":0,"cond_shown":"equaldotsize","ratio_trial":750,"smaller_num":"3","larger_num":"4","correct_side":1,"subjID":"LidaDiaz21","gender":"1","age":"9","school":"4"},{"start_time":1552055013849,"click_time":1552055015437,"finger_time":1552055014697,"fix_duration":250,"trial":41,"RT":848,"MT":740,"sideResp":2,"stimulus":"img/500/equaldotsize/R/15_Ratio_500_L_1_R_2.png","xmouse":[785,785,785,785,785,785,785,785,785,785,785,785,785,785,785,785,785,785,785,785,785,785,785,785,785,785,785,785,785,784,778,773,770,770,770,770,770,770,770,770,772,777,782,795,803,813,821,828,836,838,839,842,847,853,858,865,877,891,916,926,939,950,963,982,986,989,990,992,993,997,999,1002,1007,1013,1016,1022,1028,1035,1043,1061],"ymouse":[484,484,484,484,484,484,484,484,484,484,484,484,484,484,484,484,484,484,484,484,484,484,484,484,484,484,484,484,484,485,489,492,493,493,493,493,493,493,493,493,490,487,465,431,416,398,384,374,364,362,361,359,356,351,348,340,325,309,284,275,261,248,236,219,216,213,209,205,197,184,176,169,160,147,142,132,123,114,105,87],"timestamp_mouse":[13,37,48,68,88,107,127,147,168,188,207,227,247,268,287,307,328,347,367,387,408,428,449,467,488,508,527,547,567,588,608,629,648,668,687,707,727,747,767,788,808,829,848,867,888,907,927,947,968,987,1008,1028,1048,1068,1087,1107,1128,1147,1169,1187,1208,1227,1247,1268,1288,1307,1328,1347,1368,1387,1407,1428,1448,1468,1487,1508,1527,1547,1567,1588],"xSR":741.5,"ySR":469.95,"xT1":424.9,"yT1":0,"xT2":1058.1,"yT2":0,"toosoon":0,"cond_shown":"equaldotsize","ratio_trial":500,"smaller_num":"1","larger_num":"2","correct_side":2,"subjID":"LidaDiaz21","gender":"1","age":"9","school":"4"},{"start_time":1552055016748,"click_time":1552055018157,"finger_time":1552055017597,"fix_duration":250,"trial":42,"RT":849,"MT":560,"sideResp":1,"stimulus":"img/900/equaldotsize/L/1_Ratio_900_L_10_R_9.png","xmouse":[798,798,798,798,798,798,798,798,798,798,798,798,798,798,798,798,798,798,798,798,798,798,798,798,798,798,798,798,798,798,798,798,798,798,798,798,798,798,798,797,780,754,727,690,667,651,643,634,627,611,601,590,577,564,522,508,498,493,485,481,478,477,475,475,475,475,475,475,475,475,475],"ymouse":[507,507,507,507,507,507,507,507,507,507,507,507,507,507,507,507,507,507,507,507,507,507,507,507,507,507,507,507,507,507,507,507,507,507,507,507,507,507,507,507,507,507,504,483,462,446,425,412,400,376,361,348,338,330,303,293,285,279,262,253,243,233,221,207,182,173,165,156,144,110,97],"timestamp_mouse":[19,38,48,68,89,108,129,149,168,189,208,228,250,269,289,308,330,348,368,390,409,428,449,468,488,509,529,548,569,588,609,630,649,668,688,709,728,749,769,788,808,829,849,870,888,908,929,949,969,988,1008,1029,1049,1069,1088,1109,1128,1149,1170,1188,1209,1229,1248,1269,1288,1308,1328,1348,1370,1389,1409],"xSR":741.5,"ySR":469.95,"xT1":424.9,"yT1":0,"xT2":1058.1,"yT2":0,"toosoon":0,"cond_shown":"equaldotsize","ratio_trial":900,"smaller_num":"9","larger_num":"10","correct_side":1,"subjID":"LidaDiaz21","gender":"1","age":"9","school":"4"},{"start_time":1552055020144,"click_time":1552055021317,"finger_time":1552055020777,"fix_duration":605.8776265692854,"trial":43,"RT":633,"MT":540,"sideResp":1,"stimulus":"img/500/equaldotanddens/L/4_Ratio_500_L_18_R_9.png","xmouse":[762,762,762,762,762,762,762,762,762,762,762,762,762,762,762,762,762,762,762,762,762,762,762,762,762,762,762,762,762,764,765,763,747,733,712,701,694,692,692,692,692,684,665,646,609,594,585,576,569,553,549,546,541,538,531,527,524,520,515],"ymouse":[501,501,501,501,501,501,501,501,501,501,501,501,501,501,501,501,501,501,501,501,501,501,501,501,501,501,501,501,501,501,490,460,427,410,391,382,376,374,374,374,373,361,336,317,283,267,252,236,218,181,169,158,143,134,118,113,108,103,98],"timestamp_mouse":[14,34,52,73,94,113,134,153,172,194,214,232,254,274,292,313,334,353,373,393,412,433,453,472,494,513,533,554,573,593,613,633,653,673,693,713,733,754,773,792,814,834,853,874,893,914,934,953,974,994,1013,1034,1053,1074,1093,1112,1133,1153,1173],"xSR":741.5,"ySR":469.95,"xT1":424.9,"yT1":0,"xT2":1058.1,"yT2":0,"toosoon":0,"cond_shown":"equaldotanddens","ratio_trial":500,"smaller_num":"9","larger_num":"18","correct_side":1,"subjID":"LidaDiaz21","gender":"1","age":"9","school":"4"},{"start_time":1552055023466,"click_time":1552055024778,"finger_time":1552055024157,"fix_duration":947.4566783545919,"trial":44,"RT":691,"MT":621,"sideResp":2,"stimulus":"img/750/equaldotsize/R/4_Ratio_750_L_15_R_20.png","xmouse":[785,785,785,785,785,785,785,785,785,785,785,785,785,785,785,785,785,785,785,785,785,785,785,785,785,785,786,788,799,805,813,816,820,825,850,864,877,888,905,913,919,925,934,959,971,990,1001,1010,1027,1034,1043,1052,1057,1063,1063,1063,1064,1065,1070,1073,1075,1078,1080,1088,1090,1092],"ymouse":[525,525,525,525,525,525,525,525,525,525,525,525,525,525,525,525,525,525,525,525,525,525,525,525,525,525,525,525,518,515,511,509,506,502,470,457,445,435,419,412,405,398,387,367,357,341,331,322,292,275,253,232,212,187,172,162,154,147,136,129,126,120,113,103,100,97],"timestamp_mouse":[13,35,51,70,92,112,131,151,171,192,211,230,250,270,292,311,332,351,370,392,411,432,451,470,492,512,531,551,571,591,612,631,651,670,691,712,731,751,772,791,811,831,851,871,892,912,932,952,971,991,1012,1031,1050,1072,1092,1111,1131,1150,1172,1192,1211,1231,1251,1272,1290,1312],"xSR":741.5,"ySR":469.95,"xT1":424.9,"yT1":0,"xT2":1058.1,"yT2":0,"toosoon":0,"cond_shown":"equaldotsize","ratio_trial":750,"smaller_num":"15","larger_num":"20","correct_side":2,"subjID":"LidaDiaz21","gender":"1","age":"9","school":"4"},{"start_time":1552055027006,"click_time":1552055028437,"finger_time":1552055027757,"fix_duration":927.4630569484359,"trial":45,"RT":751,"MT":680,"sideResp":2,"stimulus":"img/250/equaldotsize/R/13_Ratio_250_L_2_R_8.png","xmouse":[790,790,790,790,790,790,790,790,790,790,790,790,790,790,790,790,790,790,790,790,790,790,790,790,790,790,790,790,790,790,792,798,803,807,811,815,826,834,843,852,865,899,923,947,966,978,985,992,997,1004,1006,1006,1006,1006,1006,1006,1006,1016,1027,1041,1050,1058,1072,1079,1084,1088,1090,1093,1093,1095,1095,1095],"ymouse":[497,497,497,497,497,497,497,497,497,497,497,497,497,497,497,497,497,497,497,497,497,497,497,497,497,497,497,497,497,498,498,495,492,489,487,484,474,466,459,450,440,414,397,379,362,350,330,303,293,284,283,283,283,283,283,281,281,258,240,218,199,185,162,153,146,141,136,124,117,109,102,96],"timestamp_mouse":[12,34,52,72,91,111,131,152,172,191,211,230,251,272,292,312,330,351,372,390,412,432,452,471,490,510,530,552,571,591,611,632,650,671,692,711,732,751,770,791,811,833,850,872,891,912,932,951,972,991,1011,1031,1051,1072,1091,1110,1131,1151,1171,1191,1211,1231,1251,1272,1291,1311,1331,1351,1371,1392,1412,1431],"xSR":741.5,"ySR":469.95,"xT1":424.9,"yT1":0,"xT2":1058.1,"yT2":0,"toosoon":0,"cond_shown":"equaldotsize","ratio_trial":250,"smaller_num":"2","larger_num":"8","correct_side":2,"subjID":"LidaDiaz21","gender":"1","age":"9","school":"4"},{"start_time":1552055030324,"click_time":1552055031838,"finger_time":1552055031277,"fix_duration":666.9177362867607,"trial":46,"RT":953,"MT":561,"sideResp":2,"stimulus":"img/750/equaldotsize/R/4_Ratio_750_L_15_R_20.png","xmouse":[800,800,800,800,800,800,800,800,800,800,800,800,800,800,800,800,800,800,800,800,800,800,800,800,800,800,800,800,800,800,800,800,800,800,800,800,800,800,800,798,797,793,792,790,788,788,788,788,788,794,799,825,840,852,867,882,909,921,936,945,961,986,999,1010,1020,1031,1050,1061,1067,1074,1079,1088,1091,1093,1094,1095],"ymouse":[508,508,508,508,508,508,508,508,508,508,508,508,508,508,508,508,508,508,508,508,508,508,508,508,508,508,508,508,508,508,508,508,508,508,508,508,501,489,485,482,479,476,475,473,472,472,471,468,463,456,450,432,422,412,401,386,346,325,301,285,265,246,236,228,220,206,184,172,166,158,150,134,126,118,107,92],"timestamp_mouse":[13,38,53,73,93,113,133,153,174,192,214,234,252,272,294,313,333,353,373,393,414,433,454,473,492,514,534,552,573,594,613,633,653,674,694,713,733,753,773,793,813,833,853,873,894,914,933,953,973,994,1013,1032,1053,1073,1094,1113,1132,1153,1174,1193,1213,1234,1253,1273,1293,1313,1333,1353,1372,1394,1414,1433,1453,1473,1494,1513],"xSR":741.5,"ySR":469.95,"xT1":424.9,"yT1":0,"xT2":1058.1,"yT2":0,"toosoon":0,"cond_shown":"equaldotsize","ratio_trial":750,"smaller_num":"15","larger_num":"20","correct_side":2,"subjID":"LidaDiaz21","gender":"1","age":"9","school":"4"},{"start_time":1552055033706,"click_time":1552055034997,"finger_time":1552055034377,"fix_duration":827.6079986107649,"trial":47,"RT":671,"MT":620,"sideResp":2,"stimulus":"img/250/equaldotanddens/R/12_Ratio_250_L_5_R_20.png","xmouse":[783,783,783,783,783,783,783,783,783,783,783,783,783,783,783,783,783,783,783,783,783,783,783,783,783,783,783,783,784,785,789,807,825,854,858,858,859,863,867,870,877,885,917,941,966,993,1015,1036,1066,1068,1069,1071,1077,1094,1099,1105,1108,1111,1113,1113,1113,1113,1113,1113,1113],"ymouse":[545,545,545,545,545,545,545,545,545,545,545,545,545,545,545,545,545,545,545,545,545,545,545,545,545,545,545,545,544,543,534,505,486,466,464,463,463,460,457,454,449,443,422,411,401,389,379,367,344,339,336,330,314,273,248,223,204,191,174,164,151,138,117,107,99],"timestamp_mouse":[13,34,52,71,91,111,132,151,172,191,211,232,252,272,290,310,331,352,372,391,410,432,452,471,491,511,532,551,572,591,612,631,651,671,691,711,730,752,770,791,812,831,851,871,891,911,931,951,970,991,1011,1032,1052,1071,1091,1111,1130,1152,1172,1191,1212,1232,1253,1271,1291],"xSR":741.5,"ySR":469.95,"xT1":424.9,"yT1":0,"xT2":1058.1,"yT2":0,"toosoon":0,"cond_shown":"equaldotanddens","ratio_trial":250,"smaller_num":"5","larger_num":"20","correct_side":2,"subjID":"LidaDiaz21","gender":"1","age":"9","school":"4"},{"start_time":1552055036349,"click_time":1552055037617,"finger_time":1552055037217,"fix_duration":290.550256249406,"trial":48,"RT":868,"MT":400,"sideResp":2,"stimulus":"img/900/equaldotanddens/R/12_Ratio_900_L_18_R_20.png","xmouse":[770,770,770,770,770,770,770,770,770,770,770,770,770,770,770,770,770,770,770,770,770,770,770,770,770,770,770,770,770,770,770,770,770,770,770,770,770,770,770,770,775,802,819,835,846,859,883,899,915,933,971,993,1018,1039,1055,1069,1075,1077,1079,1081,1084,1091,1092,1092],"ymouse":[537,537,537,537,537,537,537,537,537,537,537,537,537,537,537,537,537,537,537,537,537,537,537,537,537,537,537,537,537,537,537,537,537,537,537,537,537,537,537,537,525,487,473,462,453,442,422,408,393,371,324,302,278,260,245,222,195,183,169,156,144,113,100,90],"timestamp_mouse":[13,43,49,67,87,109,129,148,167,189,209,229,247,268,288,308,328,349,368,389,409,429,449,468,487,508,529,549,568,588,608,629,648,669,687,709,729,748,768,788,809,828,849,868,888,908,928,949,968,988,1010,1027,1048,1069,1088,1108,1128,1148,1169,1189,1209,1228,1248,1268],"xSR":741.5,"ySR":469.95,"xT1":424.9,"yT1":0,"xT2":1058.1,"yT2":0,"toosoon":0,"cond_shown":"equaldotanddens","ratio_trial":900,"smaller_num":"18","larger_num":"20","correct_side":2,"subjID":"LidaDiaz21","gender":"1","age":"9","school":"4"},{"start_time":1552055039953,"click_time":1552055041358,"finger_time":1552055040838,"fix_duration":1133.179037229446,"trial":49,"RT":885,"MT":520,"sideResp":1,"stimulus":"img/900/randomdotsizeEA/R/11_Ratio_900_L_18_R_20.png","xmouse":[815,815,815,815,815,815,815,815,815,815,815,815,815,815,815,815,815,815,815,815,815,815,815,815,815,815,815,815,813,811,804,791,786,785,785,785,785,785,785,785,785,783,780,772,764,753,730,718,703,690,674,663,639,623,614,603,578,569,559,552,544,527,516,502,491,484,481,480,480,479,478],"ymouse":[518,518,518,518,518,518,518,518,518,518,518,518,518,518,518,518,518,518,518,518,518,518,518,518,518,518,518,518,518,518,518,516,515,515,515,515,514,512,509,506,501,493,487,477,467,457,437,427,416,409,400,391,361,333,315,297,263,248,236,225,213,190,175,155,140,131,119,113,109,103,97],"timestamp_mouse":[23,23,46,63,84,104,124,144,164,183,203,224,244,264,283,303,325,344,364,383,404,424,444,464,484,504,524,545,565,585,605,624,645,665,684,704,724,744,764,785,803,824,845,864,885,904,925,944,964,984,1005,1023,1045,1064,1083,1103,1125,1144,1165,1185,1204,1225,1244,1265,1284,1303,1325,1344,1365,1384,1405],"xSR":741.5,"ySR":469.95,"xT1":424.9,"yT1":0,"xT2":1058.1,"yT2":0,"toosoon":0,"cond_shown":"randomdotsizeEA","ratio_trial":900,"smaller_num":"18","larger_num":"20","correct_side":2,"subjID":"LidaDiaz21","gender":"1","age":"9","school":"4"},{"start_time":1552055050857,"click_time":1552055052577,"finger_time":1552055051717,"fix_duration":1217.4675906113916,"trial":50,"RT":860,"MT":860,"sideResp":1,"stimulus":"img/750/equaldotanddens/L/1_Ratio_750_L_20_R_15.png","xmouse":[769,769,769,769,769,769,769,769,769,769,769,769,769,769,769,769,769,769,769,769,769,769,769,769,769,769,769,769,769,769,769,769,769,769,769,771,772,774,778,781,782,782,776,769,762,756,750,744,728,721,707,688,672,654,649,645,644,644,644,644,644,643,638,632,627,623,621,618,611,606,601,596,591,587,580,574,567,560,559,558,558,558,558,553,544,532,516],"ymouse":[531,531,531,531,531,531,531,531,531,531,531,531,531,531,531,531,531,531,531,531,531,531,531,531,531,531,531,531,531,531,531,531,531,531,531,531,530,530,527,519,502,491,471,464,459,454,448,444,432,427,408,381,355,321,310,299,292,282,257,247,243,239,223,204,194,187,183,176,164,155,149,143,137,122,100,77,56,32,28,26,26,26,26,24,24,24,24],"timestamp_mouse":[11,21,40,60,81,101,120,139,161,180,201,220,240,260,281,301,320,340,360,379,401,420,440,461,481,500,520,540,561,580,600,619,640,661,680,701,720,740,760,779,800,820,840,860,880,900,920,939,960,980,1000,1020,1041,1059,1080,1100,1120,1140,1160,1180,1200,1221,1241,1259,1281,1301,1320,1340,1360,1380,1401,1421,1440,1460,1480,1500,1521,1542,1560,1580,1601,1621,1640,1661,1680,1700,1720],"xSR":741.5,"ySR":469.95,"xT1":424.9,"yT1":0,"xT2":1058.1,"yT2":0,"toosoon":0,"cond_shown":"equaldotanddens","ratio_trial":750,"smaller_num":"15","larger_num":"20","correct_side":1,"subjID":"LidaDiaz21","gender":"1","age":"9","school":"4"},{"start_time":1552055055077,"click_time":1552055057017,"finger_time":1552055056077,"fix_duration":1157.4670303311455,"trial":51,"RT":1000,"MT":940,"sideResp":1,"stimulus":"img/500/equaldotsize/L/13_Ratio_500_L_12_R_6.png","xmouse":[792,792,792,792,792,792,792,792,792,792,792,792,792,792,792,792,792,792,792,792,792,792,792,792,792,792,792,792,792,792,792,792,792,792,792,792,792,792,792,792,792,792,787,781,774,767,762,756,755,752,746,740,719,709,693,680,670,661,657,651,644,640,631,628,624,618,613,599,590,588,581,575,568,565,561,558,555,551,549,549,549,549,549,548,546,544,540,532,529,525,523,519,513,511,510,508,508,507],"ymouse":[539,539,539,539,539,539,539,539,539,539,539,539,539,539,539,539,539,539,539,539,539,539,539,539,539,539,539,539,539,539,539,539,539,539,539,539,539,539,539,539,539,539,533,530,525,520,516,504,496,482,469,458,425,407,387,370,355,338,330,322,312,305,290,284,276,266,257,232,218,215,206,200,190,185,180,172,167,155,150,148,148,148,148,148,146,142,136,126,123,119,116,112,107,105,103,101,101,99],"timestamp_mouse":[10,20,41,61,79,100,121,140,160,180,201,220,241,261,281,301,320,341,361,379,401,420,440,459,480,501,520,541,560,581,600,620,641,660,681,701,720,739,761,780,801,820,840,860,881,901,921,940,959,980,1000,1020,1041,1060,1081,1100,1119,1140,1160,1180,1200,1220,1240,1260,1280,1301,1320,1340,1359,1380,1400,1420,1440,1460,1481,1501,1521,1540,1560,1579,1600,1621,1640,1660,1680,1700,1721,1741,1759,1780,1800,1820,1840,1861,1881,1899,1920,1940],"xSR":741.5,"ySR":469.95,"xT1":424.9,"yT1":0,"xT2":1058.1,"yT2":0,"toosoon":0,"cond_shown":"equaldotsize","ratio_trial":500,"smaller_num":"6","larger_num":"12","correct_side":1,"subjID":"LidaDiaz21","gender":"1","age":"9","school":"4"},{"start_time":1552055058549,"click_time":1552055060437,"finger_time":1552055059557,"fix_duration":250,"trial":52,"RT":1008,"MT":880,"sideResp":1,"stimulus":"img/750/equaldotsize/L/10_Ratio_750_L_4_R_3.png","xmouse":[804,804,804,804,804,804,804,804,804,804,804,804,804,804,804,804,804,804,804,804,804,804,804,804,804,804,804,804,804,804,804,804,804,804,804,804,804,804,804,804,804,804,804,804,805,805,806,807,807,807,804,802,801,798,795,793,790,785,781,775,773,770,768,763,761,754,740,723,686,670,649,632,618,602,593,583,571,556,526,513,506,502,500,497,493,492,491,490,489,487,487,487,487,491,491],"ymouse":[499,499,499,499,499,499,499,499,499,499,499,499,499,499,499,499,499,499,499,499,499,499,499,499,499,499,499,499,499,499,499,499,499,499,499,499,499,499,499,499,499,499,499,499,499,499,496,494,488,473,462,454,448,439,427,417,404,390,377,363,360,356,354,349,346,340,330,318,294,282,271,263,253,246,241,234,224,211,184,175,169,165,162,159,153,152,150,149,143,139,135,129,121,102,98],"timestamp_mouse":[21,30,51,68,88,108,129,148,167,189,209,228,248,268,289,308,329,349,368,387,409,428,448,468,489,507,529,548,568,587,609,628,649,668,689,708,729,749,768,789,808,827,849,868,889,908,928,948,967,988,1008,1029,1048,1068,1088,1108,1128,1148,1169,1188,1208,1229,1248,1269,1288,1308,1328,1348,1368,1388,1407,1428,1449,1469,1488,1508,1529,1548,1569,1588,1607,1628,1648,1668,1688,1708,1728,1748,1769,1788,1809,1828,1849,1870,1887],"xSR":741.5,"ySR":469.95,"xT1":424.9,"yT1":0,"xT2":1058.1,"yT2":0,"toosoon":0,"cond_shown":"equaldotsize","ratio_trial":750,"smaller_num":"3","larger_num":"4","correct_side":1,"subjID":"LidaDiaz21","gender":"1","age":"9","school":"4"},{"start_time":1552055063177,"click_time":1552055064818,"finger_time":1552055064057,"fix_duration":1298.0607940832988,"trial":53,"RT":880,"MT":761,"sideResp":2,"stimulus":"img/900/equaldotsize/R/11_Ratio_900_L_18_R_20.png","xmouse":[809,809,809,809,809,809,809,809,809,809,809,809,809,809,809,809,809,809,809,809,809,809,809,809,809,809,809,809,809,809,809,809,809,809,809,809,809,809,810,812,816,819,823,837,844,847,850,853,859,861,863,865,871,886,901,916,930,940,962,975,986,1005,1014,1025,1028,1029,1031,1033,1038,1042,1042,1044,1045,1046,1047,1048,1049,1050,1053,1054,1056,1058,1060],"ymouse":[513,513,513,513,513,513,513,513,513,513,513,513,513,513,513,513,513,513,513,513,513,513,513,513,513,513,513,513,513,513,513,513,513,513,513,513,513,513,513,512,510,509,505,472,449,438,434,429,423,421,421,419,414,391,374,355,340,328,300,284,268,239,226,202,191,184,175,169,151,142,139,129,124,115,111,108,106,102,95,91,87,84,80],"timestamp_mouse":[2,19,39,60,80,101,121,141,160,180,201,220,240,260,281,301,320,339,361,380,399,419,439,461,480,500,521,540,561,581,599,619,640,661,680,701,721,740,760,780,800,820,841,861,880,901,920,941,960,980,999,1020,1041,1059,1080,1100,1121,1140,1160,1179,1200,1221,1240,1260,1279,1300,1319,1341,1360,1380,1400,1420,1440,1460,1480,1500,1520,1541,1560,1580,1599,1620,1641],"xSR":741.5,"ySR":469.95,"xT1":424.9,"yT1":0,"xT2":1058.1,"yT2":0,"toosoon":0,"cond_shown":"equaldotsize","ratio_trial":900,"smaller_num":"18","larger_num":"20","correct_side":2,"subjID":"LidaDiaz21","gender":"1","age":"9","school":"4"},{"start_time":1552055066505,"click_time":1552055067838,"finger_time":1552055067437,"fix_duration":466.27621085829907,"trial":54,"RT":932,"MT":401,"sideResp":1,"stimulus":"img/500/randomdotsizeEA/R/1_Ratio_500_L_9_R_18.png","xmouse":[778,778,778,778,778,778,778,778,778,778,778,778,778,778,778,778,778,778,778,778,778,778,778,778,778,778,778,778,778,778,778,778,778,778,778,778,778,778,778,778,778,778,778,778,778,770,752,740,727,713,702,686,680,671,662,653,632,621,609,594,577,538,521,500,487,475,465],"ymouse":[507,507,507,507,507,507,507,507,507,507,507,507,507,507,507,507,507,507,507,507,507,507,507,507,507,507,507,507,507,507,507,507,507,507,507,507,507,507,507,507,507,507,507,507,507,491,457,441,425,408,395,374,364,346,333,316,276,258,238,217,197,155,139,123,114,105,95],"timestamp_mouse":[13,37,52,73,91,113,131,152,172,193,211,231,252,273,293,313,332,352,373,392,411,432,452,472,493,512,532,552,572,591,613,632,652,672,692,712,732,753,772,793,811,832,853,873,892,912,932,952,972,992,1011,1033,1051,1072,1092,1112,1133,1152,1173,1192,1212,1233,1252,1273,1293,1313,1333],"xSR":741.5,"ySR":469.95,"xT1":424.9,"yT1":0,"xT2":1058.1,"yT2":0,"toosoon":0,"cond_shown":"randomdotsizeEA","ratio_trial":500,"smaller_num":"9","larger_num":"18","correct_side":2,"subjID":"LidaDiaz21","gender":"1","age":"9","school":"4"},{"start_time":1552055069555,"click_time":1552055070857,"finger_time":1552055070297,"fix_duration":317.98833169049965,"trial":55,"RT":742,"MT":560,"sideResp":1,"stimulus":"img/900/equaldotanddens/L/2_Ratio_900_L_20_R_18.png","xmouse":[779,779,779,779,779,779,779,779,779,779,779,779,779,779,779,779,779,779,779,779,779,779,779,779,779,779,779,779,779,779,779,779,779,779,780,780,778,773,766,759,744,739,735,731,726,713,704,694,677,626,583,583,583,583,583,583,583,583,583,583,583,583,583,583,583,479],"ymouse":[516,516,516,516,516,516,516,516,516,516,516,516,516,516,516,516,516,516,516,516,516,516,516,516,516,516,516,516,516,516,516,516,516,516,515,504,486,468,452,437,402,389,378,362,346,306,284,262,221,108,24,24,24,24,24,24,24,24,24,24,24,24,24,24,24,10],"timestamp_mouse":[10,36,42,62,81,101,123,143,161,183,203,223,241,262,283,302,323,343,361,382,403,423,442,463,482,502,523,542,563,583,602,622,643,663,683,702,723,742,761,782,802,823,842,862,881,901,923,943,963,982,1002,1022,1042,1062,1083,1103,1122,1143,1162,1182,1202,1222,1242,1262,1282,1302],"xSR":741.5,"ySR":469.95,"xT1":424.9,"yT1":0,"xT2":1058.1,"yT2":0,"toosoon":0,"cond_shown":"equaldotanddens","ratio_trial":900,"smaller_num":"18","larger_num":"20","correct_side":1,"subjID":"LidaDiaz21","gender":"1","age":"9","school":"4"},{"start_time":1552055073367,"click_time":1552055074877,"finger_time":1552055074138,"fix_duration":1307.6943133294394,"trial":56,"RT":771,"MT":739,"sideResp":2,"stimulus":"img/500/equaldotsize/R/6_Ratio_500_L_9_R_18.png","xmouse":[794,794,794,794,794,794,794,794,794,794,794,794,794,794,794,794,794,794,794,794,794,794,794,794,794,794,794,794,794,794,794,794,794,794,794,794,799,812,826,846,852,854,855,856,858,859,862,868,875,893,903,911,918,925,938,947,952,960,968,983,991,996,1003,1011,1028,1035,1042,1046,1049,1052,1052,1052,1052,1052,1055,1059],"ymouse":[520,520,520,520,520,520,520,520,520,520,520,520,520,520,520,520,520,520,520,520,520,520,520,520,520,520,520,520,520,520,520,520,520,520,520,520,505,479,460,436,429,424,420,416,413,409,406,400,395,379,366,355,344,332,311,299,290,280,271,249,239,232,223,211,178,161,140,125,111,96,95,95,95,95,87,82],"timestamp_mouse":[13,40,50,69,89,111,130,150,170,190,209,231,251,271,290,311,331,350,370,391,409,430,450,469,490,511,531,550,569,591,610,630,649,670,689,711,730,751,771,790,811,830,851,871,890,909,930,950,971,990,1010,1030,1050,1071,1090,1109,1130,1149,1170,1190,1210,1229,1250,1270,1290,1310,1330,1350,1370,1390,1411,1430,1450,1470,1490,1509],"xSR":741.5,"ySR":469.95,"xT1":424.9,"yT1":0,"xT2":1058.1,"yT2":0,"toosoon":0,"cond_shown":"equaldotsize","ratio_trial":500,"smaller_num":"9","larger_num":"18","correct_side":2,"subjID":"LidaDiaz21","gender":"1","age":"9","school":"4"},{"start_time":1552055076921,"click_time":1552055078258,"finger_time":1552055077577,"fix_duration":901.8826674456801,"trial":57,"RT":656,"MT":681,"sideResp":1,"stimulus":"img/750/randomdotsizeEA/R/4_Ratio_750_L_15_R_20.png","xmouse":[817,817,817,817,817,817,817,817,817,817,817,817,817,817,817,817,817,817,817,817,817,817,817,817,817,817,817,817,817,817,817,806,772,758,742,723,689,678,668,658,651,639,634,628,622,617,610,608,606,601,595,587,567,559,545,534,513,504,494,484,480,480,480,479,477,474,469],"ymouse":[508,508,508,508,508,508,508,508,508,508,508,508,508,508,508,508,508,508,508,508,508,508,508,508,508,508,508,508,508,508,508,488,432,412,393,377,345,335,326,319,311,289,276,262,249,236,219,211,204,196,187,177,155,147,137,131,126,124,121,119,118,118,117,116,114,107,96],"timestamp_mouse":[16,36,57,75,97,117,137,156,176,196,217,236,257,276,296,316,336,357,375,396,417,435,456,476,497,516,537,557,577,597,616,636,656,675,696,716,738,756,776,797,816,836,855,875,897,917,936,956,977,996,1016,1036,1056,1076,1097,1116,1137,1156,1175,1196,1216,1236,1256,1276,1296,1317,1337],"xSR":741.5,"ySR":469.95,"xT1":424.9,"yT1":0,"xT2":1058.1,"yT2":0,"toosoon":0,"cond_shown":"randomdotsizeEA","ratio_trial":750,"smaller_num":"15","larger_num":"20","correct_side":2,"subjID":"LidaDiaz21","gender":"1","age":"9","school":"4"},{"start_time":1552055080087,"click_time":1552055081299,"finger_time":1552055080860,"fix_duration":386.14154360554176,"trial":58,"RT":773,"MT":439,"sideResp":1,"stimulus":"img/250/randomdotsizeEA/L/5_Ratio_250_L_24_R_6.png","xmouse":[791,791,791,791,791,791,791,791,791,791,791,791,791,791,791,791,791,791,791,791,791,791,791,791,791,791,791,791,791,791,791,791,791,791,791,792,791,786,768,736,722,709,700,693,676,665,655,648,639,623,613,605,598,591,575,562,557,543,533,516,508],"ymouse":[535,535,535,535,535,535,535,535,535,535,535,535,535,535,535,535,535,535,535,535,535,535,535,535,535,535,535,535,535,535,535,535,535,535,535,535,512,493,444,399,381,365,351,340,315,302,287,276,261,237,223,213,202,192,172,156,150,134,122,105,97],"timestamp_mouse":[13,33,52,73,91,111,133,153,173,192,212,232,253,273,292,312,331,353,371,391,411,432,451,472,493,512,532,552,572,593,613,632,653,673,692,713,732,753,773,792,812,832,852,871,891,912,932,952,971,991,1011,1032,1052,1073,1092,1111,1131,1153,1173,1191,1212],"xSR":741.5,"ySR":469.95,"xT1":424.9,"yT1":0,"xT2":1058.1,"yT2":0,"toosoon":0,"cond_shown":"randomdotsizeEA","ratio_trial":250,"smaller_num":"6","larger_num":"24","correct_side":1,"subjID":"LidaDiaz21","gender":"1","age":"9","school":"4"},{"start_time":1552055083072,"click_time":1552055084519,"finger_time":1552055083739,"fix_duration":492.56739866697654,"trial":59,"RT":667,"MT":780,"sideResp":2,"stimulus":"img/250/equaldotanddens/R/10_Ratio_250_L_4_R_16.png","xmouse":[823,823,823,823,823,823,823,823,823,823,823,823,823,823,823,823,823,823,823,823,823,823,823,823,823,823,823,823,823,823,831,836,840,842,844,852,859,868,877,888,916,930,942,957,973,1002,1014,1020,1027,1030,1039,1042,1046,1050,1054,1058,1059,1059,1059,1059,1059,1059,1059,1059,1059,1059,1059,1059,1059,1059,1059,1059,1059],"ymouse":[503,503,503,503,503,503,503,503,503,503,503,503,503,503,503,503,503,503,503,503,503,503,503,503,503,503,503,503,503,503,498,494,491,490,489,484,479,472,464,451,426,416,406,394,380,349,335,327,318,313,297,288,278,268,255,230,218,200,187,177,167,161,156,151,144,134,130,128,125,119,109,103,96],"timestamp_mouse":[13,37,47,66,87,106,127,146,167,187,207,227,248,267,288,307,326,347,367,388,406,426,446,468,488,508,528,548,567,586,607,627,647,667,686,707,728,748,768,788,807,827,848,867,887,907,926,947,967,987,1007,1027,1046,1068,1087,1108,1127,1147,1167,1186,1207,1227,1247,1268,1287,1307,1328,1346,1367,1387,1407,1427,1446],"xSR":741.5,"ySR":469.95,"xT1":424.9,"yT1":0,"xT2":1058.1,"yT2":0,"toosoon":0,"cond_shown":"equaldotanddens","ratio_trial":250,"smaller_num":"4","larger_num":"16","correct_side":2,"subjID":"LidaDiaz21","gender":"1","age":"9","school":"4"},{"start_time":1552055086914,"click_time":1552055088379,"finger_time":1552055087740,"fix_duration":1412.5765968697926,"trial":60,"RT":826,"MT":639,"sideResp":1,"stimulus":"img/500/equaldotanddens/L/5_Ratio_500_L_4_R_2.png","xmouse":[767,767,767,767,767,767,767,767,767,767,767,767,767,767,767,767,767,767,767,767,767,767,767,767,767,767,767,767,767,767,767,767,767,767,767,767,767,767,767,757,742,732,724,676,656,647,642,641,638,629,623,618,613,602,598,595,592,588,578,570,563,556,548,539,511,510,509,509,509,509,508,505,503,499],"ymouse":[522,522,522,522,522,522,522,522,522,522,522,522,522,522,522,522,522,522,522,522,522,522,522,522,522,522,522,522,522,522,522,522,522,522,522,522,522,522,522,504,473,460,449,417,409,403,400,397,391,369,358,347,335,306,295,287,276,264,242,229,217,206,192,172,132,125,123,122,120,120,117,110,104,96],"timestamp_mouse":[12,36,45,65,85,104,124,145,164,186,206,225,246,266,284,306,326,346,365,384,406,426,444,465,485,506,524,546,565,585,605,624,645,665,685,706,725,746,765,785,806,826,845,866,884,905,926,945,965,985,1005,1024,1044,1066,1084,1105,1125,1146,1166,1185,1206,1225,1246,1265,1285,1305,1325,1345,1365,1385,1405,1425,1445,1465],"xSR":741.5,"ySR":469.95,"xT1":424.9,"yT1":0,"xT2":1058.1,"yT2":0,"toosoon":0,"cond_shown":"equaldotanddens","ratio_trial":500,"smaller_num":"2","larger_num":"4","correct_side":1,"subjID":"LidaDiaz21","gender":"1","age":"9","school":"4"},{"start_time":1552055089851,"click_time":1552055091299,"finger_time":1552055090699,"fix_duration":250,"trial":61,"RT":848,"MT":600,"sideResp":1,"stimulus":"img/900/randomdotsizeEA/R/11_Ratio_900_L_18_R_20.png","xmouse":[778,778,778,778,778,778,778,778,778,778