[{"start_time":1552327987147,"click_time":1552327989906,"finger_time":1552327988206,"fix_duration":857.355093440295,"trial":0,"RT":1059,"MT":1700,"sideResp":2,"stimulus":"img/900/equaldotsize/R/6_Ratio_900_L_9_R_10.png","xmouse":[796,796,796,796,796,796,796,796,796,796,796,796,796,796,796,796,796,796,796,796,796,796,796,796,796,796,796,796,796,796,796,796,796,796,796,796,796,796,796,796,796,796,796,796,796,796,796,796,796,797,810,825,835,841,842,842,842,842,842,842,842,842,842,842,842,842,842,842,842,842,842,842,842,842,842,846,873,880,886,890,892,892,892,892,892,892,892,892,892,892,892,892,892,892,892,892,893,893,893,895,902,902,902,902,904,916,922,927,941,971,1007,1025,1048,1076,1114,1197,1230,1242,1261,1280,1280,1280,1280,1280,1280,1280,1280,1280,1280,1280,1280,1280,1280,1280,1280,1280,1280,1152],"ymouse":[537,537,537,537,537,537,537,537,537,537,537,537,537,537,537,537,537,537,537,537,537,537,537,537,537,537,537,537,537,537,537,537,537,537,537,537,537,537,537,537,537,537,537,537,537,537,537,537,537,537,543,549,554,556,556,556,556,556,556,556,556,556,556,556,556,556,556,556,556,556,556,556,556,556,556,556,530,515,495,476,452,438,437,437,437,437,437,437,439,443,444,447,449,449,450,450,451,451,451,446,429,429,427,414,397,360,344,329,307,260,210,191,174,158,141,106,91,80,51,6,6,6,6,6,6,6,6,6,6,6,6,6,6,6,6,6,6,1],"timestamp_mouse":[10,43,58,78,99,119,140,158,179,199,219,239,258,278,298,319,339,359,378,399,419,440,459,479,499,519,540,559,579,598,618,639,659,679,698,719,739,758,778,799,819,840,860,879,898,919,940,959,979,999,1019,1039,1059,1079,1099,1119,1139,1158,1179,1198,1219,1238,1260,1279,1299,1319,1339,1359,1379,1398,1419,1438,1458,1479,1499,1519,1539,1559,1579,1599,1619,1638,1659,1679,1699,1720,1739,1759,1778,1799,1819,1839,1860,1879,1898,1919,1938,1958,1978,1998,2019,2039,2059,2079,2099,2119,2139,2160,2179,2199,2219,2239,2259,2278,2298,2319,2338,2359,2379,2399,2419,2439,2460,2478,2498,2519,2539,2558,2578,2598,2619,2638,2658,2678,2700,2719,2739,2759],"xSR":741.5,"ySR":481,"xT1":424.9,"yT1":0,"xT2":1058.1,"yT2":0,"toosoon":0,"cond_shown":"equaldotsize","ratio_trial":900,"smaller_num":"9","larger_num":"10","correct_side":2,"subjID":"linabonilla17","gender":"1","age":"9","school":"4","test":{"fix_dur":[250,1500],"timestim":300,"targets_dim":[100,100],"targets_relative_coord":[0.3,0.7],"size_stim":[880,420],"start_dim":[100,100],"size_start":[300,300],"size_fix":60,"samplingrate":20,"img_types":["equaldotsize","equaldotanddens","randomdotsizeEA"],"ratios":[250,500,750,900],"rep_conds":9,"nTrials":120,"trials_to_rest":500,"Trials_order":[117,87,49,55,67,8,63,3,2,73,103,80,84,27,14,116,21,11,13,94,74,95,77,37,20,44,10,112,79,58,64,33,119,5,34,6,83,93,50,69,118,19,90,26,16,59,111,24,115,100,102,56,91,60,76,57,82,81,15,47,25,0,28,7,53,105,110,4,23,109,86,38,99,101,22,17,36,9,51,61,78,18,75,98,43,71,31,1,113,88,41,68,96,12,35,104,107,85,32,89,70,45,30,54,62,29,66,108,65,72,114,92,39,106,48,40,46,42,52,97],"cond_shown":["equaldotsize","equaldotsize","equaldotanddens","equaldotanddens","equaldotanddens","randomdotsizeEA","equaldotsize","equaldotsize","randomdotsizeEA","equaldotanddens","equaldotanddens","randomdotsizeEA","equaldotsize","equaldotsize","randomdotsizeEA","randomdotsizeEA","equaldotsize","randomdotsizeEA","equaldotanddens","equaldotanddens","randomdotsizeEA","randomdotsizeEA","randomdotsizeEA","equaldotanddens","randomdotsizeEA","randomdotsizeEA","equaldotanddens","equaldotanddens","equaldotanddens","equaldotanddens","equaldotanddens","equaldotsize","randomdotsizeEA","randomdotsizeEA","equaldotanddens","equaldotsize","randomdotsizeEA","equaldotsize","randomdotsizeEA","equaldotsize","equaldotanddens","equaldotanddens","equaldotsize","randomdotsizeEA","equaldotanddens","randomdotsizeEA","equaldotsize","equaldotsize","equaldotanddens","equaldotanddens","equaldotsize","randomdotsizeEA","equaldotanddens","equaldotsize","equaldotanddens","equaldotsize","equaldotanddens","equaldotsize","equaldotsize","randomdotsizeEA","equaldotanddens","equaldotsize","equaldotanddens","equaldotanddens","randomdotsizeEA","equaldotsize","randomdotsizeEA","equaldotanddens","randomdotsizeEA","equaldotanddens","randomdotsizeEA","randomdotsizeEA","equaldotsize","randomdotsizeEA","equaldotanddens","randomdotsizeEA","equaldotsize","equaldotsize","equaldotsize","equaldotanddens","equaldotsize","equaldotsize","equaldotsize","randomdotsizeEA","equaldotanddens","randomdotsizeEA","equaldotanddens","equaldotanddens","randomdotsizeEA","equaldotanddens","randomdotsizeEA","randomdotsizeEA","equaldotsize","equaldotsize","randomdotsizeEA","randomdotsizeEA","randomdotsizeEA","equaldotanddens","randomdotsizeEA","randomdotsizeEA","equaldotanddens","equaldotsize","equaldotsize","equaldotsize","randomdotsizeEA","randomdotsizeEA","equaldotsize","equaldotsize","randomdotsizeEA","equaldotsize","equaldotsize","randomdotsizeEA","equaldotsize","equaldotanddens","equaldotsize","equaldotanddens","equaldotanddens","equaldotsize","equaldotanddens","equaldotanddens"],"ratio_trial":[900,500,250,750,750,750,500,500,250,250,750,750,250,500,250,750,900,900,250,900,250,900,500,250,750,750,900,500,750,900,500,900,900,500,900,750,900,900,250,900,900,750,750,250,500,900,500,250,750,500,750,750,750,250,500,900,900,900,500,900,250,250,500,750,500,900,250,500,900,250,250,250,500,500,900,500,250,900,500,250,750,750,500,250,750,900,750,250,500,500,500,750,250,250,900,750,900,250,750,500,900,900,750,750,250,500,750,250,500,250,750,750,500,900,250,500,900,750,500,250],"smaller_num":["9","6","2","12","15","6","1","2","3","2","15","15","4","1","3","3","9","18","2","18","5","9","9","2","15","3","18","9","12","9","5","18","18","4","18","15","18","18","2","9","18","15","12","6","6","9","3","3","12","2","6","9","15","3","1","18","18","9","9","18","6","3","9","15","4","18","5","2","9","5","3","6","3","5","18","2","6","18","6","3","15","6","2","3","15","18","15","2","9","2","10","3","3","4","18","3","18","3","12","1","9","18","3","3","3","9","6","2","5","2","15","12","9","18","1","3","9","6","9","3"],"larger_num":["10","12","8","16","20","8","2","4","12","8","20","20","16","2","12","4","10","20","8","20","20","10","18","8","20","4","20","18","16","10","10","20","20","8","20","20","20","20","8","10","20","20","16","24","12","10","6","12","16","4","8","12","20","12","2","20","20","10","18","20","24","12","18","20","8","20","20","4","10","20","12","24","6","10","20","4","24","20","12","12","20","8","4","12","20","20","20","8","18","4","20","4","12","16","20","4","20","12","16","2","10","20","4","4","12","18","8","8","10","8","20","16","18","20","4","6","10","8","18","12"],"correct_side":[2,1,1,2,2,1,2,1,2,1,1,2,1,2,2,2,1,1,2,2,2,2,1,1,2,2,2,1,2,1,2,2,1,1,1,1,2,1,1,2,1,2,2,2,1,2,2,1,2,2,1,2,2,1,2,1,2,2,2,1,1,2,2,2,1,2,2,2,1,2,2,2,2,2,1,1,2,2,1,1,2,1,1,2,1,1,2,1,1,1,2,1,2,1,1,1,1,1,2,2,1,2,1,2,1,2,2,1,2,1,2,2,2,1,2,2,1,1,2,2],"img_shown":["img/900/equaldotsize/R/6_Ratio_900_L_9_R_10.png","img/500/equaldotsize/L/11_Ratio_500_L_12_R_6.png","img/250/equaldotanddens/L/3_Ratio_250_L_8_R_2.png","img/750/equaldotanddens/R/11_Ratio_750_L_12_R_16.png","img/750/equaldotanddens/R/4_Ratio_750_L_15_R_20.png","img/750/randomdotsizeEA/L/13_Ratio_750_L_8_R_6.png","img/500/equaldotsize/R/12_Ratio_500_L_1_R_2.png","img/500/equaldotsize/L/10_Ratio_500_L_4_R_2.png","img/250/randomdotsizeEA/R/11_Ratio_250_L_3_R_12.png","img/250/equaldotanddens/L/1_Ratio_250_L_8_R_2.png","img/750/equaldotanddens/L/1_Ratio_750_L_20_R_15.png","img/750/randomdotsizeEA/R/4_Ratio_750_L_15_R_20.png","img/250/equaldotsize/L/2_Ratio_250_L_16_R_4.png","img/500/equaldotsize/R/15_Ratio_500_L_1_R_2.png","img/250/randomdotsizeEA/R/11_Ratio_250_L_3_R_12.png","img/750/randomdotsizeEA/R/7_Ratio_750_L_3_R_4.png","img/900/equaldotsize/L/1_Ratio_900_L_10_R_9.png","img/900/randomdotsizeEA/L/10_Ratio_900_L_20_R_18.png","img/250/equaldotanddens/R/13_Ratio_250_L_2_R_8.png","img/900/equaldotanddens/R/12_Ratio_900_L_18_R_20.png","img/250/randomdotsizeEA/R/12_Ratio_250_L_5_R_20.png","img/900/randomdotsizeEA/R/15_Ratio_900_L_9_R_10.png","img/500/randomdotsizeEA/L/4_Ratio_500_L_18_R_9.png","img/250/equaldotanddens/L/1_Ratio_250_L_8_R_2.png","img/750/randomdotsizeEA/R/3_Ratio_750_L_15_R_20.png","img/750/randomdotsizeEA/R/7_Ratio_750_L_3_R_4.png","img/900/equaldotanddens/R/11_Ratio_900_L_18_R_20.png","img/500/equaldotanddens/L/4_Ratio_500_L_18_R_9.png","img/750/equaldotanddens/R/11_Ratio_750_L_12_R_16.png","img/900/equaldotanddens/L/1_Ratio_900_L_10_R_9.png","img/500/equaldotanddens/R/14_Ratio_500_L_5_R_10.png","img/900/equaldotsize/R/13_Ratio_900_L_18_R_20.png","img/900/randomdotsizeEA/L/4_Ratio_900_L_20_R_18.png","img/500/randomdotsizeEA/L/8_Ratio_500_L_8_R_4.png","img/900/equaldotanddens/L/8_Ratio_900_L_20_R_18.png","img/750/equaldotsize/L/1_Ratio_750_L_20_R_15.png","img/900/randomdotsizeEA/R/9_Ratio_900_L_18_R_20.png","img/900/equaldotsize/L/2_Ratio_900_L_20_R_18.png","img/250/randomdotsizeEA/L/1_Ratio_250_L_8_R_2.png","img/900/equaldotsize/R/15_Ratio_900_L_9_R_10.png","img/900/equaldotanddens/L/2_Ratio_900_L_20_R_18.png","img/750/equaldotanddens/R/5_Ratio_750_L_15_R_20.png","img/750/equaldotsize/R/11_Ratio_750_L_12_R_16.png","img/250/randomdotsizeEA/R/6_Ratio_250_L_6_R_24.png","img/500/equaldotanddens/L/11_Ratio_500_L_12_R_6.png","img/900/randomdotsizeEA/R/7_Ratio_900_L_9_R_10.png","img/500/equaldotsize/R/2_Ratio_500_L_3_R_6.png","img/250/equaldotsize/L/15_Ratio_250_L_12_R_3.png","img/750/equaldotanddens/R/11_Ratio_750_L_12_R_16.png","img/500/equaldotanddens/R/9_Ratio_500_L_2_R_4.png","img/750/equaldotsize/L/14_Ratio_750_L_8_R_6.png","img/750/randomdotsizeEA/R/15_Ratio_750_L_9_R_12.png","img/750/equaldotanddens/R/4_Ratio_750_L_15_R_20.png","img/250/equaldotsize/L/14_Ratio_250_L_12_R_3.png","img/500/equaldotanddens/R/15_Ratio_500_L_1_R_2.png","img/900/equaldotsize/L/8_Ratio_900_L_20_R_18.png","img/900/equaldotanddens/R/12_Ratio_900_L_18_R_20.png","img/900/equaldotsize/R/3_Ratio_900_L_9_R_10.png","img/500/equaldotsize/R/1_Ratio_500_L_9_R_18.png","img/900/randomdotsizeEA/L/8_Ratio_900_L_20_R_18.png","img/250/equaldotanddens/L/5_Ratio_250_L_24_R_6.png","img/250/equaldotsize/R/9_Ratio_250_L_3_R_12.png","img/500/equaldotanddens/R/6_Ratio_500_L_9_R_18.png","img/750/equaldotanddens/R/5_Ratio_750_L_15_R_20.png","img/500/randomdotsizeEA/L/8_Ratio_500_L_8_R_4.png","img/900/equaldotsize/R/14_Ratio_900_L_18_R_20.png","img/250/randomdotsizeEA/R/12_Ratio_250_L_5_R_20.png","img/500/equaldotanddens/R/9_Ratio_500_L_2_R_4.png","img/900/randomdotsizeEA/L/1_Ratio_900_L_10_R_9.png","img/250/equaldotanddens/R/12_Ratio_250_L_5_R_20.png","img/250/randomdotsizeEA/R/4_Ratio_250_L_3_R_12.png","img/250/randomdotsizeEA/R/6_Ratio_250_L_6_R_24.png","img/500/equaldotsize/R/2_Ratio_500_L_3_R_6.png","img/500/randomdotsizeEA/R/14_Ratio_500_L_5_R_10.png","img/900/equaldotanddens/L/2_Ratio_900_L_20_R_18.png","img/500/randomdotsizeEA/L/10_Ratio_500_L_4_R_2.png","img/250/equaldotsize/R/6_Ratio_250_L_6_R_24.png","img/900/equaldotsize/R/11_Ratio_900_L_18_R_20.png","img/500/equaldotsize/L/11_Ratio_500_L_12_R_6.png","img/250/equaldotanddens/L/15_Ratio_250_L_12_R_3.png","img/750/equaldotsize/R/4_Ratio_750_L_15_R_20.png","img/750/equaldotsize/L/14_Ratio_750_L_8_R_6.png","img/500/equaldotsize/L/10_Ratio_500_L_4_R_2.png","img/250/randomdotsizeEA/R/11_Ratio_250_L_3_R_12.png","img/750/equaldotanddens/L/1_Ratio_750_L_20_R_15.png","img/900/randomdotsizeEA/L/10_Ratio_900_L_20_R_18.png","img/750/equaldotanddens/R/3_Ratio_750_L_15_R_20.png","img/250/equaldotanddens/L/1_Ratio_250_L_8_R_2.png","img/500/randomdotsizeEA/L/4_Ratio_500_L_18_R_9.png","img/500/equaldotanddens/L/10_Ratio_500_L_4_R_2.png","img/500/randomdotsizeEA/R/3_Ratio_500_L_10_R_20.png","img/750/randomdotsizeEA/L/9_Ratio_750_L_4_R_3.png","img/250/equaldotsize/R/9_Ratio_250_L_3_R_12.png","img/250/equaldotsize/L/2_Ratio_250_L_16_R_4.png","img/900/randomdotsizeEA/L/10_Ratio_900_L_20_R_18.png","img/750/randomdotsizeEA/L/10_Ratio_750_L_4_R_3.png","img/900/randomdotsizeEA/L/2_Ratio_900_L_20_R_18.png","img/250/equaldotanddens/L/14_Ratio_250_L_12_R_3.png","img/750/randomdotsizeEA/R/11_Ratio_750_L_12_R_16.png","img/500/randomdotsizeEA/R/15_Ratio_500_L_1_R_2.png","img/900/equaldotanddens/L/1_Ratio_900_L_10_R_9.png","img/900/equaldotsize/R/14_Ratio_900_L_18_R_20.png","img/750/equaldotsize/L/9_Ratio_750_L_4_R_3.png","img/750/equaldotsize/R/7_Ratio_750_L_3_R_4.png","img/250/randomdotsizeEA/L/14_Ratio_250_L_12_R_3.png","img/500/randomdotsizeEA/R/6_Ratio_500_L_9_R_18.png","img/750/equaldotsize/R/2_Ratio_750_L_6_R_8.png","img/250/equaldotsize/L/1_Ratio_250_L_8_R_2.png","img/500/randomdotsizeEA/R/14_Ratio_500_L_5_R_10.png","img/250/equaldotsize/L/3_Ratio_250_L_8_R_2.png","img/750/equaldotsize/R/3_Ratio_750_L_15_R_20.png","img/750/randomdotsizeEA/R/11_Ratio_750_L_12_R_16.png","img/500/equaldotsize/R/6_Ratio_500_L_9_R_18.png","img/900/equaldotanddens/L/8_Ratio_900_L_20_R_18.png","img/250/equaldotsize/R/8_Ratio_250_L_1_R_4.png","img/500/equaldotanddens/R/2_Ratio_500_L_3_R_6.png","img/900/equaldotanddens/L/1_Ratio_900_L_10_R_9.png","img/750/equaldotsize/L/14_Ratio_750_L_8_R_6.png","img/500/equaldotanddens/R/1_Ratio_500_L_9_R_18.png","img/250/equaldotanddens/R/11_Ratio_250_L_3_R_12.png"],"Rat0":[["12_Ratio_0_L_9_R_0.png","13_Ratio_0_L_6_R_0.png","5_Ratio_0_L_2_R_0.png","6_Ratio_0_L_4_R_0.png","8_Ratio_0_L_6_R_0.png"],["1_Ratio_0_L_0_R_17.png","10_Ratio_0_L_0_R_22.png","11_Ratio_0_L_0_R_1.png","14_Ratio_0_L_0_R_24.png","15_Ratio_0_L_0_R_4.png","2_Ratio_0_L_0_R_5.png","3_Ratio_0_L_0_R_17.png","4_Ratio_0_L_0_R_7.png","7_Ratio_0_L_0_R_19.png","9_Ratio_0_L_0_R_15.png"]],"Rat250":[["1_Ratio_250_L_8_R_2.png","14_Ratio_250_L_12_R_3.png","15_Ratio_250_L_12_R_3.png","2_Ratio_250_L_16_R_4.png","3_Ratio_250_L_8_R_2.png","5_Ratio_250_L_24_R_6.png","7_Ratio_250_L_8_R_2.png"],["10_Ratio_250_L_4_R_16.png","11_Ratio_250_L_3_R_12.png","12_Ratio_250_L_5_R_20.png","13_Ratio_250_L_2_R_8.png","4_Ratio_250_L_3_R_12.png","6_Ratio_250_L_6_R_24.png","8_Ratio_250_L_1_R_4.png","9_Ratio_250_L_3_R_12.png"]],"Rat500":[["10_Ratio_500_L_4_R_2.png","11_Ratio_500_L_12_R_6.png","13_Ratio_500_L_12_R_6.png","4_Ratio_500_L_18_R_9.png","5_Ratio_500_L_4_R_2.png","7_Ratio_500_L_10_R_5.png","8_Ratio_500_L_8_R_4.png"],["1_Ratio_500_L_9_R_18.png","12_Ratio_500_L_1_R_2.png","14_Ratio_500_L_5_R_10.png","15_Ratio_500_L_1_R_2.png","2_Ratio_500_L_3_R_6.png","3_Ratio_500_L_10_R_20.png","6_Ratio_500_L_9_R_18.png","9_Ratio_500_L_2_R_4.png"]],"Rat750":[["1_Ratio_750_L_20_R_15.png","10_Ratio_750_L_4_R_3.png","13_Ratio_750_L_8_R_6.png","14_Ratio_750_L_8_R_6.png","6_Ratio_750_L_24_R_18.png","8_Ratio_750_L_4_R_3.png","9_Ratio_750_L_4_R_3.png"],["11_Ratio_750_L_12_R_16.png","12_Ratio_750_L_3_R_4.png","15_Ratio_750_L_9_R_12.png","2_Ratio_750_L_6_R_8.png","3_Ratio_750_L_15_R_20.png","4_Ratio_750_L_15_R_20.png","5_Ratio_750_L_15_R_20.png","7_Ratio_750_L_3_R_4.png"]],"Rat900":[["1_Ratio_900_L_10_R_9.png","10_Ratio_900_L_20_R_18.png","2_Ratio_900_L_20_R_18.png","4_Ratio_900_L_20_R_18.png","8_Ratio_900_L_20_R_18.png"],["11_Ratio_900_L_18_R_20.png","12_Ratio_900_L_18_R_20.png","13_Ratio_900_L_18_R_20.png","14_Ratio_900_L_18_R_20.png","15_Ratio_900_L_9_R_10.png","3_Ratio_900_L_9_R_10.png","5_Ratio_900_L_9_R_10.png","6_Ratio_900_L_9_R_10.png","7_Ratio_900_L_9_R_10.png","9_Ratio_900_L_18_R_20.png"]],"Rat1000":[["10_Ratio_1000_L_16_R_16.png","11_Ratio_1000_L_6_R_6.png","12_Ratio_1000_L_14_R_14.png","13_Ratio_1000_L_20_R_20.png","15_Ratio_1000_L_15_R_15.png","2_Ratio_1000_L_17_R_17.png","4_Ratio_1000_L_9_R_9.png","5_Ratio_1000_L_6_R_6.png","6_Ratio_1000_L_19_R_19.png","8_Ratio_1000_L_14_R_14.png","9_Ratio_1000_L_25_R_25.png"],["1_Ratio_1000_L_1_R_1.png","14_Ratio_1000_L_17_R_17.png","3_Ratio_1000_L_17_R_17.png","7_Ratio_1000_L_6_R_6.png"]]}},{"start_time":1552327992934,"click_time":1552327994325,"finger_time":1552327993706,"fix_duration":1307.5329747184326,"trial":1,"RT":772,"MT":619,"sideResp":1,"stimulus":"img/500/equaldotsize/L/11_Ratio_500_L_12_R_6.png","xmouse":[800,800,800,800,800,800,800,800,800,800,800,800,800,800,800,800,800,800,800,800,800,800,800,800,800,800,800,800,800,800,800,800,800,800,800,800,800,799,790,779,765,756,753,751,748,745,726,715,704,694,683,653,584,584,584,584,584,584,584,584,584,584,584,584,584,584,584,584,439,439],"ymouse":[502,501,501,501,501,501,501,501,501,501,501,501,501,501,501,501,501,501,501,501,501,501,501,501,501,501,501,501,501,501,501,501,501,501,501,497,484,465,444,425,397,362,342,323,300,280,234,213,194,174,150,98,6,6,6,6,6,6,6,6,6,6,6,6,6,6,6,6,0,12],"timestamp_mouse":[11,44,52,71,91,112,132,152,172,193,212,232,253,271,291,311,331,351,371,392,412,432,452,472,492,511,531,552,573,592,611,631,652,673,692,712,731,752,772,792,812,832,853,871,892,913,932,953,972,991,1012,1031,1052,1073,1093,1112,1132,1151,1171,1193,1212,1232,1251,1272,1292,1313,1332,1352,1371,1391],"xSR":741.5,"ySR":449.15000000000003,"xT1":424.9,"yT1":0,"xT2":1058.1,"yT2":0,"toosoon":0,"cond_shown":"equaldotsize","ratio_trial":500,"smaller_num":"6","larger_num":"12","correct_side":1,"subjID":"linabonilla17","gender":"1","age":"9","school":"4"},{"start_time":1552327996405,"click_time":1552327997667,"finger_time":1552327997046,"fix_duration":738.5537984064599,"trial":2,"RT":641,"MT":621,"sideResp":1,"stimulus":"img/250/equaldotanddens/L/3_Ratio_250_L_8_R_2.png","xmouse":[786,786,786,786,786,786,786,786,786,786,786,786,786,786,786,786,786,786,786,786,786,786,786,786,786,786,786,786,786,786,781,776,766,725,695,666,644,636,633,633,632,630,627,619,612,603,593,582,567,539,535,535,534,534,533,533,532,532,531,531,529,529,526,518],"ymouse":[493,493,493,493,493,493,493,493,493,493,493,493,493,493,493,493,493,493,493,493,493,493,493,493,493,493,493,493,493,493,482,466,447,372,328,287,254,246,227,222,216,211,206,195,186,173,162,149,137,119,117,117,117,117,117,117,116,116,114,109,106,101,94,80],"timestamp_mouse":[9,21,42,61,81,102,121,141,161,181,200,221,240,262,281,302,322,341,360,380,400,420,440,461,481,502,520,540,561,581,601,620,641,661,681,701,721,740,760,780,801,821,842,861,880,901,921,941,961,982,1001,1021,1041,1061,1081,1101,1120,1141,1161,1181,1201,1221,1241,1262],"xSR":741.5,"ySR":449.15000000000003,"xT1":424.9,"yT1":0,"xT2":1058.1,"yT2":0,"toosoon":0,"cond_shown":"equaldotanddens","ratio_trial":250,"smaller_num":"2","larger_num":"8","correct_side":1,"subjID":"linabonilla17","gender":"1","age":"9","school":"4"},{"start_time":1552328000262,"click_time":1552328001105,"finger_time":1552328001005,"fix_duration":1215.702193562467,"trial":3,"RT":743,"MT":100,"sideResp":2,"stimulus":"img/750/equaldotanddens/R/11_Ratio_750_L_12_R_16.png","xmouse":[780,781,783,784,784,784,784,784,784,784,784,784,784,784,784,784,784,784,784,784,784,784,784,784,784,784,784,784,784,784,784,784,784,786,790,809,826,849,890,940,1036,1076,1115],"ymouse":[490,490,490,490,490,490,490,490,490,490,490,490,490,490,490,490,490,490,490,490,490,490,490,490,490,490,490,490,490,490,490,490,490,489,486,467,453,439,412,376,257,168,74],"timestamp_mouse":[4,24,50,63,84,104,124,144,164,184,204,224,243,264,284,305,323,344,364,384,404,424,443,464,484,504,524,544,564,583,604,623,643,664,684,704,725,743,763,784,805,825,843],"xSR":741.5,"ySR":449.15000000000003,"xT1":424.9,"yT1":0,"xT2":1058.1,"yT2":0,"toosoon":0,"cond_shown":"equaldotanddens","ratio_trial":750,"smaller_num":"12","larger_num":"16","correct_side":2,"subjID":"linabonilla17","gender":"1","age":"9","school":"4"},{"start_time":1552328003580,"click_time":1552328004886,"finger_time":1552328004165,"fix_duration":1112.4510257510155,"trial":4,"RT":585,"MT":721,"sideResp":2,"stimulus":"img/750/equaldotanddens/R/4_Ratio_750_L_15_R_20.png","xmouse":[803,803,803,803,803,803,803,803,803,803,803,803,803,803,803,803,803,803,803,803,803,803,803,803,803,803,805,806,814,862,889,928,974,1005,1034,1055,1062,1067,1074,1086,1094,1110,1127,1147,1177,1177,1177,1177,1177,1177,1177,1177,1177,1177,1177,1177,1177,1177,1177,1177,1172,1169,1166,1164,1160,1157],"ymouse":[516,516,516,516,516,516,516,516,516,516,516,516,516,516,516,516,516,516,516,516,516,516,516,516,516,516,515,514,510,489,472,450,420,397,373,349,335,324,312,289,273,247,204,143,5,5,5,5,5,5,5,5,5,5,5,5,5,5,5,5,13,21,29,34,42,48],"timestamp_mouse":[10,37,46,66,86,106,126,145,166,186,206,226,246,266,286,305,326,346,365,385,407,426,446,466,486,506,527,546,565,585,605,626,646,666,686,706,725,746,766,786,806,826,846,865,886,907,926,946,967,987,1006,1026,1046,1066,1086,1107,1126,1146,1167,1186,1205,1225,1245,1265,1286,1306],"xSR":741.5,"ySR":449.15000000000003,"xT1":424.9,"yT1":0,"xT2":1058.1,"yT2":0,"toosoon":0,"cond_shown":"equaldotanddens","ratio_trial":750,"smaller_num":"15","larger_num":"20","correct_side":2,"subjID":"linabonilla17","gender":"1","age":"9","school":"4"},{"start_time":1552328006457,"click_time":1552328007885,"finger_time":1552328007066,"fix_duration":250,"trial":5,"RT":609,"MT":819,"sideResp":1,"stimulus":"img/750/randomdotsizeEA/L/13_Ratio_750_L_8_R_6.png","xmouse":[753,753,753,753,753,753,753,753,753,753,753,753,753,753,753,753,753,753,753,753,753,753,753,753,753,753,753,753,752,749,738,730,720,707,696,671,667,664,662,661,659,656,654,652,649,640,633,628,625,624,621,616,610,605,598,589,588,588,588,588,585,581,578,575,573,570,569,566,558,551,529,522],"ymouse":[518,518,518,518,518,518,518,518,518,518,518,518,518,518,518,518,518,518,518,518,518,518,518,518,518,518,518,516,515,508,491,481,462,443,425,379,365,356,350,345,341,330,322,314,305,286,278,272,267,262,257,241,230,219,211,202,200,200,200,200,195,188,182,177,174,169,161,148,131,114,79,68],"timestamp_mouse":[10,37,50,68,88,108,129,149,169,189,208,229,250,269,288,309,329,349,369,389,409,429,449,469,489,509,529,549,570,588,609,628,650,669,689,710,730,749,769,789,809,829,849,868,889,910,928,950,968,989,1009,1029,1049,1068,1089,1110,1128,1148,1168,1189,1209,1229,1249,1269,1289,1309,1329,1348,1369,1389,1409,1428],"xSR":741.5,"ySR":449.15000000000003,"xT1":424.9,"yT1":0,"xT2":1058.1,"yT2":0,"toosoon":0,"cond_shown":"randomdotsizeEA","ratio_trial":750,"smaller_num":"6","larger_num":"8","correct_side":1,"subjID":"linabonilla17","gender":"1","age":"9","school":"4"},{"start_time":1552328009238,"click_time":1552328010966,"finger_time":1552328010066,"fix_duration":250,"trial":6,"RT":828,"MT":900,"sideResp":2,"stimulus":"img/500/equaldotsize/R/12_Ratio_500_L_1_R_2.png","xmouse":[779,779,779,779,779,779,779,779,779,779,779,779,779,779,779,779,779,779,779,779,779,779,779,779,779,779,779,779,779,779,779,779,779,779,781,783,790,796,803,816,832,847,873,882,883,887,894,919,928,941,954,980,987,992,994,999,1008,1011,1014,1018,1021,1027,1029,1030,1030,1031,1036,1040,1043,1045,1046,1047,1047,1047,1047,1047,1047,1047,1047,1047,1049,1051,1051,1052,1054,1055,1065],"ymouse":[512,512,512,512,512,512,512,512,512,512,512,512,512,512,512,512,512,512,512,512,512,512,512,512,512,512,512,512,512,512,512,512,512,512,511,509,499,492,485,475,465,453,427,414,409,401,393,360,342,322,298,234,207,180,156,127,100,92,87,82,79,73,73,72,72,73,83,87,89,89,89,89,89,89,89,89,89,89,89,89,89,85,85,84,82,81,78],"timestamp_mouse":[9,42,49,67,87,107,128,149,168,188,208,227,247,268,288,308,327,348,368,388,408,428,448,469,487,509,529,548,567,587,607,629,648,667,687,708,728,748,767,788,808,828,848,868,888,908,927,947,967,988,1008,1028,1048,1067,1088,1108,1128,1148,1167,1188,1207,1228,1248,1268,1287,1309,1328,1349,1368,1388,1409,1428,1448,1468,1488,1508,1528,1548,1568,1587,1608,1628,1647,1668,1687,1707,1728],"xSR":741.5,"ySR":449.15000000000003,"xT1":424.9,"yT1":0,"xT2":1058.1,"yT2":0,"toosoon":0,"cond_shown":"equaldotsize","ratio_trial":500,"smaller_num":"1","larger_num":"2","correct_side":2,"subjID":"linabonilla17","gender":"1","age":"9","school":"4"},{"start_time":1552328013439,"click_time":1552328015046,"finger_time":1552328014165,"fix_duration":1372.8648629205486,"trial":7,"RT":726,"MT":881,"sideResp":1,"stimulus":"img/500/equaldotsize/L/10_Ratio_500_L_4_R_2.png","xmouse":[778,778,778,778,778,778,778,778,778,778,778,778,778,778,778,778,778,778,778,778,778,778,778,778,778,778,778,778,778,778,778,778,774,769,760,750,734,718,714,712,710,701,692,680,666,655,639,635,632,628,625,616,611,607,605,602,595,592,586,581,573,561,559,557,555,551,542,538,535,533,530,528,527,526,525,525,524,522,520,517,514],"ymouse":[517,517,517,517,517,517,517,517,517,517,517,517,517,517,517,517,517,517,517,517,517,517,517,517,517,517,517,517,517,517,517,517,511,500,484,465,438,408,397,389,382,364,354,341,331,320,295,287,278,269,260,243,236,231,227,219,204,195,186,178,168,151,145,141,136,129,114,110,107,105,105,105,105,105,105,105,104,103,103,101,99],"timestamp_mouse":[6,27,46,68,87,107,127,148,166,187,207,227,247,266,287,307,327,347,366,386,407,428,447,467,487,507,527,547,568,586,607,627,647,667,687,707,726,747,767,786,806,827,847,867,886,907,927,947,966,987,1007,1026,1046,1067,1087,1107,1127,1148,1167,1187,1207,1228,1246,1267,1286,1307,1328,1347,1368,1387,1407,1427,1448,1467,1487,1506,1527,1547,1567,1587,1607],"xSR":741.5,"ySR":449.15000000000003,"xT1":424.9,"yT1":0,"xT2":1058.1,"yT2":0,"toosoon":0,"cond_shown":"equaldotsize","ratio_trial":500,"smaller_num":"2","larger_num":"4","correct_side":1,"subjID":"linabonilla17","gender":"1","age":"9","school":"4"},{"start_time":1552328016567,"click_time":1552328017687,"finger_time":1552328017365,"fix_duration":379.1230346473361,"trial":8,"RT":798,"MT":322,"sideResp":2,"stimulus":"img/250/randomdotsizeEA/R/11_Ratio_250_L_3_R_12.png","xmouse":[778,778,778,778,778,778,778,778,778,778,778,778,778,778,778,778,778,778,778,778,778,778,778,778,778,778,778,778,778,778,778,778,778,778,778,781,787,794,802,816,877,894,920,938,959,972,976,979,982,989,1020,1036,1047,1062,1072,1086,1093],"ymouse":[514,514,514,514,514,514,514,514,514,514,514,514,514,514,514,514,514,514,514,514,514,514,514,514,514,514,514,514,514,514,514,514,514,514,514,512,499,483,467,454,431,423,414,403,386,366,358,352,344,335,297,276,255,225,189,126,99],"timestamp_mouse":[1,25,47,59,79,98,119,139,158,179,199,218,238,260,279,299,319,339,359,378,398,419,440,459,478,499,518,539,559,578,599,619,640,659,679,699,719,739,760,778,798,818,838,858,878,899,919,938,958,979,999,1020,1039,1059,1079,1099,1120],"xSR":741.5,"ySR":449.15000000000003,"xT1":424.9,"yT1":0,"xT2":1058.1,"yT2":0,"toosoon":0,"cond_shown":"randomdotsizeEA","ratio_trial":250,"smaller_num":"3","larger_num":"12","correct_side":2,"subjID":"linabonilla17","gender":"1","age":"9","school":"4"},{"start_time":1552328022787,"click_time":1552328023866,"finger_time":1552328023446,"fix_duration":978.384249814443,"trial":9,"RT":659,"MT":420,"sideResp":1,"stimulus":"img/250/equaldotanddens/L/1_Ratio_250_L_8_R_2.png","xmouse":[789,789,789,789,789,789,789,789,789,789,789,789,789,789,789,789,789,789,789,789,789,789,789,789,789,789,789,789,789,789,780,773,763,753,733,724,718,714,709,687,678,672,666,659,641,626,613,601,588,574,565,558,549,538,522],"ymouse":[509,509,509,509,509,509,509,509,509,509,509,509,509,509,509,509,509,509,509,509,509,509,509,509,509,509,509,508,507,505,487,470,451,431,386,366,349,335,324,294,287,281,278,272,256,243,231,217,201,170,150,133,114,97,69],"timestamp_mouse":[1,19,39,60,79,99,120,138,158,178,199,219,238,258,279,300,319,339,359,379,399,418,439,459,480,498,519,538,559,579,599,619,639,659,679,698,719,740,759,779,799,818,839,859,879,900,918,938,958,979,1006,1019,1039,1059,1079],"xSR":741.5,"ySR":449.15000000000003,"xT1":424.9,"yT1":0,"xT2":1058.1,"yT2":0,"toosoon":0,"cond_shown":"equaldotanddens","ratio_trial":250,"smaller_num":"2","larger_num":"8","correct_side":1,"subjID":"linabonilla17","gender":"1","age":"9","school":"4"},{"start_time":1552328025900,"click_time":1552328027446,"finger_time":1552328026565,"fix_duration":773.193113347727,"trial":10,"RT":665,"MT":881,"sideResp":1,"stimulus":"img/750/equaldotanddens/L/1_Ratio_750_L_20_R_15.png","xmouse":[776,776,776,776,776,776,776,776,776,776,776,776,776,776,776,776,776,776,776,776,776,776,776,776,776,776,776,776,776,776,776,775,775,765,759,753,747,745,740,736,731,728,724,719,717,714,706,697,685,657,638,622,605,548,524,509,506,504,504,504,504,504,504,504,504,505,506,507,508,509,509,509,509,509,508,508,507,505],"ymouse":[489,489,489,489,489,489,489,489,489,489,489,489,489,489,489,489,489,489,489,489,489,489,489,489,489,489,489,489,489,489,487,483,473,438,419,400,379,370,345,330,314,302,289,279,274,267,255,242,229,202,188,180,174,158,152,146,144,143,143,143,143,142,142,139,138,136,134,133,129,126,125,122,119,115,112,107,103,95],"timestamp_mouse":[8,36,46,66,85,106,126,146,166,186,206,226,246,265,285,306,326,346,366,385,405,425,446,467,486,505,526,546,566,586,606,625,646,665,685,706,726,746,767,787,806,825,845,866,885,905,926,946,966,986,1005,1025,1046,1067,1085,1106,1126,1147,1166,1186,1206,1226,1246,1266,1286,1306,1326,1346,1366,1386,1406,1426,1446,1466,1486,1506,1526,1546],"xSR":741.5,"ySR":449.15000000000003,"xT1":424.9,"yT1":0,"xT2":1058.1,"yT2":0,"toosoon":0,"cond_shown":"equaldotanddens","ratio_trial":750,"smaller_num":"15","larger_num":"20","correct_side":1,"subjID":"linabonilla17","gender":"1","age":"9","school":"4"},{"start_time":1552328029436,"click_time":1552328030845,"finger_time":1552328030226,"fix_duration":808.4046856768051,"trial":11,"RT":790,"MT":619,"sideResp":1,"stimulus":"img/750/randomdotsizeEA/R/4_Ratio_750_L_15_R_20.png","xmouse":[793,793,793,793,793,793,793,793,793,793,793,793,793,793,793,793,793,793,793,793,793,793,793,793,793,793,793,793,793,793,793,793,793,793,793,789,778,768,761,752,744,737,727,721,713,704,670,632,570,522,488,446,436,432,431,430,426,422,419,417,416,416,416,416,419,422,430,433,437,441,446],"ymouse":[504,504,504,504,504,504,504,504,504,504,504,504,504,504,504,504,504,504,504,504,504,504,504,504,504,504,504,504,504,504,504,504,504,504,498,492,474,459,450,439,428,418,401,390,378,366,328,293,256,229,210,178,173,170,169,169,166,164,163,162,162,156,151,146,139,132,113,109,104,100,92],"timestamp_mouse":[9,40,50,70,90,109,129,149,170,190,210,229,250,270,290,310,330,349,370,390,410,430,450,469,489,510,530,551,570,590,609,630,650,670,690,709,729,751,770,790,809,829,850,869,889,910,930,950,970,989,1010,1031,1049,1069,1089,1110,1130,1151,1170,1190,1209,1230,1251,1270,1289,1309,1330,1351,1370,1389,1409],"xSR":741.5,"ySR":449.15000000000003,"xT1":424.9,"yT1":0,"xT2":1058.1,"yT2":0,"toosoon":0,"cond_shown":"randomdotsizeEA","ratio_trial":750,"smaller_num":"15","larger_num":"20","correct_side":2,"subjID":"linabonilla17","gender":"1","age":"9","school":"4"},{"start_time":1552328032598,"click_time":1552328034226,"finger_time":1552328033306,"fix_duration":450.32917441612994,"trial":12,"RT":708,"MT":920,"sideResp":1,"stimulus":"img/250/equaldotsize/L/2_Ratio_250_L_16_R_4.png","xmouse":[765,765,765,765,765,765,765,765,765,765,765,765,765,765,765,765,766,768,770,772,772,773,773,773,773,773,773,773,773,773,773,773,768,757,748,735,721,697,658,637,619,604,593,586,583,583,583,582,582,582,581,581,582,575,570,564,556,541,511,506,501,498,497,495,493,493,493,493,493,493,493,493,497,503,505,506,506,506,506,506,506,508],"ymouse":[526,526,526,526,526,526,526,526,526,526,526,526,526,526,526,526,525,524,521,520,519,518,518,518,518,518,518,518,518,518,518,518,509,496,484,468,447,417,359,331,307,289,279,274,274,273,271,265,251,243,233,225,212,194,184,176,170,162,153,150,149,148,148,146,143,141,138,136,136,136,134,130,122,110,107,105,105,105,105,105,103,99],"timestamp_mouse":[13,35,48,68,88,108,127,148,168,188,209,228,249,267,287,307,328,348,368,388,409,428,447,468,487,507,528,548,568,588,608,628,648,668,687,708,728,749,768,789,808,827,848,868,888,909,928,947,967,988,1007,1027,1047,1068,1087,1107,1128,1147,1168,1187,1208,1228,1248,1267,1287,1309,1328,1348,1368,1388,1407,1428,1447,1468,1488,1508,1528,1547,1568,1588,1607,1628],"xSR":741.5,"ySR":449.15000000000003,"xT1":424.9,"yT1":0,"xT2":1058.1,"yT2":0,"toosoon":0,"cond_shown":"equaldotsize","ratio_trial":250,"smaller_num":"4","larger_num":"16","correct_side":1,"subjID":"linabonilla17","gender":"1","age":"9","school":"4"},{"start_time":1552328036199,"click_time":1552328037846,"finger_time":1552328036926,"fix_duration":632.5832038520434,"trial":13,"RT":727,"MT":920,"sideResp":2,"stimulus":"img/500/equaldotsize/R/15_Ratio_500_L_1_R_2.png","xmouse":[799,799,799,799,799,799,799,799,799,799,799,799,799,799,799,799,799,799,799,799,799,799,799,799,799,799,799,799,799,799,799,799,800,808,819,835,858,916,996,1029,1050,1069,1082,1096,1101,1106,1109,1118,1139,1148,1157,1165,1174,1188,1191,1195,1196,1199,1201,1201,1201,1201,1201,1201,1198,1194,1192,1188,1181,1179,1177,1176,1175,1173,1170,1170,1170,1168,1167,1163,1162,1160,1157],"ymouse":[512,512,512,512,512,512,512,512,512,512,512,512,512,512,512,512,512,512,512,512,512,512,512,512,512,512,512,512,512,512,512,512,511,508,504,499,495,488,455,435,412,389,371,345,336,327,316,303,254,229,200,170,145,106,92,78,71,59,49,46,44,44,44,44,48,55,60,69,78,81,83,85,86,86,88,88,88,88,88,87,86,83,79],"timestamp_mouse":[9,36,47,67,86,108,127,146,168,186,206,226,246,267,286,307,327,347,367,386,406,427,447,466,487,507,527,546,568,588,607,627,646,666,686,706,727,746,767,788,806,826,846,867,886,908,927,947,968,986,1006,1026,1046,1066,1086,1106,1127,1147,1167,1188,1207,1227,1247,1267,1287,1308,1327,1347,1367,1386,1406,1426,1447,1467,1487,1507,1527,1547,1567,1587,1607,1627,1647],"xSR":741.5,"ySR":449.15000000000003,"xT1":424.9,"yT1":0,"xT2":1058.1,"yT2":0,"toosoon":0,"cond_shown":"equaldotsize","ratio_trial":500,"smaller_num":"1","larger_num":"2","correct_side":2,"subjID":"linabonilla17","gender":"1","age":"9","school":"4"},{"start_time":1552328039798,"click_time":1552328040766,"finger_time":1552328040525,"fix_duration":329.80444240724836,"trial":14,"RT":727,"MT":241,"sideResp":2,"stimulus":"img/250/randomdotsizeEA/R/11_Ratio_250_L_3_R_12.png","xmouse":[819,817,817,815,815,815,815,815,815,815,815,815,815,815,815,815,815,815,815,815,815,815,815,815,815,815,815,815,815,815,815,815,815,820,830,835,860,898,977,994,1008,1016,1021,1028,1046,1058,1070,1087,1105],"ymouse":[497,495,495,493,493,493,493,493,493,493,493,493,493,493,493,493,493,493,493,493,493,493,493,493,493,493,493,493,493,493,493,493,493,491,480,476,464,454,409,378,336,286,243,218,179,163,147,124,82],"timestamp_mouse":[11,37,48,68,88,108,129,148,168,188,209,228,247,267,288,308,328,347,368,388,407,428,448,469,488,508,528,548,568,588,607,627,648,668,689,708,727,747,768,787,808,827,849,868,887,907,928,948,967],"xSR":741.5,"ySR":449.15000000000003,"xT1":424.9,"yT1":0,"xT2":1058.1,"yT2":0,"toosoon":0,"cond_shown":"randomdotsizeEA","ratio_trial":250,"smaller_num":"3","larger_num":"12","correct_side":2,"subjID":"linabonilla17","gender":"1","age":"9","school":"4"},{"start_time":1552328042630,"click_time":1552328043846,"finger_time":1552328043266,"fix_duration":521.2867934931392,"trial":15,"RT":636,"MT":580,"sideResp":2,"stimulus":"img/750/randomdotsizeEA/R/7_Ratio_750_L_3_R_4.png","xmouse":[769,769,769,769,769,769,769,769,769,769,769,769,769,769,769,769,769,769,769,769,769,769,769,769,769,769,770,773,773,775,777,785,793,804,818,842,886,908,930,946,957,971,976,979,982,984,992,996,1000,1004,1008,1015,1019,1024,1029,1034,1036,1041,1044,1051,1060],"ymouse":[476,476,476,476,476,476,476,476,476,476,476,476,476,476,476,476,476,476,476,476,476,476,476,476,476,476,476,473,468,462,453,433,418,405,389,361,319,300,281,261,240,194,180,167,153,142,116,106,95,85,77,62,56,51,47,42,41,41,41,44,50],"timestamp_mouse":[16,36,56,75,95,116,136,156,176,197,216,237,257,276,296,316,336,357,377,395,416,436,456,475,496,516,536,556,575,596,616,636,656,676,697,717,736,757,775,796,815,836,855,875,895,915,936,957,975,995,1015,1035,1055,1077,1097,1116,1136,1156,1176,1196,1216],"xSR":741.5,"ySR":449.15000000000003,"xT1":424.9,"yT1":0,"xT2":1058.1,"yT2":0,"toosoon":0,"cond_shown":"randomdotsizeEA","ratio_trial":750,"smaller_num":"3","larger_num":"4","correct_side":2,"subjID":"linabonilla17","gender":"1","age":"9","school":"4"},{"start_time":1552328046758,"click_time":1552328047867,"finger_time":1552328047465,"fix_duration":1490.1286877686034,"trial":16,"RT":707,"MT":402,"sideResp":1,"stimulus":"img/900/equaldotsize/L/1_Ratio_900_L_10_R_9.png","xmouse":[785,786,786,786,786,787,787,787,787,787,787,787,787,787,787,787,787,787,787,787,787,787,787,787,787,787,787,787,787,787,787,787,787,787,785,780,774,769,757,735,699,694,690,684,679,652,633,608,588,571,542,537,532,529,525,516],"ymouse":[487,485,483,482,481,480,480,480,480,480,480,480,480,480,480,480,480,480,480,480,480,480,480,480,480,480,480,480,480,480,480,480,478,475,465,441,430,424,415,398,358,347,335,320,312,258,222,186,154,130,91,85,82,81,81,81],"timestamp_mouse":[15,29,56,68,88,108,128,148,168,188,208,227,247,268,288,308,328,348,368,387,408,428,448,468,489,508,529,549,568,588,607,628,647,667,687,707,727,747,768,788,808,828,847,868,888,908,928,948,968,988,1008,1028,1048,1068,1088,1108],"xSR":741.5,"ySR":449.15000000000003,"xT1":424.9,"yT1":0,"xT2":1058.1,"yT2":0,"toosoon":0,"cond_shown":"equaldotsize","ratio_trial":900,"smaller_num":"9","larger_num":"10","correct_side":1,"subjID":"linabonilla17","gender":"1","age":"9","school":"4"},{"start_time":1552328050259,"click_time":1552328051466,"finger_time":1552328050927,"fix_duration":1371.1031018678757,"trial":17,"RT":668,"MT":539,"sideResp":1,"stimulus":"img/900/randomdotsizeEA/L/10_Ratio_900_L_20_R_18.png","xmouse":[787,787,787,787,787,787,787,787,787,787,787,787,787,787,787,787,787,787,787,787,787,787,787,787,787,787,785,784,784,783,782,782,782,783,786,796,800,806,813,820,834,838,843,844,845,852,853,853,853,853,848,845,838,825,793,707,645,599,557,535,518],"ymouse":[508,508,508,508,508,508,508,508,508,508,508,508,508,508,508,508,508,508,508,508,508,508,508,508,508,505,498,492,486,479,466,458,451,445,434,415,404,394,381,367,342,328,310,294,277,228,222,215,207,205,205,205,205,203,198,175,149,127,107,96,85],"timestamp_mouse":[9,35,47,67,88,107,127,147,166,186,207,227,246,268,288,307,326,347,367,386,407,427,447,467,487,506,526,547,566,586,606,627,648,668,687,707,728,746,766,786,807,826,846,867,887,907,928,947,967,987,1007,1026,1047,1068,1087,1107,1128,1147,1167,1186,1207],"xSR":741.5,"ySR":449.15000000000003,"xT1":424.9,"yT1":0,"xT2":1058.1,"yT2":0,"toosoon":0,"cond_shown":"randomdotsizeEA","ratio_trial":900,"smaller_num":"18","larger_num":"20","correct_side":1,"subjID":"linabonilla17","gender":"1","age":"9","school":"4"},{"start_time":1552328052912,"click_time":1552328054246,"finger_time":1552328053646,"fix_duration":424.88182114414417,"trial":18,"RT":734,"MT":600,"sideResp":2,"stimulus":"img/250/equaldotanddens/R/13_Ratio_250_L_2_R_8.png","xmouse":[782,782,782,782,782,782,782,782,782,782,782,782,782,782,782,782,782,782,782,782,782,782,782,782,782,782,782,782,782,786,787,792,797,799,810,824,843,886,900,908,916,929,965,985,1006,1022,1033,1041,1052,1060,1067,1074,1089,1096,1100,1105,1109,1118,1120,1122,1123,1124,1124,1124,1122,1118,1115],"ymouse":[508,508,508,508,508,508,508,508,508,508,508,508,508,508,508,508,508,508,508,508,508,508,508,508,508,508,508,508,508,498,494,483,475,472,469,465,459,436,414,396,379,356,324,317,309,298,285,268,237,227,220,215,197,186,176,163,153,135,130,126,125,123,120,112,107,103,99],"timestamp_mouse":[14,35,54,74,93,114,134,154,174,193,213,234,254,274,294,313,333,353,374,393,413,434,454,474,494,513,535,554,574,594,613,635,654,674,694,714,734,754,774,794,814,834,854,873,894,914,934,954,974,994,1014,1034,1054,1074,1093,1115,1134,1155,1175,1194,1213,1234,1254,1274,1294,1314,1334],"xSR":741.5,"ySR":449.15000000000003,"xT1":424.9,"yT1":0,"xT2":1058.1,"yT2":0,"toosoon":0,"cond_shown":"equaldotanddens","ratio_trial":250,"smaller_num":"2","larger_num":"8","correct_side":2,"subjID":"linabonilla17","gender":"1","age":"9","school":"4"},{"start_time":1552328056365,"click_time":1552328057626,"finger_time":1552328056985,"fix_duration":697.7871956196841,"trial":19,"RT":620,"MT":641,"sideResp":2,"stimulus":"img/900/equaldotanddens/R/12_Ratio_900_L_18_R_20.png","xmouse":[811,811,811,811,811,811,811,811,811,811,811,811,811,811,811,811,811,811,811,811,811,811,811,811,811,811,811,811,813,820,840,852,862,876,890,916,926,938,947,956,966,983,992,1004,1013,1031,1039,1047,1055,1061,1067,1067,1067,1068,1070,1073,1075,1076,1077,1078,1079,1081,1084,1089],"ymouse":[495,495,495,495,495,495,495,495,495,495,495,495,495,495,495,495,495,495,495,495,495,495,495,495,495,495,495,495,492,484,458,446,431,413,396,350,335,313,298,282,263,239,227,212,201,171,156,142,132,126,124,124,124,123,121,119,118,116,116,115,110,107,100,90],"timestamp_mouse":[8,33,41,61,82,101,121,141,160,180,201,221,241,261,280,301,322,341,361,380,401,422,441,461,480,501,521,541,561,582,601,620,640,660,682,701,720,742,761,780,801,821,841,861,880,901,921,941,960,980,1001,1021,1040,1060,1081,1101,1121,1141,1161,1181,1202,1220,1241,1261],"xSR":741.5,"ySR":449.15000000000003,"xT1":424.9,"yT1":0,"xT2":1058.1,"yT2":0,"toosoon":0,"cond_shown":"equaldotanddens","ratio_trial":900,"smaller_num":"18","larger_num":"20","correct_side":2,"subjID":"linabonilla17","gender":"1","age":"9","school":"4"},{"start_time":1552328059650,"click_time":1552328060946,"finger_time":1552328060286,"fix_duration":923.338407187119,"trial":20,"RT":636,"MT":660,"sideResp":2,"stimulus":"img/250/randomdotsizeEA/R/12_Ratio_250_L_5_R_20.png","xmouse":[770,770,770,770,770,770,770,770,770,770,770,770,770,770,770,770,770,770,770,770,770,770,770,770,770,770,770,772,779,787,794,817,830,839,849,872,881,888,894,905,930,940,952,964,979,1009,1015,1021,1025,1029,1040,1050,1063,1078,1088,1104,1108,1109,1111,1113,1116,1119,1122,1125,1128],"ymouse":[486,486,486,486,486,486,486,486,486,486,486,486,486,486,486,486,486,486,486,486,486,486,486,486,486,486,486,482,477,472,467,448,434,423,406,367,356,348,341,331,310,297,279,263,248,221,214,208,202,197,181,172,165,157,150,131,125,123,119,117,113,110,105,100,92],"timestamp_mouse":[15,39,56,76,97,115,136,156,176,195,217,236,256,275,295,316,336,356,375,397,416,436,456,477,495,516,536,561,576,596,616,636,656,676,696,715,735,756,776,796,816,836,857,876,897,916,937,956,976,996,1016,1036,1056,1076,1096,1116,1135,1156,1176,1196,1215,1236,1256,1276,1295],"xSR":741.5,"ySR":449.15000000000003,"xT1":424.9,"yT1":0,"xT2":1058.1,"yT2":0,"toosoon":0,"cond_shown":"randomdotsizeEA","ratio_trial":250,"smaller_num":"5","larger_num":"20","correct_side":2,"subjID":"linabonilla17","gender":"1","age":"9","school":"4"},{"start_time":1552328062357,"click_time":1552328063566,"finger_time":1552328063146,"fix_duration":250,"trial":21,"RT":789,"MT":420,"sideResp":2,"stimulus":"img/900/randomdotsizeEA/R/15_Ratio_900_L_9_R_10.png","xmouse":[807,807,807,807,807,806,805,805,805,804,803,803,803,803,803,803,803,803,803,803,803,803,803,803,803,803,803,803,803,803,803,807,810,818,824,834,835,837,838,841,845,855,862,871,881,888,904,911,929,957,1049,1077,1100,1114,1123,1137,1140,1143,1144,1146,1149],"ymouse":[532,532,531,530,529,526,526,525,523,523,521,520,520,520,520,520,520,520,520,520,520,520,520,520,520,520,520,520,520,520,515,508,502,493,484,471,465,459,453,448,438,421,410,394,377,359,329,323,313,303,269,247,226,205,185,158,148,138,129,117,88],"timestamp_mouse":[17,37,50,69,88,108,129,149,169,189,209,229,249,268,289,309,330,348,369,389,409,429,449,468,489,510,529,548,569,589,609,629,649,669,688,709,729,749,769,788,809,829,848,869,890,909,929,950,969,989,1010,1029,1049,1069,1088,1109,1130,1148,1168,1189,1209],"xSR":741.5,"ySR":449.15000000000003,"xT1":424.9,"yT1":0,"xT2":1058.1,"yT2":0,"toosoon":0,"cond_shown":"randomdotsizeEA","ratio_trial":900,"smaller_num":"9","larger_num":"10","correct_side":2,"subjID":"linabonilla17","gender":"1","age":"9","school":"4"},{"start_time":1552328067010,"click_time":1552328068166,"finger_time":1552328067907,"fix_duration":1002.5007489076235,"trial":22,"RT":897,"MT":259,"sideResp":1,"stimulus":"img/500/randomdotsizeEA/L/4_Ratio_500_L_18_R_9.png","xmouse":[781,781,781,781,781,781,781,780,780,780,780,780,780,780,780,780,780,780,780,780,780,780,780,780,780,780,781,782,782,783,783,784,784,786,787,787,788,790,791,793,795,797,800,803,805,806,806,806,797,783,755,706,663,563,525,497,475,427],"ymouse":[500,500,500,500,501,501,501,502,502,502,502,502,502,502,502,502,502,502,502,502,502,502,502,502,502,502,501,500,500,499,498,498,497,494,492,491,488,482,478,474,470,465,461,451,446,442,438,433,427,422,413,393,373,305,272,239,206,97],"timestamp_mouse":[16,44,56,75,95,116,136,155,176,196,217,236,257,276,296,316,336,357,376,396,415,435,456,476,496,516,536,556,575,596,616,636,656,675,696,715,735,756,777,796,816,836,855,875,897,916,936,956,976,996,1016,1036,1056,1076,1096,1117,1136,1156],"xSR":741.5,"ySR":449.15000000000003,"xT1":424.9,"yT1":0,"xT2":1058.1,"yT2":0,"toosoon":0,"cond_shown":"randomdotsizeEA","ratio_trial":500,"smaller_num":"9","larger_num":"18","correct_side":1,"subjID":"linabonilla17","gender":"1","age":"9","school":"4"},{"start_time":1552328071200,"click_time":1552328073066,"finger_time":1552328071845,"fix_duration":1172.2757934083506,"trial":23,"RT":645,"MT":1221,"sideResp":1,"stimulus":"img/250/equaldotanddens/L/1_Ratio_250_L_8_R_2.png","xmouse":[777,777,777,777,777,777,777,777,777,777,777,777,777,777,777,777,777,777,777,777,777,777,777,777,776,776,776,775,765,757,749,742,735,730,728,727,726,725,721,718,713,707,704,704,702,702,701,700,698,697,693,687,679,664,659,652,645,633,621,619,617,616,614,611,610,606,603,601,597,594,592,591,587,579,575,570,567,564,561,560,558,558,557,555,554,552,551,549,540,535,531,528,526,523],"ymouse":[511,511,511,511,511,511,511,511,511,511,511,511,511,511,511,511,511,511,511,511,511,511,511,511,510,510,510,509,492,478,465,454,443,427,422,416,410,403,376,361,345,330,326,325,323,322,322,321,320,319,319,316,314,308,304,300,295,285,272,267,262,256,247,232,221,207,193,182,167,163,158,156,151,143,140,136,133,129,125,123,121,121,119,116,115,114,111,103,82,74,67,63,59,51],"timestamp_mouse":[13,32,46,65,86,106,127,146,165,186,206,227,245,265,285,306,326,347,366,386,406,426,446,466,486,506,526,546,566,586,605,626,645,666,685,706,726,746,765,786,805,826,846,866,886,906,926,945,966,987,1006,1026,1046,1066,1085,1105,1125,1145,1166,1187,1206,1226,1246,1266,1286,1305,1326,1346,1365,1385,1405,1425,1445,1466,1485,1506,1526,1545,1566,1586,1606,1626,1646,1666,1685,1706,1726,1746,1766,1786,1806,1825,1845,1866],"xSR":741.5,"ySR":449.15000000000003,"xT1":424.9,"yT1":0,"xT2":1058.1,"yT2":0,"toosoon":0,"cond_shown":"equaldotanddens","ratio_trial":250,"smaller_num":"2","larger_num":"8","correct_side":1,"subjID":"linabonilla17","gender":"1","age":"9","school":"4"},{"start_time":1552328075398,"click_time":1552328076946,"finger_time":1552328076206,"fix_duration":971.634824875784,"trial":24,"RT":808,"MT":740,"sideResp":2,"stimulus":"img/750/randomdotsizeEA/R/3_Ratio_750_L_15_R_20.png","xmouse":[775,775,775,775,775,775,775,775,775,775,775,775,775,775,775,775,775,775,775,775,775,775,775,775,775,775,775,775,775,775,775,775,775,775,780,786,791,801,829,836,842,847,852,857,870,874,880,888,923,946,971,992,1016,1034,1056,1061,1064,1065,1076,1082,1087,1092,1096,1099,1104,1105,1106,1106,1106,1106,1106,1106,1106,1106,1106,1106,1107,1111],"ymouse":[497,497,497,496,496,496,496,496,496,496,496,496,496,496,496,496,496,496,496,496,496,496,496,496,496,496,496,496,496,496,496,496,496,494,490,487,484,481,472,467,462,456,452,449,439,434,427,415,358,323,292,274,260,249,230,225,224,223,213,208,202,196,191,185,174,169,165,163,161,159,156,153,150,139,132,114,107,77],"timestamp_mouse":[9,35,48,68,87,108,128,148,168,188,208,228,248,268,288,307,327,349,368,388,407,428,448,468,488,508,528,548,568,588,608,627,648,669,688,708,728,748,768,789,808,828,847,868,892,908,927,947,968,989,1008,1028,1047,1067,1087,1108,1128,1147,1168,1187,1207,1228,1247,1268,1287,1308,1329,1349,1368,1389,1407,1427,1449,1468,1489,1507,1527,1547],"xSR":741.5,"ySR":449.15000000000003,"xT1":424.9,"yT1":0,"xT2":1058.1,"yT2":0,"toosoon":0,"cond_shown":"randomdotsizeEA","ratio_trial":750,"smaller_num":"15","larger_num":"20","correct_side":2,"subjID":"linabonilla17","gender":"1","age":"9","school":"4"},{"start_time":1552328078337,"click_time":1552328079988,"finger_time":1552328079166,"fix_duration":250,"trial":25,"RT":829,"MT":822,"sideResp":2,"stimulus":"img/750/randomdotsizeEA/R/7_Ratio_750_L_3_R_4.png","xmouse":[803,803,803,803,803,803,803,803,803,803,803,803,803,803,803,803,803,803,803,803,803,803,803,803,803,803,803,803,803,803,803,803,803,803,803,803,803,803,803,803,803,798,795,794,794,793,793,793,793,793,793,800,808,824,841,858,884,899,908,921,942,966,978,987,995,1002,1010,1017,1023,1027,1033,1038,1040,1044,1046,1048,1053,1056,1057,1061,1067,1082,1088],"ymouse":[481,481,481,481,481,481,481,481,481,481,481,481,481,481,481,481,481,481,481,481,481,481,481,481,481,481,481,481,481,481,481,481,481,481,481,481,481,479,477,472,465,440,430,427,424,422,421,420,420,420,419,418,416,409,399,387,364,354,349,341,325,298,282,269,258,246,225,217,205,194,181,171,167,163,158,155,149,145,143,138,131,108,98],"timestamp_mouse":[12,40,48,69,89,109,129,148,168,189,209,230,248,269,288,308,328,348,369,389,408,429,449,468,488,509,529,548,569,589,609,629,649,669,689,708,728,748,769,789,809,829,849,869,889,910,929,950,969,988,1010,1029,1050,1069,1088,1109,1129,1148,1170,1189,1209,1229,1248,1270,1289,1309,1329,1349,1369,1389,1410,1429,1449,1469,1489,1509,1530,1548,1568,1590,1609,1629,1650],"xSR":741.5,"ySR":449.15000000000003,"xT1":424.9,"yT1":0,"xT2":1058.1,"yT2":0,"toosoon":0,"cond_shown":"randomdotsizeEA","ratio_trial":750,"smaller_num":"3","larger_num":"4","correct_side":2,"subjID":"linabonilla17","gender":"1","age":"9","school":"4"},{"start_time":1552328081418,"click_time":1552328083486,"finger_time":1552328082046,"fix_duration":451.9990672891653,"trial":26,"RT":628,"MT":1440,"sideResp":1,"stimulus":"img/900/equaldotanddens/R/11_Ratio_900_L_18_R_20.png","xmouse":[804,804,804,804,804,804,804,804,804,804,804,804,804,804,804,804,804,804,804,804,804,804,804,804,804,804,806,811,817,824,833,845,875,888,901,913,929,952,962,972,983,993,1013,1026,1036,1044,1056,1069,1078,1086,1092,1101,1113,1118,1123,1124,1127,1132,1134,1135,1135,1135,1135,1135,1135,1135,1132,1128,1122,1120,1118,1112,1099,1092,1083,1074,1059,1002,966,925,890,856,792,756,715,673,673,673,673,673,673,673,673,673,673,673,673,673,673,673,673,673,673,466],"ymouse":[525,525,525,525,525,525,525,525,525,525,525,525,525,525,525,525,525,525,525,525,525,525,525,525,525,525,525,522,518,513,505,496,475,465,454,444,429,407,398,387,378,369,352,341,329,316,292,262,246,233,221,210,190,181,171,169,163,147,143,139,137,136,136,136,136,136,137,140,142,142,145,149,159,164,168,173,179,187,187,175,160,143,98,72,42,12,12,12,12,12,12,12,12,12,12,12,12,12,12,12,12,12,12,21],"timestamp_mouse":[9,38,48,67,88,108,128,148,168,188,208,227,248,269,289,308,328,349,367,388,408,428,448,468,489,507,528,548,569,588,607,628,648,667,688,709,728,748,767,788,808,828,848,868,887,907,928,948,968,988,1008,1027,1048,1067,1087,1109,1128,1148,1168,1187,1209,1228,1248,1269,1288,1308,1328,1348,1367,1388,1408,1428,1448,1467,1488,1508,1528,1548,1568,1588,1608,1628,1648,1669,1688,1707,1728,1749,1768,1788,1808,1827,1847,1868,1887,1907,1927,1948,1969,1988,2007,2028,2048,2067],"xSR":741.5,"ySR":449.15000000000003,"xT1":424.9,"yT1":0,"xT2":1058.1,"yT2":0,"toosoon":0,"cond_shown":"equaldotanddens","ratio_trial":900,"smaller_num":"18","larger_num":"20","correct_side":2,"subjID":"linabonilla17","gender":"1","age":"9","school":"4"},{"start_time":1552328086408,"click_time":1552328087986,"finger_time":1552328087147,"fix_duration":1480.014620244851,"trial":27,"RT":739,"MT":839,"sideResp":1,"stimulus":"img/500/equaldotanddens/L/4_Ratio_500_L_18_R_9.png","xmouse":[797,797,796,796,795,795,794,794,794,794,794,794,794,792,792,792,792,791,791,791,791,791,791,791,791,791,791,791,791,790,789,787,783,779,776,773,772,766,765,763,759,756,750,747,744,741,739,725,714,703,696,688,669,647,625,607,591,566,564,561,559,557,556,556,556,556,556,557,557,556,553,550,547,543,539,533,529,513,509],"ymouse":[480,481,482,484,484,486,487,487,487,487,487,488,488,489,489,490,490,491,491,491,491,491,491,491,491,491,491,491,491,491,491,491,490,481,470,458,447,428,420,411,397,384,364,359,354,350,348,344,340,336,333,330,324,318,313,307,298,276,269,259,251,246,236,231,228,221,213,197,191,185,178,171,157,149,140,131,124,103,95],"timestamp_mouse":[18,37,58,78,98,118,138,158,178,198,218,237,258,277,297,317,338,358,378,398,417,438,458,478,499,517,538,558,578,597,619,637,657,677,698,717,739,759,779,798,819,839,858,879,897,918,938,958,977,998,1018,1039,1058,1078,1099,1118,1137,1158,1178,1198,1218,1238,1258,1279,1299,1318,1338,1358,1379,1397,1417,1437,1458,1478,1499,1518,1537,1558,1578],"xSR":741.5,"ySR":449.15000000000003,"xT1":424.9,"yT1":0,"xT2":1058.1,"yT2":0,"toosoon":0,"cond_shown":"equaldotanddens","ratio_trial":500,"smaller_num":"9","larger_num":"18","correct_side":1,"subjID":"linabonilla17","gender":"1","age":"9","school":"4"},{"start_time":1552328090376,"click_time":1552328092266,"finger_time":1552328091147,"fix_duration":608.6053557873182,"trial":28,"RT":771,"MT":1119,"sideResp":2,"stimulus":"img/750/equaldotanddens/R/11_Ratio_750_L_12_R_16.png","xmouse":[762,762,762,762,762,762,762,762,762,762,762,762,762,762,762,762,762,762,762,762,762,762,762,762,762,762,762,762,762,762,762,762,764,767,782,799,817,837,863,888,902,915,928,941,957,963,967,970,975,982,983,984,984,984,981,981,981,981,982,983,984,985,986,987,990,991,992,994,997,1004,1007,1011,1014,1015,1019,1025,1029,1033,1038,1051,1056,1062,1066,1071,1083,1091,1097,1101,1104,1107,1109,1111,1113,1114,1118],"ymouse":[512,512,512,512,512,512,512,512,512,512,512,512,512,512,512,512,512,512,512,512,512,512,512,512,512,512,512,512,512,512,512,512,513,513,507,502,493,481,458,428,414,402,390,381,369,365,362,358,353,338,332,326,320,312,297,294,293,291,290,287,285,284,281,279,274,271,269,266,261,247,243,239,234,230,224,220,216,214,212,211,209,206,202,198,188,183,178,173,166,157,138,129,120,112,97],"timestamp_mouse":[11,38,49,69,91,109,130,150,170,191,210,230,250,270,290,310,330,351,371,389,410,431,450,470,490,511,531,551,570,590,609,629,649,671,689,710,729,750,771,790,810,830,850,870,890,911,930,949,971,990,1011,1030,1049,1070,1090,1110,1131,1150,1170,1190,1211,1231,1249,1270,1290,1310,1330,1350,1370,1390,1410,1429,1449,1469,1490,1511,1530,1549,1570,1590,1610,1629,1649,1670,1690,1711,1731,1750,1770,1790,1810,1829,1850,1869,1890],"xSR":741.5,"ySR":449.15000000000003,"xT1":424.9,"yT1":0,"xT2":1058.1,"yT2":0,"toosoon":0,"cond_shown":"equaldotanddens","ratio_trial":750,"smaller_num":"12","larger_num":"16","correct_side":2,"subjID":"linabonilla17","gender":"1","age":"9","school":"4"},{"start_time":1552328093718,"click_time":1552328095366,"finger_time":1552328094506,"fix_duration":250,"trial":29,"RT":788,"MT":860,"sideResp":1,"stimulus":"img/900/equaldotanddens/L/1_Ratio_900_L_10_R_9.png","xmouse":[814,813,811,809,808,808,808,808,808,807,807,807,807,806,805,805,805,805,804,804,804,804,804,804,804,804,804,804,804,804,804,804,804,804,806,810,813,816,816,816,816,817,817,817,817,816,813,792,763,721,679,602,544,544,544,544,544,544,544,544,544,544,544,544,544,544,544,544,544,544,544,381,388,392,394,395,396,399,401,405,407,411,436],"ymouse":[476,476,477,479,480,480,480,480,480,480,481,481,481,481,481,481,481,481,481,481,481,481,481,480,480,480,480,480,480,480,480,480,480,480,475,469,462,454,450,447,445,441,438,436,432,429,423,387,339,269,200,93,11,11,11,11,11,11,11,11,11,11,11,11,11,11,11,11,11,11,11,16,25,30,31,33,34,35,36,40,43,46,69],"timestamp_mouse":[9,28,49,69,88,108,128,149,167,187,208,228,247,268,288,308,328,348,367,388,408,428,448,467,488,508,528,547,569,588,608,628,648,667,688,708,728,748,767,788,807,827,848,868,889,908,928,948,968,988,1009,1027,1048,1068,1087,1107,1128,1149,1167,1188,1207,1228,1248,1267,1288,1308,1327,1348,1368,1389,1408,1434,1449,1468,1487,1507,1527,1548,1567,1587,1608,1628,1648],"xSR":741.5,"ySR":449.15000000000003,"xT1":424.9,"yT1":0,"xT2":1058.1,"yT2":0,"toosoon":0,"cond_shown":"equaldotanddens","ratio_trial":900,"smaller_num":"9","larger_num":"10","correct_side":1,"subjID":"linabonilla17","gender":"1","age":"9","school":"4"},{"start_time":1552328102351,"click_time":1552328105946,"finger_time":1552328105386,"fix_duration":364.92379370643755,"trial":30,"RT":3035,"MT":560,"sideResp":2,"stimulus":"img/500/equaldotanddens/R/14_Ratio_500_L_5_R_10.png","xmouse":[798,798,798,798,798,798,798,798,798,798,799,799,799,799,799,799,799,799,799,799,799,799,799,799,799,799,799,799,799,799,799,799,799,799,799,799,799,799,799,799,799,799,799,799,799,799,798,799,800,800,800,800,800,800,800,800,800,800,800,800,800,800,800,800,800,800,800,800,800,800,800,800,800,800,800,800,800,800,800,800,800,800,800,800,800,800,800,800,800,800,800,800,800,800,800,800,800,800,800,800,800,800,800,800,800,800,800,800,800,800,800,800,800,800,800,800,800,798,797,797,797,797,797,797,797,797,797,797,797,797,797,797,797,797,797,797,797,797,796,794,783,779,777,776,776,776,776,776,778,784,824,861,912,957,1003,1031,1034,1038,1044,1054,1127,1158,1186,1216,1228,1228,1228,1228,1228,1228,1228,1228,1228,1228,1228,1228,1228,1228,1228,1145],"ymouse":[513,513,513,513,513,513,513,513,513,512,509,509,509,509,509,509,509,509,509,509,508,508,508,508,508,508,508,508,508,508,508,508,508,508,508,508,508,508,508,508,508,508,508,508,508,508,507,505,502,502,502,502,502,502,502,502,502,502,502,502,502,502,502,502,502,502,502,502,502,502,502,502,502,502,502,502,502,502,502,502,502,502,502,502,502,502,502,502,502,502,502,502,502,502,502,502,502,502,502,502,502,502,502,502,502,502,502,502,502,502,502,502,502,502,502,502,502,502,502,502,502,502,502,502,502,502,502,502,502,502,502,502,502,502,502,502,502,502,502,502,502,502,502,502,502,502,502,502,502,501,475,452,431,415,403,389,381,373,364,355,274,223,156,73,30,30,30,30,30,30,30,30,30,30,30,30,30,30,30,5],"timestamp_mouse":[15,36,55,76,95,115,134,155,175,195,215,234,256,275,294,314,335,355,375,394,414,435,456,475,494,515,535,555,574,596,615,635,655,674,694,715,734,755,775,795,815,834,854,875,895,915,934,955,975,995,1014,1034,1056,1075,1094,1114,1135,1156,1175,1195,1215,1235,1255,1275,1295,1315,1335,1356,1375,1394,1414,1435,1454,1475,1495,1514,1536,1555,1575,1596,1615,1635,1655,1675,1695,1714,1734,1755,1775,1795,1815,1835,1855,1874,1894,1916,1935,1955,1975,1995,2014,2034,2055,2075,2095,2115,2135,2155,2175,2195,2215,2234,2256,2276,2295,2315,2335,2355,2375,2394,2415,2435,2455,2474,2494,2515,2535,2555,2576,2595,2614,2634,2656,2675,2695,2715,2734,2756,2775,2795,2814,2835,2854,2874,2894,2914,2935,2956,2974,2995,3014,3034,3055,3075,3095,3116,3134,3155,3175,3195,3214,3236,3255,3274,3295,3315,3334,3354,3374,3394,3415,3436,3455,3475,3494,3515,3534,3554,3574,3595],"xSR":741.5,"ySR":449.15000000000003,"xT1":424.9,"yT1":0,"xT2":1058.1,"yT2":0,"toosoon":0,"cond_shown":"equaldotanddens","ratio_trial":500,"smaller_num":"5","larger_num":"10","correct_side":2,"subjID":"linabonilla17","gender":"1","age":"9","school":"4"},{"start_time":1552328108755,"click_time":1552328110306,"finger_time":1552328109646,"fix_duration":1308.8616954706201,"trial":31,"RT":891,"MT":660,"sideResp":1,"stimulus":"img/900/equaldotsize/R/13_Ratio_900_L_18_R_20.png","xmouse":[793,793,793,793,793,793,793,793,793,793,793,793,793,793,793,793,793,793,793,793,793,793,793,793,793,793,793,793,793,793,793,793,793,793,793,793,793,793,793,793,790,781,766,746,719,667,644,627,617,612,599,590,579,571,561,543,537,533,533,533,542,543,541,535,532,532,532,532,532,532,532,532,532,532,532,532,532,506],"ymouse":[524,524,524,524,524,524,524,524,524,524,524,524,524,524,524,524,524,524,524,524,524,524,524,524,524,524,524,524,524,524,524,524,524,524,524,524,524,521,516,512,499,488,476,466,457,440,428,415,404,394,352,333,314,293,271,226,204,185,165,145,88,63,38,12,1,1,1,1,1,1,1,1,1,1,1,1,1,3],"timestamp_mouse":[11,31,50,81,91,111,132,151,171,191,210,231,251,271,291,311,332,351,371,391,410,431,450,472,492,512,530,551,571,591,610,631,652,671,691,711,731,750,770,791,811,832,850,871,891,911,932,950,970,992,1011,1032,1051,1071,1091,1110,1131,1152,1171,1191,1211,1231,1251,1271,1291,1311,1331,1350,1371,1391,1411,1432,1451,1471,1490,1511,1531,1551],"xSR":741.5,"ySR":449.15000000000003,"xT1":424.9,"yT1":0,"xT2":1058.1,"yT2":0,"toosoon":0,"cond_shown":"equaldotsize","ratio_trial":900,"smaller_num":"18","larger_num":"20","correct_side":2,"subjID":"linabonilla17","gender":"1","age":"9","school":"4"},{"start_time":1552328112289,"click_time":1552328113466,"finger_time":1552328112986,"fix_duration":542.3560275194894,"trial":32,"RT":697,"MT":480,"sideResp":1,"stimulus":"img/900/randomdotsizeEA/L/4_Ratio_900_L_20_R_18.png","xmouse":[824,824,824,824,824,824,824,824,824,824,824,824,824,824,824,824,824,824,824,824,824,824,824,824,824,824,824,824,824,824,824,824,824,797,786,775,765,759,751,748,746,744,742,738,736,733,729,724,707,698,684,672,658,616,597,578,561,542,508],"ymouse":[513,513,513,513,513,513,513,513,513,513,513,513,513,513,513,513,513,513,513,513,513,513,513,513,513,513,513,513,513,513,513,510,506,465,447,425,403,379,334,315,298,287,280,271,267,265,260,253,235,226,214,201,189,153,136,121,106,89,60],"timestamp_mouse":[20,44,57,76,97,116,136,157,177,196,217,237,257,277,297,316,336,357,376,397,416,437,457,476,497,516,537,557,577,597,617,637,657,677,697,717,738,758,777,797,817,837,857,877,896,917,937,957,977,996,1017,1037,1057,1078,1097,1117,1137,1157,1176],"xSR":741.5,"ySR":449.15000000000003,"xT1":424.9,"yT1":0,"xT2":1058.1,"yT2":0,"toosoon":0,"cond_shown":"randomdotsizeEA","ratio_trial":900,"smaller_num":"18","larger_num":"20","correct_side":1,"subjID":"linabonilla17","gender":"1","age":"9","school":"4"},{"start_time":1552328114819,"click_time":1552328116166,"finger_time":1552328115506,"fix_duration":250,"trial":33,"RT":687,"MT":660,"sideResp":1,"stimulus":"img/500/randomdotsizeEA/L/8_Ratio_500_L_8_R_4.png","xmouse":[792,792,792,792,792,792,792,792,792,792,792,792,792,792,792,792,792,792,792,792,792,792,792,792,792,792,792,792,792,792,792,792,791,789,787,787,787,796,801,806,809,813,816,816,815,806,777,728,703,668,633,599,559,548,541,539,539,539,539,539,539,539,539,536,532,528,521,505],"ymouse":[467,467,468,471,472,473,474,476,477,477,477,477,477,477,477,477,477,477,477,477,477,477,477,477,477,477,477,477,477,477,477,476,464,455,441,426,411,375,361,347,338,326,304,293,283,271,250,228,217,203,182,163,135,124,119,117,117,117,117,117,117,117,117,115,111,107,103,92],"timestamp_mouse":[11,27,49,66,87,106,126,146,166,187,207,227,247,268,287,308,327,347,367,386,406,426,446,467,486,507,526,546,568,587,607,627,647,668,687,706,727,747,766,787,807,826,847,866,887,906,928,947,967,986,1007,1026,1047,1068,1087,1107,1126,1147,1167,1187,1207,1226,1247,1267,1287,1307,1327,1346],"xSR":741.5,"ySR":449.15000000000003,"xT1":424.9,"yT1":0,"xT2":1058.1,"yT2":0,"toosoon":0,"cond_shown":"randomdotsizeEA","ratio_trial":500,"smaller_num":"4","larger_num":"8","correct_side":1,"subjID":"linabonilla17","gender":"1","age":"9","school":"4"},{"start_time":1552328118541,"click_time":1552328119886,"finger_time":1552328119246,"fix_duration":1493.4531985663855,"trial":34,"RT":705,"MT":640,"sideResp":1,"stimulus":"img/900/equaldotanddens/L/8_Ratio_900_L_20_R_18.png","xmouse":[767,769,774,780,788,794,804,807,807,807,807,807,807,807,807,807,807,807,807,807,807,807,807,807,807,807,807,807,807,806,805,799,788,772,752,730,685,666,651,641,633,617,614,611,608,608,607,607,607,607,607,597,591,583,577,574,571,570,569,567,564,561,561,559,554,547,539,514],"ymouse":[497,500,502,503,506,507,512,514,514,514,514,514,514,514,514,514,514,514,514,514,514,514,514,514,514,514,514,514,514,514,514,514,507,498,486,474,444,428,411,397,381,354,347,340,335,330,325,307,295,279,259,201,178,161,150,144,139,137,136,134,131,129,129,128,125,120,114,96],"timestamp_mouse":[14,27,49,65,86,104,125,145,165,185,205,225,244,264,284,305,326,345,364,384,404,425,445,465,485,505,525,545,565,585,606,624,644,665,686,705,726,745,765,784,804,825,844,864,885,905,925,945,965,984,1006,1025,1044,1065,1084,1105,1124,1145,1165,1185,1205,1225,1245,1264,1285,1304,1325,1344],"xSR":741.5,"ySR":449.15000000000003,"xT1":424.9,"yT1":0,"xT2":1058.1,"yT2":0,"toosoon":0,"cond_shown":"equaldotanddens","ratio_trial":900,"smaller_num":"18","larger_num":"20","correct_side":1,"subjID":"linabonilla17","gender":"1","age":"9","school":"4"},{"start_time":1552328123313,"click_time":1552328124786,"finger_time":1552328124086,"fix_duration":1105.9194425747526,"trial":35,"RT":773,"MT":700,"sideResp":1,"stimulus":"img/750/equaldotsize/L/1_Ratio_750_L_20_R_15.png","xmouse":[795,795,793,793,791,791,791,791,791,791,791,791,791,791,791,791,791,791,791,791,791,791,791,791,791,791,791,791,791,791,791,790,782,778,774,769,763,746,740,733,727,717,688,682,672,662,652,632,622,611,599,587,576,559,550,538,525,497,484,471,463,461,461,461,461,461,461,461,461,461,461,461,461,461],"ymouse":[494,494,494,495,495,496,496,496,496,496,496,496,496,496,496,496,496,496,496,496,496,496,496,496,496,496,496,496,496,496,496,494,484,479,476,474,472,466,461,451,443,428,385,371,356,340,324,296,281,264,248,232,220,197,185,170,157,129,118,108,103,101,101,101,101,101,101,101,101,101,101,101,101,99],"timestamp_mouse":[13,34,52,72,93,114,132,153,173,193,212,232,253,273,293,313,333,353,373,393,413,433,453,472,494,513,533,553,573,593,612,633,653,673,693,713,733,753,773,793,814,833,853,874,893,913,932,954,974,993,1013,1032,1053,1072,1093,1114,1133,1153,1173,1192,1213,1233,1253,1273,1293,1313,1333,1353,1373,1393,1413,1433,1453,1473],"xSR":741.5,"ySR":449.15000000000003,"xT1":424.9,"yT1":0,"xT2":1058.1,"yT2":0,"toosoon":0,"cond_shown":"equaldotsize","ratio_trial":750,"smaller_num":"15","larger_num":"20","correct_side":1,"subjID":"linabonilla17","gender":"1","age":"9","school":"4"},{"start_time":1552328127111,"click_time":1552328128466,"finger_time":1552328127866,"fix_duration":1244.5900241090133,"trial":36,"RT":755,"MT":600,"sideResp":2,"stimulus":"img/900/randomdotsizeEA/R/9_Ratio_900_L_18_R_20.png","xmouse":[796,796,796,796,796,796,796,796,796,796,796,796,796,796,796,796,796,796,796,796,796,796,796,796,796,796,796,796,796,796,796,796,796,796,800,809,819,846,859,870,879,886,915,931,947,962,976,992,999,1009,1018,1024,1031,1035,1037,1040,1045,1056,1059,1064,1067,1068,1071,1072,1073,1075,1075,1077],"ymouse":[513,513,513,513,513,513,513,513,513,513,513,513,513,513,513,513,513,513,513,513,513,513,513,513,513,513,513,513,513,513,513,513,513,511,505,495,484,463,455,448,441,434,405,392,377,361,345,329,321,307,295,286,262,252,243,234,223,199,189,177,167,156,137,130,125,117,106,92],"timestamp_mouse":[16,38,55,75,94,115,135,154,179,194,216,235,254,275,295,316,336,355,375,395,415,434,455,475,496,515,534,554,574,595,615,636,654,676,695,715,735,755,775,795,816,836,855,875,895,915,936,955,974,995,1015,1035,1055,1076,1095,1116,1136,1154,1176,1195,1216,1236,1255,1276,1295,1325,1335,1354],"xSR":741.5,"ySR":449.15000000000003,"xT1":424.9,"yT1":0,"xT2":1058.1,"yT2":0,"toosoon":0,"cond_shown":"randomdotsizeEA","ratio_trial":900,"smaller_num":"18","larger_num":"20","correct_side":2,"subjID":"linabonilla17","gender":"1","age":"9","school":"4"},{"start_time":1552328131499,"click_time":1552328133046,"finger_time":1552328132205,"fix_duration":431.30604357192107,"trial":37,"RT":706,"MT":841,"sideResp":1,"stimulus":"img/900/equaldotsize/L/2_Ratio_900_L_20_R_18.png","xmouse":[791,791,791,791,791,791,791,791,791,791,791,791,791,791,791,791,791,791,791,791,791,791,791,791,791,791,791,791,791,791,791,788,785,764,750,731,709,684,625,594,574,559,550,546,546,547,549,550,551,552,553,555,556,553,550,549,548,548,548,548,546,542,532,521,516,513,511,511,508,506,505,504,502,499,496,495,494,493],"ymouse":[495,495,495,495,495,495,495,495,495,495,495,495,495,495,495,495,495,495,495,495,495,495,495,495,495,495,495,495,495,495,495,495,495,495,487,478,464,446,405,383,368,358,347,337,332,329,326,323,315,308,301,292,283,257,254,251,251,251,243,236,227,216,201,181,173,166,159,154,150,143,140,137,131,122,114,109,102,95],"timestamp_mouse":[9,36,47,67,87,107,127,147,167,187,208,227,247,266,288,307,327,347,367,388,407,426,447,466,487,507,526,547,567,587,606,627,648,667,687,706,727,747,767,786,807,827,847,867,888,907,927,948,967,987,1007,1027,1047,1067,1088,1107,1127,1146,1167,1186,1207,1227,1246,1267,1287,1307,1327,1346,1367,1387,1407,1427,1446,1467,1487,1507,1526,1547],"xSR":741.5,"ySR":449.15000000000003,"xT1":424.9,"yT1":0,"xT2":1058.1,"yT2":0,"toosoon":0,"cond_shown":"equaldotsize","ratio_trial":900,"smaller_num":"18","larger_num":"20","correct_side":1,"subjID":"linabonilla17","gender":"1","age":"9","school":"4"},{"start_time":1552328136515,"click_time":1552328137726,"finger_time":1552328137187,"fix_duration":867.7826376724777,"trial":38,"RT":672,"MT":539,"sideResp":1,"stimulus":"img/250/randomdotsizeEA/L/1_Ratio_250_L_8_R_2.png","xmouse":[794,794,794,794,794,794,794,794,794,794,794,794,794,794,794,794,794,794,794,794,794,794,794,794,794,794,794,794,794,794,794,791,770,757,738,716,695,664,659,655,652,648,644,643,642,642,642,641,641,641,640,638,633,614,602,589,573,557,521,504,490],"ymouse":[492,492,492,492,492,492,492,492,492,492,492,492,492,492,492,492,492,492,492,492,492,492,492,492,492,492,492,492,492,492,491,486,452,434,409,378,345,289,269,255,246,239,229,226,223,221,219,217,216,216,216,213,211,199,193,184,175,162,132,115,97],"timestamp_mouse":[13,35,51,72,91,111,130,150,171,190,210,231,251,271,291,311,331,351,371,391,411,431,451,471,491,511,531,551,571,591,611,630,651,672,691,712,731,750,772,791,810,831,850,872,890,910,930,951,971,990,1010,1030,1051,1070,1091,1111,1130,1151,1171,1191,1211],"xSR":741.5,"ySR":449.15000000000003,"xT1":424.9,"yT1":0,"xT2":1058.1,"yT2":0,"toosoon":0,"cond_shown":"randomdotsizeEA","ratio_trial":250,"smaller_num":"2","larger_num":"8","correct_side":1,"subjID":"linabonilla17","gender":"1","age":"9","school":"4"},{"start_time":1552328139859,"click_time":1552328141166,"finger_time":1552328140646,"fix_duration":992.6745821903602,"trial":39,"RT":787,"MT":520,"sideResp":2,"stimulus":"img/900/equaldotsize/R/15_Ratio_900_L_9_R_10.png","xmouse":[794,794,794,794,794,794,794,794,794,794,794,794,794,794,794,794,794,794,794,794,794,794,794,794,794,794,794,794,794,794,794,794,794,795,797,807,812,819,828,838,848,852,855,861,869,890,903,914,926,936,951,957,960,964,968,979,987,994,1003,1010,1018,1034,1043,1051,1062,1083],"ymouse":[504,504,504,504,504,504,504,504,504,504,504,504,504,504,504,504,504,504,504,504,504,504,504,504,504,504,504,504,504,504,504,504,499,497,491,472,466,459,452,447,442,441,439,437,433,416,407,396,383,370,344,328,312,299,286,243,226,208,190,172,155,130,120,111,103,87],"timestamp_mouse":[12,35,46,67,87,107,126,147,167,187,208,227,247,267,287,307,327,346,367,388,406,426,446,467,488,506,526,547,567,587,606,626,647,667,687,707,727,747,767,787,807,826,847,867,887,907,926,947,967,987,1007,1027,1046,1067,1087,1107,1126,1146,1167,1187,1207,1227,1247,1267,1287,1307],"xSR":741.5,"ySR":449.15000000000003,"xT1":424.9,"yT1":0,"xT2":1058.1,"yT2":0,"toosoon":0,"cond_shown":"equaldotsize","ratio_trial":900,"smaller_num":"9","larger_num":"10","correct_side":2,"subjID":"linabonilla17","gender":"1","age":"9","school":"4"},{"start_time":1552328143428,"click_time":1552328144466,"finger_time":1552328143986,"fix_duration":1181.9111030389784,"trial":40,"RT":558,"MT":480,"sideResp":1,"stimulus":"img/900/equaldotanddens/L/2_Ratio_900_L_20_R_18.png","xmouse":[789,789,789,789,789,789,789,789,789,789,789,789,789,789,789,789,789,789,789,789,789,789,789,789,783,777,771,752,743,736,727,712,706,699,691,685,664,661,654,644,634,614,601,594,587,578,559,553,546,536,528,518],"ymouse":[492,492,492,492,492,492,492,492,492,492,492,492,492,492,492,492,492,492,492,492,492,492,492,492,484,476,467,445,433,423,411,391,381,371,360,350,326,318,304,288,270,229,208,195,181,165,136,128,119,113,105,98],"timestamp_mouse":[19,40,58,78,98,117,138,158,178,199,217,238,258,278,297,318,338,358,378,397,417,438,458,478,498,518,538,558,578,598,618,637,659,678,697,718,738,759,777,797,819,837,858,877,897,918,938,958,978,997,1017,1038],"xSR":741.5,"ySR":449.15000000000003,"xT1":424.9,"yT1":0,"xT2":1058.1,"yT2":0,"toosoon":0,"cond_shown":"equaldotanddens","ratio_trial":900,"smaller_num":"18","larger_num":"20","correct_side":1,"subjID":"linabonilla17","gender":"1","age":"9","school":"4"},{"start_time":1552328146159,"click_time":1552328147166,"finger_time":1552328146866,"fix_duration":931.3502299035403,"trial":41,"RT":707,"MT":300,"sideResp":2,"stimulus":"img/750/equaldotanddens/R/5_Ratio_750_L_15_R_20.png","xmouse":[820,820,820,820,820,820,820,820,820,820,820,820,820,820,820,820,820,820,820,820,820,820,820,820,820,820,820,820,820,820,820,820,821,823,828,844,854,864,873,880,896,910,929,948,967,1003,1020,1034,1045,1054,1074],"ymouse":[498,498,498,498,498,498,498,498,500,501,501,501,501,501,501,501,501,501,501,501,501,501,501,501,501,501,501,501,501,501,501,501,495,491,476,442,424,407,390,374,344,327,307,290,270,222,197,171,148,127,91],"timestamp_mouse":[9,39,47,67,87,107,127,147,167,186,207,227,248,268,286,307,328,347,367,387,407,427,446,467,486,506,526,546,566,587,607,627,647,667,686,707,727,747,768,787,808,827,847,866,887,907,928,947,966,987,1007],"xSR":741.5,"ySR":449.15000000000003,"xT1":424.9,"yT1":0,"xT2":1058.1,"yT2":0,"toosoon":0,"cond_shown":"equaldotanddens","ratio_trial":750,"smaller_num":"15","larger_num":"20","correct_side":2,"subjID":"linabonilla17","gender":"1","age":"9","school":"4"},{"start_time":1552328149337,"click_time":1552328150366,"finger_time":1552328150026,"fix_duration":970.7783369183478,"trial":42,"RT":689,"MT":340,"sideResp":2,"stimulus":"img/750/equaldotsize/R/11_Ratio_750_L_12_R_16.png","xmouse":[799,799,799,799,799,799,799,799,799,799,799,799,799,799,799,799,799,799,799,799,799,799,799,799,799,799,799,799,799,799,801,811,819,826,833,838,851,862,873,881,883,893,898,907,918,931,961,975,992,1010,1031,1063],"ymouse":[521,521,521,521,521,521,521,521,521,521,519,518,518,518,518,518,518,518,518,518,518,518,518,518,518,518,518,518,518,518,515,495,481,466,449,431,380,339,303,265,247,175,147,123,102,86,61,52,46,44,43,43],"timestamp_mouse":[9,43,50,70,89,108,129,148,169,189,209,229,250,269,289,309,328,349,370,389,409,429,449,469,489,509,529,548,569,588,609,629,648,669,689,710,729,748,768,789,809,829,849,869,888,909,929,948,968,990,1009,1029],"xSR":741.5,"ySR":449.15000000000003,"xT1":424.9,"yT1":0,"xT2":1058.1,"yT2":0,"toosoon":0,"cond_shown":"equaldotsize","ratio_trial":750,"smaller_num":"12","larger_num":"16","correct_side":2,"subjID":"linabonilla17","gender":"1","age":"9","school":"4"},{"start_time":1552328153334,"click_time":1552328155426,"finger_time":1552328154767,"fix_duration":365.8341943168647,"trial":43,"RT":1433,"MT":659,"sideResp":1,"stimulus":"img/250/randomdotsizeEA/R/6_Ratio_250_L_6_R_24.png","xmouse":[781,781,781,781,781,781,781,781,781,781,781,781,781,781,781,781,781,781,781,781,781,781,781,781,781,781,781,781,781,781,781,781,781,781,781,781,781,781,781,781,781,781,781,781,781,781,781,781,781,781,781,780,779,779,778,778,778,778,778,778,778,778,778,778,778,778,778,779,783,791,799,822,828,833,836,837,833,827,816,802,780,741,720,687,685,634,540,499,456,416,392,370,370,370,372,377,381,390,393,395,395,397,403,417,431],"ymouse":[523,521,521,521,521,520,519,519,519,519,519,519,519,519,519,519,519,519,519,519,519,519,519,519,519,519,519,519,519,519,519,519,519,519,519,519,519,519,519,519,519,519,519,519,519,519,519,519,519,519,519,519,520,523,524,525,526,526,526,526,526,526,526,526,526,526,526,519,508,495,479,432,415,398,383,367,342,332,321,314,304,286,275,258,257,228,176,154,129,105,89,72,72,72,72,72,71,68,68,67,67,67,68,71,73],"timestamp_mouse":[12,41,53,72,93,113,131,152,172,192,212,231,251,272,292,312,332,353,372,392,411,431,452,472,491,512,532,552,572,591,612,632,652,672,691,713,732,752,772,792,812,832,852,871,892,912,931,952,971,991,1012,1031,1052,1071,1092,1111,1131,1152,1172,1192,1211,1232,1253,1272,1292,1311,1331,1352,1372,1392,1413,1433,1452,1471,1491,1511,1532,1552,1572,1593,1612,1631,1652,1671,1692,1712,1732,1752,1771,1791,1812,1832,1851,1873,1892,1912,1932,1952,1972,1993,2012,2033,2051,2072,2092],"xSR":741.5,"ySR":449.15000000000003,"xT1":424.9,"yT1":0,"xT2":1058.1,"yT2":0,"toosoon":0,"cond_shown":"randomdotsizeEA","ratio_trial":250,"smaller_num":"6","larger_num":"24","correct_side":2,"subjID":"linabonilla17","gender":"1","age":"9","school":"4"},{"start_time":1552328156934,"click_time":1552328157706,"finger_time":1552328157606,"fix_duration":386.15047737866536,"trial":44,"RT":672,"MT":100,"sideResp":1,"stimulus":"img/500/equaldotanddens/L/11_Ratio_500_L_12_R_6.png","xmouse":[780,780,780,780,780,780,780,780,780,780,780,780,780,780,780,780,780,780,780,780,780,780,780,780,780,780,780,780,780,780,780,773,758,735,708,670,586,536,490],"ymouse":[492,492,492,492,492,492,492,492,492,492,492,492,492,492,492,492,492,492,492,492,492,492,492,492,492,492,492,492,492,492,492,482,464,432,391,334,202,133,80],"timestamp_mouse":[13,35,51,73,92,111,132,152,172,192,212,232,251,273,293,312,332,352,372,392,413,432,452,472,492,512,532,552,572,592,612,632,652,672,693,712,732,753,772],"xSR":741.5,"ySR":449.15000000000003,"xT1":424.9,"yT1":0,"xT2":1058.1,"yT2":0,"toosoon":0,"cond_shown":"equaldotanddens","ratio_trial":500,"smaller_num":"6","larger_num":"12","correct_side":1,"subjID":"linabonilla17","gender":"1","age":"9","school":"4"},{"start_time":1552328160495,"click_time":1552328161926,"finger_time":1552328161166,"fix_duration":1047.458553663228,"trial":45,"RT":671,"MT":760,"sideResp":2,"stimulus":"img/900/randomdotsizeEA/R/7_Ratio_900_L_9_R_10.png","xmouse":[807,807,805,804,803,803,803,803,803,803,803,803,803,803,803,803,803,803,803,803,803,803,803,803,803,803,803,803,803,803,803,804,808,837,852,873,891,906,930,942,952,961,966,972,981,986,991,997,1006,1008,1010,1011,1014,1016,1017,1018,1018,1018,1021,1022,1022,1022,1023,1025,1027,1031,1037,1045,1052,1055,1058,1060],"ymouse":[497,495,493,492,491,491,491,491,491,491,491,491,491,491,491,491,491,491,491,491,491,491,491,491,491,491,491,491,491,491,484,478,462,409,386,360,336,311,273,257,241,226,211,189,165,156,147,137,118,115,111,107,104,103,103,103,103,103,98,93,91,90,89,84,81,74,64,54,42,38,35,31],"timestamp_mouse":[10,31,50,71,91,111,131,152,171,191,211,232,250,270,291,311,330,351,370,391,411,431,451,470,491,511,531,551,571,591,611,631,651,671,690,711,731,751,771,791,811,831,851,870,891,911,931,951,974,991,1011,1030,1051,1071,1092,1111,1131,1151,1171,1192,1210,1230,1250,1271,1290,1311,1330,1351,1371,1391,1410,1431],"xSR":741.5,"ySR":449.15000000000003,"xT1":424.9,"yT1":0,"xT2":1058.1,"yT2":0,"toosoon":0,"cond_shown":"randomdotsizeEA","ratio_trial":900,"smaller_num":"9","larger_num":"10","correct_side":2,"subjID":"linabonilla17","gender":"1","age":"9","school":"4"},{"start_time":1552328164050,"click_time":1552328165586,"finger_time":1552328164746,"fix_duration":881.6482536477863,"trial":46,"RT":696,"MT":840,"sideResp":2,"stimulus":"img/500/equaldotsize/R/2_Ratio_500_L_3_R_6.png","xmouse":[810,810,810,810,810,810,810,810,810,810,810,810,810,810,810,810,810,810,810,810,810,810,810,810,810,810,810,810,811,812,815,819,825,834,842,866,875,885,893,901,916,925,933,941,949,968,974,979,983,989,998,1002,1007,1012,1015,1025,1028,1032,1035,1037,1042,1044,1045,1046,1047,1048,1049,1049,1049,1049,1051,1052,1053,1056,1058,1058,1059],"ymouse":[532,532,532,532,532,532,532,532,532,532,532,532,532,532,532,532,532,532,532,532,532,532,532,532,532,532,532,532,529,526,514,505,495,481,465,426,410,397,386,375,353,340,327,311,298,263,249,231,215,198,166,153,140,128,118,98,92,87,81,77,73,72,70,69,69,68,68,68,68,68,67,67,66,66,65,65,65],"timestamp_mouse":[16,41,56,75,96,116,136,156,177,196,217,236,255,276,296,316,335,355,376,396,416,436,456,476,496,516,536,556,576,596,616,636,656,676,696,715,736,756,776,796,816,835,856,875,895,916,937,956,976,997,1016,1036,1056,1076,1096,1115,1136,1156,1176,1197,1216,1236,1255,1275,1296,1316,1337,1357,1376,1397,1416,1437,1456,1476,1497,1517,1536],"xSR":741.5,"ySR":449.15000000000003,"xT1":424.9,"yT1":0,"xT2":1058.1,"yT2":0,"toosoon":0,"cond_shown":"equaldotsize","ratio_trial":500,"smaller_num":"3","larger_num":"6","correct_side":2,"subjID":"linabonilla17","gender":"1","age":"9","school":"4"},{"start_time":1552328168332,"click_time":1552328170186,"finger_time":1552328169087,"fix_duration":1103.1250830047493,"trial":47,"RT":755,"MT":1099,"sideResp":1,"stimulus":"img/250/equaldotsize/L/15_Ratio_250_L_12_R_3.png","xmouse":[824,824,824,824,824,824,824,824,824,824,824,823,822,821,820,819,818,817,817,817,817,817,817,817,817,817,817,817,817,817,817,817,817,812,807,800,782,776,769,761,755,742,740,737,734,732,730,728,726,719,718,695,684,670,660,646,628,620,615,612,611,611,611,610,610,610,608,608,608,608,607,605,604,603,601,600,598,596,594,593,591,590,590,588,586,582,571,563,554,548,542,533,524],"ymouse":[491,491,491,491,491,491,491,491,491,491,491,491,491,491,492,492,492,492,492,492,492,492,492,492,492,492,492,492,492,492,492,492,492,492,486,477,456,446,435,423,413,393,389,385,382,379,376,374,371,362,361,339,330,322,313,305,291,282,278,274,272,269,268,266,265,263,260,258,256,254,251,243,240,235,230,226,219,216,211,209,206,202,199,196,187,179,161,150,137,127,117,103,87],"timestamp_mouse":[14,35,54,74,94,114,134,153,174,194,214,234,254,273,295,314,334,354,373,394,414,435,454,474,494,514,533,555,573,594,615,633,653,674,694,714,734,755,773,794,815,834,855,875,895,915,934,955,974,993,1013,1034,1055,1073,1093,1114,1134,1155,1174,1194,1214,1234,1254,1275,1294,1315,1333,1354,1375,1394,1413,1434,1454,1474,1494,1514,1535,1555,1575,1594,1614,1634,1654,1674,1694,1714,1734,1755,1774,1793,1813,1833,1853],"xSR":741.5,"ySR":449.15000000000003,"xT1":424.9,"yT1":0,"xT2":1058.1,"yT2":0,"toosoon":0,"cond_shown":"equaldotsize","ratio_trial":250,"smaller_num":"3","larger_num":"12","correct_side":1,"subjID":"linabonilla17","gender":"1","age":"9","school":"4"},{"start_time":1552328171899,"click_time":1552328173366,"finger_time":1552328172607,"fix_duration":250,"trial":48,"RT":708,"MT":759,"sideResp":2,"stimulus":"img/750/equaldotanddens/R/11_Ratio_750_L_12_R_16.png","xmouse":[803,803,803,803,803,803,803,803,803,803,803,803,803,803,803,803,803,803,803,803,803,803,803,803,803,803,803,803,803,803,803,803,803,807,813,822,831,837,844,848,850,854,859,872,876,885,895,905,928,937,951,965,980,1014,1024,1033,1037,1039,1041,1041,1041,1041,1042,1044,1045,1045,1046,1048,1054,1060,1065,1070,1075,1082],"ymouse":[485,485,485,485,485,485,485,485,485,485,485,485,485,485,485,485,485,485,485,485,485,485,485,485,485,485,485,485,485,485,485,485,485,472,459,445,423,400,356,341,335,321,310,293,289,285,280,275,260,253,243,234,227,213,210,206,203,201,185,179,174,172,170,163,160,156,151,144,130,124,118,114,107,96],"timestamp_mouse":[11,31,46,67,87,107,128,146,167,186,207,227,247,266,287,307,327,347,367,387,407,427,447,466,487,507,527,547,567,586,606,627,647,667,686,708,727,747,768,787,806,828,846,867,886,906,927,947,967,988,1006,1026,1046,1067,1087,1108,1128,1148,1167,1187,1207,1228,1246,1267,1286,1307,1327,1347,1367,1386,1408,1427,1447,1467],"xSR":741.5,"ySR":449.15000000000003,"xT1":424.9,"yT1":0,"xT2":1058.1,"yT2":0,"toosoon":0,"cond_shown":"equaldotanddens","ratio_trial":750,"smaller_num":"12","larger_num":"16","correct_side":2,"subjID":"linabonilla17","gender":"1","age":"9","school":"4"},{"start_time":1552328175729,"click_time":1552328177166,"finger_time":1552328176766,"fix_duration":1120.192438500953,"trial":49,"RT":1037,"MT":400,"sideResp":2,"stimulus":"img/500/equaldotanddens/R/9_Ratio_500_L_2_R_4.png","xmouse":[784,768,765,765,765,765,765,765,765,765,765,765,765,765,765,765,765,765,765,765,765,765,765,765,765,765,765,765,765,765,765,765,765,765,765,765,765,765,765,767,768,774,777,781,784,785,788,789,790,793,796,816,831,848,869,894,948,985,1008,1014,1024,1064,1072,1074,1076,1077,1078,1079,1080,1082,1083,1085],"ymouse":[503,505,505,505,505,505,505,505,505,505,505,505,505,505,505,505,505,505,505,505,505,505,505,505,505,505,505,505,505,505,505,505,505,505,505,505,505,502,500,496,495,486,483,479,474,473,470,469,468,466,465,447,424,383,327,283,242,231,224,223,221,197,178,159,148,140,134,132,128,121,115,83],"timestamp_mouse":[18,48,57,77,98,118,137,157,176,196,217,238,257,277,297,318,337,357,376,396,416,437,457,477,497,517,538,558,577,596,616,637,657,677,696,717,736,756,776,796,818,836,857,876,896,917,936,956,977,997,1017,1037,1056,1077,1097,1117,1137,1156,1177,1197,1217,1237,1258,1278,1297,1317,1336,1358,1377,1397,1417,1437],"xSR":741.5,"ySR":449.15000000000003,"xT1":424.9,"yT1":0,"xT2":1058.1,"yT2":0,"toosoon":0,"cond_shown":"equaldotanddens","ratio_trial":500,"smaller_num":"2","larger_num":"4","correct_side":2,"subjID":"linabonilla17","gender":"1","age":"9","school":"4"},{"start_time":1552328181071,"click_time":1552328185827,"finger_time":1552328185787,"fix_duration":1283.045526492384,"trial":50,"RT":4716,"MT":40,"sideResp":2,"stimulus":"img/750/equaldotsize/L/14_Ratio_750_L_8_R_6.png","xmouse":[788,788,788,788,788,788,788,788,788,788,788,788,788,788,788,788,788,788,788,788,788,788,788,788,788,788,788,788,788,788,788,788,788,788,788,788,788,788,788,788,788,788,788,788,788,788,788,788,788,788,788,788,788,788,788,788,788,788,788,788,788,788,788,788,788,788,788,788,788,788,788,788,788,788,788,788,788,788,788,788,788,788,788,788,788,788,788,788,788,788,788,788,788,788,788,788,788,788,788,788,788,788,788,788,788,788,788,788,788,788,788,788,788,788,788,788,788,788,788,788,788,788,788,788,788,788,788,788,788,788,788,788,788,788,788,788,788,788,788,788,788,788,788,788,788,788,788,788,788,788,788,788,788,788,788,788,788,788,788,788,788,788,788,788,788,788,788,788,788,788,788,788,788,788,788,788,788,788,788,788,788,788,788,788,788,788,788,788,788,788,788,788,788,788,788,788,788,788,788,788,788,788,788,788,788,788,788,788,788,788,788,788,788,788,788,788,788,788,788,788,788,788,788,788,788,788,788,788,788,788,788,788,788,788,788,859,982,1116],"ymouse":[537,537,537,537,537,537,537,537,537,537,537,537,537,537,537,537,537,537,537,537,537,537,537,537,537,537,537,537,537,537,537,537,537,537,537,537,537,537,537,537,537,537,537,537,537,537,537,537,537,537,537,537,537,537,537,537,537,537,537,537,537,537,537,537,537,537,537,537,537,537,537,537,537,537,537,537,537,537,537,537,537,537,537,537,537,537,537,537,537,537,537,537,537,537,537,537,537,537,537,537,537,537,537,537,537,537,537,537,537,537,537,537,537,537,537,537,537,537,537,537,537,537,537,537,537,537,537,537,537,537,537,537,537,537,537,537,537,537,537,537,537,537,537,537,537,537,537,537,537,537,537,537,537,537,537,537,537,537,537,537,537,537,537,537,537,537,537,537,537,537,537,537,537,537,537,537,537,537,537,537,537,537,537,537,537,537,537,537,537,537,537,537,537,537,537,537,537,537,537,537,537,537,537,537,537,537,537,537,537,537,537,537,537,537,537,537,537,537,537,537,537,537,537,537,537,537,537,537,537,537,537,537,537,537,537,437,230,36],"timestamp_mouse":[16,40,55,76,94,116,134,154,175,195,216,235,255,275,295,315,334,356,375,395,419,435,454,475,495,515,535,555,575,594,614,636,655,675,695,714,735,755,775,795,815,835,854,876,895,915,935,954,975,995,1015,1034,1054,1075,1095,1115,1134,1155,1175,1194,1214,1235,1255,1274,1295,1315,1334,1354,1374,1394,1414,1434,1454,1474,1494,1514,1534,1554,1574,1594,1614,1634,1654,1675,1694,1714,1734,1754,1775,1794,1815,1836,1855,1875,1895,1914,1935,1956,1974,1994,2014,2034,2055,2075,2095,2115,2135,2155,2174,2195,2215,2236,2256,2274,2294,2315,2336,2356,2375,2395,2414,2434,2455,2474,2494,2515,2535,2555,2575,2595,2614,2635,2655,2674,2695,2715,2735,2755,2774,2795,2815,2835,2854,2875,2895,2915,2935,2955,2975,2995,3015,3035,3054,3074,3094,3115,3135,3155,3175,3195,3215,3235,3255,3274,3294,3315,3335,3355,3375,3395,3415,3435,3455,3474,3494,3514,3535,3555,3575,3595,3615,3636,3654,3675,3695,3715,3734,3755,3776,3795,3815,3835,3854,3875,3895,3915,3934,3954,3975,3995,4015,4035,4055,4075,4094,4114,4135,4155,4174,4195,4215,4235,4256,4275,4295,4315,4334,4355,4375,4395,4415,4434,4454,4475,4495,4515,4535,4555,4575,4595,4616,4635,4655,4674,4694,4716,4735,4756],"xSR":741.5,"ySR":449.15000000000003,"xT1":424.9,"yT1":0,"xT2":1058.1,"yT2":0,"toosoon":0,"cond_shown":"equaldotsize","ratio_trial":750,"smaller_num":"6","larger_num":"8","correct_side":1,"subjID":"linabonilla17","gender":"1","age":"9","school":"4"},{"start_time":1552328226309,"click_time":1552328228666,"finger_time":1552328227366,"fix_duration":782.9882426211711,"trial":51,"RT":1057,"MT":1300,"sideResp":1,"stimulus":"img/750/randomdotsizeEA/R/15_Ratio_750_L_9_R_12.png","xmouse":[814,814,814,815,815,815,815,815,815,815,815,815,815,815,815,815,815,815,815,815,815,815,815,815,815,815,815,815,815,815,815,815,815,815,815,815,815,815,815,815,815,815,815,815,815,815,815,815,815,816,818,820,848,876,915,945,967,971,967,965,963,963,963,963,963,969,973,986,996,1005,1016,1019,1023,1023,1023,1023,1023,996,968,926,874,834,782,772,767,763,759,746,738,730,721,712,688,683,677,671,665,659,656,654,652,650,650,650,650,651,653,662,663,663,661,655,626,606,584,563,539,471],"ymouse":[534,534,534,532,532,532,532,532,532,532,532,532,532,532,532,532,532,532,532,532,532,532,532,532,532,532,532,532,532,532,532,532,532,532,532,532,532,532,532,532,532,532,532,532,532,532,532,532,531,529,528,526,507,483,446,397,339,265,239,224,217,216,216,216,212,209,207,195,186,175,155,150,140,138,138,138,137,138,138,138,138,135,135,138,140,141,143,149,154,157,162,166,175,176,177,177,177,177,177,177,176,176,173,172,172,172,172,168,166,162,154,143,106,91,79,65,52,9],"timestamp_mouse":[17,39,56,76,96,118,137,158,177,197,216,236,257,277,297,317,337,358,378,397,417,436,458,478,497,517,536,556,576,597,617,637,657,677,696,717,736,757,776,797,817,836,856,876,897,917,937,957,977,997,1017,1037,1057,1077,1096,1118,1137,1156,1178,1197,1216,1238,1258,1278,1297,1317,1338,1356,1378,1397,1417,1436,1456,1476,1497,1516,1537,1557,1578,1597,1617,1637,1657,1677,1697,1717,1737,1757,1778,1797,1817,1837,1857,1876,1896,1916,1936,1956,1978,1997,2017,2036,2056,2077,2096,2117,2137,2157,2177,2197,2216,2237,2256,2278,2297,2316,2337,2357],"xSR":741.5,"ySR":449.15000000000003,"xT1":424.9,"yT1":0,"xT2":1058.1,"yT2":0,"toosoon":0,"cond_shown":"randomdotsizeEA","ratio_trial":750,"smaller_num":"9","larger_num":"12","correct_side":2,"subjID":"linabonilla17","gender":"1","age":"9","school":"4"},{"start_time":1552328238158,"click_time":1552328239526,"finger_time":1552328238887,"fix_duration":250,"trial":52,"RT":729,"MT":639,"sideResp":2,"stimulus":"img/750/equaldotanddens/R/4_Ratio_750_L_15_R_20.png","xmouse":[768,768,772,781,798,820,820,820,820,820,820,820,820,820,820,820,820,820,820,820,820,820,820,820,820,820,820,820,820,820,820,820,820,820,820,828,869,927,980,1043,1109,1138,1155,1172,1188,1206,1209,1209,1209,1209,1205,1198,1188,1177,1168,1147,1131,1116,1108,1107,1107,1109,1113,1117,1120,1127,1128,1133,1137],"ymouse":[491,491,490,491,493,497,497,497,497,497,497,497,497,497,497,497,497,497,497,497,497,497,497,497,497,497,497,497,497,497,497,497,497,497,497,497,475,442,416,380,342,326,314,302,293,282,278,276,275,273,268,267,262,256,245,213,197,183,174,170,164,160,152,144,134,115,110,102,92],"timestamp_mouse":[12,38,48,68,88,108,128,148,168,188,208,227,248,268,288,308,328,348,368,388,408,429,448,468,488,508,528,549,568,588,608,627,648,667,688,707,728,748,768,787,807,828,848,869,888,908,928,947,967,988,1008,1028,1048,1068,1088,1108,1128,1148,1168,1188,1207,1228,1248,1267,1288,1309,1328,1348,1368],"xSR":741.5,"ySR":449.15000000000003,"xT1":424.9,"yT1":0,"xT2":1058.1,"yT2":0,"toosoon":0,"cond_shown":"equaldotanddens","ratio_trial":750,"smaller_num":"15","larger_num":"20","correct_side":2,"subjID":"linabonilla17","gender":"1","age":"9","school":"4"},{"start_time":1552328240758,"click_time":1552328242146,"finger_time":1552328241366,"fix_duration":250,"trial":53,"RT":608,"MT":780,"sideResp":1,"stimulus":"img/250/equaldotsize/L/14_Ratio_250_L_12_R_3.png","xmouse":[811,811,811,811,811,811,811,811,811,811,811,811,811,811,811,811,811,811,811,811,811,811,811,810,806,801,798,793,787,776,731,707,678,639,576,421,326,244,181,134,134,134,134,134,134,134,134,134,134,134,134,134,134,134,134,134,134,134,134,134,134,134,134,134,134,393,398,405,415,431],"ymouse":[511,511,511,511,511,511,511,511,511,511,511,511,511,511,511,511,511,511,511,511,506,504,500,498,492,484,478,472,465,458,437,424,406,378,335,224,155,96,51,11,11,11,11,11,11,11,11,11,11,11,11,11,11,11,11,11,11,11,11,11,11,11,11,11,11,1,14,32,52,74],"timestamp_mouse":[14,35,48,68,87,108,127,147,168,188,208,228,247,268,288,309,328,347,368,388,408,428,448,468,487,507,527,548,569,588,608,628,647,669,689,709,728,747,767,788,809,828,848,868,888,908,928,948,968,988,1008,1028,1049,1067,1087,1107,1127,1147,1168,1188,1208,1228,1247,1268,1288,1308,1327,1349,1368,1388],"xSR":741.5,"ySR":449.15000000000003,"xT1":424.9,"yT1":0,"xT2":1058.1,"yT2":0,"toosoon":0,"cond_shown":"equaldotsize","ratio_trial":250,"smaller_num":"3","larger_num":"12","correct_side":1,"subjID":"linabonilla17","gender":"1","age":"9","school":"4"},{"start_time":1552328245060,"click_time":1552328246587,"finger_time":1552328245786,"fix_duration":352.2789799941086,"trial":54,"RT":726,"MT":801,"sideResp":2,"stimulus":"img/500/equaldotanddens/R/15_Ratio_500_L_1_R_2.png","xmouse":[788,788,788,788,788,788,788,788,788,788,788,788,788,788,788,788,788,788,788,788,788,788,788,788,788,788,788,788,788,788,788,788,788,791,801,829,843,858,869,881,896,905,910,918,924,937,942,949,955,963,976,982,986,990,993,1005,1012,1018,1023,1025,1026,1028,1028,1029,1030,1030,1030,1032,1034,1036,1041,1045,1048,1049,1052,1058,1060],"ymouse":[494,494,494,494,494,494,494,494,494,494,494,494,494,494,494,494,494,494,494,494,494,494,494,494,494,494,494,494,494,494,494,494,494,492,484,459,446,434,421,407,373,353,338,326,315,292,282,267,254,237,207,190,179,165,152,128,118,109,102,97,94,93,93,93,93,93,93,93,93,92,89,88,86,86,85,84,84],"timestamp_mouse":[15,26,47,65,86,105,126,146,165,185,205,226,246,266,286,306,326,346,366,386,407,425,446,466,486,507,525,545,566,586,605,626,646,666,686,706,726,746,767,786,805,826,845,865,885,905,926,946,966,986,1006,1027,1046,1067,1087,1105,1126,1146,1166,1186,1205,1226,1246,1265,1286,1305,1325,1345,1366,1386,1405,1426,1447,1465,1486,1506,1527],"xSR":741.5,"ySR":449.15000000000003,"xT1":424.9,"yT1":0,"xT2":1058.1,"yT2":0,"toosoon":0,"cond_shown":"equaldotanddens","ratio_trial":500,"smaller_num":"1","larger_num":"2","correct_side":2,"subjID":"linabonilla17","gender":"1","age":"9","school":"4"},{"start_time":1552328249274,"click_time":1552328250546,"finger_time":1552328249906,"fix_duration":1287.2695525271379,"trial":55,"RT":632,"MT":640,"sideResp":2,"stimulus":"img/900/equaldotsize/L/8_Ratio_900_L_20_R_18.png","xmouse":[784,784,784,785,785,785,785,785,785,785,785,785,785,785,785,785,785,785,785,785,785,785,785,785,785,788,790,793,801,820,833,849,866,886,909,917,922,927,931,938,941,944,955,958,973,982,990,999,1006,1021,1029,1036,1047,1047,1047,1047,1047,1047,1047,1047,1047,1047,1047,1095],"ymouse":[518,517,517,516,516,516,516,516,516,516,516,516,516,516,516,516,516,516,516,516,516,516,516,516,516,513,511,506,498,471,454,432,411,380,339,324,311,298,285,260,247,234,211,204,167,148,132,114,96,62,42,27,5,5,5,5,5,5,5,5,5,5,5,1],"timestamp_mouse":[15,32,53,72,91,111,132,151,172,191,211,232,252,271,291,312,332,352,372,391,412,432,452,472,491,511,532,552,572,592,612,632,652,671,692,713,732,752,772,791,811,832,852,872,892,913,932,951,971,992,1011,1031,1052,1072,1092,1112,1131,1151,1171,1193,1212,1232,1252,1272],"xSR":741.5,"ySR":449.15000000000003,"xT1":424.9,"yT1":0,"xT2":1058.1,"yT2":0,"toosoon":0,"cond_shown":"equaldotsize","ratio_trial":900,"smaller_num":"18","larger_num":"20","correct_side":1,"subjID":"linabonilla17","gender":"1","age":"9","school":"4"},{"start_time":1552328252005,"click_time":1552328253665,"finger_time":1552328252687,"fix_duration":257.31428824479895,"trial":56,"RT":682,"MT":978,"sideResp":2,"stimulus":"img/900/equaldotanddens/R/12_Ratio_900_L_18_R_20.png","xmouse":[779,779,779,779,779,779,779,779,779,779,779,779,779,779,779,779,779,779,779,779,779,779,779,779,779,779,779,779,779,779,782,784,791,813,826,842,858,873,894,899,904,908,913,923,932,942,953,955,969,973,975,977,980,983,985,986,987,991,997,1001,1004,1004,1005,1005,1006,1006,1007,1008,1013,1019,1024,1030,1036,1041,1046,1048,1048,1050,1053,1054,1056,1057,1058,1059],"ymouse":[496,496,496,496,496,496,496,496,496,496,496,496,496,496,496,496,496,496,496,496,496,496,496,496,496,496,496,496,496,496,493,491,483,452,431,410,387,365,322,310,300,290,280,260,248,235,213,206,164,151,139,129,120,108,105,102,99,89,64,59,56,55,55,55,55,55,56,56,56,56,55,55,55,55,56,57,57,57,57,57,57,57,57,57],"timestamp_mouse":[10,21,42,61,81,101,120,142,161,182,201,221,241,261,281,300,321,341,361,382,401,420,441,461,481,501,521,541,561,580,600,621,641,661,681,700,721,741,761,781,800,821,842,860,881,901,921,940,960,981,1001,1022,1040,1060,1082,1101,1131,1141,1160,1181,1201,1220,1240,1262,1281,1301,1321,1342,1360,1381,1402,1422,1441,1460,1481,1501,1521,1541,1560,1582,1601,1621,1640,1660],"xSR":741.5,"ySR":449.15000000000003,"xT1":424.9,"yT1":0,"xT2":1058.1,"yT2":0,"toosoon":0,"cond_shown":"equaldotanddens","ratio_trial":900,"smaller_num":"18","larger_num":"20","correct_side":2,"subjID":"linabonilla17","gender":"1","age":"9","school":"4"},{"start_time":1552328255577,"click_time":1552328257126,"finger_time":1552328256366,"fix_duration":490.1444865317837,"trial":57,"RT":789,"MT":760,"sideResp":1,"stimulus":"img/900/equaldotsize/R/3_Ratio_900_L_9_R_10.png","xmouse":[802,802,802,802,802,802,802,802,802,802,802,802,802,802,802,802,802,802,802,802,802,802,802,802,802,802,802,802,802,802,802,802,802,802,802,802,802,802,798,782,769,757,748,740,728,724,721,719,719,718,716,711,703,690,657,637,619,600,581,545,537,534,533,533,533,533,533,533,533,532,532,532,532,531,527,524,520,517],"ymouse":[477,477,477,477,477,477,477,477,477,477,477,477,477,477,477,477,477,477,477,477,477,477,477,477,477,477,477,477,477,477,477,477,477,477,477,477,475,472,462,413,378,348,322,304,276,266,260,257,255,254,252,248,241,231,204,192,180,170,162,146,143,141,140,140,140,140,140,140,140,136,132,127,122,117,112,107,101,95],"timestamp_mouse":[9,35,49,69,88,110,129,149,169,189,209,229,248,269,289,308,328,349,369,389,410,429,449,469,489,509,528,549,569,589,609,628,648,669,689,709,728,749,769,789,809,828,849,869,889,910,928,949,969,989,1009,1029,1048,1068,1088,1110,1130,1149,1168,1188,1210,1229,1250,1268,1288,1309,1329,1349,1369,1388,1408,1429,1450,1469,1488,1510,1529,1549],"xSR":741.5,"ySR":449.15000000000003,"xT1":424.9,"yT1":0,"xT2":1058.1,"yT2":0,"toosoon":0,"cond_shown":"equaldotsize","ratio_trial":900,"smaller_num":"9","larger_num":"10","correct_side":2,"subjID":"linabonilla17","gender":"1","age":"9","school":"4"},{"start_time":1552328259754,"click_time":1552328261005,"finger_time":1552328260406,"fix_duration":1465.8262448383814,"trial":58,"RT":652,"MT":599,"sideResp":2,"stimulus":"img/500/equaldotsize/R/1_Ratio_500_L_9_R_18.png","xmouse":[807,807,807,807,807,807,806,806,806,806,806,806,806,806,806,806,806,806,806,806,806,806,806,806,806,806,806,806,806,806,816,824,839,855,872,900,906,910,911,911,917,923,930,938,947,967,979,988,997,997,997,997,997,997,997,997,997,997,997,997,997,997,1101],"ymouse":[513,513,513,512,510,509,507,507,507,507,507,507,507,507,507,507,507,507,507,507,507,507,507,507,507,507,507,507,507,504,483,463,433,397,370,319,297,278,261,242,195,171,146,122,99,59,41,24,7,7,7,7,7,7,7,7,7,7,7,7,7,7,2],"timestamp_mouse":[12,42,52,72,92,111,131,153,172,193,212,231,252,272,292,313,332,352,372,391,411,432,453,471,491,512,532,551,571,592,612,633,652,672,692,712,733,753,772,792,811,831,852,872,891,912,931,952,971,992,1013,1032,1052,1072,1092,1112,1132,1151,1171,1191,1212,1232,1251],"xSR":741.5,"ySR":449.15000000000003,"xT1":424.9,"yT1":0,"xT2":1058.1,"yT2":0,"toosoon":0,"cond_shown":"equaldotsize","ratio_trial":500,"smaller_num":"9","larger_num":"18","correct_side":2,"subjID":"linabonilla17","gender":"1","age":"9","school":"4"},{"start_time":1552328263274,"click_time":1552328264885,"finger_time":1552328264166,"fix_duration":1166.4151725929669,"trial":59,"RT":892,"MT":719,"sid