[{"start_time":1552327252831,"click_time":1552327254809,"finger_time":1552327254709,"fix_duration":1358.0822155049834,"trial":0,"RT":1878,"MT":100,"sideResp":1,"stimulus":[],"xmouse":[775,775,775,775,775,775,775,775,775,775,775,775,775,775,775,775,775,775,775,775,775,775,775,775,775,775,775,775,775,775,775,775,775,775,775,775,775,775,775,775,775,775,775,775,775,775,775,775,775,775,775,775,775,775,775,775,775,775,775,775,775,775,775,775,775,775,775,775,775,775,775,775,775,775,775,775,775,775,775,775,775,775,775,775,775,775,775,775,775,775,775,775,775,764,737,688,636,546,507,495],"ymouse":[520,520,520,520,520,520,520,520,520,520,520,520,520,520,520,520,520,520,520,520,520,520,520,520,520,520,520,520,520,520,520,520,520,520,520,520,520,520,520,520,520,520,520,520,520,520,520,520,520,520,520,520,520,520,520,520,520,520,520,520,520,520,520,520,520,520,520,520,520,520,520,520,520,520,520,520,520,520,520,520,520,520,520,520,520,520,520,520,520,520,520,520,520,505,470,408,340,204,104,68],"timestamp_mouse":[2,19,45,58,77,97,118,138,158,177,197,218,239,258,278,298,318,337,357,378,398,417,437,457,477,497,517,537,558,578,597,619,638,658,679,697,717,737,758,778,798,817,837,857,878,898,917,939,958,978,998,1017,1038,1058,1078,1097,1117,1137,1158,1179,1197,1217,1237,1257,1277,1298,1318,1337,1357,1377,1397,1418,1437,1457,1478,1498,1518,1537,1557,1578,1598,1619,1638,1658,1677,1697,1718,1738,1758,1778,1797,1818,1838,1858,1878,1898,1918,1938,1958,1977],"xSR":741.5,"ySR":479.7,"xT1":424.9,"yT1":0,"xT2":1058.1,"yT2":0,"toosoon":0,"cond_shown":"Congruent","ratio_trial":300,"L_num":11,"L_den":22,"R_num":2,"R_den":10,"correct_side":1,"subjID":"linabonilla17","gender":"1","age":"9","school":"4","test":{"fix_dur":[250,1500],"timestim":1000,"targets_dim":[100,100],"targets_relative_coord":[0.3,0.7],"size_stim":[880,420],"start_dim":[100,100],"size_start":[300,300],"size_fix":60,"samplingrate":20,"img_types":["Congruent","Incongruent"],"ratios":[100,200,300],"rep_conds":19,"nTrials":120,"trials_to_rest":500,"Trials_order":[82,38,103,99,112,97,104,67,76,64,105,10,32,15,48,9,70,11,79,53,35,66,16,75,47,61,29,72,117,44,116,107,68,80,45,25,60,1,52,27,8,65,69,12,6,86,115,114,40,92,13,71,7,34,78,17,77,56,46,18,58,85,73,37,88,84,109,93,98,31,63,49,50,91,0,108,23,74,106,94,14,95,43,26,28,62,119,41,3,24,33,30,59,36,42,4,90,51,5,55,19,111,101,2,39,20,113,87,89,54,83,21,110,81,57,102,100,118,22,96],"cond_shown":["Congruent","Congruent","Incongruent","Incongruent","Congruent","Incongruent","Congruent","Incongruent","Congruent","Congruent","Incongruent","Congruent","Congruent","Incongruent","Congruent","Incongruent","Congruent","Incongruent","Incongruent","Incongruent","Incongruent","Congruent","Congruent","Incongruent","Incongruent","Incongruent","Incongruent","Congruent","Incongruent","Congruent","Congruent","Incongruent","Congruent","Congruent","Incongruent","Incongruent","Congruent","Incongruent","Congruent","Incongruent","Congruent","Incongruent","Incongruent","Congruent","Congruent","Congruent","Incongruent","Congruent","Congruent","Congruent","Incongruent","Incongruent","Incongruent","Congruent","Congruent","Incongruent","Incongruent","Congruent","Congruent","Congruent","Congruent","Incongruent","Incongruent","Incongruent","Congruent","Congruent","Incongruent","Incongruent","Congruent","Incongruent","Incongruent","Incongruent","Congruent","Incongruent","Congruent","Congruent","Incongruent","Congruent","Congruent","Congruent","Congruent","Incongruent","Incongruent","Congruent","Congruent","Congruent","Incongruent","Incongruent","Incongruent","Congruent","Incongruent","Congruent","Incongruent","Congruent","Congruent","Congruent","Congruent","Incongruent","Incongruent","Incongruent","Incongruent","Incongruent","Incongruent","Congruent","Incongruent","Congruent","Incongruent","Incongruent","Incongruent","Congruent","Incongruent","Incongruent","Congruent","Incongruent","Incongruent","Congruent","Congruent","Congruent","Congruent","Congruent"],"ratio_trial":[300,200,100,200,300,100,200,100,300,300,200,300,200,200,100,200,300,300,100,300,300,100,300,200,300,100,300,100,200,200,200,300,200,200,200,100,100,100,300,200,200,300,200,100,100,200,100,100,300,200,100,300,100,300,100,300,300,200,300,100,300,100,100,100,300,100,100,200,200,100,200,100,200,100,100,100,300,200,300,300,200,300,100,200,300,200,300,300,200,100,200,100,300,100,100,300,100,200,300,100,100,200,300,200,200,200,300,200,300,100,300,200,200,200,200,100,300,300,300,100],"left_num":[11,14,12,7,12,8,5,6,1,11,7,4,6,3,11,4,9,13,3,1,8,1,11,4,13,9,8,1,7,13,3,4,8,8,3,10,11,11,4,7,21,13,9,4,3,1,6,12,7,4,17,4,9,20,9,4,13,15,20,6,24,4,6,3,3,2,6,7,9,6,14,17,9,6,6,8,4,15,7,4,1,1,9,13,18,6,4,13,14,6,6,7,4,11,6,2,12,7,1,3,13,14,13,9,7,6,4,4,3,10,13,7,14,7,7,12,20,11,11,1],"right_num":[2,6,2,14,2,6,14,11,6,4,8,1,3,11,4,14,3,12,7,2,9,3,2,6,12,20,9,3,6,14,11,2,7,3,1,8,6,9,13,14,2,12,8,6,2,21,13,13,20,3,10,2,6,13,8,2,12,4,5,5,8,8,13,4,11,6,3,8,13,7,6,10,13,13,15,2,8,4,20,2,21,2,14,14,9,3,2,12,12,15,3,15,2,6,5,10,13,8,3,8,12,12,12,4,12,7,2,1,4,3,12,14,6,14,8,13,8,1,2,18],"left_den":[22,28,30,10,24,16,10,10,5,22,10,10,15,4,22,6,10,26,9,2,10,2,22,5,26,10,10,2,15,26,10,20,15,15,10,25,22,22,20,10,30,26,15,8,6,2,10,30,14,10,30,20,18,25,15,20,26,25,25,20,30,8,10,6,12,5,12,10,30,10,30,30,30,10,12,16,5,25,14,5,2,2,15,26,20,15,20,26,30,12,20,14,20,22,20,20,30,10,2,5,26,30,26,20,10,12,20,30,6,25,26,10,28,10,10,30,25,22,22,2],"right_den":[10,20,4,28,10,10,20,22,12,20,16,10,15,20,10,30,5,15,30,10,18,5,10,10,15,25,18,5,9,20,22,4,21,9,2,16,15,15,26,28,4,15,10,10,5,30,26,26,25,15,15,4,10,26,16,4,15,10,10,25,16,20,26,10,20,12,5,16,26,14,9,15,26,26,25,5,16,10,25,4,30,10,28,20,15,15,4,15,18,25,6,25,4,15,25,25,26,16,15,16,20,18,15,16,24,10,4,3,20,10,15,28,20,28,16,26,16,5,10,30],"correct_side":[1,1,2,1,1,2,2,1,2,1,1,1,1,1,1,1,1,2,1,1,1,2,1,1,2,1,1,2,2,2,2,2,1,1,2,2,1,2,2,1,1,2,2,2,1,2,1,2,2,1,2,2,2,1,1,2,2,1,1,1,1,1,1,1,2,2,2,1,2,1,2,2,2,1,2,1,1,1,2,1,2,1,1,2,1,1,2,2,2,2,2,2,2,1,1,2,2,1,1,1,2,2,2,1,1,2,2,2,1,1,2,1,1,1,1,2,1,1,1,2],"img_shown":["img2/300/Congruent/L/C_Dist_300_LN_11_LD_22_RN_2_RD_10_0.png","img2/200/Congruent/L/C_Dist_200_LN_14_LD_28_RN_6_RD_20_0.png","img2/100/Incongruent/R/I_Dist_100_LN_12_LD_30_RN_2_RD_4_1.png","img2/200/Incongruent/L/I_Dist_200_LN_7_LD_10_RN_14_RD_28_0.png","img2/300/Congruent/L/C_Dist_300_LN_12_LD_24_RN_2_RD_10_0.png","img2/100/Incongruent/R/I_Dist_100_LN_8_LD_16_RN_6_RD_10_1.png","img2/200/Congruent/R/C_Dist_200_LN_5_LD_10_RN_14_RD_20_1.png","img2/100/Incongruent/L/I_Dist_100_LN_6_LD_10_RN_11_RD_22_0.png","img2/300/Congruent/R/C_Dist_300_LN_1_LD_5_RN_6_RD_12_1.png","img2/300/Congruent/L/C_Dist_300_LN_11_LD_22_RN_4_RD_20_0.png","img2/200/Incongruent/L/I_Dist_200_LN_7_LD_10_RN_8_RD_16_0.png","img2/300/Congruent/L/C_Dist_300_LN_4_LD_10_RN_1_RD_10_0.png","img2/200/Congruent/L/C_Dist_200_LN_6_LD_15_RN_3_RD_15_0.png","img2/200/Incongruent/L/I_Dist_200_LN_3_LD_4_RN_11_RD_20_0.png","img2/100/Congruent/L/C_Dist_100_LN_11_LD_22_RN_4_RD_10_0.png","img2/200/Incongruent/L/I_Dist_200_LN_4_LD_6_RN_14_RD_30_0.png","img2/300/Congruent/L/C_Dist_300_LN_9_LD_10_RN_3_RD_5_0.png","img2/300/Incongruent/R/I_Dist_300_LN_13_LD_26_RN_12_RD_15_1.png","img2/100/Incongruent/L/I_Dist_100_LN_3_LD_9_RN_7_RD_30_0.png","img2/300/Incongruent/L/I_Dist_300_LN_1_LD_2_RN_2_RD_10_0.png","img2/300/Incongruent/L/I_Dist_300_LN_8_LD_10_RN_9_RD_18_0.png","img2/100/Congruent/R/C_Dist_100_LN_1_LD_2_RN_3_RD_5_1.png","img2/300/Congruent/L/C_Dist_300_LN_11_LD_22_RN_2_RD_10_0.png","img2/200/Incongruent/L/I_Dist_200_LN_4_LD_5_RN_6_RD_10_0.png","img2/300/Incongruent/R/I_Dist_300_LN_13_LD_26_RN_12_RD_15_1.png","img2/100/Incongruent/L/I_Dist_100_LN_9_LD_10_RN_20_RD_25_0.png","img2/300/Incongruent/L/I_Dist_300_LN_8_LD_10_RN_9_RD_18_0.png","img2/100/Congruent/R/C_Dist_100_LN_1_LD_2_RN_3_RD_5_1.png","img2/200/Incongruent/R/I_Dist_200_LN_7_LD_15_RN_6_RD_9_1.png","img2/200/Congruent/R/C_Dist_200_LN_13_LD_26_RN_14_RD_20_1.png","img2/200/Congruent/R/C_Dist_200_LN_3_LD_10_RN_11_RD_22_1.png","img2/300/Incongruent/R/I_Dist_300_LN_4_LD_20_RN_2_RD_4_1.png","img2/200/Congruent/L/C_Dist_200_LN_8_LD_15_RN_7_RD_21_0.png","img2/200/Congruent/L/C_Dist_200_LN_8_LD_15_RN_3_RD_9_0.png","img2/200/Incongruent/R/I_Dist_200_LN_3_LD_10_RN_1_RD_2_1.png","img2/100/Incongruent/R/I_Dist_100_LN_10_LD_25_RN_8_RD_16_1.png","img2/100/Congruent/L/C_Dist_100_LN_11_LD_22_RN_6_RD_15_0.png","img2/100/Incongruent/R/I_Dist_100_LN_11_LD_22_RN_9_RD_15_1.png","img2/300/Congruent/R/C_Dist_300_LN_4_LD_20_RN_13_RD_26_1.png","img2/200/Incongruent/L/I_Dist_200_LN_7_LD_10_RN_14_RD_28_0.png","img2/200/Congruent/L/C_Dist_200_LN_21_LD_30_RN_2_RD_4_0.png","img2/300/Incongruent/R/I_Dist_300_LN_13_LD_26_RN_12_RD_15_1.png","img2/200/Incongruent/R/I_Dist_200_LN_9_LD_15_RN_8_RD_10_1.png","img2/100/Congruent/R/C_Dist_100_LN_4_LD_8_RN_6_RD_10_1.png","img2/100/Congruent/L/C_Dist_100_LN_3_LD_6_RN_2_RD_5_0.png","img2/200/Congruent/R/C_Dist_200_LN_1_LD_2_RN_21_RD_30_1.png","img2/100/Incongruent/L/I_Dist_100_LN_6_LD_10_RN_13_RD_26_0.png","img2/100/Congruent/R/C_Dist_100_LN_12_LD_30_RN_13_RD_26_1.png","img2/300/Congruent/R/C_Dist_300_LN_7_LD_14_RN_20_RD_25_1.png","img2/200/Congruent/L/C_Dist_200_LN_4_LD_10_RN_3_RD_15_0.png","img2/100/Incongruent/R/I_Dist_100_LN_17_LD_30_RN_10_RD_15_1.png","img2/300/Incongruent/R/I_Dist_300_LN_4_LD_20_RN_2_RD_4_1.png","img2/100/Incongruent/R/I_Dist_100_LN_9_LD_18_RN_6_RD_10_1.png","img2/300/Congruent/L/C_Dist_300_LN_20_LD_25_RN_13_RD_26_0.png","img2/100/Congruent/L/C_Dist_100_LN_9_LD_15_RN_8_RD_16_0.png","img2/300/Incongruent/R/I_Dist_300_LN_4_LD_20_RN_2_RD_4_1.png","img2/300/Incongruent/R/I_Dist_300_LN_13_LD_26_RN_12_RD_15_1.png","img2/200/Congruent/L/C_Dist_200_LN_15_LD_25_RN_4_RD_10_0.png","img2/300/Congruent/L/C_Dist_300_LN_20_LD_25_RN_5_RD_10_0.png","img2/100/Congruent/L/C_Dist_100_LN_6_LD_20_RN_5_RD_25_0.png","img2/300/Congruent/L/C_Dist_300_LN_24_LD_30_RN_8_RD_16_0.png","img2/100/Incongruent/L/I_Dist_100_LN_4_LD_8_RN_8_RD_20_0.png","img2/100/Incongruent/L/I_Dist_100_LN_6_LD_10_RN_13_RD_26_0.png","img2/100/Incongruent/L/I_Dist_100_LN_3_LD_6_RN_4_RD_10_0.png","img2/300/Congruent/R/C_Dist_300_LN_3_LD_12_RN_11_RD_20_1.png","img2/100/Congruent/R/C_Dist_100_LN_2_LD_5_RN_6_RD_12_1.png","img2/100/Incongruent/R/I_Dist_100_LN_6_LD_12_RN_3_RD_5_1.png","img2/200/Incongruent/L/I_Dist_200_LN_7_LD_10_RN_8_RD_16_0.png","img2/200/Congruent/R/C_Dist_200_LN_9_LD_30_RN_13_RD_26_1.png","img2/100/Incongruent/L/I_Dist_100_LN_6_LD_10_RN_7_RD_14_0.png","img2/200/Incongruent/R/I_Dist_200_LN_14_LD_30_RN_6_RD_9_1.png","img2/100/Incongruent/R/I_Dist_100_LN_17_LD_30_RN_10_RD_15_1.png","img2/200/Congruent/R/C_Dist_200_LN_9_LD_30_RN_13_RD_26_1.png","img2/100/Incongruent/L/I_Dist_100_LN_6_LD_10_RN_13_RD_26_0.png","img2/100/Congruent/R/C_Dist_100_LN_6_LD_12_RN_15_RD_25_1.png","img2/100/Congruent/L/C_Dist_100_LN_8_LD_16_RN_2_RD_5_0.png","img2/300/Incongruent/L/I_Dist_300_LN_4_LD_5_RN_8_RD_16_0.png","img2/200/Congruent/L/C_Dist_200_LN_15_LD_25_RN_4_RD_10_0.png","img2/300/Congruent/R/C_Dist_300_LN_7_LD_14_RN_20_RD_25_1.png","img2/300/Congruent/L/C_Dist_300_LN_4_LD_5_RN_2_RD_4_0.png","img2/200/Congruent/R/C_Dist_200_LN_1_LD_2_RN_21_RD_30_1.png","img2/300/Incongruent/L/I_Dist_300_LN_1_LD_2_RN_2_RD_10_0.png","img2/100/Incongruent/L/I_Dist_100_LN_9_LD_15_RN_14_RD_28_0.png","img2/200/Congruent/R/C_Dist_200_LN_13_LD_26_RN_14_RD_20_1.png","img2/300/Congruent/L/C_Dist_300_LN_18_LD_20_RN_9_RD_15_0.png","img2/200/Congruent/L/C_Dist_200_LN_6_LD_15_RN_3_RD_15_0.png","img2/300/Incongruent/R/I_Dist_300_LN_4_LD_20_RN_2_RD_4_1.png","img2/300/Incongruent/R/I_Dist_300_LN_13_LD_26_RN_12_RD_15_1.png","img2/200/Incongruent/R/I_Dist_200_LN_14_LD_30_RN_12_RD_18_1.png","img2/100/Congruent/R/C_Dist_100_LN_6_LD_12_RN_15_RD_25_1.png","img2/200/Incongruent/R/I_Dist_200_LN_6_LD_20_RN_3_RD_6_1.png","img2/100/Congruent/R/C_Dist_100_LN_7_LD_14_RN_15_RD_25_1.png","img2/300/Incongruent/R/I_Dist_300_LN_4_LD_20_RN_2_RD_4_1.png","img2/100/Congruent/L/C_Dist_100_LN_11_LD_22_RN_6_RD_15_0.png","img2/100/Congruent/L/C_Dist_100_LN_6_LD_20_RN_5_RD_25_0.png","img2/300/Congruent/R/C_Dist_300_LN_2_LD_20_RN_10_RD_25_1.png","img2/100/Congruent/R/C_Dist_100_LN_12_LD_30_RN_13_RD_26_1.png","img2/200/Incongruent/L/I_Dist_200_LN_7_LD_10_RN_8_RD_16_0.png","img2/300/Incongruent/L/I_Dist_300_LN_1_LD_2_RN_3_RD_15_0.png","img2/100/Incongruent/L/I_Dist_100_LN_3_LD_5_RN_8_RD_16_0.png","img2/100/Incongruent/R/I_Dist_100_LN_13_LD_26_RN_12_RD_20_1.png","img2/200/Incongruent/R/I_Dist_200_LN_14_LD_30_RN_12_RD_18_1.png","img2/300/Incongruent/R/I_Dist_300_LN_13_LD_26_RN_12_RD_15_1.png","img2/200/Congruent/L/C_Dist_200_LN_9_LD_20_RN_4_RD_16_0.png","img2/200/Incongruent/L/I_Dist_200_LN_7_LD_10_RN_12_RD_24_0.png","img2/200/Congruent/R/C_Dist_200_LN_6_LD_12_RN_7_RD_10_1.png","img2/300/Incongruent/R/I_Dist_300_LN_4_LD_20_RN_2_RD_4_1.png","img2/200/Incongruent/R/I_Dist_200_LN_4_LD_30_RN_1_RD_3_1.png","img2/300/Incongruent/L/I_Dist_300_LN_3_LD_6_RN_4_RD_20_0.png","img2/100/Congruent/L/C_Dist_100_LN_10_LD_25_RN_3_RD_10_0.png","img2/300/Incongruent/R/I_Dist_300_LN_13_LD_26_RN_12_RD_15_1.png","img2/200/Incongruent/L/I_Dist_200_LN_7_LD_10_RN_14_RD_28_0.png","img2/200/Congruent/L/C_Dist_200_LN_14_LD_28_RN_6_RD_20_0.png","img2/200/Incongruent/L/I_Dist_200_LN_7_LD_10_RN_14_RD_28_0.png","img2/200/Incongruent/L/I_Dist_200_LN_7_LD_10_RN_8_RD_16_0.png","img2/100/Congruent/R/C_Dist_100_LN_12_LD_30_RN_13_RD_26_1.png","img2/300/Congruent/L/C_Dist_300_LN_20_LD_25_RN_8_RD_16_0.png","img2/300/Congruent/L/C_Dist_300_LN_11_LD_22_RN_1_RD_5_0.png","img2/300/Congruent/L/C_Dist_300_LN_11_LD_22_RN_2_RD_10_0.png","img2/100/Congruent/R/C_Dist_100_LN_1_LD_2_RN_18_RD_30_1.png"],"dist100_C":[["C_Dist_100_LN_10_LD_25_RN_3_RD_10_0.png","C_Dist_100_LN_11_LD_22_RN_4_RD_10_0.png","C_Dist_100_LN_11_LD_22_RN_6_RD_15_0.png","C_Dist_100_LN_15_LD_25_RN_13_RD_26_0.png","C_Dist_100_LN_3_LD_6_RN_2_RD_5_0.png","C_Dist_100_LN_6_LD_20_RN_5_RD_25_0.png","C_Dist_100_LN_8_LD_16_RN_2_RD_5_0.png","C_Dist_100_LN_9_LD_15_RN_8_RD_16_0.png"],["C_Dist_100_LN_1_LD_2_RN_18_RD_30_1.png","C_Dist_100_LN_1_LD_2_RN_3_RD_5_1.png","C_Dist_100_LN_12_LD_30_RN_13_RD_26_1.png","C_Dist_100_LN_2_LD_5_RN_11_RD_22_1.png","C_Dist_100_LN_2_LD_5_RN_6_RD_12_1.png","C_Dist_100_LN_3_LD_20_RN_4_RD_16_1.png","C_Dist_100_LN_4_LD_10_RN_15_RD_30_1.png","C_Dist_100_LN_4_LD_8_RN_6_RD_10_1.png","C_Dist_100_LN_6_LD_12_RN_15_RD_25_1.png","C_Dist_100_LN_7_LD_14_RN_15_RD_25_1.png","C_Dist_100_LN_7_LD_14_RN_9_RD_15_1.png"]],"dist100_I":[["I_Dist_100_LN_1_LD_2_RN_8_RD_20_0.png","I_Dist_100_LN_2_LD_4_RN_6_RD_15_0.png","I_Dist_100_LN_2_LD_4_RN_8_RD_20_0.png","I_Dist_100_LN_3_LD_5_RN_11_RD_22_0.png","I_Dist_100_LN_3_LD_5_RN_8_RD_16_0.png","I_Dist_100_LN_3_LD_6_RN_4_RD_10_0.png","I_Dist_100_LN_3_LD_9_RN_7_RD_30_0.png","I_Dist_100_LN_4_LD_8_RN_8_RD_20_0.png","I_Dist_100_LN_6_LD_10_RN_11_RD_22_0.png","I_Dist_100_LN_6_LD_10_RN_13_RD_26_0.png","I_Dist_100_LN_6_LD_10_RN_7_RD_14_0.png","I_Dist_100_LN_9_LD_10_RN_20_RD_25_0.png","I_Dist_100_LN_9_LD_15_RN_13_RD_26_0.png","I_Dist_100_LN_9_LD_15_RN_14_RD_28_0.png"],["I_Dist_100_LN_10_LD_25_RN_8_RD_16_1.png","I_Dist_100_LN_10_LD_25_RN_9_RD_18_1.png","I_Dist_100_LN_11_LD_22_RN_9_RD_15_1.png","I_Dist_100_LN_12_LD_24_RN_9_RD_15_1.png","I_Dist_100_LN_12_LD_30_RN_2_RD_4_1.png","I_Dist_100_LN_13_LD_26_RN_12_RD_20_1.png","I_Dist_100_LN_13_LD_26_RN_6_RD_10_1.png","I_Dist_100_LN_17_LD_30_RN_10_RD_15_1.png","I_Dist_100_LN_6_LD_12_RN_3_RD_5_1.png","I_Dist_100_LN_8_LD_16_RN_6_RD_10_1.png","I_Dist_100_LN_8_LD_20_RN_1_RD_2_1.png","I_Dist_100_LN_9_LD_18_RN_6_RD_10_1.png"]],"dist100_S":[["E_Dist_100_LN_2_LD_12_RN_2_RD_30_0.png","E_Dist_100_LN_6_LD_10_RN_6_RD_12_0.png"],["E_Dist_100_LN_6_LD_12_RN_6_RD_10_1.png"]],"dist200_C":[["C_Dist_200_LN_11_LD_22_RN_3_RD_10_0.png","C_Dist_200_LN_12_LD_15_RN_6_RD_10_0.png","C_Dist_200_LN_12_LD_20_RN_6_RD_15_0.png","C_Dist_200_LN_14_LD_28_RN_6_RD_20_0.png","C_Dist_200_LN_15_LD_25_RN_4_RD_10_0.png","C_Dist_200_LN_16_LD_20_RN_12_RD_20_0.png","C_Dist_200_LN_16_LD_30_RN_9_RD_27_0.png","C_Dist_200_LN_20_LD_25_RN_9_RD_15_0.png","C_Dist_200_LN_21_LD_30_RN_2_RD_4_0.png","C_Dist_200_LN_4_LD_10_RN_3_RD_15_0.png","C_Dist_200_LN_4_LD_8_RN_3_RD_10_0.png","C_Dist_200_LN_6_LD_15_RN_3_RD_15_0.png","C_Dist_200_LN_7_LD_21_RN_2_RD_15_0.png","C_Dist_200_LN_8_LD_15_RN_2_RD_6_0.png","C_Dist_200_LN_8_LD_15_RN_3_RD_9_0.png","C_Dist_200_LN_8_LD_15_RN_7_RD_21_0.png","C_Dist_200_LN_9_LD_20_RN_4_RD_16_0.png"],["C_Dist_200_LN_1_LD_2_RN_21_RD_30_1.png","C_Dist_200_LN_13_LD_26_RN_14_RD_20_1.png","C_Dist_200_LN_3_LD_10_RN_11_RD_22_1.png","C_Dist_200_LN_3_LD_10_RN_14_RD_28_1.png","C_Dist_200_LN_3_LD_10_RN_7_RD_14_1.png","C_Dist_200_LN_3_LD_12_RN_9_RD_20_1.png","C_Dist_200_LN_3_LD_6_RN_14_RD_20_1.png","C_Dist_200_LN_5_LD_10_RN_14_RD_20_1.png","C_Dist_200_LN_6_LD_12_RN_7_RD_10_1.png","C_Dist_200_LN_6_LD_20_RN_11_RD_22_1.png","C_Dist_200_LN_7_LD_15_RN_18_RD_27_1.png","C_Dist_200_LN_9_LD_30_RN_13_RD_26_1.png"]],"dist200_I":[["I_Dist_200_LN_1_LD_2_RN_3_RD_10_0.png","I_Dist_200_LN_1_LD_3_RN_2_RD_15_0.png","I_Dist_200_LN_3_LD_4_RN_11_RD_20_0.png","I_Dist_200_LN_4_LD_5_RN_6_RD_10_0.png","I_Dist_200_LN_4_LD_6_RN_14_RD_30_0.png","I_Dist_200_LN_7_LD_10_RN_12_RD_24_0.png","I_Dist_200_LN_7_LD_10_RN_14_RD_28_0.png","I_Dist_200_LN_7_LD_10_RN_8_RD_16_0.png"],["I_Dist_200_LN_11_LD_20_RN_3_RD_4_1.png","I_Dist_200_LN_14_LD_30_RN_12_RD_18_1.png","I_Dist_200_LN_14_LD_30_RN_6_RD_9_1.png","I_Dist_200_LN_3_LD_10_RN_1_RD_2_1.png","I_Dist_200_LN_4_LD_30_RN_1_RD_3_1.png","I_Dist_200_LN_6_LD_20_RN_3_RD_6_1.png","I_Dist_200_LN_7_LD_15_RN_4_RD_6_1.png","I_Dist_200_LN_7_LD_15_RN_6_RD_9_1.png","I_Dist_200_LN_9_LD_15_RN_8_RD_10_1.png"]],"dist200_S":[["E_Dist_200_LN_3_LD_6_RN_3_RD_10_0.png"],["E_Dist_200_LN_3_LD_10_RN_3_RD_6_1.png"]],"dist300_C":[["C_Dist_300_LN_11_LD_22_RN_1_RD_5_0.png","C_Dist_300_LN_11_LD_22_RN_2_RD_10_0.png","C_Dist_300_LN_11_LD_22_RN_4_RD_20_0.png","C_Dist_300_LN_12_LD_24_RN_2_RD_10_0.png","C_Dist_300_LN_18_LD_20_RN_9_RD_15_0.png","C_Dist_300_LN_20_LD_25_RN_13_RD_26_0.png","C_Dist_300_LN_20_LD_25_RN_14_RD_28_0.png","C_Dist_300_LN_20_LD_25_RN_5_RD_10_0.png","C_Dist_300_LN_20_LD_25_RN_8_RD_16_0.png","C_Dist_300_LN_20_LD_25_RN_9_RD_18_0.png","C_Dist_300_LN_24_LD_30_RN_2_RD_4_0.png","C_Dist_300_LN_24_LD_30_RN_8_RD_16_0.png","C_Dist_300_LN_3_LD_6_RN_2_RD_10_0.png","C_Dist_300_LN_4_LD_10_RN_1_RD_10_0.png","C_Dist_300_LN_4_LD_5_RN_2_RD_4_0.png","C_Dist_300_LN_8_LD_16_RN_1_RD_5_0.png","C_Dist_300_LN_9_LD_10_RN_3_RD_5_0.png"],["C_Dist_300_LN_1_LD_20_RN_7_RD_20_1.png","C_Dist_300_LN_1_LD_3_RN_19_RD_30_1.png","C_Dist_300_LN_1_LD_30_RN_8_RD_24_1.png","C_Dist_300_LN_1_LD_5_RN_11_RD_22_1.png","C_Dist_300_LN_1_LD_5_RN_3_RD_6_1.png","C_Dist_300_LN_1_LD_5_RN_6_RD_12_1.png","C_Dist_300_LN_2_LD_10_RN_12_RD_24_1.png","C_Dist_300_LN_2_LD_20_RN_10_RD_25_1.png","C_Dist_300_LN_3_LD_12_RN_11_RD_20_1.png","C_Dist_300_LN_3_LD_6_RN_4_RD_5_1.png","C_Dist_300_LN_4_LD_20_RN_13_RD_26_1.png","C_Dist_300_LN_5_LD_25_RN_6_RD_12_1.png","C_Dist_300_LN_5_LD_25_RN_7_RD_14_1.png","C_Dist_300_LN_7_LD_14_RN_20_RD_25_1.png","C_Dist_300_LN_8_LD_15_RN_10_RD_12_1.png"]],"dist300_I":[["I_Dist_300_LN_1_LD_2_RN_2_RD_10_0.png","I_Dist_300_LN_1_LD_2_RN_3_RD_15_0.png","I_Dist_300_LN_2_LD_4_RN_6_RD_30_0.png","I_Dist_300_LN_3_LD_6_RN_4_RD_20_0.png","I_Dist_300_LN_4_LD_5_RN_6_RD_12_0.png","I_Dist_300_LN_4_LD_5_RN_8_RD_16_0.png","I_Dist_300_LN_7_LD_10_RN_8_RD_20_0.png","I_Dist_300_LN_8_LD_10_RN_14_RD_28_0.png","I_Dist_300_LN_8_LD_10_RN_9_RD_18_0.png"],["I_Dist_300_LN_13_LD_26_RN_12_RD_15_1.png","I_Dist_300_LN_4_LD_20_RN_2_RD_4_1.png"]],"dist300_S":[["E_Dist_300_LN_9_LD_12_RN_9_RD_20_0.png"],["E_Dist_300_LN_18_LD_30_RN_18_RD_20_1.png","E_Dist_300_LN_3_LD_10_RN_3_RD_5_1.png","E_Dist_300_LN_9_LD_20_RN_9_RD_12_1.png"]],"dist500_C":[["C_Dist_500_LN_10_LD_13_RN_7_RD_26_0.png","C_Dist_500_LN_10_LD_15_RN_4_RD_24_0.png","C_Dist_500_LN_12_LD_16_RN_3_RD_12_0.png","C_Dist_500_LN_12_LD_18_RN_4_RD_24_0.png","C_Dist_500_LN_15_LD_18_RN_5_RD_15_0.png","C_Dist_500_LN_15_LD_20_RN_1_RD_4_0.png","C_Dist_500_LN_18_LD_27_RN_1_RD_6_0.png","C_Dist_500_LN_20_LD_24_RN_1_RD_3_0.png","C_Dist_500_LN_20_LD_24_RN_3_RD_9_0.png","C_Dist_500_LN_20_LD_24_RN_7_RD_21_0.png","C_Dist_500_LN_20_LD_28_RN_3_RD_14_0.png","C_Dist_500_LN_21_LD_28_RN_6_RD_24_0.png","C_Dist_500_LN_22_LD_28_RN_2_RD_7_0.png","C_Dist_500_LN_25_LD_30_RN_9_RD_27_0.png","C_Dist_500_LN_4_LD_6_RN_1_RD_6_0.png","C_Dist_500_LN_5_LD_6_RN_2_RD_6_0.png","C_Dist_500_LN_6_LD_9_RN_1_RD_6_0.png","C_Dist_500_LN_7_LD_10_RN_1_RD_5_0.png","C_Dist_500_LN_8_LD_12_RN_1_RD_6_0.png","C_Dist_500_LN_8_LD_12_RN_4_RD_24_0.png"],["C_Dist_500_LN_1_LD_4_RN_12_RD_16_1.png","C_Dist_500_LN_1_LD_4_RN_9_RD_12_1.png","C_Dist_500_LN_1_LD_9_RN_11_RD_18_1.png","C_Dist_500_LN_10_LD_24_RN_22_RD_24_1.png","C_Dist_500_LN_2_LD_12_RN_10_RD_15_1.png","C_Dist_500_LN_2_LD_12_RN_12_RD_18_1.png","C_Dist_500_LN_2_LD_12_RN_4_RD_6_1.png","C_Dist_500_LN_2_LD_24_RN_7_RD_12_1.png","C_Dist_500_LN_2_LD_5_RN_18_RD_20_1.png","C_Dist_500_LN_2_LD_5_RN_9_RD_10_1.png","C_Dist_500_LN_2_LD_8_RN_12_RD_16_1.png","C_Dist_500_LN_2_LD_8_RN_21_RD_28_1.png","C_Dist_500_LN_3_LD_10_RN_4_RD_5_1.png","C_Dist_500_LN_3_LD_12_RN_15_RD_20_1.png","C_Dist_500_LN_3_LD_30_RN_6_RD_10_1.png","C_Dist_500_LN_3_LD_8_RN_14_RD_16_1.png","C_Dist_500_LN_4_LD_16_RN_15_RD_20_1.png","C_Dist_500_LN_4_LD_24_RN_12_RD_18_1.png","C_Dist_500_LN_5_LD_14_RN_6_RD_7_1.png","C_Dist_500_LN_7_LD_21_RN_20_RD_24_1.png","C_Dist_500_LN_7_LD_28_RN_12_RD_16_1.png","C_Dist_500_LN_7_LD_28_RN_9_RD_12_1.png","C_Dist_500_LN_9_LD_27_RN_20_RD_24_1.png"]],"dist500_I":[["I_Dist_500_LN_2_LD_3_RN_4_RD_24_0.png","I_Dist_500_LN_5_LD_6_RN_6_RD_18_0.png","I_Dist_500_LN_7_LD_8_RN_9_RD_24_0.png"],["I_Dist_500_LN_7_LD_21_RN_5_RD_6_1.png"]],"dist500_S":[["E_Dist_500_LN_6_LD_8_RN_6_RD_24_0.png"],["E_Dist_500_LN_2_LD_12_RN_2_RD_3_1.png","E_Dist_500_LN_6_LD_24_RN_6_RD_8_1.png"]]}},{"start_time":1552327258763,"click_time":1552327261229,"finger_time":1552327260229,"fix_duration":972.1581845733012,"trial":1,"RT":1466,"MT":1000,"sideResp":1,"stimulus":[],"xmouse":[806,806,806,806,806,806,806,806,806,806,806,806,806,806,806,806,806,806,806,806,806,806,806,806,806,806,806,806,806,806,806,806,806,806,806,806,806,806,806,806,806,806,806,806,806,806,806,806,806,806,806,806,806,806,806,806,806,806,806,806,806,806,806,806,806,806,806,806,806,806,806,805,784,745,698,614,586,572,566,564,563,565,566,567,567,567,567,560,550,526,526,526,526,526,526,526,526,430,421,410,394,391,391,390,390,390,390,390,390,390,390,390,390,390,390,393,396,399,402,405,412,417,421,425],"ymouse":[512,512,512,512,512,512,512,512,512,512,512,512,512,512,512,512,512,512,512,512,512,512,512,512,512,512,512,512,512,512,512,512,512,512,512,512,512,512,512,512,512,512,512,512,512,512,512,512,512,512,512,512,512,512,512,512,512,512,512,512,512,512,512,512,512,512,512,512,512,512,512,508,482,436,380,248,196,161,139,124,103,89,77,67,60,52,48,37,23,2,2,2,2,2,2,2,2,0,6,14,34,43,47,51,52,53,53,53,53,53,53,53,53,53,53,53,53,52,51,49,45,43,42,40],"timestamp_mouse":[11,25,45,65,85,105,125,145,166,186,205,225,245,265,286,306,326,346,366,386,405,426,445,465,486,506,526,546,566,586,606,625,646,665,685,706,726,747,766,785,806,825,845,865,885,906,925,946,965,985,1005,1026,1047,1065,1085,1106,1126,1146,1165,1185,1206,1226,1246,1266,1285,1306,1326,1345,1365,1385,1406,1426,1445,1466,1486,1506,1526,1546,1566,1586,1606,1625,1645,1666,1686,1706,1726,1746,1766,1785,1806,1826,1845,1865,1885,1907,1926,1946,1966,1986,2005,2026,2045,2065,2086,2106,2125,2145,2166,2186,2205,2225,2245,2265,2285,2306,2326,2347,2366,2385,2406,2425,2445,2465],"xSR":741.5,"ySR":449.15000000000003,"xT1":424.9,"yT1":0,"xT2":1058.1,"yT2":0,"toosoon":0,"cond_shown":"Congruent","ratio_trial":200,"L_num":14,"L_den":28,"R_num":6,"R_den":20,"correct_side":1,"subjID":"linabonilla17","gender":"1","school":"4","age":"9"},{"start_time":1552327264270,"click_time":1552327265689,"finger_time":1552327265608,"fix_duration":1499.4366508100359,"trial":2,"RT":1338,"MT":81,"sideResp":1,"stimulus":[],"xmouse":[781,781,781,781,781,781,781,781,781,781,781,781,781,781,781,781,781,781,781,781,781,781,781,781,781,781,781,781,781,781,781,781,781,781,781,781,781,781,781,781,781,781,781,781,781,781,781,781,781,781,781,781,781,781,781,781,781,781,781,781,781,781,781,781,781,781,767,740,697,642,529,494],"ymouse":[511,511,511,511,511,511,511,511,511,511,511,511,511,511,511,511,511,511,511,511,511,511,511,511,511,511,511,511,511,511,511,511,511,511,511,511,511,511,511,511,511,511,511,511,511,511,511,511,511,511,511,511,511,511,511,511,511,511,511,511,511,511,511,511,511,511,486,438,366,278,100,36],"timestamp_mouse":[1,19,39,58,79,99,119,138,159,179,199,219,239,259,280,299,319,339,359,379,398,419,439,460,478,500,520,538,559,579,599,619,639,658,678,698,719,739,758,780,800,819,838,858,878,898,919,940,958,979,999,1019,1040,1059,1079,1099,1119,1139,1160,1179,1199,1218,1238,1258,1278,1298,1318,1338,1358,1378,1399,1419],"xSR":741.5,"ySR":449.15000000000003,"xT1":424.9,"yT1":0,"xT2":1058.1,"yT2":0,"toosoon":0,"cond_shown":"Incongruent","ratio_trial":100,"L_num":12,"L_den":30,"R_num":2,"R_den":4,"correct_side":2,"subjID":"linabonilla17","gender":"1","school":"4","age":"9"},{"start_time":1552327272657,"click_time":1552327274550,"finger_time":1552327274048,"fix_duration":787.9526131358019,"trial":3,"RT":1391,"MT":502,"sideResp":2,"stimulus":[],"xmouse":[784,784,784,784,784,784,784,784,784,784,784,784,784,784,784,784,784,784,784,784,784,784,784,784,784,784,784,784,784,784,784,784,784,784,784,784,784,784,784,784,784,784,784,784,784,784,784,784,784,784,784,784,784,784,784,784,784,784,784,784,784,784,784,784,784,784,790,804,825,841,868,877,884,889,895,902,905,907,910,915,925,931,935,938,941,951,959,968,980,991,1021,1042,1061,1079,1095],"ymouse":[517,517,517,517,517,517,517,517,517,517,517,517,517,517,517,517,517,517,517,517,517,517,517,517,517,517,517,517,517,517,517,517,517,517,517,517,517,517,517,517,517,517,517,517,517,517,517,517,517,517,517,517,517,517,517,517,517,517,517,517,517,517,517,517,517,517,506,485,455,426,378,358,343,331,320,309,306,301,295,284,266,260,255,252,248,239,232,227,220,213,182,158,135,106,84],"timestamp_mouse":[11,41,52,71,92,111,131,151,171,192,213,232,251,272,291,312,332,352,371,393,412,432,452,472,492,511,532,551,572,591,611,631,651,672,691,711,732,751,771,791,812,832,852,871,892,912,932,951,973,991,1012,1032,1053,1071,1091,1111,1132,1153,1172,1191,1213,1232,1251,1271,1292,1312,1332,1351,1372,1391,1412,1433,1451,1471,1491,1512,1531,1551,1571,1592,1612,1632,1652,1672,1691,1712,1732,1752,1772,1792,1811,1832,1852,1872,1893],"xSR":741.5,"ySR":449.15000000000003,"xT1":424.9,"yT1":0,"xT2":1058.1,"yT2":0,"toosoon":0,"cond_shown":"Incongruent","ratio_trial":200,"L_num":7,"L_den":10,"R_num":14,"R_den":28,"correct_side":1,"subjID":"linabonilla17","gender":"1","school":"4","age":"9"},{"start_time":1552327279660,"click_time":1552327290370,"finger_time":1552327281770,"fix_duration":250,"trial":4,"RT":2110,"MT":8600,"sideResp":1,"stimulus":[],"xmouse":[789,789,788,787,786,786,786,786,786,786,786,786,786,785,785,783,783,782,782,780,778,778,777,777,777,777,777,777,777,777,777,777,777,777,777,777,777,777,777,777,777,777,777,777,777,777,777,777,777,777,777,777,777,777,777,777,777,777,777,777,777,777,777,777,777,777,777,777,777,777,777,777,777,777,777,777,777,777,777,777,777,777,777,777,777,777,777,777,776,775,772,771,771,770,770,768,767,767,767,767,766,765,765,761,756,740,731,731,733,733,733,733,733,733,733,733,733,733,733,733,1280,1275,1269,1263,1261,1258,1258,1258,1258,1258,1255,1253,1250,1245,1238,1219,1213,1207,1201,1197,1185,1178,1172,1167,1163,1151,1136,1125,1108,1088,1037,1011,974,928,862,800,675,657,648,646,646,646,645,644,644,644,645,648,653,661,682,695,711,736,768,832,874,891,902,906,906,906,906,906,906,906,906,906,906,906,906,905,901,898,892,884,882,881,879,876,861,850,842,838,834,832,832,832,831,829,825,823,821,820,819,817,816,816,815,815,815,814,814,814,814,814,813,811,811,811,811,810,810,810,810,810,810,810,810,810,810,810,810,810,810,810,810,810,810,810,810,810,810,810,810,810,810,810,810,810,810,810,810,810,810,809,809,809,808,808,807,806,806,806,806,806,806,806,806,806,806,806,806,806,806,806,806,806,806,806,806,806,806,805,804,803,801,798,798,798,797,795,794,794,794,794,793,792,792,792,792,792,792,792,792,792,792,792,792,792,792,792,792,792,792,792,792,792,792,792,792,792,792,792,792,792,792,792,792,792,792,792,792,792,792,792,792,792,797,798,800,800,800,798,797,796,793,793,793,793,793,793,792,792,792,792,792,792,792,792,792,791,791,792,792,794,794,796,796,798,798,798,798,798,798,798,798,798,798,798,798,796,794,791,788,783,782,781,780,779,778,778,778,778,778,778,778,778,778,778,778,778,778,778,778,779,781,783,784,785,786,787,787,788,788,788,788,788,788,789,789,789,789,789,789,789,789,789,789,789,789,789,789,789,789,789,790,790,790,790,790,790,790,790,790,790,790,790,790,790,790,790,790,790,790,790,790,790,790,789,786,784,782,781,780,779,779,779,779,780,796,809,822,834,839,844,844,845,846,847,847,847,847,847,845,844,844,844,844,844,844,843,843,839,833,795,770,747,723,691,626,607,593,589,589,589,577,560,539,524,509,508,507,507,509,514,514,514,514,515,516,516,516,516,516,517],"ymouse":[475,475,476,477,477,477,477,477,477,477,477,478,478,479,480,482,482,484,484,486,490,490,491,491,491,491,491,491,491,491,491,491,491,491,491,491,491,491,491,491,491,491,491,491,491,491,491,491,491,491,491,491,491,491,491,491,491,491,491,491,491,491,491,491,491,491,491,491,491,491,491,491,491,491,491,491,491,491,491,491,491,491,491,491,491,491,491,492,492,494,498,501,502,503,504,508,510,512,514,516,517,519,521,526,530,555,592,627,664,664,664,664,664,664,664,664,664,664,664,664,688,666,648,634,623,609,605,601,598,595,589,586,582,578,572,561,558,556,555,554,553,553,553,553,553,551,548,544,536,525,492,471,445,411,368,325,242,234,233,234,236,242,245,248,252,263,269,273,281,291,314,329,348,374,405,459,495,508,516,517,517,517,517,517,517,517,517,517,517,517,517,517,515,513,509,506,505,505,504,503,495,489,484,481,480,479,479,479,479,479,480,481,483,484,486,488,489,490,491,493,493,493,493,493,493,493,493,493,493,493,493,493,493,493,493,493,493,493,493,493,493,493,493,493,493,493,493,493,493,493,493,493,493,493,493,493,493,493,493,493,493,493,493,493,493,494,494,495,496,496,497,499,499,499,499,499,499,499,499,499,499,499,499,499,499,499,499,499,499,499,499,499,499,499,499,499,499,499,499,499,499,499,500,500,500,500,500,500,500,500,500,500,500,500,500,500,500,500,500,500,500,500,500,500,500,500,500,500,500,500,500,500,500,500,500,500,500,500,500,500,500,500,500,500,500,500,500,500,501,502,505,507,508,511,514,516,519,519,519,519,519,519,519,519,519,519,519,519,519,519,519,518,516,511,507,501,498,496,495,490,482,480,479,479,479,479,479,479,479,479,479,484,487,495,502,515,518,520,523,524,526,526,526,526,526,526,526,526,526,526,526,526,526,526,527,527,525,523,522,519,516,515,514,514,514,512,512,512,512,511,508,508,508,508,508,502,499,494,491,490,489,489,489,488,488,488,486,483,482,480,479,479,479,479,479,479,479,479,479,479,479,479,479,479,479,479,479,479,479,481,487,492,498,502,507,513,517,518,519,521,533,541,547,551,553,553,553,552,550,549,546,544,542,539,536,532,532,532,532,532,532,530,526,516,499,434,396,358,323,278,201,179,165,159,159,159,154,145,133,124,117,117,117,118,122,128,129,129,129,128,122,117,114,112,110,95],"timestamp_mouse":[9,38,50,69,89,109,129,150,169,189,209,230,249,269,290,309,330,349,369,389,409,429,451,469,490,509,530,550,569,589,610,629,649,669,690,709,729,749,770,789,809,829,849,869,889,909,929,949,969,989,1010,1029,1049,1069,1090,1109,1130,1150,1170,1190,1209,1229,1249,1269,1290,1310,1329,1349,1369,1389,1410,1429,1449,1469,1489,1510,1529,1549,1570,1589,1609,1630,1650,1669,1689,1709,1730,1749,1769,1790,1809,1829,1850,1869,1889,1909,1930,1950,1969,1989,2009,2029,2049,2069,2089,2110,2131,2149,2169,2189,2209,2229,2249,2269,2291,2309,2329,2349,2369,2390,2411,2430,2449,2469,2489,2510,2529,2549,2570,2589,2609,2631,2651,2670,2689,2709,2729,2749,2769,2789,2809,2829,2850,2869,2889,2909,2930,2949,2969,2989,3009,3029,3050,3070,3089,3109,3129,3149,3169,3189,3209,3229,3250,3269,3289,3309,3330,3349,3370,3390,3409,3429,3450,3469,3489,3509,3529,3549,3569,3589,3609,3629,3650,3670,3689,3709,3729,3749,3769,3789,3810,3829,3850,3870,3890,3909,3929,3950,3969,3989,4009,4031,4049,4069,4089,4109,4129,4149,4169,4189,4210,4229,4249,4269,4290,4310,4329,4350,4369,4390,4409,4429,4449,4469,4490,4509,4529,4549,4570,4589,4609,4629,4649,4669,4690,4709,4729,4750,4769,4789,4809,4829,4849,4871,4889,4909,4929,4950,4969,4989,5009,5029,5050,5070,5090,5109,5129,5149,5169,5189,5209,5229,5250,5270,5290,5309,5329,5349,5369,5389,5410,5430,5450,5469,5490,5509,5529,5549,5569,5589,5609,5629,5649,5669,5689,5709,5730,5750,5769,5789,5809,5830,5849,5869,5889,5909,5930,5949,5969,5989,6009,6029,6050,6070,6089,6109,6130,6149,6169,6189,6209,6229,6250,6269,6289,6309,6329,6349,6369,6389,6409,6430,6449,6469,6489,6509,6529,6549,6569,6589,6609,6629,6649,6669,6689,6710,6729,6749,6769,6789,6809,6829,6849,6869,6889,6909,6929,6949,6969,6989,7009,7029,7050,7069,7089,7109,7130,7149,7169,7189,7209,7229,7249,7270,7289,7309,7329,7349,7369,7390,7410,7429,7449,7469,7490,7509,7529,7549,7569,7589,7609,7629,7649,7670,7689,7709,7730,7749,7770,7789,7809,7829,7850,7869,7890,7909,7930,7949,7969,7990,8009,8030,8049,8070,8090,8109,8130,8149,8169,8189,8209,8229,8250,8270,8289,8309,8330,8349,8370,8389,8409,8430,8449,8469,8489,8509,8529,8549,8569,8589,8609,8629,8649,8670,8689,8709,8729,8749,8770,8789,8809,8830,8849,8870,8890,8909,8929,8949,8969,8989,9009,9029,9050,9069,9090,9110,9130,9149,9169,9189,9209,9230,9249,9269,9289,9310,9330,9349,9370,9389,9409,9429,9450,9469,9491,9510,9530,9549,9569,9590,9609,9630,9650,9669,9689,9709,9729,9749,9770,9790,9810,9829,9850,9870,9891,9909,9929,9949,9969,9989,10009,10029,10049,10069,10090,10109,10130,10149,10169,10189,10209,10229,10249,10270,10289,10309,10330,10349,10369,10389,10410,10429,10450,10469,10489,10510,10529,10550,10570,10589,10609,10629,10650,10669,10689,10710],"xSR":741.5,"ySR":449.15000000000003,"xT1":424.9,"yT1":0,"xT2":1058.1,"yT2":0,"toosoon":0,"cond_shown":"Congruent","ratio_trial":300,"L_num":12,"L_den":24,"R_num":2,"R_den":10,"correct_side":1,"subjID":"linabonilla17","gender":"1","school":"4","age":"9"},{"start_time":1552327296294,"click_time":1552327298489,"finger_time":1552327297689,"fix_duration":664.5343954827733,"trial":5,"RT":1395,"MT":800,"sideResp":2,"stimulus":[],"xmouse":[789,788,788,788,788,788,788,788,788,788,788,788,788,788,788,788,788,788,788,788,788,788,788,788,788,788,788,788,788,788,788,788,788,788,788,788,788,788,788,788,788,788,788,788,788,788,788,788,788,788,788,788,788,788,788,788,788,788,788,788,788,788,788,788,788,788,788,787,784,762,741,715,687,643,634,634,634,634,634,634,634,634,634,634,643,661,697,757,925,1011,1079,1119,1143,1165,1168,1171,1173,1173,1171,1170,1170,1173,1178,1182,1186,1186,1185,1178,1156,1142],"ymouse":[481,482,482,482,482,482,482,482,482,482,482,482,482,482,482,482,482,482,482,482,482,482,482,482,482,482,482,482,482,482,482,482,482,482,482,482,482,482,482,482,482,482,482,482,482,482,482,482,482,482,482,482,482,482,482,482,482,482,482,482,482,482,482,482,482,482,482,483,480,444,413,377,338,277,261,259,259,259,259,259,259,259,259,259,260,266,278,284,284,284,284,279,270,251,247,241,238,234,220,213,208,203,195,187,170,161,153,141,112,91],"timestamp_mouse":[15,37,55,75,95,115,135,155,175,195,215,235,255,276,295,315,336,356,375,395,416,435,455,476,496,515,535,555,577,595,615,635,655,675,695,715,736,755,775,795,816,835,855,875,896,916,935,955,975,995,1016,1035,1055,1075,1095,1115,1136,1155,1175,1195,1216,1235,1255,1275,1296,1315,1335,1355,1375,1395,1416,1435,1455,1475,1495,1515,1535,1555,1577,1596,1615,1635,1656,1675,1695,1715,1735,1755,1775,1796,1815,1836,1855,1876,1896,1915,1935,1956,1975,1996,2015,2035,2055,2075,2095,2115,2135,2156,2176,2195],"xSR":741.5,"ySR":449.15000000000003,"xT1":424.9,"yT1":0,"xT2":1058.1,"yT2":0,"toosoon":0,"cond_shown":"Incongruent","ratio_trial":100,"L_num":8,"L_den":16,"R_num":6,"R_den":10,"correct_side":2,"subjID":"linabonilla17","gender":"1","school":"4","age":"9"},{"start_time":1552327300413,"click_time":1552327301649,"finger_time":1552327301269,"fix_duration":682.4599373377341,"trial":6,"RT":856,"MT":380,"sideResp":2,"stimulus":[],"xmouse":[762,762,762,762,762,762,762,762,762,762,762,762,762,762,762,762,762,762,762,762,762,762,762,762,762,763,765,772,774,776,778,779,779,779,779,779,779,783,789,794,804,812,855,893,953,1022,1084,1134,1138,1138,1138,1138,1136,1135,1135,1135,1135,1135,1135,1134,1131,1126],"ymouse":[519,519,519,519,519,519,519,519,519,519,519,519,519,519,519,519,519,519,519,519,519,519,519,519,519,518,517,511,509,508,507,506,506,506,506,506,506,502,498,495,490,483,450,417,370,322,279,225,212,203,196,191,180,175,169,160,155,148,123,115,106,95],"timestamp_mouse":[19,36,57,76,96,116,138,156,176,196,216,236,256,276,296,316,336,356,377,396,416,437,457,476,496,516,537,556,576,597,617,636,657,676,696,716,736,756,776,796,817,837,856,876,896,916,936,957,977,996,1017,1038,1056,1076,1096,1117,1136,1156,1176,1196,1216,1236],"xSR":741.5,"ySR":449.15000000000003,"xT1":424.9,"yT1":0,"xT2":1058.1,"yT2":0,"toosoon":0,"cond_shown":"Congruent","ratio_trial":200,"L_num":5,"L_den":10,"R_num":14,"R_den":20,"correct_side":2,"subjID":"linabonilla17","gender":"1","school":"4","age":"9"},{"start_time":1552327304327,"click_time":1552327305791,"finger_time":1552327305549,"fix_duration":1276.0830872072763,"trial":7,"RT":1222,"MT":242,"sideResp":2,"stimulus":[],"xmouse":[817,815,815,815,815,815,815,815,815,815,814,813,812,812,811,810,810,810,810,810,810,810,810,810,810,810,810,810,810,810,810,810,810,810,810,810,810,810,810,810,810,810,810,810,810,810,810,810,810,810,810,810,810,810,810,809,809,816,820,827,831,838,859,879,894,912,928,955,966,976,988,1001,1052,1090],"ymouse":[481,482,482,482,482,482,482,482,482,482,483,484,484,484,484,485,485,485,485,485,485,485,485,485,485,485,485,485,485,485,485,485,485,485,485,485,485,485,485,485,485,485,485,485,485,485,485,485,485,485,485,485,485,485,485,485,484,474,468,460,451,440,406,373,349,316,289,242,218,194,170,148,73,18],"timestamp_mouse":[2,22,42,62,82,102,122,142,162,182,203,223,242,262,282,302,323,342,362,382,403,422,444,462,482,502,523,542,562,582,602,622,643,662,682,702,722,743,762,782,802,822,842,862,883,902,923,942,963,983,1002,1022,1042,1062,1083,1102,1122,1142,1162,1182,1202,1222,1243,1262,1282,1302,1323,1343,1363,1383,1402,1422,1443,1464],"xSR":741.5,"ySR":449.15000000000003,"xT1":424.9,"yT1":0,"xT2":1058.1,"yT2":0,"toosoon":0,"cond_shown":"Incongruent","ratio_trial":100,"L_num":6,"L_den":10,"R_num":11,"R_den":22,"correct_side":1,"subjID":"linabonilla17","gender":"1","school":"4","age":"9"},{"start_time":1552327308941,"click_time":1552327310509,"finger_time":1552327310069,"fix_duration":250,"trial":8,"RT":1128,"MT":440,"sideResp":2,"stimulus":[],"xmouse":[820,822,822,822,822,822,822,822,821,819,815,809,808,807,807,806,804,803,802,799,798,794,793,792,792,792,792,792,792,792,792,792,792,792,792,792,792,792,792,792,792,792,792,792,792,792,792,792,792,792,792,792,792,792,792,802,838,875,916,959,1002,1045,1061,1066,1068,1069,1072,1076,1076,1076,1076,1076,1076,1077,1078,1078,1078,1079,1081],"ymouse":[472,471,471,471,471,471,471,471,472,473,477,484,486,487,489,490,492,493,495,497,499,502,503,504,505,505,505,505,505,505,505,505,505,505,505,505,505,505,505,505,505,505,505,505,505,505,505,505,505,505,505,505,505,505,505,488,435,390,356,336,325,306,279,257,239,223,209,183,167,154,144,128,124,122,119,114,105,101,95],"timestamp_mouse":[8,28,48,68,88,109,129,148,168,189,208,229,248,268,288,308,328,348,368,390,408,428,448,468,488,508,528,549,568,589,608,628,648,668,688,708,728,750,768,788,808,828,849,870,889,908,929,949,968,988,1008,1028,1050,1068,1088,1108,1128,1149,1168,1188,1209,1228,1248,1269,1288,1308,1328,1348,1368,1388,1408,1428,1448,1468,1488,1508,1529,1549,1568],"xSR":741.5,"ySR":449.15000000000003,"xT1":424.9,"yT1":0,"xT2":1058.1,"yT2":0,"toosoon":0,"cond_shown":"Congruent","ratio_trial":300,"L_num":1,"L_den":5,"R_num":6,"R_den":12,"correct_side":2,"subjID":"linabonilla17","gender":"1","school":"4","age":"9"},{"start_time":1552327312021,"click_time":1552327318669,"finger_time":1552327312530,"fix_duration":250,"trial":9,"RT":509,"MT":6139,"sideResp":1,"stimulus":[],"xmouse":[802,802,802,802,802,802,802,802,802,802,802,802,802,802,802,802,802,805,806,808,808,811,813,820,833,854,880,968,999,1017,1028,1034,1037,1037,1037,1037,1037,1038,1038,1038,1038,1038,1038,1038,1037,1026,1007,947,908,891,880,870,857,851,845,845,838,820,815,811,808,805,802,801,799,799,798,798,797,797,797,796,796,795,795,793,793,792,792,792,792,792,792,792,792,792,792,792,792,792,792,792,792,792,792,792,791,790,790,789,789,789,789,789,789,789,790,790,790,790,790,790,790,790,790,790,790,790,790,790,790,790,790,790,790,790,790,790,790,790,790,790,790,792,793,793,795,797,798,799,801,802,805,806,807,808,808,810,811,812,812,812,812,812,812,812,812,812,812,812,812,812,812,812,812,813,814,815,815,815,815,815,815,815,816,816,816,816,816,816,816,816,816,816,816,816,816,816,816,816,816,816,816,816,816,816,816,816,816,816,816,816,816,816,816,816,816,816,816,816,816,816,816,816,816,816,816,816,816,816,816,816,816,816,816,816,816,816,816,816,816,816,816,817,818,819,820,820,820,820,820,820,820,820,820,820,820,820,820,820,820,820,820,820,819,817,816,814,813,813,812,812,811,810,809,807,806,803,803,803,803,803,803,803,803,803,804,806,808,810,811,813,814,814,814,814,814,814,814,811,807,805,802,801,801,801,801,801,801,801,801,801,801,801,801,801,801,797,785,772,759,740,701,682,666,651,639,613,602,594,584,581,577,574,573,572,569,543,523,499,477,459,449],"ymouse":[527,527,527,527,527,527,527,527,527,527,527,527,527,527,527,526,525,516,510,506,501,499,492,481,464,434,398,276,237,213,195,182,171,171,171,171,171,170,170,170,170,170,170,170,170,180,197,250,292,317,335,351,373,381,389,390,398,418,427,431,437,440,445,447,448,450,451,452,452,452,453,454,456,458,459,461,462,466,468,468,468,468,468,468,468,468,468,468,468,470,470,470,471,471,471,472,473,477,482,484,486,489,503,515,532,547,553,556,556,556,556,556,556,556,556,556,556,556,556,556,556,556,556,556,556,556,556,556,556,556,556,556,556,555,554,552,550,546,544,542,540,537,532,530,529,528,527,525,524,523,522,522,522,522,522,522,522,522,522,522,522,522,522,522,522,521,520,519,518,517,517,517,517,516,516,516,516,515,515,515,515,515,515,515,515,515,515,515,515,515,515,515,515,515,515,515,515,515,515,515,515,515,515,515,515,515,515,515,515,515,515,515,515,515,515,515,515,515,515,515,515,515,515,515,515,515,515,515,515,515,515,515,515,512,511,509,508,508,508,508,508,508,508,508,508,508,508,508,508,508,508,508,508,508,508,509,510,510,511,511,511,512,512,512,513,513,514,514,510,505,501,498,495,491,484,480,478,473,471,469,468,466,466,466,466,466,466,466,466,466,469,471,473,474,474,474,474,474,474,474,474,474,474,474,474,474,474,463,438,418,398,373,331,314,300,287,275,252,243,236,229,227,226,226,226,226,223,192,170,145,121,105,95],"timestamp_mouse":[9,37,48,68,89,108,128,148,168,188,208,228,249,269,288,308,329,349,369,388,408,428,448,468,488,509,529,548,569,588,609,628,649,669,689,708,728,749,769,789,808,828,848,868,888,908,928,948,970,989,1008,1028,1049,1068,1089,1108,1128,1148,1168,1188,1208,1228,1248,1268,1289,1309,1328,1348,1368,1388,1408,1428,1448,1468,1489,1508,1528,1549,1568,1588,1608,1628,1648,1668,1688,1708,1728,1748,1768,1788,1808,1829,1849,1868,1888,1908,1929,1948,1969,1988,2008,2028,2048,2068,2088,2108,2128,2148,2170,2189,2208,2229,2248,2268,2288,2308,2329,2349,2368,2388,2408,2429,2449,2469,2488,2508,2528,2548,2568,2589,2608,2628,2648,2668,2688,2708,2729,2749,2768,2788,2808,2828,2848,2868,2888,2908,2928,2948,2968,2988,3008,3030,3049,3068,3088,3108,3128,3148,3168,3188,3209,3228,3249,3269,3288,3308,3328,3348,3368,3389,3408,3428,3449,3469,3488,3508,3528,3548,3569,3589,3609,3628,3649,3668,3688,3708,3728,3748,3768,3788,3808,3828,3848,3869,3889,3909,3929,3948,3968,3988,4008,4028,4049,4068,4088,4108,4128,4149,4169,4188,4208,4229,4248,4269,4288,4308,4328,4348,4369,4389,4409,4428,4448,4468,4488,4509,4528,4548,4568,4588,4608,4628,4649,4669,4688,4708,4728,4748,4768,4788,4808,4828,4848,4868,4888,4909,4928,4948,4968,4988,5008,5028,5048,5068,5089,5109,5128,5148,5170,5189,5208,5228,5248,5268,5288,5308,5328,5348,5368,5388,5408,5428,5448,5468,5488,5508,5528,5548,5569,5588,5608,5629,5648,5668,5688,5708,5728,5748,5769,5788,5808,5829,5848,5868,5889,5908,5929,5948,5968,5988,6010,6028,6048,6068,6088,6109,6128,6148,6169,6188,6208,6228,6248,6269,6289,6309,6329,6349,6368,6388,6408,6428,6448,6468,6488,6509,6528,6548,6570,6589,6608,6628,6648],"xSR":741.5,"ySR":449.15000000000003,"xT1":424.9,"yT1":0,"xT2":1058.1,"yT2":0,"toosoon":0,"cond_shown":"Congruent","ratio_trial":300,"L_num":11,"L_den":22,"R_num":4,"R_den":20,"correct_side":1,"subjID":"linabonilla17","gender":"1","school":"4","age":"9"},{"start_time":1552327320841,"click_time":1552327322970,"finger_time":1552327322269,"fix_duration":930.8455455530265,"trial":10,"RT":1428,"MT":701,"sideResp":1,"stimulus":[],"xmouse":[812,812,812,812,812,814,814,815,815,815,815,816,816,816,816,816,816,816,816,816,816,816,816,816,816,816,816,816,816,816,816,816,816,816,816,816,816,816,816,816,816,816,816,816,816,816,816,816,816,816,816,816,816,816,816,816,816,816,816,816,816,816,816,816,816,816,814,807,800,792,780,757,748,742,736,728,706,680,660,648,640,618,612,608,605,603,601,586,579,568,555,539,499,472,449,433,409,405,404,404,404,406,408,410,413,418,426],"ymouse":[534,534,534,534,534,533,531,529,529,529,528,528,528,528,528,528,527,527,527,527,527,527,527,527,527,527,527,527,527,527,527,527,527,527,527,527,527,527,527,527,527,527,527,527,527,527,527,527,527,527,527,527,527,527,527,527,527,527,527,527,527,527,527,527,525,523,519,506,493,481,465,433,420,409,400,388,357,326,305,293,286,264,259,255,252,250,249,237,229,219,210,200,174,157,141,127,107,105,105,104,104,102,101,100,98,96,93],"timestamp_mouse":[9,43,48,69,88,109,128,148,168,188,208,229,249,268,288,309,329,348,368,388,408,428,449,468,488,508,529,548,568,588,610,628,648,669,688,708,728,748,769,788,808,828,848,869,890,908,928,948,968,988,1008,1028,1048,1068,1088,1109,1128,1148,1168,1188,1209,1229,1248,1268,1288,1308,1328,1348,1369,1388,1408,1428,1448,1468,1489,1509,1528,1548,1568,1588,1609,1628,1648,1668,1689,1708,1728,1748,1768,1789,1808,1828,1849,1868,1888,1908,1928,1948,1968,1988,2008,2029,2048,2068,2088,2108,2128],"xSR":741.5,"ySR":449.15000000000003,"xT1":424.9,"yT1":0,"xT2":1058.1,"yT2":0,"toosoon":0,"cond_shown":"Incongruent","ratio_trial":200,"L_num":7,"L_den":10,"R_num":8,"R_den":16,"correct_side":1,"subjID":"linabonilla17","gender":"1","school":"4","age":"9"},{"start_time":1552327325246,"click_time":1552327327630,"finger_time":1552327326569,"fix_duration":815.2111316943387,"trial":11,"RT":1323,"MT":1061,"sideResp":1,"stimulus":[],"xmouse":[791,791,791,791,791,791,791,791,791,791,791,791,791,791,791,791,791,791,791,791,791,791,791,791,791,791,791,791,791,791,791,791,791,791,791,791,791,791,791,791,791,791,791,791,791,791,791,791,791,791,791,791,791,791,791,791,791,791,791,791,791,791,791,791,791,788,749,670,618,548,457,326,326,326,326,326,326,326,326,326,326,326,326,326,326,326,326,326,326,326,326,326,326,326,326,326,326,326,326,326,326,326,326,326,326,326,326,326,326,326,326,397,399,401,403,405,416,421,424,428],"ymouse":[508,508,508,508,508,508,508,508,508,508,508,508,508,508,508,508,508,508,508,508,508,508,508,508,508,508,508,508,508,508,508,508,508,508,508,508,508,508,508,508,508,508,508,508,508,508,508,508,508,508,508,508,508,508,508,508,508,508,508,508,508,508,508,508,502,496,448,369,312,241,141,4,4,4,4,4,4,4,4,4,4,4,4,4,4,4,4,4,4,4,4,4,4,4,4,4,4,4,4,4,4,4,4,4,4,4,4,4,4,4,4,4,7,9,10,11,18,21,22,24],"timestamp_mouse":[11,23,46,63,84,104,124,144,164,184,203,223,244,263,283,303,323,343,363,383,403,423,443,463,483,503,523,543,565,583,603,623,643,663,683,703,723,743,764,784,803,823,843,863,883,903,923,943,964,984,1005,1023,1043,1063,1083,1103,1123,1143,1163,1183,1203,1223,1244,1263,1283,1303,1323,1345,1364,1383,1403,1423,1443,1463,1483,1503,1525,1543,1565,1583,1604,1624,1644,1664,1683,1703,1723,1744,1763,1784,1803,1824,1844,1864,1883,1903,1923,1944,1965,1984,2003,2024,2044,2063,2084,2103,2123,2143,2163,2183,2203,2223,2244,2263,2283,2303,2324,2344,2363,2384],"xSR":741.5,"ySR":449.15000000000003,"xT1":424.9,"yT1":0,"xT2":1058.1,"yT2":0,"toosoon":0,"cond_shown":"Congruent","ratio_trial":300,"L_num":4,"L_den":10,"R_num":1,"R_den":10,"correct_side":1,"subjID":"linabonilla17","gender":"1","school":"4","age":"9"},{"start_time":1552327330373,"click_time":1552327332349,"finger_time":1552327331869,"fix_duration":1101.452829802069,"trial":12,"RT":1496,"MT":480,"sideResp":1,"stimulus":[],"xmouse":[798,798,798,798,798,798,798,798,798,798,798,798,798,798,798,798,798,798,798,798,798,798,798,798,798,798,798,798,798,798,798,798,798,798,798,798,798,798,798,798,798,798,798,798,798,798,798,798,798,798,798,798,798,798,798,798,798,798,798,798,798,798,798,798,798,798,798,798,798,798,798,798,798,786,743,714,687,665,653,628,610,587,546,496,422,406,403,402,402,402,404,406,408,411,413,414,417,422,433],"ymouse":[487,487,487,487,487,487,487,487,487,487,487,487,487,487,487,487,487,487,487,487,487,487,487,487,487,487,487,487,487,487,487,487,487,487,487,487,487,487,487,487,487,487,487,487,487,487,487,487,487,487,487,487,487,487,487,487,487,487,487,487,487,487,487,487,487,487,487,487,487,487,487,487,487,465,422,396,375,356,344,311,289,259,216,159,75,56,48,45,41,31,26,21,16,11,6,5,4,4,4],"timestamp_mouse":[17,41,56,76,96,116,136,156,176,196,217,236,256,276,296,316,336,357,376,396,417,436,456,477,496,516,536,556,576,596,616,636,656,676,697,717,736,756,776,796,818,837,856,876,897,917,936,956,976,997,1016,1036,1056,1076,1097,1116,1136,1156,1177,1198,1217,1236,1257,1276,1297,1316,1337,1356,1376,1396,1417,1436,1456,1476,1496,1517,1536,1557,1577,1596,1616,1636,1656,1677,1697,1716,1737,1756,1777,1796,1816,1836,1856,1876,1896,1916,1937,1956,1976],"xSR":741.5,"ySR":449.15000000000003,"xT1":424.9,"yT1":0,"xT2":1058.1,"yT2":0,"toosoon":0,"cond_shown":"Congruent","ratio_trial":200,"L_num":6,"L_den":15,"R_num":3,"R_den":15,"correct_side":1,"subjID":"linabonilla17","gender":"1","school":"4","age":"9"},{"start_time":1552327334413,"click_time":1552327335969,"finger_time":1552327335309,"fix_duration":782.954104202812,"trial":13,"RT":896,"MT":660,"sideResp":2,"stimulus":[],"xmouse":[799,799,799,799,799,799,799,799,799,799,799,799,799,799,799,799,799,799,799,799,799,799,799,799,799,799,799,799,799,799,799,799,799,799,799,799,799,799,799,799,799,799,799,799,799,799,799,809,813,816,817,817,817,821,823,825,827,829,832,841,862,884,926,926,926,926,926,926,926,926,926,926,926,926,926,926,926,1145],"ymouse":[451,451,451,451,451,451,451,451,451,451,451,451,451,451,451,451,451,451,451,451,451,451,451,451,451,451,451,451,451,451,451,451,451,451,451,451,451,451,451,451,451,451,451,450,444,433,423,379,361,342,322,298,274,239,224,207,194,152,129,103,66,41,10,10,10,10,10,10,10,10,10,10,10,10,10,10,10,17],"timestamp_mouse":[16,36,56,76,96,116,136,156,176,196,217,237,256,276,296,316,336,356,376,396,418,436,456,476,497,516,537,556,577,596,616,636,657,677,696,716,736,756,776,797,816,837,856,876,896,917,937,956,977,997,1016,1036,1056,1078,1096,1116,1136,1156,1177,1197,1218,1238,1258,1277,1296,1317,1337,1356,1377,1396,1416,1436,1456,1476,1496,1516,1536,1556],"xSR":741.5,"ySR":449.15000000000003,"xT1":424.9,"yT1":0,"xT2":1058.1,"yT2":0,"toosoon":0,"cond_shown":"Incongruent","ratio_trial":200,"L_num":3,"L_den":4,"R_num":11,"R_den":20,"correct_side":1,"subjID":"linabonilla17","gender":"1","school":"4","age":"9"},{"start_time":1552327338032,"click_time":1552327340169,"finger_time":1552327339669,"fix_duration":581.8226120433533,"trial":14,"RT":1637,"MT":500,"sideResp":1,"stimulus":[],"xmouse":[754,754,754,754,754,754,754,754,754,754,754,754,754,754,754,754,754,754,754,754,754,754,754,754,754,754,754,754,754,754,754,754,754,754,754,754,754,754,754,754,754,754,754,754,754,754,754,754,754,755,755,755,756,757,757,758,758,758,759,759,759,759,759,759,759,759,759,759,759,759,759,759,759,759,759,759,759,759,759,759,759,754,742,725,702,681,649,635,632,630,628,625,618,609,599,588,567,558,557,554,553,548,545,541,537,529,498],"ymouse":[470,470,470,470,470,470,470,470,470,470,470,470,470,470,470,470,470,470,470,470,470,470,470,470,470,470,470,470,470,470,470,470,470,470,470,470,470,470,470,470,470,470,470,470,470,470,470,470,470,470,470,469,468,467,465,464,462,461,461,461,461,461,461,461,461,461,461,461,461,461,461,461,461,461,461,461,461,461,461,461,457,439,421,399,373,348,310,293,288,285,281,272,249,225,200,178,135,116,108,102,96,87,84,79,73,64,50],"timestamp_mouse":[17,37,57,77,97,117,138,157,178,198,217,237,257,278,297,317,339,357,377,397,417,437,457,477,497,517,537,557,578,597,617,638,657,677,697,717,737,758,777,798,818,838,857,877,897,917,937,957,977,998,1017,1037,1057,1077,1097,1117,1137,1157,1177,1197,1217,1237,1257,1278,1297,1317,1337,1357,1377,1397,1417,1437,1457,1478,1497,1517,1537,1558,1577,1598,1617,1637,1658,1677,1697,1718,1737,1758,1777,1798,1818,1837,1857,1877,1897,1918,1937,1959,1977,1997,2017,2037,2057,2078,2097,2118,2137],"xSR":741.5,"ySR":449.15000000000003,"xT1":424.9,"yT1":0,"xT2":1058.1,"yT2":0,"toosoon":0,"cond_shown":"Congruent","ratio_trial":100,"L_num":11,"L_den":22,"R_num":4,"R_den":10,"correct_side":1,"subjID":"linabonilla17","gender":"1","school":"4","age":"9"},{"start_time":1552327342686,"click_time":1552327344669,"finger_time":1552327344149,"fix_duration":1155.9935911603916,"trial":15,"RT":1463,"MT":520,"sideResp":2,"stimulus":[],"xmouse":[810,811,811,811,812,812,812,812,812,812,812,812,812,812,812,812,812,812,812,812,812,812,812,812,812,812,812,812,812,812,812,812,812,812,812,812,812,812,812,812,812,812,812,812,812,812,812,812,812,812,812,812,812,812,812,812,812,812,812,812,812,812,812,812,812,812,812,812,812,812,812,815,822,828,834,843,853,863,873,888,892,896,898,901,906,910,916,919,922,926,926,926,928,934,963,978,994,1014,1030,1064],"ymouse":[495,491,487,487,483,483,483,483,483,483,483,483,483,483,483,483,483,483,483,483,483,483,483,483,483,483,483,483,483,483,483,483,483,483,483,483,483,483,483,483,483,483,483,483,483,483,483,483,483,483,483,483,483,483,483,483,483,483,483,483,483,483,483,483,483,483,483,483,483,483,482,479,464,448,440,432,423,408,391,356,341,328,317,308,289,279,266,255,242,219,211,204,197,186,171,164,151,128,107,68],"timestamp_mouse":[3,27,47,65,84,103,123,143,164,184,203,223,243,263,283,303,323,343,363,383,403,423,443,463,483,504,523,544,564,583,603,623,643,663,683,703,724,743,763,783,803,824,843,863,883,903,923,943,963,983,1003,1023,1043,1063,1083,1103,1123,1143,1163,1183,1203,1224,1243,1263,1283,1303,1323,1344,1363,1383,1403,1424,1444,1463,1483,1503,1523,1543,1563,1583,1603,1623,1644,1663,1683,1703,1724,1743,1763,1783,1803,1823,1843,1863,1884,1904,1923,1944,1963,1983],"xSR":741.5,"ySR":449.15000000000003,"xT1":424.9,"yT1":0,"xT2":1058.1,"yT2":0,"toosoon":0,"cond_shown":"Incongruent","ratio_trial":200,"L_num":4,"L_den":6,"R_num":14,"R_den":30,"correct_side":1,"subjID":"linabonilla17","gender":"1","school":"4","age":"9"},{"start_time":1552327351423,"click_time":1552327353990,"finger_time":1552327352869,"fix_duration":1351.5815730679362,"trial":16,"RT":1446,"MT":1121,"sideResp":1,"stimulus":[],"xmouse":[792,792,792,792,792,792,792,792,792,792,792,792,792,792,792,792,792,792,792,792,792,792,792,792,792,792,792,792,792,792,792,792,792,792,792,792,792,792,792,792,792,792,792,792,792,792,792,792,792,792,792,792,792,792,792,792,792,792,792,792,792,792,792,792,792,792,792,792,792,792,780,758,695,653,609,584,570,567,567,567,567,566,561,557,550,544,540,526,519,508,498,484,458,456,456,456,456,456,456,456,456,456,454,454,454,454,454,454,453,453,452,450,444,443,442,442,442,441,441,441,441,441,441,441,441,441,441,444,448],"ymouse":[509,509,509,509,509,509,509,509,509,509,509,509,509,509,509,509,509,509,509,509,509,509,509,509,509,509,509,509,509,509,509,509,509,509,509,509,509,509,509,509,509,509,509,509,509,509,509,509,509,509,509,509,509,509,509,509,509,509,509,509,509,509,509,509,509,509,509,509,509,504,491,470,422,391,357,339,329,326,326,326,325,321,311,304,294,285,279,259,248,236,223,207,184,182,182,182,182,182,182,182,182,180,176,174,173,171,169,169,168,165,161,156,142,137,133,129,125,118,117,116,115,115,115,115,115,114,111,100,94],"timestamp_mouse":[9,35,46,66,86,107,127,146,167,186,206,226,247,267,286,307,326,346,366,386,406,426,447,466,486,506,526,547,567,586,606,627,647,666,688,707,726,746,766,786,806,826,846,866,886,906,926,946,966,986,1006,1027,1046,1066,1087,1107,1127,1146,1166,1186,1206,1228,1246,1266,1286,1306,1326,1348,1368,1386,1406,1426,1446,1466,1486,1506,1527,1546,1566,1586,1606,1626,1647,1666,1687,1706,1727,1746,1766,1786,1806,1826,1846,1866,1886,1906,1926,1947,1966,1987,2006,2026,2046,2066,2086,2106,2126,2147,2166,2186,2206,2226,2246,2266,2286,2307,2326,2346,2366,2387,2406,2426,2447,2466,2486,2506,2526,2546,2567],"xSR":741.5,"ySR":449.15000000000003,"xT1":424.9,"yT1":0,"xT2":1058.1,"yT2":0,"toosoon":0,"cond_shown":"Congruent","ratio_trial":300,"L_num":9,"L_den":10,"R_num":3,"R_den":5,"correct_side":1,"subjID":"linabonilla17","gender":"1","school":"4","age":"9"},{"start_time":1552327356662,"click_time":1552327358510,"finger_time":1552327358189,"fix_duration":1172.88832305119,"trial":17,"RT":1527,"MT":321,"sideResp":1,"stimulus":[],"xmouse":[796,796,796,796,796,796,796,796,796,796,796,796,796,796,796,796,796,796,796,796,795,795,795,795,795,795,795,795,795,795,795,795,795,795,795,795,795,795,795,795,795,795,795,795,795,795,795,795,795,795,795,795,795,795,795,795,795,795,795,795,795,795,795,795,795,795,795,795,795,795,795,795,795,792,785,765,708,680,653,630,603,593,588,583,578,570,562,555,550,544,528,518,503],"ymouse":[507,507,507,507,507,507,507,507,507,507,507,507,507,507,507,505,505,505,505,505,504,501,501,501,501,501,501,501,501,501,501,501,501,501,501,501,501,501,501,501,501,501,501,501,501,501,501,501,501,501,501,501,501,501,501,501,501,501,501,501,501,501,501,501,501,501,501,501,501,501,501,501,501,499,497,490,452,427,397,366,318,301,289,277,267,248,231,219,208,192,151,121,92],"timestamp_mouse":[13,36,47,67,88,108,127,147,168,187,207,227,247,267,287,307,327,348,368,388,407,427,448,467,487,508,527,547,567,587,608,628,648,667,687,707,727,747,767,787,808,827,847,868,888,907,927,947,967,987,1008,1028,1048,1067,1087,1107,1127,1147,1167,1187,1208,1227,1247,1267,1287,1307,1328,1347,1367,1387,1409,1428,1447,1467,1488,1507,1527,1547,1567,1588,1607,1628,1648,1667,1687,1707,1727,1747,1767,1787,1807,1828,1848],"xSR":741.5,"ySR":449.15000000000003,"xT1":424.9,"yT1":0,"xT2":1058.1,"yT2":0,"toosoon":0,"cond_shown":"Incongruent","ratio_trial":300,"L_num":13,"L_den":26,"R_num":12,"R_den":15,"correct_side":2,"subjID":"linabonilla17","gender":"1","school":"4","age":"9"},{"start_time":1552327360952,"click_time":1552327362069,"finger_time":1552327361929,"fix_duration":1282.259873337971,"trial":18,"RT":977,"MT":140,"sideResp":2,"stimulus":[],"xmouse":[812,812,812,812,812,812,812,812,812,812,812,812,812,812,812,812,812,812,812,812,812,812,812,811,811,811,811,811,811,811,811,811,811,811,811,811,811,811,811,811,811,811,811,811,811,812,816,823,833,839,848,886,935,997,1051,1157],"ymouse":[518,518,518,518,518,518,518,518,518,518,518,518,518,518,518,518,518,518,518,518,518,518,518,517,516,515,515,515,515,515,515,514,514,514,514,514,514,514,514,514,514,514,514,514,513,501,486,458,418,372,304,225,174,133,95,15],"timestamp_mouse":[17,37,57,78,97,117,137,157,177,197,217,237,258,277,297,317,338,357,377,397,417,438,457,477,498,517,537,557,577,597,618,637,657,677,697,717,737,757,777,797,818,837,857,878,897,917,937,957,977,997,1018,1038,1057,1078,1097,1117],"xSR":741.5,"ySR":449.15000000000003,"xT1":424.9,"yT1":0,"xT2":1058.1,"yT2":0,"toosoon":0,"cond_shown":"Incongruent","ratio_trial":100,"L_num":3,"L_den":9,"R_num":7,"R_den":30,"correct_side":1,"subjID":"linabonilla17","gender":"1","school":"4","age":"9"},{"start_time":1552327364886,"click_time":1552327366909,"finger_time":1552327366329,"fix_duration":1273.492061307112,"trial":19,"RT":1443,"MT":580,"sideResp":2,"stimulus":[],"xmouse":[805,805,805,805,805,805,805,805,805,805,805,805,805,805,805,805,805,805,805,805,805,807,807,807,807,807,807,807,807,807,807,807,808,808,808,808,808,808,808,808,808,808,808,808,808,808,808,808,808,808,808,808,808,808,808,808,808,808,808,808,808,808,808,808,808,808,809,810,812,819,824,832,843,857,895,906,910,910,910,910,924,936,958,982,1067,1144,1176,1215,1244,1263,1263,1264,1265,1266,1266,1266,1262,1253,1236,1190,1169,1146],"ymouse":[507,507,507,507,507,507,507,507,507,507,507,507,507,507,507,507,507,507,507,507,507,505,505,504,504,504,504,504,504,504,503,502,501,501,501,501,501,501,501,501,501,500,500,499,499,499,499,499,499,499,499,499,499,499,499,499,499,499,499,499,499,499,499,499,499,499,499,499,496,489,485,477,466,450,396,365,339,308,283,267,244,236,230,219,180,149,130,110,99,93,93,93,92,92,92,92,92,90,88,76,67,57],"timestamp_mouse":[15,25,45,63,83,103,123,143,163,184,203,224,243,263,284,303,324,345,364,383,404,423,443,463,483,503,523,543,563,584,603,623,644,664,683,703,723,745,763,783,803,823,843,864,883,903,923,943,963,984,1004,1023,1044,1063,1083,1103,1124,1144,1163,1183,1203,1223,1243,1263,1283,1304,1323,1343,1363,1383,1403,1423,1443,1464,1483,1503,1524,1544,1564,1583,1603,1623,1643,1664,1683,1704,1723,1744,1763,1783,1803,1824,1843,1864,1883,1903,1923,1943,1963,1983,2003,2023],"xSR":741.5,"ySR":449.15000000000003,"xT1":424.9,"yT1":0,"xT2":1058.1,"yT2":0,"toosoon":0,"cond_shown":"Incongruent","ratio_trial":300,"L_num":1,"L_den":2,"R_num":2,"R_den":10,"correct_side":1,"subjID":"linabonilla17","gender":"1","school":"4","age":"9"},{"start_time":1552327370959,"click_time":1552327373169,"finger_time":1552327372329,"fix_duration":648.1477633796952,"trial":20,"RT":1370,"MT":840,"sideResp":2,"stimulus":[],"xmouse":[802,802,802,801,800,800,800,800,800,800,800,800,800,800,800,800,800,800,800,800,800,800,800,800,800,800,800,800,800,800,800,801,801,801,801,801,801,801,801,801,801,801,801,801,801,801,801,801,801,801,801,801,801,801,801,801,801,801,801,801,801,801,801,802,803,808,812,816,820,825,835,838,840,841,841,841,845,852,859,865,869,871,872,875,880,892,898,910,922,933,963,971,981,988,995,1004,1009,1012,1014,1016,1020,1022,1026,1034,1038,1060,1076,1090,1104,1116,1146],"ymouse":[529,527,527,524,523,521,520,520,519,519,517,516,516,516,515,515,515,515,514,514,513,512,512,512,512,512,512,512,512,512,511,510,509,508,506,506,506,506,506,506,506,506,506,506,506,506,506,506,506,506,506,506,506,506,506,506,506,506,506,506,506,506,506,505,503,488,477,463,449,428,398,395,390,383,374,367,351,341,332,325,318,315,312,310,307,299,288,273,257,244,218,211,202,195,188,178,171,168,164,161,158,156,153,147,145,130,124,116,108,100,72],"timestamp_mouse":[11,41,50,71,91,110,130,151,170,190,210,230,250,270,290,311,330,350,370,390,410,430,451,471,490,510,530,551,570,590,610,630,650,670,690,710,730,750,771,792,810,830,850,871,890,910,930,950,970,990,1010,1030,1050,1070,1090,1111,1131,1150,1170,1191,1210,1230,1250,1271,1290,1310,1330,1350,1370,1391,1410,1431,1451,1470,1490,1510,1530,1550,1570,1591,1610,1630,1650,1670,1690,1710,1731,1750,1770,1791,1810,1830,1850,1870,1890,1911,1930,1951,1970,1990,2010,2032,2051,2071,2090,2110,2131,2151,2170,2190,2210],"xSR":741.5,"ySR":449.15000000000003,"xT1":424.9,"yT1":0,"xT2":1058.1,"yT2":0,"toosoon":0,"cond_shown":"Incongruent","ratio_trial":300,"L_num":8,"L_den":10,"R_num":9,"R_den":18,"correct_side":1,"subjID":"linabonilla17","gender":"1","school":"4","age":"9"},{"start_time":1552327377084,"click_time":1552327379290,"finger_time":1552327378649,"fix_duration":1133.9905324543822,"trial":21,"RT":1565,"MT":641,"sideResp":2,"stimulus":[],"xmouse":[802,803,803,804,805,806,806,806,806,808,808,808,808,808,808,808,808,808,808,808,808,808,808,808,808,808,808,808,808,808,808,808,808,808,808,808,808,808,808,808,808,808,808,808,808,808,808,808,808,808,808,808,808,808,808,808,808,808,808,808,808,808,808,808,808,808,808,808,808,808,808,808,808,808,808,808,808,812,821,856,879,894,904,913,927,935,949,972,1007,1048,1115,1132,1142,1143,1143,1142,1142,1142,1142,1142,1142,1140,1138,1136,1135,1135,1135,1136,1136,1131,1126],"ymouse":[494,492,489,487,482,480,479,478,477,476,475,473,472,471,471,471,471,471,471,471,471,471,471,471,471,471,471,471,471,471,471,471,471,471,471,471,471,471,471,471,471,471,471,471,471,471,471,471,471,471,471,471,471,471,471,471,471,471,471,471,471,471,471,471,471,471,471,471,471,471,471,471,471,471,471,471,469,459,445,418,405,388,372,359,342,336,331,323,314,309,288,276,268,266,263,260,260,259,257,249,243,233,223,209,174,162,149,138,128,107,96],"timestamp_mouse":[9,25,46,65,85,105,125,145,165,185,205,226,245,266,285,305,325,345,365,387,406,425,445,465,485,505,525,545,565,585,605,626,645,665,685,705,725,745,765,785,805,825,845,865,885,906,925,945,965,987,1006,1026,1045,1065,1086,1105,1125,1145,1166,1185,1205,1225,1245,1265,1285,1305,1326,1345,1365,1386,1405,1425,1445,1465,1485,1505,1525,1545,1565,1585,1605,1625,1646,1665,1685,1706,1726,1745,1767,1785,1805,1826,1845,1865,1885,1906,1925,1946,1965,1985,2007,2026,2045,2065,2085,2105,2125,2145,2166,2186,2206],"xSR":741.5,"ySR":449.15000000000003,"xT1":424.9,"yT1":0,"xT2":1058.1,"yT2":0,"toosoon":0,"cond_shown":"Congruent","ratio_trial":100,"L_num":1,"L_den":2,"R_num":3,"R_den":5,"correct_side":2,"subjID":"linabonilla17","gender":"1","school":"4","age":"9"},{"start_time":1552327381408,"click_time":1552327382891,"finger_time":1552327382769,"fix_duration":697.628199628529,"trial":22,"RT":1361,"MT":122,"sideResp":1,"stimulus":[],"xmouse":[800,800,800,800,800,800,800,800,800,800,800,800,800,800,800,800,800,800,800,800,800,800,800,800,800,800,800,800,800,800,800,800,800,800,800,800,800,800,800,800,800,800,800,800,800,800,800,800,800,800,800,800,800,800,800,800,800,800,800,800,800,800,800,800,800,800,799,789,748,719,691,656,621,546,518],"ymouse":[509,509,509,509,509,509,509,509,509,509,509,509,509,509,509,509,509,509,509,509,509,509,509,509,509,509,509,509,509,509,509,509,509,509,509,509,509,509,509,509,509,509,509,509,509,509,509,509,509,509,509,509,509,509,509,509,509,509,509,509,509,509,509,509,509,502,497,483,415,365,315,260,199,90,47],"timestamp_mouse":[9,21,41,61,83,101,121,141,161,182,202,221,241,261,281,301,321,341,361,383,401,421,441,461,481,501,521,541,561,582,602,621,641,662,682,701,721,741,761,781,803,821,841,861,881,901,921,941,961,982,1001,1021,1042,1061,1081,1101,1121,1141,1161,1181,1201,1222,1241,1261,1282,1301,1321,1341,1361,1382,1402,1421,1441,1461,1482],"xSR":741.5,"ySR":449.15000000000003,"xT1":424.9,"yT1":0,"xT2":1058.1,"yT2":0,"toosoon":0,"cond_shown":"Congruent","ratio_trial":300,"L_num":11,"L_den":22,"R_num":2,"R_den":10,"correct_side":1,"subjID":"linabonilla17","gender":"1","school":"4","age":"9"},{"start_time":1552327385135,"click_time":1552327386769,"finger_time":1552327386189,"fix_duration":1004.0618985823711,"trial":23,"RT":1054,"MT":580,"sideResp":2,"stimulus":[],"xmouse":[805,805,805,805,805,805,805,805,805,805,805,805,805,805,805,805,805,805,805,805,805,805,805,805,805,805,805,805,805,805,805,805,805,805,805,805,805,805,805,805,805,805,805,805,805,805,805,805,805,806,806,810,814,821,826,832,843,849,855,861,868,896,906,913,921,927,943,950,955,962,969,993,1004,1016,1026,1034,1045,1049,1051,1055,1059,1082],"ymouse":[507,507,507,507,507,507,507,507,507,507,507,507,507,507,507,507,507,507,507,507,507,507,507,507,507,507,507,507,507,507,507,507,507,507,507,507,507,507,507,507,507,507,507,507,507,505,500,499,497,492,487,464,445,420,396,373,342,326,311,295,282,249,239,230,219,213,200,196,191,186,182,168,160,150,140,133,121,117,114,108,103,84],"timestamp_mouse":[15,39,54,74,94,114,134,154,174,194,214,234,254,274,295,314,334,354,374,395,414,434,454,475,495,514,534,554,574,594,614,634,655,675,695,715,734,754,775,794,815,834,854,875,894,914,934,954,975,994,1015,1035,1054,1074,1094,1114,1135,1154,1174,1195,1215,1234,1254,1274,1294,1314,1334,1355,1375,1394,1414,1434,1455,1474,1494,1514,1534,1555,1575,1594,1614,1634],"xSR":741.5,"ySR":449.15000000000003,"xT1":424.9,"yT1":0,"xT2":1058.1,"yT2":0,"toosoon":0,"cond_shown":"Incongruent","ratio_trial":200,"L_num":4,"L_den":5,"R_num":6,"R_den":10,"correct_side":1,"subjID":"linabonilla17","gender":"1","school":"4","age":"9"},{"start_time":1552327390461,"click_time":1552327393249,"finger_time":1552327391969,"fix_duration":330.37705099895777,"trial":24,"RT":1508,"MT":1280,"sideResp":2,"stimulus":[],"xmouse":[814,814,814,813,813,813,813,813,813,813,813,813,813,813,813,813,813,813,813,813,813,813,813,813,813,813,813,813,813,813,813,813,813,813,813,813,813,813,813,813,813,813,813,813,813,813,813,813,813,813,813,813,813,813,813,813,813,813,813,813,813,813,813,813,813,813,813,813,813,814,814,814,814,812,810,804,803,803,803,803,807,812,820,827,832,868,916,983,1041,1076,1093,1103,1107,1118,1137,1203,1211,1215,1215,1215,1224,1247,1272,1314,1314,1314,1314,1314,1314,1314,1314,1314,1314,1314,1314,1314,1314,1314,1314,1314,1314,1314,1314,1237,1233,1213,1203,1194,1186,1181,1173,1171,1170,1170,1170,1170,1169,1167,1161,1156],"ymouse":[491,491,491,490,487,485,485,485,485,485,485,485,485,485,485,485,485,485,485,485,485,485,485,485,485,485,485,485,485,485,485,485,485,485,485,485,485,485,485,485,485,485,485,485,485,485,485,485,485,485,485,485,485,485,485,485,485,485,485,485,485,485,485,485,485,485,485,485,485,482,476,471,465,459,451,439,437,437,437,435,424,414,401,393,386,363,344,329,317,310,304,287,279,265,248,206,194,184,172,154,108,77,47,6,6,6,6,6,6,6,6,6,6,6,6,6,6,6,6,6,6,6,6,1,8,27,36,44,49,53,57,58,59,59,59,59,59,59,59,59],"timestamp_mouse":[12,40,49,68,90,109,129,148,169,188,209,228,248,268,288,308,328,348,368,388,408,429,449,468,489,509,528,548,568,588,609,628,648,668,688,708,728,748,768,788,810,828,848,868,888,908,928,949,969,988,1008,1028,1048,1069,1088,1109,1128,1149,1168,1188,1208,1229,1248,1268,1289,1309,1329,1348,1370,1389,1408,1428,1449,1468,1488,1508,1529,1548,1568,1588,1608,1630,1648,1670,1688,1708,1729,1748,1768,1788,1808,1828,1848,1868,1888,1908,1929,1948,1968,1988,2009,2029,2048,2068,2088,2108,2128,2148,2168,2188,2208,2228,2248,2268,2288,2309,2328,2348,2368,2388,2408,2428,2448,2468,2488,2508,2528,2548,2568,2588,2608,2629,2648,2668,2688,2709,2728,2748,2768,2788],"xSR":741.5,"ySR":449.15000000000003,"xT1":424.9,"yT1":0,"xT2":1058.1,"yT2":0,"toosoon":0,"cond_shown":"Incongruent","ratio_trial":300,"L_num":13,"L_den":26,"R_num":12,"R_den":15,"correct_side":2,"subjID":"linabonilla17","gender":"1","school":"4","age":"9"},{"start_time":1552327396737,"click_time":1552327398170,"finger_time":1552327397749,"fix_duration":846.6943705268574,"trial":25,"RT":1012,"MT":421,"sideResp":2,"stimulus":[],"xmouse":[779,779,779,780,780,780,780,780,780,780,780,780,780,780,780,780,780,780,780,780,780,780,780,780,780,780,780,780,780,780,780,780,780,780,780,780,780,780,780,780,780,781,781,783,783,785,788,791,796,798,801,813,821,830,841,863,928,964,996,1031,1055,1101,1115,1123,1128,1131,1135,1136,1138,1140,1142,1146],"ymouse":[519,519,518,517,517,517,516,516,516,516,516,516,516,516,516,516,516,516,516,516,516,516,516,516,516,516,516,516,516,516,516,516,516,516,516,516,516,516,516,516,515,514,514,513,512,510,505,499,485,466,448,422,414,405,397,382,334,308,280,251,228,173,156,145,138,134,128,127,125,120,115,99],"timestamp_mouse":[12,34,52,72,92,114,133,152,173,192,212,232,252,273,293,313,332,352,372,392,412,432,452,473,492,512,532,554,573,592,612,632,652,672,692,712,732,753,772,792,812,832,852,872,893,912,932,952,972,992,1012,1033,1052,1073,1092,1112,1133,1152,1173,1193,1213,1232,1252,1272,1293,1312,1333,1353,1373,1392,1412,1432],"xSR":741.5,"ySR":449.15000000000003,"xT1":424.9,"yT1":0,"xT2":1058.1,"yT2":0,"toosoon":0,"cond_shown":"Incongruent","ratio_trial":100,"L_num":9,"L_den":10,"R_num":20,"R_den":25,"correct_side":1,"subjID":"linabonilla17","gender":"1","school":"4","age":"9"},{"start_time":1552327399897,"click_time":1552327401949,"finger_time":1552327401069,"fix_duration":326.43075114958475,"trial":26,"RT":1172,"MT":880,"sideResp":1,"stimulus":[],"xmouse":[817,817,817,817,817,817,817,817,817,817,817,817,817,817,817,817,817,817,817,817,817,817,817,817,817,817,817,817,817,817,817,817,817,817,817,817,817,817,817,817,817,817,817,817,817,817,817,817,817,817,816,814,807,788,785,782,778,775,767,764,760,756,749,735,730,725,721,715,697,682,664,648,636,623,621,620,618,612,575,538,502,476,459,445,444,443,440,436,422,417,415,415,415,415,415,415,415,416,421,425,430,435,438],"ymouse":[510,510,510,510,510,510,510,510,510,510,510,510,510,510,510,510,510,510,510,510,510,510,510,510,510,510,510,510,510,510,510,510,510,510,510,510,510,510,510,510,510,510,510,510,510,510,510,510,510,510,509,506,502,487,480,473,464,456,439,431,423,417,411,397,392,387,382,372,353,340,329,320,312,303,301,299,296,290,260,233,207,187,173,155,150,144,138,132,113,108,107,107,107,107,107,107,105,105,103,103,101,100,99],"timestamp_mouse":[13,36,52,72,92,114,133,152,173,193,212,232,252,272,292,313,332,353,373,393,412,432,452,472,492,513,532,552,573,592,612,632,652,672,692,712,732,754,772,792,812,832,852,872,892,912,933,952,972,992,1012,1033,1053,1072,1092,1112,1132,1153,1172,1192,1212,1232,1252,1273,1292,1312,1333,1353,1373,1393,1413,1432,1453,1472,1493,1512,1532,1552,1572,1593,1613,1632,1652,1673,1692,1712,1733,1752,1772,1792,1813,1832,1852,1872,1892,1912,1932,1952,1973,1992,2012,2032,2052],"xSR":741.5,"ySR":449.15000000000003,"xT1":424.9,"yT1":0,"xT2":1058.1,"yT2":0,"toosoon":0,"cond_shown":"Incongruent","ratio_trial":300,"L_num":8,"L_den":10,"R_num":9,"R_den":18,"correct_side":1,"subjID":"linabonilla17","gender":"1","school":"4","age":"9"},{"start_time":1552327404073,"click_time":1552327405790,"finger_time":1552327405369,"fix_duration":882.3647249721763,"trial":27,"RT":1296,"MT":421,"sideResp":2,"stimulus":[],"xmouse":[777,777,777,777,777,777,777,777,777,777,777,777,777,777,777,777,777,777,777,777,777,777,777,777,777,777,777,777,777,777,777,777,777,777,777,777,777,777,777,777,777,777,777,777,777,777,777,777,777,777,777,777,777,777,777,776,776,778,781,784,792,797,808,826,944,1024,1103,1174,1218,1266,1277,1286,1296,1301,1312,1313,1313,1311,1305,1289,1283,1277,1269,1253,1164,1116],"ymouse":[515,515,515,515,515,515,515,515,515,515,515,515,515,515,515,515,515,515,515,515,515,515,515,515,515,515,515,515,515,515,515,515,515,515,515,515,515,515,515,515,515,515,515,515,515,515,515,515,515,515,515,515,515,515,515,512,510,506,502,499,496,495,491,482,448,430,406,381,360,324,312,302,291,283,260,250,239,224,210,183,173,160,148,131,41,1],"timestamp_mouse":[19,38,57,77,97,116,136,156,177,196,216,237,256,276,296,316,336,357,376,396,416,437,456,476,497,517,536,556,576,597,618,637,656,676,696,717,736,757,777,796,816,837,856,876,896,916,936,956,977,996,1016,1036,1056,1077,1096,1116,1136,1157,1176,1196,1216,1236,1256,1276,1296,1318,1336,1356,1376,1396,1417,1436,1456,1477,1496,1516,1537,1556,1576,1596,1617,1637,1656,1676,1696,1716],"xSR":741.5,"ySR":449.15000000000003,"xT1":424.9,"yT1":0,"xT2":1058.1,"yT2":0,"toosoon":0,"cond_shown":"Congruent","ratio_trial":100,"L_num":1,"L_den":2,"R_num":3,"R_den":5,"correct_side":2,"subjID":"linabonilla17","gender":"1","school":"4","age":"9"},{"start_time":1552327413246,"click_time":1552327416369,"finger_time":1552327415669,"fix_duration":675.9878031605821,"trial":28,"RT":2423,"MT":700,"sideResp":1,"stimulus":[],"xmouse":[809,812,813,813,813,813,813,813,813,813,813,813,813,813,813,813,813,813,813,813,813,813,813,813,813,813,813,813,813,813,817,818,818,818,818,818,818,818,818,818,818,818,818,818,819,819,812,809,807,806,805,805,807,808,809,809,809,809,809,809,809,809,809,809,809,809,809,809,809,809,809,809,809,809,809,809,809,809,807,802,798,797,797,799,804,809,820,821,822,822,823,823,823,823,823,823,823,823,823,822,820,816,812,809,808,808,807,807,807,807,807,807,807,807,804,803,796,790,783,774,765,744,732,720,707,698,684,681,679,676,673,662,653,643,629,617,578,570,568,566,565,565,565,565,565,565,563,561,557,550,545,535,532,527,522,518,509],"ymouse":[512,524,527,527,527,527,527,527,527,527,527,527,527,527,527,527,527,527,527,527,527,527,527,527,527,527,527,527,527,527,529,530,530,530,530,530,530,530,530,530,530,530,530,530,529,524,509,493,487,483,482,482,482,482,482,482,482,482,482,482,482,482,482,482,482,482,482,482,482,482,482,482,482,482,482,482,482,482,472,458,453,453,459,470,479,485,492,492,492,493,493,493,494,494,494,494,494,497,500,502,505,514,520,523,526,528,529,529,529,529,529,529,529,529,530,530,527,520,509,496,480,442,424,408,394,385,376,375,374,372,369,353,343,328,308,286,237,225,218,208,197,183,181,180,180,180,176,173,166,157,147,130,124,118,113,108,94],"timestamp_mouse":[3,25,53,63,83,103,123,143,163,183,203,223,243,263,284,303,323,343,364,384,403,423,443,464,483,503,523,544,563,583,603,623,643,663,683,703,724,744,763,783,803,823,843,863,883,903,923,943,963,983,1003,1023,1043,1065,1083,1104,1123,1143,1163,1183,1203,1223,1244,1264,1283,1303,1323,1343,1363,1383,1404,1423,1444,1464,1483,1504,1523,1545,1563,1583,1603,1623,1643,1664,1683,1703,1723,1743,1763,1783,1803,1823,1843,1863,1883,1903,1923,1943,1963,1983,2004,2023,2043,2063,2083,2103,2123,2143,2163,2183,2204,2224,2243,2263,2283,2305,2324,2343,2363,2383,2403,2423,2445,2463,2484,2503,2524,2543,2563,2584,2603,2623,2644,2663,2683,2703,2723,2743,2763,2783,2803,2823,2844,2863,2883,2903,2923,2943,2963,2983,3004,3023,3044,3063,3083,3104,3123],"xSR":741.5,"ySR":449.15000000000003,"xT1":424.9,"yT1":0,"xT2":1058.1,"yT2":0,"toosoon":0,"cond_shown":"Incongruent","ratio_trial":200,"L_num":7,"L_den":15,"R_num":6,"R_den":9,"correct_side":2,"subjID":"linabonilla17","gender":"1","school":"4","age":"9"},{"start_time":1552327418419,"click_time":1552327420469,"finger_time":1552327419949,"fix_duration":948.0873633773366,"trial":29,"RT":1530,"MT":520,"sideResp":2,"stimulus":[],"xmouse":[809,809,809,809,809,809,809,809,809,809,809,809,809,809,809,809,809,809,809,809,809,809,809,809,809,809,809,809,809,809,809,809,809,809,809,809,809,809,809,809,809,809,809,809,809,809,809,809,809,809,809,809,809,809,809,809,809,809,809,809,809,809,809,809,809,809,809,809,809,809,809,809,811,814,823,840,866,911,931,946,958,965,971,971,971,971,973,978,980,981,983,983,986,990,993,996,999,1001,1001,1003,1012,1041,1102],"ymouse":[532,532,532,532,532,532,532,532,532,532,532,532,532,532,532,532,532,532,532,532,532,532,532,532,532,532,532,532,532,532,532,532,532,532,532,532,532,532,532,532,532,532,532,532,532,532,532,532,532,532,532,532,532,532,532,532,532,532,532,532,532,532,532,532,532,532,532,532,532,532,532,533,530,526,519,512,499,462,438,406,379,360,333,322,311,303,296,278,271,265,258,252,243,236,231,224,217,202,195,184,155,116,74],"timestamp_mouse":[10,37,52,71,91,110,130,150,171,191,210,230,250,270,291,311,330,351,370,391,411,431,450,470,490,510,530,552,570,591,611,630,650,670,691,710,731,751,770,790,810,831,850,870,890,910,930,950,970,990,1010,1030,1051,1071,1091,1110,1130,1150,1170,1190,1211,1230,1250,1270,1290,1311,1330,1350,1370,1390,1412,1432,1451,1470,1490,1510,1530,1550,1570,1590,1610,1630,1650,1670,1690,1710,1730,1750,1770,1790,1810,1830,1851,1871,1890,1911,1931,1951,1971,1990,2010,2030,2050],"xSR":741.5,"ySR":449.15000000000003,"xT1":424.9,"yT1":0,"xT2":1058.1,"yT2":0,"toosoon":0,"cond_shown":"Congruent","ratio_trial":200,"L_num":13,"L_den":26,"R_num":14,"R_den":20,"correct_side":2,"subjID":"linabonilla17","gender":"1","school":"4","age":"9"},{"start_time":1552327423960,"click_time":1552327425549,"finger_time":1552327424969,"fix_duration":250,"trial":30,"RT":1009,"MT":580,"sideResp":2,"stimulus":[],"xmouse":[808,808,808,809,809,809,809,809,809,809,809,809,809,809,809,809,809,809,809,809,809,809,809,809,809,809,809,809,809,809,809,809,809,809,809,809,809,809,809,809,809,809,809,809,810,816,820,826,828,832,842,849,863,882,896,908,910,911,914,919,938,963,980,998,1011,1022,1025,1025,1026,1027,1035,1040,1048,1055,1063,1074,1078,1080,1082,1084],"ymouse":[520,520,520,521,521,521,521,521,521,521,521,521,521,521,521,521,521,521,521,521,521,521,521,521,521,521,521,521,521,521,521,521,521,521,521,521,521,521,521,521,521,521,521,521,521,518,517,514,512,505,484,476,469,461,455,435,420,406,395,383,348,319,299,277,258,232,223,216,211,206,196,191,183,174,163,142,131,120,108,96],"timestamp_mouse":[14,39,49,69,90,110,129,150,170,190,210,229,249,269,289,309,329,349,370,389,409,429,449,469,489,509,529,549,569,589,609,629,649,669,689,709,730,749,769,789,809,829,849,869,889,909,930,949,970,989,1009,1030,1049,1069,1089,1110,1131,1150,1169,1189,1209,1230,1249,1269,1289,1309,1330,1349,1370,1389,1409,1430,1450,1469,1490,1510,1529,1550,1569,1589],"xSR":741.5,"ySR":449.15000000000003,"xT1":424.9,"yT1":0,"xT2":1058.1,"yT2":0,"toosoon":0,"cond_shown":"Congruent","ratio_trial":200,"L_num":3,"L_den":10,"R_num":11,"R_den":22,"correct_side":2,"subjID":"linabonilla17","gender":"1","school":"4","age":"9"},{"start_time":1552327428020,"click_time":1552327430469,"finger_time":1552327429709,"fix_duration":1149.4013231253482,"trial":31,"RT":1689,"MT":760,"sideResp":1,"stimulus":[],"xmouse":[785,785,785,785,785,785,785,785,785,785,785,785,785,785,785,785,786,786,786,786,786,786,786,786,786,786,787,788,788,788,788,788,788,788,788,788,788,788,788,788,788,788,788,788,789,789,789,789,789,789,789,789,789,789,789,789,789,789,789,789,789,789,789,789,789,789,789,789,789,789,790,790,791,791,791,791,791,791,791,791,793,793,793,793,789,787,785,782,782,782,780,779,771,765,757,748,738,710,685,663,634,605,561,541,524,513,504,499,499,499,498,498,497,497,497,498,498,503,504,504,504,504,504],"ymouse":[521,521,521,521,521,521,521,521,521,521,521,521,521,521,521,521,521,521,521,521,521,521,521,523,524,525,526,527,527,527,527,527,527,527,527,527,527,528,528,528,528,528,528,528,529,529,530,531,531,531,531,531,531,531,531,531,531,531,531,531,531,531,531,531,531,531,531,531,531,531,531,531,531,531,530,529,525,514,510,506,499,495,478,461,447,434,423,417,415,415,414,410,398,389,376,365,352,321,292,267,237,202,161,146,134,128,123,121,121,121,121,121,121,121,121,120,120,112,110,109,107,105,99],"timestamp_mouse":[12,29,49,69,90,109,130,150,169,189,209,229,250,270,290,309,329,349,369,389,409,429,449,469,489,509,529,550,570,590,609,629,650,669,689,709,729,749,770,789,809,829,850,869,889,910,929,949,969,989,1009,1030,1049,1069,1089,1109,1129,1150,1169,1190,1210,1229,1249,1269,1289,1309,1329,1349,1369,1391,1409,1430,1449,1470,1489,1510,1530,1549,1569,1590,1609,1629,1649,1669,1689,1709,1729,1749,1770,1789,1809,1829,1849,1870,1890,1909,1929,1949,1970,1989,2010,2029,2049,2069,2089,2109,2129,2149,2169,2189,2210,2229,2249,2269,2290,2309,2330,2349,2369,2389,2409,2429,2449],"xSR":741.5,"ySR":449.15000000000003,"xT1":424.9,"yT1":0,"xT2":1058.1,"yT2":0,"toosoon":0,"cond_shown":"Incongruent","ratio_trial":300,"L_num":4,"L_den":20,"R_num":2,"R_den":4,"correct_side":2,"subjID":"linabonilla17","gender":"1","school":"4","age":"9"},{"start_time":1552327434994,"click_time":1552327437370,"finger_time":1552327436669,"fix_duration":523.1940059809066,"trial":32,"RT":1675,"MT":701,"sideResp":2,"stimulus":[],"xmouse":[782,782,782,782,782,782,782,782,782,782,782,782,782,782,782,782,782,782,782,782,782,782,781,780,779,778,778,778,778,778,778,778,778,778,778,778,778,778,778,778,778,778,778,778,778,778,778,778,778,778,778,778,778,778,778,778,778,778,778,778,778,778,778,778,778,778,778,778,778,778,778,778,779,780,780,781,781,782,787,789,799,813,827,863,879,888,896,902,915,923,926,929,933,939,943,949,965,965,965,965,965,965,965,965,965,965,965,965,965,965,965,965,965,965,965,965,965,965,1103],"ymouse":[503,503,503,503,503,503,503,503,503,503,503,503,503,503,503,503,503,503,503,503,503,504,504,509,510,513,514,514,514,514,514,514,514,514,514,514,514,514,514,514,514,514,514,514,514,514,514,514,514,514,514,514,514,514,514,514,514,514,514,514,514,514,514,514,514,514,514,514,514,514,514,514,509,501,497,491,488,486,482,480,475,468,461,433,418,398,377,355,290,265,240,213,188,135,105,76,19,19,19,19,19,19,19,19,19,19,19,19,19,19,19,19,19,19,19,19,19,19,1],"timestamp_mouse":[15,39,55,76,96,115,135,156,175,195,215,236,255,275,295,315,335,355,375,395,415,436,455,475,495,515,535,555,575,595,615,636,656,676,696,715,735,755,775,795,816,836,856,875,895,916,935,955,975,996,1016,1035,1055,1075,1095,1115,1135,1155,1175,1195,1216,1235,1255,1275,1295,1315,1335,1355,1375,1395,1416,1435,1455,1475,1495,1515,1535,1555,1575,1595,1615,1635,1655,1675,1695,1715,1735,1756,1776,1795,1815,1835,1856,1875,1896,1915,1935,1956,1976,1997,2015,2036,2055,2076,2096,2116,2135,2155,2176,2195,2215,2235,2255,2276,2295,2316,2335,2355,2376],"xSR":741.5,"ySR":449.15000000000003,"xT1":424.9,"yT1":0,"xT2":1058.1,"yT2":0,"toosoon":0,"cond_shown":"Congruent","ratio_trial":200,"L_num":8,"L_den":15,"R_num":7,"R_den":21,"correct_side":1,"subjID":"linabonilla17","gender":"1","school":"4","age":"9"},{"start_time":1552327444498,"click_time":1552327452411,"finger_time":1552327445050,"fix_duration":1308.900726308897,"trial":33,"RT":552,"MT":7361,"sideResp":1,"stimulus":[],"xmouse":[813,813,811,809,807,806,805,805,805,805,805,804,803,801,801,801,801,801,801,801,801,801,801,800,799,797,794,792,790,789,789,789,789,787,785,783,782,782,782,782,782,782,782,781,781,781,781,781,781,781,781,781,782,783,783,783,783,783,783,781,777,774,773,773,773,772,771,771,771,771,771,771,771,771,771,771,771,773,776,777,777,778,778,781,781,781,781,781,781,784,787,787,788,790,791,792,792,792,792,792,792,792,792,793,795,796,797,798,799,801,803,807,811,813,813,814,815,816,818,819,819,820,820,820,820,820,820,816,807,802,799,795,794,794,794,794,794,794,794,794,794,794,794,794,794,794,794,794,794,794,794,794,793,793,793,793,793,793,793,793,793,793,793,793,793,793,793,793,793,793,795,797,800,809,812,815,815,816,817,817,817,817,817,817,817,817,817,817,817,817,817,817,817,817,817,817,817,817,817,817,817,817,817,817,817,817,817,817,817,817,817,817,817,817,817,817,817,817,817,817,817,817,816,816,816,816,816,816,816,816,816,816,816,816,816,816,816,816,816,816,816,816,816,816,816,816,816,816,816,816,816,816,816,816,816,816,816,816,816,816,816,816,816,816,816,816,816,815,810,807,806,805,804,802,801,799,797,796,795,795,795,795,795,795,795,795,794,791,789,789,788,788,788,788,788,788,788,788,788,788,788,788,788,788,788,788,788,788,788,788,788,788,788,788,788,788,788,788,788,787,786,786,785,785,785,785,785,785,785,785,785,785,785,785,785,785,785,785,785,785,785,785,785,785,785,785,785,785,785,786,788,791,794,804,809,811,812,812,812,812,812,812,812,812,812,812,810,808,790,754,694,617,545,443,434,433,433,433,433,432,427,421,417,409,403,401,401,401,403,403,403,403,403,405,414,426],"ymouse":[475,475,475,476,478,479,479,479,479,479,479,481,482,482,482,482,482,482,482,482,482,482,482,481,472,464,455,449,440,438,438,438,438,445,452,455,457,458,458,458,458,458,458,459,459,461,461,463,467,469,472,474,476,481,483,488,492,493,494,497,500,503,504,504,504,504,504,504,504,504,504,504,504,504,504,504,504,510,521,523,525,526,528,531,531,531,531,531,532,532,532,531,530,529,529,528,528,528,528,528,528,528,528,527,525,524,522,520,518,513,506,494,480,470,467,465,463,458,449,441,435,430,427,426,426,426,428,434,438,439,441,443,444,444,444,444,444,444,444,444,444,444,444,444,444,444,444,444,444,444,444,444,444,444,443,443,443,443,443,443,443,443,443,444,445,446,448,449,452,454,458,464,470,489,497,504,508,514,524,529,531,532,532,532,532,532,532,532,532,532,532,532,532,532,532,532,532,532,532,532,532,532,533,533,533,533,533,533,533,533,533,533,533,533,533,533,533,533,533,533,533,532,532,531,530,530,530,530,530,530,530,530,530,530,530,530,530,530,530,530,530,530,530,530,530,530,530,530,530,530,527,526,525,525,525,525,525,525,525,525,525,525,525,525,525,525,524,522,516,514,512,512,511,510,510,509,508,508,508,508,508,508,508,508,508,506,501,496,494,492,491,491,491,491,491,491,491,491,491,491,491,491,491,491,491,491,491,491,491,491,491,491,491,491,491,491,491,491,491,491,491,491,492,492,492,492,492,492,492,492,492,492,492,492,492,492,492,492,492,492,492,492,492,492,492,492,492,492,492,491,490,486,481,470,462,460,459,459,459,459,459,459,459,459,459,459,459,459,455,435,406,363,322,236,219,208,199,187,167,154,135,114,96,68,57,45,34,24,2,2,2,2,2,11,28,46],"timestamp_mouse":[11,34,52,71,91,111,132,152,171,191,213,232,251,271,291,311,331,351,371,391,411,431,451,472,491,511,531,552,572,591,611,631,651,671,691,711,732,753,771,791,812,831,851,872,893,911,931,951,971,991,1011,1032,1051,1071,1091,1112,1131,1151,1171,1191,1211,1232,1251,1271,1291,1311,1331,1352,1371,1391,1411,1431,1451,1471,1491,1512,1532,1552,1571,1591,1611,1631,1651,1671,1691,1711,1731,1751,1771,1791,1812,1833,1851,1871,1892,1912,1932,1951,1971,1991,2012,2032,2051,2071,2092,2112,2131,2151,2171,2192,2212,2231,2251,2271,2292,2311,2331,2352,2371,2392,2412,2432,2451,2472,2492,2511,2532,2551,2571,2591,2611,2631,2651,2672,2692,2711,2731,2753,2771,2792,2811,2831,2851,2871,2891,2911,2931,2951,2972,2992,3011,3031,3051,3072,3091,3112,3131,3152,3171,3191,3211,3231,3251,3271,3291,3311,3331,3351,3371,3391,3411,3431,3452,3471,3491,3511,3531,3551,3571,3591,3611,3631,3651,3672,3691,3711,3731,3751,3773,3792,3811,3832,3851,3872,3891,3911,3931,3951,3971,3992,4011,4032,4051,4071,4093,4111,4132,4152,4171,4192,4211,4232,4252,4272,4291,4311,4331,4351,4371,4392,4411,4431,4451,4471,4492,4512,4531,4551,4572,4591,4611,4631,4651,4671,4691,4711,4731,4751,4771,4792,4812,4831,4851,4871,4891,4911,4931,4951,4971,4991,5012,5031,5051,5071,5091,5111,5131,5151,5171,5193,5211,5231,5251,5272,5292,5311,5331,5351,5371,5391,5411,5431,5452,5472,5491,5511,5531,5551,5571,5591,5611,5631,5651,5672,5691,5711,5731,5751,5771,5791,5811,5831,5851,5871,5892,5911,5931,5952,5972,5991,6011,6031,6051,6071,6091,6111,6131,6151,6171,6192,6212,6231,6251,6271,6291,6311,6331,6351,6371,6391,6411,6431,6451,6471,6492,6511,6531,6551,6572,6591,6611,6631,6651,6671,6691,6711,6732,6751,6771,6792,6811,6831,6852,6872,6891,6911,6931,6951,6971,6991,7011,7031,7051,7071,7091,7112,7131,7151,7171,7191,7211,7231,7251,7271,7291,7311,7331,7352,7371,7392,7411,7431,7451,7471,7492,7511,7531,7552,7571,7592,7612,7631,7652,7671,7692,7712,7731,7752,7772,7791,7811,7831,7851,7871,7892,7912],"xSR":741.5,"ySR":449.15000000000003,"xT1":424.9,"yT1":0,"xT2":1058.1,"yT2":0,"toosoon":0,"cond_shown":"Congruent","ratio_trial":200,"L_num":8,"L_den":15,"R_num":3,"R_den":9,"correct_side":1,"subjID":"linabonilla17","gender":"1","school":"4","age":"9"},{"start_time":1552327460969,"click_time":1552327462669,"finger_time":1552327462369,"fix_duration":777.3758844119855,"trial":34,"RT":1400,"MT":300,"sideResp":1,"stimulus":[],"xmouse":[799,799,799,799,799,799,799,799,796,795,795,794,794,793,792,790,790,790,790,790,790,790,788,787,786,784,784,784,784,784,784,784,784,784,784,784,784,784,784,784,784,784,784,784,784,784,784,784,784,784,784,784,784,784,784,783,783,782,780,779,777,776,775,774,773,770,767,763,761,758,751,745,738,727,714,682,668,656,647,638,617,602,584,564,546,514],"ymouse":[482,482,482,482,482,482,482,482,482,483,483,483,483,484,485,486,486,486,486,486,486,486,488,488,490,492,493,493,493,493,493,493,493,493,493,493,493,493,493,493,493,493,493,493,493,493,493,493,493,493,493,493,493,493,493,494,494,494,494,493,490,488,485,481,477,472,466,460,455,450,436,426,414,395,371,318,292,269,252,238,202,181,156,128,101,50],"timestamp_mouse":[1,37,41,59,80,100,120,140,160,180,200,220,240,260,280,300,320,340,360,380,400,420,439,460,480,500,520,540,560,580,600,620,640,660,680,700,719,740,760,780,800,820,840,860,879,900,920,940,960,981,999,1020,1040,1060,1080,1100,1120,1140,1159,1181,1200,1220,1240,1260,1280,1300,1320,1340,1360,1380,1400,1420,1440,1460,1480,1500,1521,1540,1560,1579,1600,1620,1640,1660,1680,1700],"xSR":741.5,"ySR":449.15000000000003,"xT1":424.9,"yT1":0,"xT2":1058.1,"yT2":0,"toosoon":0,"cond_shown":"Incongruent","ratio_trial":200,"L_num":3,"L_den":10,"R_num":1,"R_den":2,"correct_side":2,"subjID":"linabonilla17","gender":"1","school":"4","age":"9"},{"start_time":1552327466485,"click_time":1552327468669,"finger_time":1552327467869,"fix_duration":355.1631947370731,"trial":35,"RT":1384,"MT":800,"sideResp":1,"stimulus":[],"xmouse":[776,776,776,776,776,776,776,776,776,776,776,776,776,776,776,776,776,776,776,776,776,776,776,776,776,776,776,776,776,776,776,776,776,776,776,776,776,776,776,776,776,776,776,776,776,776,776,776,776,776,776,776,776,776,776,776,776,776,776,776,776,776,775,774,773,773,771,767,762,751,750,749,749,749,745,739,733,726,715,701,697,690,683,667,595,552,506,471,440,410,402,396,392,391,391,391,391,391,391,391,391,393,393,394,399,402,406,411,414,428],"ymouse":[493,495,497,497,499,499,499,499,499,499,501,503,504,506,509,509,509,509,509,509,509,509,509,509,509,509,509,509,509,509,509,509,509,509,509,509,509,509,509,509,509,508,506,504,501,501,501,501,501,501,501,501,501,501,501,501,501,500,499,497,496,495,493,491,483,480,473,466,458,442,436,431,430,428,418,410,404,397,391,375,369,361,355,345,285,251,209,177,148,115,105,95,88,86,86,86,86,86,86,86,86,85,85,85,84,82,80,77,76,70],"timestamp_mouse":[4,29,50,64,84,104,124,144,164,184,203,224,245,265,284,304,324,344,364,384,404,424,445,464,485,504,525,544,564,584,604,624,644,664,684,704,724,744,764,785,804,825,844,864,884,904,924,944,964,984,1004,1024,1044,1064,1085,1104,1124,1144,1164,1184,1204,1224,1245,1264,1284,1304,1324,1344,1364,1384,1404,1424,1444,1465,1485,1504,1524,1544,1564,1584,1604,1624,1644,1664,1684,1705,1724,1744,1764,1784,1804,1824,1843,1864,1885,1904,1923,1943,1964,1985,2004,2024,2044,2064,2084,2105,2124,2143,2164,2183],"xSR":741.5,"ySR":449.15000000000003,"xT1":424.9,"yT1":0,"xT2":1058.1,"yT2":0,"toosoon":0,"cond_shown":"Incongruent","ratio_trial":100,"L_num":10,"L_den":25,"R_num":8,"R_den":16,"correct_side":2,"subjID":"linabonilla17","gender":"1","school":"4","age":"9"},{"start_time":1552327504651,"click_time":1552327506349,"finger_time":1552327506069,"fix_duration":400.7215618109026,"trial":36,"RT":1418,"MT":280,"sideResp":1,"stimulus":[],"xmouse":[782,782,782,782,782,782,782,782,782,782,782,782,782,782,782,782,782,782,782,782,782,782,782,782,782,782,782,782,782,782,782,782,782,782,782,782,782,782,782,782,782,782,782,782,782,782,782,782,782,782,782,782,782,782,782,782,782,782,782,782,782,782,782,782,782,782,782,782,782,778,748,712,664,617,580,548,547,551,553,554,545,537,531,526,524],"ymouse":[487,487,487,487,487,487,487,487,487,487,487,487,487,487,487,487,487,487,487,487,487,487,487,487,487,487,487,487,487,487,487,487,487,487,487,487,487,487,488,488,488,488,488,488,488,488,488,488,488,488,488,488,488,488,488,488,488,488,488,488,488,488,488,488,488,488,488,488,488,473,432,392,333,277,224,136,113,93,75,59,30,19,13,11,11],"timestamp_mouse":[19,39,57,78,98,118,138,158,179,198,218,239,258,278,298,318,338,358,378,399,419,438,458,478,498,518,538,559,578,598,618,639,659,679,698,718,739,759,778,799,818,838,858,877,897,918,938,958,978,998,1018,1039,1059,1078,1098,1118,1138,1158,1178,1198,1218,1238,1258,1278,1298,1318,1338,1358,1378,1398,1418,1439,1458,1478,1498,1517,1538,1558,1578,1598,1617,1639,1658,1677,1698],"xSR":741.5,"ySR":449.15000000000003,"xT1":424.9,"yT1":0,"xT2":1058.1,"yT2":0,"toosoon":0,"cond_shown":"Congruent","ratio_trial":100,"L_num":11,"L_den":22,"R_num":6,"R_den":15,"correct_side":1,"subjID":"linabonilla17","gender":"1","school":"4","age":"9"},{"start_time":1552327511775,"click_time":1552327513870,"finger_time":1552327513090,"fix_duration":984.1790972951649,"trial":37,"RT":1315,"MT":780,"sideResp":1,"stimulus":[],"xmouse":[786,786,786,786,786,786,786,786,786,786,786,786,786,786,786,786,786,786,786,786,786,786,786,786,783,782,781,778,776,774,774,774,774,774,774,774,774,774,774,774,774,774,774,774,774,774,774,774,774,774,774,774,774,774,774,774,774,774,774,774,774,774,774,770,748,730,704,659,604,500,474,450,431,415,378,353,320,299,292,292,292,294,305,323,367,390,413,433,446,452,452,453,451,445,428,422,411,404,401,400,401,401,401,418,453],"ymouse":[515,515,515,515,515,515,515,515,515,515,515,515,515,515,515,515,515,515,515,515,515,515,514,514,514,514,514,516,518,521,521,521,521,521,521,521,521,521,521,521,521,521,521,521,521,521,521,521,521,521,521,521,521,521,521,521,521,521,521,521,521,521,521,521,516,508,488,455,411,300,257,222,199,182,157,145,131,122,118,118,118,119,125,135,154,164,173,181,187,188,188,188,178,161,124,104,80,54,35,4,0,0,0,5,39],"timestamp_mouse":[14,39,54,74,95,114,134,154,174,194,214,233,255,274,294,314,334,355,374,393,414,434,454,474,493,515,535,554,574,593,615,634,654,674,694,715,735,754,774,794,814,834,853,874,894,915,934,954,974,994,1014,1034,1054,1074,1094,1114,1135,1154,1174,1194,1214,1234,1254,1274,1294,1315,1335,1355,1374,1394,1414,1434,1454,1474,1494,1514,1534,1553,1574,1595,1614,1634,1654,1674,1694,1714,1734,1754,1773,1795,1814,1834,1854,1874,1894,1914,1934,1954,1974,1993,2014,2034,2054,2074,2094],"xSR":741.5,"ySR":449.15000000000003,"xT1":424.9,"yT1":0,"xT2":1058.1,"yT2":0,"toosoon":0,"cond_shown":"Incongruent","ratio_trial":100,"L_num":11,"L_den":22,"R_num":9,"R_den":15,"correct_side":2,"subjID":"linabonilla17","gender":"1","school":"4","age":"9"},{"start_time":1552327517293,"click_time":1552327518529,"finger_time":1552327518309,"fix_duration":1102.466268346372,"trial":38,"RT":1016,"MT":220,"sideResp":2,"stimulus":[],"xmouse":[788,788,788,788,788,788,788,788,788,788,788,788,788,788,788,788,788,788,788,788,788,788,788,788,788,788,788,788,788,788,788,788,788,788,788,788,788,788,788,788,788,788,788,788,788,788,788,786,790,801,815,830,845,900,922,943,963,979,1012,1027,1049,1061],"ymouse":[492,492,492,492,492,492,492,492,492,492,492,492,492,492,492,492,492,492,492,492,492,492,492,492,492,492,492,492,492,492,492,492,492,492,492,492,492,492,492,492,492,492,492,492,492,492,492,490,473,454,432,410,389,308,268,231,195,164,104,76,34,13],"timestamp_mouse":[17,36,56,76,96,116,135,156,176,196,216,236,256,277,296,316,336,356,376,396,416,436,457,476,497,515,535,556,576,596,616,636,655,676,696,717,736,756,776,796,816,836,856,876,897,915,936,956,976,996,1016,1036,1057,1077,1096,1116,1136,1157,1176,1196,1216,1236],"xSR":741.5,"ySR":449.15000000000003,"xT1":424.9,"yT1":0,"xT2":1058.1,"yT2":0,"toosoon":0,"cond_shown":"Congruent","ratio_trial":300,"L_num":4,"L_den":20,"R_num":13,"R_den":26,"correct_side":2,"subjID":"linabonilla17","gender":"1","school":"4","age":"9"},{"start_time":1552327525136,"click_time":1552327526430,"finger_time":1552327526089,"fix_duration":906.4159057522188,"trial":39,"RT":953,"MT":341,"sideResp":2,"stimulus":[],"xmouse":[799,799,799,799,799,799,799,799,799,798,798,797,796,796,796,796,796,796,796,796,796,796,796,796,796,796,796,796,796,796,796,796,796,796,796,796,796,796,796,796,796,796,796,796,796,795,806,838,887,929,951,960,961,964,971,980,991,997,1001,1008,1016,1035,1045,1054,1064],"ymouse":[496,496,496,496,496,496,496,496,496,496,496,496,496,496,496,496,496,496,496,496,496,496,496,496,496,496,496,496,496,496,496,496,496,496,496,496,496,496,496,496,496,496,496,496,496,493,458,385,285,198,158,126,121,117,111,105,97,93,90,83,74,47,35,22,11],"timestamp_mouse":[13,33,53,73,93,113,133,154,175,193,214,233,253,273,293,314,333,353,374,393,414,433,453,474,493,514,533,554,574,593,614,634,653,673,693,715,734,753,773,793,814,833,853,873,893,913,933,953,973,993,1013,1033,1053,1073,1094,1113,1133,1153,1173,1193,1214,1234,1253,1273,1293],"xSR":741.5,"ySR":449.15000000000003,"xT1":424.9,"yT1":0,"xT2":1058.1,"yT2":0,"toosoon":0,"cond_shown":"Incongruent","ratio_trial":200,"L_num":7,"L_den":10,"R_num":14,"R_den":28,"correct_side":1,"subjID":"linabonilla17","gender":"1","school":"4","age":"9"},{"start_time":1552327528908,"click_time":1552327536489,"finger_time":1552327533409,"fix_duration":797.9677852557865,"trial":40,"RT":4501,"MT":3080,"sideResp":1,"stimulus":[],"xmouse":[793,793,793,793,793,793,793,793,793,793,793,793,793,793,793,793,793,793,793,793,793,793,793,793,793,793,793,793,793,793,793,793,793,793,792,792,792,792,792,792,792,792,792,792,792,792,792,792,792,792,792,792,792,792,792,792,792,792,792,792,