[{"start_time":1552327540935,"click_time":1552327541455,"finger_time":1552327540948,"fix_duration":673.2336659595552,"trial":0,"RT":13,"MT":507,"sideResp":1,"stimulus":[],"xmouse":[779,779,779,779,779,779,779,779,779,779,779,779,778,774,768,762,751,732,701,611,560,518,483,460,453,448,442],"ymouse":[482,482,482,482,482,482,482,482,481,481,480,480,479,470,459,445,421,387,339,232,187,156,132,117,110,101,85],"timestamp_mouse":[13,21,39,60,79,99,120,139,159,179,200,219,239,259,279,300,319,339,360,379,399,419,440,460,479,499,519],"xSR":741.5,"ySR":469.95,"xT1":424.9,"yT1":0,"xT2":1058.1,"yT2":0,"toosoon":0,"cond_shown":"Congruent","ratio_trial":200,"L_num":15,"L_den":25,"R_num":4,"R_den":10,"correct_side":1,"subjID":"linabeltran11","gender":"1","age":"9","school":"4","test":{"fix_dur":[250,1500],"timestim":1000,"targets_dim":[100,100],"targets_relative_coord":[0.3,0.7],"size_stim":[880,420],"start_dim":[100,100],"size_start":[300,300],"size_fix":60,"samplingrate":20,"img_types":["Congruent","Incongruent"],"ratios":[100,200,300],"rep_conds":19,"nTrials":120,"trials_to_rest":500,"Trials_order":[104,14,83,64,78,47,6,95,49,52,111,105,50,18,2,74,88,119,87,23,65,117,34,28,67,73,11,77,63,70,40,7,71,25,109,46,56,41,10,33,22,32,93,66,76,90,113,99,100,13,101,84,80,58,81,61,79,98,30,20,62,12,94,29,112,55,60,102,115,5,92,107,38,57,39,85,110,8,17,44,3,0,54,69,86,45,96,116,91,103,51,15,9,31,1,36,43,24,68,108,42,4,59,82,35,26,114,48,53,16,72,106,21,19,75,118,97,37,89,27],"cond_shown":["Congruent","Congruent","Incongruent","Congruent","Congruent","Incongruent","Congruent","Incongruent","Incongruent","Congruent","Incongruent","Incongruent","Congruent","Congruent","Congruent","Congruent","Congruent","Incongruent","Incongruent","Incongruent","Incongruent","Incongruent","Congruent","Congruent","Incongruent","Incongruent","Incongruent","Incongruent","Incongruent","Congruent","Congruent","Incongruent","Incongruent","Incongruent","Incongruent","Congruent","Congruent","Incongruent","Congruent","Incongruent","Congruent","Congruent","Incongruent","Congruent","Congruent","Congruent","Incongruent","Incongruent","Congruent","Incongruent","Incongruent","Congruent","Congruent","Congruent","Incongruent","Incongruent","Incongruent","Congruent","Congruent","Congruent","Congruent","Congruent","Congruent","Incongruent","Congruent","Incongruent","Congruent","Congruent","Incongruent","Incongruent","Congruent","Incongruent","Congruent","Incongruent","Incongruent","Incongruent","Congruent","Congruent","Incongruent","Congruent","Incongruent","Congruent","Congruent","Incongruent","Congruent","Incongruent","Congruent","Congruent","Incongruent","Incongruent","Incongruent","Incongruent","Incongruent","Incongruent","Incongruent","Congruent","Incongruent","Congruent","Congruent","Congruent","Congruent","Congruent","Incongruent","Congruent","Incongruent","Congruent","Congruent","Congruent","Incongruent","Congruent","Congruent","Congruent","Incongruent","Incongruent","Incongruent","Congruent","Incongruent","Incongruent","Incongruent","Incongruent"],"ratio_trial":[200,200,300,300,100,300,100,300,100,300,200,200,200,100,200,200,300,300,200,300,300,200,300,300,100,100,300,300,200,300,300,100,300,100,100,300,200,300,300,200,300,200,200,100,300,100,300,200,300,100,300,100,200,300,200,100,100,200,100,200,200,100,300,300,300,100,100,100,100,300,200,300,200,200,200,100,200,200,300,200,200,100,100,200,200,200,100,200,100,100,200,200,200,100,100,100,100,100,200,100,100,300,300,300,300,200,100,100,300,300,100,300,200,100,200,300,100,100,300,200],"left_num":[15,7,4,11,1,4,4,13,3,1,7,7,3,15,7,12,11,4,7,13,4,4,2,24,2,3,1,4,7,2,7,3,4,13,13,18,3,8,4,3,9,3,14,4,20,6,13,7,1,6,4,2,12,1,9,2,1,6,7,12,9,3,20,4,5,13,6,4,13,4,9,4,4,4,1,10,3,3,13,4,7,11,1,7,12,3,8,4,13,17,4,7,4,10,9,10,2,1,4,1,2,3,4,1,8,21,1,10,4,3,1,2,7,4,7,12,6,10,4,7],"right_num":[4,18,6,2,18,2,15,12,7,11,8,4,9,13,18,6,2,8,6,12,2,6,12,2,6,7,2,2,6,12,20,7,2,12,6,9,14,9,1,11,3,11,6,6,9,5,12,8,7,7,6,6,6,6,8,8,8,3,15,6,13,2,13,2,6,6,5,15,12,2,13,2,3,14,2,8,7,14,12,3,4,6,3,6,6,1,2,3,12,10,14,6,1,8,13,3,6,18,3,18,11,4,2,11,14,2,18,3,2,2,18,10,8,8,8,2,13,9,2,8],"left_den":[25,15,5,22,2,20,10,26,9,5,10,15,12,25,15,15,22,5,15,26,20,5,10,30,4,9,2,20,15,10,14,9,20,26,26,20,10,10,10,4,10,10,30,8,25,20,26,10,20,10,5,5,20,5,15,4,2,15,14,20,30,6,25,20,25,26,20,10,26,20,30,20,8,6,3,25,10,6,26,8,15,22,2,15,20,10,16,10,26,30,6,15,30,25,15,25,4,2,8,2,5,6,20,5,10,30,2,25,20,6,2,20,10,8,10,24,10,25,20,10],"right_den":[10,27,12,10,30,4,30,15,30,22,16,6,20,26,27,10,10,16,9,15,4,10,24,4,15,30,10,4,9,24,25,30,4,20,10,15,28,18,10,20,5,22,9,10,18,25,15,16,20,14,12,12,15,12,10,20,20,15,25,15,26,5,26,4,12,10,25,30,20,4,26,4,10,30,15,16,14,20,15,10,6,15,5,9,15,2,5,15,20,15,30,9,3,16,26,10,15,30,10,30,22,5,4,22,28,4,30,10,4,10,30,25,16,20,16,10,26,18,4,16],"correct_side":[1,2,1,1,2,2,2,2,1,2,1,2,2,1,2,1,1,1,2,2,2,1,2,1,1,1,1,2,2,2,2,1,2,2,2,1,2,1,1,1,1,2,2,2,1,1,2,1,2,1,1,2,1,2,2,1,1,1,2,1,2,1,1,2,2,2,1,2,2,2,2,2,1,1,1,2,2,2,2,1,2,1,2,2,1,2,1,1,2,2,1,2,2,2,1,1,1,2,1,2,2,2,2,2,1,1,2,1,2,1,2,2,1,1,1,1,1,2,2,1],"img_shown":["img2/200/Congruent/L/C_Dist_200_LN_15_LD_25_RN_4_RD_10_0.png","img2/200/Congruent/R/C_Dist_200_LN_7_LD_15_RN_18_RD_27_1.png","img2/300/Incongruent/L/I_Dist_300_LN_4_LD_5_RN_6_RD_12_0.png","img2/300/Congruent/L/C_Dist_300_LN_11_LD_22_RN_2_RD_10_0.png","img2/100/Congruent/R/C_Dist_100_LN_1_LD_2_RN_18_RD_30_1.png","img2/300/Incongruent/R/I_Dist_300_LN_4_LD_20_RN_2_RD_4_1.png","img2/100/Congruent/R/C_Dist_100_LN_4_LD_10_RN_15_RD_30_1.png","img2/300/Incongruent/R/I_Dist_300_LN_13_LD_26_RN_12_RD_15_1.png","img2/100/Incongruent/L/I_Dist_100_LN_3_LD_9_RN_7_RD_30_0.png","img2/300/Congruent/R/C_Dist_300_LN_1_LD_5_RN_11_RD_22_1.png","img2/200/Incongruent/L/I_Dist_200_LN_7_LD_10_RN_8_RD_16_0.png","img2/200/Incongruent/R/I_Dist_200_LN_7_LD_15_RN_4_RD_6_1.png","img2/200/Congruent/R/C_Dist_200_LN_3_LD_12_RN_9_RD_20_1.png","img2/100/Congruent/L/C_Dist_100_LN_15_LD_25_RN_13_RD_26_0.png","img2/200/Congruent/R/C_Dist_200_LN_7_LD_15_RN_18_RD_27_1.png","img2/200/Congruent/L/C_Dist_200_LN_12_LD_15_RN_6_RD_10_0.png","img2/300/Congruent/L/C_Dist_300_LN_11_LD_22_RN_2_RD_10_0.png","img2/300/Incongruent/L/I_Dist_300_LN_4_LD_5_RN_8_RD_16_0.png","img2/200/Incongruent/R/I_Dist_200_LN_7_LD_15_RN_6_RD_9_1.png","img2/300/Incongruent/R/I_Dist_300_LN_13_LD_26_RN_12_RD_15_1.png","img2/300/Incongruent/R/I_Dist_300_LN_4_LD_20_RN_2_RD_4_1.png","img2/200/Incongruent/L/I_Dist_200_LN_4_LD_5_RN_6_RD_10_0.png","img2/300/Congruent/R/C_Dist_300_LN_2_LD_10_RN_12_RD_24_1.png","img2/300/Congruent/L/C_Dist_300_LN_24_LD_30_RN_2_RD_4_0.png","img2/100/Incongruent/L/I_Dist_100_LN_2_LD_4_RN_6_RD_15_0.png","img2/100/Incongruent/L/I_Dist_100_LN_3_LD_9_RN_7_RD_30_0.png","img2/300/Incongruent/L/I_Dist_300_LN_1_LD_2_RN_2_RD_10_0.png","img2/300/Incongruent/R/I_Dist_300_LN_4_LD_20_RN_2_RD_4_1.png","img2/200/Incongruent/R/I_Dist_200_LN_7_LD_15_RN_6_RD_9_1.png","img2/300/Congruent/R/C_Dist_300_LN_2_LD_10_RN_12_RD_24_1.png","img2/300/Congruent/R/C_Dist_300_LN_7_LD_14_RN_20_RD_25_1.png","img2/100/Incongruent/L/I_Dist_100_LN_3_LD_9_RN_7_RD_30_0.png","img2/300/Incongruent/R/I_Dist_300_LN_4_LD_20_RN_2_RD_4_1.png","img2/100/Incongruent/R/I_Dist_100_LN_13_LD_26_RN_12_RD_20_1.png","img2/100/Incongruent/R/I_Dist_100_LN_13_LD_26_RN_6_RD_10_1.png","img2/300/Congruent/L/C_Dist_300_LN_18_LD_20_RN_9_RD_15_0.png","img2/200/Congruent/R/C_Dist_200_LN_3_LD_10_RN_14_RD_28_1.png","img2/300/Incongruent/L/I_Dist_300_LN_8_LD_10_RN_9_RD_18_0.png","img2/300/Congruent/L/C_Dist_300_LN_4_LD_10_RN_1_RD_10_0.png","img2/200/Incongruent/L/I_Dist_200_LN_3_LD_4_RN_11_RD_20_0.png","img2/300/Congruent/L/C_Dist_300_LN_9_LD_10_RN_3_RD_5_0.png","img2/200/Congruent/R/C_Dist_200_LN_3_LD_10_RN_11_RD_22_1.png","img2/200/Incongruent/R/I_Dist_200_LN_14_LD_30_RN_6_RD_9_1.png","img2/100/Congruent/R/C_Dist_100_LN_4_LD_8_RN_6_RD_10_1.png","img2/300/Congruent/L/C_Dist_300_LN_20_LD_25_RN_9_RD_18_0.png","img2/100/Congruent/L/C_Dist_100_LN_6_LD_20_RN_5_RD_25_0.png","img2/300/Incongruent/R/I_Dist_300_LN_13_LD_26_RN_12_RD_15_1.png","img2/200/Incongruent/L/I_Dist_200_LN_7_LD_10_RN_8_RD_16_0.png","img2/300/Congruent/R/C_Dist_300_LN_1_LD_20_RN_7_RD_20_1.png","img2/100/Incongruent/L/I_Dist_100_LN_6_LD_10_RN_7_RD_14_0.png","img2/300/Incongruent/L/I_Dist_300_LN_4_LD_5_RN_6_RD_12_0.png","img2/100/Congruent/R/C_Dist_100_LN_2_LD_5_RN_6_RD_12_1.png","img2/200/Congruent/L/C_Dist_200_LN_12_LD_20_RN_6_RD_15_0.png","img2/300/Congruent/R/C_Dist_300_LN_1_LD_5_RN_6_RD_12_1.png","img2/200/Incongruent/R/I_Dist_200_LN_9_LD_15_RN_8_RD_10_1.png","img2/100/Incongruent/L/I_Dist_100_LN_2_LD_4_RN_8_RD_20_0.png","img2/100/Incongruent/L/I_Dist_100_LN_1_LD_2_RN_8_RD_20_0.png","img2/200/Congruent/L/C_Dist_200_LN_6_LD_15_RN_3_RD_15_0.png","img2/100/Congruent/R/C_Dist_100_LN_7_LD_14_RN_15_RD_25_1.png","img2/200/Congruent/L/C_Dist_200_LN_12_LD_20_RN_6_RD_15_0.png","img2/200/Congruent/R/C_Dist_200_LN_9_LD_30_RN_13_RD_26_1.png","img2/100/Congruent/L/C_Dist_100_LN_3_LD_6_RN_2_RD_5_0.png","img2/300/Congruent/L/C_Dist_300_LN_20_LD_25_RN_13_RD_26_0.png","img2/300/Incongruent/R/I_Dist_300_LN_4_LD_20_RN_2_RD_4_1.png","img2/300/Congruent/R/C_Dist_300_LN_5_LD_25_RN_6_RD_12_1.png","img2/100/Incongruent/R/I_Dist_100_LN_13_LD_26_RN_6_RD_10_1.png","img2/100/Congruent/L/C_Dist_100_LN_6_LD_20_RN_5_RD_25_0.png","img2/100/Congruent/R/C_Dist_100_LN_4_LD_10_RN_15_RD_30_1.png","img2/100/Incongruent/R/I_Dist_100_LN_13_LD_26_RN_12_RD_20_1.png","img2/300/Incongruent/R/I_Dist_300_LN_4_LD_20_RN_2_RD_4_1.png","img2/200/Congruent/R/C_Dist_200_LN_9_LD_30_RN_13_RD_26_1.png","img2/300/Incongruent/R/I_Dist_300_LN_4_LD_20_RN_2_RD_4_1.png","img2/200/Congruent/L/C_Dist_200_LN_4_LD_8_RN_3_RD_10_0.png","img2/200/Incongruent/L/I_Dist_200_LN_4_LD_6_RN_14_RD_30_0.png","img2/200/Incongruent/L/I_Dist_200_LN_1_LD_3_RN_2_RD_15_0.png","img2/100/Incongruent/R/I_Dist_100_LN_10_LD_25_RN_8_RD_16_1.png","img2/200/Congruent/R/C_Dist_200_LN_3_LD_10_RN_7_RD_14_1.png","img2/200/Congruent/R/C_Dist_200_LN_3_LD_6_RN_14_RD_20_1.png","img2/300/Incongruent/R/I_Dist_300_LN_13_LD_26_RN_12_RD_15_1.png","img2/200/Congruent/L/C_Dist_200_LN_4_LD_8_RN_3_RD_10_0.png","img2/200/Incongruent/R/I_Dist_200_LN_7_LD_15_RN_4_RD_6_1.png","img2/100/Congruent/L/C_Dist_100_LN_11_LD_22_RN_6_RD_15_0.png","img2/100/Congruent/R/C_Dist_100_LN_1_LD_2_RN_3_RD_5_1.png","img2/200/Incongruent/R/I_Dist_200_LN_7_LD_15_RN_6_RD_9_1.png","img2/200/Congruent/L/C_Dist_200_LN_12_LD_20_RN_6_RD_15_0.png","img2/200/Incongruent/R/I_Dist_200_LN_3_LD_10_RN_1_RD_2_1.png","img2/100/Congruent/L/C_Dist_100_LN_8_LD_16_RN_2_RD_5_0.png","img2/200/Congruent/L/C_Dist_200_LN_4_LD_10_RN_3_RD_15_0.png","img2/100/Incongruent/R/I_Dist_100_LN_13_LD_26_RN_12_RD_20_1.png","img2/100/Incongruent/R/I_Dist_100_LN_17_LD_30_RN_10_RD_15_1.png","img2/200/Incongruent/L/I_Dist_200_LN_4_LD_6_RN_14_RD_30_0.png","img2/200/Incongruent/R/I_Dist_200_LN_7_LD_15_RN_6_RD_9_1.png","img2/200/Incongruent/R/I_Dist_200_LN_4_LD_30_RN_1_RD_3_1.png","img2/100/Incongruent/R/I_Dist_100_LN_10_LD_25_RN_8_RD_16_1.png","img2/100/Incongruent/L/I_Dist_100_LN_9_LD_15_RN_13_RD_26_0.png","img2/100/Congruent/L/C_Dist_100_LN_10_LD_25_RN_3_RD_10_0.png","img2/100/Incongruent/L/I_Dist_100_LN_2_LD_4_RN_6_RD_15_0.png","img2/100/Congruent/R/C_Dist_100_LN_1_LD_2_RN_18_RD_30_1.png","img2/200/Congruent/L/C_Dist_200_LN_4_LD_8_RN_3_RD_10_0.png","img2/100/Congruent/R/C_Dist_100_LN_1_LD_2_RN_18_RD_30_1.png","img2/100/Congruent/R/C_Dist_100_LN_2_LD_5_RN_11_RD_22_1.png","img2/300/Congruent/R/C_Dist_300_LN_3_LD_6_RN_4_RD_5_1.png","img2/300/Incongruent/R/I_Dist_300_LN_4_LD_20_RN_2_RD_4_1.png","img2/300/Congruent/R/C_Dist_300_LN_1_LD_5_RN_11_RD_22_1.png","img2/300/Incongruent/L/I_Dist_300_LN_8_LD_10_RN_14_RD_28_0.png","img2/200/Congruent/L/C_Dist_200_LN_21_LD_30_RN_2_RD_4_0.png","img2/100/Congruent/R/C_Dist_100_LN_1_LD_2_RN_18_RD_30_1.png","img2/100/Congruent/L/C_Dist_100_LN_10_LD_25_RN_3_RD_10_0.png","img2/300/Incongruent/R/I_Dist_300_LN_4_LD_20_RN_2_RD_4_1.png","img2/300/Congruent/L/C_Dist_300_LN_3_LD_6_RN_2_RD_10_0.png","img2/100/Congruent/R/C_Dist_100_LN_1_LD_2_RN_18_RD_30_1.png","img2/300/Congruent/R/C_Dist_300_LN_2_LD_20_RN_10_RD_25_1.png","img2/200/Incongruent/L/I_Dist_200_LN_7_LD_10_RN_8_RD_16_0.png","img2/100/Incongruent/L/I_Dist_100_LN_4_LD_8_RN_8_RD_20_0.png","img2/200/Incongruent/L/I_Dist_200_LN_7_LD_10_RN_8_RD_16_0.png","img2/300/Congruent/L/C_Dist_300_LN_12_LD_24_RN_2_RD_10_0.png","img2/100/Incongruent/L/I_Dist_100_LN_6_LD_10_RN_13_RD_26_0.png","img2/100/Incongruent/R/I_Dist_100_LN_10_LD_25_RN_9_RD_18_1.png","img2/300/Incongruent/R/I_Dist_300_LN_4_LD_20_RN_2_RD_4_1.png","img2/200/Incongruent/L/I_Dist_200_LN_7_LD_10_RN_8_RD_16_0.png"],"dist100_C":[["C_Dist_100_LN_10_LD_25_RN_3_RD_10_0.png","C_Dist_100_LN_11_LD_22_RN_4_RD_10_0.png","C_Dist_100_LN_11_LD_22_RN_6_RD_15_0.png","C_Dist_100_LN_15_LD_25_RN_13_RD_26_0.png","C_Dist_100_LN_3_LD_6_RN_2_RD_5_0.png","C_Dist_100_LN_6_LD_20_RN_5_RD_25_0.png","C_Dist_100_LN_8_LD_16_RN_2_RD_5_0.png","C_Dist_100_LN_9_LD_15_RN_8_RD_16_0.png"],["C_Dist_100_LN_1_LD_2_RN_18_RD_30_1.png","C_Dist_100_LN_1_LD_2_RN_3_RD_5_1.png","C_Dist_100_LN_12_LD_30_RN_13_RD_26_1.png","C_Dist_100_LN_2_LD_5_RN_11_RD_22_1.png","C_Dist_100_LN_2_LD_5_RN_6_RD_12_1.png","C_Dist_100_LN_3_LD_20_RN_4_RD_16_1.png","C_Dist_100_LN_4_LD_10_RN_15_RD_30_1.png","C_Dist_100_LN_4_LD_8_RN_6_RD_10_1.png","C_Dist_100_LN_6_LD_12_RN_15_RD_25_1.png","C_Dist_100_LN_7_LD_14_RN_15_RD_25_1.png","C_Dist_100_LN_7_LD_14_RN_9_RD_15_1.png"]],"dist100_I":[["I_Dist_100_LN_1_LD_2_RN_8_RD_20_0.png","I_Dist_100_LN_2_LD_4_RN_6_RD_15_0.png","I_Dist_100_LN_2_LD_4_RN_8_RD_20_0.png","I_Dist_100_LN_3_LD_5_RN_11_RD_22_0.png","I_Dist_100_LN_3_LD_5_RN_8_RD_16_0.png","I_Dist_100_LN_3_LD_6_RN_4_RD_10_0.png","I_Dist_100_LN_3_LD_9_RN_7_RD_30_0.png","I_Dist_100_LN_4_LD_8_RN_8_RD_20_0.png","I_Dist_100_LN_6_LD_10_RN_11_RD_22_0.png","I_Dist_100_LN_6_LD_10_RN_13_RD_26_0.png","I_Dist_100_LN_6_LD_10_RN_7_RD_14_0.png","I_Dist_100_LN_9_LD_10_RN_20_RD_25_0.png","I_Dist_100_LN_9_LD_15_RN_13_RD_26_0.png","I_Dist_100_LN_9_LD_15_RN_14_RD_28_0.png"],["I_Dist_100_LN_10_LD_25_RN_8_RD_16_1.png","I_Dist_100_LN_10_LD_25_RN_9_RD_18_1.png","I_Dist_100_LN_11_LD_22_RN_9_RD_15_1.png","I_Dist_100_LN_12_LD_24_RN_9_RD_15_1.png","I_Dist_100_LN_12_LD_30_RN_2_RD_4_1.png","I_Dist_100_LN_13_LD_26_RN_12_RD_20_1.png","I_Dist_100_LN_13_LD_26_RN_6_RD_10_1.png","I_Dist_100_LN_17_LD_30_RN_10_RD_15_1.png","I_Dist_100_LN_6_LD_12_RN_3_RD_5_1.png","I_Dist_100_LN_8_LD_16_RN_6_RD_10_1.png","I_Dist_100_LN_8_LD_20_RN_1_RD_2_1.png","I_Dist_100_LN_9_LD_18_RN_6_RD_10_1.png"]],"dist100_S":[["E_Dist_100_LN_2_LD_12_RN_2_RD_30_0.png","E_Dist_100_LN_6_LD_10_RN_6_RD_12_0.png"],["E_Dist_100_LN_6_LD_12_RN_6_RD_10_1.png"]],"dist200_C":[["C_Dist_200_LN_11_LD_22_RN_3_RD_10_0.png","C_Dist_200_LN_12_LD_15_RN_6_RD_10_0.png","C_Dist_200_LN_12_LD_20_RN_6_RD_15_0.png","C_Dist_200_LN_14_LD_28_RN_6_RD_20_0.png","C_Dist_200_LN_15_LD_25_RN_4_RD_10_0.png","C_Dist_200_LN_16_LD_20_RN_12_RD_20_0.png","C_Dist_200_LN_16_LD_30_RN_9_RD_27_0.png","C_Dist_200_LN_20_LD_25_RN_9_RD_15_0.png","C_Dist_200_LN_21_LD_30_RN_2_RD_4_0.png","C_Dist_200_LN_4_LD_10_RN_3_RD_15_0.png","C_Dist_200_LN_4_LD_8_RN_3_RD_10_0.png","C_Dist_200_LN_6_LD_15_RN_3_RD_15_0.png","C_Dist_200_LN_7_LD_21_RN_2_RD_15_0.png","C_Dist_200_LN_8_LD_15_RN_2_RD_6_0.png","C_Dist_200_LN_8_LD_15_RN_3_RD_9_0.png","C_Dist_200_LN_8_LD_15_RN_7_RD_21_0.png","C_Dist_200_LN_9_LD_20_RN_4_RD_16_0.png"],["C_Dist_200_LN_1_LD_2_RN_21_RD_30_1.png","C_Dist_200_LN_13_LD_26_RN_14_RD_20_1.png","C_Dist_200_LN_3_LD_10_RN_11_RD_22_1.png","C_Dist_200_LN_3_LD_10_RN_14_RD_28_1.png","C_Dist_200_LN_3_LD_10_RN_7_RD_14_1.png","C_Dist_200_LN_3_LD_12_RN_9_RD_20_1.png","C_Dist_200_LN_3_LD_6_RN_14_RD_20_1.png","C_Dist_200_LN_5_LD_10_RN_14_RD_20_1.png","C_Dist_200_LN_6_LD_12_RN_7_RD_10_1.png","C_Dist_200_LN_6_LD_20_RN_11_RD_22_1.png","C_Dist_200_LN_7_LD_15_RN_18_RD_27_1.png","C_Dist_200_LN_9_LD_30_RN_13_RD_26_1.png"]],"dist200_I":[["I_Dist_200_LN_1_LD_2_RN_3_RD_10_0.png","I_Dist_200_LN_1_LD_3_RN_2_RD_15_0.png","I_Dist_200_LN_3_LD_4_RN_11_RD_20_0.png","I_Dist_200_LN_4_LD_5_RN_6_RD_10_0.png","I_Dist_200_LN_4_LD_6_RN_14_RD_30_0.png","I_Dist_200_LN_7_LD_10_RN_12_RD_24_0.png","I_Dist_200_LN_7_LD_10_RN_14_RD_28_0.png","I_Dist_200_LN_7_LD_10_RN_8_RD_16_0.png"],["I_Dist_200_LN_11_LD_20_RN_3_RD_4_1.png","I_Dist_200_LN_14_LD_30_RN_12_RD_18_1.png","I_Dist_200_LN_14_LD_30_RN_6_RD_9_1.png","I_Dist_200_LN_3_LD_10_RN_1_RD_2_1.png","I_Dist_200_LN_4_LD_30_RN_1_RD_3_1.png","I_Dist_200_LN_6_LD_20_RN_3_RD_6_1.png","I_Dist_200_LN_7_LD_15_RN_4_RD_6_1.png","I_Dist_200_LN_7_LD_15_RN_6_RD_9_1.png","I_Dist_200_LN_9_LD_15_RN_8_RD_10_1.png"]],"dist200_S":[["E_Dist_200_LN_3_LD_6_RN_3_RD_10_0.png"],["E_Dist_200_LN_3_LD_10_RN_3_RD_6_1.png"]],"dist300_C":[["C_Dist_300_LN_11_LD_22_RN_1_RD_5_0.png","C_Dist_300_LN_11_LD_22_RN_2_RD_10_0.png","C_Dist_300_LN_11_LD_22_RN_4_RD_20_0.png","C_Dist_300_LN_12_LD_24_RN_2_RD_10_0.png","C_Dist_300_LN_18_LD_20_RN_9_RD_15_0.png","C_Dist_300_LN_20_LD_25_RN_13_RD_26_0.png","C_Dist_300_LN_20_LD_25_RN_14_RD_28_0.png","C_Dist_300_LN_20_LD_25_RN_5_RD_10_0.png","C_Dist_300_LN_20_LD_25_RN_8_RD_16_0.png","C_Dist_300_LN_20_LD_25_RN_9_RD_18_0.png","C_Dist_300_LN_24_LD_30_RN_2_RD_4_0.png","C_Dist_300_LN_24_LD_30_RN_8_RD_16_0.png","C_Dist_300_LN_3_LD_6_RN_2_RD_10_0.png","C_Dist_300_LN_4_LD_10_RN_1_RD_10_0.png","C_Dist_300_LN_4_LD_5_RN_2_RD_4_0.png","C_Dist_300_LN_8_LD_16_RN_1_RD_5_0.png","C_Dist_300_LN_9_LD_10_RN_3_RD_5_0.png"],["C_Dist_300_LN_1_LD_20_RN_7_RD_20_1.png","C_Dist_300_LN_1_LD_3_RN_19_RD_30_1.png","C_Dist_300_LN_1_LD_30_RN_8_RD_24_1.png","C_Dist_300_LN_1_LD_5_RN_11_RD_22_1.png","C_Dist_300_LN_1_LD_5_RN_3_RD_6_1.png","C_Dist_300_LN_1_LD_5_RN_6_RD_12_1.png","C_Dist_300_LN_2_LD_10_RN_12_RD_24_1.png","C_Dist_300_LN_2_LD_20_RN_10_RD_25_1.png","C_Dist_300_LN_3_LD_12_RN_11_RD_20_1.png","C_Dist_300_LN_3_LD_6_RN_4_RD_5_1.png","C_Dist_300_LN_4_LD_20_RN_13_RD_26_1.png","C_Dist_300_LN_5_LD_25_RN_6_RD_12_1.png","C_Dist_300_LN_5_LD_25_RN_7_RD_14_1.png","C_Dist_300_LN_7_LD_14_RN_20_RD_25_1.png","C_Dist_300_LN_8_LD_15_RN_10_RD_12_1.png"]],"dist300_I":[["I_Dist_300_LN_1_LD_2_RN_2_RD_10_0.png","I_Dist_300_LN_1_LD_2_RN_3_RD_15_0.png","I_Dist_300_LN_2_LD_4_RN_6_RD_30_0.png","I_Dist_300_LN_3_LD_6_RN_4_RD_20_0.png","I_Dist_300_LN_4_LD_5_RN_6_RD_12_0.png","I_Dist_300_LN_4_LD_5_RN_8_RD_16_0.png","I_Dist_300_LN_7_LD_10_RN_8_RD_20_0.png","I_Dist_300_LN_8_LD_10_RN_14_RD_28_0.png","I_Dist_300_LN_8_LD_10_RN_9_RD_18_0.png"],["I_Dist_300_LN_13_LD_26_RN_12_RD_15_1.png","I_Dist_300_LN_4_LD_20_RN_2_RD_4_1.png"]],"dist300_S":[["E_Dist_300_LN_9_LD_12_RN_9_RD_20_0.png"],["E_Dist_300_LN_18_LD_30_RN_18_RD_20_1.png","E_Dist_300_LN_3_LD_10_RN_3_RD_5_1.png","E_Dist_300_LN_9_LD_20_RN_9_RD_12_1.png"]],"dist500_C":[["C_Dist_500_LN_10_LD_13_RN_7_RD_26_0.png","C_Dist_500_LN_10_LD_15_RN_4_RD_24_0.png","C_Dist_500_LN_12_LD_16_RN_3_RD_12_0.png","C_Dist_500_LN_12_LD_18_RN_4_RD_24_0.png","C_Dist_500_LN_15_LD_18_RN_5_RD_15_0.png","C_Dist_500_LN_15_LD_20_RN_1_RD_4_0.png","C_Dist_500_LN_18_LD_27_RN_1_RD_6_0.png","C_Dist_500_LN_20_LD_24_RN_1_RD_3_0.png","C_Dist_500_LN_20_LD_24_RN_3_RD_9_0.png","C_Dist_500_LN_20_LD_24_RN_7_RD_21_0.png","C_Dist_500_LN_20_LD_28_RN_3_RD_14_0.png","C_Dist_500_LN_21_LD_28_RN_6_RD_24_0.png","C_Dist_500_LN_22_LD_28_RN_2_RD_7_0.png","C_Dist_500_LN_25_LD_30_RN_9_RD_27_0.png","C_Dist_500_LN_4_LD_6_RN_1_RD_6_0.png","C_Dist_500_LN_5_LD_6_RN_2_RD_6_0.png","C_Dist_500_LN_6_LD_9_RN_1_RD_6_0.png","C_Dist_500_LN_7_LD_10_RN_1_RD_5_0.png","C_Dist_500_LN_8_LD_12_RN_1_RD_6_0.png","C_Dist_500_LN_8_LD_12_RN_4_RD_24_0.png"],["C_Dist_500_LN_1_LD_4_RN_12_RD_16_1.png","C_Dist_500_LN_1_LD_4_RN_9_RD_12_1.png","C_Dist_500_LN_1_LD_9_RN_11_RD_18_1.png","C_Dist_500_LN_10_LD_24_RN_22_RD_24_1.png","C_Dist_500_LN_2_LD_12_RN_10_RD_15_1.png","C_Dist_500_LN_2_LD_12_RN_12_RD_18_1.png","C_Dist_500_LN_2_LD_12_RN_4_RD_6_1.png","C_Dist_500_LN_2_LD_24_RN_7_RD_12_1.png","C_Dist_500_LN_2_LD_5_RN_18_RD_20_1.png","C_Dist_500_LN_2_LD_5_RN_9_RD_10_1.png","C_Dist_500_LN_2_LD_8_RN_12_RD_16_1.png","C_Dist_500_LN_2_LD_8_RN_21_RD_28_1.png","C_Dist_500_LN_3_LD_10_RN_4_RD_5_1.png","C_Dist_500_LN_3_LD_12_RN_15_RD_20_1.png","C_Dist_500_LN_3_LD_30_RN_6_RD_10_1.png","C_Dist_500_LN_3_LD_8_RN_14_RD_16_1.png","C_Dist_500_LN_4_LD_16_RN_15_RD_20_1.png","C_Dist_500_LN_4_LD_24_RN_12_RD_18_1.png","C_Dist_500_LN_5_LD_14_RN_6_RD_7_1.png","C_Dist_500_LN_7_LD_21_RN_20_RD_24_1.png","C_Dist_500_LN_7_LD_28_RN_12_RD_16_1.png","C_Dist_500_LN_7_LD_28_RN_9_RD_12_1.png","C_Dist_500_LN_9_LD_27_RN_20_RD_24_1.png"]],"dist500_I":[["I_Dist_500_LN_2_LD_3_RN_4_RD_24_0.png","I_Dist_500_LN_5_LD_6_RN_6_RD_18_0.png","I_Dist_500_LN_7_LD_8_RN_9_RD_24_0.png"],["I_Dist_500_LN_7_LD_21_RN_5_RD_6_1.png"]],"dist500_S":[["E_Dist_500_LN_6_LD_8_RN_6_RD_24_0.png"],["E_Dist_500_LN_2_LD_12_RN_2_RD_3_1.png","E_Dist_500_LN_6_LD_24_RN_6_RD_8_1.png"]]}},{"start_time":1552327543248,"click_time":1552327544975,"finger_time":1552327544695,"fix_duration":531.9520325837263,"trial":1,"RT":1447,"MT":280,"sideResp":2,"stimulus":[],"xmouse":[794,794,795,796,797,797,797,798,798,798,798,798,798,798,798,798,798,798,798,798,798,798,798,798,798,798,798,798,799,799,799,799,799,799,799,799,799,799,799,799,799,799,799,799,799,799,799,799,799,799,799,799,799,799,799,800,800,800,800,800,800,800,800,800,800,800,801,802,803,804,807,809,811,821,840,865,889,930,942,954,964,978,1010,1024,1038,1052,1065],"ymouse":[540,540,540,540,540,540,540,540,540,540,540,540,540,540,540,540,540,540,540,540,540,540,540,540,540,540,540,540,540,540,540,540,540,540,540,540,540,540,540,540,540,540,540,540,540,540,540,540,540,540,540,540,540,540,540,540,540,540,540,540,540,540,540,540,540,540,539,538,536,533,521,508,492,447,407,358,315,256,238,221,208,190,158,140,124,108,90],"timestamp_mouse":[6,26,49,67,86,106,128,147,168,186,206,227,246,267,286,307,328,347,367,387,406,427,447,467,487,507,527,547,567,586,608,627,646,666,688,707,726,746,767,787,807,828,847,867,886,906,926,947,966,986,1006,1026,1047,1066,1087,1108,1126,1147,1166,1187,1207,1227,1247,1267,1287,1307,1326,1346,1366,1386,1406,1426,1447,1467,1486,1506,1527,1547,1566,1586,1606,1626,1647,1666,1686,1707,1727],"xSR":741.5,"ySR":501.8,"xT1":424.9,"yT1":0,"xT2":1058.1,"yT2":0,"toosoon":0,"cond_shown":"Congruent","ratio_trial":200,"L_num":7,"L_den":15,"R_num":18,"R_den":27,"correct_side":2,"subjID":"linabeltran11","gender":"1","school":"4","age":"9"},{"start_time":1552327546974,"click_time":1552327548196,"finger_time":1552327548094,"fix_duration":897.4694057950716,"trial":2,"RT":1120,"MT":102,"sideResp":2,"stimulus":[],"xmouse":[784,784,784,784,784,784,784,784,784,784,784,784,784,784,784,784,784,784,784,784,784,784,784,784,784,784,784,784,784,784,784,784,784,784,784,784,784,784,784,784,784,784,784,784,784,784,784,784,784,784,784,784,786,789,796,807,824,896,945,996,1040,1079],"ymouse":[561,561,561,561,561,561,561,561,561,561,561,561,561,561,561,561,561,561,561,561,561,561,561,561,561,561,561,561,561,561,561,560,560,560,560,560,560,560,560,560,560,560,560,560,560,560,560,560,560,560,560,559,554,551,537,519,485,363,270,179,97,9],"timestamp_mouse":[17,31,43,61,80,100,120,141,160,180,200,221,240,260,280,300,320,341,360,380,401,420,440,460,480,500,520,540,560,580,600,621,641,660,680,700,720,740,762,781,801,820,841,860,880,900,920,941,961,982,1001,1020,1041,1060,1081,1101,1120,1140,1162,1181,1200,1221],"xSR":741.5,"ySR":501.8,"xT1":424.9,"yT1":0,"xT2":1058.1,"yT2":0,"toosoon":0,"cond_shown":"Incongruent","ratio_trial":300,"L_num":4,"L_den":5,"R_num":6,"R_den":12,"correct_side":1,"subjID":"linabeltran11","gender":"1","school":"4","age":"9"},{"start_time":1552327551362,"click_time":1552327553135,"finger_time":1552327552814,"fix_duration":1186.1976452018407,"trial":3,"RT":1452,"MT":321,"sideResp":1,"stimulus":[],"xmouse":[778,778,778,778,778,779,781,782,783,783,784,786,787,787,787,787,787,787,788,789,790,791,791,791,791,792,792,792,792,792,792,792,792,792,792,792,792,792,792,792,792,792,792,792,792,792,792,792,792,792,792,792,792,792,792,793,793,793,793,793,793,793,793,793,793,793,793,793,793,792,790,782,742,703,657,618,550,536,529,528,528,527,525,520,516,513,508,503,496],"ymouse":[548,548,548,548,548,548,548,547,546,546,545,543,542,540,540,540,540,540,540,539,538,537,536,536,536,536,536,536,536,536,536,536,536,536,536,536,536,536,536,536,536,536,536,536,536,536,536,536,536,536,536,536,536,536,536,536,536,536,536,536,536,536,536,536,536,536,536,536,536,536,535,524,472,419,363,315,235,217,208,207,207,194,178,161,146,135,114,101,87],"timestamp_mouse":[15,37,52,73,93,112,133,153,172,194,213,232,253,273,294,313,333,352,372,392,412,432,453,472,492,512,533,553,573,594,613,632,653,673,692,713,732,754,774,792,812,832,853,873,893,913,932,953,972,992,1012,1033,1052,1072,1093,1114,1133,1152,1173,1194,1214,1233,1253,1273,1293,1314,1333,1353,1373,1392,1413,1432,1452,1472,1492,1513,1533,1552,1572,1593,1612,1633,1652,1673,1692,1712,1734,1752,1773],"xSR":741.5,"ySR":501.8,"xT1":424.9,"yT1":0,"xT2":1058.1,"yT2":0,"toosoon":0,"cond_shown":"Congruent","ratio_trial":300,"L_num":11,"L_den":22,"R_num":2,"R_den":10,"correct_side":1,"subjID":"linabeltran11","gender":"1","school":"4","age":"9"},{"start_time":1552327555504,"click_time":1552327556334,"finger_time":1552327555914,"fix_duration":1247.2587578435025,"trial":4,"RT":410,"MT":420,"sideResp":1,"stimulus":[],"xmouse":[797,797,797,797,797,797,797,797,797,798,798,798,798,798,798,798,797,794,791,784,779,767,748,736,653,608,576,542,525,513,510,505,501,496,490,484,483,483,483,483,480,479],"ymouse":[517,517,517,517,517,517,517,516,516,516,516,516,516,516,516,515,514,512,509,504,500,492,475,464,385,341,305,271,247,220,209,198,188,179,165,151,146,143,139,132,108,94],"timestamp_mouse":[12,35,52,70,90,111,130,152,171,190,212,230,251,271,291,311,330,350,370,390,410,431,450,471,490,511,530,550,570,591,610,631,651,671,691,711,730,750,770,790,810,830],"xSR":741.5,"ySR":501.8,"xT1":424.9,"yT1":0,"xT2":1058.1,"yT2":0,"toosoon":0,"cond_shown":"Congruent","ratio_trial":100,"L_num":1,"L_den":2,"R_num":18,"R_den":30,"correct_side":2,"subjID":"linabeltran11","gender":"1","school":"4","age":"9"},{"start_time":1552327558966,"click_time":1552327559814,"finger_time":1552327559715,"fix_duration":250,"trial":5,"RT":749,"MT":99,"sideResp":1,"stimulus":[],"xmouse":[806,806,806,806,806,806,806,806,806,806,806,805,804,804,803,802,802,802,802,801,801,801,801,801,801,801,801,801,801,800,800,797,794,790,784,774,761,717,681,641,602,522,505],"ymouse":[566,566,566,566,566,566,566,566,566,566,566,564,562,560,559,558,558,557,556,555,554,554,554,554,554,554,554,554,554,554,553,549,547,545,539,531,520,469,419,352,278,128,90],"timestamp_mouse":[14,45,48,68,89,109,129,149,168,189,209,228,249,268,288,308,329,349,369,388,409,429,449,469,488,509,528,549,568,588,609,628,650,668,688,708,728,749,768,788,808,829,848],"xSR":741.5,"ySR":501.8,"xT1":424.9,"yT1":0,"xT2":1058.1,"yT2":0,"toosoon":0,"cond_shown":"Incongruent","ratio_trial":300,"L_num":4,"L_den":20,"R_num":2,"R_den":4,"correct_side":2,"subjID":"linabeltran11","gender":"1","school":"4","age":"9"},{"start_time":1552327562305,"click_time":1552327563175,"finger_time":1552327562974,"fix_duration":269.3576098141831,"trial":6,"RT":669,"MT":201,"sideResp":1,"stimulus":[],"xmouse":[794,794,794,784,772,769,768,766,764,759,757,756,756,756,756,756,756,756,755,755,755,755,755,755,755,755,755,755,755,755,754,750,745,737,698,680,664,653,641,612,582,547,506,469],"ymouse":[584,584,584,582,578,577,576,576,575,574,573,573,573,573,573,573,573,573,572,571,570,570,569,569,569,569,569,569,568,568,566,565,563,560,540,525,509,484,449,351,283,210,138,74],"timestamp_mouse":[11,38,49,69,90,110,129,150,169,189,210,230,249,269,289,310,330,349,370,390,410,429,450,470,489,510,529,549,569,590,609,629,650,669,689,709,729,749,769,790,809,829,849,870],"xSR":741.5,"ySR":501.8,"xT1":424.9,"yT1":0,"xT2":1058.1,"yT2":0,"toosoon":0,"cond_shown":"Congruent","ratio_trial":100,"L_num":4,"L_den":10,"R_num":15,"R_den":30,"correct_side":2,"subjID":"linabeltran11","gender":"1","school":"4","age":"9"},{"start_time":1552327564993,"click_time":1552327566176,"finger_time":1552327565775,"fix_duration":596.2207974651424,"trial":7,"RT":782,"MT":401,"sideResp":2,"stimulus":[],"xmouse":[788,788,783,782,782,782,782,782,782,782,782,782,782,782,782,782,782,782,782,782,782,782,782,782,782,782,782,782,782,782,782,782,782,782,782,787,795,809,830,862,957,988,1010,1017,1018,1018,1021,1023,1025,1028,1036,1041,1045,1046,1048,1055,1059,1066,1073,1080],"ymouse":[573,573,570,570,570,570,570,570,570,570,570,570,570,570,570,570,570,570,570,570,570,570,570,570,570,570,570,570,570,570,570,570,570,570,570,570,566,556,540,513,395,334,276,234,197,157,151,146,143,139,131,126,122,121,119,117,114,109,102,95],"timestamp_mouse":[11,21,42,61,81,102,121,142,161,181,201,222,243,262,282,301,322,341,361,382,401,422,442,462,482,501,522,541,562,582,602,621,641,661,682,701,721,741,761,782,801,821,841,861,881,903,921,942,962,982,1003,1021,1041,1061,1082,1102,1121,1141,1161,1183],"xSR":741.5,"ySR":501.8,"xT1":424.9,"yT1":0,"xT2":1058.1,"yT2":0,"toosoon":0,"cond_shown":"Incongruent","ratio_trial":300,"L_num":13,"L_den":26,"R_num":12,"R_den":15,"correct_side":2,"subjID":"linabeltran11","gender":"1","school":"4","age":"9"},{"start_time":1552327567907,"click_time":1552327568375,"finger_time":1552327568295,"fix_duration":250,"trial":8,"RT":388,"MT":80,"sideResp":1,"stimulus":[],"xmouse":[784,784,784,785,786,787,788,788,788,789,789,789,789,789,789,789,790,785,773,722,675,621,559,463],"ymouse":[554,554,554,553,553,552,551,551,551,551,550,550,550,550,550,550,547,535,514,423,350,274,194,80],"timestamp_mouse":[14,38,47,67,87,108,128,148,167,187,208,228,247,267,287,307,327,347,367,388,407,428,447,468],"xSR":741.5,"ySR":501.8,"xT1":424.9,"yT1":0,"xT2":1058.1,"yT2":0,"toosoon":0,"cond_shown":"Incongruent","ratio_trial":100,"L_num":3,"L_den":9,"R_num":7,"R_den":30,"correct_side":1,"subjID":"linabeltran11","gender":"1","school":"4","age":"9"},{"start_time":1552327569846,"click_time":1552327571976,"finger_time":1552327571615,"fix_duration":250,"trial":9,"RT":1769,"MT":361,"sideResp":1,"stimulus":[],"xmouse":[773,774,774,774,775,775,775,775,775,776,776,776,776,776,776,776,777,777,777,777,777,777,777,777,777,777,777,777,777,777,777,777,777,777,777,777,777,777,777,777,777,777,777,777,777,777,777,777,777,777,777,777,777,777,777,777,777,777,777,777,777,778,778,778,778,778,778,778,778,778,778,778,778,778,778,778,778,778,778,778,778,778,778,778,777,776,768,742,725,707,691,676,653,646,638,632,625,608,599,590,580,570,555,517,496,482,477],"ymouse":[533,532,532,532,532,532,532,532,532,532,532,532,532,532,532,532,532,532,532,532,532,532,532,532,532,532,532,532,532,532,532,532,532,532,532,532,532,532,532,532,532,532,532,532,532,532,532,532,532,532,532,532,532,532,532,532,532,532,532,532,532,532,532,532,532,532,532,532,532,532,532,532,532,532,532,532,532,532,532,532,532,532,532,532,532,532,530,508,493,478,460,442,415,407,396,387,371,325,305,282,259,236,208,144,120,104,96],"timestamp_mouse":[10,28,48,69,88,109,128,148,168,189,209,228,249,269,289,309,330,349,369,389,409,428,449,469,489,509,530,549,569,588,609,628,648,668,690,709,729,748,768,788,809,828,848,868,888,909,929,948,970,989,1010,1030,1049,1069,1088,1109,1129,1148,1168,1189,1209,1228,1249,1269,1289,1309,1328,1348,1368,1389,1409,1429,1449,1469,1489,1510,1529,1548,1569,1590,1609,1629,1649,1669,1689,1708,1729,1748,1769,1788,1809,1828,1849,1868,1888,1908,1928,1948,1968,1988,2008,2028,2048,2068,2089,2108,2130],"xSR":741.5,"ySR":501.8,"xT1":424.9,"yT1":0,"xT2":1058.1,"yT2":0,"toosoon":0,"cond_shown":"Congruent","ratio_trial":300,"L_num":1,"L_den":5,"R_num":11,"R_den":22,"correct_side":2,"subjID":"linabeltran11","gender":"1","school":"4","age":"9"},{"start_time":1552327574316,"click_time":1552327576235,"finger_time":1552327575975,"fix_duration":800.4449328546981,"trial":10,"RT":1659,"MT":260,"sideResp":2,"stimulus":[],"xmouse":[820,820,820,820,820,820,820,820,820,820,820,820,820,820,820,820,820,820,820,820,820,820,820,820,820,820,820,820,820,820,820,820,820,820,820,820,820,820,820,820,820,820,820,820,820,820,820,820,820,820,820,820,820,820,820,820,820,820,820,820,820,820,820,820,820,820,820,820,821,824,825,828,829,830,832,832,833,833,834,835,837,840,852,872,882,894,907,918,936,980,1003,1022,1035,1057,1066,1075],"ymouse":[553,553,552,552,552,552,552,552,552,552,552,552,552,552,552,552,552,552,552,552,552,552,552,552,552,552,552,552,552,552,552,552,552,552,552,552,552,552,552,552,552,552,552,552,552,552,552,552,552,552,552,552,552,552,552,552,552,552,552,552,552,552,552,552,552,552,552,550,549,547,546,544,544,542,541,541,540,540,539,537,535,532,518,483,463,435,401,363,305,217,183,163,151,126,113,98],"timestamp_mouse":[33,38,59,78,98,119,138,159,179,198,219,240,259,279,298,318,339,358,378,398,420,439,459,478,500,518,539,559,579,599,618,638,658,678,698,719,738,759,778,799,818,839,859,879,899,919,938,960,978,998,1019,1038,1059,1078,1098,1118,1139,1159,1179,1199,1220,1240,1259,1278,1299,1319,1339,1358,1379,1399,1419,1438,1458,1479,1499,1519,1538,1559,1578,1598,1619,1638,1659,1679,1698,1719,1738,1758,1779,1798,1818,1838,1859,1879,1898,1919],"xSR":741.5,"ySR":501.8,"xT1":424.9,"yT1":0,"xT2":1058.1,"yT2":0,"toosoon":0,"cond_shown":"Incongruent","ratio_trial":200,"L_num":7,"L_den":10,"R_num":8,"R_den":16,"correct_side":1,"subjID":"linabeltran11","gender":"1","school":"4","age":"9"},{"start_time":1552327578990,"click_time":1552327579515,"finger_time":1552327579195,"fix_duration":1432.5738086403182,"trial":11,"RT":205,"MT":320,"sideResp":1,"stimulus":[],"xmouse":[804,804,804,804,804,804,802,795,785,764,735,726,721,719,719,718,717,716,711,705,674,656,629,596,559,497,471],"ymouse":[549,549,549,549,549,547,546,541,534,522,505,497,492,489,489,488,486,485,483,479,444,411,354,293,231,125,82],"timestamp_mouse":[11,37,45,66,85,105,124,145,166,185,205,224,244,266,285,306,324,344,364,386,405,424,444,466,484,506,524],"xSR":741.5,"ySR":501.8,"xT1":424.9,"yT1":0,"xT2":1058.1,"yT2":0,"toosoon":0,"cond_shown":"Incongruent","ratio_trial":200,"L_num":7,"L_den":15,"R_num":4,"R_den":6,"correct_side":2,"subjID":"linabeltran11","gender":"1","school":"4","age":"9"},{"start_time":1552327582222,"click_time":1552327583174,"finger_time":1552327582795,"fix_duration":1446.618414967068,"trial":12,"RT":573,"MT":379,"sideResp":2,"stimulus":[],"xmouse":[767,767,767,767,767,767,767,767,767,767,767,767,767,767,767,767,767,767,767,767,767,767,767,767,772,774,784,802,893,948,1014,1082,1144,1196,1235,1239,1239,1239,1239,1239,1239,1239,1239,1239,1239,1239,1239,1146],"ymouse":[545,545,545,545,545,545,545,545,545,545,545,545,545,545,545,545,545,545,545,545,545,545,545,545,542,541,536,525,453,400,334,256,179,108,27,11,3,3,3,3,3,3,3,3,3,3,3,2],"timestamp_mouse":[14,38,52,72,94,113,133,152,173,194,212,234,252,273,293,312,332,354,373,393,412,434,453,473,492,512,532,553,573,592,613,632,652,673,692,712,732,753,773,794,813,834,854,873,893,912,932,952],"xSR":741.5,"ySR":501.8,"xT1":424.9,"yT1":0,"xT2":1058.1,"yT2":0,"toosoon":0,"cond_shown":"Congruent","ratio_trial":200,"L_num":3,"L_den":12,"R_num":9,"R_den":20,"correct_side":2,"subjID":"linabeltran11","gender":"1","school":"4","age":"9"},{"start_time":1552327586318,"click_time":1552327587256,"finger_time":1552327586814,"fix_duration":1361.6201730902735,"trial":13,"RT":496,"MT":442,"sideResp":2,"stimulus":[],"xmouse":[807,807,807,807,807,807,807,807,807,807,807,807,807,807,807,807,807,807,807,807,808,809,811,814,822,827,838,855,903,916,927,936,942,962,967,971,973,975,980,985,988,994,1006,1015,1040,1051,1064],"ymouse":[532,532,532,532,532,532,532,532,532,532,532,532,532,532,532,532,532,531,529,526,524,520,516,511,499,489,471,447,378,350,324,296,272,219,210,205,199,195,181,171,162,148,126,108,80,65,45],"timestamp_mouse":[24,41,58,77,97,117,136,156,177,198,218,236,258,276,296,318,337,357,376,396,416,437,456,476,496,516,537,556,577,596,617,636,657,677,697,716,736,756,778,797,818,836,857,877,897,916,938],"xSR":741.5,"ySR":501.8,"xT1":424.9,"yT1":0,"xT2":1058.1,"yT2":0,"toosoon":0,"cond_shown":"Congruent","ratio_trial":100,"L_num":15,"L_den":25,"R_num":13,"R_den":26,"correct_side":1,"subjID":"linabeltran11","gender":"1","school":"4","age":"9"},{"start_time":1552327588894,"click_time":1552327589674,"finger_time":1552327589395,"fix_duration":278.20840988736086,"trial":14,"RT":501,"MT":279,"sideResp":1,"stimulus":[],"xmouse":[812,812,812,812,812,812,812,813,813,813,813,813,813,813,813,813,813,813,813,813,813,813,813,813,813,800,789,772,751,731,685,660,635,614,595,556,547,541,534,524],"ymouse":[522,522,520,517,516,514,513,511,511,510,510,510,510,510,510,510,510,510,510,510,510,510,510,509,507,498,489,475,454,428,356,308,263,208,167,97,80,67,54,42],"timestamp_mouse":[10,21,41,62,82,100,121,140,161,180,200,222,242,260,280,300,322,342,361,381,401,420,441,461,481,501,522,541,562,580,601,620,640,660,681,701,721,741,760,780],"xSR":741.5,"ySR":501.8,"xT1":424.9,"yT1":0,"xT2":1058.1,"yT2":0,"toosoon":0,"cond_shown":"Congruent","ratio_trial":200,"L_num":7,"L_den":15,"R_num":18,"R_den":27,"correct_side":2,"subjID":"linabeltran11","gender":"1","school":"4","age":"9"},{"start_time":1552327593936,"click_time":1552327596596,"finger_time":1552327596174,"fix_duration":1179.630260161224,"trial":15,"RT":2238,"MT":422,"sideResp":2,"stimulus":[],"xmouse":[786,786,786,786,786,786,786,786,786,786,786,786,786,786,786,786,786,786,786,786,786,786,786,786,786,786,786,786,786,786,786,786,786,786,786,786,786,786,786,786,786,786,786,786,786,786,786,786,786,786,786,786,786,786,786,786,786,786,786,786,786,786,786,786,786,786,786,786,786,786,786,786,786,786,786,786,786,786,786,786,786,786,786,786,786,786,786,786,786,786,786,786,786,786,786,786,786,786,786,786,786,786,786,786,787,789,792,794,800,804,807,817,838,863,898,928,951,971,978,981,984,988,994,1004,1009,1014,1017,1023,1026,1030,1040,1050,1075],"ymouse":[545,545,545,545,545,545,545,545,545,545,545,545,545,545,545,545,545,545,545,545,545,545,545,545,545,545,545,545,545,545,545,545,545,545,545,545,545,545,545,545,545,545,545,545,545,544,543,543,542,542,541,540,539,539,539,539,539,539,539,539,539,539,539,539,539,539,539,539,539,539,539,539,539,539,539,539,539,539,539,539,539,539,539,539,539,539,539,539,539,539,539,539,539,539,539,539,539,539,539,539,539,539,539,537,536,534,532,530,524,519,512,495,457,412,351,293,248,191,169,154,137,125,104,77,67,60,57,54,54,54,55,55,59],"timestamp_mouse":[23,38,59,79,98,119,138,158,178,199,218,240,259,280,298,319,338,358,379,399,418,438,458,479,499,520,539,559,578,599,619,638,658,679,698,718,740,759,779,799,820,838,859,879,898,919,938,959,979,1000,1020,1040,1059,1079,1099,1118,1140,1159,1180,1198,1218,1239,1259,1280,1298,1319,1339,1359,1379,1400,1418,1438,1459,1478,1498,1519,1538,1559,1579,1600,1619,1639,1659,1678,1698,1719,1739,1758,1778,1799,1818,1839,1859,1879,1898,1920,1938,1959,1979,1998,2018,2038,2058,2079,2099,2119,2138,2159,2178,2199,2218,2238,2260,2278,2299,2319,2340,2360,2379,2399,2420,2439,2458,2479,2499,2518,2539,2559,2578,2599,2620,2639,2659],"xSR":741.5,"ySR":501.8,"xT1":424.9,"yT1":0,"xT2":1058.1,"yT2":0,"toosoon":0,"cond_shown":"Congruent","ratio_trial":200,"L_num":12,"L_den":15,"R_num":6,"R_den":10,"correct_side":1,"subjID":"linabeltran11","gender":"1","school":"4","age":"9"},{"start_time":1552327599649,"click_time":1552327600414,"finger_time":1552327599835,"fix_duration":1351.2608309191683,"trial":16,"RT":186,"MT":579,"sideResp":1,"stimulus":[],"xmouse":[798,798,798,796,793,788,786,780,780,779,779,779,773,766,762,756,751,746,735,728,721,708,668,641,619,603,585,568,562,555,549,544,536,533,531,527,524,509,497],"ymouse":[528,528,528,526,521,512,509,503,502,501,501,500,492,485,479,471,461,453,434,422,409,392,328,289,264,247,222,191,180,170,163,159,151,149,146,140,135,106,83],"timestamp_mouse":[13,43,47,67,86,106,125,145,166,186,206,227,247,266,286,307,327,346,366,386,406,427,446,467,486,507,527,546,566,586,607,627,646,666,685,706,725,746,765],"xSR":741.5,"ySR":501.8,"xT1":424.9,"yT1":0,"xT2":1058.1,"yT2":0,"toosoon":0,"cond_shown":"Congruent","ratio_trial":300,"L_num":11,"L_den":22,"R_num":2,"R_den":10,"correct_side":1,"subjID":"linabeltran11","gender":"1","school":"4","age":"9"},{"start_time":1552327603094,"click_time":1552327603995,"finger_time":1552327603595,"fix_duration":936.4944734434654,"trial":17,"RT":501,"MT":400,"sideResp":1,"stimulus":[],"xmouse":[798,798,798,798,798,798,798,798,798,798,798,798,798,798,798,797,797,796,795,794,792,788,781,772,754,740,708,688,670,654,629,618,607,601,591,582,575,569,560,554,548,545,540,533,520,501],"ymouse":[575,575,575,575,575,574,573,573,573,573,573,573,573,573,573,572,572,571,569,567,561,553,544,533,510,490,448,418,389,356,301,281,261,247,228,208,197,185,170,160,144,136,128,117,104,89],"timestamp_mouse":[11,39,41,61,82,101,121,140,161,182,201,221,241,260,282,301,321,341,362,380,400,420,441,460,481,501,522,540,561,580,602,620,641,661,680,702,720,741,761,781,802,820,841,861,881,901],"xSR":741.5,"ySR":501.8,"xT1":424.9,"yT1":0,"xT2":1058.1,"yT2":0,"toosoon":0,"cond_shown":"Incongruent","ratio_trial":300,"L_num":4,"L_den":5,"R_num":8,"R_den":16,"correct_side":1,"subjID":"linabeltran11","gender":"1","school":"4","age":"9"},{"start_time":1552327606882,"click_time":1552327607935,"finger_time":1552327606925,"fix_duration":1465.7264673871894,"trial":18,"RT":43,"MT":1010,"sideResp":1,"stimulus":[],"xmouse":[780,780,780,780,780,780,780,780,780,780,780,780,780,780,780,779,777,776,776,776,776,775,774,773,770,768,768,768,768,767,756,740,720,695,656,624,615,607,604,595,575,566,564,564,564,559,553,542,532,526,521,521,521],"ymouse":[504,501,498,496,489,481,479,479,478,478,477,477,476,475,475,475,475,476,476,476,477,477,478,479,482,483,483,483,483,483,481,469,452,430,392,346,324,301,277,247,205,191,186,186,186,177,165,149,133,120,106,103,98],"timestamp_mouse":[12,43,52,73,93,113,133,153,174,194,214,232,253,273,292,313,333,354,372,393,412,432,453,474,493,513,534,552,574,594,614,632,653,674,693,714,734,752,773,793,813,832,853,873,894,914,934,952,973,992,1015,1032,1053],"xSR":741.5,"ySR":501.8,"xT1":424.9,"yT1":0,"xT2":1058.1,"yT2":0,"toosoon":0,"cond_shown":"Incongruent","ratio_trial":200,"L_num":7,"L_den":15,"R_num":6,"R_den":9,"correct_side":2,"subjID":"linabeltran11","gender":"1","school":"4","age":"9"},{"start_time":1552327610761,"click_time":1552327617295,"finger_time":1552327617295,"fix_duration":943.746287061911,"trial":19,"RT":6534,"MT":0,"sideResp":2,"stimulus":[],"xmouse":[813,811,810,810,810,809,809,808,808,807,807,806,806,806,806,806,806,806,806,806,806,806,806,806,806,806,806,806,806,806,806,806,806,806,806,806,806,806,806,806,806,806,806,806,806,806,806,806,806,806,806,806,806,806,806,806,806,806,806,806,806,806,806,806,806,806,806,806,806,806,806,806,806,806,806,806,806,806,809,809,809,809,809,809,809,809,809,809,809,810,810,810,810,810,811,812,814,814,814,814,814,814,814,814,813,812,812,812,812,810,810,810,810,810,810,809,808,808,807,807,807,807,807,807,807,807,807,807,807,807,807,807,807,807,807,807,807,807,807,807,807,807,807,807,807,807,807,806,806,806,806,806,806,806,806,806,806,806,806,806,806,806,806,806,806,806,806,806,806,806,806,806,806,806,806,806,806,806,806,806,806,806,806,806,806,806,806,806,806,806,806,806,806,806,806,806,806,806,806,806,806,806,806,806,806,806,806,806,806,806,806,806,806,806,806,806,806,806,806,806,806,806,806,806,806,806,806,806,806,806,806,806,806,806,806,806,806,806,806,806,806,806,806,806,806,806,806,806,806,806,806,806,806,806,806,806,806,806,806,806,806,806,806,806,806,806,806,806,806,806,806,806,806,806,806,806,806,806,806,806,806,806,806,806,806,806,806,806,806,806,806,806,806,806,806,806,806,806,806,806,806,806,806,806,806,806,806,806,806,806,806,806,806,806,806,806,806,806,806,806,806,806,806,806,806,806,1111],"ymouse":[544,540,539,539,539,539,539,538,537,537,536,536,535,535,535,535,535,535,535,533,533,533,532,532,532,532,532,532,532,532,532,532,532,532,532,532,532,532,532,532,532,532,532,532,532,532,532,532,532,532,532,532,532,532,532,532,532,532,532,532,532,532,532,532,532,532,532,532,532,532,532,532,532,532,532,532,532,532,532,532,532,532,532,532,532,532,532,532,532,531,529,527,527,526,526,526,528,528,528,528,528,528,524,520,515,512,512,512,514,516,516,516,516,516,516,525,525,525,525,525,525,525,526,527,527,527,527,527,527,527,527,527,527,527,527,527,527,527,527,527,527,527,527,527,527,527,528,530,530,530,530,530,530,530,530,530,530,530,530,530,530,530,530,530,530,530,530,530,530,530,530,530,530,530,530,530,530,530,530,530,530,530,530,530,530,530,530,530,530,530,530,530,530,530,530,530,530,530,530,530,530,530,530,530,530,530,530,530,530,530,530,530,530,530,530,530,530,530,530,530,530,530,530,530,530,530,530,530,530,530,530,530,530,530,530,530,530,530,530,530,530,530,530,530,530,530,530,530,530,530,530,530,530,530,530,530,530,530,530,530,530,530,530,530,530,530,530,530,530,530,530,530,530,530,530,530,530,530,530,530,530,530,530,530,530,530,530,530,530,530,530,530,530,530,530,530,530,530,530,530,530,530,530,530,530,530,530,530,530,530,530,530,530,530,530,530,530,530,530,530,530,530,530,530,530,530,56],"timestamp_mouse":[29,41,54,75,94,113,133,153,174,194,215,234,253,273,294,315,334,355,373,393,415,434,454,473,493,514,533,555,575,594,615,633,654,675,695,713,734,754,773,794,815,834,854,874,895,915,934,955,974,994,1015,1033,1054,1073,1094,1113,1133,1154,1175,1194,1215,1233,1255,1275,1294,1315,1334,1354,1373,1393,1414,1433,1455,1475,1494,1514,1533,1554,1574,1595,1615,1634,1653,1673,1694,1715,1734,1755,1773,1794,1814,1834,1854,1874,1894,1915,1935,1954,1975,1995,2015,2034,2055,2074,2094,2114,2134,2154,2174,2194,2214,2234,2255,2274,2295,2315,2334,2354,2373,2393,2415,2434,2454,2473,2495,2513,2533,2553,2574,2594,2615,2634,2653,2674,2693,2714,2734,2754,2773,2794,2814,2833,2855,2875,2893,2913,2933,2954,2975,2994,3013,3035,3054,3074,3094,3113,3134,3154,3174,3194,3214,3234,3254,3274,3294,3315,3333,3355,3374,3393,3413,3433,3454,3473,3494,3514,3535,3554,3574,3594,3614,3634,3654,3673,3694,3715,3733,3753,3773,3793,3814,3833,3855,3874,3894,3913,3934,3954,3974,3994,4013,4033,4054,4074,4093,4113,4134,4153,4174,4193,4214,4233,4254,4273,4293,4313,4333,4354,4374,4395,4414,4434,4454,4474,4494,4513,4533,4553,4574,4595,4614,4634,4653,4673,4694,4714,4734,4755,4775,4794,4814,4834,4853,4874,4895,4915,4933,4955,4974,4995,5013,5033,5053,5074,5094,5114,5134,5154,5173,5194,5215,5234,5255,5274,5293,5313,5333,5354,5374,5394,5414,5434,5453,5473,5494,5514,5534,5554,5574,5593,5613,5634,5654,5674,5693,5715,5734,5755,5774,5795,5815,5834,5855,5874,5893,5913,5933,5954,5975,5993,6014,6034,6054,6073,6095,6114,6134,6154,6173,6195,6213,6234,6255,6274,6293,6314,6333,6353,6373,6393,6413,6433,6454,6475,6493,6513,6534],"xSR":741.5,"ySR":501.8,"xT1":424.9,"yT1":0,"xT2":1058.1,"yT2":0,"toosoon":0,"cond_shown":"Incongruent","ratio_trial":300,"L_num":13,"L_den":26,"R_num":12,"R_den":15,"correct_side":2,"subjID":"linabeltran11","gender":"1","school":"4","age":"9"},{"start_time":1552327632809,"click_time":1552327634595,"finger_time":1552327634255,"fix_duration":250,"trial":20,"RT":1446,"MT":340,"sideResp":1,"stimulus":[],"xmouse":[813,813,813,813,813,813,813,813,813,813,813,813,813,813,813,813,813,813,813,813,813,813,813,813,813,813,813,813,813,813,813,813,813,813,813,813,813,813,813,813,813,813,813,813,813,813,813,813,813,813,813,813,813,813,813,813,813,813,813,813,813,813,813,813,813,813,813,813,813,812,810,800,788,765,736,692,677,666,658,646,638,617,601,579,547,541,537,533,530,509],"ymouse":[510,512,512,515,519,521,525,530,532,540,543,545,547,547,547,547,547,547,547,547,547,547,547,547,547,547,547,547,547,547,547,547,547,547,547,547,547,547,547,547,547,547,547,547,547,547,547,547,547,547,547,547,547,547,547,548,548,548,548,548,548,548,548,548,548,548,548,548,548,546,536,519,495,455,410,346,325,309,296,268,249,203,167,127,77,66,58,48,41,11],"timestamp_mouse":[13,36,46,66,85,105,126,146,165,185,206,226,245,265,285,307,325,346,366,386,405,427,445,465,486,507,526,545,567,586,607,626,645,665,686,707,725,746,766,786,806,827,847,865,885,905,926,946,965,986,1007,1027,1047,1065,1086,1105,1127,1145,1167,1185,1206,1226,1247,1266,1286,1306,1325,1345,1366,1385,1406,1427,1446,1467,1486,1506,1525,1545,1566,1586,1605,1625,1646,1667,1686,1705,1726,1746,1767,1786],"xSR":741.5,"ySR":501.8,"xT1":424.9,"yT1":0,"xT2":1058.1,"yT2":0,"toosoon":0,"cond_shown":"Incongruent","ratio_trial":300,"L_num":4,"L_den":20,"R_num":2,"R_den":4,"correct_side":2,"subjID":"linabeltran11","gender":"1","school":"4","age":"9"},{"start_time":1552327636950,"click_time":1552327638414,"finger_time":1552327637335,"fix_duration":1113.5171658468569,"trial":21,"RT":385,"MT":1079,"sideResp":2,"stimulus":[],"xmouse":[802,802,805,809,811,813,813,814,814,814,815,816,817,818,818,819,819,820,822,823,823,823,823,823,824,824,824,824,824,824,824,824,824,824,824,824,824,824,824,824,824,824,824,824,824,824,824,824,824,824,824,824,824,824,824,824,824,826,842,862,882,904,981,1002,1023,1045,1064,1083,1109,1119,1127,1135,1144,1148],"ymouse":[537,537,534,531,530,529,528,528,527,527,526,525,523,522,521,519,518,514,509,501,494,488,481,480,478,478,478,478,478,478,478,478,478,478,478,478,478,478,478,478,478,478,478,478,478,478,478,478,478,478,478,478,478,478,478,478,478,475,465,455,441,425,368,349,328,308,291,270,221,198,174,150,104,45],"timestamp_mouse":[17,31,45,64,85,104,125,144,165,185,204,225,244,265,285,305,326,345,365,385,404,425,445,465,484,505,525,546,566,585,606,625,644,665,684,705,725,745,766,786,805,825,845,865,884,904,924,945,966,986,1005,1025,1045,1065,1084,1105,1124,1145,1164,1186,1206,1225,1245,1266,1284,1305,1325,1344,1364,1385,1405,1424,1445,1464],"xSR":741.5,"ySR":501.8,"xT1":424.9,"yT1":0,"xT2":1058.1,"yT2":0,"toosoon":0,"cond_shown":"Incongruent","ratio_trial":200,"L_num":4,"L_den":5,"R_num":6,"R_den":10,"correct_side":1,"subjID":"linabeltran11","gender":"1","school":"4","age":"9"},{"start_time":1552327641287,"click_time":1552327643215,"finger_time":1552327642894,"fix_duration":250,"trial":22,"RT":1607,"MT":321,"sideResp":2,"stimulus":[],"xmouse":[809,809,809,809,809,809,809,809,809,809,809,809,809,809,809,809,809,809,809,809,809,809,809,809,809,809,809,809,809,809,809,809,809,809,809,809,809,809,809,809,809,809,809,809,809,809,809,809,809,809,809,809,809,809,809,809,809,809,809,809,809,809,809,809,809,809,809,809,809,809,809,809,809,809,809,809,809,810,813,821,848,867,886,904,921,967,978,984,991,994,998,1001,1006,1013,1027,1058,1068],"ymouse":[561,561,561,561,561,561,561,561,561,561,561,561,561,561,561,561,561,561,561,561,561,561,561,561,561,561,561,561,561,561,561,561,561,561,561,561,561,561,561,561,561,561,561,561,561,561,561,561,561,561,561,561,561,561,561,561,561,561,561,561,561,561,561,561,561,561,561,561,561,561,561,561,561,561,561,561,561,559,554,540,505,487,469,447,414,262,226,203,183,169,149,137,125,103,69,23,18],"timestamp_mouse":[9,32,48,68,87,108,127,147,168,187,208,228,248,267,287,307,329,348,368,388,407,427,447,467,487,507,528,547,567,588,607,628,647,668,688,707,729,747,768,789,807,828,847,868,887,907,928,947,969,987,1008,1027,1048,1067,1088,1108,1127,1148,1167,1187,1208,1229,1248,1268,1288,1307,1329,1348,1368,1388,1407,1428,1447,1468,1489,1508,1528,1547,1568,1587,1607,1627,1647,1667,1688,1708,1727,1747,1769,1789,1808,1827,1848,1868,1888,1908,1927],"xSR":741.5,"ySR":501.8,"xT1":424.9,"yT1":0,"xT2":1058.1,"yT2":0,"toosoon":0,"cond_shown":"Congruent","ratio_trial":300,"L_num":2,"L_den":10,"R_num":12,"R_den":24,"correct_side":2,"subjID":"linabeltran11","gender":"1","school":"4","age":"9"},{"start_time":1552327646329,"click_time":1552327653535,"finger_time":1552327648475,"fix_duration":812.6817468452728,"trial":23,"RT":2146,"MT":5060,"sideResp":1,"stimulus":[],"xmouse":[820,820,820,820,820,820,820,820,820,820,820,820,820,820,820,820,820,820,820,820,820,820,820,820,820,820,820,820,820,820,820,820,820,820,820,820,820,820,820,820,820,820,820,820,820,820,820,820,820,820,820,819,819,819,819,819,819,819,819,818,818,818,818,817,817,816,816,816,816,816,816,816,816,816,816,816,816,816,816,816,816,816,816,816,816,816,816,816,816,816,816,816,816,816,816,816,816,817,824,827,828,830,831,837,838,840,841,842,843,843,843,843,843,843,843,843,843,843,843,843,843,843,843,843,843,843,843,843,843,843,843,843,843,843,844,844,844,845,845,847,847,848,848,849,851,852,854,855,861,862,862,862,862,862,862,862,862,862,862,862,862,862,862,862,862,862,862,862,862,862,862,862,862,862,862,862,862,862,862,862,862,862,862,862,862,863,864,866,868,868,868,868,868,870,878,884,889,892,895,895,895,893,890,883,878,872,864,858,855,847,842,838,835,828,826,825,823,819,803,797,792,789,786,782,782,782,782,780,778,777,777,777,777,777,777,777,777,777,777,777,777,777,777,777,777,776,770,758,743,716,711,708,708,708,708,708,709,712,713,713,713,713,713,713,713,710,706,702,694,688,684,679,676,665,638,620,603,591,577,572,567,556,540,506,454,433,418,411,398,391,384,379,377,375,375,375,375,375,375,375,375,375,375,375,375,375,374,374,371,368,366,366,366,366,366,366,366,366,366,366,366,366,369,396,419,445,475,510,582,618,662,722,781,861,903,908,909,909,909,895,894,894,894,892,886,876,860,843,825,797,789,784,782,777,771,763,747,710,589,514,452],"ymouse":[531,531,531,531,531,531,531,531,531,531,531,531,531,531,531,531,531,531,531,531,531,531,531,531,531,531,531,531,531,531,531,531,531,531,531,531,531,531,531,531,531,531,531,531,531,531,531,531,531,531,531,532,532,532,532,533,533,533,533,534,534,534,534,535,535,536,536,536,536,536,536,536,536,536,536,536,536,536,536,536,536,536,536,536,536,536,536,536,536,536,536,536,536,536,536,536,536,536,536,535,534,534,534,532,531,531,530,530,529,529,529,529,529,529,529,529,529,529,529,529,529,529,529,529,529,529,529,529,529,529,529,529,529,529,529,529,529,528,528,528,528,527,527,526,526,525,524,522,518,518,517,517,517,517,517,517,517,517,517,517,517,517,517,517,517,517,517,517,517,517,517,517,517,517,517,517,517,517,517,517,517,517,517,517,517,517,515,513,511,511,511,511,510,508,495,487,479,472,464,461,457,451,438,414,399,384,368,355,346,330,325,319,314,306,304,301,297,288,265,259,257,256,255,253,253,253,253,253,252,252,252,252,252,252,252,252,252,252,252,252,252,252,252,252,252,252,255,272,297,352,374,395,398,402,402,402,402,399,396,394,394,390,385,358,345,328,313,299,275,265,258,253,252,251,251,251,251,250,242,237,231,221,211,193,176,171,170,170,170,172,173,173,174,174,174,174,174,174,174,174,174,174,174,174,174,174,174,174,166,159,156,156,156,156,156,156,156,156,156,156,155,155,155,161,171,183,196,211,240,258,279,308,340,389,430,442,454,475,536,645,661,664,665,645,634,623,613,603,591,576,571,565,563,545,524,493,433,345,181,119,78],"timestamp_mouse":[15,40,47,66,86,106,125,146,166,187,206,225,247,265,285,306,327,345,365,386,405,425,446,465,486,507,526,546,565,587,606,625,647,665,686,706,727,745,765,785,805,825,847,865,885,905,926,946,966,986,1005,1026,1045,1065,1085,1105,1126,1146,1165,1186,1205,1226,1246,1266,1286,1307,1325,1345,1365,1385,1406,1426,1445,1465,1485,1506,1526,1546,1565,1587,1607,1626,1646,1666,1687,1705,1727,1747,1766,1786,1805,1825,1846,1865,1887,1905,1925,1945,1965,1986,2006,2027,2045,2066,2086,2107,2126,2146,2166,2185,2206,2225,2246,2266,2286,2305,2326,2346,2366,2386,2406,2427,2445,2466,2485,2506,2527,2546,2566,2586,2605,2627,2646,2665,2686,2706,2726,2746,2766,2785,2806,2825,2846,2866,2885,2906,2926,2946,2966,2985,3005,3025,3045,3066,3085,3106,3127,3146,3166,3186,3206,3226,3246,3267,3287,3307,3327,3346,3366,3386,3406,3426,3446,3466,3486,3507,3526,3545,3566,3585,3605,3626,3646,3665,3685,3706,3726,3746,3767,3786,3806,3826,3847,3865,3886,3906,3926,3946,3966,3987,4006,4025,4045,4066,4086,4105,4126,4145,4166,4186,4206,4226,4247,4265,4285,4306,4325,4346,4366,4385,4407,4427,4446,4465,4485,4506,4525,4545,4566,4585,4606,4626,4645,4666,4685,4705,4727,4747,4766,4786,4806,4826,4846,4865,4886,4906,4925,4945,4966,4985,5007,5027,5046,5067,5085,5106,5126,5145,5166,5186,5206,5225,5246,5266,5285,5306,5327,5346,5366,5385,5407,5425,5447,5477,5486,5506,5526,5546,5566,5585,5606,5627,5647,5666,5685,5706,5726,5747,5766,5785,5805,5825,5846,5866,5885,5906,5926,5945,5966,5986,6005,6025,6045,6066,6085,6107,6126,6146,6166,6185,6205,6226,6246,6266,6286,6306,6326,6346,6365,6385,6406,6426,6446,6466,6486,6505,6525,6545,6565,6586,6605,6626,6646,6666,6686,6705,6725,6746,6765,6786,6807,6825,6846,6865,6887,6907,6926,6945,6965,6985,7007,7026,7046,7066,7086,7106,7125,7147,7166,7186,7206],"xSR":741.5,"ySR":501.8,"xT1":424.9,"yT1":0,"xT2":1058.1,"yT2":0,"toosoon":0,"cond_shown":"Congruent","ratio_trial":300,"L_num":24,"L_den":30,"R_num":2,"R_den":4,"correct_side":1,"subjID":"linabeltran11","gender":"1","school":"4","age":"9"},{"start_time":1552327660628,"click_time":1552327662234,"finger_time":1552327661515,"fix_duration":1171.079195487024,"trial":24,"RT":887,"MT":719,"sideResp":2,"stimulus":[],"xmouse":[803,803,803,803,803,803,803,803,803,803,803,803,803,803,803,803,803,803,803,803,803,803,803,803,803,803,803,803,803,803,803,803,803,803,803,803,803,803,803,805,807,808,812,819,847,868,903,917,1037,1112,1204,1279,1349,1394,1394,1394,1394,1394,1394,1394,1394,1394,1394,1394,1394,1394,1394,1394,1189,1188,1188,1185,1185,1182,1180,1177,1175,1175,1169,1162,1155],"ymouse":[514,514,514,514,514,514,514,514,514,514,514,514,514,514,514,514,514,514,514,514,514,514,514,514,514,514,514,514,514,514,514,514,514,514,514,514,514,514,514,515,515,515,515,508,468,442,400,389,297,238,174,114,54,1,1,1,1,1,1,1,1,1,1,1,1,1,1,1,15,21,26,30,32,36,38,39,40,40,43,45,46],"timestamp_mouse":[9,34,47,66,86,106,128,146,167,186,208,227,246,266,287,308,326,347,367,386,407,428,447,466,488,506,527,547,566,587,608,627,646,666,687,707,727,747,766,787,807,827,846,867,887,908,928,948,967,986,1007,1028,1048,1067,1087,1107,1126,1146,1167,1186,1206,1226,1246,1267,1288,1307,1327,1347,1367,1387,1407,1426,1447,1467,1487,1506,1527,1547,1566,1587,1606],"xSR":741.5,"ySR":501.8,"xT1":424.9,"yT1":0,"xT2":1058.1,"yT2":0,"toosoon":0,"cond_shown":"Incongruent","ratio_trial":100,"L_num":2,"L_den":4,"R_num":6,"R_den":15,"correct_side":1,"subjID":"linabeltran11","gender":"1","school":"4","age":"9"},{"start_time":1552327665382,"click_time":1552327667614,"finger_time":1552327667135,"fix_duration":746.8928369935463,"trial":25,"RT":1753,"MT":479,"sideResp":2,"stimulus":[],"xmouse":[801,801,801,803,804,805,805,806,806,806,806,806,806,806,806,806,806,806,806,805,805,805,805,805,805,804,804,804,804,804,804,804,804,803,802,801,800,800,799,798,798,797,797,797,797,797,797,797,795,794,793,793,793,793,793,793,793,793,793,793,793,793,793,793,793,792,791,791,791,791,791,789,788,786,785,785,784,783,782,782,782,782,782,782,782,785,824,869,980,1010,1116,1141,1163,1181,1195,1217,1228,1239,1251,1251,1238,1238,1238,1238,1238,1238,1238,1238,1020,1021,1028,1062],"ymouse":[569,567,567,564,562,561,559,559,558,558,558,558,558,558,558,558,556,555,554,554,554,554,554,554,554,553,553,553,553,553,553,553,553,553,553,553,553,552,552,552,552,552,551,551,551,551,551,551,551,551,551,551,551,551,551,551,551,551,551,551,551,551,551,551,551,551,551,551,551,551,551,551,551,551,551,551,550,550,550,550,550,550,550,550,549,547,520,481,391,360,244,215,192,173,157,127,113,97,66,55,5,5,5,5,5,5,5,5,1,10,17,33],"timestamp_mouse":[14,47,52,73,93,113,133,153,172,192,213,233,252,273,292,312,332,353,372,392,413,432,452,473,493,512,533,552,572,592,612,633,652,673,693,712,733,752,772,793,812,832,854,872,892,912,933,954,972,993,1012,1032,1053,1073,1093,1112,1133,1153,1172,1192,1213,1232,1252,1272,1293,1312,1332,1352,1373,1393,1412,1433,1452,1472,1493,1512,1534,1553,1573,1592,1612,1632,1654,1673,1692,1712,1733,1753,1773,1793,1813,1833,1854,1872,1893,1913,1933,1952,1972,1993,2013,2033,2052,2072,2093,2112,2133,2152,2172,2192,2213,2232],"xSR":741.5,"ySR":501.8,"xT1":424.9,"yT1":0,"xT2":1058.1,"yT2":0,"toosoon":0,"cond_shown":"Incongruent","ratio_trial":100,"L_num":3,"L_den":9,"R_num":7,"R_den":30,"correct_side":1,"subjID":"linabeltran11","gender":"1","school":"4","age":"9"},{"start_time":1552327675777,"click_time":1552327676995,"finger_time":1552327676655,"fix_duration":1201.084394048487,"trial":26,"RT":878,"MT":340,"sideResp":1,"stimulus":[],"xmouse":[769,769,769,769,769,769,769,769,769,769,769,769,769,769,769,769,769,769,769,769,769,769,769,769,769,769,769,769,769,769,769,769,769,769,769,769,769,769,769,769,769,768,762,756,749,725,715,707,698,682,659,647,637,625,615,590,571,554,538,532,524],"ymouse":[528,528,528,528,528,528,528,528,528,528,528,528,528,528,528,528,528,528,528,528,528,528,528,528,528,528,528,528,528,528,528,528,528,528,528,528,528,528,528,528,528,527,510,474,430,345,320,301,279,236,171,143,122,107,94,66,53,42,35,34,34],"timestamp_mouse":[17,39,58,77,98,117,138,158,177,199,217,238,257,277,298,317,337,357,377,398,418,438,457,478,498,517,537,558,578,597,617,638,657,678,699,718,738,757,777,798,817,838,857,878,897,918,937,958,977,998,1017,1037,1058,1078,1098,1118,1137,1157,1177,1198,1218],"xSR":741.5,"ySR":501.8,"xT1":424.9,"yT1":0,"xT2":1058.1,"yT2":0,"toosoon":0,"cond_shown":"Incongruent","ratio_trial":300,"L_num":1,"L_den":2,"R_num":2,"R_den":10,"correct_side":1,"subjID":"linabeltran11","gender":"1","school":"4","age":"9"},{"start_time":1552327681519,"click_time":1552327682335,"finger_time":1552327681915,"fix_duration":603.5639726438458,"trial":27,"RT":396,"MT":420,"sideResp":1,"stimulus":[],"xmouse":[791,791,791,791,791,791,791,791,791,791,791,791,791,791,791,789,784,773,755,711,684,649,618,587,539,527,522,521,524,524,522,512,508,499,499,499,499,499,485,476,468],"ymouse":[537,537,537,537,537,537,537,537,537,537,537,537,537,537,537,533,529,524,514,495,484,467,446,423,374,355,341,328,299,282,262,224,216,176,169,161,155,147,119,104,89],"timestamp_mouse":[16,41,57,75,95,117,137,155,175,196,216,236,255,275,295,317,337,355,375,396,416,436,457,475,496,515,536,557,575,595,615,635,655,676,697,716,736,756,777,795,815],"xSR":741.5,"ySR":501.8,"xT1":424.9,"yT1":0,"xT2":1058.1,"yT2":0,"toosoon":0,"cond_shown":"Incongruent","ratio_trial":300,"L_num":4,"L_den":20,"R_num":2,"R_den":4,"correct_side":2,"subjID":"linabeltran11","gender":"1","school":"4","age":"9"},{"start_time":1552327684308,"click_time":1552327685895,"finger_time":1552327685456,"fix_duration":250,"trial":28,"RT":1148,"MT":439,"sideResp":2,"stimulus":[],"xmouse":[802,802,802,802,802,802,802,802,802,802,802,802,803,804,804,804,805,805,805,805,806,806,806,806,808,808,808,808,808,808,808,808,809,809,812,814,816,819,821,828,830,831,832,835,836,836,836,836,836,836,836,836,836,836,836,839,841,844,848,858,866,875,889,894,911,915,921,928,935,939,955,963,979,990,1005,1040,1057,1077,1084,1087],"ymouse":[588,588,588,588,588,588,588,588,588,588,588,588,588,588,588,588,588,588,589,589,589,589,589,589,589,589,589,589,589,589,589,589,590,590,590,589,587,585,582,573,570,566,563,556,552,552,552,552,552,552,552,552,552,552,553,553,550,547,543,532,517,498,467,455,394,366,335,303,274,247,196,177,151,140,132,118,113,106,102,97],"timestamp_mouse":[13,34,46,68,86,107,127,147,167,187,207,226,246,266,286,306,327,348,368,386,407,427,446,467,486,506,527,546,567,587,607,626,647,667,687,706,727,748,767,786,806,827,847,866,886,907,927,946,966,986,1006,1026,1047,1066,1087,1108,1127,1148,1166,1187,1206,1226,1246,1266,1287,1306,1327,1347,1366,1387,1407,1427,1447,1467,1487,1507,1526,1547,1568,1587],"xSR":741.5,"ySR":501.8,"xT1":424.9,"yT1":0,"xT2":1058.1,"yT2":0,"toosoon":0,"cond_shown":"Incongruent","ratio_trial":200,"L_num":7,"L_den":15,"R_num":6,"R_den":9,"correct_side":2,"subjID":"linabeltran11","gender":"1","school":"4","age":"9"},{"start_time":1552327688236,"click_time":1552327688754,"finger_time":1552327688615,"fix_duration":999.8790220995211,"trial":29,"RT":379,"MT":139,"sideResp":2,"stimulus":[],"xmouse":[797,797,797,797,797,797,797,797,797,797,797,797,799,800,802,807,813,820,838,852,869,898,939,990,1095,1128,1142],"ymouse":[580,580,579,579,579,581,582,584,587,589,591,592,594,596,596,595,589,580,547,529,507,474,426,355,181,108,74],"timestamp_mouse":[1,18,43,58,80,99,119,138,159,179,199,219,239,258,279,298,319,340,358,379,399,419,439,459,478,498,518],"xSR":741.5,"ySR":501.8,"xT1":424.9,"yT1":0,"xT2":1058.1,"yT2":0,"toosoon":0,"cond_shown":"Congruent","ratio_trial":300,"L_num":2,"L_den":10,"R_num":12,"R_den":24,"correct_side":2,"subjID":"linabeltran11","gender":"1","school":"4","age":"9"},{"start_time":1552327692763,"click_time":1552327694896,"finger_time":1552327694374,"fix_duration":1268.84530068712,"trial":30,"RT":1611,"MT":522,"sideResp":2,"stimulus":[],"xmouse":[803,803,803,803,803,803,803,803,803,803,803,803,803,803,803,803,803,803,803,803,803,803,803,803,803,803,803,803,803,803,803,803,803,803,803,803,803,803,803,803,803,803,803,803,803,803,803,803,803,803,803,803,803,803,803,803,803,803,803,803,803,803,803,803,803,803,803,803,803,803,803,803,803,803,803,806,813,817,823,829,841,862,879,897,919,935,948,956,958,960,963,985,997,1007,1016,1025,1045,1052,1059,1064,1066,1070,1071,1072,1073,1074,1077],"ymouse":[549,549,549,549,549,549,549,549,549,549,549,549,549,549,549,549,549,549,549,549,549,549,549,549,549,549,549,549,549,549,549,549,549,549,549,549,549,549,549,549,549,549,549,549,549,549,549,549,549,549,549,549,549,549,549,549,549,549,549,549,549,549,549,549,549,549,549,549,549,549,549,549,549,548,547,545,538,531,520,510,484,436,398,348,294,237,193,168,163,160,157,149,147,144,144,142,138,137,134,131,128,121,117,113,109,106,98],"timestamp_mouse":[14,37,52,72,91,111,131,151,171,191,212,231,251,271,292,311,331,352,372,392,412,431,453,471,491,513,532,551,573,592,612,631,651,671,691,712,731,752,771,793,813,831,851,871,892,912,931,951,971,992,1011,1031,1053,1072,1091,1112,1131,1152,1172,1192,1212,1231,1252,1273,1293,1312,1331,1352,1371,1391,1413,1432,1452,1471,1493,1511,1533,1553,1572,1592,1611,1632,1652,1672,1692,1711,1732,1751,1772,1792,1811,1832,1851,1871,1891,1913,1932,1951,1971,1992,2012,2032,2051,2071,2092,2111,2132],"xSR":741.5,"ySR":501.8,"xT1":424.9,"yT1":0,"xT2":1058.1,"yT2":0,"toosoon":0,"cond_shown":"Congruent","ratio_trial":300,"L_num":7,"L_den":14,"R_num":20,"R_den":25,"correct_side":2,"subjID":"linabeltran11","gender":"1","school":"4","age":"9"},{"start_time":1552327702395,"click_time":1552327703995,"finger_time":1552327703594,"fix_duration":1259.92483822942,"trial":31,"RT":1199,"MT":401,"sideResp":2,"stimulus":[],"xmouse":[816,816,816,816,816,816,816,816,816,816,816,816,816,816,816,816,816,816,816,816,816,816,816,816,816,816,817,818,818,818,818,818,818,818,818,818,818,818,818,818,818,818,818,818,818,818,818,818,818,818,818,818,818,818,818,818,818,818,819,820,826,830,834,841,847,860,862,864,865,866,881,885,890,898,911,946,962,971,979,996,1071],"ymouse":[526,526,526,526,526,526,526,526,526,526,526,526,526,526,526,526,526,526,526,526,526,526,526,526,526,526,524,523,522,521,521,521,521,521,521,521,521,521,521,521,521,521,521,521,521,521,521,521,521,521,521,521,521,521,521,521,521,521,519,517,500,489,477,460,442,409,395,384,374,361,321,314,310,307,304,280,264,248,230,200,84],"timestamp_mouse":[1,19,39,60,79,99,119,139,159,180,199,219,239,259,280,299,319,339,360,380,399,420,440,459,481,499,519,539,560,580,599,620,640,659,680,699,720,739,760,779,799,820,840,860,879,899,920,940,960,980,999,1019,1039,1060,1079,1099,1120,1139,1160,1179,1199,1219,1239,1259,1280,1300,1319,1339,1360,1380,1399,1419,1440,1460,1480,1500,1519,1539,1560,1580,1600],"xSR":741.5,"ySR":501.8,"xT1":424.9,"yT1":0,"xT2":1058.1,"yT2":0,"toosoon":0,"cond_shown":"Incongruent","ratio_trial":100,"L_num":3,"L_den":9,"R_num":7,"R_den":30,"correct_side":1,"subjID":"linabeltran11","gender":"1","school":"4","age":"9"},{"start_time":1552327707204,"click_time":1552327707915,"finger_time":1552327707555,"fix_duration":467.7931574804288,"trial":32,"RT":351,"MT":360,"sideResp":1,"stimulus":[],"xmouse":[778,778,778,778,778,778,778,778,778,778,778,778,778,778,777,774,770,762,757,752,750,748,746,744,737,734,729,719,706,651,619,580,542,511,492,459],"ymouse":[513,513,513,513,513,513,513,513,513,513,513,513,513,512,511,507,503,492,488,481,478,476,474,473,470,468,463,455,441,371,325,272,222,167,121,40],"timestamp_mouse":[14,38,50,70,90,111,131,150,170,190,210,230,250,270,290,310,330,351,370,391,410,430,450,471,491,510,530,550,571,591,610,630,650,670,690,711],"xSR":741.5,"ySR":501.8,"xT1":424.9,"yT1":0,"xT2":1058.1,"yT2":0,"toosoon":0,"cond_shown":"Incongruent","ratio_trial":300,"L_num":4,"L_den":20,"R_num":2,"R_den":4,"correct_side":2,"subjID":"linabeltran11","gender":"1","school":"4","age":"9"},{"start_time":1552327712305,"click_time":1552327713575,"finger_time":1552327712514,"fix_duration":250,"trial":33,"RT":209,"MT":1061,"sideResp":1,"stimulus":[],"xmouse":[827,828,828,830,833,833,834,836,837,841,842,842,842,843,843,843,843,843,842,841,841,840,840,840,839,837,836,836,835,835,835,835,835,835,834,833,832,831,830,827,825,823,821,818,815,813,808,801,796,781,770,752,727,698,603,574,560,555,554,554,553,546,526,519],"ymouse":[521,520,520,519,518,517,517,515,513,508,507,506,506,506,506,506,506,509,510,511,511,511,511,511,512,512,513,513,513,513,513,513,513,513,515,516,516,517,519,521,523,525,527,528,528,527,524,519,513,490,469,439,391,350,228,191,169,157,152,145,138,125,102,93],"timestamp_mouse":[17,42,49,69,90,109,130,150,170,189,209,229,250,270,290,309,329,350,369,390,410,430,450,469,489,509,529,550,570,589,609,631,650,670,689,710,730,750,769,789,810,829,849,870,889,909,930,950,970,989,1009,1030,1049,1069,1090,1109,1129,1150,1170,1189,1210,1229,1250,1270],"xSR":741.5,"ySR":501.8,"xT1":424.9,"yT1":0,"xT2":1058.1,"yT2":0,"toosoon":0,"cond_shown":"Incongruent","ratio_trial":100,"L_num":13,"L_den":26,"R_num":12,"R_den":20,"correct_side":2,"subjID":"linabeltran11","gender":"1","school":"4","age":"9"},{"start_time":1552327715880,"click_time":1552327717896,"finger_time":1552327717694,"fix_duration":783.9552104940458,"trial":34,"RT":1814,"MT":202,"sideResp":2,"stimulus":[],"xmouse":[764,763,761,760,759,759,759,759,759,759,759,759,759,759,759,759,759,759,759,759,759,759,759,759,759,759,759,759,759,759,759,758,756,756,756,756,756,756,756,756,756,757,757,758,758,758,758,758,758,758,758,758,758,758,758,758,758,758,758,758,758,758,758,758,758,758,758,758,758,758,758,758,758,758,758,758,758,758,758,758,758,758,758,758,758,758,762,766,771,780,810,825,844,875,896,941,964,978,990,1009,1080],"ymouse":[565,567,571,574,579,580,580,580,580,580,580,580,580,580,580,580,580,580,580,580,580,580,580,580,580,580,580,580,580,580,580,582,582,582,582,582,582,582,582,582,581,580,579,578,577,577,577,577,577,577,577,577,577,577,577,577,577,577,577,577,577,577,577,577,577,577,577,577,577,577,577,577,577,577,577,577,577,577,577,577,577,577,577,577,577,571,564,550,532,507,441,404,369,300,252,144,93,56,40,27,2],"timestamp_mouse":[14,37,54,75,94,114,134,154,174,195,214,235,254,275,294,314,335,354,375,395,414,436,456,475,495,514,535,554,575,595,614,634,655,675,696,714,734,755,778,794,814,835,855,875,895,914,934,955,975,995,1015,1035,1054,1075,1094,1114,1136,1155,1175,1194,1214,1234,1254,1275,1294,1314,1334,1355,1374,1395,1414,1435,1455,1475,1495,1514,1535,1555,1575,1595,1614,1635,1654,1675,1695,1714,1735,1754,1775,1794,1814,1834,1855,1874,1894,1915,1935,1954,1975,1994,2015],"xSR":741.5,"ySR":501.8,"xT1":424.9,"yT1":0,"xT2":1058.1,"yT2":0,"toosoon":0,"cond_shown":"Incongruent","ratio_trial":100,"L_num":13,"L_den":26,"R_num":6,"R_den":10,"correct_side":2,"subjID":"linabeltran11","gender":"1","school":"4","age":"9"},{"start_time":1552327721006,"click_time":1552327722474,"finger_time":1552327722055,"fix_duration":1010.963226079825,"trial":35,"RT":1049,"MT":419,"sideResp":2,"stimulus":[],"xmouse":[799,799,799,799,799,799,799,799,799,799,799,799,799,799,799,799,799,799,799,799,799,799,798,797,796,796,796,796,796,796,796,796,796,796,796,796,796,796,796,796,796,796,795,795,795,793,793,793,793,793,794,798,802,803,803,805,812,824,838,857,872,877,881,885,894,902,913,934,949,999,1039,1072,1090,1103],"ymouse":[515,515,515,515,515,515,515,515,515,515,515,515,515,515,515,515,515,515,515,515,515,515,516,516,516,516,516,516,516,516,516,516,516,516,516,516,516,516,516,516,516,518,518,519,520,521,521,521,521,521,515,502,481,459,390,357,327,299,280,258,238,231,224,218,208,202,193,178,167,139,125,109,102,94],"timestamp_mouse":[10,44,49,69,90,109,129,148,169,188,209,229,248,269,288,309,329,349,369,388,409,429,448,468,488,508,528,548,569,588,609,628,648,669,688,709,729,748,769,788,808,828,849,868,888,908,929,949,969,988,1008,1029,1049,1069,1089,1108,1129,1148,1169,1188,1208,1229,1249,1269,1288,1308,1328,1348,1368,1389,1408,1428,1449,1468],"xSR":741.5,"ySR":501.8,"xT1":424.9,"yT1":0,"xT2":1058.1,"yT2":0,"toosoon":0,"cond_shown":"Congruent","ratio_trial":300,"L_num":18,"L_den":20,"R_num":9,"R_den":15,"correct_side":1,"subjID":"linabeltran11","gender":"1","school":"4","age":"9"},{"start_time":1552327726628,"click_time":1552327727416,"finger_time":1552327726975,"fix_duration":1352.465039716379,"trial":36,"RT":347,"MT":441,"sideResp":1,"stimulus":[],"xmouse":[775,775,775,775,775,777,778,779,779,779,779,779,779,779,780,780,777,762,723,697,669,640,607,549,532,517,509,505,505,505,505,505,505,505,505,507,508,510,513,513],"ymouse":[526,526,526,526,526,528,529,529,529,529,529,529,529,529,529,527,519,496,441,412,379,345,307,242,220,199,188,178,178,178,178,178,177,174,170,163,150,134,103,92],"timestamp_mouse":[15,28,47,66,86,107,126,146,166,186,207,227,247,266,286,306,327,347,366,386,406,427,447,466,486,506,527,546,566,587,608,627,647,667,687,706,727,747,767,788],"xSR":741.5,"ySR":501.8,"xT1":424.9,"yT1":0,"xT2":1058.1,"yT2":0,"toosoon":0,"cond_shown":"Congruent","ratio_trial":200,"L_num":3,"L_den":10,"R_num":14,"R_den":28,"correct_side":2,"subjID":"linabeltran11","gender":"1","school":"4","age":"9"},{"start_time":1552327730687,"click_time":1552327732395,"finger_time":1552327731294,"fix_duration":1429.9022408817661,"trial":37,"RT":607,"MT":1101,"sideResp":1,"stimulus":[],"xmouse":[749,750,750,751,751,751,751,751,751,751,751,751,751,751,751,751,751,751,751,751,751,751,751,751,751,748,747,745,744,742,739,739,739,739,739,739,739,739,739,739,739,739,739,739,739,739,739,739,739,738,738,736,736,736,733,729,725,723,723,723,723,723,723,723,723,723,723,723,723,723,723,723,723,723,723,723,723,723,723,721,711,690,650,568,539,436],"ymouse":[523,521,521,520,520,520,520,520,520,520,520,520,520,520,520,520,520,520,520,520,520,520,520,516,514,512,511,510,509,508,506,506,506,506,506,506,506,506,506,506,506,506,506,506,506,506,506,506,506,506,506,505,505,505,503,500,499,498,498,498,498,498,498,498,498,498,498,498,498,498,498,498,498,498,498,498,498,498,498,493,455,417,346,221,178,40],"timestamp_mouse":[19,45,47,68,87,107,127,148,167,188,207,227,248,269,288,307,327,347,367,387,407,427,448,467,488,507,527,548,567,588,607,628,648,668,687,708,728,748,767,788,808,828,848,868,887,908,927,947,968,988,1008,1027,1047,1068,1087,1108,1128,1147,1167,1188,1207,1227,1247,1268,1288,1308,1327,1347,1368,1388,1408,1428,1448,1468,1487,1507,1527,1548,1567,1587,1607,1627,1647,1667,1687,1707],"xSR":741.5,"ySR":501.8,"xT1":424.9,"yT1":0,"xT2":1058.1,"yT2":0,"toosoon":0,"cond_shown":"Incongruent","ratio_trial":300,"L_num":8,"L_den":10,"R_num":9,"R_den":18,"correct_side":1,"subjID":"linabeltran11","gender":"1","school":"4","age":"9"},{"start_time":1552327734530,"click_time":1552327735415,"finger_time":1552327734974,"fix_duration":873.8144393873125,"trial":38,"RT":444,"MT":441,"sideResp":1,"stimulus":[],"xmouse":[784,784,784,784,784,784,784,784,784,784,784,784,785,785,785,785,785,785,785,785,785,785,782,770,752,724,694,655,599,599,599,599,599,599,599,599,599,599,599,599,599,599,599,526,521],"ymouse":[522,522,522,522,522,522,522,522,522,522,522,522,522,521,520,518,517,516,514,513,512,511,501,453,401,324,234,142,9,9,9,9,9,9,9,9,9,9,9,9,9,9,9,2,23],"timestamp_mouse":[4,35,45,65,84,104,125,144,164,184,205,224,244,264,285,304,325,346,364,385,404,424,444,465,484,504,525,544,564,584,605,624,645,664,685,704,724,744,764,785,804,824,844,864,885],"xSR":741.5,"ySR":501.8,"xT1":424.9,"yT1":0,"xT2":1058.1,"yT2":0,"toosoon":0,"cond_shown":"Congruent","ratio_trial":300,"L_num":4,"L_den":10,"R_num":1,"R_den":10,"correct_side":1,"subjID":"linabeltran11","gender":"1","school":"4","age":"9"},{"start_time":1552327742706,"click_time":1552327744234,"finger_time":1552327744054,"fix_duration":1489.55076126645,"trial":39,"RT":1348,"MT":180,"sideResp":1,"stimulus":[],"xmouse":[746,746,746,746,746,746,746,746,746,746,746,746,746,746,746,746,746,746,746,746,746,746,746,746,746,746,746,746,746,746,746,746,746,746,746,746,746,746,746,746,746,746,746,746,746,746,746,746,746,746,746,746,748,748,748,748,748,748,748,748,748,749,751,751,751,751,750,744,730,707,650,630,612,586,553,537,523],"ymouse":[536,536,536,536,536,536,536,536,536,536,536,536,536,536,536,536,536,536,536,536,536,536,536,536,536,536,536,536,536,536,536,536,536,536,536,536,536,536,536,536,536,536,536,536,536,536,536,536,536,536,536,536,536,536,536,537,537,537,537,537,537,537,535,534,526,518,504,478,441,396,302,257,204,150,70,34,12],"timestamp_mouse":[15,34,49,70,88,108,128,149,169,188,209,229,249,268,288,308,329,348,368,388,408,428,450,468,488,509,529,549,569,588,608,628,648,669,688,709,728,748,768,788,808,828,849,869,890,908,928,948,968,988,1008,1029,1048,1068,1088,1109,1128,1149,1169,1188,1209,1228,1249,1269,1288,1309,1329,1348,1368,1388,1408,1429,1448,1468,1488,1508,1528],"xSR":741.5,"ySR":501.8,"xT1":424.9,"yT1":0,"xT2":1058.1,"yT2":0,"toosoon":0,"cond_shown":"Incongruent","ratio_trial":200,"L_num":3,"L_den":4,"R_num":11,"R_den":20,"correct_side":1,"subjID":"linabeltran11","gender":"1","school":"4","age":"9"},{"start_time":1552327746247,"click_time":1552327747456,"finger_time":1552327746694,"fix_duration":951.5779829430649,"trial":40,"RT":447,"MT":762,"sideResp":1,"stimulus":[],"xmouse":[760,760,760,760,760,760,760,760,761,761,762,762,762,762,763,764,765,766,766,766,766,760,735,705,668,610,562,496,481,469,460,455,453,453,453,457,462,486,499,514,528,543,567,573,575,575,567,540,526,526,526,526,526,526,526,526,526,526,526,526,448],"ymouse":[568,568,568,568,568,568,568,568,568,568,568,568,568,568,568,568,567,565,562,557,550,538,509,487,465,437,408,371,363,356,350,344,342,340,335,329,322,295,284,265,243,210,149,120,86,58,30,4,0,0,0,0,0,0,0,0,0,0,0,0,15],"timestamp_mouse":[11,32,47,68,87,107,127,147,167,187,208,227,247,267,287,307,328,347,368,388,407,428,447,467,487,508,528,547,567,587,607,627,647,667,688,708,728,747,767,787,808,827,848,867,887,907,928,948,968,987,1007,1028,1048,1068,1088,1108,1127,1148,1168,1188,1208],"xSR":741.5,"ySR":501.8,"xT1":424.9,"yT1":0,"xT2":1058.1,"yT2":0,"toosoon":0,"cond_shown":"Congruent","ratio_trial":300,"L_num":9,"L_den":10,"R_num":3,"R_den":5,"correct_side":1,"subjID":"linabeltran11","gender":"1","school":"4","age":"9"},{"start_time":1552327749145,"click_time":1552327750095,"finger_time":1552327749574,"fix_duration":250,"trial":41,"RT":429,"MT":521,"sideResp":1,"stimulus":[],"xmouse":[789,789,789,789,789,789,789,789,789,789,789,789,789,789,789,789,790,791,791,791,785,774,745,740,736,731,725,709,699,687,673,650,623,612,601,593,582,565,560,559,558,558,549,543,536,525,515,489],"ymouse":[568,568,568,568,568,568,568,568,568,568,568,568,568,568,568,568,567,557,549,537,518,492,441,423,404,384,364,329,314,302,293,283,272,270,267,265,261,253,249,246,238,234,196,176,151,125,100,57],"timestamp_mouse":[14,39,49,70,89,110,129,149,169,189,209,230,249,269,290,310,330,349,370,389,410,429,450,469,489,510,530,551,569,589,609,629,649,669,690,710,729,750,769,789,809,829,849,871,889,909,929,950],"xSR":741.5,"ySR":501.8,"xT1":424.9,"yT1":0,"xT2":1058.1,"yT2":0,"toosoon":0,"cond_shown":"Congruent","ratio_trial":200,"L_num":3,"L_den":10,"R_num":11,"R_den":22,"correct_side":2,"subjID":"linabeltran11","gender":"1","school":"4","age":"9"},{"start_time":1552327753568,"click_time":1552327755134,"finger_time":1552327755014,"fix_duration":491.81096400784975,"trial":42,"RT":1446,"MT":120,"sideResp":1,"stimulus":[],"xmouse":[820,821,821,821,821,821,821,821,821,820,820,817,817,815,815,814,812,811,810,810,810,810,810,810,810,810,810,810,810,810,810,810,810,810,810,810,810,810,810,810,810,810,810,810,810,810,810,810,810,810,810,810,810,810,810,810,810,810,810,810,810,808,808,808,808,808,808,808,806,804,802,785,764,732,677,622,561,488,471],"ymouse":[562,563,563,563,563,563,563,563,563,564,564,565,565,566,567,568,569,570,571,571,571,571,571,571,571,571,571,571,571,571,571,571,571,571,571,571,571,571,571,571,571,571,571,571,571,571,571,571,571,571,571,571,571,571,571,571,571,571,571,571,571,572,572,572,572,572,572,572,572,570,566,533,495,427,346,269,194,111,92],"timestamp_mouse":[15,40,47,67,87,106,126,146,166,186,208,226,246,267,287,306,326,347,366,387,406,426,446,466,486,506,526,547,566,587,607,626,646,667,687,706,726,746,767,787,806,826,846,866,887,906,926,946,966,988,1008,1026,1046,1066,1086,1107,1127,1146,1167,1187,1206,1226,1247,1266,1287,1308,1326,1347,1367,1387,1407,1426,1446,1466,1487,1507,1526,1546,1566],"xSR":741.5,"ySR":501.8,"xT1":424.9,"yT1":0,"xT2":1058.1,"yT2":0,"toosoon":0,"cond_shown":"Incongruent","ratio_trial":200,"L_num":14,"L_den":30,"R_num":6,"R_den":9,"correct_side":2,"subjID":"linabeltran11","gender":"1","school":"4","age":"9"},{"start_time":1552327757712,"click_time":1552327761014,"finger_time":1552327759794,"fix_duration":716.6029491117741,"trial":43,"RT":2082,"MT":1220,"sideResp":2,"stimulus":[],"xmouse":[769,769,769,769,769,769,769,769,769,769,769,769,769,769,769,769,769,769,769,769,769,769,769,769,769,769,769,769,769,769,769,769,769,769,769,769,769,769,769,769,769,769,769,769,769,769,769,769,769,769,769,769,769,769,769,769,769,769,769,769,769,769,769,769,769,769,769,769,769,769,769,769,769,769,769,769,769,769,769,769,769,769,769,769,769,769,769,769,769,769,769,769,769,769,769,769,769,769,770,770,771,773,780,786,838,874,917,960,988,1010,1015,1017,1018,1019,1020,1023,1023,1023,1023,1023,1023,1023,1023,1023,1023,1023,1023,1023,1024,1024,1026,1029,1032,1040,1056,1064,1072,1078,1083,1089,1098,1099,1101,1102,1104,1104,1105,1107,1108,1109,1110,1111,1112,1113,1115,1116,1116,1117,1117,1118,1118,1118,1118,1109,1084,1081],"ymouse":[514,514,514,514,514,514,514,514,514,514,514,514,514,514,514,514,514,514,514,514,514,514,514,514,514,514,514,514,514,514,514,514,514,514,514,514,514,514,514,514,514,514,514,514,514,514,514,514,514,514,514,514,514,514,514,514,514,514,514,514,514,514,514,514,514,514,514,514,514,514,514,514,514,514,514,514,514,514,514,514,514,514,514,514,514,514,514,514,514,514,514,514,514,514,514,514,514,514,514,514,514,514,514,512,493,467,427,381,340,300,294,291,291,291,291,291,291,291,291,291,291,291,291,291,291,291,291,291,291,290,289,288,285,279,267,257,246,234,227,221,213,211,209,207,205,204,203,202,200,199,198,197,196,195,193,192,191,188,187,183,180,175,165,140,104,99],"timestamp_mouse":[9,22,42,62,82,103,122,142,163,182,202,223,243,264,282,303,323,344,363,382,403,422,442,463,482,502,523,543,562,582,602,623,643,662,682,703,722,742,762,783,802,822,843,863,882,902,923,942,963,983,1002,1023,1043,1064,1082,1102,1123,1143,1163,1182,1203,1222,1244,1263,1282,1302,1322,1343,1364,1382,1402,1422,1442,1463,1482,1503,1523,1543,1562,1583,1603,1623,1643,1663,1682,1702,1723,1742,1763,1783,1802,1823,1842,1863,1882,1903,1923,1943,1962,1982,2003,2022,2043,2063,2082,2102,2122,2143,2163,2182,2202,2224,2242,2262,2282,2303,2323,2342,2362,2382,2402,2423,2443,2462,2483,2502,2522,2542,2562,2583,2602,2622,2643,2662,2682,2702,2722,2742,2763,2783,2802,2822,2842,2863,2883,2903,2923,2943,2963,2982,3003,3023,3042,3062,3082,3102,3122,3142,3163,3182,3203,3222,3242,3262,3282,3302],"xSR":741.5,"ySR":501.8,"xT1":424.9,"yT1":0,"xT2":1058.1,"yT2":0,"toosoon":0,"cond_shown":"Congruent","ratio_trial":100,"L_num":4,"L_den":8,"R_num":6,"R_den":10,"correct_side":2,"subjID":"linabeltran11","gender":"1","school":"4","age":"9"},{"start_time":1552327763945,"click_time":1552327764913,"finger_time":1552327764394,"fix_duration":250,"trial":44,"RT":449,"MT":519,"sideResp":2,"stimulus":[],"xmouse":[759,759,759,760,760,761,761,762,762,762,762,763,763,764,764,765,768,772,776,780,787,797,819,834,851,873,888,917,928,940,972,1039,1039,1039,1039,1039,1039,1039,1039,1039,1039,1039,1039,1039,1039,1039,1039,1039,1116],"ymouse":[526,526,526,527,527,527,527,527,527,527,527,528,530,531,532,533,534,535,535,531,524,511,480,459,440,416,395,340,302,256,170,5,5,5,5,5,5,5,5,5,5,5,5,5,5,5,5,5,27],"timestamp_mouse":[9,28,51,70,89,109,128,149,170,189,209,230,249,268,290,309,329,348,368,389,410,430,449,469,490,508,528,550,570,590,608,629,648,669,688,710,730,750,769,789,810,830,849,869,888,909,929,949,968],"xSR":741.5,"ySR":501.8,"xT1":424.9,"yT1":0,"xT2":1058.1,"yT2":0,"toosoon":0,"cond_shown":"Congruent","ratio_trial":300,"L_num":20,"L_den":25,"R_num":9,"R_den":18,"correct_side":1,"subjID":"linabeltran11","gender":"1","school":"4","age":"9"},{"start_time":1552327769372,"click_time":1552327770554,"finger_time":1552327769893,"fix_duration":1257.8107522111052,"trial":45,"RT":521,"MT":661,"sideResp":2,"stimulus":[],"xmouse":[781,786,798,801,802,802,802,802,802,802,802,802,802,802,802,803,803,803,803,804,804,808,811,814,819,829,884,936,1006,1129,1166,1249,1249,1249,1249,1249,1249,1249,1249,1249,1249,1249,1249,1249,1249,1249,1249,1249,1249,1249,1249,1249,1249,1249,1249,1249,1249,1249,1249,1133],"ymouse":[532,538,550,553,554,555,555,555,555,555,555,555,555,555,555,555,555,555,555,555,555,550,547,541,531,518,461,410,337,193,139,25,25,25,25,25,25,25,25,25,25,25,25,25,25,25,25,25,25,25,25,25,25,25,25,25,25,25,25,8],"timestamp_mouse":[1,21,48,62,81,101,123,142,161,183,201,221,243,262,282,301,321,341,361,382,402,422,442,461,483,502,521,541,562,581,602,622,642,661,682,701,722,741,761,783,802,822,842,862,881,902,921,942,961,981,1002,1021,1043,1062,1081,1101,1122,1143,1163,1182],"xSR":741.5,"ySR":501.8,"xT1":424.9,"yT1":0,"xT2":1058.1,"yT2":0,"toosoon":0,"cond_shown":"Congruent","ratio_trial":100,"L_num":6,"L_den":20,"R_num":5,"R_den":25,"correct_side":1,"subjID":"linabeltran11","gender":"1","school":"4","age":"9"},{"start_time":1552327773646,"click_time":1552327774695,"finger_time":1552327774074,"fix_duration":1131.600782388319,"trial":46,"RT":428,"MT":621,"sideResp":2,"stimulus":[],"xmouse":[764,764,764,764,764,764,764,764,764,764,764,764,764,764,764,764,764,772,787,805,826,847,891,919,962,1017,1127,1264,1311,1341,1359,1363,1358,1347,1332,1304,1294,1243,1233,1230,1229,1229,1229,1229,1229,1229,1229,1219,1205,1186,1172,1161,1154],"ymouse":[570,570,570,570,570,570,570,570,570,570,570,570,570,570,570,570,570,570,566,562,559,556,546,532,502,463,380,280,237,198,167,151,130,122,116,107,102,82,79,79,79,79,79,79,79,79,79,77,74,69,66,64,64],"timestamp_mouse":[12,35,48,68,88,109,129,147,168,188,207,229,249,267,289,309,327,347,367,387,408,428,447,468,488,509,528,548,568,587,608,628,649,669,687,707,727,748,767,789,807,828,848,868,888,909,929,948,967,988,1008,1027,1049],"xSR":741.5,"ySR":501.8,"xT1":424.9,"yT1":0,"xT2":1058.1,"yT2":0,"toosoon":0,"cond_shown":"Incongruent","ratio_trial":300,"L_num":13,"L_den":26,"R_num":12,"R_den":15,"correct_side":2,"subjID":"linabeltran11","gender":"1","school":"4","age":"9"},{"start_time":1552327776720,"click_time":1552327777694,"finger_time":1552327777093,"fix_duration":525.3230283341736,"trial":47,"RT":373,"MT":601,"sideResp":2,"stimulus":[],"xmouse":[806,806,806,808,809,810,811,812,812,812,812,813,813,815,817,820,825,833,863,885,911,942,985,1030,1054,1080,1104,1123,1145,1147,1147,1146,1145,1130,1118,1101,1087,1076,1056,1049,1045,1044,1044,1056,1070,1083,1097,1107,1119],"ymouse":[571,571,571,568,567,567,565,565,564,564,564,563,563,561,559,556,551,547,528,512,490,459,399,319,283,254,227,202,174,166,162,160,159,156,155,152,150,149,141,137,134,133,130,121,116,111,106,100,83],"timestamp_mouse":[13,40,55,73,93,114,133,154,174,194,213,233,255,273,294,315,334,354,373,394,414,434,455,474,493,513,534,553,574,595,615,634,655,673,694,713,734,754,775,795,814,835,854,873,895,915,935,954,973],"xSR":741.5,"ySR":501.8,"xT1":424.9,"yT1":0,"xT2":1058.1,"yT2":0,"toosoon":0,"cond_shown":"Incongruent","ratio_trial":200,"L_num":7,"L_den":10,"R_num":8,"R_den":16,"correct_side":1,"subjID":"linabeltran11","gender":"1","school":"4","age":"9"},{"start_time":1552327780754,"click_time":1552327781354,"finger_time":1552327781193,"fix_duration":278.9441434057287,"trial":48,"RT":439,"MT":161,"sideResp":1,"stimulus":[],"xmouse":[750,750,750,750,750,750,750,750,750,750,750,750,750,750,750,750,750,749,748,746,745,744,738,735,726,715,697,649,615,572,505],"ymouse":[569,569,569,569,569,569,569,569,569,569,569,569,569,569,569,569,568,567,564,562,559,554,525,496,454,411,356,233,167,92,2],"timestamp_mouse":[1,20,41,59,81,99,120,139,161,180,199,219,240,260,281,299,320,339,360,379,401,420,439,460,479,500,521,539,559,580,600],"xSR":741.5,"ySR":501.8,"xT1":424.9,"yT1":0,"xT2":1058.1,"yT2":0,"toosoon":0,"cond_shown":"Congruent","ratio_trial":300,"L_num":1,"L_den":20,"R_num":7,"R_den":20,"correct_side":2,"subjID":"linabeltran11","gender":"1","school":"4","age":"9"},{"start_time":1552327783245,"click_time":1552327783815,"finger_time":1552327783634,"fix_duration":250,"trial":49,"RT":389,"MT":181,"sideResp":2,"stimulus":[],"xmouse":[798,798,798,798,798,798,798,798,798,798,798,798,798,798,798,798,798,802,808,816,823,832,857,878,907,940,992,1057,1081],"ymouse":[528,528,528,528,528,528,528,528,528,528,528,528,528,528,528,528,526,518,505,489,471,452,400,368,327,276,206,122,93],"timestamp_mouse":[10,35,49,69,88,109,129,150,168,188,210,229,249,269,289,310,329,348,369,389,410,430,449,469,488,509,530,549,569],"xSR":741.5,"ySR":501.8,"xT1":424.9,"yT1":0,"xT2":1058.1,"yT2":0,"toosoon":0,"cond_shown":"Incongruent","ratio_trial":100,"L_num":6,"L_den":10,"R_num":7,"R_den":14,"correct_side":1,"subjID":"linabeltran11","gender":"1","school":"4","age":"9"},{"start_time":1552327790281,"click_time":1552327791093,"finger_time":1552327790293,"fix_duration":966.6474070473296,"trial":50,"RT":12,"MT":800,"sideResp":1,"stimulus":[],"xmouse":[801,781,778,763,751,740,713,699,684,668,651,620,602,555,486,337,321,320,319,321,325,329,333,336,343,361,371,380,389,397,406,409,411,412,412,412,414,417,418,422,425],"ymouse":[497,478,476,464,454,444,422,407,394,377,360,334,318,291,251,178,165,162,161,161,161,160,157,153,148,134,127,124,119,116,112,110,109,109,109,109,107,104,102,100,98],"timestamp_mouse":[12,33,54,73,93,112,134,152,172,193,212,233,253,273,293,313,332,352,372,393,412,434,453,474,492,513,532,552,572,592,613,632,653,672,693,714,734,753,773,792,812],"xSR":741.5,"ySR":501.8,"xT1":424.9,"yT1":0,"xT2":1058.1,"yT2":0,"toosoon":0,"cond_shown":"Incongruent","ratio_trial":300,"L_num":4,"L_den":5,"R_num":6,"R_den":12,"correct_side":1,"subjID":"linabeltran11","gender":"1","school":"4","age":"9"},{"start_time":1552327792649,"click_time":1552327793394,"finger_time":1552327793194,"fix_duration":311.39377092657395,"trial":51,"RT":545,"MT":200,"sideResp":1,"stimulus":[],"xmouse":[822,822,822,822,822,822,822,822,822,822,822,822,822,822,822,822,822,822,819,817,814,810,802,798,795,791,785,754,716,667,616,573,535,532,531,529,522,505],"ymouse":[551,551,550,550,550,550,550,549,549,548,548,548,548,548,548,548,548,547,545,544,542,540,536,533,530,526,516,474,426,363,296,246,191,177,162,140,104,74],"timestamp_mouse":[11,26,46,65,84,105,126,146,164,185,204,225,245,264,284,306,325,345,365,384,404,426,444,465,485,506,524,545,565,585,605,625,645,665,685,705,725,744],"xSR":741.5,"ySR":501.8,"xT1":424.9,"yT1":0,"xT2":1058.1,"yT2":0,"toosoon":0,"cond_shown":"Congruent","ratio_trial":100,"L_num":2,"L_den":5,"R_num":6,"R_den":12,"correct_side":2,"subjID":"linabeltran11","gender":"1","school":"4","age":"9"},{"start_time":1552327811612,"click_time":1552327812934,"finger_time":1552327812214,"fix_duration":276.8009390800649,"trial":52,"RT":602,"MT":720,"sideResp":1,"stimulus":[],"xmouse":[770,770,770,770,770,770,770,770,770,770,770,770,770,770,770,770,770,770,770,770,770,770,770,770,770,770,771,771,771,764,759,751,741,727,694,677,660,650,640,634,634,635,637,637,637,635,630,624,615,606,593,569,530,474,422,418,418,418,418,418,418,418,418,418,418,424,427],"ymouse":[556,556,556,556,556,556,556,556,556,556,555,555,555,555,555,555,555,555,555,555,555,555,555,555,555,555,553,548,545,517,499,479,456,429,365,324,286,253,222,185,176,168,164,160,152,146,142,139,135,132,129,124,115,102,94,93,93,93,93,91,90,89,89,87,86,83,81],"timestamp_mouse":[10,36,42,63,82,101,123,142,161,182,202,221,241,262,282,302,323,342,361,381,402,422,441,463,482,501,522,542,562,582,602,622,642,661,682,701,721,741,761,782,802,821,842,862,882,902,922,942,963,982,1002,1021,1042,1062,1082,1101,1123,1142,1163,1182,1201,1221,1241,1261,1281,1303,1322],"xSR":741.5,"ySR":501.8,"xT1":424.9,"yT1":0,"xT2":1058.1,"yT2":0,"toosoon":0,"cond_shown":"Congruent","ratio_trial":200,"L_num":12,"L_den":20,"R_num":6,"R_den":15,"correct_side":1,"subjID":"linabeltran11","gender":"1","school":"4","age":"9"},{"start_time":1552327814648,"click_time":1552327815574,"finger_time":1552327815155,"fix_duration":291.81766471382355,"trial":53,"RT":507,"MT":419,"sideResp":1,"stimulus":[],"xmouse":[768,768,768,768,768,768,768,769,769,769,769,769,769,769,769,769,769,769,769,769,769,769,768,765,758,749,727,691,673,652,635,622,610,608,607,601,591,559,547,541,538,536,521,512,502,492,487],"ymouse":[538,538,538,538,538,538,539,540,540,540,540,540,540,540,540,540,540,540,540,540,540,540,535,524,509,488,453,394,367,338,314,293,265,260,256,249,239,217,208,201,193,185,156,139,122,105,91],"timestamp_mouse":[5,26,46,66,86,105,126,147,167,187,205,226,247,265,285,307,325,345,365,387,407,426,446,466,485,507,526,545,566,586,605,625,646,667,686,707,726,745,766,787,807,826,846,866,886,906,926],"xSR":741.5,"ySR":501.8,"xT1":424.9,"yT1":0,"xT2":1058.1,"yT2":0,"toosoon":0,"cond_shown":"Congruent","ratio_trial":300,"L_num":1,"L_den":5,"R_num":6,"R_den":12,"correct_side":2,"subjID":"linabeltran11","gender":"1","school":"4","age":"9"},{"start_time":1552327824143,"click_time":1552327825095,"finger_time":1552327824594,"fix_duration":627.7271083305491,"trial":54,"RT":451,"MT":501,"sideResp":2,"stimulus":[],"xmouse":[785,785,785,785,785,785,785,785,785,785,785,785,785,785,785,785,785,785,786,788,795,807,882,911,941,971,992,1029,1040,1046,1049,1051,1056,1063,1070,1080,1090,1107,1110,1110,1111,1111,1111,1111,1111,1111,1109,1093],"ymouse":[546,546,546,546,546,546,546,546,546,546,546,546,546,546,546,546,546,546,546,544,529,504,382,334,288,247,216,172,164,161,160,160,156,152,147,142,136,124,121,121,120,120,120,118,116,113,109,93],"timestamp_mouse":[13,39,51,72,90,112,132,151,178,190,211,232,251,270,292,311,331,351,371,392,412,431,451,471,491,511,530,551,571,592,611,632,651,670,691,710,732,752,771,792,811,832,851,872,892,911,931,951],"xSR":741.5,"ySR":501.8,"xT1":424.9,"yT1":0,"xT2":1058.1,"yT2":0,"toosoon":0,"cond_shown":"Incongruent","ratio_trial":200,"L_num":9,"L_den":15,"R_num":8,"R_den":10,"correct_side":2,"subjID":"linabeltran11","gender":"1","school":"4","age":"9"},{"start_time":1552327827592,"click_time":1552327828154,"finger_time":1552327827994,"fix_duration":456.8856902909023,"trial":55,"RT":402,"MT":160,"sideResp":2,"stimulus":[],"xmouse":[833,833,833,833,833,833,833,833,833,833,833,833,832,832,831,831,831,831,831,831,836,840,847,853,863,890,920,991,1135],"ymouse":[526,526,526,525,525,525,525,525,525,525,525,525,524,523,522,521,519,517,516,514,493,478,456,430,396,321,263,175,24],"timestamp_mouse":[11,37,42,62,82,102,122,142,163,182,203,221,243,262,282,302,323,342,362,383,402,421,441,463,483,502,521,542,562],"xSR":741.5,"ySR":501.8,"xT1":424.9,"yT1":0,"xT2":1058.1,"yT2":0,"toosoon":0,"cond_shown":"Incongruent","ratio_trial":100,"L_num":2,"L_den":4,"R_num":8,"R_den":20,"correct_side":1,"subjID":"linabeltran11","gender":"1","school":"4","age":"9"},{"start_time":1552327831011,"click_time":1552327832373,"finger_time":1552327831793,"fix_duration":274.5124974664728,"trial":56,"RT":782,"MT":580,"sideResp":1,"stimulus":[],"xmouse":[794,794,794,794,794,794,794,794,794,794,794,794,794,794,794,794,794,794,794,794,794,794,794,794,794,794,794,794,794,794,794,794,794,794,794,794,794,792,791,789,781,761,733,701,648,634,627,620,604,597,597,597,597,597,597,597,597,597,597,597,597,597,526,526,526,526,526,525,524],"ymouse":[545,545,545,545,545,545,545,545,545,545,545,545,545,545,545,545,545,545,545,545,545,545,545,545,545,545,545,545,545,545,545,545,545,545,545,545,539,531,522,476,410,330,255,185,90,67,50,36,11,2,2,2,2,2,2,2,2,2,2,2,2,2,8,15,21,22,23,25,25],"timestamp_mouse":[14,29,46,63,83,103,123,142,164,184,202,224,243,263,282,304,322,342,364,383,402,424,444,464,483,503,523,542,563,583,602,622,643,664,683,703,723,744,762,782,803,823,843,863,883,903,923,943,963,983,1004,1023,1043,1063,1083,1103,1123,1143,1164,1184,1204,1224,1243,1264,1283,1302,1324,1343,1362],"xSR":741.5,"ySR":501.8,"xT1":424.9,"yT1":0,"xT2":1058.1,"yT2":0,"toosoon":0,"cond_shown":"Incongruent","ratio_trial":100,"L_num":1,"L_den":2,"R_num":8,"R_den":20,"correct_side":1,"subjID":"linabeltran11","gender":"1","school":"4","age":"9"},{"start_time":1552327838584,"click_time":1552327839895,"finger_time":1552327839075,"fix_duration":268.7054643210993,"trial":57,"RT":491,"MT":820,"sideResp":1,"stimulus":[],"xmouse":[796,793,793,793,793,793,793,793,792,792,790,790,790,790,789,787,786,785,784,781,775,768,761,747,729,690,672,656,633,630,629,629,629,629,628,628,628,627,624,621,602,590,577,564,555,542,542,542,542,542,542,542,542,542,542,542,542,544,545,547,546,541,536,532,530,516],"ymouse":[557,540,534,529,526,526,526,526,525,525,526,530,533,537,538,541,542,542,542,542,539,532,521,508,494,465,451,437,410,405,394,389,386,384,383,380,377,373,361,356,314,285,241,197,163,135,135,135,135,135,133,131,130,130,130,130,128,121,115,111,108,106,104,101,99,90],"timestamp_mouse":[12,36,51,70,90,111,131,149,170,190,209,231,251,271,291,310,331,350,371,390,410,431,451,470,491,509,530,551,571,589,610,631,651,669,690,710,730,751,771,789,810,831,851,870,891,911,929,951,971,991,1011,1029,1050,1069,1090,1109,1130,1150,1171,1190,1210,1230,1251,1271,1289,1310],"xSR":741.5,"ySR":501.8,"xT1":424.9,"yT1":0,"xT2":1058.1,"yT2":0,"toosoon":0,"cond_shown":"Congruent","ratio_trial":200,"L_num":6,"L_den":15,"R_num":3,"R_den":15,"correct_side":1,"subjID":"linabeltran11","gender":"1","school":"4","age":"9"},{"start_time":1552327843861,"click_time":1552327844994,"finger_time":1552327844494,"fix_duration":786.5296117344235,"trial":58,"RT":633,"MT":500,"sideResp":2,"stimulus":[],"xmouse":[800,800,800,801,801,801,801,801,801,801,799,798,797,796,796,796,806,808,808,808,808,808,808,807,804,798,794,794,795,804,821,856,870,878,885,892,913,920,927,934,941,946,958,963,965,965,970,974,979,985,992,1005,1011,1017,1025,1044,1107],"ymouse":[515,515,515,514,512,511,505,504,504,504,504,506,509,511,517,519,531,531,531,531,531,531,531,532,533,533,533,533,534,531,522,492,477,461,446,429,375,352,334,313,291,276,243,225,213,203,178,165,150,134,119,94,86,81,79,76,65],"timestamp_mouse":[14,36,53,73,93,114,133,154,174,194,213,233,253,274,292,314,332,354,372,394,414,433,453,473,493,514,533,553,572,592,614,633,653,674,694,713,733,753,773,793,813,833,852,872,893,913,933,952,973,993,1013,1033,1053,1073,1094,1114,1133],"xSR":741.5,"ySR":501.8,"xT1":424.9,"yT1":0,"xT2":1058.1,"yT2":0,"toosoon":0,"cond_shown":"Congruent","ratio_trial":100,"L_num":7,"L_den":14,"R_num":15,"R_den":25,"correct_side":2,"subjID":"linabeltran11","gender":"1","school":"4","age":"9"},{"start_time":1552327847437,"click_time":1552327847994,"finger_time":1552327847793,"fix_duration":942.5861669458213,"trial":59,"RT":356,"MT":201,"sideResp":2,"stimulus":[],"xmouse":[758,758,758,758,758,758,758,759,762,766,770,773,778,782,786,800,805,861,896,930,963,989,1032,1046,1058,1074,1079,1106],"ymouse":[528,528,528,528,528,528,528,528,528,528,528,526,524,522,519,507,502,443,400,358,316,279,205,168,147,123,115,82],"timestamp_mouse":[22,37,57,78,97,116,138,157,177,197,217,237,256,278,298,317,337,356,377,397,417,436,457,476,498,518,536,557],"xSR":741.5,"ySR":501.8,"xT1":424.9,"yT1":0,"xT2":1058.1,"yT2":0,"toosoon":0,"cond_shown":"Congruent","ratio_trial":200,"L_num":12,"L_den":20,"R_num":6,"R_den":15,"correct_side":1,"subjID":"linabeltran11","gender":"1","school":"4