[{"start_time":1552055628831,"click_time":1552055630842,"finger_time":1552055629801,"fix_duration":683.1936451449658,"trial":0,"RT":970,"MT":1041,"sideResp":2,"stimulus":"img/500/equaldotanddens/R/12_Ratio_500_L_1_R_2.png","xmouse":[809,809,809,809,809,809,809,809,809,809,809,809,809,809,809,809,809,809,809,809,809,809,809,809,809,809,809,809,809,809,809,809,809,809,809,809,809,809,809,809,809,809,809,809,809,817,828,851,866,892,953,1043,1104,1147,1285,1331,1374,1413,1413,1413,1413,1413,1413,1413,1413,1413,1413,1413,1413,1413,1413,1413,1413,1413,1413,1413,1413,1321,1303,1294,1286,1283,1283,1280,1258,1247,1237,1228,1222,1208,1199,1191,1184,1179,1170,1170,1170,1170,1169,1158],"ymouse":[497,497,497,497,497,497,497,497,497,497,497,497,497,497,497,497,497,497,497,497,497,497,497,497,497,497,497,497,497,497,497,497,497,497,497,497,497,497,497,497,497,497,497,497,497,492,483,451,422,386,352,311,285,261,159,118,74,21,21,21,21,21,21,21,21,21,21,21,21,21,21,21,21,21,21,21,21,3,7,8,9,9,9,11,20,23,24,27,28,30,31,32,34,35,39,39,39,39,39,43],"timestamp_mouse":[11,55,71,92,111,130,152,171,192,210,232,252,271,291,311,331,350,372,392,412,431,452,472,491,512,531,550,571,592,611,630,651,670,692,710,731,752,772,790,812,831,851,872,891,912,931,951,970,991,1011,1030,1051,1071,1091,1110,1131,1151,1170,1192,1211,1230,1251,1270,1290,1311,1331,1351,1371,1391,1411,1432,1451,1471,1490,1511,1530,1551,1571,1592,1610,1631,1651,1672,1691,1710,1731,1752,1772,1792,1811,1832,1851,1871,1890,1911,1931,1951,1972,1992,2010],"xSR":741.5,"ySR":469.95,"xT1":424.9,"yT1":0,"xT2":1058.1,"yT2":0,"toosoon":0,"cond_shown":"equaldotanddens","ratio_trial":500,"smaller_num":"1","larger_num":"2","correct_side":2,"subjID":"lucianaquirogahernandez3","gender":"1","age":"9","school":"4","test":{"fix_dur":[250,1500],"timestim":300,"targets_dim":[100,100],"targets_relative_coord":[0.3,0.7],"size_stim":[880,420],"start_dim":[100,100],"size_start":[300,300],"size_fix":60,"samplingrate":20,"img_types":["equaldotsize","equaldotanddens","randomdotsizeEA"],"ratios":[250,500,750,900],"rep_conds":9,"nTrials":120,"trials_to_rest":500,"Trials_order":[100,75,27,113,2,76,89,92,22,7,41,104,73,86,20,11,71,15,106,57,19,24,14,119,87,109,33,45,64,38,48,101,10,51,28,96,47,72,63,3,103,52,110,6,29,35,83,16,58,42,80,53,59,84,105,56,94,81,25,85,82,55,67,107,116,18,1,13,66,62,37,61,79,93,117,115,118,102,97,46,17,88,98,90,50,74,23,31,4,0,39,26,68,9,77,91,5,99,21,34,40,112,114,36,44,43,8,32,49,65,30,12,95,54,111,108,78,60,70,69],"cond_shown":["equaldotanddens","equaldotsize","equaldotsize","randomdotsizeEA","randomdotsizeEA","equaldotanddens","randomdotsizeEA","randomdotsizeEA","equaldotanddens","equaldotanddens","randomdotsizeEA","randomdotsizeEA","equaldotanddens","randomdotsizeEA","randomdotsizeEA","randomdotsizeEA","randomdotsizeEA","equaldotsize","equaldotanddens","equaldotsize","equaldotanddens","equaldotsize","randomdotsizeEA","randomdotsizeEA","equaldotsize","equaldotanddens","equaldotsize","equaldotsize","equaldotanddens","randomdotsizeEA","equaldotsize","randomdotsizeEA","equaldotanddens","equaldotsize","equaldotanddens","equaldotsize","randomdotsizeEA","equaldotsize","equaldotsize","equaldotsize","equaldotanddens","equaldotanddens","randomdotsizeEA","equaldotsize","randomdotsizeEA","randomdotsizeEA","randomdotsizeEA","equaldotanddens","equaldotanddens","equaldotsize","randomdotsizeEA","randomdotsizeEA","randomdotsizeEA","equaldotsize","equaldotsize","randomdotsizeEA","equaldotanddens","equaldotsize","equaldotanddens","equaldotanddens","equaldotanddens","equaldotanddens","equaldotanddens","randomdotsizeEA","randomdotsizeEA","equaldotsize","equaldotanddens","equaldotanddens","equaldotsize","randomdotsizeEA","equaldotanddens","equaldotanddens","equaldotanddens","equaldotsize","equaldotsize","equaldotanddens","equaldotanddens","equaldotsize","equaldotanddens","equaldotanddens","randomdotsizeEA","equaldotanddens","randomdotsizeEA","equaldotsize","randomdotsizeEA","randomdotsizeEA","randomdotsizeEA","equaldotanddens","equaldotanddens","equaldotsize","equaldotsize","randomdotsizeEA","randomdotsizeEA","equaldotsize","randomdotsizeEA","equaldotanddens","randomdotsizeEA","equaldotsize","equaldotsize","equaldotanddens","equaldotanddens","equaldotanddens","equaldotsize","equaldotsize","randomdotsizeEA","equaldotanddens","randomdotsizeEA","randomdotsizeEA","equaldotanddens","randomdotsizeEA","equaldotsize","equaldotsize","randomdotsizeEA","equaldotsize","equaldotsize","equaldotsize","equaldotsize","equaldotsize","equaldotanddens","equaldotsize"],"ratio_trial":[500,500,500,500,250,500,500,750,900,750,500,750,250,250,750,900,900,500,900,900,750,250,250,900,500,250,900,900,500,250,250,500,900,500,500,250,900,250,500,500,750,500,250,750,500,900,900,500,900,750,750,500,900,250,900,750,900,900,250,250,900,750,750,900,750,750,250,250,750,250,250,250,750,900,900,750,900,750,250,900,500,500,250,750,250,250,900,750,500,250,500,250,750,900,500,750,500,500,900,900,500,500,750,250,750,750,750,750,250,500,750,250,900,750,500,250,750,250,900,900],"smaller_num":["1","1","3","9","2","3","10","3","18","3","3","12","3","2","15","18","18","2","18","18","6","4","3","9","2","5","18","9","6","4","2","9","9","3","6","6","18","3","5","10","18","2","2","12","9","9","18","2","18","6","3","6","9","4","18","3","18","18","3","3","18","3","3","18","12","6","1","3","6","5","2","2","3","9","9","6","9","6","5","18","5","5","1","15","3","1","18","3","2","3","1","1","6","18","1","3","5","6","18","18","10","1","3","2","15","15","12","18","4","6","3","5","9","12","2","5","9","2","18","18"],"larger_num":["2","2","6","18","8","6","20","4","20","4","6","16","12","8","20","20","20","4","20","20","8","16","12","10","4","20","20","10","12","16","8","18","10","6","12","24","20","12","10","20","24","4","8","16","18","10","20","4","20","8","4","12","10","16","20","4","20","20","12","12","20","4","4","20","16","8","4","12","8","20","8","8","4","10","10","8","10","8","20","20","10","10","4","20","12","4","20","4","4","12","2","4","8","20","2","4","10","12","20","20","20","2","4","8","20","20","16","24","16","12","4","20","10","16","4","20","12","8","20","20"],"correct_side":[2,2,2,2,1,2,2,1,1,2,2,2,1,1,1,2,1,1,1,1,1,1,2,1,1,2,1,2,1,2,1,2,2,2,1,1,2,1,1,2,1,1,1,2,2,2,2,1,1,1,1,1,2,1,2,1,2,2,1,2,2,1,1,2,2,1,2,1,2,2,1,1,2,2,2,1,2,1,2,1,1,2,2,2,2,2,1,1,1,1,2,2,1,1,2,1,1,1,2,2,2,2,1,1,2,2,2,1,1,1,1,2,2,2,1,2,2,2,1,2],"img_shown":["img/500/equaldotanddens/R/12_Ratio_500_L_1_R_2.png","img/500/equaldotsize/R/15_Ratio_500_L_1_R_2.png","img/500/equaldotsize/R/2_Ratio_500_L_3_R_6.png","img/500/randomdotsizeEA/R/1_Ratio_500_L_9_R_18.png","img/250/randomdotsizeEA/L/7_Ratio_250_L_8_R_2.png","img/500/equaldotanddens/R/2_Ratio_500_L_3_R_6.png","img/500/randomdotsizeEA/R/3_Ratio_500_L_10_R_20.png","img/750/randomdotsizeEA/L/10_Ratio_750_L_4_R_3.png","img/900/equaldotanddens/L/8_Ratio_900_L_20_R_18.png","img/750/equaldotanddens/R/7_Ratio_750_L_3_R_4.png","img/500/randomdotsizeEA/R/2_Ratio_500_L_3_R_6.png","img/750/randomdotsizeEA/R/11_Ratio_750_L_12_R_16.png","img/250/equaldotanddens/L/15_Ratio_250_L_12_R_3.png","img/250/randomdotsizeEA/L/1_Ratio_250_L_8_R_2.png","img/750/randomdotsizeEA/L/1_Ratio_750_L_20_R_15.png","img/900/randomdotsizeEA/R/13_Ratio_900_L_18_R_20.png","img/900/randomdotsizeEA/L/4_Ratio_900_L_20_R_18.png","img/500/equaldotsize/L/10_Ratio_500_L_4_R_2.png","img/900/equaldotanddens/L/2_Ratio_900_L_20_R_18.png","img/900/equaldotsize/L/2_Ratio_900_L_20_R_18.png","img/750/equaldotanddens/L/13_Ratio_750_L_8_R_6.png","img/250/equaldotsize/L/2_Ratio_250_L_16_R_4.png","img/250/randomdotsizeEA/R/4_Ratio_250_L_3_R_12.png","img/900/randomdotsizeEA/L/1_Ratio_900_L_10_R_9.png","img/500/equaldotsize/L/5_Ratio_500_L_4_R_2.png","img/250/equaldotanddens/R/12_Ratio_250_L_5_R_20.png","img/900/equaldotsize/L/2_Ratio_900_L_20_R_18.png","img/900/equaldotsize/R/5_Ratio_900_L_9_R_10.png","img/500/equaldotanddens/L/11_Ratio_500_L_12_R_6.png","img/250/randomdotsizeEA/R/10_Ratio_250_L_4_R_16.png","img/250/equaldotsize/L/1_Ratio_250_L_8_R_2.png","img/500/randomdotsizeEA/R/1_Ratio_500_L_9_R_18.png","img/900/equaldotanddens/R/7_Ratio_900_L_9_R_10.png","img/500/equaldotsize/R/2_Ratio_500_L_3_R_6.png","img/500/equaldotanddens/L/13_Ratio_500_L_12_R_6.png","img/250/equaldotsize/L/5_Ratio_250_L_24_R_6.png","img/900/randomdotsizeEA/R/14_Ratio_900_L_18_R_20.png","img/250/equaldotsize/L/14_Ratio_250_L_12_R_3.png","img/500/equaldotsize/L/7_Ratio_500_L_10_R_5.png","img/500/equaldotsize/R/3_Ratio_500_L_10_R_20.png","img/750/equaldotanddens/L/6_Ratio_750_L_24_R_18.png","img/500/equaldotanddens/L/5_Ratio_500_L_4_R_2.png","img/250/randomdotsizeEA/L/1_Ratio_250_L_8_R_2.png","img/750/equaldotsize/R/11_Ratio_750_L_12_R_16.png","img/500/randomdotsizeEA/R/1_Ratio_500_L_9_R_18.png","img/900/randomdotsizeEA/R/3_Ratio_900_L_9_R_10.png","img/900/randomdotsizeEA/R/13_Ratio_900_L_18_R_20.png","img/500/equaldotanddens/L/10_Ratio_500_L_4_R_2.png","img/900/equaldotanddens/L/10_Ratio_900_L_20_R_18.png","img/750/equaldotsize/L/13_Ratio_750_L_8_R_6.png","img/750/randomdotsizeEA/L/9_Ratio_750_L_4_R_3.png","img/500/randomdotsizeEA/L/11_Ratio_500_L_12_R_6.png","img/900/randomdotsizeEA/R/6_Ratio_900_L_9_R_10.png","img/250/equaldotsize/L/2_Ratio_250_L_16_R_4.png","img/900/equaldotsize/R/13_Ratio_900_L_18_R_20.png","img/750/randomdotsizeEA/L/8_Ratio_750_L_4_R_3.png","img/900/equaldotanddens/R/14_Ratio_900_L_18_R_20.png","img/900/equaldotsize/R/9_Ratio_900_L_18_R_20.png","img/250/equaldotanddens/L/14_Ratio_250_L_12_R_3.png","img/250/equaldotanddens/R/9_Ratio_250_L_3_R_12.png","img/900/equaldotanddens/R/12_Ratio_900_L_18_R_20.png","img/750/equaldotanddens/L/10_Ratio_750_L_4_R_3.png","img/750/equaldotanddens/L/9_Ratio_750_L_4_R_3.png","img/900/randomdotsizeEA/R/12_Ratio_900_L_18_R_20.png","img/750/randomdotsizeEA/R/11_Ratio_750_L_12_R_16.png","img/750/equaldotsize/L/13_Ratio_750_L_8_R_6.png","img/250/equaldotanddens/R/8_Ratio_250_L_1_R_4.png","img/250/equaldotanddens/L/14_Ratio_250_L_12_R_3.png","img/750/equaldotsize/R/2_Ratio_750_L_6_R_8.png","img/250/randomdotsizeEA/R/12_Ratio_250_L_5_R_20.png","img/250/equaldotanddens/L/7_Ratio_250_L_8_R_2.png","img/250/equaldotanddens/L/3_Ratio_250_L_8_R_2.png","img/750/equaldotanddens/R/12_Ratio_750_L_3_R_4.png","img/900/equaldotsize/R/7_Ratio_900_L_9_R_10.png","img/900/equaldotsize/R/7_Ratio_900_L_9_R_10.png","img/750/equaldotanddens/L/14_Ratio_750_L_8_R_6.png","img/900/equaldotanddens/R/7_Ratio_900_L_9_R_10.png","img/750/equaldotsize/L/14_Ratio_750_L_8_R_6.png","img/250/equaldotanddens/R/12_Ratio_250_L_5_R_20.png","img/900/equaldotanddens/L/8_Ratio_900_L_20_R_18.png","img/500/randomdotsizeEA/L/7_Ratio_500_L_10_R_5.png","img/500/equaldotanddens/R/14_Ratio_500_L_5_R_10.png","img/250/randomdotsizeEA/R/8_Ratio_250_L_1_R_4.png","img/750/equaldotsize/R/3_Ratio_750_L_15_R_20.png","img/250/randomdotsizeEA/R/9_Ratio_250_L_3_R_12.png","img/250/randomdotsizeEA/R/8_Ratio_250_L_1_R_4.png","img/900/randomdotsizeEA/L/2_Ratio_900_L_20_R_18.png","img/750/equaldotanddens/L/10_Ratio_750_L_4_R_3.png","img/500/equaldotanddens/L/10_Ratio_500_L_4_R_2.png","img/250/equaldotsize/L/14_Ratio_250_L_12_R_3.png","img/500/equaldotsize/R/12_Ratio_500_L_1_R_2.png","img/250/randomdotsizeEA/R/8_Ratio_250_L_1_R_4.png","img/750/randomdotsizeEA/L/13_Ratio_750_L_8_R_6.png","img/900/equaldotsize/L/8_Ratio_900_L_20_R_18.png","img/500/randomdotsizeEA/R/12_Ratio_500_L_1_R_2.png","img/750/equaldotanddens/L/10_Ratio_750_L_4_R_3.png","img/500/randomdotsizeEA/L/7_Ratio_500_L_10_R_5.png","img/500/equaldotsize/L/13_Ratio_500_L_12_R_6.png","img/900/equaldotsize/R/14_Ratio_900_L_18_R_20.png","img/900/equaldotanddens/R/11_Ratio_900_L_18_R_20.png","img/500/equaldotanddens/R/3_Ratio_500_L_10_R_20.png","img/500/equaldotanddens/R/15_Ratio_500_L_1_R_2.png","img/750/equaldotsize/L/9_Ratio_750_L_4_R_3.png","img/250/equaldotsize/L/7_Ratio_250_L_8_R_2.png","img/750/randomdotsizeEA/R/3_Ratio_750_L_15_R_20.png","img/750/equaldotanddens/R/5_Ratio_750_L_15_R_20.png","img/750/randomdotsizeEA/R/11_Ratio_750_L_12_R_16.png","img/750/randomdotsizeEA/L/6_Ratio_750_L_24_R_18.png","img/250/equaldotanddens/L/2_Ratio_250_L_16_R_4.png","img/500/randomdotsizeEA/L/11_Ratio_500_L_12_R_6.png","img/750/equaldotsize/L/9_Ratio_750_L_4_R_3.png","img/250/equaldotsize/R/12_Ratio_250_L_5_R_20.png","img/900/randomdotsizeEA/R/7_Ratio_900_L_9_R_10.png","img/750/equaldotsize/R/11_Ratio_750_L_12_R_16.png","img/500/equaldotsize/L/5_Ratio_500_L_4_R_2.png","img/250/equaldotsize/R/12_Ratio_250_L_5_R_20.png","img/750/equaldotsize/R/15_Ratio_750_L_9_R_12.png","img/250/equaldotsize/R/13_Ratio_250_L_2_R_8.png","img/900/equaldotanddens/L/2_Ratio_900_L_20_R_18.png","img/900/equaldotsize/R/13_Ratio_900_L_18_R_20.png"],"Rat0":[["12_Ratio_0_L_9_R_0.png","13_Ratio_0_L_6_R_0.png","5_Ratio_0_L_2_R_0.png","6_Ratio_0_L_4_R_0.png","8_Ratio_0_L_6_R_0.png"],["1_Ratio_0_L_0_R_17.png","10_Ratio_0_L_0_R_22.png","11_Ratio_0_L_0_R_1.png","14_Ratio_0_L_0_R_24.png","15_Ratio_0_L_0_R_4.png","2_Ratio_0_L_0_R_5.png","3_Ratio_0_L_0_R_17.png","4_Ratio_0_L_0_R_7.png","7_Ratio_0_L_0_R_19.png","9_Ratio_0_L_0_R_15.png"]],"Rat250":[["1_Ratio_250_L_8_R_2.png","14_Ratio_250_L_12_R_3.png","15_Ratio_250_L_12_R_3.png","2_Ratio_250_L_16_R_4.png","3_Ratio_250_L_8_R_2.png","5_Ratio_250_L_24_R_6.png","7_Ratio_250_L_8_R_2.png"],["10_Ratio_250_L_4_R_16.png","11_Ratio_250_L_3_R_12.png","12_Ratio_250_L_5_R_20.png","13_Ratio_250_L_2_R_8.png","4_Ratio_250_L_3_R_12.png","6_Ratio_250_L_6_R_24.png","8_Ratio_250_L_1_R_4.png","9_Ratio_250_L_3_R_12.png"]],"Rat500":[["10_Ratio_500_L_4_R_2.png","11_Ratio_500_L_12_R_6.png","13_Ratio_500_L_12_R_6.png","4_Ratio_500_L_18_R_9.png","5_Ratio_500_L_4_R_2.png","7_Ratio_500_L_10_R_5.png","8_Ratio_500_L_8_R_4.png"],["1_Ratio_500_L_9_R_18.png","12_Ratio_500_L_1_R_2.png","14_Ratio_500_L_5_R_10.png","15_Ratio_500_L_1_R_2.png","2_Ratio_500_L_3_R_6.png","3_Ratio_500_L_10_R_20.png","6_Ratio_500_L_9_R_18.png","9_Ratio_500_L_2_R_4.png"]],"Rat750":[["1_Ratio_750_L_20_R_15.png","10_Ratio_750_L_4_R_3.png","13_Ratio_750_L_8_R_6.png","14_Ratio_750_L_8_R_6.png","6_Ratio_750_L_24_R_18.png","8_Ratio_750_L_4_R_3.png","9_Ratio_750_L_4_R_3.png"],["11_Ratio_750_L_12_R_16.png","12_Ratio_750_L_3_R_4.png","15_Ratio_750_L_9_R_12.png","2_Ratio_750_L_6_R_8.png","3_Ratio_750_L_15_R_20.png","4_Ratio_750_L_15_R_20.png","5_Ratio_750_L_15_R_20.png","7_Ratio_750_L_3_R_4.png"]],"Rat900":[["1_Ratio_900_L_10_R_9.png","10_Ratio_900_L_20_R_18.png","2_Ratio_900_L_20_R_18.png","4_Ratio_900_L_20_R_18.png","8_Ratio_900_L_20_R_18.png"],["11_Ratio_900_L_18_R_20.png","12_Ratio_900_L_18_R_20.png","13_Ratio_900_L_18_R_20.png","14_Ratio_900_L_18_R_20.png","15_Ratio_900_L_9_R_10.png","3_Ratio_900_L_9_R_10.png","5_Ratio_900_L_9_R_10.png","6_Ratio_900_L_9_R_10.png","7_Ratio_900_L_9_R_10.png","9_Ratio_900_L_18_R_20.png"]],"Rat1000":[["10_Ratio_1000_L_16_R_16.png","11_Ratio_1000_L_6_R_6.png","12_Ratio_1000_L_14_R_14.png","13_Ratio_1000_L_20_R_20.png","15_Ratio_1000_L_15_R_15.png","2_Ratio_1000_L_17_R_17.png","4_Ratio_1000_L_9_R_9.png","5_Ratio_1000_L_6_R_6.png","6_Ratio_1000_L_19_R_19.png","8_Ratio_1000_L_14_R_14.png","9_Ratio_1000_L_25_R_25.png"],["1_Ratio_1000_L_1_R_1.png","14_Ratio_1000_L_17_R_17.png","3_Ratio_1000_L_17_R_17.png","7_Ratio_1000_L_6_R_6.png"]]}},{"start_time":1552055632990,"click_time":1552055634243,"finger_time":1552055633642,"fix_duration":507.2462051832569,"trial":1,"RT":652,"MT":601,"sideResp":2,"stimulus":"img/500/equaldotsize/R/15_Ratio_500_L_1_R_2.png","xmouse":[779,779,779,779,779,779,779,779,779,779,779,779,779,779,779,779,779,779,779,779,779,779,779,779,779,779,779,779,779,784,789,799,835,855,879,901,923,972,985,1006,1022,1035,1053,1060,1065,1067,1071,1075,1079,1084,1091,1096,1109,1112,1116,1118,1120,1123,1125,1125,1126,1126,1127],"ymouse":[530,530,530,530,530,530,530,530,530,530,530,530,530,530,530,530,530,530,530,530,530,530,530,530,530,530,530,530,530,526,521,507,468,444,415,390,362,314,303,285,271,260,245,240,235,233,228,220,213,206,196,188,169,160,149,146,138,127,121,116,111,107,98],"timestamp_mouse":[13,37,52,73,91,113,133,153,171,192,213,232,252,273,291,311,332,352,372,391,411,432,452,471,492,511,533,553,572,591,613,631,652,672,692,713,732,751,771,791,812,832,852,871,892,911,932,951,971,992,1012,1033,1051,1072,1092,1112,1133,1153,1171,1192,1211,1232,1252],"xSR":741.5,"ySR":469.95,"xT1":424.9,"yT1":0,"xT2":1058.1,"yT2":0,"toosoon":0,"cond_shown":"equaldotsize","ratio_trial":500,"smaller_num":"1","larger_num":"2","correct_side":2,"subjID":"lucianaquirogahernandez3","gender":"1","age":"9","school":"4"},{"start_time":1552055636769,"click_time":1552055637861,"finger_time":1552055637402,"fix_duration":1426.3177188516054,"trial":2,"RT":633,"MT":459,"sideResp":2,"stimulus":"img/500/equaldotsize/R/2_Ratio_500_L_3_R_6.png","xmouse":[789,789,789,789,789,789,789,789,789,789,789,789,789,789,789,789,789,789,789,789,789,789,789,789,789,789,789,789,796,810,832,855,881,937,978,1003,1029,1046,1081,1094,1108,1118,1128,1141,1146,1152,1155,1157,1159,1161,1162,1162,1162,1160,1156],"ymouse":[498,498,498,498,498,498,498,498,498,498,498,498,498,498,498,498,498,498,498,498,498,498,498,498,498,498,498,498,494,488,478,467,451,408,367,340,308,285,245,229,213,199,185,162,154,142,135,129,123,114,109,107,104,101,99],"timestamp_mouse":[20,46,53,73,94,113,133,154,173,193,214,233,254,273,293,314,333,354,373,394,413,432,453,472,494,514,532,552,574,593,612,633,652,674,693,714,734,753,775,792,814,833,852,875,893,913,932,953,973,994,1013,1034,1053,1074,1092],"xSR":741.5,"ySR":469.95,"xT1":424.9,"yT1":0,"xT2":1058.1,"yT2":0,"toosoon":0,"cond_shown":"equaldotsize","ratio_trial":500,"smaller_num":"3","larger_num":"6","correct_side":2,"subjID":"lucianaquirogahernandez3","gender":"1","age":"9","school":"4"},{"start_time":1552055639595,"click_time":1552055642183,"finger_time":1552055641482,"fix_duration":250,"trial":3,"RT":1887,"MT":701,"sideResp":1,"stimulus":"img/500/randomdotsizeEA/R/1_Ratio_500_L_9_R_18.png","xmouse":[815,814,814,813,813,813,813,812,812,810,810,810,810,809,809,809,808,808,808,808,808,808,808,808,808,808,808,808,808,808,808,808,808,808,808,808,808,808,808,808,808,808,808,808,808,808,808,808,808,808,808,808,808,808,808,808,808,808,808,808,808,808,808,808,808,808,808,808,808,808,808,808,808,808,808,808,808,808,808,808,808,808,808,808,808,808,808,808,808,808,808,808,808,805,802,800,797,794,784,776,766,752,726,696,685,671,658,649,633,627,618,611,602,594,591,588,582,578,569,566,561,555,551,540,535,531,529,527,525,524],"ymouse":[481,482,482,484,484,484,484,485,485,487,487,487,488,488,489,489,489,489,489,489,489,489,489,489,489,489,489,489,489,489,489,489,489,489,489,489,489,489,489,489,489,489,489,489,489,489,489,489,489,489,489,489,489,489,489,489,489,489,489,489,489,489,489,489,489,489,489,489,489,489,489,489,489,489,489,489,489,489,489,489,489,489,489,489,489,489,489,489,489,489,486,485,483,473,466,458,448,437,405,383,360,335,294,243,221,201,184,171,149,141,132,125,118,113,112,110,110,108,102,101,98,95,92,85,82,80,79,78,77,76],"timestamp_mouse":[10,40,48,67,87,108,127,146,168,187,207,226,247,266,287,307,326,347,368,386,407,427,448,467,487,507,528,547,566,586,608,627,648,668,687,706,726,746,767,788,808,828,848,867,887,906,927,948,966,988,1008,1027,1048,1068,1087,1108,1127,1147,1167,1188,1206,1227,1248,1267,1287,1308,1328,1346,1367,1388,1407,1428,1447,1468,1487,1507,1527,1547,1566,1587,1607,1627,1647,1666,1686,1708,1728,1747,1766,1787,1808,1828,1848,1866,1887,1908,1927,1947,1967,1987,2006,2027,2046,2067,2088,2107,2126,2148,2166,2187,2208,2227,2247,2268,2287,2306,2327,2346,2367,2387,2407,2428,2448,2467,2487,2507,2527,2548,2567,2587],"xSR":741.5,"ySR":469.95,"xT1":424.9,"yT1":0,"xT2":1058.1,"yT2":0,"toosoon":0,"cond_shown":"randomdotsizeEA","ratio_trial":500,"smaller_num":"9","larger_num":"18","correct_side":2,"subjID":"lucianaquirogahernandez3","gender":"1","age":"9","school":"4"},{"start_time":1552055645717,"click_time":1552055647621,"finger_time":1552055646363,"fix_duration":453.08937588645847,"trial":4,"RT":646,"MT":1258,"sideResp":1,"stimulus":"img/250/randomdotsizeEA/L/7_Ratio_250_L_8_R_2.png","xmouse":[802,802,802,801,801,801,801,801,801,801,801,801,801,801,801,801,801,801,801,801,801,801,801,801,801,801,801,801,801,801,801,804,827,843,870,889,906,924,956,972,989,1003,1015,1035,1046,1052,1058,1062,1069,1069,1069,1069,1069,1069,1069,1067,1058,1040,986,929,865,789,656,550,485,444,424,414,410,408,400,384,360,306,300,298,298,299,309,323,336,351,364,379,382,386,389,393,401,404,408,410,411,414,419,425],"ymouse":[482,482,482,482,482,482,482,482,482,482,482,482,482,482,482,482,482,482,482,482,482,482,482,482,483,484,484,484,484,484,484,482,469,459,435,416,397,381,344,328,310,294,277,243,222,210,196,187,166,160,154,151,150,149,149,149,147,145,145,145,150,172,219,262,283,294,297,298,298,297,292,278,258,199,186,177,173,169,159,149,141,129,120,98,92,87,84,80,77,76,76,76,75,75,75,75],"timestamp_mouse":[5,36,45,66,85,105,126,146,166,185,205,225,244,265,285,305,326,345,364,385,406,425,445,466,485,506,526,546,565,586,606,626,646,665,686,705,725,745,764,785,805,826,844,864,885,906,925,945,965,986,1005,1026,1045,1066,1085,1104,1125,1145,1164,1186,1205,1226,1247,1265,1285,1304,1325,1346,1365,1384,1405,1424,1445,1465,1485,1506,1524,1545,1565,1585,1604,1624,1644,1665,1686,1705,1726,1746,1764,1784,1805,1824,1845,1864,1885,1904],"xSR":741.5,"ySR":469.95,"xT1":424.9,"yT1":0,"xT2":1058.1,"yT2":0,"toosoon":0,"cond_shown":"randomdotsizeEA","ratio_trial":250,"smaller_num":"2","larger_num":"8","correct_side":1,"subjID":"lucianaquirogahernandez3","gender":"1","age":"9","school":"4"},{"start_time":1552055649565,"click_time":1552055651042,"finger_time":1552055650422,"fix_duration":300.48901403290716,"trial":5,"RT":857,"MT":620,"sideResp":2,"stimulus":"img/500/equaldotanddens/R/2_Ratio_500_L_3_R_6.png","xmouse":[761,761,761,761,761,761,761,761,761,761,761,761,761,761,761,761,761,761,761,761,761,761,761,761,761,761,761,761,761,761,761,761,761,761,761,761,761,765,770,780,814,833,856,878,899,934,952,966,981,996,1015,1034,1042,1049,1054,1060,1061,1061,1061,1062,1063,1064,1064,1065,1067,1072,1076,1079,1083,1089,1098,1100,1101,1101],"ymouse":[516,516,516,516,516,516,516,516,516,516,516,516,516,516,516,516,516,516,516,516,516,516,516,516,516,516,516,516,516,516,516,516,516,516,516,516,516,516,515,510,491,479,467,455,443,421,406,394,380,364,341,311,297,284,272,252,245,238,232,225,216,213,208,203,197,184,176,170,161,148,129,119,108,97],"timestamp_mouse":[18,37,57,77,97,116,138,158,177,197,217,236,258,278,297,317,338,357,376,396,417,437,456,477,498,517,538,557,577,597,616,637,658,677,697,716,737,757,777,798,817,838,857,878,898,918,936,956,977,997,1017,1037,1057,1076,1097,1117,1136,1156,1176,1197,1217,1237,1257,1276,1296,1317,1336,1356,1376,1398,1417,1437,1457,1476],"xSR":741.5,"ySR":469.95,"xT1":424.9,"yT1":0,"xT2":1058.1,"yT2":0,"toosoon":0,"cond_shown":"equaldotanddens","ratio_trial":500,"smaller_num":"3","larger_num":"6","correct_side":2,"subjID":"lucianaquirogahernandez3","gender":"1","age":"9","school":"4"},{"start_time":1552055653081,"click_time":1552055655022,"finger_time":1552055654463,"fix_duration":897.4998420213669,"trial":6,"RT":1382,"MT":559,"sideResp":2,"stimulus":"img/500/randomdotsizeEA/R/3_Ratio_500_L_10_R_20.png","xmouse":[765,765,765,766,769,770,770,770,770,770,770,770,770,770,770,770,770,770,770,770,770,770,770,770,770,770,770,770,770,770,770,770,770,770,770,770,770,770,770,771,771,772,772,772,772,772,772,772,772,772,772,772,772,772,772,772,772,772,772,772,772,772,773,776,782,792,804,816,833,852,881,892,910,924,937,949,974,986,996,1008,1020,1044,1060,1068,1078,1084,1093,1098,1100,1101,1103,1104,1105,1105,1105,1105,1105,1105],"ymouse":[515,515,515,515,515,515,515,515,515,515,515,515,515,515,515,515,515,515,515,515,515,515,515,515,515,515,515,515,515,515,515,515,515,515,515,515,515,515,515,515,515,515,515,515,515,515,515,515,515,515,515,515,515,515,515,515,515,515,515,515,515,515,513,512,510,503,497,490,479,466,438,427,403,383,366,348,313,298,284,266,249,216,192,177,161,148,126,118,111,108,105,101,100,100,100,100,100,99],"timestamp_mouse":[16,22,43,61,80,101,122,140,162,182,200,222,241,261,282,300,320,342,362,382,400,422,442,462,481,502,521,541,562,581,602,622,642,662,681,700,721,741,760,782,802,821,841,861,882,902,922,942,961,982,1002,1021,1041,1062,1082,1101,1121,1141,1162,1180,1201,1221,1241,1261,1281,1302,1322,1341,1360,1382,1404,1420,1442,1461,1481,1501,1521,1542,1561,1582,1602,1620,1642,1662,1681,1701,1720,1741,1760,1782,1801,1820,1840,1860,1882,1901,1921,1940],"xSR":741.5,"ySR":469.95,"xT1":424.9,"yT1":0,"xT2":1058.1,"yT2":0,"toosoon":0,"cond_shown":"randomdotsizeEA","ratio_trial":500,"smaller_num":"10","larger_num":"20","correct_side":2,"subjID":"lucianaquirogahernandez3","gender":"1","age":"9","school":"4"},{"start_time":1552055657032,"click_time":1552055659183,"finger_time":1552055658582,"fix_duration":707.6273243588149,"trial":7,"RT":1550,"MT":601,"sideResp":2,"stimulus":"img/750/randomdotsizeEA/L/10_Ratio_750_L_4_R_3.png","xmouse":[799,799,799,799,799,799,799,799,799,796,795,793,793,793,793,793,793,793,793,793,793,793,793,793,792,791,790,790,789,789,789,789,789,789,789,789,789,789,789,789,789,789,789,789,789,789,789,789,789,789,789,789,789,789,789,789,789,789,789,789,789,789,789,789,789,789,789,789,789,789,789,789,790,803,813,822,833,845,870,886,900,912,923,950,960,971,982,993,1015,1022,1032,1044,1048,1066,1070,1075,1079,1084,1088,1094,1097,1101,1106,1109,1113,1115,1115,1115],"ymouse":[508,508,508,508,508,508,508,508,508,508,508,509,509,509,509,509,509,509,509,509,509,509,509,509,510,510,511,511,511,512,512,512,512,512,512,512,512,512,512,512,512,512,512,512,512,512,512,512,512,512,512,512,512,512,512,512,512,512,512,512,512,512,512,512,512,512,512,512,512,512,512,512,510,503,498,494,490,483,464,453,442,432,421,391,374,358,346,329,294,279,260,237,231,198,187,178,169,161,155,145,141,135,127,119,109,105,101,99],"timestamp_mouse":[13,36,50,70,91,111,129,149,170,190,210,230,250,271,289,309,330,351,370,391,411,430,449,471,490,509,530,550,570,590,609,630,650,669,690,710,731,751,771,790,810,830,850,871,890,911,930,949,971,991,1010,1029,1049,1069,1090,1111,1131,1149,1170,1191,1209,1229,1249,1271,1290,1310,1331,1350,1371,1389,1410,1431,1450,1470,1490,1511,1530,1550,1571,1590,1610,1630,1650,1669,1690,1710,1730,1751,1770,1790,1810,1829,1850,1870,1891,1911,1930,1949,1970,1990,2010,2030,2050,2070,2089,2110,2129,2150],"xSR":741.5,"ySR":469.95,"xT1":424.9,"yT1":0,"xT2":1058.1,"yT2":0,"toosoon":0,"cond_shown":"randomdotsizeEA","ratio_trial":750,"smaller_num":"3","larger_num":"4","correct_side":1,"subjID":"lucianaquirogahernandez3","gender":"1","age":"9","school":"4"},{"start_time":1552055661309,"click_time":1552055663222,"finger_time":1552055662602,"fix_duration":705.2528143661301,"trial":8,"RT":1293,"MT":620,"sideResp":2,"stimulus":"img/900/equaldotanddens/L/8_Ratio_900_L_20_R_18.png","xmouse":[800,800,800,800,800,800,800,800,800,800,800,800,800,800,800,800,800,800,800,800,800,800,800,800,800,800,800,800,800,800,800,800,800,800,800,800,800,800,800,800,800,800,800,800,800,800,800,800,800,800,800,800,800,800,800,800,800,800,800,807,812,819,827,837,852,879,900,913,926,951,963,974,986,998,1020,1031,1043,1057,1065,1078,1084,1087,1091,1093,1097,1099,1100,1102,1103,1106,1107,1108,1109,1109,1109,1109],"ymouse":[494,494,494,494,494,494,494,494,494,494,494,494,494,494,494,494,494,494,494,494,494,494,494,494,494,494,494,494,494,494,494,494,494,494,494,494,494,494,494,494,494,494,494,494,494,494,494,494,494,494,494,494,494,494,494,494,494,494,494,492,489,486,481,476,467,449,432,421,407,377,362,348,330,313,274,255,237,212,198,173,162,153,145,140,131,126,123,120,116,109,106,104,102,102,101,98],"timestamp_mouse":[15,43,53,72,92,112,133,154,173,193,212,234,252,273,294,314,333,353,373,393,414,433,452,473,494,513,533,553,572,593,613,634,654,673,692,714,734,753,772,793,814,833,854,873,892,913,934,952,973,993,1013,1034,1053,1073,1093,1113,1134,1153,1173,1193,1213,1233,1253,1272,1293,1313,1332,1353,1373,1394,1412,1433,1454,1472,1494,1513,1533,1553,1573,1594,1612,1633,1654,1672,1694,1713,1734,1754,1773,1795,1813,1832,1852,1874,1893,1913],"xSR":741.5,"ySR":469.95,"xT1":424.9,"yT1":0,"xT2":1058.1,"yT2":0,"toosoon":0,"cond_shown":"equaldotanddens","ratio_trial":900,"smaller_num":"18","larger_num":"20","correct_side":1,"subjID":"lucianaquirogahernandez3","gender":"1","age":"9","school":"4"},{"start_time":1552055665599,"click_time":1552055667723,"finger_time":1552055666302,"fix_duration":994.2554821389275,"trial":9,"RT":703,"MT":1421,"sideResp":2,"stimulus":"img/750/equaldotanddens/R/7_Ratio_750_L_3_R_4.png","xmouse":[808,808,808,808,808,808,808,808,808,808,808,808,808,808,808,808,808,808,808,808,808,808,809,810,810,811,812,812,812,812,812,812,812,812,812,812,806,802,797,792,784,761,756,754,742,729,702,690,682,676,669,649,644,640,636,632,628,628,627,626,626,626,626,628,631,641,676,703,733,765,802,874,899,919,937,954,975,982,988,999,1007,1032,1043,1054,1065,1075,1096,1102,1109,1115,1119,1124,1125,1127,1127,1127,1127,1127,1127,1127,1127,1126,1125,1123,1121,1119,1116],"ymouse":[501,501,501,501,501,501,501,501,501,501,501,501,501,501,501,501,501,501,501,501,501,498,495,493,490,488,486,486,485,483,481,479,477,475,470,465,453,446,438,429,415,376,368,365,346,329,291,273,257,242,226,181,166,151,139,126,115,110,108,108,108,108,108,108,112,123,152,170,189,208,230,268,279,289,296,303,308,308,308,306,303,291,285,278,271,263,247,241,231,223,217,206,200,194,186,180,167,160,153,147,139,130,125,121,113,106,90],"timestamp_mouse":[12,36,43,63,82,104,124,144,163,182,204,224,243,264,282,302,323,344,364,383,403,422,443,462,484,503,522,542,564,583,603,622,643,664,682,703,723,744,763,783,802,822,843,863,884,903,923,943,964,983,1004,1023,1042,1063,1084,1102,1123,1142,1164,1183,1204,1223,1243,1262,1283,1303,1323,1343,1364,1384,1404,1423,1442,1463,1483,1502,1523,1544,1564,1583,1602,1623,1644,1664,1682,1703,1723,1743,1763,1783,1804,1823,1844,1864,1884,1903,1923,1942,1962,1983,2004,2022,2042,2064,2084,2103,2123],"xSR":741.5,"ySR":469.95,"xT1":424.9,"yT1":0,"xT2":1058.1,"yT2":0,"toosoon":0,"cond_shown":"equaldotanddens","ratio_trial":750,"smaller_num":"3","larger_num":"4","correct_side":2,"subjID":"lucianaquirogahernandez3","gender":"1","age":"9","school":"4"},{"start_time":1552055669312,"click_time":1552055671202,"finger_time":1552055670702,"fix_duration":287.75415634783855,"trial":10,"RT":1390,"MT":500,"sideResp":2,"stimulus":"img/500/randomdotsizeEA/R/2_Ratio_500_L_3_R_6.png","xmouse":[816,813,811,811,811,811,811,811,811,811,811,811,811,811,811,811,811,811,811,811,811,811,811,811,811,811,811,811,811,811,811,811,811,811,811,811,811,811,811,811,811,811,811,811,811,811,811,811,811,811,811,811,811,811,811,811,811,811,811,811,811,811,811,811,811,812,815,820,829,843,878,895,917,947,969,995,1050,1081,1113,1141,1180,1195,1200,1201,1202,1202,1202,1202,1202,1202,1195,1184,1171,1162,1156],"ymouse":[511,511,511,511,511,511,511,511,511,511,511,511,511,511,511,511,511,511,511,511,511,511,511,511,511,511,511,511,511,511,511,511,511,511,511,511,511,511,511,511,511,511,511,511,511,511,511,511,511,511,511,511,511,511,511,511,511,511,511,511,511,511,511,511,511,509,505,498,487,471,432,416,397,371,353,330,278,247,211,179,134,107,96,86,81,79,78,78,78,77,69,64,58,57,55],"timestamp_mouse":[13,38,51,71,89,109,131,151,170,189,210,229,249,270,291,310,330,350,369,391,411,430,449,471,491,510,529,550,571,591,610,629,650,671,690,709,731,750,769,791,810,829,850,870,891,911,931,950,971,991,1010,1031,1051,1071,1089,1110,1131,1151,1170,1190,1210,1230,1251,1270,1290,1310,1330,1350,1370,1390,1411,1429,1451,1469,1490,1511,1531,1550,1570,1591,1611,1630,1649,1670,1690,1711,1730,1750,1770,1791,1810,1829,1849,1870,1889],"xSR":741.5,"ySR":469.95,"xT1":424.9,"yT1":0,"xT2":1058.1,"yT2":0,"toosoon":0,"cond_shown":"randomdotsizeEA","ratio_trial":500,"smaller_num":"3","larger_num":"6","correct_side":2,"subjID":"lucianaquirogahernandez3","gender":"1","age":"9","school":"4"},{"start_time":1552055674354,"click_time":1552055676102,"finger_time":1552055675703,"fix_duration":1449.326533763519,"trial":11,"RT":1349,"MT":399,"sideResp":2,"stimulus":"img/750/randomdotsizeEA/R/11_Ratio_750_L_12_R_16.png","xmouse":[799,799,799,799,799,799,799,799,799,799,799,799,799,799,799,799,799,799,799,799,799,799,799,799,799,799,799,799,799,799,799,799,799,799,799,799,799,799,799,799,799,799,799,799,799,799,799,799,799,799,799,799,799,799,799,799,798,798,798,798,797,797,797,797,797,798,800,802,808,827,839,859,878,901,953,984,1007,1033,1045,1052,1061,1064,1067,1072,1079,1083,1086,1092],"ymouse":[515,515,515,515,515,515,515,515,515,515,515,515,515,515,515,515,515,515,515,515,515,515,515,515,515,515,515,515,515,515,515,515,515,515,515,515,515,515,515,515,515,515,515,515,515,515,515,515,515,515,515,515,515,515,515,515,515,511,506,491,487,483,481,479,477,473,471,467,458,436,426,410,396,379,343,321,303,271,250,232,199,185,170,156,130,116,104,86],"timestamp_mouse":[12,34,48,68,89,109,128,148,168,189,208,229,248,268,289,308,328,347,369,389,409,427,449,468,487,509,529,549,568,589,608,629,647,669,689,709,729,749,767,789,808,829,849,868,888,908,929,949,968,989,1008,1027,1048,1067,1089,1109,1128,1148,1168,1188,1209,1229,1249,1268,1287,1308,1328,1349,1368,1388,1409,1428,1447,1468,1488,1507,1527,1547,1567,1587,1608,1628,1647,1667,1688,1709,1727,1747],"xSR":741.5,"ySR":469.95,"xT1":424.9,"yT1":0,"xT2":1058.1,"yT2":0,"toosoon":0,"cond_shown":"randomdotsizeEA","ratio_trial":750,"smaller_num":"12","larger_num":"16","correct_side":2,"subjID":"lucianaquirogahernandez3","gender":"1","age":"9","school":"4"},{"start_time":1552055678459,"click_time":1552055679983,"finger_time":1552055679243,"fix_duration":1136.4807540335564,"trial":12,"RT":784,"MT":740,"sideResp":1,"stimulus":"img/250/equaldotanddens/L/15_Ratio_250_L_12_R_3.png","xmouse":[797,797,797,797,797,797,797,797,797,797,797,797,797,797,797,797,797,797,797,797,797,797,797,797,797,797,797,797,797,797,797,797,797,797,797,797,795,789,779,760,754,747,745,740,739,737,735,733,730,725,721,717,710,702,687,680,671,660,647,618,604,588,567,557,544,540,535,533,531,528,525,521,517,514,507,505,503],"ymouse":[525,525,525,525,525,525,525,525,525,525,525,525,525,525,525,525,525,525,525,525,525,525,525,525,525,525,525,525,525,525,525,525,525,525,524,514,505,492,473,430,409,379,361,330,324,316,310,305,299,289,279,270,259,250,233,228,221,214,208,194,185,176,165,157,149,146,143,142,140,137,134,127,122,117,107,102,98],"timestamp_mouse":[12,32,43,63,82,102,123,143,162,183,204,223,244,263,282,302,323,344,363,384,404,422,444,464,483,504,524,543,563,583,604,624,643,662,683,704,723,743,763,784,803,824,844,874,884,902,923,943,964,984,1003,1022,1042,1063,1084,1102,1123,1143,1164,1184,1203,1222,1243,1262,1284,1303,1322,1344,1363,1383,1403,1423,1442,1463,1484,1503,1524],"xSR":741.5,"ySR":469.95,"xT1":424.9,"yT1":0,"xT2":1058.1,"yT2":0,"toosoon":0,"cond_shown":"equaldotanddens","ratio_trial":250,"smaller_num":"3","larger_num":"12","correct_side":1,"subjID":"lucianaquirogahernandez3","gender":"1","age":"9","school":"4"},{"start_time":1552055682385,"click_time":1552055684303,"finger_time":1552055683361,"fix_duration":980.7314103070926,"trial":13,"RT":976,"MT":942,"sideResp":1,"stimulus":"img/250/randomdotsizeEA/L/1_Ratio_250_L_8_R_2.png","xmouse":[783,783,783,783,783,783,783,783,783,783,783,783,783,784,784,784,784,784,784,784,784,784,784,784,784,784,784,784,784,784,784,784,784,784,784,784,784,784,784,784,784,784,784,784,784,781,781,769,734,717,703,695,689,676,671,667,664,661,659,659,659,659,659,659,661,663,664,664,664,664,664,662,660,652,648,641,635,627,606,599,590,582,575,564,560,559,558,555,545,540,536,534,531,530,528,524],"ymouse":[509,509,509,509,509,509,509,509,509,509,509,509,509,509,509,509,509,509,509,509,509,509,509,509,509,509,509,509,509,509,509,509,509,509,509,509,509,509,509,509,509,509,509,509,509,505,502,491,462,446,434,422,410,373,356,345,331,321,300,291,283,273,257,239,229,216,207,196,179,172,166,159,153,140,136,133,129,128,122,118,115,111,107,100,99,98,98,97,95,94,94,93,92,92,91,90],"timestamp_mouse":[18,36,57,77,96,118,138,157,177,197,218,238,258,277,298,317,337,357,378,397,417,436,457,477,497,516,537,556,578,597,616,636,657,677,697,717,736,757,778,797,817,838,857,878,896,917,938,958,976,997,1017,1037,1057,1077,1097,1117,1138,1156,1177,1198,1217,1237,1258,1277,1296,1318,1337,1357,1376,1397,1417,1437,1457,1477,1497,1517,1538,1558,1577,1598,1618,1637,1657,1676,1696,1717,1737,1758,1777,1797,1816,1837,1858,1876,1898,1918],"xSR":741.5,"ySR":469.95,"xT1":424.9,"yT1":0,"xT2":1058.1,"yT2":0,"toosoon":0,"cond_shown":"randomdotsizeEA","ratio_trial":250,"smaller_num":"2","larger_num":"8","correct_side":1,"subjID":"lucianaquirogahernandez3","gender":"1","age":"9","school":"4"},{"start_time":1552055685734,"click_time":1552055687021,"finger_time":1552055686422,"fix_duration":250,"trial":14,"RT":688,"MT":599,"sideResp":1,"stimulus":"img/750/randomdotsizeEA/L/1_Ratio_750_L_20_R_15.png","xmouse":[816,816,816,816,816,816,816,816,816,816,816,816,816,816,816,816,816,816,816,816,816,816,816,816,816,816,816,816,816,815,814,810,804,800,794,783,766,759,751,744,735,722,716,710,705,694,681,674,667,657,651,633,621,616,603,596,582,576,572,568,562,547,532,530,516],"ymouse":[555,555,555,555,555,555,555,555,555,555,555,555,555,555,555,555,555,555,555,555,555,555,555,555,555,555,555,555,552,548,542,522,506,488,468,436,393,371,351,333,313,282,269,255,243,225,206,197,186,174,163,141,127,122,110,105,98,96,94,92,90,85,80,78,74],"timestamp_mouse":[12,44,48,68,87,109,129,148,168,189,208,228,249,269,288,307,327,349,369,387,409,429,449,468,489,507,527,547,567,588,608,628,648,668,688,708,728,748,768,789,809,829,848,868,888,909,929,947,967,987,1008,1028,1048,1068,1089,1108,1129,1147,1167,1187,1207,1229,1247,1268,1287],"xSR":741.5,"ySR":469.95,"xT1":424.9,"yT1":0,"xT2":1058.1,"yT2":0,"toosoon":0,"cond_shown":"randomdotsizeEA","ratio_trial":750,"smaller_num":"15","larger_num":"20","correct_side":1,"subjID":"lucianaquirogahernandez3","gender":"1","age":"9","school":"4"},{"start_time":1552055690915,"click_time":1552055692342,"finger_time":1552055691862,"fix_duration":1391.2410119601034,"trial":15,"RT":947,"MT":480,"sideResp":1,"stimulus":"img/900/randomdotsizeEA/R/13_Ratio_900_L_18_R_20.png","xmouse":[777,777,777,777,777,777,777,777,777,777,777,777,777,777,777,777,777,777,777,777,777,777,777,777,777,777,777,777,777,777,777,777,777,777,777,777,777,777,777,777,777,777,777,778,778,778,778,776,765,760,757,756,754,745,739,732,726,719,712,710,705,700,692,667,655,643,628,612,570,553,535,514],"ymouse":[534,534,534,534,534,534,534,534,534,534,534,534,534,534,534,534,534,534,534,534,534,534,534,534,534,534,534,534,534,534,534,534,534,534,534,534,534,534,534,534,534,534,534,524,515,497,481,461,414,385,355,326,301,239,219,203,189,177,166,162,157,151,142,119,111,104,98,91,78,73,67,61],"timestamp_mouse":[12,35,48,68,87,107,128,148,168,188,207,226,246,268,288,308,326,346,367,387,406,428,447,468,487,506,528,547,567,588,607,628,647,668,687,706,726,747,768,787,808,827,846,867,888,907,927,947,966,987,1006,1026,1046,1066,1087,1106,1127,1148,1167,1186,1208,1227,1246,1266,1286,1308,1328,1347,1367,1387,1407,1427],"xSR":741.5,"ySR":469.95,"xT1":424.9,"yT1":0,"xT2":1058.1,"yT2":0,"toosoon":0,"cond_shown":"randomdotsizeEA","ratio_trial":900,"smaller_num":"18","larger_num":"20","correct_side":2,"subjID":"lucianaquirogahernandez3","gender":"1","age":"9","school":"4"},{"start_time":1552055695095,"click_time":1552055696683,"finger_time":1552055696003,"fix_duration":1491.1857843821344,"trial":16,"RT":908,"MT":680,"sideResp":2,"stimulus":"img/900/randomdotsizeEA/L/4_Ratio_900_L_20_R_18.png","xmouse":[801,801,801,801,801,801,801,801,801,801,801,801,801,801,801,801,801,801,801,801,801,801,801,801,801,801,801,801,801,803,803,804,806,806,807,808,808,808,808,808,808,808,812,816,836,847,863,881,896,932,960,981,997,1012,1034,1040,1045,1050,1055,1066,1074,1075,1080,1080,1080,1080,1080,1080,1080,1080,1082,1083,1084,1086,1086,1086,1086,1087,1087,1087],"ymouse":[503,503,503,503,503,503,503,503,503,503,503,503,503,503,503,503,503,503,503,503,503,503,503,503,503,503,503,503,504,506,506,506,506,505,504,504,504,504,504,504,504,503,499,495,479,467,450,435,415,371,332,304,281,260,226,215,205,197,188,166,146,140,125,120,119,119,119,119,119,119,115,111,106,104,102,101,101,100,100,98],"timestamp_mouse":[12,38,52,68,87,107,127,147,168,187,208,227,248,267,287,307,328,346,367,387,406,428,446,467,487,508,526,546,566,588,606,627,648,669,687,706,727,747,768,787,807,827,847,867,887,908,926,947,968,987,1008,1027,1046,1068,1087,1107,1127,1146,1167,1188,1206,1226,1246,1268,1288,1307,1328,1347,1368,1386,1407,1427,1448,1468,1488,1507,1528,1547,1567,1588],"xSR":741.5,"ySR":469.95,"xT1":424.9,"yT1":0,"xT2":1058.1,"yT2":0,"toosoon":0,"cond_shown":"randomdotsizeEA","ratio_trial":900,"smaller_num":"18","larger_num":"20","correct_side":1,"subjID":"lucianaquirogahernandez3","gender":"1","age":"9","school":"4"},{"start_time":1552055698663,"click_time":1552055699902,"finger_time":1552055699262,"fix_duration":940.0975765884413,"trial":17,"RT":599,"MT":640,"sideResp":1,"stimulus":"img/500/equaldotsize/L/10_Ratio_500_L_4_R_2.png","xmouse":[782,782,782,784,785,786,787,787,788,788,788,788,788,788,788,788,792,793,793,793,793,793,793,793,795,796,803,806,808,808,808,801,794,791,788,784,776,773,768,764,761,747,740,733,724,715,696,688,677,667,660,637,630,623,616,609,593,581,567,553,522,505],"ymouse":[531,531,531,531,531,531,531,531,531,531,531,531,531,531,531,531,530,530,530,530,530,530,530,530,526,523,504,493,479,466,453,429,415,407,403,397,391,388,384,380,376,358,349,339,329,318,298,291,281,273,267,247,241,233,224,216,193,177,159,142,109,91],"timestamp_mouse":[18,39,58,79,100,120,139,159,180,199,218,239,258,279,298,318,340,360,379,400,419,439,459,479,499,519,540,559,579,599,618,639,659,679,699,719,739,759,778,798,819,838,859,879,899,918,939,959,980,999,1021,1039,1059,1078,1099,1120,1139,1160,1180,1199,1221,1239],"xSR":741.5,"ySR":469.95,"xT1":424.9,"yT1":0,"xT2":1058.1,"yT2":0,"toosoon":0,"cond_shown":"equaldotsize","ratio_trial":500,"smaller_num":"2","larger_num":"4","correct_side":1,"subjID":"lucianaquirogahernandez3","gender":"1","age":"9","school":"4"},{"start_time":1552055702183,"click_time":1552055703523,"finger_time":1552055703042,"fix_duration":1300.9701669433355,"trial":18,"RT":859,"MT":481,"sideResp":1,"stimulus":"img/900/equaldotanddens/L/2_Ratio_900_L_20_R_18.png","xmouse":[821,821,821,821,821,824,828,832,836,838,839,839,839,839,839,839,839,839,839,839,839,839,839,839,839,839,839,839,839,839,839,836,834,832,832,832,832,832,830,829,818,807,785,778,754,741,725,719,713,707,692,684,678,670,661,649,644,640,633,627,613,605,588,583,562,534,521],"ymouse":[536,536,536,536,536,534,532,528,525,524,523,523,523,523,523,523,523,523,523,523,523,523,523,523,523,523,523,523,523,523,524,527,530,532,532,532,532,532,525,519,490,471,433,420,376,346,290,263,236,210,166,148,131,117,100,84,79,74,72,70,67,65,63,62,59,56,56],"timestamp_mouse":[19,39,60,79,100,119,139,160,179,200,220,239,258,280,299,319,340,358,379,400,420,439,459,480,499,518,540,560,580,599,619,639,659,680,699,719,739,759,780,798,819,840,859,878,899,919,940,960,980,999,1018,1039,1060,1078,1099,1120,1140,1159,1179,1199,1219,1238,1259,1278,1298,1320,1340],"xSR":741.5,"ySR":469.95,"xT1":424.9,"yT1":0,"xT2":1058.1,"yT2":0,"toosoon":0,"cond_shown":"equaldotanddens","ratio_trial":900,"smaller_num":"18","larger_num":"20","correct_side":1,"subjID":"lucianaquirogahernandez3","gender":"1","age":"9","school":"4"},{"start_time":1552055704993,"click_time":1552055707842,"finger_time":1552055705922,"fix_duration":250,"trial":19,"RT":929,"MT":1920,"sideResp":2,"stimulus":"img/900/equaldotsize/L/2_Ratio_900_L_20_R_18.png","xmouse":[775,775,775,775,775,775,775,776,777,777,777,777,777,777,777,777,777,777,777,777,777,778,779,779,779,780,780,780,780,780,780,780,780,780,781,786,787,788,790,790,791,795,802,810,838,855,868,880,895,907,929,941,947,952,956,964,968,970,973,977,978,979,979,979,975,974,970,969,967,966,966,966,966,966,965,970,974,974,983,997,1001,1007,1008,1009,1010,1011,1012,1012,1013,1013,1014,1015,1017,1017,1021,1024,1028,1031,1037,1040,1046,1047,1047,1047,1048,1048,1048,1048,1048,1048,1048,1048,1048,1048,1048,1048,1048,1048,1048,1048,1048,1048,1051,1052,1053,1053,1053,1053,1053,1053,1053,1053,1053,1053,1053,1053,1053,1053,1053,1053,1055,1061],"ymouse":[548,549,549,549,549,549,549,549,549,549,549,549,549,549,549,549,549,549,549,549,549,547,547,547,547,547,546,546,546,546,546,546,546,546,545,542,541,540,539,539,538,536,531,525,505,493,480,469,452,438,407,387,376,365,356,336,327,318,308,291,282,270,261,255,250,249,247,247,246,246,246,246,246,246,242,239,237,237,230,217,208,196,191,185,181,174,171,169,167,165,162,159,156,153,145,139,131,122,114,107,94,92,91,91,90,90,90,90,90,90,90,90,90,90,90,90,90,90,90,90,90,90,90,90,90,90,90,90,90,90,90,90,90,90,90,90,90,90,90,90,90,89],"timestamp_mouse":[32,50,70,88,110,130,148,169,190,208,230,248,269,289,310,330,350,368,390,409,428,448,469,490,508,530,549,570,589,609,628,648,668,688,709,729,749,768,790,809,829,849,870,889,909,929,949,970,989,1009,1029,1049,1068,1089,1109,1129,1149,1168,1188,1210,1229,1249,1269,1289,1310,1329,1348,1370,1389,1410,1428,1449,1468,1488,1510,1529,1548,1569,1589,1610,1629,1649,1668,1689,1709,1729,1750,1770,1788,1810,1829,1849,1868,1888,1910,1929,1949,1969,1989,2009,2029,2049,2069,2089,2110,2130,2149,2170,2190,2209,2229,2249,2269,2290,2309,2328,2349,2369,2389,2410,2430,2449,2469,2489,2509,2529,2550,2569,2588,2610,2628,2649,2670,2689,2710,2730,2750,2769,2788,2810,2830,2849],"xSR":741.5,"ySR":469.95,"xT1":424.9,"yT1":0,"xT2":1058.1,"yT2":0,"toosoon":0,"cond_shown":"equaldotsize","ratio_trial":900,"smaller_num":"18","larger_num":"20","correct_side":1,"subjID":"lucianaquirogahernandez3","gender":"1","age":"9","school":"4"},{"start_time":1552055709644,"click_time":1552055710822,"finger_time":1552055710283,"fix_duration":501.18818966742253,"trial":20,"RT":639,"MT":539,"sideResp":1,"stimulus":"img/750/equaldotanddens/L/13_Ratio_750_L_8_R_6.png","xmouse":[788,788,788,788,788,788,788,788,788,788,788,788,788,788,788,788,790,792,794,794,794,794,794,794,794,794,794,794,790,787,784,779,772,750,736,724,708,693,647,631,617,605,593,578,569,559,547,542,531,531,531,531,531,531,531,531,529,526,522],"ymouse":[530,530,530,530,530,530,530,530,530,530,530,530,530,530,530,529,526,521,516,514,513,511,510,508,505,504,503,499,487,480,472,461,449,421,404,388,366,344,280,258,237,219,203,178,165,151,135,130,113,113,111,109,108,107,107,104,101,93,84],"timestamp_mouse":[17,44,58,79,97,117,139,159,178,199,219,239,258,279,298,317,339,359,377,397,418,438,458,477,497,518,537,558,578,599,618,639,659,678,698,719,738,758,778,798,818,838,859,878,898,917,937,959,978,999,1017,1037,1057,1078,1099,1119,1139,1158,1178],"xSR":741.5,"ySR":469.95,"xT1":424.9,"yT1":0,"xT2":1058.1,"yT2":0,"toosoon":0,"cond_shown":"equaldotanddens","ratio_trial":750,"smaller_num":"6","larger_num":"8","correct_side":1,"subjID":"lucianaquirogahernandez3","gender":"1","age":"9","school":"4"},{"start_time":1552055712554,"click_time":1552055713682,"finger_time":1552055713142,"fix_duration":250,"trial":21,"RT":588,"MT":540,"sideResp":1,"stimulus":"img/250/equaldotsize/L/2_Ratio_250_L_16_R_4.png","xmouse":[798,798,798,798,798,798,798,798,798,798,798,798,798,798,798,798,798,798,798,798,798,798,798,798,798,798,797,795,789,771,752,745,724,696,683,668,654,641,619,611,603,596,591,587,583,582,579,577,568,563,555,554,546,541,531,526,523],"ymouse":[506,509,509,512,512,512,512,512,512,512,512,512,512,512,512,512,512,512,512,512,512,512,512,512,512,512,507,501,488,449,414,403,368,318,293,263,239,217,179,165,151,135,126,113,105,100,96,93,86,83,79,78,74,73,70,69,68],"timestamp_mouse":[12,36,48,67,89,108,128,147,168,188,209,228,249,268,289,308,328,349,368,388,407,429,448,468,489,508,529,548,568,588,608,628,647,669,689,708,729,748,770,788,808,827,848,868,888,908,929,948,969,987,1009,1029,1048,1068,1088,1108,1128],"xSR":741.5,"ySR":469.95,"xT1":424.9,"yT1":0,"xT2":1058.1,"yT2":0,"toosoon":0,"cond_shown":"equaldotsize","ratio_trial":250,"smaller_num":"4","larger_num":"16","correct_side":1,"subjID":"lucianaquirogahernandez3","gender":"1","age":"9","school":"4"},{"start_time":1552055715657,"click_time":1552055716942,"finger_time":1552055715941,"fix_duration":613.376251637358,"trial":22,"RT":284,"MT":1001,"sideResp":2,"stimulus":"img/250/randomdotsizeEA/R/4_Ratio_250_L_3_R_12.png","xmouse":[819,821,825,831,835,836,836,837,837,837,837,836,833,829,815,809,801,791,783,764,754,744,734,726,714,710,706,703,697,689,688,688,688,688,691,698,708,720,736,763,782,804,824,845,898,925,949,965,984,989,992,995,999,1002,1008,1011,1015,1018,1020,1027,1032,1037,1041,1047,1059],"ymouse":[521,519,517,512,505,502,500,498,498,498,496,494,491,487,469,457,443,427,412,389,379,370,364,358,347,341,335,327,316,304,300,299,298,298,289,284,278,271,265,257,252,247,242,236,220,210,196,186,169,161,156,150,144,139,124,119,114,108,105,98,96,94,93,93,91],"timestamp_mouse":[5,25,45,64,86,105,125,145,165,185,204,225,244,265,284,305,325,345,365,384,404,425,446,465,485,505,526,546,565,584,604,625,645,664,685,705,725,744,764,786,805,825,845,865,885,905,926,945,966,985,1005,1025,1045,1065,1086,1105,1125,1145,1165,1185,1205,1226,1246,1265,1285],"xSR":741.5,"ySR":469.95,"xT1":424.9,"yT1":0,"xT2":1058.1,"yT2":0,"toosoon":0,"cond_shown":"randomdotsizeEA","ratio_trial":250,"smaller_num":"3","larger_num":"12","correct_side":2,"subjID":"lucianaquirogahernandez3","gender":"1","age":"9","school":"4"},{"start_time":1552055724800,"click_time":1552055727880,"finger_time":1552055727360,"fix_duration":1118.6469506163369,"trial":23,"RT":2560,"MT":520,"sideResp":2,"stimulus":"img/900/randomdotsizeEA/L/1_Ratio_900_L_10_R_9.png","xmouse":[788,788,788,788,788,788,788,788,788,788,788,788,788,788,788,788,788,788,788,788,788,788,788,788,788,788,788,788,788,788,788,788,788,788,788,788,788,788,788,788,788,788,788,788,788,788,788,788,788,788,788,788,788,788,788,788,788,788,788,788,788,788,788,788,788,788,788,788,788,788,788,788,788,788,788,788,788,788,788,788,788,788,788,788,788,788,788,788,788,788,788,788,788,788,788,788,788,788,788,788,788,788,788,788,788,788,788,788,788,788,788,788,788,788,788,788,788,788,788,788,789,791,793,797,799,804,811,820,838,850,862,874,892,914,922,933,941,948,964,971,978,984,990,1000,1005,1010,1015,1020,1027,1031,1036,1041,1047,1056,1059],"ymouse":[535,535,535,535,535,535,535,535,535,535,535,535,535,535,535,535,535,535,535,535,535,535,535,535,535,535,535,535,535,535,535,535,535,535,535,535,535,535,535,535,535,535,535,535,535,535,535,535,535,535,535,535,535,535,535,535,535,535,535,535,535,535,535,535,535,535,535,535,535,535,535,535,535,535,535,535,535,535,535,535,535,535,535,535,535,535,535,535,535,535,535,535,535,535,535,535,535,535,535,535,535,535,535,535,535,535,535,535,535,535,535,535,535,535,535,535,535,535,535,535,533,530,526,518,514,508,499,489,468,457,445,433,416,389,377,362,350,337,310,297,284,272,255,233,220,208,196,185,162,150,140,129,114,95,87],"timestamp_mouse":[1,20,40,60,80,101,120,139,159,181,200,220,240,261,280,300,319,339,361,380,401,421,440,460,480,500,520,540,561,580,600,620,640,661,680,700,720,740,760,780,800,820,840,859,880,901,920,940,961,979,1001,1020,1039,1060,1079,1101,1120,1140,1160,1180,1201,1220,1240,1260,1280,1300,1320,1340,1360,1380,1400,1420,1440,1460,1480,1500,1520,1540,1560,1580,1601,1620,1640,1660,1680,1700,1721,1741,1760,1780,1800,1820,1841,1860,1881,1900,1921,1940,1960,1981,2001,2021,2040,2060,2081,2100,2120,2140,2160,2181,2201,2220,2240,2260,2281,2300,2320,2340,2360,2380,2400,2421,2439,2459,2480,2501,2521,2541,2560,2580,2600,2621,2641,2660,2681,2700,2720,2741,2760,2780,2801,2820,2840,2861,2881,2900,2921,2940,2960,2981,3000,3020,3040,3061,3080],"xSR":741.5,"ySR":469.95,"xT1":424.9,"yT1":0,"xT2":1058.1,"yT2":0,"toosoon":0,"cond_shown":"randomdotsizeEA","ratio_trial":900,"smaller_num":"9","larger_num":"10","correct_side":1,"subjID":"lucianaquirogahernandez3","gender":"1","age":"9","school":"4"},{"start_time":1552055730583,"click_time":1552055731641,"finger_time":1552055731360,"fix_duration":1241.2311299135195,"trial":24,"RT":777,"MT":281,"sideResp":1,"stimulus":"img/500/equaldotsize/L/5_Ratio_500_L_4_R_2.png","xmouse":[778,778,778,778,778,778,778,778,778,778,778,778,778,778,778,778,778,778,778,778,778,778,778,778,778,778,778,778,778,778,778,778,778,778,778,778,778,777,763,749,743,727,714,687,672,656,641,623,590,564,551,536,523],"ymouse":[507,507,507,507,507,507,507,507,507,507,507,507,507,507,507,507,507,507,507,507,507,507,507,507,507,507,507,507,507,507,507,507,507,507,507,501,489,477,443,415,404,370,348,300,276,253,234,211,173,142,124,105,89],"timestamp_mouse":[17,43,57,77,98,118,137,158,178,198,217,249,258,277,297,318,337,357,377,397,417,437,458,476,498,518,537,556,577,597,618,637,657,677,698,718,738,757,777,796,818,837,857,878,898,917,937,957,978,996,1017,1038,1058],"xSR":741.5,"ySR":469.95,"xT1":424.9,"yT1":0,"xT2":1058.1,"yT2":0,"toosoon":0,"cond_shown":"equaldotsize","ratio_trial":500,"smaller_num":"2","larger_num":"4","correct_side":1,"subjID":"lucianaquirogahernandez3","gender":"1","age":"9","school":"4"},{"start_time":1552055734699,"click_time":1552055736280,"finger_time":1552055735481,"fix_duration":1357.8374757218737,"trial":25,"RT":782,"MT":799,"sideResp":2,"stimulus":"img/250/equaldotanddens/R/12_Ratio_250_L_5_R_20.png","xmouse":[800,800,800,800,800,800,800,800,800,800,800,800,800,800,800,800,800,800,799,803,804,805,805,805,805,805,805,805,805,805,805,805,805,805,805,811,820,831,837,850,863,875,887,900,935,954,975,995,1014,1043,1055,1065,1072,1084,1096,1106,1114,1121,1127,1138,1142,1143,1143,1143,1143,1143,1143,1141,1139,1134,1131,1127,1123,1121,1119,1119,1118,1116,1112,1106],"ymouse":[541,541,541,541,541,541,541,541,541,541,541,541,541,541,541,541,541,541,538,532,530,529,529,529,529,529,529,529,529,529,529,529,529,529,529,527,522,516,513,502,493,482,470,453,409,387,363,339,318,285,271,260,250,237,220,206,192,178,164,136,126,121,119,119,119,119,118,118,118,116,114,112,111,109,107,107,106,104,100,91],"timestamp_mouse":[6,22,42,62,82,101,120,142,161,181,202,221,241,262,282,301,322,341,361,381,401,422,441,462,482,502,520,541,561,581,600,621,641,662,680,702,721,741,761,782,801,821,842,861,880,900,920,942,961,981,1001,1022,1040,1062,1081,1102,1122,1141,1161,1181,1201,1221,1241,1262,1282,1302,1321,1342,1362,1381,1401,1422,1442,1460,1482,1502,1521,1541,1562,1581],"xSR":741.5,"ySR":469.95,"xT1":424.9,"yT1":0,"xT2":1058.1,"yT2":0,"toosoon":0,"cond_shown":"equaldotanddens","ratio_trial":250,"smaller_num":"5","larger_num":"20","correct_side":2,"subjID":"lucianaquirogahernandez3","gender":"1","age":"9","school":"4"},{"start_time":1552055738702,"click_time":1552055740700,"finger_time":1552055739601,"fix_duration":999.7481025930209,"trial":26,"RT":899,"MT":1099,"sideResp":1,"stimulus":"img/900/equaldotsize/L/2_Ratio_900_L_20_R_18.png","xmouse":[799,799,799,799,799,799,799,799,799,799,799,799,799,799,799,799,799,799,799,799,799,799,799,799,799,799,799,799,799,799,799,799,799,799,799,799,799,799,799,799,799,799,799,799,797,795,790,783,769,759,750,735,725,701,693,684,675,662,638,626,611,601,593,581,578,575,572,569,561,557,552,545,541,535,530,526,519,512,504,501,500,498,498,498,498,498,498,498,498,498,498,498,498,498,498,498,498,497,497,497],"ymouse":[507,507,507,507,507,507,507,507,507,507,507,507,507,507,507,507,507,507,507,507,507,507,507,507,507,507,507,507,507,507,507,507,507,507,507,507,507,507,507,507,504,499,493,477,465,453,439,423,399,386,373,357,347,330,323,317,308,297,275,264,247,235,226,212,206,199,192,183,167,158,148,137,132,126,124,121,116,112,108,106,105,104,104,104,104,104,104,104,104,104,104,104,104,104,104,104,104,103,101,97],"timestamp_mouse":[19,38,58,78,99,119,139,158,178,198,219,239,259,277,299,319,339,358,378,398,417,438,458,478,499,518,539,559,578,599,617,639,659,678,699,719,739,759,778,799,818,838,859,878,899,917,938,958,980,998,1019,1039,1059,1079,1098,1118,1139,1158,1179,1198,1218,1238,1259,1279,1298,1318,1339,1359,1379,1398,1419,1437,1458,1479,1498,1518,1538,1558,1579,1597,1618,1639,1658,1679,1699,1718,1739,1758,1779,1798,1819,1839,1858,1878,1899,1919,1939,1959,1979,1998],"xSR":741.5,"ySR":469.95,"xT1":424.9,"yT1":0,"xT2":1058.1,"yT2":0,"toosoon":0,"cond_shown":"equaldotsize","ratio_trial":900,"smaller_num":"18","larger_num":"20","correct_side":1,"subjID":"lucianaquirogahernandez3","gender":"1","age":"9","school":"4"},{"start_time":1552055744153,"click_time":1552055745621,"finger_time":1552055745020,"fix_duration":250,"trial":27,"RT":867,"MT":601,"sideResp":2,"stimulus":"img/900/equaldotsize/R/5_Ratio_900_L_9_R_10.png","xmouse":[807,802,791,790,790,790,790,790,790,790,790,790,790,790,790,790,790,790,790,790,790,790,790,790,790,790,790,790,790,790,790,790,790,793,795,795,797,800,802,805,807,811,822,833,844,848,866,923,954,979,1004,1027,1077,1099,1121,1151,1167,1185,1190,1194,1196,1199,1203,1203,1203,1202,1195,1174,1162,1149,1133,1118,1083,1065],"ymouse":[512,511,509,509,509,509,509,509,509,509,509,509,509,509,509,509,509,509,509,509,509,509,509,509,509,509,509,508,508,508,508,508,508,505,504,503,500,498,495,491,489,484,473,463,454,452,437,398,375,357,339,321,279,258,237,210,196,172,165,158,155,150,141,140,138,136,134,131,129,128,124,119,103,96],"timestamp_mouse":[10,33,48,66,87,107,127,148,167,188,208,227,247,268,286,308,328,347,367,387,407,427,448,467,487,508,527,547,568,588,607,627,647,668,688,707,727,747,767,788,808,828,847,867,886,907,927,946,967,986,1006,1026,1046,1067,1086,1106,1128,1147,1167,1187,1207,1228,1246,1267,1287,1308,1327,1347,1367,1387,1408,1428,1447,1468],"xSR":741.5,"ySR":469.95,"xT1":424.9,"yT1":0,"xT2":1058.1,"yT2":0,"toosoon":0,"cond_shown":"equaldotsize","ratio_trial":900,"smaller_num":"9","larger_num":"10","correct_side":2,"subjID":"lucianaquirogahernandez3","gender":"1","age":"9","school":"4"},{"start_time":1552055748256,"click_time":1552055749401,"finger_time":1552055749081,"fix_duration":1232.5333061118986,"trial":28,"RT":825,"MT":320,"sideResp":1,"stimulus":"img/500/equaldotanddens/L/11_Ratio_500_L_12_R_6.png","xmouse":[804,804,800,797,796,794,791,784,781,778,773,771,767,763,759,753,750,750,750,750,750,750,750,750,750,750,750,750,750,750,750,750,750,756,762,768,771,780,783,783,778,767,756,738,731,723,718,680,662,644,638,637,595,568,560,550,529,517],"ymouse":[538,538,539,539,539,539,540,541,541,541,541,541,541,541,541,542,543,543,543,543,543,543,543,543,543,543,543,543,543,543,543,543,543,543,543,542,539,522,506,489,470,449,433,416,407,396,387,336,322,310,306,302,241,193,181,162,121,94],"timestamp_mouse":[12,24,44,65,85,104,124,144,164,185,205,224,244,264,284,304,325,345,364,384,405,424,444,463,484,504,525,544,564,585,604,625,644,663,685,704,725,744,764,785,805,825,845,865,884,905,925,945,964,984,1004,1024,1046,1064,1084,1104,1125,1144],"xSR":741.5,"ySR":469.95,"xT1":424.9,"yT1":0,"xT2":1058.1,"yT2":0,"toosoon":0,"cond_shown":"equaldotanddens","ratio_trial":500,"smaller_num":"6","larger_num":"12","correct_side":1,"subjID":"lucianaquirogahernandez3","gender":"1","age":"9","school":"4"},{"start_time":1552055752286,"click_time":1552055754401,"finger_time":1552055753161,"fix_duration":983.0996045708356,"trial":29,"RT":875,"MT":1240,"sideResp":2,"stimulus":"img/250/randomdotsizeEA/R/10_Ratio_250_L_4_R_16.png","xmouse":[795,795,795,795,795,795,795,795,795,795,795,795,795,795,795,795,795,795,795,795,795,795,795,795,795,795,795,795,796,796,796,796,796,796,798,799,803,803,804,804,804,804,803,801,797,794,784,780,780,780,780,787,791,793,796,800,813,818,824,830,838,873,900,932,984,1016,1056,1065,1071,1076,1081,1088,1091,1094,1097,1100,1101,1102,1102,1102,1102,1104,1104,1105,1105,1106,1106,1106,1106,1107,1107,1109,1109,1109,1110,1110,1110,1111,1112,1112,1112,1113,1115,1115,1116,1119],"ymouse":[513,513,513,513,513,513,513,513,513,513,513,513,513,513,513,513,513,513,513,513,513,513,513,513,513,513,513,512,511,511,511,511,511,511,510,508,502,500,497,494,489,478,471,461,447,434,369,343,318,298,280,256,247,242,237,233,227,227,225,223,222,217,212,206,192,184,171,167,164,159,156,151,148,146,142,138,135,134,133,133,133,130,127,126,124,121,117,116,115,114,112,111,110,109,108,108,106,106,104,104,104,103,103,102,101,98],"timestamp_mouse":[14,33,54,75,95,114,134,155,174,194,213,234,254,274,293,314,334,354,374,395,414,435,454,475,494,515,535,555,574,595,613,635,655,675,695,714,734,754,774,794,814,834,855,875,895,915,934,954,973,995,1014,1034,1054,1075,1094,1114,1133,1155,1174,1195,1214,1234,1255,1275,1294,1314,1334,1354,1375,1394,1415,1434,1454,1475,1495,1514,1534,1555,1575,1595,1615,1634,1654,1674,1695,1714,1734,1754,1775,1794,1815,1834,1853,1875,1895,1914,1934,1954,1974,1994,2014,2035,2054,2074,2094,2114],"xSR":741.5,"ySR":469.95,"xT1":424.9,"yT1":0,"xT2":1058.1,"yT2":0,"toosoon":0,"cond_shown":"randomdotsizeEA","ratio_trial":250,"smaller_num":"4","larger_num":"16","correct_side":2,"subjID":"lucianaquirogahernandez3","gender":"1","age":"9","school":"4"},{"start_time":1552055756442,"click_time":1552055757681,"finger_time":1552055756941,"fix_duration":920.1484159157162,"trial":30,"RT":499,"MT":740,"sideResp":1,"stimulus":"img/250/equaldotsize/L/1_Ratio_250_L_8_R_2.png","xmouse":[792,792,792,792,790,787,786,785,784,784,783,782,781,780,779,778,777,775,774,772,769,766,764,757,754,752,749,749,748,748,748,748,748,747,747,747,747,747,743,740,735,729,720,696,684,669,658,646,629,622,616,612,607,594,588,582,570,562,553,542,534,524],"ymouse":[519,519,519,519,519,517,516,513,509,507,507,505,505,505,504,504,502,501,497,494,490,485,481,472,469,465,461,460,457,456,455,454,452,449,446,440,433,421,386,364,337,309,288,230,205,172,152,135,111,103,97,92,87,79,77,75,70,68,65,62,61,59],"timestamp_mouse":[18,45,58,78,99,119,138,158,178,199,219,238,259,279,298,319,338,359,378,399,419,438,459,478,499,519,537,558,578,598,617,638,659,679,699,719,739,758,778,798,818,838,858,878,899,918,939,959,978,997,1019,1039,1058,1079,1098,1118,1138,1159,1178,1199,1219,1239],"xSR":741.5,"ySR":469.95,"xT1":424.9,"yT1":0,"xT2":1058.1,"yT2":0,"toosoon":0,"cond_shown":"equaldotsize","ratio_trial":250,"smaller_num":"2","larger_num":"8","correct_side":1,"subjID":"lucianaquirogahernandez3","gender":"1","age":"9","school":"4"},{"start_time":1552055759624,"click_time":1552055761121,"finger_time":1552055760440,"fix_duration":543.5642120566583,"trial":31,"RT":816,"MT":681,"sideResp":2,"stimulus":"img/500/randomdotsizeEA/R/1_Ratio_500_L_9_R_18.png","xmouse":[820,820,820,820,820,820,820,820,820,820,820,820,820,820,820,820,820,820,820,820,820,820,820,820,820,820,820,820,820,820,820,819,819,819,819,819,819,820,822,829,834,839,846,856,868,900,912,924,936,946,965,972,980,987,994,1008,1014,1017,1020,1022,1026,1026,1027,1028,1030,1032,1036,1038,1041,1045,1052,1056,1059,1062,1065],"ymouse":[539,539,539,539,539,539,539,539,539,539,539,539,539,539,539,539,539,539,539,539,539,539,539,539,539,539,539,539,539,539,539,539,537,532,526,512,507,502,496,480,469,459,446,434,419,379,363,346,330,315,286,274,261,250,240,219,210,205,199,195,189,187,185,182,178,173,166,162,154,147,129,119,112,104,97],"timestamp_mouse":[16,37,56,76,97,116,137,156,177,196,216,236,257,277,296,316,335,357,377,396,416,437,457,476,497,515,537,556,576,596,617,636,655,676,696,717,735,757,776,797,816,836,857,876,895,915,936,956,977,995,1016,1035,1056,1076,1097,1116,1137,1156,1177,1197,1217,1237,1256,1276,1298,1316,1338,1356,1377,1396,1417,1436,1457,1476,1497],"xSR":741.5,"ySR":469.95,"xT1":424.9,"yT1":0,"xT2":1058.1,"yT2":0,"toosoon":0,"cond_shown":"randomdotsizeEA","ratio_trial":500,"smaller_num":"9","larger_num":"18","correct_side":2,"subjID":"lucianaquirogahernandez3","gender":"1","age":"9","school":"4"},{"start_time":1552055764156,"click_time":1552055765940,"finger_time":1552055765541,"fix_duration":393.3501035891829,"trial":32,"RT":1385,"MT":399,"sideResp":1,"stimulus":"img/900/equaldotanddens/R/7_Ratio_900_L_9_R_10.png","xmouse":[816,816,816,816,816,816,816,816,816,816,816,816,816,816,816,816,816,816,816,816,816,816,816,816,816,816,816,816,816,816,816,816,816,816,816,816,816,816,816,816,816,816,816,816,816,816,816,816,816,816,816,817,817,818,819,820,821,821,822,823,825,825,827,828,830,830,830,830,827,813,805,796,788,783,776,765,758,745,734,711,698,684,669,652,616,598,569,552,536,523],"ymouse":[555,555,555,555,555,555,555,555,555,555,555,555,555,555,555,555,555,555,555,555,555,555,555,555,555,555,555,555,555,555,555,555,555,555,555,555,555,555,555,555,555,555,555,555,555,555,555,555,554,553,551,548,545,544,539,537,535,532,531,525,522,518,513,508,497,492,484,478,470,447,434,420,404,388,370,333,314,285,264,225,204,184,163,144,107,92,69,55,42,34],"timestamp_mouse":[12,36,44,65,85,104,125,144,165,184,204,224,245,265,284,305,325,343,365,384,404,424,444,464,484,504,525,545,565,583,605,624,645,665,684,705,724,744,765,784,804,825,844,863,884,905,924,944,963,985,1005,1024,1043,1064,1084,1104,1124,1145,1165,1184,1204,1224,1245,1264,1284,1305,1324,1345,1363,1385,1404,1424,1445,1465,1485,1504,1524,1545,1565,1584,1604,1624,1644,1665,1684,1705,1725,1744,1764,1784],"xSR":741.5,"ySR":469.95,"xT1":424.9,"yT1":0,"xT2":1058.1,"yT2":0,"toosoon":0,"cond_shown":"equaldotanddens","ratio_trial":900,"smaller_num":"9","larger_num":"10","correct_side":2,"subjID":"lucianaquirogahernandez3","gender":"1","age":"9","school":"4"},{"start_time":1552055767633,"click_time":1552055769180,"finger_time":1552055768361,"fix_duration":250,"trial":33,"RT":728,"MT":819,"sideResp":2,"stimulus":"img/500/equaldotsize/R/2_Ratio_500_L_3_R_6.png","xmouse":[788,788,788,788,788,788,788,788,789,790,790,792,792,792,792,792,792,792,792,792,792,792,792,792,792,792,792,792,792,792,793,798,801,806,810,815,832,840,850,859,869,897,909,921,931,946,956,963,971,977,985,994,995,998,1002,1004,1009,1013,1014,1017,1019,1022,1022,1022,1022,1022,1023,1024,1026,1030,1036,1046,1049,1053,1056,1058,1058,1059],"ymouse":[511,511,511,511,511,511,511,511,511,510,509,508,507,506,506,506,506,506,506,506,506,506,506,506,506,506,506,506,506,506,505,500,495,488,482,475,447,434,417,402,385,337,316,300,281,249,233,220,205,194,181,158,152,144,135,127,110,102,94,86,79,74,73,73,73,73,71,70,69,68,65,62,61,60,59,59,59,59],"timestamp_mouse":[13,40,48,68,87,106,128,147,167,188,208,226,248,268,287,307,327,347,367,388,408,426,448,467,488,507,527,548,568,587,607,627,648,668,687,708,728,747,768,787,809,827,848,867,887,909,927,948,968,987,1006,1026,1047,1067,1087,1107,1127,1147,1167,1187,1208,1227,1247,1267,1287,1308,1327,1347,1367,1386,1408,1428,1448,1468,1487,1507,1526,1547],"xSR":741.5,"ySR":469.95,"xT1":424.9,"yT1":0,"xT2":1058.1,"yT2":0,"toosoon":0,"cond_shown":"equaldotsize","ratio_trial":500,"smaller_num":"3","larger_num":"6","correct_side":2,"subjID":"lucianaquirogahernandez3","gender":"1","age":"9","school":"4"},{"start_time":1552055770713,"click_time":1552055776280,"finger_time":1552055775660,"fix_duration":250,"trial":34,"RT":4947,"MT":620,"sideResp":2,"stimulus":"img/500/equaldotanddens/L/13_Ratio_500_L_12_R_6.png","xmouse":[786,786,786,786,787,787,788,788,788,788,788,788,788,788,788,788,788,788,788,788,788,788,788,788,788,788,788,788,788,788,788,788,788,788,788,788,788,788,788,788,788,788,788,788,788,788,788,788,788,788,788,788,788,788,788,788,788,788,788,788,788,788,788,788,788,788,788,788,788,788,788,788,788,788,788,788,788,788,788,788,788,788,788,788,788,788,788,788,788,788,788,788,788,788,788,788,788,788,788,788,788,788,788,790,791,791,792,792,792,792,792,792,792,792,792,792,792,792,792,792,792,792,792,792,792,792,792,792,792,792,792,792,792,792,792,792,792,792,792,792,792,792,792,792,792,792,792,792,792,792,792,793,793,794,794,794,794,794,794,794,794,794,794,794,794,794,794,794,794,794,794,794,794,794,794,794,794,794,794,794,794,794,794,794,794,794,794,794,794,794,794,794,794,794,794,794,794,794,794,794,794,794,794,794,794,794,794,794,794,794,794,794,794,794,794,794,794,794,794,794,794,794,794,794,794,794,794,794,794,794,792,786,777,774,773,773,773,773,773,773,773,773,773,772,772,780,792,803,829,844,860,874,901,919,925,946,958,987,997,1008,1015,1024,1030,1039,1044,1047,1049,1054,1056,1056,1058,1061,1066,1069,1072,1076,1078,1081,1089],"ymouse":[527,527,526,526,526,526,525,525,525,525,525,525,525,525,525,525,525,525,525,525,525,525,525,525,525,525,525,525,525,525,525,525,525,525,525,525,525,525,525,525,525,525,525,525,525,525,525,525,525,525,525,525,525,525,525,525,525,525,525,525,525,525,525,525,525,525,525,525,525,525,525,525,525,525,525,525,525,525,525,525,525,525,525,525,525,525,525,525,525,525,525,525,525,525,525,525,525,525,525,525,525,525,525,522,521,520,520,520,520,520,520,520,520,520,520,520,520,520,520,520,520,520,520,520,520,520,520,520,520,520,520,520,520,520,520,520,520,520,520,520,520,520,520,520,520,520,520,520,520,520,520,518,518,518,518,518,518,518,518,518,518,518,518,518,518,518,518,518,518,518,518,518,518,518,518,518,518,518,518,518,518,518,518,518,518,518,518,518,518,518,518,518,518,518,518,518,518,518,518,518,518,518,518,518,518,518,518,518,518,518,518,518,518,518,518,518,518,518,518,518,518,518,518,518,518,518,518,518,518,517,517,517,516,516,516,516,516,516,516,516,516,516,516,513,510,497,483,469,440,423,408,393,367,349,344,326,316,296,289,279,273,264,256,240,232,225,221,211,206,201,194,187,172,157,146,133,127,121,95],"timestamp_mouse":[10,36,47,68,86,107,128,148,167,187,208,228,248,268,288,308,328,348,368,387,407,427,447,468,488,508,528,547,568,587,608,627,648,668,687,707,728,747,767,787,807,827,847,867,888,908,927,948,968,987,1008,1028,1048,1067,1088,1107,1128,1148,1166,1188,1208,1228,1248,1267,1287,1308,1328,1348,1368,1387,1407,1428,1447,1468,1488,1507,1527,1546,1566,1588,1608,1627,1647,1668,1687,1708,1727,1747,1766,1787,1808,1828,1847,1867,1888,1908,1927,1947,1966,1987,2007,2028,2047,2067,2086,2106,2127,2147,2168,2186,2208,2228,2247,2268,2288,2307,2328,2347,2367,2387,2407,2428,2446,2467,2488,2508,2527,2547,2567,2588,2607,2627,2648,2668,2687,2708,2726,2746,2767,2788,2808,2827,2848,2868,2887,2908,2927,2948,2967,2988,3007,3028,3047,3068,3087,3108,3128,3147,3168,3188,3207,3227,3247,3267,3287,3307,3328,3348,3368,3388,3407,3428,3448,3467,3488,3507,3528,3547,3568,3588,3608,3628,3647,3667,3688,3708,3728,3747,3767,3787,3808,3827,3847,3867,3888,3907,3928,3947,3968,3988,4007,4028,4047,4067,4088,4107,4128,4147,4167,4188,4206,4226,4248,4268,4287,4308,4328,4347,4368,4388,4408,4428,4447,4468,4488,4507,4528,4548,4567,4588,4608,4626,4648,4668,4686,4708,4727,4747,4768,4788,4807,4827,4846,4867,4888,4907,4928,4947,4967,4987,5007,5027,5049,5067,5087,5107,5128,5147,5168,5187,5207,5228,5248,5268,5287,5307,5327,5349,5367,5388,5408,5428,5449,5468,5487,5507,5528,5547,5567],"xSR":741.5,"ySR":469.95,"xT1":424.9,"yT1":0,"xT2":1058.1,"yT2":0,"toosoon":0,"cond_shown":"equaldotanddens","ratio_trial":500,"smaller_num":"6","larger_num":"12","correct_side":1,"subjID":"lucianaquirogahernandez3","gender":"1","age":"9","school":"4"},{"start_time":1552055777703,"click_time":1552055779161,"finger_time":1552055778480,"fix_duration":301.644648173688,"trial":35,"RT":777,"MT":681,"sideResp":1,"stimulus":"img/250/equaldotsize/L/5_Ratio_250_L_24_R_6.png","xmouse":[780,780,783,785,786,787,788,789,789,790,790,790,790,790,790,790,790,790,790,790,790,790,790,790,790,790,790,790,790,790,790,790,790,790,791,791,791,791,788,784,780,775,766,746,737,726,716,705,686,678,671,664,656,639,633,627,620,614,604,600,597,595,594,592,588,584,578,571,556,548,538,530,523],"ymouse":[509,509,510,511,511,512,512,513,513,513,513,513,513,513,513,513,513,513,513,513,513,513,513,513,513,513,513,513,513,513,513,513,513,513,512,506,500,490,469,455,439,424,406,357,340,322,303,286,252,237,223,209,193,156,144,131,119,108,91,85,82,80,79,79,79,79,79,79,79,81,83,85,87],"timestamp_mouse":[29,38,58,78,97,118,137,157,178,198,218,237,258,278,297,318,338,358,378,397,417,437,458,477,498,517,537,557,578,598,618,638,657,678,698,717,738,757,777,798,818,837,856,877,897,917,938,958,977,997,1018,1038,1057,1077,1097,1117,1136,1157,1176,1198,1218,1236,1257,1276,1297,1318,1338,1357,1377,1398,1418,1437,1458],"xSR":741.5,"ySR":469.95,"xT1":424.9,"yT1":0,"xT2":1058.1,"yT2":0,"toosoon":0,"cond_shown":"equaldotsize","ratio_trial":250,"smaller_num":"6","larger_num":"24","correct_side":1,"subjID":"lucianaquirogahernandez3","gender":"1","age":"9","school":"4"},{"start_time":1552055781044,"click_time":1552055782740,"finger_time":1552055781980,"fix_duration":663.4237209288367,"trial":36,"RT":936,"MT":760,"sideResp":1,"stimulus":"img/900/randomdotsizeEA/R/14_Ratio_900_L_18_R_20.png","xmouse":[789,789,789,789,789,789,789,789,789,789,789,789,789,789,789,789,789,789,789,789,789,789,789,790,791,793,796,797,797,797,797,797,797,797,799,800,805,814,817,819,822,825,827,830,834,838,844,844,845,845,844,834,828,823,813,806,793,786,778,770,759,726,709,695,690,674,654,647,644,639,635,626,623,611,607,600,597,591,581,575,571,562,544,528,516],"ymouse":[527,527,527,527,527,527,527,527,527,527,527,527,527,527,527,527,527,527,527,527,527,527,527,527,527,527,527,526,526,526,526,526,526,526,525,524,521,515,513,511,509,506,503,501,494,486,471,463,454,444,434,412,399,388,364,344,300,275,248,229,208,159,140,123,117,103,88,84,83,79,76,72,71,66,65,64,64,64,66,67,67,67,66,64,62],"timestamp_mouse":[16,36,55,77,97,115,136,157,177,197,216,237,257,277,297,316,336,357,376,397,417,436,457,477,497,516,536,557,576,597,617,636,657,677,696,717,736,757,776,797,815,836,857,877,896,917,936,956,976,997,1016,1037,1055,1076,1097,1116,1137,1155,1176,1196,1216,1238,1255,1276,1296,1316,1337,1356,1376,1396,1417,1436,1456,1476,1497,1516,1536,1557,1577,1597,1616,1637,1657,1677,1696],"xSR":741.5,"ySR":469.95,"xT1":424.9,"yT1":0,"xT2":1058.1,"yT2":0,"toosoon":0,"cond_shown":"randomdotsizeEA","ratio_trial":900,"smaller_num":"18","larger_num":"20","correct_side":2,"subjID":"lucianaquirogahernandez3","gender":"1","age":"9","school":"4"},{"start_time":1552055784612,"click_time":1552055785859,"finger_time":1552055785399,"fix_duration":651.5906770678465,"trial":37,"RT":787,"MT":460,"sideResp":1,"stimulus":"img/250/equaldotsize/L/14_Ratio_250_L_12_R_3.png","xmouse":[800,800,800,800,800,800,800,800,800,800,799,799,799,798,798,797,797,797,797,797,797,797,797,796,796,796,796,796,796,796,796,796,796,796,796,796,796,795,790,773,759,739,721,681,652,638,621,608,596,574,564,554,546,540,537,537,536,536,534,531,529,526,523],"ymouse":[515,515,515,515,515,515,515,515,515,515,518,518,520,521,524,525,525,525,525,525,525,525,527,528,529,529,529,529,529,529,529,529,529,529,529,529,525,513,497,456,430,400,371,300,254,225,196,171,150,113,96,84,73,66,62,62,61,61,61,60,60,59,59],"timestamp_mouse":[12,34,49,69,89,108,129,149,169,189,207,228,249,267,287,308,327,347,368,388,408,427,447,469,489,508,528,547,568,587,607,628,647,668,688,707,728,747,767,787,808,827,847,869,887,907,927,948,969,988,1007,1028,1048,1068,1087,1109,1129,1147,1169,1188,1208,1227,1247],"xSR":741.5,"ySR":469.95,"xT1":424.9,"yT1":0,"xT2":1058.1,"yT2":0,"toosoon":0,"cond_shown":"equaldotsize","ratio_trial":250,"smaller_num":"3","larger_num":"12","correct_side":1,"subjID":"lucianaquirogahernandez3","gender":"1","age":"9","school":"4"},{"start_time":1552055788116,"click_time":1552055789099,"finger_time":1552055788740,"fix_duration":553.1366321408211,"trial":38,"RT":624,"MT":359,"sideResp":1,"stimulus":"img/500/equaldotsize/L/7_Ratio_500_L_10_R_5.png","xmouse":[776,776,776,776,776,776,776,776,776,776,776,776,776,776,776,776,776,776,776,776,776,776,776,778,779,782,785,788,790,793,795,795,795,794,784,776,766,753,727,694,674,657,640,621,586,568,552,538,526,514],"ymouse":[497,497,497,497,497,497,497,497,497,497,497,497,497,497,497,497,497,497,497,497,497,497,497,497,497,495,493,490,487,477,471,465,460,456,437,427,412,397,370,338,316,296,272,249,202,175,151,127,98,59],"timestamp_mouse":[12,38,43,65,84,104,123,144,164,183,204,224,243,265,284,304,323,343,364,385,404,423,444,463,484,504,524,544,564,583,604,624,644,663,684,703,724,744,764,783,805,823,843,863,883,905,923,943,965,983],"xSR":741.5,"ySR":469.95,"xT1":424.9,"yT1":0,"xT2":1058.1,"yT2":0,"toosoon":0,"cond_shown":"equaldotsize","ratio_trial":500,"smaller_num":"5","larger_num":"10","correct_side":1,"subjID":"lucianaquirogahernandez3","gender":"1","age":"9","school":"4"},{"start_time":1552055792094,"click_time":1552055793300,"finger_time":1552055792840,"fix_duration":593.6353197397691,"trial":39,"RT":746,"MT":460,"sideResp":2,"stimulus":"img/500/equaldotsize/R/3_Ratio_500_L_10_R_20.png","xmouse":[806,807,807,808,808,808,808,808,808,808,808,808,808,808,808,808,808,808,808,808,808,808,808,808,808,808,808,808,808,808,808,808,808,808,811,815,826,835,844,853,864,887,899,911,924,946,956,970,980,987,1002,1007,1012,1015,1021,1025,1036,1044,1049,1054,1061],"ymouse":[551,551,550,549,549,549,548,547,546,545,545,545,545,545,545,545,545,545,545,545,545,545,545,545,545,545,545,545,545,544,542,536,531,525,517,506,478,455,438,421,406,363,342,321,299,259,242,220,206,194,173,165,156,149,142,134,117,107,100,93,85],"timestamp_mouse":[12,34,46,65,85,106,125,146,165,186,205,225,246,265,287,306,327,345,365,387,405,426,446,466,486,506,525,546,565,586,605,626,646,665,686,706,726,746,767,786,806,826,846,865,885,907,925,946,967,985,1007,1026,1047,1065,1085,1106,1126,1146,1165,1185,1206],"xSR":741.5,"ySR":469.95,"xT1":424.9,"yT1":0,"xT2":1058.1,"yT2":0,"toosoon":0,"cond_shown":"equaldotsize","ratio_trial":500,"smaller_num":"10","larger_num":"20","correct_side":2,"subjID":"lucianaquirogahernandez3","gender":"1","age":"9","school":"4"},{"start_time":1552055794903,"click_time":1552055795880,"finger_time":1552055795580,"fix_duration":382.67173977202174,"trial":40,"RT":677,"MT":300,"sideResp":1,"stimulus":"img/750/equaldotanddens/L/6_Ratio_750_L_24_R_18.png","xmouse":[769,769,769,769,769,769,769,769,769,769,769,769,769,769,769,769,769,769,769,769,769,769,769,769,769,769,769,770,771,771,771,771,766,759,749,721,708,694,679,661,623,606,589,567,552,528,519,510,502],"ymouse":[512,512,512,512,512,512,512,512,512,512,512,512,512,512,512,512,512,512,512,512,512,512,512,512,512,511,509,507,504,500,492,485,474,464,449,412,394,372,353,325,273,250,228,197,176,140,123,107,94],"timestamp_mouse":[17,37,58,78,96,116,137,157,177,196,216,237,258,277,298,316,337,357,376,396,417,436,456,477,496,516,537,556,577,597,617,636,657,677,697,716,736,756,777,796,816,836,856,877,896,916,937,956,977],"xSR":741.5,"ySR":469.95,"xT1":424.9,"yT1":0,"xT2":1058.1,"yT2":0,"toosoon":0,"cond_shown":"equaldotanddens","ratio_trial":750,"smaller_num":"18","larger_num":"24","correct_side":1,"subjID":"lucianaquirogahernandez3","gender":"1","age":"9","school":"4"},{"start_time":1552055797727,"click_time":1552055798820,"finger_time":1552055798400,"fix_duration":386.40679087945387,"trial":41,"RT":673,"MT":420,"sideResp":1,"stimulus":"img/500/equaldotanddens/L/5_Ratio_500_L_4_R_2.png","xmouse":[782,782,782,782,782,782,782,782,782,782,782,782,782,782,782,782,782,782,782,782,782,782,782,782,782,782,782,782,782,782,782,781,777,770,759,750,742,732,721,696,684,674,665,652,645,634,626,616,606,578,566,548,542,521,494],"ymouse":[491,491,491,491,491,491,491,491,491,491,491,491,491,491,491,491,491,491,491,491,491,491,491,491,491,491,491,491,491,491,488,483,475,458,435,420,403,385,365,326,309,290,274,251,236,214,202,189,176,149,138,124,119,105,90],"timestamp_mouse":[23,42,53,73,93,113,132,152,172,192,214,233,253,273,292,313,333,353,373,392,412,432,452,473,492,513,534,553,572,593,613,632,653,673,692,712,733,753,773,793,813,834,853,872,892,912,933,953,973,993,1012,1032,1053,1073,1093],"xSR":741.5,"ySR":469.95,"xT1":424.9,"yT1":0,"xT2":1058.1,"yT2":0,"toosoon":0,"cond_shown":"equaldotanddens","ratio_trial":500,"smaller_num":"2","larger_num":"4","correct_side":1,"subjID":"lucianaquirogahernandez3","gender":"1","age":"9","school":"4"},{"start_time":1552055800071,"click_time":1552055801280,"finger_time":1552055800780,"fix_duration":250,"trial":42,"RT":709,"MT":500,"sideResp":1,"stimulus":"img/250/randomdotsizeEA/L/1_Ratio_250_L_8_R_2.png","xmouse":[807,807,807,807,807,807,807,807,807,807,807,807,807,807,807,807,807,807,806,806,806,806,806,806,806,806,806,806,806,806,806,806,806,806,806,806,806,805,804,803,801,797,788,782,772,763,752,726,710,692,672,657,639,600,572,554,536,503,493,481,473],"ymouse":[505,505,505,505,505,505,505,505,505,505,505,505,505,505,507,507,507,507,509,509,509,509,509,509,509,509,509,509,509,509,506,504,493,483,476,468,459,439,428,418,407,396,375,367,355,346,337,318,306,291,277,266,250,216,194,177,162,128,115,101,90],"timestamp_mouse":[9,37,48,68,89,108,128,149,169,188,208,228,249,268,288,310,328,348,368,388,408,428,448,469,488,508,529,549,569,588,609,628,649,668,689,709,729,750,768,789,808,828,849,869,888,909,928,949,969,988,1008,1029,1049,1068,1089,1108,1129,1149,1168,1188,1209],"xSR":741.5,"ySR":469.95,"xT1":424.9,"yT1":0,"xT2":1058.1,"yT2":0,"toosoon":0,"cond_shown":"randomdotsizeEA","ratio_trial":250,"smaller_num":"2","larger_num":"8","correct_side":1,"subjID":"lucianaquirogahernandez3","gender":"1","age":"9","school":"4"},{"start_time":1552055802512,"click_time":1552055804340,"finger_time":1552055803379,"fix_duration":250,"trial":43,"RT":867,"MT":961,"sideResp":2,"stimulus":"img/750/equaldotsize/R/11_Ratio_750_L_12_R_16.png","xmouse":[814,814,814,814,814,814,814,814,814,814,814,814,814,814,814,814,814,814,814,814,814,814,814,814,814,814,814,814,814,814,814,814,814,814,814,814,814,814,814,816,818,830,837,845,857,870,899,912,925,936,948,974,983,989,997,1003,1015,1019,1022,1026,1028,1030,1030,1031,1033,1033,1037,1038,1041,1042,1044,1047,1049,1050,1051,1052,1054,1054,1054,1054,1054,1054,1054,1054,1054,1054,1054,1054,1054,1054,1055,1066],"ymouse":[527,527,527,527,527,527,527,527,527,527,527,527,527,527,527,527,527,527,527,527,527,527,527,527,527,527,527,527,527,527,527,527,527,527,527,527,527,527,527,524,521,502,491,476,461,442,401,381,361,343,323,274,257,242,225,209,181,167,155,144,128,120,115,112,109,106,96,93,88,84,79,72,69,69,67,66,65,65,65,65,65,65,65,65,65,65,65,65,65,65,65,65],"timestamp_mouse":[11,40,48,68,88,109,127,148,168,187,208,227,247,267,287,309,329,347,367,387,408,429,447,467,489,507,527,548,569,588,609,628,647,667,687,707,727,747,768,787,807,827,848,867,888,908,927,948,968,989,1007,1027,1047,1067,1087,1107,1127,1148,1168,1187,1209,1227,1248,1267,1287,1308,1328,1347,1368,1387,1408,1427,1448,1468,1487,1508,1528,1548,1568,1587,1608,1629,1647,1668,1688,1708,1728,1748,1767,1788,1808,1828],"xSR":741.5,"ySR":469.95,"xT1":424.9,"yT1":0,"xT2":1058.1,"yT2":0,"toosoon":0,"cond_shown":"equaldotsize","ratio_trial":750,"smaller_num":"12","larger_num":"16","correct_side":2,"subjID":"lucianaquirogahernandez3","gender":"1","age":"9","school":"4"},{"start_time":1552055808673,"click_time":1552055810180,"finger_time":1552055809679,"fix_duration":251.4640494288709,"trial":44,"RT":1006,"MT":501,"sideResp":2,"stimulus":"img/500/randomdotsizeEA/R/1_Ratio_500_L_9_R_18.png","xmouse":[804,804,804,804,804,804,804,804,804,804,804,804,804,804,804,804,804,804,804,804,804,804,804,804,804,804,804,804,804,804,804,804,804,804,804,804,804,804,804,804,804,804,805,807,810,812,816,818,827,834,847,858,870,884,909,921,933,946,970,981,998,1007,1016,1030,1034,1039,1042,1045,1047,1050,1051,1053,1056,1071,1081,1091],"ymouse":[549,549,549,549,549,549,549,549,549,549,549,549,549,549,549,549,549,549,549,549,549,549,549,549,549,549,549,549,549,549,549,549,548,548,548,548,548,548,548,548,548,548,546,535,527,520,511,503,485,472,449,429,408,386,341,319,297,274,237,219,194,182,170,151,144,137,132,129,126,123,122,121,119,109,101,91],"timestamp_mouse":[12,37,46,66,87,107,127,147,166,187,208,226,247,266,286,307,327,347,366,387,407,427,447,466,487,507,527,547,568,587,607,626,646,667,686,707,727,748,766,787,807,826,846,867,887,907,927,946,967,987,1006,1027,1048,1066,1087,1107,1126,1147,1168,1186,1206,1227,1248,1267,1287,1307,1326,1346,1367,1387,1407,1426,1446,1468,1486,1506],"xSR":741.5,"ySR":469.95,"xT1":424.9,"yT1":0,"xT2":1058.1,"yT2":0,"toosoon":0,"cond_shown":"randomdotsizeEA","ratio_trial":500,"smaller_num":"9","larger_num":"18","correct_side":2,"subjID":"lucianaquirogahernandez3","gender":"1","age":"9","school":"4"},{"start_time":1552055812618,"click_time":1552055814280,"finger_time":1552055813659,"fix_duration":1476.553038379463,"trial":45,"RT":1041,"MT":621,"sideResp":2,"stimulus":"img/900/randomdotsizeEA/R/3_Ratio_900_L_9_R_10.png","xmouse":[781,781,781,781,781,781,781,781,781,781,781,781,781,781,781,781,781,781,781,781,781,782,782,783,784,787,788,789,789,789,789,789,789,789,789,789,789,789,789,789,789,789,789,789,789,789,789,789,794,796,803,813,847,863,879,897,912,935,944,953,963,973,996,1002,1008,1011,1015,1019,1020,1022,1023,1024,1026,1028,1029,1030,1031,1034,1036,1040,1048,1051,1067,1071],"ymouse":[511,511,511,511,511,511,511,511,511,511,511,511,511,511,511,511,511,511,511,511,511,512,512,512,512,509,506,505,505,505,505,505,505,505,505,505,505,505,505,505,505,505,505,505,505,505,505,504,500,499,494,485,448,423,401,376,353,308,288,267,245,224,181,169,159,150,143,135,133,130,127,125,122,120,119,118,117,114,113,111,108,106,100,97],"timestamp_mouse":[2,32,41,61,81,102,122,141,161,182,202,221,242,261,282,301,321,341,362,381,402,421,442,461,481,501,521,542,561,583,602,621,641,662,683,702,721,741,761,782,802,821,841,861,883,903,922,941,962,982,1002,1021,1041,1061,1082,1101,1121,1142,1162,1181,1201,1221,1241,1262,1281,1302,1322,1342,1363,1381,1401,1422,1441,1461,1481,1502,1522,1541,1561,1582,1602,1621,1641,1662],"xSR":741.5,"ySR":469.95,"xT1":424.9,"yT1":0,"xT2":1058.1,"yT2":0,"toosoon":0,"cond_shown":"randomdotsizeEA","ratio_trial":900,"smaller_num":"9","larger_num":"10","correct_side":2,"subjID":"lucianaquirogahernandez3","gender":"1","age":"9","school":"4"},{"start_time":1552055816415,"click_time":1552055817939,"finger_time":1552055817360,"fix_duration":873.1971262563417,"trial":46,"RT":945,"MT":579,"sideResp":1,"stimulus":"img/900/randomdotsizeEA/R/13_Ratio_900_L_18_R_20.png","xmouse":[795,795,795,795,795,795,795,795,795,795,795,795,795,795,795,795,795,795,795,795,795,795,795,795,795,795,795,795,795,795,795,795,795,795,795,795,795,795,795,795,795,795,794,791,788,782,772,745,730,713,691,677,654,645,638,632,625,614,608,602,598,596,588,583,576,570,563,549,545,541,540,538,535,532,528,527,521],"ymouse":[510,510,510,510,510,510,510,510,510,510,510,510,510,510,510,510,510,510,510,510,510,510,510,510,510,510,510,510,510,510,510,510,510,510,510,510,510,510,510,510,510,510,510,505,503,495,486,462,446,427,395,372,332,314,296,278,260,228,208,185,168,156,126,111,98,85,74,56,52,51,51,51,51,51,51,51,51],"timestamp_mouse":[4,36,44,65,86,104,124,144,164,184,204,225,244,264,284,305,326,345,365,385,404,424,445,466,484,504,524,544,565,585,605,626,644,664,685,704,724,744,764,784,805,824,844,865,884,905,924,945,964,984,1005,1024,1045,1064,1084,1106,1124,1145,1164,1184,1204,1225,1245,1264,1284,1305,1324,1345,1364,1384,1405,1425,1445,1464,1485,1505,1524],"xSR":741.5,"ySR":469.95,"xT1":424.9,"yT1":0,"xT2":1058.1,"yT2":0,"toosoon":0,"cond_shown":"randomdotsizeEA","ratio_trial":900,"smaller_num":"18","larger_num":"20","correct_side":2,"subjID":"lucianaquirogahernandez3","gender":"1","age":"9","school":"4"},{"start_time":1552055820981,"click_time":1552055822479,"finger_time":1552055821661,"fix_duration":838.5191349432712,"trial":47,"RT":680,"MT":818,"sideResp":1,"stimulus":"img/500/equaldotanddens/L/10_Ratio_500_L_4_R_2.png","xmouse":[790,790,790,790,790,790,790,790,791,792,792,793,793,793,793,793,793,793,794,794,794,794,794,794,794,794,794,795,796,800,817,825,833,839,849,855,860,864,869,873,876,880,883,888,894,901,905,909,912,915,926,932,937,941,946,953,955,955,955,955,944,930,909,885,863,821,802,780,757,725,672,636,596,567,539,489],"ymouse":[506,506,506,506,506,506,506,506,507,507,507,507,507,507,507,507,507,507,507,507,507,507,507,507,507,507,507,507,507,504,494,490,485,481,474,470,466,461,455,451,447,442,437,432,425,413,405,398,390,382,363,354,343,333,324,304,297,293,288,287,283,282,279,279,279,281,283,283,282,265,228,197,161,131,104,57],"timestamp_mouse":[2,19,45,58,79,99,118,139,159,179,198,219,238,258,279,299,318,339,358,378,399,418,439,458,479,498,519,539,559,579,599,619,639,659,680,698,719,739,759,778,798,818,839,859,878,898,919,939,960,979,998,1018,1039,1059,1078,1098,1118,1139,1158,1179,1199,1218,1238,1258,1279,1298,1318,1339,1359,1379,1399,1418,1439,1459,1478,1498],"xSR":741.5,"ySR":469.95,"xT1":424.9,"yT1":0,"xT2":1058.1,"yT2":0,"toosoon":0,"cond_shown":"equaldotanddens","ratio_trial":500,"smaller_num":"2","larger_num":"4","correct_side":1,"subjID":"lucianaquirogahernandez3","gender":"1","age":"9","school":"4"},{"start_time":1552055824501,"click_time":1552055826120,"finger_time":1552055825220,"fix_duration":541.6964784498884,"trial":48,"RT":719,"MT":900,"sideResp":2,"stimulus":"img/900/equaldotanddens/L/10_Ratio_900_L_20_R_18.png","xmouse":[786,786,786,786,786,786,786,786,786,786,786,786,786,786,786,786,786,786,786,786,786,786,786,787,787,789,790,790,790,791,791,791,791,790,789,789,789,789,789,789,789,790,793,808,819,830,844,854,880,891,903,914,928,947,957,965,975,985,993,1006,1014,1022,1026,1035,1039,1044,1050,1055,1065,1068,1069,1069,1069,1069,1069,1069,1069,1070,1070,1072,1073],"ymouse":[500,500,500,500,500,500,500,500,500,500,500,500,500,500,500,500,501,501,501,501,501,501,501,502,502,502,502,500,497,494,493,490,488,478,473,465,455,444,421,411,398,380,370,343,327,311,292,276,239,221,201,182,153,118,102,87,74,59,50,32,22,16,12,5,3,2,0,0,0,0,0,0,0,0,0,0,0,0,0,0,2],"timestamp_mouse":[19,45,59,78,100,120,139,158,178,198,219,239,259,278,298,319,340,360,378,399,418,438,459,478,499,519,539,559,578,598,619,639,659,678,698,718,740,758,779,798,819,838,859,878,898,918,939,958,979,999,1020,1039,1058,1079,1099,1119,1139,1158,1179,1199,1219,1240,1259,1278,1298,1319,1338,1359,1379,1398,1419,1439,1460,1479,1500,1519,1539,1559,1578,1598,1619],"xSR":741.5,"ySR":469.95,"xT1":424.9,"yT1":0,"xT2":1058.1,"yT2":0,"toosoon":0,"cond_shown":"equaldotanddens","ratio_trial":900,"smaller_num":"18","larger_num":"20","correct_side":1,"subjID":"lucianaquirogahernandez3","gender":"1","age":"9","school":"4"},{"start_time":1552055829895,"click_time":1552055831100,"finger_time":1552055830759,"fix_duration":1155.4263748347391,"trial":49,"RT":864,"MT":341,"sideResp":1,"stimulus":"img/750/equaldotsize/L/13_Ratio_750_L_8_R_6.png","xmouse":[776,777,777,777,777,777,777,777,777,777,777,777,777,777,777,777,777,777,777,777,777,777,777,777,777,777,777,777,777,777,777,777,777,777,777,777,777,777,777,777,774,760,746,736,722,698,686,676,665,642,613,601,587,574,562,541,531,520,510,498,483],"ymouse":[531,529,529,529,529,529,529,529,529,529,529,529,529,529,529,529,529,529,529,529,529,529,529,529,529,529,529,529,529,529,529,529,529,529,529,529,529,529,529,529,517,502,489,480,464,428,410,390,370,337,298,280,263,243,226,191,174,156,136,112,77],"timestamp_mouse":[13,32,45,66,84,105,124,145,164,185,204,224,244,264,284,306,325,345,364,385,406,425,445,466,484,504,524,545,564,584,605,625,645,665,684,709,724,744,764,784,804,825,844,864,884,904,925,946,964,984,1004,1025,1044,1065,1085,1104,1124,1144,1165,1186,1205],"xSR":741.5,"ySR":469.95,"xT1":424.9,"yT1":0,"xT2":1058.1,"yT2":0,"toosoon":0,"cond_shown":"equaldotsize","ratio_trial":750,"smaller_num":"6","larger_num":"8","correct_side":1,"subjID":"lucianaquirogahernandez3","gender":"1","age":"9","school":"4"},{"start_time":1552055832939,"click_time":1552055834619,"finger_time":1552055833979,"fix_duration":557.9147844466112,"trial":50,"RT":1040,"MT":640,"sideResp":2,"stimulus":"img/750/randomdotsizeEA/L/9_Ratio_750_L_4_R_3.png","xmouse":[797,797,797,797,797,797,797,797,797,797,798,798,798,798,798,798,798,798,798,798,798,798,798,798,798,798,798,798,798,798,798,798,798,798,798,800,800,801,801,801,802,802,803,804,805,806,808,810,812,823,830,837,849,880,906,916,940,954,968,994,1006,1018,1028,1044,1047,1053,1055,1056,1057,1060,1061,1061,1063,1065,1068,1068,1070,1072,1073,1073,1073,1073,1073,1075,1076],"ymouse":[525,525,525,525,525,525,525,525,525,525,525,525,525,525,525,525,525,525,525,525,525,525,525,525,525,525,525,525,525,525,525,525,525,525,525,525,525,525,525,525,525,525,524,523,521,520,517,512,509,495,488,478,462,424,392,382,356,339,323,291,275,258,243,214,203,180,169,159,154,144,140,136,131,123,115,114,109,105,104,103,103,102,102,100,98],"timestamp_mouse":[10,20,44,61,80,100,121,141,162,181,201,221,240,260,281,300,322,341,360,380,402,421,440,460,482,501,520,541,560,581,600,622,641,660,681,701,720,741,760,780,800,821,840,860,881,901,921,941,960,981,1000,1020,1040,1060,1080,1101,1120,1140,1161,1181,1200,1222,1241,1261,1281,1301,1320,1341,1360,1380,1400,1420,1440,1461,1480,1501,1521,1541,1560,1580,1601,1620,1640,1661,1680],"xSR":741.5,"ySR":469.95,"xT1":424.9,"yT1":0,"xT2":1058.1,"yT2":0,"toosoon":0,"cond_shown":"randomdotsizeEA","ratio_trial":750,"smaller_num":"3","larger_num":"4","correct_side":1,"subjID":"lucianaquirogahernandez3","gender":"1","age":"9","school":"4"},{"start_time":1552055836461,"click_time":1552055838099,"finger_time":1552055837399,"fix_duration":660.7416123802361,"trial":51,"RT":938,"MT":700,"sideResp":1,"stimulus":"img/500/randomdotsizeEA/L/11_Ratio_500_L_12_R_6.png","xmouse":[764,764,764,764,764,764,764,764,764,764,764,764,764,764,764,764,764,764,764,764,764,764,764,764,764,764,764,764,764,764,764,764,764,764,764,764,764,764,764,764,765,766,768,769,769,769,765,754,739,731,721,699,689,678,665,650,623,604,592,581,569,547,537,529,526,521,518,515,515,515,515,515,515,515,515,514,512,506,503,501,498,496],"ymouse":[529,529,529,529,529,529,529,529,529,529,529,529,529,529,529,529,529,529,529,529,529,529,529,529,529,529,529,529,529,529,529,529,529,529,529,529,529,529,529,529,526,518,510,502,493,479,453,423,394,378,363,330,313,296,275,254,220,197,183,171,158,140,135,129,126,125,125,124,124,124,124,124,124,124,124,124,122,114,109,105,100,97],"timestamp_mouse":[18,39,58,79,98,118,139,159,178,199,219,239,258,278,300,319,339,359,380,399,419,440,459,478,498,520,538,559,578,600,619,639,659,678,698,718,740,758,779,800,819,839,859,879,898,919,938,958,978,998,1019,1040,1058,1078,1099,1118,1140,1158,1178,1198,1218,1240,1258,1279,1299,1318,1338,1358,1378,1398,1419,1438,1459,1478,1498,1519,1538,1558,1579,1599,1618,1638],"xSR":741.5,"ySR":469.95,"xT1":424.9,"yT1":0,"xT2":1058.1,"yT2":0,"toosoon":0,"cond_shown":"randomdotsizeEA","ratio_trial":500,"smaller_num":"6","larger_num":"12","correct_side":1,"subjID":"lucianaquirogahernandez3","gender":"1","age":"9","school":"4"},{"start_time":1552055839332,"click_time":1552055842021,"finger_time":1552055841460,"fix_duration":250,"trial":52,"RT":2128,"MT":561,"sideResp":2,"stimulus":"img/900/randomdotsizeEA/R/6_Ratio_900_L_9_R_10.png","xmouse":[810,810,810,810,810,810,810,810,810,810,810,810,810,810,810,810,810,810,810,810,810,810,810,810,810,810,810,810,810,810,810,810,810,810,810,810,810,810,810,810,810,810,810,810,810,810,810,810,810,810,810,810,811,811,811,811,811,811,811,811,811,811,811,811,811,811,811,811,811,811,811,811,811,811,811,812,812,812,810,808,807,806,805,805,802,801,798,798,798,798,798,798,798,798,798,798,798,798,798,798,798,798,798,798,801,808,816,827,842,881,896,915,930,953,976,988,997,1008,1018,1029,1034,1038,1045,1045,1045,1045,1045,1045,1045,1045,1045,1045,1045,1045,1076],"ymouse":[562,562,562,562,562,562,562,562,562,562,562,562,562,562,562,562,562,562,562,562,562,562,562,562,562,562,562,562,562,562,562,562,562,562,562,562,562,562,562,562,562,562,562,562,562,562,562,562,562,562,562,562,562,562,562,562,562,562,562,562,562,562,562,562,562,562,562,562,562,562,562,562,562,561,558,554,548,544,538,533,531,529,526,524,520,518,516,515,515,515,515,515,515,515,515,515,515,515,515,515,515,515,515,512,497,482,462,440,420,354,321,282,247,194,137,114,100,80,60,33,22,11,0,0,0,0,0,0,0,0,0,0,0,0,3],"timestamp_mouse":[20,44,47,67,87,108,127,147,167,187,207,227,249,267,287,308,328,347,368,387,408,428,448,467,488,508,527,547,567,588,607,628,647,669,688,708,728,747,769,787,808,827,847,867,887,907,927,947,968,987,1007,1029,1047,1067,1089,1108,1128,1148,1167,1188,1207,1227,1247,1268,1287,1308,1329,1347,1368,1389,1407,1428,1449,1468,1487,1508,1528,1548,1568,1587,1607,1627,1648,1669,1687,1708,1727,1747,1768,1788,1807,1828,1847,1868,1887,1908,1927,1948,1968,1987,2007,2027,2048,2067,2087,2107,2128,2149,2167,2188,2207,2227,2247,2267,2288,2308,2327,2348,2368,2388,2407,2427,2447,2469,2488,2509,2527,2548,2568,2588,2609,2627,2647,2668,2688],"xSR":741.5,"ySR":469.95,"xT1":424.9,"yT1":0,"xT2":1058.1,"yT2":0,"toosoon":0,"cond_shown":"randomdotsizeEA","ratio_trial":900,"smaller_num":"9","larger_num":"10","correct_side":2,"subjID":"lucianaquirogahernandez3","gender":"1","age":"9","school":"4"},{"start_time":1552055844680,"click_time":1552055845740,"finger_time":1552055845339,"fix_duration":1138.2779475507068,"trial":53,"RT":659,"MT":401,"sideResp":1,"stimulus":"img/250/equaldotsize/L/2_Ratio_250_L_16_R_4.png","xmouse":[781,781,781,781,781,781,781,781,781,781,781,781,781,781,781,781,781,781,781,781,781,781,781,781,781,781,781,781,781,781,781,781,778,765,752,740,726,697,683,668,652,639,610,594,584,574,566,559,544,539,535,531,526,520],"ymouse":[510,510,510,510,510,510,510,510,510,510,510,510,510,510,510,510,510,510,510,510,510,510,510,510,510,510,510,510,510,510,508,505,494,464,436,415,395,353,332,312,290,269,227,200,187,174,163,152,133,125,119,112,106,98],"timestamp_mouse":[1,19,39,59,80,101,120,139,159,180,199,218,239,259,279,299,319,340,360,380,398,419,440,459,479,500,519,539,558,578,599,618,638,659,678,698,718,740,759,780,800,818,841,858,879,899,919,940,959,979,1000,1020,1039,1060],"xSR":741.5,"ySR":469.95,"xT1":424.9,"yT1":0,"xT2":1058.1,"yT2":0,"toosoon":0,"cond_shown":"equaldotsize","ratio_trial":250,"smaller_num":"4","larger_num":"16","correct_side":1,"subjID":"lucianaquirogahernandez3","gender":"1","age":"9","school":"4"},{"start_time":1552055849915,"click_time":1552055851258,"finger_time":1552055850838,"fix_duration":555.8171003552925,"trial":54,"RT":923,"MT":420,"sideResp":1,"stimulus":"img/900/equaldotsize/R/13_Ratio_900_L_18_R_20.png","xmouse":[785,785,785,785,785,785,786,787,787,787,787,787,787,787,787,787,787,787,787,787,787,789,789,790,790,791,791,792,792,794,796,797,797,798,799,800,801,801,802,802,803,803,803,803,802,798,790,783,772,768,753,733,725,719,716,713,700,684,665,637,620,590,576,561,545,529,501,489],"ymouse":[519,519,519,519,519,520,520,520,520,520,520,520,520,520,520,520,520,520,520,520,520,520,520,520,520,520,520,521,521,521,521,521,521,521,521,520,519,517,514,512,509,502,497,492,485,474,451,439,420,413,392,364,353,344,339,331,312,296,280,256,241,208,192,173,157,139,106,91],"timestamp_mouse":[4,24,44,64,84,104,124,143,165,183,204,225,244,264,283,303,324,344,365,384,404,424,443,463,483,504,523,543,564,583,605,623,645,663,684,705,724,744,765,783,804,824,844,864,885,904,923,944,965,984,1004,1024,1043,1064,1083,1103,1124,1144,1163,1184,1203,1224,1244,1263,1283,1304,1324,1343],"xSR":741.5,"ySR":469.95,"xT1":424.9,"yT1":0,"xT2":1058.1,"yT2":0,"toosoon":0,"cond_shown":"equaldotsize","ratio_trial":900,"smaller_num":"18","larger_num":"20","correct_side":2,"subjID":"lucianaquirogahernandez3","gender":"1","age":"9","school":"4"},{"start_time":1552055853825,"click_time":1552055855058,"finger_time":1552055854000,"fix_duration":1404.8013300731648,"trial":55,"RT":175,"MT":1058,"sideResp":1,"stimulus":"img/750/randomdotsizeEA/L/8_Ratio_750_L_4_R_3.png","xmouse":[812,812,812,806,796,774,756,742,730,723,720,720,720,720,720,720,720,720,720,720,720,720,721,723,725,729,729,730,732,732,732,732,719,700,674,638,551,508,474,443,418,376,367,360,359,359,359,360,361,362,363,373,382,389,397,406,409,410,410,412,414,430],"ymouse":[532,532,532,531,526,515,503,493,485,480,478,478,478,478,478,477,477,477,477,477,477,476,476,475,474,471,470,467,464,460,448,437,411,388,359,323,253,216,184,153,129,82,67,55,48,39,35,31,29,28,26,25,25,25,25,25,25,25,25,25,26,33],"timestamp_mouse":[14,36,54,73,93,113,133,154,175,194,214,234,253,273,293,316,334,354,374,393,413,434,454,473,493,515,533,554,573,593,615,633,655,675,694,713,734,754