[{"start_time":1552327287203,"click_time":1552327290932,"finger_time":1552327288151,"fix_duration":625.5591562858725,"trial":0,"RT":948,"MT":2781,"sideResp":1,"stimulus":[],"xmouse":[789,789,789,789,789,789,789,789,789,789,789,788,788,788,788,788,788,788,788,788,788,788,788,788,788,788,787,787,786,785,785,785,785,785,785,785,784,785,791,809,815,820,825,832,838,841,842,842,842,841,824,795,773,744,719,688,684,684,684,684,677,663,653,646,642,641,641,641,641,642,643,641,635,631,630,627,626,621,617,612,593,589,586,584,584,580,579,575,570,565,554,552,550,546,546,545,544,542,542,542,544,546,547,548,548,548,548,548,548,548,548,548,548,548,547,545,545,545,545,545,545,545,545,545,545,545,545,545,545,545,545,545,545,545,545,545,545,545,545,545,545,545,545,545,545,545,545,545,546,546,546,546,546,546,546,546,547,547,547,547,544,541,538,535,533,532,532,532,532,532,532,532,531,531,531,529,528,528,527,526,526,526,526,525,525,523],"ymouse":[536,536,536,536,536,536,536,536,536,536,536,536,536,536,536,536,536,536,536,536,536,536,536,536,536,536,536,536,536,536,536,536,536,536,536,536,535,535,530,516,506,498,492,485,481,475,474,473,471,468,452,428,407,383,361,332,327,327,327,327,328,331,332,333,333,333,333,333,333,333,317,301,283,263,243,200,178,158,140,121,82,74,70,69,68,72,73,74,74,74,68,67,66,64,64,64,64,64,65,66,73,76,79,80,82,82,82,82,82,82,82,83,83,83,83,83,83,83,83,83,83,85,86,87,87,87,87,87,87,87,87,87,87,87,87,87,87,87,87,87,87,87,87,87,87,87,87,87,87,87,87,87,87,87,87,87,87,87,85,84,81,80,79,79,78,78,78,78,78,78,78,78,78,78,78,78,78,78,78,78,78,78,78,78,78,78],"timestamp_mouse":[36,48,68,88,109,128,148,169,188,209,229,249,268,288,308,329,349,368,389,408,429,448,468,489,509,528,548,569,588,608,629,648,669,689,708,728,748,768,789,810,828,848,869,888,909,928,948,968,988,1008,1028,1048,1068,1089,1108,1127,1149,1168,1188,1209,1228,1248,1269,1288,1309,1329,1349,1369,1388,1408,1428,1449,1468,1488,1509,1528,1548,1568,1588,1609,1628,1648,1669,1688,1709,1728,1748,1769,1788,1808,1828,1849,1868,1889,1909,1929,1949,1968,1989,2008,2028,2048,2069,2088,2108,2129,2149,2169,2188,2209,2228,2249,2269,2288,2309,2329,2348,2368,2389,2409,2429,2448,2469,2488,2509,2528,2549,2569,2589,2608,2628,2649,2668,2688,2709,2729,2749,2768,2788,2809,2828,2848,2868,2888,2908,2929,2949,2968,2988,3008,3029,3049,3068,3088,3108,3129,3148,3169,3189,3209,3228,3248,3269,3288,3309,3328,3348,3369,3388,3409,3428,3449,3468,3489,3508,3528,3549,3569,3588,3609,3629,3649,3669,3689,3709,3728],"xSR":741.5,"ySR":469.95,"xT1":424.9,"yT1":0,"xT2":1058.1,"yT2":0,"toosoon":0,"cond_shown":"Congruent","ratio_trial":200,"L_num":6,"L_den":20,"R_num":11,"R_den":22,"correct_side":2,"subjID":"luciavelez14","gender":"1","age":"9","school":"4","test":{"fix_dur":[250,1500],"timestim":1000,"targets_dim":[100,100],"targets_relative_coord":[0.3,0.7],"size_stim":[880,420],"start_dim":[100,100],"size_start":[300,300],"size_fix":60,"samplingrate":20,"img_types":["Congruent","Incongruent"],"ratios":[100,200,300],"rep_conds":19,"nTrials":120,"trials_to_rest":500,"Trials_order":[92,115,114,40,96,63,20,105,22,13,109,31,49,42,15,69,46,73,35,82,57,25,111,23,8,47,74,85,60,87,99,119,37,0,61,34,117,97,19,66,80,33,89,28,102,32,2,64,112,110,100,5,10,18,6,1,90,24,113,104,12,52,101,39,43,91,75,30,86,93,62,56,58,54,76,3,48,68,94,55,27,44,83,108,11,79,88,9,29,59,21,84,98,16,95,78,81,103,71,72,50,77,14,67,45,116,51,53,4,107,38,7,106,36,65,41,118,26,70,17],"cond_shown":["Congruent","Incongruent","Congruent","Congruent","Congruent","Incongruent","Congruent","Incongruent","Congruent","Incongruent","Incongruent","Incongruent","Incongruent","Congruent","Incongruent","Incongruent","Congruent","Incongruent","Incongruent","Congruent","Incongruent","Incongruent","Incongruent","Incongruent","Congruent","Incongruent","Congruent","Incongruent","Congruent","Incongruent","Incongruent","Incongruent","Incongruent","Congruent","Incongruent","Congruent","Incongruent","Incongruent","Incongruent","Congruent","Congruent","Incongruent","Incongruent","Congruent","Congruent","Congruent","Congruent","Congruent","Congruent","Congruent","Congruent","Incongruent","Congruent","Congruent","Congruent","Incongruent","Congruent","Congruent","Incongruent","Congruent","Congruent","Congruent","Incongruent","Incongruent","Incongruent","Incongruent","Incongruent","Congruent","Congruent","Incongruent","Congruent","Congruent","Congruent","Congruent","Congruent","Incongruent","Congruent","Congruent","Congruent","Incongruent","Incongruent","Congruent","Incongruent","Congruent","Incongruent","Incongruent","Congruent","Incongruent","Incongruent","Incongruent","Incongruent","Congruent","Congruent","Congruent","Incongruent","Congruent","Incongruent","Incongruent","Incongruent","Congruent","Congruent","Incongruent","Congruent","Incongruent","Incongruent","Congruent","Incongruent","Incongruent","Congruent","Incongruent","Congruent","Incongruent","Congruent","Congruent","Incongruent","Incongruent","Congruent","Congruent","Congruent","Incongruent"],"ratio_trial":[200,100,100,300,100,200,200,200,300,100,100,100,100,100,200,200,300,100,300,300,200,100,200,300,200,300,200,100,100,200,200,300,100,100,100,300,200,100,100,100,200,200,300,300,100,200,200,300,300,200,300,300,300,100,100,100,100,100,300,200,100,300,300,200,100,100,200,100,200,200,200,200,300,100,300,200,100,200,300,100,200,200,300,100,300,100,300,200,300,300,200,100,200,300,300,100,200,100,300,100,200,300,200,100,200,200,200,300,300,300,200,100,300,100,300,300,300,200,300,300],"left_num":[6,10,2,11,7,1,6,1,20,8,6,11,9,1,1,14,24,9,4,20,7,9,7,1,6,4,6,6,3,7,7,8,3,15,6,3,3,6,17,2,13,7,2,1,2,8,5,1,3,13,20,3,12,6,4,1,4,15,4,9,12,20,13,1,2,1,4,7,1,9,11,3,8,2,24,7,7,7,5,9,7,5,8,7,2,3,11,7,13,4,3,10,16,20,4,6,14,10,4,11,3,1,15,9,4,16,3,13,11,4,3,9,1,1,2,13,3,21,24,4],"right_num":[11,9,11,1,15,3,3,3,13,1,3,9,14,18,3,12,2,6,2,8,4,20,12,3,3,2,7,13,2,4,6,9,11,13,11,4,1,3,10,11,14,6,6,7,11,2,14,6,4,14,9,4,2,5,6,8,6,13,2,13,13,9,12,3,8,8,1,15,21,8,3,9,10,6,2,8,15,2,6,6,8,14,9,15,6,8,4,8,12,6,11,3,12,14,2,5,12,8,8,6,14,2,4,6,14,9,1,12,1,2,7,20,11,3,6,12,4,2,8,6],"left_den":[20,25,5,22,14,2,15,2,25,20,12,22,15,2,2,30,30,18,20,25,15,10,10,2,15,20,12,10,6,15,15,10,5,25,10,6,10,12,30,5,26,15,4,20,5,15,10,5,6,26,25,6,24,20,8,2,8,25,20,30,30,25,26,2,4,2,30,14,2,15,22,12,15,5,30,10,14,21,25,18,10,10,10,14,4,5,22,10,26,5,4,25,20,25,20,20,30,25,5,22,10,2,25,18,6,30,10,26,22,20,10,10,5,2,4,26,6,30,30,5],"right_den":[22,18,22,5,25,10,15,10,26,2,5,15,28,30,10,18,4,10,4,16,6,25,24,15,15,4,10,26,5,6,9,18,22,26,22,5,2,5,15,22,20,9,30,20,22,6,20,12,5,20,18,20,10,25,10,20,10,26,4,26,26,18,15,10,20,20,3,25,30,10,10,20,12,12,4,16,25,15,12,10,16,20,18,25,30,16,20,16,15,12,20,10,20,28,4,25,18,16,16,15,28,10,10,10,30,27,2,15,5,4,14,25,22,5,30,15,5,4,16,12],"correct_side":[2,2,2,1,2,1,1,1,1,2,2,2,1,2,1,2,1,2,2,1,2,1,1,1,1,2,2,1,1,2,2,1,1,1,1,2,2,2,2,2,2,2,1,2,2,1,2,2,2,2,1,1,1,1,2,1,2,1,2,2,2,1,2,1,1,1,2,2,2,2,1,2,2,2,1,1,2,1,2,2,1,2,1,2,1,1,1,1,2,1,1,1,1,1,2,1,2,2,1,1,2,1,1,2,1,1,2,2,1,2,2,1,2,2,1,2,2,1,1,1],"img_shown":["img2/200/Congruent/R/C_Dist_200_LN_6_LD_20_RN_11_RD_22_1.png","img2/100/Incongruent/R/I_Dist_100_LN_10_LD_25_RN_9_RD_18_1.png","img2/100/Congruent/R/C_Dist_100_LN_2_LD_5_RN_11_RD_22_1.png","img2/300/Congruent/L/C_Dist_300_LN_11_LD_22_RN_1_RD_5_0.png","img2/100/Congruent/R/C_Dist_100_LN_7_LD_14_RN_15_RD_25_1.png","img2/200/Incongruent/L/I_Dist_200_LN_1_LD_2_RN_3_RD_10_0.png","img2/200/Congruent/L/C_Dist_200_LN_6_LD_15_RN_3_RD_15_0.png","img2/200/Incongruent/L/I_Dist_200_LN_1_LD_2_RN_3_RD_10_0.png","img2/300/Congruent/L/C_Dist_300_LN_20_LD_25_RN_13_RD_26_0.png","img2/100/Incongruent/R/I_Dist_100_LN_8_LD_20_RN_1_RD_2_1.png","img2/100/Incongruent/R/I_Dist_100_LN_6_LD_12_RN_3_RD_5_1.png","img2/100/Incongruent/R/I_Dist_100_LN_11_LD_22_RN_9_RD_15_1.png","img2/100/Incongruent/L/I_Dist_100_LN_9_LD_15_RN_14_RD_28_0.png","img2/100/Congruent/R/C_Dist_100_LN_1_LD_2_RN_18_RD_30_1.png","img2/200/Incongruent/L/I_Dist_200_LN_1_LD_2_RN_3_RD_10_0.png","img2/200/Incongruent/R/I_Dist_200_LN_14_LD_30_RN_12_RD_18_1.png","img2/300/Congruent/L/C_Dist_300_LN_24_LD_30_RN_2_RD_4_0.png","img2/100/Incongruent/R/I_Dist_100_LN_9_LD_18_RN_6_RD_10_1.png","img2/300/Incongruent/R/I_Dist_300_LN_4_LD_20_RN_2_RD_4_1.png","img2/300/Congruent/L/C_Dist_300_LN_20_LD_25_RN_8_RD_16_0.png","img2/200/Incongruent/R/I_Dist_200_LN_7_LD_15_RN_4_RD_6_1.png","img2/100/Incongruent/L/I_Dist_100_LN_9_LD_10_RN_20_RD_25_0.png","img2/200/Incongruent/L/I_Dist_200_LN_7_LD_10_RN_12_RD_24_0.png","img2/300/Incongruent/L/I_Dist_300_LN_1_LD_2_RN_3_RD_15_0.png","img2/200/Congruent/L/C_Dist_200_LN_6_LD_15_RN_3_RD_15_0.png","img2/300/Incongruent/R/I_Dist_300_LN_4_LD_20_RN_2_RD_4_1.png","img2/200/Congruent/R/C_Dist_200_LN_6_LD_12_RN_7_RD_10_1.png","img2/100/Incongruent/L/I_Dist_100_LN_6_LD_10_RN_13_RD_26_0.png","img2/100/Congruent/L/C_Dist_100_LN_3_LD_6_RN_2_RD_5_0.png","img2/200/Incongruent/R/I_Dist_200_LN_7_LD_15_RN_4_RD_6_1.png","img2/200/Incongruent/R/I_Dist_200_LN_7_LD_15_RN_6_RD_9_1.png","img2/300/Incongruent/L/I_Dist_300_LN_8_LD_10_RN_9_RD_18_0.png","img2/100/Incongruent/L/I_Dist_100_LN_3_LD_5_RN_11_RD_22_0.png","img2/100/Congruent/L/C_Dist_100_LN_15_LD_25_RN_13_RD_26_0.png","img2/100/Incongruent/L/I_Dist_100_LN_6_LD_10_RN_11_RD_22_0.png","img2/300/Congruent/R/C_Dist_300_LN_3_LD_6_RN_4_RD_5_1.png","img2/200/Incongruent/R/I_Dist_200_LN_3_LD_10_RN_1_RD_2_1.png","img2/100/Incongruent/R/I_Dist_100_LN_6_LD_12_RN_3_RD_5_1.png","img2/100/Incongruent/R/I_Dist_100_LN_17_LD_30_RN_10_RD_15_1.png","img2/100/Congruent/R/C_Dist_100_LN_2_LD_5_RN_11_RD_22_1.png","img2/200/Congruent/R/C_Dist_200_LN_13_LD_26_RN_14_RD_20_1.png","img2/200/Incongruent/R/I_Dist_200_LN_7_LD_15_RN_6_RD_9_1.png","img2/300/Incongruent/L/I_Dist_300_LN_2_LD_4_RN_6_RD_30_0.png","img2/300/Congruent/R/C_Dist_300_LN_1_LD_20_RN_7_RD_20_1.png","img2/100/Congruent/R/C_Dist_100_LN_2_LD_5_RN_11_RD_22_1.png","img2/200/Congruent/L/C_Dist_200_LN_8_LD_15_RN_2_RD_6_0.png","img2/200/Congruent/R/C_Dist_200_LN_5_LD_10_RN_14_RD_20_1.png","img2/300/Congruent/R/C_Dist_300_LN_1_LD_5_RN_6_RD_12_1.png","img2/300/Congruent/R/C_Dist_300_LN_3_LD_6_RN_4_RD_5_1.png","img2/200/Congruent/R/C_Dist_200_LN_13_LD_26_RN_14_RD_20_1.png","img2/300/Congruent/L/C_Dist_300_LN_20_LD_25_RN_9_RD_18_0.png","img2/300/Incongruent/L/I_Dist_300_LN_3_LD_6_RN_4_RD_20_0.png","img2/300/Congruent/L/C_Dist_300_LN_12_LD_24_RN_2_RD_10_0.png","img2/100/Congruent/L/C_Dist_100_LN_6_LD_20_RN_5_RD_25_0.png","img2/100/Congruent/R/C_Dist_100_LN_4_LD_8_RN_6_RD_10_1.png","img2/100/Incongruent/L/I_Dist_100_LN_1_LD_2_RN_8_RD_20_0.png","img2/100/Congruent/R/C_Dist_100_LN_4_LD_8_RN_6_RD_10_1.png","img2/100/Congruent/L/C_Dist_100_LN_15_LD_25_RN_13_RD_26_0.png","img2/300/Incongruent/R/I_Dist_300_LN_4_LD_20_RN_2_RD_4_1.png","img2/200/Congruent/R/C_Dist_200_LN_9_LD_30_RN_13_RD_26_1.png","img2/100/Congruent/R/C_Dist_100_LN_12_LD_30_RN_13_RD_26_1.png","img2/300/Congruent/L/C_Dist_300_LN_20_LD_25_RN_9_RD_18_0.png","img2/300/Incongruent/R/I_Dist_300_LN_13_LD_26_RN_12_RD_15_1.png","img2/200/Incongruent/L/I_Dist_200_LN_1_LD_2_RN_3_RD_10_0.png","img2/100/Incongruent/L/I_Dist_100_LN_2_LD_4_RN_8_RD_20_0.png","img2/100/Incongruent/L/I_Dist_100_LN_1_LD_2_RN_8_RD_20_0.png","img2/200/Incongruent/R/I_Dist_200_LN_4_LD_30_RN_1_RD_3_1.png","img2/100/Congruent/R/C_Dist_100_LN_7_LD_14_RN_15_RD_25_1.png","img2/200/Congruent/R/C_Dist_200_LN_1_LD_2_RN_21_RD_30_1.png","img2/200/Incongruent/R/I_Dist_200_LN_9_LD_15_RN_8_RD_10_1.png","img2/200/Congruent/L/C_Dist_200_LN_11_LD_22_RN_3_RD_10_0.png","img2/200/Congruent/R/C_Dist_200_LN_3_LD_12_RN_9_RD_20_1.png","img2/300/Congruent/R/C_Dist_300_LN_8_LD_15_RN_10_RD_12_1.png","img2/100/Congruent/R/C_Dist_100_LN_2_LD_5_RN_6_RD_12_1.png","img2/300/Congruent/L/C_Dist_300_LN_24_LD_30_RN_2_RD_4_0.png","img2/200/Incongruent/L/I_Dist_200_LN_7_LD_10_RN_8_RD_16_0.png","img2/100/Congruent/R/C_Dist_100_LN_7_LD_14_RN_15_RD_25_1.png","img2/200/Congruent/L/C_Dist_200_LN_7_LD_21_RN_2_RD_15_0.png","img2/300/Congruent/R/C_Dist_300_LN_5_LD_25_RN_6_RD_12_1.png","img2/100/Incongruent/R/I_Dist_100_LN_9_LD_18_RN_6_RD_10_1.png","img2/200/Incongruent/L/I_Dist_200_LN_7_LD_10_RN_8_RD_16_0.png","img2/200/Congruent/R/C_Dist_200_LN_5_LD_10_RN_14_RD_20_1.png","img2/300/Incongruent/L/I_Dist_300_LN_8_LD_10_RN_9_RD_18_0.png","img2/100/Congruent/R/C_Dist_100_LN_7_LD_14_RN_15_RD_25_1.png","img2/300/Incongruent/L/I_Dist_300_LN_2_LD_4_RN_6_RD_30_0.png","img2/100/Incongruent/L/I_Dist_100_LN_3_LD_5_RN_8_RD_16_0.png","img2/300/Congruent/L/C_Dist_300_LN_11_LD_22_RN_4_RD_20_0.png","img2/200/Incongruent/L/I_Dist_200_LN_7_LD_10_RN_8_RD_16_0.png","img2/300/Incongruent/R/I_Dist_300_LN_13_LD_26_RN_12_RD_15_1.png","img2/300/Incongruent/L/I_Dist_300_LN_4_LD_5_RN_6_RD_12_0.png","img2/200/Incongruent/L/I_Dist_200_LN_3_LD_4_RN_11_RD_20_0.png","img2/100/Congruent/L/C_Dist_100_LN_10_LD_25_RN_3_RD_10_0.png","img2/200/Congruent/L/C_Dist_200_LN_16_LD_20_RN_12_RD_20_0.png","img2/300/Congruent/L/C_Dist_300_LN_20_LD_25_RN_14_RD_28_0.png","img2/300/Incongruent/R/I_Dist_300_LN_4_LD_20_RN_2_RD_4_1.png","img2/100/Congruent/L/C_Dist_100_LN_6_LD_20_RN_5_RD_25_0.png","img2/200/Incongruent/R/I_Dist_200_LN_14_LD_30_RN_12_RD_18_1.png","img2/100/Incongruent/R/I_Dist_100_LN_10_LD_25_RN_8_RD_16_1.png","img2/300/Incongruent/L/I_Dist_300_LN_4_LD_5_RN_8_RD_16_0.png","img2/100/Congruent/L/C_Dist_100_LN_11_LD_22_RN_6_RD_15_0.png","img2/200/Congruent/R/C_Dist_200_LN_3_LD_10_RN_14_RD_28_1.png","img2/300/Incongruent/L/I_Dist_300_LN_1_LD_2_RN_2_RD_10_0.png","img2/200/Congruent/L/C_Dist_200_LN_15_LD_25_RN_4_RD_10_0.png","img2/100/Incongruent/R/I_Dist_100_LN_9_LD_18_RN_6_RD_10_1.png","img2/200/Incongruent/L/I_Dist_200_LN_4_LD_6_RN_14_RD_30_0.png","img2/200/Congruent/L/C_Dist_200_LN_16_LD_30_RN_9_RD_27_0.png","img2/200/Incongruent/R/I_Dist_200_LN_3_LD_10_RN_1_RD_2_1.png","img2/300/Incongruent/R/I_Dist_300_LN_13_LD_26_RN_12_RD_15_1.png","img2/300/Congruent/L/C_Dist_300_LN_11_LD_22_RN_1_RD_5_0.png","img2/300/Incongruent/R/I_Dist_300_LN_4_LD_20_RN_2_RD_4_1.png","img2/200/Congruent/R/C_Dist_200_LN_3_LD_10_RN_7_RD_14_1.png","img2/100/Incongruent/L/I_Dist_100_LN_9_LD_10_RN_20_RD_25_0.png","img2/300/Congruent/R/C_Dist_300_LN_1_LD_5_RN_11_RD_22_1.png","img2/100/Congruent/R/C_Dist_100_LN_1_LD_2_RN_3_RD_5_1.png","img2/300/Incongruent/L/I_Dist_300_LN_2_LD_4_RN_6_RD_30_0.png","img2/300/Incongruent/R/I_Dist_300_LN_13_LD_26_RN_12_RD_15_1.png","img2/300/Congruent/R/C_Dist_300_LN_3_LD_6_RN_4_RD_5_1.png","img2/200/Congruent/L/C_Dist_200_LN_21_LD_30_RN_2_RD_4_0.png","img2/300/Congruent/L/C_Dist_300_LN_24_LD_30_RN_8_RD_16_0.png","img2/300/Incongruent/L/I_Dist_300_LN_4_LD_5_RN_6_RD_12_0.png"],"dist100_C":[["C_Dist_100_LN_10_LD_25_RN_3_RD_10_0.png","C_Dist_100_LN_11_LD_22_RN_4_RD_10_0.png","C_Dist_100_LN_11_LD_22_RN_6_RD_15_0.png","C_Dist_100_LN_15_LD_25_RN_13_RD_26_0.png","C_Dist_100_LN_3_LD_6_RN_2_RD_5_0.png","C_Dist_100_LN_6_LD_20_RN_5_RD_25_0.png","C_Dist_100_LN_8_LD_16_RN_2_RD_5_0.png","C_Dist_100_LN_9_LD_15_RN_8_RD_16_0.png"],["C_Dist_100_LN_1_LD_2_RN_18_RD_30_1.png","C_Dist_100_LN_1_LD_2_RN_3_RD_5_1.png","C_Dist_100_LN_12_LD_30_RN_13_RD_26_1.png","C_Dist_100_LN_2_LD_5_RN_11_RD_22_1.png","C_Dist_100_LN_2_LD_5_RN_6_RD_12_1.png","C_Dist_100_LN_3_LD_20_RN_4_RD_16_1.png","C_Dist_100_LN_4_LD_10_RN_15_RD_30_1.png","C_Dist_100_LN_4_LD_8_RN_6_RD_10_1.png","C_Dist_100_LN_6_LD_12_RN_15_RD_25_1.png","C_Dist_100_LN_7_LD_14_RN_15_RD_25_1.png","C_Dist_100_LN_7_LD_14_RN_9_RD_15_1.png"]],"dist100_I":[["I_Dist_100_LN_1_LD_2_RN_8_RD_20_0.png","I_Dist_100_LN_2_LD_4_RN_6_RD_15_0.png","I_Dist_100_LN_2_LD_4_RN_8_RD_20_0.png","I_Dist_100_LN_3_LD_5_RN_11_RD_22_0.png","I_Dist_100_LN_3_LD_5_RN_8_RD_16_0.png","I_Dist_100_LN_3_LD_6_RN_4_RD_10_0.png","I_Dist_100_LN_3_LD_9_RN_7_RD_30_0.png","I_Dist_100_LN_4_LD_8_RN_8_RD_20_0.png","I_Dist_100_LN_6_LD_10_RN_11_RD_22_0.png","I_Dist_100_LN_6_LD_10_RN_13_RD_26_0.png","I_Dist_100_LN_6_LD_10_RN_7_RD_14_0.png","I_Dist_100_LN_9_LD_10_RN_20_RD_25_0.png","I_Dist_100_LN_9_LD_15_RN_13_RD_26_0.png","I_Dist_100_LN_9_LD_15_RN_14_RD_28_0.png"],["I_Dist_100_LN_10_LD_25_RN_8_RD_16_1.png","I_Dist_100_LN_10_LD_25_RN_9_RD_18_1.png","I_Dist_100_LN_11_LD_22_RN_9_RD_15_1.png","I_Dist_100_LN_12_LD_24_RN_9_RD_15_1.png","I_Dist_100_LN_12_LD_30_RN_2_RD_4_1.png","I_Dist_100_LN_13_LD_26_RN_12_RD_20_1.png","I_Dist_100_LN_13_LD_26_RN_6_RD_10_1.png","I_Dist_100_LN_17_LD_30_RN_10_RD_15_1.png","I_Dist_100_LN_6_LD_12_RN_3_RD_5_1.png","I_Dist_100_LN_8_LD_16_RN_6_RD_10_1.png","I_Dist_100_LN_8_LD_20_RN_1_RD_2_1.png","I_Dist_100_LN_9_LD_18_RN_6_RD_10_1.png"]],"dist100_S":[["E_Dist_100_LN_2_LD_12_RN_2_RD_30_0.png","E_Dist_100_LN_6_LD_10_RN_6_RD_12_0.png"],["E_Dist_100_LN_6_LD_12_RN_6_RD_10_1.png"]],"dist200_C":[["C_Dist_200_LN_11_LD_22_RN_3_RD_10_0.png","C_Dist_200_LN_12_LD_15_RN_6_RD_10_0.png","C_Dist_200_LN_12_LD_20_RN_6_RD_15_0.png","C_Dist_200_LN_14_LD_28_RN_6_RD_20_0.png","C_Dist_200_LN_15_LD_25_RN_4_RD_10_0.png","C_Dist_200_LN_16_LD_20_RN_12_RD_20_0.png","C_Dist_200_LN_16_LD_30_RN_9_RD_27_0.png","C_Dist_200_LN_20_LD_25_RN_9_RD_15_0.png","C_Dist_200_LN_21_LD_30_RN_2_RD_4_0.png","C_Dist_200_LN_4_LD_10_RN_3_RD_15_0.png","C_Dist_200_LN_4_LD_8_RN_3_RD_10_0.png","C_Dist_200_LN_6_LD_15_RN_3_RD_15_0.png","C_Dist_200_LN_7_LD_21_RN_2_RD_15_0.png","C_Dist_200_LN_8_LD_15_RN_2_RD_6_0.png","C_Dist_200_LN_8_LD_15_RN_3_RD_9_0.png","C_Dist_200_LN_8_LD_15_RN_7_RD_21_0.png","C_Dist_200_LN_9_LD_20_RN_4_RD_16_0.png"],["C_Dist_200_LN_1_LD_2_RN_21_RD_30_1.png","C_Dist_200_LN_13_LD_26_RN_14_RD_20_1.png","C_Dist_200_LN_3_LD_10_RN_11_RD_22_1.png","C_Dist_200_LN_3_LD_10_RN_14_RD_28_1.png","C_Dist_200_LN_3_LD_10_RN_7_RD_14_1.png","C_Dist_200_LN_3_LD_12_RN_9_RD_20_1.png","C_Dist_200_LN_3_LD_6_RN_14_RD_20_1.png","C_Dist_200_LN_5_LD_10_RN_14_RD_20_1.png","C_Dist_200_LN_6_LD_12_RN_7_RD_10_1.png","C_Dist_200_LN_6_LD_20_RN_11_RD_22_1.png","C_Dist_200_LN_7_LD_15_RN_18_RD_27_1.png","C_Dist_200_LN_9_LD_30_RN_13_RD_26_1.png"]],"dist200_I":[["I_Dist_200_LN_1_LD_2_RN_3_RD_10_0.png","I_Dist_200_LN_1_LD_3_RN_2_RD_15_0.png","I_Dist_200_LN_3_LD_4_RN_11_RD_20_0.png","I_Dist_200_LN_4_LD_5_RN_6_RD_10_0.png","I_Dist_200_LN_4_LD_6_RN_14_RD_30_0.png","I_Dist_200_LN_7_LD_10_RN_12_RD_24_0.png","I_Dist_200_LN_7_LD_10_RN_14_RD_28_0.png","I_Dist_200_LN_7_LD_10_RN_8_RD_16_0.png"],["I_Dist_200_LN_11_LD_20_RN_3_RD_4_1.png","I_Dist_200_LN_14_LD_30_RN_12_RD_18_1.png","I_Dist_200_LN_14_LD_30_RN_6_RD_9_1.png","I_Dist_200_LN_3_LD_10_RN_1_RD_2_1.png","I_Dist_200_LN_4_LD_30_RN_1_RD_3_1.png","I_Dist_200_LN_6_LD_20_RN_3_RD_6_1.png","I_Dist_200_LN_7_LD_15_RN_4_RD_6_1.png","I_Dist_200_LN_7_LD_15_RN_6_RD_9_1.png","I_Dist_200_LN_9_LD_15_RN_8_RD_10_1.png"]],"dist200_S":[["E_Dist_200_LN_3_LD_6_RN_3_RD_10_0.png"],["E_Dist_200_LN_3_LD_10_RN_3_RD_6_1.png"]],"dist300_C":[["C_Dist_300_LN_11_LD_22_RN_1_RD_5_0.png","C_Dist_300_LN_11_LD_22_RN_2_RD_10_0.png","C_Dist_300_LN_11_LD_22_RN_4_RD_20_0.png","C_Dist_300_LN_12_LD_24_RN_2_RD_10_0.png","C_Dist_300_LN_18_LD_20_RN_9_RD_15_0.png","C_Dist_300_LN_20_LD_25_RN_13_RD_26_0.png","C_Dist_300_LN_20_LD_25_RN_14_RD_28_0.png","C_Dist_300_LN_20_LD_25_RN_5_RD_10_0.png","C_Dist_300_LN_20_LD_25_RN_8_RD_16_0.png","C_Dist_300_LN_20_LD_25_RN_9_RD_18_0.png","C_Dist_300_LN_24_LD_30_RN_2_RD_4_0.png","C_Dist_300_LN_24_LD_30_RN_8_RD_16_0.png","C_Dist_300_LN_3_LD_6_RN_2_RD_10_0.png","C_Dist_300_LN_4_LD_10_RN_1_RD_10_0.png","C_Dist_300_LN_4_LD_5_RN_2_RD_4_0.png","C_Dist_300_LN_8_LD_16_RN_1_RD_5_0.png","C_Dist_300_LN_9_LD_10_RN_3_RD_5_0.png"],["C_Dist_300_LN_1_LD_20_RN_7_RD_20_1.png","C_Dist_300_LN_1_LD_3_RN_19_RD_30_1.png","C_Dist_300_LN_1_LD_30_RN_8_RD_24_1.png","C_Dist_300_LN_1_LD_5_RN_11_RD_22_1.png","C_Dist_300_LN_1_LD_5_RN_3_RD_6_1.png","C_Dist_300_LN_1_LD_5_RN_6_RD_12_1.png","C_Dist_300_LN_2_LD_10_RN_12_RD_24_1.png","C_Dist_300_LN_2_LD_20_RN_10_RD_25_1.png","C_Dist_300_LN_3_LD_12_RN_11_RD_20_1.png","C_Dist_300_LN_3_LD_6_RN_4_RD_5_1.png","C_Dist_300_LN_4_LD_20_RN_13_RD_26_1.png","C_Dist_300_LN_5_LD_25_RN_6_RD_12_1.png","C_Dist_300_LN_5_LD_25_RN_7_RD_14_1.png","C_Dist_300_LN_7_LD_14_RN_20_RD_25_1.png","C_Dist_300_LN_8_LD_15_RN_10_RD_12_1.png"]],"dist300_I":[["I_Dist_300_LN_1_LD_2_RN_2_RD_10_0.png","I_Dist_300_LN_1_LD_2_RN_3_RD_15_0.png","I_Dist_300_LN_2_LD_4_RN_6_RD_30_0.png","I_Dist_300_LN_3_LD_6_RN_4_RD_20_0.png","I_Dist_300_LN_4_LD_5_RN_6_RD_12_0.png","I_Dist_300_LN_4_LD_5_RN_8_RD_16_0.png","I_Dist_300_LN_7_LD_10_RN_8_RD_20_0.png","I_Dist_300_LN_8_LD_10_RN_14_RD_28_0.png","I_Dist_300_LN_8_LD_10_RN_9_RD_18_0.png"],["I_Dist_300_LN_13_LD_26_RN_12_RD_15_1.png","I_Dist_300_LN_4_LD_20_RN_2_RD_4_1.png"]],"dist300_S":[["E_Dist_300_LN_9_LD_12_RN_9_RD_20_0.png"],["E_Dist_300_LN_18_LD_30_RN_18_RD_20_1.png","E_Dist_300_LN_3_LD_10_RN_3_RD_5_1.png","E_Dist_300_LN_9_LD_20_RN_9_RD_12_1.png"]],"dist500_C":[["C_Dist_500_LN_10_LD_13_RN_7_RD_26_0.png","C_Dist_500_LN_10_LD_15_RN_4_RD_24_0.png","C_Dist_500_LN_12_LD_16_RN_3_RD_12_0.png","C_Dist_500_LN_12_LD_18_RN_4_RD_24_0.png","C_Dist_500_LN_15_LD_18_RN_5_RD_15_0.png","C_Dist_500_LN_15_LD_20_RN_1_RD_4_0.png","C_Dist_500_LN_18_LD_27_RN_1_RD_6_0.png","C_Dist_500_LN_20_LD_24_RN_1_RD_3_0.png","C_Dist_500_LN_20_LD_24_RN_3_RD_9_0.png","C_Dist_500_LN_20_LD_24_RN_7_RD_21_0.png","C_Dist_500_LN_20_LD_28_RN_3_RD_14_0.png","C_Dist_500_LN_21_LD_28_RN_6_RD_24_0.png","C_Dist_500_LN_22_LD_28_RN_2_RD_7_0.png","C_Dist_500_LN_25_LD_30_RN_9_RD_27_0.png","C_Dist_500_LN_4_LD_6_RN_1_RD_6_0.png","C_Dist_500_LN_5_LD_6_RN_2_RD_6_0.png","C_Dist_500_LN_6_LD_9_RN_1_RD_6_0.png","C_Dist_500_LN_7_LD_10_RN_1_RD_5_0.png","C_Dist_500_LN_8_LD_12_RN_1_RD_6_0.png","C_Dist_500_LN_8_LD_12_RN_4_RD_24_0.png"],["C_Dist_500_LN_1_LD_4_RN_12_RD_16_1.png","C_Dist_500_LN_1_LD_4_RN_9_RD_12_1.png","C_Dist_500_LN_1_LD_9_RN_11_RD_18_1.png","C_Dist_500_LN_10_LD_24_RN_22_RD_24_1.png","C_Dist_500_LN_2_LD_12_RN_10_RD_15_1.png","C_Dist_500_LN_2_LD_12_RN_12_RD_18_1.png","C_Dist_500_LN_2_LD_12_RN_4_RD_6_1.png","C_Dist_500_LN_2_LD_24_RN_7_RD_12_1.png","C_Dist_500_LN_2_LD_5_RN_18_RD_20_1.png","C_Dist_500_LN_2_LD_5_RN_9_RD_10_1.png","C_Dist_500_LN_2_LD_8_RN_12_RD_16_1.png","C_Dist_500_LN_2_LD_8_RN_21_RD_28_1.png","C_Dist_500_LN_3_LD_10_RN_4_RD_5_1.png","C_Dist_500_LN_3_LD_12_RN_15_RD_20_1.png","C_Dist_500_LN_3_LD_30_RN_6_RD_10_1.png","C_Dist_500_LN_3_LD_8_RN_14_RD_16_1.png","C_Dist_500_LN_4_LD_16_RN_15_RD_20_1.png","C_Dist_500_LN_4_LD_24_RN_12_RD_18_1.png","C_Dist_500_LN_5_LD_14_RN_6_RD_7_1.png","C_Dist_500_LN_7_LD_21_RN_20_RD_24_1.png","C_Dist_500_LN_7_LD_28_RN_12_RD_16_1.png","C_Dist_500_LN_7_LD_28_RN_9_RD_12_1.png","C_Dist_500_LN_9_LD_27_RN_20_RD_24_1.png"]],"dist500_I":[["I_Dist_500_LN_2_LD_3_RN_4_RD_24_0.png","I_Dist_500_LN_5_LD_6_RN_6_RD_18_0.png","I_Dist_500_LN_7_LD_8_RN_9_RD_24_0.png"],["I_Dist_500_LN_7_LD_21_RN_5_RD_6_1.png"]],"dist500_S":[["E_Dist_500_LN_6_LD_8_RN_6_RD_24_0.png"],["E_Dist_500_LN_2_LD_12_RN_2_RD_3_1.png","E_Dist_500_LN_6_LD_24_RN_6_RD_8_1.png"]]}},{"start_time":1552327302333,"click_time":1552327304991,"finger_time":1552327304151,"fix_duration":618.1393464127691,"trial":1,"RT":1818,"MT":840,"sideResp":1,"stimulus":[],"xmouse":[812,812,812,812,812,812,812,812,812,812,812,812,812,812,812,812,812,812,812,812,812,812,812,812,812,812,812,812,812,812,812,812,812,812,812,812,812,812,812,812,812,812,812,812,812,812,812,812,812,812,812,812,812,812,812,812,812,812,812,812,812,812,812,812,812,812,812,812,812,812,812,812,812,812,812,812,812,812,814,816,819,822,822,823,823,824,823,822,817,813,807,800,785,782,779,776,769,765,762,757,757,756,753,750,743,738,725,715,714,708,703,695,669,648,631,611,593,576,572,569,567,565,559,556,553,550,546,544,543,542,539,536,528,523],"ymouse":[535,535,535,535,535,535,535,535,535,535,535,535,535,535,535,535,535,535,535,535,535,535,535,535,535,535,535,535,535,535,535,535,535,535,535,535,535,535,535,535,535,535,535,535,535,535,535,535,535,535,535,535,535,535,535,535,535,535,535,535,535,535,535,535,535,535,535,535,535,535,535,535,535,535,535,535,535,535,535,535,535,534,534,533,533,533,528,522,505,494,483,469,444,438,432,427,415,404,398,387,382,376,354,339,317,288,235,205,196,187,177,167,140,126,113,102,92,84,83,83,83,84,85,85,85,85,85,85,85,85,85,85,84,83],"timestamp_mouse":[2,18,39,58,78,99,119,138,158,179,199,219,239,258,278,298,319,339,358,378,398,418,439,459,478,499,519,538,558,579,598,619,638,659,679,698,718,739,759,779,799,819,839,858,878,899,919,939,959,978,999,1018,1038,1059,1078,1098,1119,1139,1158,1178,1199,1219,1238,1258,1278,1299,1319,1338,1359,1379,1398,1418,1439,1458,1479,1498,1519,1539,1559,1579,1599,1619,1638,1658,1679,1699,1719,1739,1758,1779,1798,1818,1839,1859,1878,1898,1919,1938,1958,1978,1998,2018,2038,2058,2078,2099,2119,2138,2158,2179,2199,2219,2239,2258,2278,2299,2319,2338,2358,2378,2399,2418,2438,2459,2479,2498,2518,2538,2559,2578,2598,2619,2639,2658],"xSR":741.5,"ySR":469.95,"xT1":424.9,"yT1":0,"xT2":1058.1,"yT2":0,"toosoon":0,"cond_shown":"Incongruent","ratio_trial":100,"L_num":10,"L_den":25,"R_num":9,"R_den":18,"correct_side":2,"subjID":"luciavelez14","gender":"1","school":"4","age":"9"},{"start_time":1552327315983,"click_time":1552327317632,"finger_time":1552327316932,"fix_duration":989.4923898983101,"trial":2,"RT":949,"MT":700,"sideResp":2,"stimulus":[],"xmouse":[804,804,804,804,804,804,804,804,804,804,804,804,803,803,803,803,803,803,803,803,803,803,803,803,803,803,802,802,802,802,802,802,802,802,802,802,802,801,801,801,801,801,801,801,801,809,822,842,864,891,919,920,920,920,921,933,941,945,948,948,949,950,955,963,970,997,1009,1019,1026,1040,1064,1078,1091,1099,1102,1105,1110,1113,1117,1123,1124,1127,1127],"ymouse":[511,511,511,511,511,511,511,511,511,511,511,511,511,511,511,511,511,511,511,511,511,511,511,511,511,511,511,511,511,511,511,511,511,511,511,511,511,511,511,511,511,511,511,511,511,505,497,484,469,452,433,433,433,433,433,430,424,420,414,411,407,405,402,399,394,380,371,362,355,345,338,336,332,327,325,315,307,299,286,255,220,113,42],"timestamp_mouse":[9,35,49,69,89,108,129,149,168,189,208,229,249,268,288,308,328,348,369,388,408,428,449,469,489,509,528,550,569,588,609,629,648,668,688,708,728,748,768,788,809,828,849,869,888,908,928,949,969,988,1009,1030,1048,1068,1090,1108,1128,1148,1168,1188,1208,1228,1249,1268,1289,1309,1329,1348,1369,1388,1408,1429,1449,1469,1488,1508,1528,1549,1568,1589,1608,1629,1648],"xSR":741.5,"ySR":469.95,"xT1":424.9,"yT1":0,"xT2":1058.1,"yT2":0,"toosoon":0,"cond_shown":"Congruent","ratio_trial":100,"L_num":2,"L_den":5,"R_num":11,"R_den":22,"correct_side":2,"subjID":"luciavelez14","gender":"1","school":"4","age":"9"},{"start_time":1552327325545,"click_time":1552327326432,"finger_time":1552327326294,"fix_duration":250,"trial":3,"RT":749,"MT":138,"sideResp":1,"stimulus":[],"xmouse":[783,782,781,781,780,780,780,780,780,780,780,780,780,780,780,780,780,780,780,780,780,780,780,780,780,780,780,780,780,780,780,780,780,780,775,770,748,741,695,676,654,631,595,559,506],"ymouse":[523,522,522,522,522,522,522,522,522,522,522,522,522,522,522,522,522,522,522,522,522,522,522,522,522,522,522,522,522,522,522,522,522,522,517,511,483,472,387,344,295,238,184,135,77],"timestamp_mouse":[10,28,49,68,88,107,128,148,167,188,207,229,249,268,288,308,327,347,367,387,407,429,447,468,487,509,529,547,569,587,609,628,648,669,687,708,728,749,767,787,808,828,847,867,887],"xSR":741.5,"ySR":469.95,"xT1":424.9,"yT1":0,"xT2":1058.1,"yT2":0,"toosoon":0,"cond_shown":"Congruent","ratio_trial":300,"L_num":11,"L_den":22,"R_num":1,"R_den":5,"correct_side":1,"subjID":"luciavelez14","gender":"1","school":"4","age":"9"},{"start_time":1552327331330,"click_time":1552327332573,"finger_time":1552327331873,"fix_duration":914.6760392206315,"trial":4,"RT":543,"MT":700,"sideResp":2,"stimulus":[],"xmouse":[806,806,806,806,806,806,805,805,805,805,804,804,804,804,804,803,802,802,802,802,802,801,800,800,800,799,802,808,816,829,853,864,876,885,897,912,916,922,925,929,940,947,953,959,963,975,980,983,985,987,990,995,1001,1011,1021,1038,1043,1047,1050,1051,1056,1058,1061],"ymouse":[526,526,526,526,526,526,526,526,526,526,526,526,526,526,526,526,526,526,526,526,526,524,522,518,513,491,481,467,451,432,389,366,339,317,293,265,257,246,238,229,203,186,172,156,140,104,94,85,80,78,77,77,77,77,75,66,62,60,58,57,54,53,52],"timestamp_mouse":[15,29,43,63,84,104,122,142,162,182,203,223,243,263,283,302,323,343,363,384,404,423,443,463,483,504,524,543,563,584,603,624,643,664,683,702,722,742,762,782,804,824,842,862,883,903,922,942,963,983,1003,1024,1043,1063,1083,1102,1123,1144,1163,1183,1203,1223,1243],"xSR":741.5,"ySR":469.95,"xT1":424.9,"yT1":0,"xT2":1058.1,"yT2":0,"toosoon":0,"cond_shown":"Congruent","ratio_trial":100,"L_num":7,"L_den":14,"R_num":15,"R_den":25,"correct_side":2,"subjID":"luciavelez14","gender":"1","school":"4","age":"9"},{"start_time":1552327338025,"click_time":1552327339752,"finger_time":1552327338793,"fix_duration":990.3890778200457,"trial":5,"RT":768,"MT":959,"sideResp":2,"stimulus":[],"xmouse":[784,784,784,784,784,784,784,784,784,784,784,784,784,784,784,784,784,784,784,784,784,784,784,784,784,784,784,784,784,784,784,784,783,781,778,773,770,770,770,772,775,776,777,777,777,777,777,792,807,832,910,956,1002,1047,1093,1167,1187,1218,1238,1249,1259,1267,1269,1269,1269,1269,1265,1250,1230,1208,1189,1176,1176,1176,1176,1176,1176,1176,1175,1175,1175,1175,1173,1172,1168,1162,1150],"ymouse":[537,537,537,537,537,537,537,537,537,537,537,537,537,537,537,537,537,537,537,536,533,531,530,528,527,526,524,523,518,516,513,512,508,503,496,485,477,471,466,462,454,449,447,446,444,439,433,416,402,382,316,277,236,199,158,94,75,54,45,40,38,36,35,35,34,33,28,24,22,19,19,19,19,19,19,19,19,19,19,20,21,23,25,27,29,32,40],"timestamp_mouse":[12,36,47,69,89,107,129,148,168,188,207,228,248,269,288,308,329,347,367,388,408,428,448,468,488,509,528,547,568,588,608,628,648,667,688,708,727,748,768,787,809,828,849,869,888,908,927,949,967,987,1011,1027,1048,1067,1088,1109,1128,1147,1169,1187,1209,1228,1247,1267,1288,1308,1328,1348,1367,1389,1407,1428,1449,1468,1487,1508,1527,1547,1568,1589,1608,1628,1648,1668,1687,1708,1727],"xSR":741.5,"ySR":469.95,"xT1":424.9,"yT1":0,"xT2":1058.1,"yT2":0,"toosoon":0,"cond_shown":"Incongruent","ratio_trial":200,"L_num":1,"L_den":2,"R_num":3,"R_den":10,"correct_side":1,"subjID":"luciavelez14","gender":"1","school":"4","age":"9"},{"start_time":1552327349064,"click_time":1552327351073,"finger_time":1552327350453,"fix_duration":250,"trial":6,"RT":1389,"MT":620,"sideResp":1,"stimulus":[],"xmouse":[797,797,797,796,796,795,795,795,795,795,795,795,795,795,795,795,795,795,795,795,795,795,795,795,795,795,795,795,795,795,795,795,795,795,795,795,795,795,795,795,795,795,795,795,795,795,795,795,795,795,795,795,795,795,795,795,795,795,795,795,795,795,795,795,795,795,788,777,758,715,657,644,638,638,638,639,639,639,639,638,614,590,559,518,478,415,400,391,389,389,390,393,396,399,402,405,406,407,408,415,425],"ymouse":[507,507,507,508,508,508,508,508,508,508,508,508,508,508,508,508,508,508,508,508,508,508,508,508,508,508,508,508,508,508,508,508,508,508,508,508,508,508,508,508,508,508,508,508,508,508,508,508,508,508,508,508,508,508,508,508,508,508,508,508,508,508,508,508,508,508,510,510,500,463,391,356,324,309,296,285,285,285,285,279,255,239,216,187,155,107,92,81,78,77,74,73,73,72,72,72,71,71,71,71,72],"timestamp_mouse":[15,39,49,70,88,108,128,149,168,189,210,228,248,269,290,308,329,349,370,389,408,428,449,469,488,510,529,549,570,590,610,628,648,668,689,708,728,749,769,790,809,828,849,870,888,910,930,949,968,989,1008,1028,1048,1068,1088,1109,1129,1149,1169,1188,1210,1228,1249,1269,1290,1309,1329,1349,1370,1389,1408,1428,1448,1468,1488,1509,1529,1548,1568,1589,1609,1630,1650,1670,1690,1708,1729,1749,1768,1790,1808,1829,1850,1869,1890,1908,1929,1949,1969,1989,2008],"xSR":741.5,"ySR":469.95,"xT1":424.9,"yT1":0,"xT2":1058.1,"yT2":0,"toosoon":0,"cond_shown":"Congruent","ratio_trial":200,"L_num":6,"L_den":15,"R_num":3,"R_den":15,"correct_side":1,"subjID":"luciavelez14","gender":"1","school":"4","age":"9"},{"start_time":1552327356065,"click_time":1552327357853,"finger_time":1552327356733,"fix_duration":670.6924030515578,"trial":7,"RT":668,"MT":1120,"sideResp":1,"stimulus":[],"xmouse":[801,801,801,801,801,801,801,801,801,801,801,801,801,801,801,801,801,801,801,801,801,801,801,801,801,801,801,801,801,801,802,814,826,843,869,897,935,955,965,976,982,994,998,1003,1004,1009,1009,1010,1010,1010,1010,1011,1014,1018,1025,1030,1044,1053,1059,1066,1078,1081,1083,1084,1084,1084,1084,1084,1083,1082,1079,1076,1074,1072,1069,1067,1062,1060,1057,1053,1049,1023,995,948,870,783,596,565,527,507],"ymouse":[539,539,539,539,539,539,539,539,539,539,539,539,539,539,539,539,539,539,539,539,539,539,539,539,539,538,537,536,535,534,532,520,506,490,467,440,395,368,353,341,331,316,306,293,282,259,248,242,238,235,230,229,225,223,217,208,189,175,167,159,137,127,119,115,114,113,113,113,114,115,120,123,125,129,132,137,145,148,150,151,153,154,154,146,125,102,48,33,18,11],"timestamp_mouse":[10,27,47,67,88,109,127,147,168,189,207,228,247,269,287,308,328,349,367,389,409,427,449,469,488,508,528,547,568,588,608,628,648,668,689,708,728,748,767,788,807,828,848,867,888,910,927,948,969,987,1011,1028,1048,1069,1088,1107,1127,1149,1169,1188,1209,1227,1248,1269,1288,1309,1328,1347,1368,1387,1409,1427,1448,1469,1489,1508,1528,1547,1567,1587,1609,1628,1648,1667,1687,1707,1727,1748,1769,1788],"xSR":741.5,"ySR":469.95,"xT1":424.9,"yT1":0,"xT2":1058.1,"yT2":0,"toosoon":0,"cond_shown":"Incongruent","ratio_trial":200,"L_num":1,"L_den":2,"R_num":3,"R_den":10,"correct_side":1,"subjID":"luciavelez14","gender":"1","school":"4","age":"9"},{"start_time":1552327362416,"click_time":1552327364374,"finger_time":1552327363532,"fix_duration":422.1613574745087,"trial":8,"RT":1116,"MT":842,"sideResp":1,"stimulus":[],"xmouse":[805,805,805,805,805,805,805,805,805,805,804,804,804,804,804,803,803,803,802,802,802,802,802,802,802,802,802,802,802,802,802,802,802,802,802,802,802,802,802,802,802,802,802,802,802,802,802,802,802,802,802,801,798,789,783,774,763,763,760,760,760,760,760,760,760,760,760,760,760,760,760,760,760,760,760,760,641,632,614,608,604,600,597,593,585,580,578,578,577,577,574,568,558,547,541,536,529,517],"ymouse":[517,517,517,518,518,518,518,518,518,518,518,518,518,519,519,521,521,521,522,522,522,523,523,523,523,523,523,524,525,525,525,525,525,525,525,525,525,525,525,525,525,525,525,525,525,525,525,525,525,525,524,521,515,496,475,436,322,224,55,20,20,20,20,20,20,20,20,20,20,20,20,20,20,20,20,20,0,8,23,29,33,38,40,40,40,40,40,40,40,40,40,40,40,40,40,43,46,51],"timestamp_mouse":[17,50,56,77,98,117,136,157,176,197,217,237,257,277,297,316,337,357,377,398,418,437,457,476,497,516,537,557,578,596,617,638,656,676,697,717,736,756,777,797,817,837,858,876,897,917,937,957,977,998,1017,1037,1058,1077,1096,1116,1137,1158,1177,1196,1217,1237,1256,1278,1297,1316,1337,1357,1377,1397,1417,1437,1458,1478,1498,1516,1537,1556,1578,1597,1616,1636,1656,1676,1698,1716,1736,1756,1779,1797,1818,1838,1858,1877,1897,1917,1937,1958],"xSR":741.5,"ySR":469.95,"xT1":424.9,"yT1":0,"xT2":1058.1,"yT2":0,"toosoon":0,"cond_shown":"Congruent","ratio_trial":300,"L_num":20,"L_den":25,"R_num":13,"R_den":26,"correct_side":1,"subjID":"luciavelez14","gender":"1","school":"4","age":"9"},{"start_time":1552327369157,"click_time":1552327370173,"finger_time":1552327369853,"fix_duration":402.1955175738521,"trial":9,"RT":696,"MT":320,"sideResp":1,"stimulus":[],"xmouse":[773,773,773,773,773,773,773,773,773,773,773,773,773,773,773,773,773,773,773,773,773,773,773,773,773,773,773,773,773,773,773,773,773,765,730,709,600,513,502,500,499,501,506,507,509,511,514,519,520,520,520],"ymouse":[534,534,534,534,534,534,534,534,534,534,534,534,534,534,534,534,534,534,534,534,534,534,534,534,534,534,534,534,534,534,534,534,533,528,502,481,381,277,248,216,189,169,142,132,126,120,115,107,104,100,97],"timestamp_mouse":[15,49,57,76,97,115,135,157,175,196,217,237,256,276,295,316,337,356,375,396,417,436,455,475,497,517,536,556,575,596,615,637,656,676,696,716,735,756,776,796,816,837,856,876,896,917,936,956,976,996,1016],"xSR":741.5,"ySR":469.95,"xT1":424.9,"yT1":0,"xT2":1058.1,"yT2":0,"toosoon":0,"cond_shown":"Incongruent","ratio_trial":100,"L_num":8,"L_den":20,"R_num":1,"R_den":2,"correct_side":2,"subjID":"luciavelez14","gender":"1","school":"4","age":"9"},{"start_time":1552327377048,"click_time":1552327378433,"finger_time":1552327377572,"fix_duration":494.9462601370042,"trial":10,"RT":524,"MT":861,"sideResp":2,"stimulus":[],"xmouse":[784,784,784,784,784,784,784,784,784,784,784,784,784,784,784,784,784,784,784,784,784,784,784,786,789,792,797,801,809,823,833,842,851,859,864,864,862,859,856,856,856,854,851,850,849,856,867,884,914,947,957,962,964,965,969,975,985,1002,1010,1031,1033,1034,1034,1035,1038,1041,1044,1049,1056,1063],"ymouse":[542,542,542,542,542,542,542,542,540,539,539,539,539,539,539,539,539,538,537,530,525,518,510,501,481,474,461,453,439,409,391,374,356,342,322,320,318,318,318,318,318,314,307,300,283,269,253,234,208,181,169,162,158,156,150,145,140,131,128,115,110,104,99,94,83,78,71,63,54,46],"timestamp_mouse":[10,37,44,65,86,104,125,146,165,184,204,225,244,264,284,305,326,344,364,384,405,425,446,465,484,505,524,544,565,584,606,625,644,665,685,704,724,745,766,785,806,825,845,865,884,904,925,945,966,985,1004,1024,1045,1065,1084,1104,1125,1144,1165,1184,1204,1225,1245,1265,1284,1305,1326,1345,1365,1384],"xSR":741.5,"ySR":469.95,"xT1":424.9,"yT1":0,"xT2":1058.1,"yT2":0,"toosoon":0,"cond_shown":"Incongruent","ratio_trial":100,"L_num":6,"L_den":12,"R_num":3,"R_den":5,"correct_side":2,"subjID":"luciavelez14","gender":"1","school":"4","age":"9"},{"start_time":1552327386824,"click_time":1552327388376,"finger_time":1552327387495,"fix_duration":1468.3902819349264,"trial":11,"RT":671,"MT":881,"sideResp":2,"stimulus":[],"xmouse":[804,804,804,804,804,804,804,804,804,804,804,804,804,804,804,804,804,804,804,804,804,804,804,804,804,804,804,804,804,806,808,827,838,850,869,907,951,967,981,996,1011,1055,1075,1112,1122,1152,1175,1185,1192,1198,1200,1202,1203,1204,1204,1206,1210,1211,1211,1211,1210,1207,1206,1206,1204,1199,1194,1192,1190,1185,1180,1171,1167,1166,1165,1164,1157,1153],"ymouse":[529,529,529,529,529,529,529,529,529,529,529,529,529,529,529,529,529,529,529,529,529,529,529,529,529,529,529,529,529,528,528,526,524,523,517,507,488,477,464,451,436,400,380,349,338,310,287,276,269,262,257,243,235,223,199,186,158,146,139,133,129,124,123,122,121,119,117,117,117,116,116,114,112,112,110,109,103,99],"timestamp_mouse":[13,37,51,71,90,111,132,151,172,191,210,232,251,271,291,310,330,352,370,390,411,431,450,472,491,511,530,551,571,592,611,630,651,671,691,710,731,750,771,791,810,831,850,871,891,912,931,952,970,991,1010,1031,1050,1071,1091,1112,1131,1151,1171,1192,1212,1231,1250,1272,1291,1310,1331,1350,1371,1390,1411,1431,1451,1471,1491,1511,1531,1552],"xSR":741.5,"ySR":469.95,"xT1":424.9,"yT1":0,"xT2":1058.1,"yT2":0,"toosoon":0,"cond_shown":"Incongruent","ratio_trial":100,"L_num":11,"L_den":22,"R_num":9,"R_den":15,"correct_side":2,"subjID":"luciavelez14","gender":"1","school":"4","age":"9"},{"start_time":1552327393074,"click_time":1552327394595,"finger_time":1552327394055,"fix_duration":338.3607729549968,"trial":12,"RT":981,"MT":540,"sideResp":1,"stimulus":[],"xmouse":[799,798,798,798,798,798,798,797,797,797,795,795,795,794,793,792,792,792,792,792,792,792,792,792,792,792,792,792,792,792,792,792,792,792,792,792,792,792,791,791,791,790,789,787,784,777,772,763,754,740,723,719,716,713,707,690,672,657,639,618,593,584,576,567,560,543,534,530,528,528,528,528,528,528,528,527,524],"ymouse":[525,525,525,525,525,525,525,525,525,525,525,525,525,525,525,525,525,525,525,525,525,525,525,525,525,525,525,525,525,525,525,525,525,525,525,525,525,525,525,525,525,524,524,522,520,514,509,501,491,467,426,405,384,371,353,306,277,255,229,197,166,155,143,131,121,98,88,81,80,80,80,80,80,80,79,79,79],"timestamp_mouse":[1,28,51,61,81,101,121,141,162,181,200,220,242,262,281,300,322,341,360,381,401,420,441,460,481,502,521,541,562,580,602,622,641,660,680,701,720,740,761,780,802,822,841,862,880,900,921,942,962,981,1000,1020,1040,1060,1081,1101,1120,1141,1160,1181,1200,1221,1242,1261,1280,1301,1321,1341,1360,1381,1402,1422,1441,1461,1482,1500,1521],"xSR":741.5,"ySR":469.95,"xT1":424.9,"yT1":0,"xT2":1058.1,"yT2":0,"toosoon":0,"cond_shown":"Incongruent","ratio_trial":100,"L_num":9,"L_den":15,"R_num":14,"R_den":28,"correct_side":1,"subjID":"luciavelez14","gender":"1","school":"4","age":"9"},{"start_time":1552327400397,"click_time":1552327401974,"finger_time":1552327401236,"fix_duration":1241.9239930298033,"trial":13,"RT":839,"MT":738,"sideResp":1,"stimulus":[],"xmouse":[781,781,781,781,781,781,781,781,781,781,781,781,781,781,781,781,781,781,781,781,781,781,781,781,781,781,781,781,781,781,781,781,781,781,781,781,783,784,786,786,783,782,773,762,738,730,727,727,727,730,733,736,736,731,727,723,717,707,697,647,628,611,597,585,568,564,557,553,551,548,548,547,547,547,546,541,536,527,519],"ymouse":[521,521,521,522,522,522,522,522,522,522,522,522,522,522,522,522,522,522,522,522,522,522,522,522,522,522,522,522,522,522,522,522,522,522,523,523,523,523,517,491,472,453,428,384,329,309,294,288,282,268,254,240,228,204,196,192,190,187,185,169,160,154,147,142,134,132,129,126,123,114,111,110,110,110,109,107,105,99,95],"timestamp_mouse":[23,42,58,77,99,118,137,157,177,199,218,238,257,279,297,317,337,357,377,398,418,437,457,477,497,518,537,558,577,598,617,637,659,678,698,718,738,759,778,797,817,839,859,879,897,918,937,958,977,998,1018,1037,1058,1079,1097,1119,1137,1158,1178,1197,1217,1237,1258,1277,1298,1319,1337,1358,1377,1397,1418,1437,1459,1478,1498,1518,1537,1559,1577],"xSR":741.5,"ySR":469.95,"xT1":424.9,"yT1":0,"xT2":1058.1,"yT2":0,"toosoon":0,"cond_shown":"Congruent","ratio_trial":100,"L_num":1,"L_den":2,"R_num":18,"R_den":30,"correct_side":2,"subjID":"luciavelez14","gender":"1","school":"4","age":"9"},{"start_time":1552327413916,"click_time":1552327415135,"finger_time":1552327414275,"fix_duration":1118.8840018193032,"trial":14,"RT":359,"MT":860,"sideResp":1,"stimulus":[],"xmouse":[781,781,781,781,781,781,781,781,781,781,783,790,799,805,812,818,819,823,825,828,829,829,829,829,829,829,829,829,829,829,829,829,829,827,823,820,824,837,852,882,910,918,928,936,944,953,962,966,966,966,966,961,948,926,904,835,796,754,695,653,561,518],"ymouse":[515,515,515,515,515,515,515,515,515,515,512,511,506,503,498,488,483,472,463,457,448,445,445,445,445,445,445,445,444,442,441,432,426,417,405,376,360,341,324,300,279,271,265,258,254,250,246,244,243,243,243,241,236,226,214,174,152,130,102,86,63,45],"timestamp_mouse":[1,20,39,59,79,99,118,139,158,180,199,219,239,259,279,299,319,338,359,380,400,418,439,459,478,498,519,538,558,580,599,619,640,659,679,699,718,740,759,778,799,818,840,859,878,898,919,940,960,979,998,1019,1039,1060,1079,1099,1120,1139,1159,1179,1200,1218],"xSR":741.5,"ySR":469.95,"xT1":424.9,"yT1":0,"xT2":1058.1,"yT2":0,"toosoon":0,"cond_shown":"Incongruent","ratio_trial":200,"L_num":1,"L_den":2,"R_num":3,"R_den":10,"correct_side":1,"subjID":"luciavelez14","gender":"1","school":"4","age":"9"},{"start_time":1552327417620,"click_time":1552327419475,"finger_time":1552327418595,"fix_duration":565.3420706274015,"trial":15,"RT":975,"MT":880,"sideResp":2,"stimulus":[],"xmouse":[786,786,786,786,786,786,786,786,786,786,786,786,786,786,786,786,786,786,786,786,786,786,786,786,786,786,786,786,786,786,786,786,786,786,786,786,786,786,786,786,786,786,788,789,791,805,815,830,852,925,1004,1072,1138,1200,1251,1313,1332,1349,1357,1365,1368,1368,1368,1365,1359,1330,1310,1288,1288,1288,1233,1229,1225,1223,1223,1223,1223,1223,1223,1223,1218,1213,1209,1205,1202,1197,1195,1190,1182,1176,1165,1162,1157],"ymouse":[514,514,514,514,514,514,514,514,514,514,514,514,514,514,514,514,514,514,514,514,514,514,514,514,514,514,514,514,514,514,514,514,514,514,514,514,514,514,514,514,514,514,514,514,514,513,508,500,485,437,382,340,302,265,230,175,141,110,83,61,32,29,28,27,24,13,5,0,0,0,13,21,29,33,37,43,45,45,45,45,46,47,48,49,50,52,52,53,54,56,66,70,74],"timestamp_mouse":[14,47,55,76,95,115,135,156,175,195,214,235,255,276,294,316,335,355,374,396,414,434,456,476,495,515,534,554,574,594,615,634,654,675,694,715,736,754,775,794,815,834,854,876,894,916,936,955,975,996,1015,1035,1054,1074,1095,1115,1135,1156,1175,1194,1215,1234,1254,1274,1295,1315,1335,1355,1375,1395,1416,1435,1456,1476,1495,1515,1534,1555,1575,1596,1616,1635,1655,1676,1695,1715,1734,1755,1776,1794,1814,1835,1855],"xSR":741.5,"ySR":469.95,"xT1":424.9,"yT1":0,"xT2":1058.1,"yT2":0,"toosoon":0,"cond_shown":"Incongruent","ratio_trial":200,"L_num":14,"L_den":30,"R_num":12,"R_den":18,"correct_side":2,"subjID":"luciavelez14","gender":"1","school":"4","age":"9"},{"start_time":1552327422508,"click_time":1552327423835,"finger_time":1552327423174,"fix_duration":1389.996092956122,"trial":16,"RT":666,"MT":661,"sideResp":2,"stimulus":[],"xmouse":[796,796,796,796,796,796,796,796,796,796,796,796,796,796,796,796,796,797,799,800,801,803,803,803,803,803,803,803,803,803,804,811,823,859,911,981,1144,1223,1275,1302,1315,1321,1321,1321,1321,1321,1321,1317,1309,1294,1278,1240,1229,1221,1215,1207,1200,1199,1198,1198,1197,1197,1195,1193,1188,1177,1139],"ymouse":[501,501,501,501,501,501,501,501,501,501,501,501,501,501,501,501,502,504,504,504,504,504,504,504,504,504,504,504,504,504,504,504,496,470,438,405,295,239,190,164,140,123,123,123,122,119,93,74,57,38,27,16,16,16,20,26,33,34,36,38,41,41,44,44,44,44,35],"timestamp_mouse":[18,38,46,66,87,106,126,147,167,187,208,227,247,266,287,306,328,348,367,388,408,427,447,467,487,507,526,547,566,588,608,627,648,666,687,707,727,746,767,787,806,827,847,867,888,908,928,947,966,986,1008,1028,1046,1067,1086,1107,1127,1146,1167,1188,1207,1227,1247,1266,1286,1306,1327],"xSR":741.5,"ySR":469.95,"xT1":424.9,"yT1":0,"xT2":1058.1,"yT2":0,"toosoon":0,"cond_shown":"Congruent","ratio_trial":300,"L_num":24,"L_den":30,"R_num":2,"R_den":4,"correct_side":1,"subjID":"luciavelez14","gender":"1","school":"4","age":"9"},{"start_time":1552327432587,"click_time":1552327434435,"finger_time":1552327433635,"fix_duration":250,"trial":17,"RT":1048,"MT":800,"sideResp":2,"stimulus":[],"xmouse":[804,804,804,804,804,804,804,804,804,804,804,804,804,804,804,804,804,804,804,804,804,804,804,804,804,804,804,804,804,804,804,804,804,804,804,804,804,804,804,804,804,804,804,804,804,804,804,804,806,814,820,827,844,885,908,930,958,974,1032,1068,1095,1116,1129,1136,1137,1137,1137,1137,1138,1150,1158,1162,1165,1168,1169,1173,1175,1179,1191,1197,1202,1206,1206,1206,1197,1195,1191,1189,1183,1174,1167,1161,1153],"ymouse":[550,550,550,550,550,550,550,550,550,550,550,550,550,550,550,550,550,550,550,550,550,550,550,550,550,550,550,550,550,550,550,550,550,550,550,550,550,550,550,550,550,550,550,550,550,550,548,547,545,542,540,536,528,505,486,465,430,410,369,351,339,328,323,318,317,316,313,309,303,280,265,251,234,222,205,196,192,185,163,147,129,115,102,91,73,70,69,69,67,66,65,65,65],"timestamp_mouse":[12,36,48,68,88,107,128,147,168,187,208,229,247,268,287,307,327,347,367,387,407,427,449,467,487,508,527,548,568,588,608,628,648,667,687,708,728,747,767,787,808,827,847,867,887,909,929,948,967,988,1008,1028,1048,1068,1087,1107,1127,1149,1168,1188,1207,1228,1248,1269,1287,1307,1328,1348,1367,1388,1408,1429,1448,1469,1489,1509,1528,1547,1569,1587,1608,1628,1648,1669,1688,1709,1728,1748,1769,1787,1808,1829,1848],"xSR":741.5,"ySR":469.95,"xT1":424.9,"yT1":0,"xT2":1058.1,"yT2":0,"toosoon":0,"cond_shown":"Incongruent","ratio_trial":100,"L_num":9,"L_den":18,"R_num":6,"R_den":10,"correct_side":2,"subjID":"luciavelez14","gender":"1","school":"4","age":"9"},{"start_time":1552327438026,"click_time":1552327438936,"finger_time":1552327438595,"fix_duration":648.3855915411605,"trial":18,"RT":569,"MT":341,"sideResp":2,"stimulus":[],"xmouse":[799,799,799,799,799,799,799,799,799,799,799,799,799,799,799,799,799,799,799,799,799,799,799,799,800,804,814,841,863,890,921,951,1024,1058,1081,1103,1121,1147,1153,1158,1163,1165,1165,1165,1161,1157],"ymouse":[504,504,504,504,504,504,504,504,504,504,504,504,504,504,504,504,504,504,504,504,504,504,504,504,503,499,491,471,456,436,413,388,315,275,251,226,205,176,163,150,136,119,105,96,86,77],"timestamp_mouse":[14,32,48,68,90,109,129,149,169,189,208,229,248,268,288,309,329,348,369,388,410,429,448,468,488,510,529,549,569,589,609,629,649,669,689,710,728,749,768,789,810,830,849,868,889,909],"xSR":741.5,"ySR":469.95,"xT1":424.9,"yT1":0,"xT2":1058.1,"yT2":0,"toosoon":0,"cond_shown":"Incongruent","ratio_trial":300,"L_num":4,"L_den":20,"R_num":2,"R_den":4,"correct_side":2,"subjID":"luciavelez14","gender":"1","school":"4","age":"9"},{"start_time":1552327443235,"click_time":1552327444634,"finger_time":1552327444056,"fix_duration":1418.7925885241873,"trial":19,"RT":821,"MT":578,"sideResp":2,"stimulus":[],"xmouse":[804,804,804,804,804,804,804,804,804,804,804,804,804,804,804,804,804,804,804,804,804,804,804,804,804,804,803,803,803,803,803,803,803,803,803,804,804,805,809,812,819,830,858,893,930,958,980,1000,1026,1027,1028,1029,1033,1043,1052,1054,1054,1054,1054,1054,1054,1054,1054,1054,1054,1054,1054,1054,1055,1057,1062],"ymouse":[501,501,501,501,501,501,501,501,501,501,501,501,501,501,501,501,501,501,501,501,501,501,501,501,501,501,501,501,500,500,500,500,500,500,499,499,498,496,490,485,474,458,409,355,303,260,211,172,120,110,99,91,85,72,67,64,63,63,63,63,63,63,63,64,66,68,70,71,72,72,72],"timestamp_mouse":[1,19,40,59,80,100,121,140,160,180,199,220,240,260,280,301,320,340,361,379,400,421,441,460,479,500,521,541,560,580,599,621,641,659,679,701,720,739,760,780,800,821,842,859,879,900,920,940,960,980,1001,1020,1039,1061,1079,1101,1121,1140,1160,1179,1200,1219,1239,1260,1281,1299,1319,1341,1359,1379,1399],"xSR":741.5,"ySR":469.95,"xT1":424.9,"yT1":0,"xT2":1058.1,"yT2":0,"toosoon":0,"cond_shown":"Congruent","ratio_trial":300,"L_num":20,"L_den":25,"R_num":8,"R_den":16,"correct_side":1,"subjID":"luciavelez14","gender":"1","school":"4","age":"9"},{"start_time":1552327489485,"click_time":1552327490717,"finger_time":1552327490238,"fix_duration":606.5789228352805,"trial":20,"RT":753,"MT":479,"sideResp":2,"stimulus":[],"xmouse":[797,797,797,797,797,797,797,797,797,797,797,797,797,797,797,797,797,797,797,797,797,797,797,797,797,797,797,797,797,797,797,797,797,797,797,797,805,836,863,891,934,951,961,971,978,998,1007,1019,1029,1037,1055,1058,1060,1060,1060,1060,1061,1063,1066,1069,1075,1078],"ymouse":[512,512,512,512,512,512,512,512,512,512,512,512,512,512,512,512,512,512,512,512,512,512,512,512,512,512,512,512,512,512,512,512,512,512,512,512,494,455,414,375,312,281,260,240,227,193,183,171,160,152,131,125,121,119,119,119,117,116,115,112,100,91],"timestamp_mouse":[12,41,52,72,92,112,132,151,172,193,213,232,252,271,293,313,333,351,373,393,413,432,452,473,493,512,531,551,573,592,612,633,653,672,693,712,732,753,772,793,812,832,853,871,891,912,932,953,972,992,1012,1033,1052,1072,1092,1112,1132,1152,1173,1192,1212,1232],"xSR":741.5,"ySR":469.95,"xT1":424.9,"yT1":0,"xT2":1058.1,"yT2":0,"toosoon":0,"cond_shown":"Incongruent","ratio_trial":200,"L_num":7,"L_den":15,"R_num":4,"R_den":6,"correct_side":2,"subjID":"luciavelez14","gender":"1","school":"4","age":"9"},{"start_time":1552327493574,"click_time":1552327495017,"finger_time":1552327494397,"fix_duration":895.4386805095007,"trial":21,"RT":823,"MT":620,"sideResp":1,"stimulus":[],"xmouse":[790,790,790,790,790,790,790,790,790,790,790,790,790,790,790,790,790,790,790,790,790,790,790,790,790,790,790,790,790,790,790,790,790,790,790,790,790,787,771,760,745,720,706,693,683,679,676,675,674,673,667,645,631,618,602,595,592,592,588,583,576,545,530,513,501,495,483,478,470,466,463,463,463],"ymouse":[545,545,545,545,545,545,545,545,545,545,545,545,545,545,545,545,545,545,545,545,545,545,545,545,545,545,545,545,545,545,545,545,545,545,545,545,545,542,534,527,520,503,494,483,477,474,471,469,464,459,444,400,370,335,297,266,216,193,167,161,153,143,139,132,128,123,119,116,111,106,102,100,95],"timestamp_mouse":[9,25,44,63,84,103,123,144,164,183,204,224,243,264,284,304,323,344,363,383,404,423,442,464,483,503,523,544,564,583,604,624,644,663,684,704,723,744,763,783,803,823,843,863,884,903,924,943,964,983,1004,1024,1042,1064,1083,1104,1125,1143,1164,1183,1204,1224,1243,1263,1284,1303,1325,1343,1363,1383,1403,1422,1442],"xSR":741.5,"ySR":469.95,"xT1":424.9,"yT1":0,"xT2":1058.1,"yT2":0,"toosoon":0,"cond_shown":"Incongruent","ratio_trial":100,"L_num":9,"L_den":10,"R_num":20,"R_den":25,"correct_side":1,"subjID":"luciavelez14","gender":"1","school":"4","age":"9"},{"start_time":1552327500863,"click_time":1552327502577,"finger_time":1552327501938,"fix_duration":1083.9844241344717,"trial":22,"RT":1075,"MT":639,"sideResp":1,"stimulus":[],"xmouse":[786,786,786,786,786,786,786,788,789,791,792,793,794,795,795,796,796,796,796,798,798,799,800,801,801,801,801,801,801,801,801,801,801,801,802,802,802,802,802,802,803,803,803,802,801,801,801,800,798,796,792,788,775,766,754,742,729,719,699,689,675,668,652,645,635,621,608,577,556,545,536,532,526,525,524,520,516,509,501,499,499,498,493,488,478,458],"ymouse":[505,505,506,506,507,507,509,510,511,512,513,514,515,516,516,516,516,516,517,517,518,519,519,520,520,520,520,520,520,520,520,520,520,520,520,520,520,520,520,520,520,520,517,516,515,514,513,511,509,505,499,493,477,469,460,449,439,428,398,384,362,349,323,313,297,277,257,215,185,171,160,155,150,150,150,148,147,143,136,133,131,129,121,113,105,91],"timestamp_mouse":[27,43,54,74,94,114,134,154,175,194,214,234,255,274,295,313,335,355,374,395,414,435,455,474,495,514,535,555,573,595,614,635,653,673,695,715,734,754,775,795,814,833,854,875,895,914,934,953,975,995,1014,1033,1054,1075,1094,1114,1134,1154,1175,1195,1215,1234,1255,1274,1294,1315,1334,1355,1374,1394,1415,1435,1455,1474,1494,1514,1535,1553,1574,1594,1614,1635,1655,1674,1694,1713],"xSR":741.5,"ySR":469.95,"xT1":424.9,"yT1":0,"xT2":1058.1,"yT2":0,"toosoon":0,"cond_shown":"Incongruent","ratio_trial":200,"L_num":7,"L_den":10,"R_num":12,"R_den":24,"correct_side":1,"subjID":"luciavelez14","gender":"1","school":"4","age":"9"},{"start_time":1552327505805,"click_time":1552327507957,"finger_time":1552327507338,"fix_duration":1485.6061686406283,"trial":23,"RT":1533,"MT":619,"sideResp":2,"stimulus":[],"xmouse":[784,784,784,784,784,784,784,784,784,784,784,784,784,784,784,784,784,784,784,784,784,784,784,784,784,784,784,784,784,784,784,784,784,784,784,784,784,784,784,784,784,784,784,784,784,784,784,784,784,784,784,784,784,784,784,784,784,784,784,784,784,784,784,784,784,784,784,784,784,784,786,790,795,803,812,821,846,860,872,880,885,885,886,888,891,895,915,932,955,979,1027,1082,1103,1123,1141,1159,1181,1188,1196,1203,1214,1244,1249,1250,1243,1227,1175,1150],"ymouse":[514,514,514,514,514,514,514,514,514,514,514,514,514,514,514,514,514,514,514,514,514,514,514,514,514,514,514,514,514,514,514,514,514,514,514,514,514,514,514,514,514,514,514,514,514,514,514,514,514,514,514,514,514,514,514,514,514,514,514,514,514,514,514,514,514,514,514,514,514,513,508,497,490,483,477,474,458,443,421,390,343,303,294,290,286,282,277,275,272,268,261,246,234,222,214,205,195,189,182,172,158,116,100,89,78,69,45,32],"timestamp_mouse":[13,39,52,73,92,112,133,153,172,193,213,232,252,273,292,313,332,353,372,392,413,432,453,473,493,513,531,553,573,592,613,631,651,673,693,712,732,753,773,792,813,833,853,872,893,913,932,952,973,992,1012,1032,1052,1072,1093,1113,1133,1152,1172,1193,1212,1233,1252,1272,1292,1313,1333,1352,1372,1391,1413,1432,1452,1473,1493,1512,1533,1553,1573,1593,1612,1632,1652,1672,1693,1713,1732,1752,1773,1792,1812,1831,1853,1872,1893,1911,1933,1952,1973,1992,2013,2032,2052,2073,2093,2112,2132,2152],"xSR":741.5,"ySR":469.95,"xT1":424.9,"yT1":0,"xT2":1058.1,"yT2":0,"toosoon":0,"cond_shown":"Incongruent","ratio_trial":300,"L_num":1,"L_den":2,"R_num":3,"R_den":15,"correct_side":1,"subjID":"luciavelez14","gender":"1","school":"4","age":"9"},{"start_time":1552327511703,"click_time":1552327513557,"finger_time":1552327513238,"fix_duration":804.792488336277,"trial":24,"RT":1535,"MT":319,"sideResp":1,"stimulus":[],"xmouse":[821,821,821,821,821,821,821,821,821,821,821,821,821,821,821,821,821,821,821,821,821,821,821,821,821,821,821,821,821,821,821,821,821,821,821,821,821,821,821,821,821,821,821,821,821,821,821,821,821,821,821,821,821,821,821,821,821,821,821,821,821,821,821,821,821,821,821,821,821,821,821,821,821,817,799,762,631,566,513,477,459,450,448,461,476,488,495,499,499,501,503,507,516],"ymouse":[513,513,513,513,513,513,513,513,513,513,513,513,513,513,513,513,513,513,513,513,513,513,513,513,513,513,513,513,513,513,513,513,513,513,513,513,513,513,513,513,513,513,513,513,513,513,513,513,513,513,513,513,513,513,513,513,513,513,513,513,513,513,513,513,513,513,513,513,513,513,513,513,513,508,497,474,396,355,314,280,257,239,225,215,206,197,185,155,143,131,119,111,86],"timestamp_mouse":[15,34,55,75,93,115,134,154,175,195,215,235,254,275,294,314,334,354,373,394,414,434,454,474,494,514,534,555,573,594,614,635,655,674,695,715,735,755,774,795,814,835,853,875,895,914,934,954,975,994,1014,1034,1055,1074,1094,1113,1135,1155,1175,1194,1214,1234,1255,1274,1294,1315,1335,1355,1375,1395,1414,1435,1455,1475,1494,1514,1535,1553,1574,1595,1615,1634,1653,1674,1694,1715,1734,1755,1774,1795,1815,1833,1853],"xSR":741.5,"ySR":469.95,"xT1":424.9,"yT1":0,"xT2":1058.1,"yT2":0,"toosoon":0,"cond_shown":"Congruent","ratio_trial":200,"L_num":6,"L_den":15,"R_num":3,"R_den":15,"correct_side":1,"subjID":"luciavelez14","gender":"1","school":"4","age":"9"},{"start_time":1552327516125,"click_time":1552327519458,"finger_time":1552327518838,"fix_duration":585.0420159099867,"trial":25,"RT":2713,"MT":620,"sideResp":2,"stimulus":[],"xmouse":[779,779,779,779,779,779,779,779,779,780,781,781,781,781,781,781,781,781,781,781,781,781,781,781,781,781,781,781,781,781,781,781,781,781,781,781,781,781,781,781,781,781,781,781,781,781,781,781,781,781,781,781,781,781,781,781,781,781,781,781,781,781,781,781,781,781,781,781,781,781,781,781,781,781,781,781,781,781,781,781,781,781,781,781,781,781,781,781,781,781,781,781,781,781,781,781,781,781,781,781,781,781,781,781,781,781,781,781,781,781,781,781,781,781,781,781,781,781,781,781,781,781,781,782,782,782,783,784,785,788,790,797,800,805,809,811,823,851,865,935,970,999,1001,1001,1001,1000,999,999,999,999,999,988,979,967,959,953,952,960,977,1008,1021,1028,1029,1031,1038,1045,1071],"ymouse":[513,513,513,513,513,513,513,513,513,513,513,513,513,513,513,513,513,513,513,513,513,513,513,513,513,513,513,513,513,513,513,513,513,513,513,513,513,513,513,513,513,513,513,513,513,513,513,513,513,513,513,513,513,513,513,513,513,513,513,513,513,513,513,513,513,513,513,513,513,513,513,513,513,513,513,513,513,513,513,513,513,513,513,513,513,513,513,513,513,513,513,513,513,513,513,513,513,513,513,513,513,513,513,513,513,513,513,513,513,513,513,513,513,513,513,513,513,513,513,513,513,513,513,513,513,513,513,513,513,510,509,498,492,483,472,462,439,419,407,371,348,325,318,315,312,310,307,302,283,263,240,190,165,139,115,94,64,49,36,26,23,23,23,23,25,25,27],"timestamp_mouse":[13,36,52,72,92,112,132,152,173,192,213,231,253,273,291,312,333,353,372,392,412,433,453,472,493,512,533,553,572,591,612,633,653,671,691,712,733,752,772,793,812,833,853,872,893,912,932,952,972,992,1012,1031,1052,1072,1091,1113,1133,1152,1173,1192,1211,1232,1253,1273,1292,1312,1333,1353,1372,1392,1413,1432,1453,1473,1493,1512,1532,1553,1573,1593,1612,1631,1653,1672,1693,1712,1732,1753,1773,1791,1813,1832,1853,1873,1892,1913,1932,1953,1973,1992,2012,2032,2052,2073,2092,2113,2132,2153,2173,2192,2213,2232,2252,2273,2292,2313,2332,2353,2372,2393,2413,2432,2452,2473,2493,2511,2533,2552,2572,2593,2612,2631,2653,2673,2693,2713,2732,2751,2771,2792,2813,2833,2853,2871,2893,2913,2933,2953,2973,2992,3011,3032,3053,3072,3091,3111,3132,3151,3173,3192,3213,3233,3253,3271,3292,3312,3332],"xSR":741.5,"ySR":469.95,"xT1":424.9,"yT1":0,"xT2":1058.1,"yT2":0,"toosoon":0,"cond_shown":"Incongruent","ratio_trial":300,"L_num":4,"L_den":20,"R_num":2,"R_den":4,"correct_side":2,"subjID":"luciavelez14","gender":"1","school":"4","age":"9"},{"start_time":1552327528309,"click_time":1552327529979,"finger_time":1552327529197,"fix_duration":610.4937512617415,"trial":26,"RT":888,"MT":782,"sideResp":2,"stimulus":[],"xmouse":[807,807,807,807,807,807,807,807,807,807,807,807,807,807,807,807,807,807,807,807,807,807,807,807,807,807,807,807,807,807,807,807,807,807,807,807,807,807,807,807,809,815,822,832,854,868,878,888,898,915,925,930,938,954,960,965,970,972,977,980,985,989,995,1002,1028,1040,1053,1072,1110,1131,1146,1156,1160,1161,1161,1161,1161,1161,1161,1161,1161,1161,1160,1156],"ymouse":[522,522,522,522,522,522,522,522,522,522,522,522,522,522,522,522,522,522,522,522,522,522,522,522,522,522,522,522,522,522,522,522,522,522,522,522,522,522,522,522,522,522,522,521,512,501,491,479,463,439,424,417,406,383,372,362,349,340,318,310,297,281,265,249,209,195,185,173,146,129,115,100,87,73,70,70,70,70,70,70,69,69,68,67],"timestamp_mouse":[12,34,49,68,88,108,128,147,168,189,207,227,249,268,288,308,328,349,368,388,409,429,448,468,489,508,528,548,569,589,607,629,648,669,689,708,727,749,768,789,809,827,847,868,888,909,928,949,969,987,1007,1028,1048,1068,1088,1108,1128,1149,1168,1187,1207,1228,1248,1269,1288,1308,1327,1349,1369,1388,1408,1429,1448,1468,1487,1507,1528,1548,1569,1589,1609,1628,1649,1670],"xSR":741.5,"ySR":469.95,"xT1":424.9,"yT1":0,"xT2":1058.1,"yT2":0,"toosoon":0,"cond_shown":"Congruent","ratio_trial":200,"L_num":6,"L_den":12,"R_num":7,"R_den":10,"correct_side":2,"subjID":"luciavelez14","gender":"1","school":"4","age":"9"},{"start_time":1552327531949,"click_time":1552327532918,"finger_time":1552327532737,"fix_duration":250,"trial":27,"RT":788,"MT":181,"sideResp":1,"stimulus":[],"xmouse":[780,780,780,780,780,780,780,780,780,780,779,779,780,780,782,782,782,782,782,782,782,782,782,785,790,801,812,823,824,824,824,824,824,824,824,824,825,822,815,803,787,761,682,644,611,581,557,531,522],"ymouse":[520,520,520,520,520,520,520,520,520,520,520,520,517,515,513,511,511,511,511,510,510,510,510,510,509,507,506,506,506,506,506,506,506,506,506,506,506,498,487,466,441,408,288,229,177,136,96,39,14],"timestamp_mouse":[13,28,48,68,88,107,128,149,167,188,207,228,248,268,288,308,327,349,368,388,408,429,449,468,488,508,528,549,568,588,607,627,649,668,689,708,729,748,769,788,808,828,849,867,889,908,929,948,969],"xSR":741.5,"ySR":469.95,"xT1":424.9,"yT1":0,"xT2":1058.1,"yT2":0,"toosoon":0,"cond_shown":"Incongruent","ratio_trial":100,"L_num":6,"L_den":10,"R_num":13,"R_den":26,"correct_side":1,"subjID":"luciavelez14","gender":"1","school":"4","age":"9"},{"start_time":1552327535502,"click_time":1552327537877,"finger_time":1552327537276,"fix_duration":1063.4316552300763,"trial":28,"RT":1774,"MT":601,"sideResp":1,"stimulus":[],"xmouse":[760,760,760,760,760,760,760,760,760,760,760,760,760,760,760,760,760,760,760,760,760,760,760,760,760,760,760,760,760,760,760,760,760,760,760,760,760,760,760,760,760,760,760,760,760,760,760,760,760,760,760,760,760,760,760,760,760,760,760,760,760,760,760,760,760,760,760,760,760,760,759,763,766,769,773,773,773,773,773,773,773,773,773,773,773,773,769,757,740,719,633,586,504,457,418,383,383,383,383,383,383,383,383,383,383,383,383,383,383,383,410,410,410,410,410,411,415,421,428],"ymouse":[522,522,522,522,522,522,522,522,522,522,522,522,522,522,522,522,522,522,522,522,522,522,522,522,522,522,522,522,522,522,522,522,522,522,522,522,522,522,522,522,522,522,522,522,522,522,522,522,522,522,522,522,522,522,522,522,522,522,522,522,522,522,522,522,522,522,522,522,522,522,522,517,514,511,508,508,508,508,508,508,508,508,508,508,508,506,501,492,476,461,371,305,196,127,68,0,0,0,0,0,0,0,0,0,0,0,0,0,0,0,1,12,17,20,25,30,35,41,45],"timestamp_mouse":[18,36,56,76,96,114,134,156,175,194,214,235,256,276,296,316,335,356,376,395,415,436,455,475,495,516,535,555,576,595,615,636,655,675,695,716,735,756,776,795,816,836,856,876,895,914,936,955,976,996,1016,1035,1055,1076,1095,1115,1136,1155,1174,1195,1215,1235,1254,1276,1295,1316,1336,1355,1375,1394,1415,1436,1454,1475,1495,1515,1535,1556,1575,1595,1615,1635,1656,1675,1695,1716,1735,1756,1774,1796,1814,1835,1856,1876,1896,1916,1935,1955,1975,1995,2016,2035,2056,2075,2095,2115,2136,2155,2176,2195,2215,2235,2255,2275,2296,2314,2335,2355,2375],"xSR":741.5,"ySR":469.95,"xT1":424.9,"yT1":0,"xT2":1058.1,"yT2":0,"toosoon":0,"cond_shown":"Congruent","ratio_trial":100,"L_num":3,"L_den":6,"R_num":2,"R_den":5,"correct_side":1,"subjID":"luciavelez14","gender":"1","school":"4","age":"9"},{"start_time":1552327547609,"click_time":1552327550038,"finger_time":1552327549338,"fix_duration":1351.3761394082132,"trial":29,"RT":1729,"MT":700,"sideResp":1,"stimulus":[],"xmouse":[786,787,787,789,789,789,791,791,791,792,792,792,792,792,792,792,792,792,792,792,792,792,792,792,792,792,792,792,792,792,792,792,792,792,792,792,792,792,792,792,792,792,792,792,792,792,792,792,792,792,792,792,792,792,792,792,792,792,792,792,792,792,792,792,792,793,793,793,793,793,793,793,793,793,793,793,793,793,793,793,793,793,790,784,774,764,750,747,746,746,749,755,755,755,754,751,724,694,657,616,586,543,543,543,543,543,543,543,543,528,528,528,529,529,530,530,529,528,528,527,525,524],"ymouse":[528,528,528,528,528,528,528,527,527,525,525,525,525,525,525,525,525,525,525,525,525,525,525,525,525,525,525,525,525,525,525,525,525,525,525,525,525,525,525,525,525,525,525,525,525,525,525,525,525,525,525,525,525,525,525,525,525,525,525,525,525,525,525,525,525,525,525,525,525,525,525,525,525,525,525,525,525,525,525,525,525,521,515,505,491,475,446,435,425,415,404,376,356,328,300,272,205,156,104,61,31,0,0,0,0,0,0,0,0,0,2,19,25,30,36,40,46,48,49,51,52,57],"timestamp_mouse":[13,43,48,68,89,108,129,148,169,189,209,229,248,269,288,309,329,349,368,388,408,428,449,467,487,509,527,547,569,589,609,628,648,669,689,709,729,749,769,787,809,828,848,869,889,909,929,948,969,988,1008,1028,1048,1067,1088,1108,1129,1148,1169,1189,1207,1228,1249,1269,1289,1308,1329,1349,1369,1388,1408,1429,1448,1468,1489,1507,1528,1549,1568,1589,1608,1629,1648,1668,1687,1709,1729,1748,1769,1788,1807,1829,1848,1868,1889,1909,1929,1950,1969,1989,2008,2028,2050,2069,2089,2110,2130,2150,2169,2189,2209,2229,2250,2269,2289,2309,2329,2349,2369,2390,2408,2428],"xSR":741.5,"ySR":469.95,"xT1":424.9,"yT1":0,"xT2":1058.1,"yT2":0,"toosoon":0,"cond_shown":"Incongruent","ratio_trial":200,"L_num":7,"L_den":15,"R_num":4,"R_den":6,"correct_side":2,"subjID":"luciavelez14","gender":"1","school":"4","age":"9"},{"start_time":1552327554515,"click_time":1552327556558,"finger_time":1552327556158,"fix_duration":255.42761663548762,"trial":30,"RT":1643,"MT":400,"sideResp":2,"stimulus":[],"xmouse":[826,826,826,826,826,826,826,826,826,826,826,826,826,826,826,826,826,826,826,826,826,826,826,826,826,826,826,826,826,826,826,826,826,826,826,826,826,826,826,826,826,826,826,826,826,826,823,818,816,816,816,816,816,816,816,816,816,816,816,816,816,816,816,816,816,816,816,816,816,816,816,816,816,816,816,816,816,816,816,816,816,816,814,814,821,831,862,880,896,912,925,943,961,974,992,1010,1049,1065,1068,1068,1073,1082,1103],"ymouse":[534,534,534,534,534,534,534,534,534,534,534,534,534,534,534,534,534,534,534,534,534,534,534,534,534,534,534,534,534,534,534,534,534,534,534,534,534,534,534,534,534,534,534,534,534,534,534,534,534,534,534,534,534,534,534,534,534,534,534,534,534,534,534,534,534,534,534,534,534,534,534,534,534,534,534,534,533,530,529,528,524,512,460,440,419,400,364,345,326,309,294,271,251,237,218,203,173,158,153,148,135,116,84],"timestamp_mouse":[20,37,43,63,84,103,123,143,163,183,204,223,243,264,283,303,323,343,363,383,403,423,444,463,483,502,523,543,564,583,603,623,643,663,683,703,724,744,763,783,803,823,843,863,883,904,923,944,963,983,1003,1024,1044,1063,1083,1104,1124,1143,1163,1184,1203,1223,1244,1264,1283,1302,1324,1343,1363,1383,1404,1423,1443,1463,1484,1504,1524,1543,1564,1583,1604,1623,1643,1663,1683,1703,1724,1743,1764,1783,1802,1824,1842,1863,1882,1904,1925,1943,1963,1983,2003,2025,2043],"xSR":741.5,"ySR":469.95,"xT1":424.9,"yT1":0,"xT2":1058.1,"yT2":0,"toosoon":0,"cond_shown":"Incongruent","ratio_trial":200,"L_num":7,"L_den":15,"R_num":6,"R_den":9,"correct_side":2,"subjID":"luciavelez14","gender":"1","school":"4","age":"9"},{"start_time":1552327560994,"click_time":1552327562678,"finger_time":1552327562058,"fix_duration":833.5920904272807,"trial":31,"RT":1064,"MT":620,"sideResp":1,"stimulus":[],"xmouse":[801,802,802,804,804,804,804,804,804,804,804,804,804,804,804,804,804,804,804,804,805,805,805,805,805,805,805,805,805,805,805,805,805,805,805,805,805,805,805,805,805,805,805,805,805,805,805,805,805,805,805,805,803,787,779,770,752,743,725,718,711,705,701,699,692,685,677,662,621,601,580,561,547,534,532,532,532,532,531,530,529,529,529,525,520],"ymouse":[506,507,507,508,508,508,508,508,508,508,508,508,508,508,508,508,508,508,508,508,508,508,508,508,508,508,508,508,508,508,508,508,508,508,508,508,508,508,508,508,508,508,508,508,508,508,508,508,508,508,508,503,492,454,426,388,309,256,161,129,109,96,91,90,89,88,87,82,69,61,54,49,45,44,44,44,44,44,44,44,46,50,53,60,62],"timestamp_mouse":[4,35,44,64,84,104,124,144,165,184,204,224,244,264,284,304,324,345,363,384,404,424,443,465,484,504,524,544,564,584,604,625,644,664,685,704,724,745,764,784,804,825,845,864,885,904,925,944,964,985,1003,1024,1045,1064,1085,1105,1124,1145,1164,1184,1204,1225,1244,1264,1285,1305,1324,1345,1364,1384,1404,1425,1444,1464,1485,1505,1523,1544,1564,1584,1604,1624,1644,1664,1684],"xSR":741.5,"ySR":469.95,"xT1":424.9,"yT1":0,"xT2":1058.1,"yT2":0,"toosoon":0,"cond_shown":"Incongruent","ratio_trial":300,"L_num":8,"L_den":10,"R_num":9,"R_den":18,"correct_side":1,"subjID":"luciavelez14","gender":"1","school":"4","age":"9"},{"start_time":1552327565171,"click_time":1552327567398,"finger_time":1552327566659,"fix_duration":250,"trial":32,"RT":1488,"MT":739,"sideResp":2,"stimulus":[],"xmouse":[802,802,802,802,802,802,802,802,802,802,802,802,802,802,802,802,802,802,802,802,802,802,802,802,802,802,802,802,802,802,802,802,802,802,802,802,802,802,802,802,802,802,802,802,802,802,802,802,802,802,802,802,802,802,802,802,802,802,802,802,802,802,802,802,802,802,802,802,802,805,809,813,819,825,849,859,866,874,880,891,899,914,930,946,960,993,1001,1009,1015,1020,1028,1031,1033,1035,1041,1050,1056,1061,1067,1071,1081,1087,1093,1096,1104,1106,1106,1107,1107,1107,1109,1110],"ymouse":[535,535,535,535,535,535,535,535,535,535,535,535,535,535,535,535,535,535,535,535,535,535,535,535,535,535,535,535,535,535,535,535,535,535,535,535,535,535,535,535,535,535,535,535,535,535,535,535,535,535,535,535,535,535,535,535,535,535,535,535,535,535,535,535,535,535,535,535,533,529,525,520,514,509,496,487,477,461,446,405,381,342,309,283,259,213,203,197,196,196,196,197,197,197,197,190,186,179,171,161,144,137,130,127,120,118,117,116,116,113,103,95],"timestamp_mouse":[12,31,48,68,86,108,127,147,168,187,207,227,248,268,287,307,328,348,367,386,407,428,448,467,488,507,527,547,567,587,608,628,648,667,688,708,726,747,768,787,808,827,848,867,888,907,928,947,968,988,1007,1028,1047,1068,1087,1108,1127,1147,1167,1187,1207,1228,1247,1268,1288,1308,1328,1348,1368,1388,1407,1427,1447,1467,1488,1507,1528,1547,1567,1589,1607,1627,1648,1668,1686,1707,1727,1747,1767,1787,1807,1827,1847,1866,1888,1908,1927,1948,1967,1987,2007,2027,2047,2068,2088,2107,2126,2147,2167,2187,2207,2227],"xSR":741.5,"ySR":469.95,"xT1":424.9,"yT1":0,"xT2":1058.1,"yT2":0,"toosoon":0,"cond_shown":"Incongruent","ratio_trial":100,"L_num":3,"L_den":5,"R_num":11,"R_den":22,"correct_side":1,"subjID":"luciavelez14","gender":"1","school":"4","age":"9"},{"start_time":1552327570953,"click_time":1552327572738,"finger_time":1552327571898,"fix_duration":812.7536957107409,"trial":33,"RT":945,"MT":840,"sideResp":1,"stimulus":[],"xmouse":[792,792,792,792,792,792,792,792,792,792,792,792,792,792,792,792,792,792,792,792,792,792,792,792,792,792,792,792,792,792,792,792,792,792,792,792,792,792,791,791,791,789,788,786,783,780,767,760,752,744,735,725,723,718,715,711,703,698,691,682,674,661,654,642,633,625,609,604,598,590,582,573,569,569,568,567,565,563,561,560,559,559,559,559,559,557,538,530,525,522],"ymouse":[512,512,512,514,516,518,521,521,521,521,521,521,521,521,521,521,521,521,521,521,521,521,521,521,521,521,521,521,521,521,521,521,521,521,521,521,521,521,522,522,521,519,517,512,505,497,470,451,432,413,393,364,349,330,316,304,277,263,247,234,222,199,188,173,162,152,136,130,125,120,117,116,116,116,116,115,109,103,98,94,90,88,88,88,88,88,88,86,84,83],"timestamp_mouse":[15,38,45,66,84,106,125,145,165,186,205,225,246,266,286,305,325,344,366,386,405,425,445,465,486,505,525,545,565,586,605,625,645,666,685,705,725,745,766,786,805,825,845,866,885,906,926,945,965,985,1006,1026,1045,1065,1085,1106,1126,1145,1165,1185,1205,1226,1245,1265,1285,1306,1326,1345,1365,1385,1405,1426,1445,1465,1485,1505,1526,1545,1565,1585,1605,1625,1645,1666,1685,1705,1726,1745,1765,1785],"xSR":741.5,"ySR":469.95,"xT1":424.9,"yT1":0,"xT2":1058.1,"yT2":0,"toosoon":0,"cond_shown":"Congruent","ratio_trial":100,"L_num":15,"L_den":25,"R_num":13,"R_den":26,"correct_side":1,"subjID":"luciavelez14","gender":"1","school":"4","age":"9"},{"start_time":1552327582210,"click_time":1552327584319,"finger_time":1552327583718,"fix_duration":250,"trial":34,"RT":1508,"MT":601,"sideResp":2,"stimulus":[],"xmouse":[788,788,788,788,790,793,794,794,794,794,794,794,794,794,794,794,794,794,794,794,794,794,794,794,794,794,794,794,794,794,794,794,794,794,794,794,794,794,794,794,794,794,794,794,794,794,794,794,794,794,794,794,794,794,794,794,794,794,794,794,794,794,794,794,794,795,796,796,797,797,797,799,802,808,817,851,870,891,914,942,1003,1031,1058,1084,1113,1161,1173,1179,1183,1183,1183,1183,1183,1183,1183,1183,1183,1183,1183,1183,1183,1183,1183,1183,1183,1148],"ymouse":[538,538,538,538,538,538,538,538,538,538,538,538,538,538,538,538,538,538,538,538,538,538,538,538,538,538,538,538,538,538,538,538,538,538,538,538,538,538,538,538,538,538,538,538,538,538,538,538,538,538,538,538,538,538,538,538,538,538,538,538,538,538,538,538,538,538,538,538,538,538,538,538,538,538,538,534,529,519,509,494,452,426,389,349,305,211,168,111,68,3,3,3,3,3,3,3,3,3,3,3,3,3,3,3,3,18],"timestamp_mouse":[14,32,49,68,89,108,129,149,169,188,209,229,249,269,289,309,329,348,369,389,409,429,449,468,488,509,528,549,568,589,609,627,649,669,689,708,729,748,768,788,808,829,849,867,888,908,929,948,968,989,1008,1029,1049,1069,1088,1108,1128,1149,1168,1189,1208,1229,1248,1269,1289,1309,1329,1349,1368,1388,1409,1428,1449,1468,1489,1508,1528,1548,1568,1588,1608,1628,1648,1668,1689,1708,1728,1748,1768,1789,1808,1828,1848,1869,1887,1909,1928,1948,1968,1988,2009,2028,2048,2069,2088,2109],"xSR":741.5,"ySR":469.95,"xT1":424.9,"yT1":0,"xT2":1058.1,"yT2":0,"toosoon":0,"cond_shown":"Incongruent","ratio_trial":100,"L_num":6,"L_den":10,"R_num":11,"R_den":22,"correct_side":1,"subjID":"luciavelez14","gender":"1","school":"4","age":"9"},{"start_time":1552327587802,"click_time":1552327589578,"finger_time":1552327589418,"fix_duration":382.0164511110979,"trial":35,"RT":1616,"MT":160,"sideResp":2,"stimulus":[],"xmouse":[805,805,805,805,805,805,805,805,805,805,805,805,805,804,804,803,803,802,802,802,801,801,800,800,800,798,797,797,797,797,797,797,797,797,797,797,797,797,797,795,795,795,795,795,795,795,795,795,795,795,795,795,795,795,795,795,795,795,795,795,795,795,795,795,795,795,795,795,795,795,795,795,795,795,795,794,794,797,807,818,851,878,933,965,995,1036,1048,1060,1066],"ymouse":[545,545,545,545,545,545,545,545,545,545,545,545,545,545,545,545,545,545,545,545,545,545,545,545,545,545,545,545,545,545,545,545,545,545,545,545,545,545,545,545,545,545,545,545,545,545,545,545,545,545,545,545,545,545,545,545,545,545,545,545,545,545,545,545,545,545,545,545,545,545,545,545,545,545,545,543,540,527,510,489,430,385,315,275,231,151,121,104,94],"timestamp_mouse":[16,36,56,75,96,117,137,156,176,197,216,237,256,277,297,316,337,356,376,397,417,436,456,477,497,516,537,557,577,596,617,636,657,677,697,716,737,756,776,796,817,836,856,877,896,916,937,956,977,996,1017,1036,1057,1076,1097,1116,1137,1156,1177,1196,1217,1237,1256,1277,1297,1316,1337,1357,1376,1397,1416,1436,1456,1476,1496,1516,1536,1557,1577,1596,1616,1637,1656,1676,1697,1716,1736,1756,1776],"xSR":741.5,"ySR":469.95,"xT1":424.9,"yT1":0,"xT2":1058.1,"yT2":0,"toosoon":0,"cond_shown":"Congruent","ratio_trial":300,"L_num":3,"L_den":6,"R_num":4,"R_den":5,"correct_side":2,"subjID":"luciavelez14","gender":"1","school":"4","age":"9"},{"start_time":1552327595430,"click_time":1552327597339,"finger_time":1552327596699,"fix_duration":1108.6491886675406,"trial":36,"RT":1269,"MT":640,"sideResp":1,"stimulus":[],"xmouse":[789,789,789,789,789,789,789,789,789,789,789,789,789,789,789,789,789,789,789,789,789,789,789,789,789,789,789,789,789,789,789,789,789,789,789,789,789,789,789,789,789,789,789,789,789,789,789,789,789,789,789,789,789,789,789,789,789,789,790,790,786,781,774,766,759,745,740,732,728,726,724,724,720,718,710,680,654,645,623,607,567,550,539,527,522,519,519,519,519,519,519,519,519,519,518,513],"ymouse":[538,538,538,538,538,538,538,538,538,538,538,538,538,538,538,538,538,538,538,538,538,538,538,538,538,538,538,538,538,538,538,538,538,538,538,538,538,538,538,538,538,538,538,538,538,538,538,538,538,538,538,538,538,538,538,538,538,538,536,531,511,493,471,445,411,365,340,315,305,301,299,299,298,297,293,279,258,249,225,209,174,158,147,133,126,119,116,115,113,111,109,108,108,107,106,99],"timestamp_mouse":[12,36,49,68,89,109,129,147,168,189,208,229,249,269,289,309,328,349,368,388,408,428,448,468,489,509,529,549,568,588,608,629,648,668,688,708,727,749,768,789,808,828,849,868,888,908,928,949,968,988,1008,1028,1049,1068,1089,1109,1129,1149,1168,1189,1208,1229,1248,1269,1289,1308,1328,1349,1368,1389,1408,1428,1448,1469,1488,1508,1528,1548,1568,1589,1608,1628,1648,1668,1688,1708,1727,1749,1769,1788,1808,1828,1848,1868,1889,1909],"xSR":741.5,"ySR":469.95,"xT1":424.9,"yT1":0,"xT2":1058.1,"yT2":0,"toosoon":0,"cond_shown":"Incongruent","ratio_trial":200,"L_num":3,"L_den":10,"R_num":1,"R_den":2,"correct_side":2,"subjID":"luciavelez14","gender":"1","school":"4","age":"9"},{"start_time":1552327601590,"click_time":1552327604598,"finger_time":1552327603239,"fix_duration":448.87227129584704,"trial":37,"RT":1649,"MT":1359,"sideResp":2,"stimulus":[],"xmouse":[803,803,803,803,803,803,803,803,803,803,803,803,803,803,803,803,803,803,803,803,803,803,803,803,803,803,803,803,803,803,803,803,803,803,803,803,803,803,803,803,803,803,803,803,803,803,803,803,803,803,803,803,803,803,803,803,803,804,807,807,807,807,807,807,807,807,807,807,807,807,807,807,807,807,807,807,807,807,806,802,801,801,801,801,804,807,809,810,810,806,801,795,786,770,764,758,751,739,701,676,653,634,619,609,609,609,609,609,609,610,620,630,638,646,650,651,656,661,677,687,700,719,742,795,825,871,914,963,1004,1018,1031,1041,1049,1065,1072,1079,1088,1094,1098,1111,1116,1122,1124,1128,1129,1131,1133,1133,1133,1132,1129],"ymouse":[531,531,531,531,531,531,531,531,531,531,531,531,531,531,531,531,531,531,531,531,531,531,531,531,531,531,531,531,531,531,531,531,531,531,531,531,531,531,531,531,531,531,531,531,531,531,531,531,531,531,531,531,531,531,531,532,533,536,539,539,539,539,539,539,539,539,539,539,539,539,539,539,539,539,539,538,536,528,513,503,493,480,467,434,416,399,383,363,338,325,310,293,275,235,217,200,183,166,145,134,122,112,104,97,97,97,97,97,97,96,98,101,104,109,111,111,112,113,116,119,122,128,135,152,163,174,184,197,206,207,207,207,207,202,199,193,184,177,166,150,143,135,129,120,117,114,112,108,103,100,95],"timestamp_mouse":[12,36,48,69,88,109,129,149,168,188,209,228,248,269,288,309,328,349,368,389,408,428,448,469,489,509,528,548,567,589,608,628,648,669,688,709,729,747,769,789,808,829,849,868,889,908,929,948,968,989,1009,1028,1048,1067,1088,1109,1129,1148,1169,1189,1209,1229,1248,1268,1288,1309,1328,1348,1369,1389,1408,1429,1449,1469,1488,1508,1528,1548,1568,1589,1608,1629,1649,1668,1689,1709,1727,1747,1768,1789,1808,1829,1849,1868,1888,1908,1929,1949,1968,1988,2009,2029,2048,2068,2088,2108,2128,2149,2168,2188,2208,2229,2248,2268,2287,2308,2329,2349,2368,2389,2408,2428,2448,2468,2488,2509,2528,2549,2568,2588,2608,2629,2649,2668,2688,2708,2729,2748,2768,2788,2807,2828,2849,2868,2889,2908,2928,2948,2968,2989,3008],"xSR":741.5,"ySR":469.95,"xT1":424.9,"yT1":0,"xT2":1058.1,"yT2":0,"toosoon":0,"cond_shown":"Incongruent","ratio_trial":100,"L_num":6,"L_den":12,"R_num":3,"R_den":5,"correct_side":2,"subjID":"luciavelez14","gender":"1","school":"4","age":"9"},{"start_time":1552327616163,"click_time":1552327618379,"finger_time":1552327617899,"fix_duration":1182.0283921229554,"trial":38,"RT":1736,"MT":480,"sideResp":2,"stimulus":[],"xmouse":[786,786,786,786,786,786,786,786,786,786,786,786,786,786,786,786,786,786,786,786,786,786,786,786,786,786,786,786,786,786,786,786,786,786,786,786,786,786,786,786,786,786,786,786,786,786,786,786,786,786,786,786,786,786,786,786,786,786,786,786,786,786,786,786,786,786,786,786,786,787,787,788,790,791,793,795,797,797,797,797,795,788,782,775,765,755,741,740,740,741,750,782,805,826,852,875,906,926,946,967,985,1013,1020,1026,1034,1043,1070,1086,1102,1119,1136],"ymouse":[525,524,523,522,521,520,520,520,520,520,520,520,520,520,520,520,520,520,520,520,520,520,520,520,520,520,520,520,520,520,520,520,520,520,520,520,520,520,520,520,520,520,520,520,520,520,520,520,520,520,520,520,520,520,520,520,520,520,520,520,520,520,520,520,519,519,519,519,519,519,519,518,517,515,513,510,505,505,505,505,504,504,504,504,501,497,489,488,485,482,469,432,412,395,381,368,352,346,340,334,326,313,308,299,293,286,256,231,194,137,67],"timestamp_mouse":[15,35,55,75,97,116,135,157,176,196,215,237,256,275,295,315,335,357,376,396,416,436,457,476,496,515,536,556,576,595,615,636,655,675,695,715,735,756,777,796,815,836,855,875,897,916,935,955,976,996,1016,1035,1056,1075,1095,1116,1136,1156,1175,1196,1216,1235,1257,1275,1296,1315,1336,1356,1376,1396,1415,1435,1455,1476,1496,1516,1536,1555,1575,1595,1616,1636,1656,1677,1696,1716,1736,1755,1776,1801,1815,1835,1855,1877,1897,1917,1936,1956,1976,1996,2015,2035,2056,2076,2096,2115,2135,2156,2175,2196,2216],"xSR":741.5,"ySR":469.95,"xT1":424.9,"yT1":0,"xT2":1058.1,"yT2":0,"toosoon":0,"cond_shown":"Incongruent","ratio_trial":100,"L_num":17,"L_den":30,"R_num":10,"R_den":15,"correct_side":2,"subjID":"luciavelez14","gender":"1","school":"4","age":"9"},{"start_time":1552327620431,"click_time":1552327621858,"finger_time":1552327621639,"fix_duration":250,"trial":39,"RT":1208,"MT":219,"sideResp":2,"stimulus":[],"xmouse":[839,839,839,839,839,839,839,839,840,840,840,840,840,840,840,840,840,839,839,839,839,839,837,835,835,835,834,834,834,834,834,834,834,834,834,834,834,834,834,834,834,834,834,834,834,834,834,834,834,834,834,834,834,834,834,834,834,834,834,836,842,854,868,914,952,991,1002,1041,1080,1102,1121,1134],"ymouse":[511,511,511,511,511,511,511,511,511,511,511,511,511,511,511,511,511,510,504,502,501,500,500,500,500,500,499,498,496,496,496,496,496,496,496,496,496,496,496,496,496,496,496,496,496,496,496,496,496,496,496,496,496,496,496,496,496,496,495,494,493,490,484,451,428,389,377,317,219,167,119,85],"timestamp_mouse":[11,36,49,69,88,108,129,147,168,187,207,229,248,268,287,309,327,347,368,389,408,428,449,467,487,507,528,547,567,589,608,627,647,669,689,707,727,747,769,788,808,828,847,867,888,908,929,948,968,989,1008,1028,1047,1068,1088,1109,1128,1148,1167,1188,1208,1228,1249,1267,1288,1308,1327,1347,1367,1388,1408,1427],"xSR":741.5,"ySR":469.95,"xT1":424.9,"yT1":0,"xT2":1058.1,"yT2":0,"toosoon":0,"cond_shown":"Congruent","ratio_trial":100,"L_num":2,"L_den":5,"R_num":11,"R_den":22,"correct_side":2,"subjID":"luciavelez14","gender":"1","school":"4","age":"9"},{"start_time":1552327624991,"click_time":1552327627299,"finger_time":1552327626319,"fix_duration":1469.1322596689108,"trial":40,"RT":1328,"MT":980,"sideResp":2,"stimulus":[],"xmouse":[806,806,806,806,806,806,806,806,806,806,806,806,806,806,806,806,806,806,806,806,806,806,806,806,806,806,806,806,806,806,806,806,806,806,806,806,806,806,806,806,806,806,806,806,806,806,806,806,806,806,806,806,806,808,812,821,828,829,830,830,830,830,830,831,834,841,846,849,856,862,871,888,898,903,908,915,920,924,927,929,936,942,949,955,963,977,989,990,992,993,995,997,997,999,1001,1001,1001,1001,1004,1013,1023,1040,1044,1049,1052,1056,1058,1058,1058,1058,1058,1058,1058,1058,1058,1059],"ymouse":[527,527,527,527,527,527,527,527,527,527,527,527,527,527,527,527,527,527,527,527,527,527,527,527,527,527,527,527,527,527,527,527,527,527,527,527,527,527,527,527,527,527,527,527,527,527,527,527,527,527,527,527,526,526,525,517,508,503,497,492,488,487,486,483,480,472,464,460,450,441,433,413,402,395,387,377,370,366,362,360,349,342,333,324,310,285,255,242,233,226,218,213,209,204,198,194,182,178,170,160,152,134,124,112,105,94,89,86,85,84,84,84,83,83,81,80],"timestamp_mouse":[13,39,47,68,87,108,127,148,168,188,208,227,247,268,288,307,328,348,368,388,409,428,449,468,487,507,529,549,568,587,607,628,649,668,687,708,728,748,768,789,808,829,849,868,887,908,928,948,968,989,1009,1028,1047,1067,1088,1108,1127,1148,1168,1188,1209,1228,1248,1268,1287,1308,1328,1348,1368,1388,1409,1428,1447,1467,1488,1509,1527,1547,1567,1589,1609,1627,1648,1668,1688,1707,1728,1748,1767,1788,1809,1827,1848,1868,1887,1907,1929,1948,1967,1987,2008,2027,2047,2068,2087,2109,2127,2148,2168,2188,2209,2229,2247,2268,2289,2308],"xSR":741.5,"ySR":469.95,"xT1":424.9,"yT1":0,"xT2":1058.1,"yT2":0,"toosoon":0,"cond_shown":"Congruent","ratio_trial":200,"L_num":13,"L_den":26,"R_num":14,"R_den":20,"correct_side":2,"subjID":"luciavelez14","gender":"1","school":"4","age":"9"},{"start_time":1552327632362,"click_time":1552327634620,"finger_time":1552327634038,"fix_duration":321.5069027722004,"trial":41,"RT":1676,"MT":582,"sideResp":2,"stimulus":[],"xmouse":[793,793,793,793,793,793,793,793,793,793,793,793,793,793,793,793,793,793,793,793,793,793,793,793,793,793,793,793,793,792,792,792,792,792,792,792,792,792,792,792,792,792,792,792,792,792,792,792,792,792,792,792,791,791,791,791,791,791,791,790,790,789,788,788,788,788,788,788,788,788,788,788,788,788,788,788,788,788,789,797,808,823,837,882,904,927,953,1008,1033,1047,1059,1069,1090,1097,1100,1100,1098,1089,1085,1081,1081,1080,1079,1079,1079,1080,1084,1089,1092,1096,1098,1099,1102],"ymouse":[540,540,540,540,540,540,540,540,540,540,540,540,540,540,540,540,540,540,540,540,540,540,540,540,540,540,540,540,540,539,539,539,539,539,539,539,539,539,539,539,539,539,539,539,539,539,539,539,539,539,539,539,539,539,539,539,539,539,539,539,539,539,542,542,543,543,543,543,543,543,543,543,543,543,543,543,543,543,543,539,534,529,520,502,493,483,471,438,421,407,392,374,335,311,293,277,259,227,214,199,189,177,155,144,138,135,131,125,122,115,110,102,92],"timestamp_mouse":[17,40,56,76,97,118,136,156,176,196,216,237,256,276,296,316,336,356,377,396,417,436,456,477,497,516,537,556,577,598,618,637,656,677,698,716,737,756,776,797,817,838,857,877,896,917,936,957,977,997,1016,1037,1056,1077,1096,1118,1138,1156,1176,1196,1217,1238,1257,1277,1296,1317,1336,1357,1376,1396,1417,1436,1457,1478,1497,1517,1538,1557,1577,1597,1617,1637,1657,1676,1697,1717,1736,1757,1777,1796,1816,1836,1859,1877,1897,1917,1937,1957,1977,1996,2017,2038,2057,2076,2096,2116,2136,2157,2176,2197,2217,2238,2258],"xSR":741.5,"ySR":469.95,"xT1":424.9,"yT1":0,"xT2":1058.1,"yT2":0,"toosoon":0,"cond_shown":"Incongruent","ratio_trial":200,"L_num":7,"L_den":15,"R_num":6,"R_den":9,"correct_side":2,"subjID":"luciavelez14","gender":"1","school":"4","age":"9"},{"start_time":1552327636490,"click_time":1552327639718,"finger_time":1552327639000,"fix_duration":488.5212103095672,"trial":42,"RT":2510,"MT":718,"sideResp":1,"stimulus":[],"xmouse":[803,803,803,803,803,803,803,803,803,803,803,803,803,803,803,803,803,803,803,803,803,803,803,803,803,803,803,803,803,803,803,803,803,803,803,803,803,803,803,803,803,803,803,803,803,803,803,803,803,803,803,803,803,803,803,803,803,803,803,803,803,803,803,803,803,803,803,803,803,803,803,803,803,803,803,803,803,803,803,803,803,803,803,803,803,803,803,803,803,803,803,803,803,803,803,803,803,803,803,803,803,803,803,803,803,803,803,803,803,803,803,803,803,803,803,803,803,802,801,799,796,794,781,771,760,739,727,714,710,706,701,694,673,661,648,631,621,607,601,598,595,592,588,586,583,575,567,555,551,548,546,544,536,532,529,528,528,527,527,526,524,518],"ymouse":[504,504,504,504,504,504,504,504,504,504,504,504,504,504,504,504,504,504,504,504,504,504,504,504,504,504,504,504,504,504,504,504,504,504,504,504,504,504,504,504,504,504,504,504,504,504,504,504,504,504,504,504,504,504,504,504,504,504,504,504,504,504,504,504,504,504,504,504,504,504,504,504,504,504,504,504,504,504,504,504,504,504,504,504,504,504,504,504,504,504,504,504,504,504,504,504,504,504,504,504,504,504,504,504,504,504,504,504,504,504,504,504,504,504,504,504,504,505,506,506,506,506,495,483,474,463,454,444,434,424,411,398,370,355,337,308,284,239,220,206,197,191,183,177,174,167,161,154,152,149,144,139,123,115,112,111,111,111,111,109,105,97],"timestamp_mouse":[12,36,48,69,89,108,128,148,170,189,210,230,249,269,289,310,329,349,368,389,410,430,449,468,488,509,530,549,569,589,609,628,649,668,689,710,728,748,768,789,808,828,850,870,890,908,928,948,969,990,1009,1029,1050,1068,1089,1108,1128,1150,1169,1188,1209,1228,1250,1269,1290,1308,1328,1349,1369,1388,1409,1428,1449,1468,1489,1509,1528,1548,1569,1588,1609,1630,1649,1668,1689,1709,1729,1748,1769,1789,1809,1828,1850,1869,1888,1908,1929,1950,1968,1988,2009,2029,2048,2069,2089,2108,2129,2149,2170,2188,2209,2228,2249,2268,2290,2309,2329,2349,2369,2389,2409,2428,2448,2469,2488,2510,2529,2548,2569,2588,2608,2629,2649,2668,2688,2709,2729,2748,2769,2789,2810,2829,2848,2869,2889,2908,2929,2948,2969,2990,3009,3030,3048,3068,3089,3109,3128,3149,3169,3188,3209,3228],"xSR":741.5,"ySR":469.95,"xT1":424.9,"yT1":0,"xT2":1058.1,"yT2":0,"toosoon":0,"cond_shown":"Incongruent","ratio_trial":300,"L_num":2,"L_den":4,"R_num":6,"R_den":30,"correct_side":1,"subjID":"luciavelez14","gender":"1","school":"4","age":"9"},{"start_time":1552327649705,"click_time":1552327651859,"finger_time":1552327651178,"fix_duration":1404.1922971986075,"trial":43,"RT":1473,"MT":681,"sideResp":2,"stimulus":[],"xmouse":[799,799,799,799,799,799,799,799,799,799,799,799,799,799,799,799,799,799,799,799,799,799,799,799,799,799,799,799,799,799,799,799,799,799,799,799,799,799,799,799,799,799,799,799,799,799,799,799,799,799,799,799,799,799,799,799,799,799,799,799,799,799,799,799,799,799,799,799,799,802,808,814,835,853,876,895,910,941,963,977,988,999,1015,1022,1028,1031,1035,1043,1055,1067,1079,1092,1132,1153,1172,1187,1192,1194,1181,1174,1171,1170,1169,1168,1166,1164,1161,1158],"ymouse":[524,524,524,524,524,524,524,524,524,524,524,524,524,524,524,524,524,524,524,524,524,524,524,524,524,524,524,524,524,524,524,524,524,524,524,524,524,524,524,524,524,524,524,524,524,524,524,524,524,524,524,524,524,524,524,524,524,524,524,524,524,524,524,524,524,524,524,524,524,523,521,519,509,501,489,476,463,431,406,388,371,357,337,327,317,308,295,273,258,248,237,228,205,188,160,125,99,76,48,46,46,46,46,46,46,46,46,47],"timestamp_mouse":[13,34,54,73,93,114,133,153,173,195,214,235,253,274,295,313,334,355,373,394,414,433,454,473,493,515,533,553,573,593,614,633,654,674,695,713,734,753,773,794,813,835,853,873,894,915,933,954,973,993,1014,1033,1053,1075,1094,1114,1135,1153,1175,1193,1214,1234,1255,1274,1293,1313,1334,1353,1373,1394,1413,1434,1454,1473,1493,1513,1533,1555,1573,1594,1613,1634,1654,1673,1693,1714,1733,1756,1773,1794,1815,1834,1854,1873,1895,1914,1935,1954,1974,1993,2014,2035,2054,2074,2093,2114,2134,2153],"xSR":741.5,"ySR":469.95,"xT1":424.9,"yT1":0,"xT2":1058.1,"yT2":0,"toosoon":0,"cond_shown":"Congruent","ratio_trial":300,"L_num":1,"L_den":20,"R_num":7,"R_den":20,"correct_side":2,"subjID":"luciavelez14","gender":"1","school":"4","age":"9"},{"start_time":1552327658667,"click_time":1552327660400,"finger_time":1552327660119,"fix_duration":1387.7000431338474,"trial":44,"RT":1452,"MT":281,"sideResp":2,"stimulus":[],"xmouse":[789,789,789,789,789,789,789,789,789,789,789,789,789,789,789,789,789,789,789,789,789,789,789,789,789,789,789,789,789,789,789,789,789,789,789,789,789,789,789,789,789,789,789,789,789,789,789,789,789,789,789,789,789,789,789,789,789,789,789,789,789,789,789,789,789,789,789,789,789,795,801,833,854,876,898,929,953,975,998,1017,1046,1059,1070,1076,1083,1089,1108],"ymouse":[525,525,525,525,525,525,525,525,525,525,525,525,525,525,525,525,525,525,525,525,525,525,525,525,525,525,525,525,525,525,525,525,525,525,525,525,525,525,525,525,525,525,525,525,525,525,525,525,525,525,525,525,525,525,525,525,525,525,525,525,525,525,525,525,525,525,525,525,525,525,523,515,507,496,483,444,398,359,321,290,246,227,209,192,171,149,91],"timestamp_mouse":[13,42,52,73,92,111,132,153,171,192,211,233,252,272,292,311,332,353,372,392,412,431,451,471,492,513,533,551,572,592,611,633,652,671,692,712,732,751,772,792,813,832,851,871,893,911,932,952,973,993,1012,1032,1052,1072,1092,1111,1131,1151,1173,1192,1211,1232,1251,1271,1293,1311,1331,1352,1371,1392,1412,1432,1452,1472,1492,1512,1531,1552,1572,1593,1612,1632,1652,1672,1691,1711,1733],"xSR":741.5,"ySR":469.95,"xT1":424.9,"yT1":0,"xT2":1058.1,"yT2":0,"toosoon":0,"cond_shown":"Congruent","ratio_trial":100,"L_num":2,"L_den":5,"R_num":11,"R_den":22,"correct_side":2,"subjID":"luciavelez14","gender":"1","school":"4","age":"9"},{"start_time":1552327674972,"click_time":1552327676920,"finger_time":1552327676440,"fix_duration":250,"trial":45,"RT":1468,"MT":480,"sideResp":1,"stimulus":[],"xmouse":[796,796,796,796,796,796,796,797,797,797,797,797,797,798,799,799,800,800,800,801,801,801,802,802,802,802,803,803,803,803,803,803,803,803,803,803,803,803,803,803,803,803,803,803,803,803,803,803,803,803,803,803,803,803,803,803,803,803,803,803,803,803,803,803,803,803,803,803,803,803,797,778,756,713,682,664,652,639,617,605,601,599,602,603,605,606,606,592,577,561,554,554,554,553,542,525,503,479],"ymouse":[527,527,527,527,527,527,527,527,527,527,527,527,527,527,527,527,526,526,526,526,526,526,526,526,526,526,526,526,526,526,526,526,526,526,526,526,526,526,526,526,526,526,526,526,526,526,526,526,526,526,526,526,526,526,526,526,526,526,526,526,526,526,526,526,526,526,526,526,526,524,519,507,494,462,433,413,391,367,317,294,276,259,238,231,227,219,211,178,156,132,121,116,114,112,111,107,101,94],"timestamp_mouse":[13,28,47,67,88,108,128,147,167,187,207,227,247,267,288,307,329,348,368,387,407,428,448,468,488,508,528,548,568,588,609,629,649,668,688,708,729,747,769,789,808,827,848,867,888,907,928,948,967,988,1009,1027,1050,1073,1087,1107,1127,1147,1168,1187,1207,1228,1247,1269,1287,1307,1327,1348,1367,1387,1407,1427,1447,1468,1487,1508,1527,1548,1568,1588,1608,1628,1648,1667,1688,1707,1728,1747,1767,1788,1807,1829,1847,1869,1887,1907,1928,1947],"xSR":741.5,"ySR":469.95,"xT1":424.9,"yT1":0,"xT2":1058.1,"yT2":0,"toosoon":0,"cond_shown":"Congruent","ratio_trial":200,"L_num":8,"L_den":15,"R_num":2,"R_den":6,"correct_side":1,"subjID":"luciavelez14","gender":"1","school":"4","age":"9"},{"start_time":1552327678709,"click_time":1552327680279,"finger_time":1552327679581,"fix_duration":328.0624802240837,"trial":46,"RT":872,"MT":698,"sideResp":2,"stimulus":[],"xmouse":[819,819,819,819,819,819,820,820,820,820,820,821,821,822,822,822,822,823,824,824,824,824,826,827,828,829,830,830,830,830,830,830,830,830,830,830,830,830,830,830,830,833,835,842,869,1007,1132,1259,1339,1375,1378,1364,1361,1361,1361,1361,1362,1362,1362,1362,1362,1362,1362,1362,1362,1362,1053,1045,1040,1039,1036,1031,1030,1030,1032,1036,1049,1057,1064],"ymouse":[507,507,507,507,507,507,507,507,507,508,508,510,511,512,512,512,512,514,514,514,514,514,515,515,515,515,515,515,515,515,515,515,515,515,515,515,515,515,515,515,515,515,515,514,497,372,275,189,125,71,44,10,6,6,5,4,0,0,0,0,0,0,0,0,0,0,5,15,22,25,25,25,25,25,25,25,30,36,41],"timestamp_mouse":[10,31,50,70,90,111,130,152,171,191,210,230,250,270,290,310,331,350,371,391,410,430,451,470,490,510,530,550,570,591,610,630,650,671,692,711,731,751,770,790,810,830,850,872,890,911,930,950,971,990,1011,1031,1050,1071,1091,1110,1131,1150,1170,1190,1210,1230,1250,1270,1290,1310,1330,1351,1370,1391,1410,1430,1451,1471,1490,1511,1530,1550,1570],"xSR":741.5,"ySR":469.95,"xT1":424.9,"yT1":0,"xT2":1058.1,"yT2":0,"toosoon":0,"cond_shown":"Congruent","ratio_trial":200,"L_num":5,"L_den":10,"R_num":14,"R_den":20,"correct_side":2,"subjID":"luciavelez14","gender":"1","school":"4","age":"9"},{"start_time":1552327684301,"click_time":1552327686141,"finger_time":1552327685379,"fix_duration":759.9418385262125,"trial":47,"RT":1078,"MT":762,"sideResp":2,"stimulus":[],"xmouse":[780,780,780,780,780,780,780,780,780,780,780,780,780,780,780,780,780,780,780,780,780,780,780,780,780,780,780,780,780,780,780,781,781,782,782,783,784,786,786,786,786,786,786,786,786,786,786,786,787,790,791,795,800,812,820,825,832,841,847,857,864,876,908,934,950,958,964,971,974,974,974,975,978,981,983,983,983,983,984,991,1009,1036,1121,1154,1160,1163,1163,1163,1160,1158,1156,1153,1148],"ymouse":[514,514,514,514,514,514,514,514,514,514,514,514,514,514,514,514,514,514,514,514,514,514,514,514,514,514,514,514,514,514,514,513,513,512,512,511,511,510,510,510,510,510,510,510,510,510,510,509,508,505,502,498,491,477,466,459,451,434,427,415,404,388,355,315,282,257,237,190,172,159,151,148,145,144,142,142,142,142,142,142,146,153,161,161,160,156,151,145,130,124,116,108,96],"timestamp_mouse":[1,19,38,59,79,99,119,138,158,178,199,218,238,258,279,299,319,338,359,379,398,420,438,459,479,499,518,539,559,580,598,618,638,659,679,699,718,738,759,779,799,819,838,859,880,898,919,939,958,978,998,1019,1038,1059,1078,1098,1118,1139,1158,1179,1199,1218,1239,1258,1279,1299,1319,1339,1358,1378,1398,1418,1439,1458,1479,1500,1519,1539,1558,1578,1599,1618,1639,1658,1678,1698,1718,1738,1758,1778,1798,1818,1839],"xSR":741.5,"ySR":469.95,"xT1":424.9,"yT1":0,"xT2":1058.1,"yT2":0,"toosoon":0,"cond_shown":"Congruent","ratio_trial":300,"L_num":1,"L_den":5,"R_num":6,"R_den":12,"correct_side":2,"subjID":"luciavelez14","gender":"1","school":"4","age":"9"},{"start_time":1552327689723,"click_time":1552327692040,"finger_time":1552327691279,"fix_duration":322.09786082631564,"trial":48,"RT":1556,"MT":761,"sideResp":2,"stimulus":[],"xmouse":[778,778,778,778,778,779,780,780,780,780,780,781,781,782,783,783,787,789,789,789,789,789,790,790,790,790,790,790,790,791,791,791,791,791,791,791,791,791,791,792,792,792,792,792,792,792,792,792,792,792,792,792,792,792,792,792,792,792,792,792,792,792,792,792,792,792,792,792,792,792,792,792,793,795,799,810,839,859,891,919,937,969,976,980,980,980,978,977,976,977,979,993,1002,1012,1020,1028,1040,1045,1054,1064,1069,1079,1085,1090,1094,1096,1098,1100,1100,1101,1101,1101,1101,1101,1101,1102],"ymouse":[549,549,549,549,549,549,549,549,549,549,549,549,549,549,549,549,549,549,549,549,549,549,549,549,549,549,549,549,549,550,550,550,550,550,550,550,550,550,550,550,550,550,550,550,550,550,550,550,550,550,550,550,550,550,550,550,550,550,550,550,550,550,550,550,550,550,550,550,550,550,550,550,550,548,543,534,514,499,477,451,427,372,344,325,304,288,274,271,270,268,267,259,251,243,235,226,210,201,190,175,167,146,139,129,122,116,110,107,106,104,104,103,102,102,101,97],"timestamp_mouse":[18,36,58,77,96,117,136,156,176,196,217,237,257,277,297,317,336,357,377,396,417,436,456,477,497,516,537,557,576,596,616,637,656,676,696,716,736,756,777,796,816,836,856,877,896,917,937,957,977,996,1017,1036,1057,1077,1096,1116,1136,1156,1176,1197,1217,1237,1256,1277,1297,1316,1338,1357,1377,1397,1417,1436,1456,1476,1496,1517,1536,1556,1576,1597,1617,1636,1656,1676,1696,1716,1737,1757,1776,1797,1816,1836,1856,1876,1896,1917,1936,1957,1978,1996,2016,2036,2056,2076,2096,2117,2136,2158,2177,2197,2216,2237,2256,2277,2297,2317],"xSR":741.5,"ySR":469.95,"xT1":424.9,"yT1":0,"xT2":1058.1,"yT2":0,"toosoon":0,"cond_shown":"Congruent","ratio_trial":300,"L_num":3,"L_den":6,"R_num":4,"R_den":5,"correct_side":2,"subjID":"luciavelez14","gender":"1","school":"4","age":"9"},{"start_time":1552327696780,"click_time":1552327698220,"finger_time":1552327698019,"fix_duration":298.3406063240234,"trial":49,"RT":1239,"MT":201,"sideResp":2,"stimulus":[],"xmouse":[766,766,766,766,766,766,766,766,766,766,766,766,766,766,766,766,766,766,766,766,766,766,766,766,766