[{"start_time":1552328337975,"click_time":1552328340844,"finger_time":1552328340145,"fix_duration":325.1235788581881,"trial":0,"RT":2170,"MT":699,"sideResp":2,"stimulus":"img/500/randomdotsizeEA/R/9_Ratio_500_L_2_R_4.png","xmouse":[781,781,781,781,781,781,781,781,781,781,781,781,781,781,781,781,781,781,781,781,781,781,781,781,781,781,781,781,781,781,781,781,781,781,781,781,781,781,781,781,781,781,781,781,781,781,781,781,781,781,781,781,781,781,781,781,781,781,781,781,781,781,781,781,781,781,781,781,781,781,781,781,781,781,781,781,781,781,781,781,781,781,781,781,781,781,781,781,781,781,781,781,781,781,781,781,781,781,781,781,781,781,781,781,781,781,781,781,781,781,781,781,781,781,781,781,781,781,785,804,832,868,907,979,1010,1021,1028,1036,1041,1043,1044,1044,1044,1044,1044,1044,1044,1044,1044,1047,1053,1057,1062,1074],"ymouse":[537,537,537,537,537,537,537,537,537,537,537,537,537,537,537,537,537,537,537,537,537,537,537,537,537,537,537,537,537,537,537,537,537,537,537,537,537,537,537,537,537,537,537,537,537,537,537,537,537,537,537,537,537,537,537,537,537,537,537,537,537,537,537,537,537,537,537,537,537,537,537,537,537,537,537,537,537,537,537,537,537,537,537,537,537,537,537,537,537,537,537,537,537,537,537,537,537,537,537,537,537,537,537,537,537,537,537,536,465,395,319,283,261,261,261,261,261,261,259,256,254,254,251,246,238,235,231,221,198,183,167,154,142,127,123,115,110,108,107,107,107,106,101,65],"timestamp_mouse":[10,30,49,70,91,110,130,149,169,191,209,229,250,271,290,310,330,350,369,390,410,430,450,470,489,511,529,551,569,589,610,630,649,669,690,711,730,750,769,789,809,829,849,869,889,910,931,949,970,990,1011,1029,1050,1071,1090,1109,1130,1150,1171,1189,1211,1230,1250,1269,1290,1310,1329,1350,1370,1390,1410,1430,1450,1469,1491,1509,1529,1551,1570,1590,1609,1630,1651,1670,1691,1710,1729,1750,1769,1789,1810,1829,1849,1870,1891,1909,1929,1949,1969,1990,2010,2029,2049,2070,2089,2110,2129,2149,2170,2189,2209,2229,2251,2269,2290,2309,2329,2350,2369,2389,2409,2429,2450,2469,2490,2509,2530,2549,2569,2591,2610,2630,2650,2669,2690,2709,2730,2750,2769,2789,2809,2829,2851,2869],"xSR":741.5,"ySR":469.95,"xT1":424.9,"yT1":0,"xT2":1058.1,"yT2":0,"toosoon":0,"cond_shown":"randomdotsizeEA","ratio_trial":500,"smaller_num":"2","larger_num":"4","correct_side":2,"subjID":"luciavelez14","gender":"1","age":"9","school":"4","test":{"fix_dur":[250,1500],"timestim":300,"targets_dim":[100,100],"targets_relative_coord":[0.3,0.7],"size_stim":[880,420],"start_dim":[100,100],"size_start":[300,300],"size_fix":60,"samplingrate":20,"img_types":["equaldotsize","equaldotanddens","randomdotsizeEA"],"ratios":[250,500,750,900],"rep_conds":9,"nTrials":120,"trials_to_rest":500,"Trials_order":[41,82,104,108,1,107,33,57,76,80,15,68,92,32,20,35,118,116,95,79,87,88,97,27,16,22,99,30,103,96,18,26,52,89,117,37,66,110,98,50,100,2,114,10,65,61,105,7,6,38,4,42,49,54,13,47,60,70,72,48,36,73,90,106,101,71,91,83,113,112,5,102,44,17,85,21,51,53,119,75,86,46,0,55,111,12,84,59,14,74,58,3,29,64,81,28,23,19,45,62,94,25,34,39,24,109,9,43,8,69,67,31,63,11,77,40,93,56,115,78],"cond_shown":["randomdotsizeEA","equaldotanddens","randomdotsizeEA","equaldotsize","equaldotanddens","randomdotsizeEA","equaldotsize","equaldotsize","equaldotanddens","randomdotsizeEA","equaldotsize","randomdotsizeEA","randomdotsizeEA","randomdotsizeEA","randomdotsizeEA","randomdotsizeEA","equaldotanddens","randomdotsizeEA","randomdotsizeEA","equaldotanddens","equaldotsize","equaldotanddens","equaldotanddens","equaldotsize","equaldotanddens","equaldotanddens","equaldotsize","equaldotsize","equaldotanddens","equaldotsize","equaldotsize","randomdotsizeEA","equaldotanddens","randomdotsizeEA","equaldotsize","equaldotanddens","equaldotsize","randomdotsizeEA","randomdotsizeEA","randomdotsizeEA","equaldotanddens","randomdotsizeEA","equaldotsize","equaldotanddens","randomdotsizeEA","equaldotanddens","equaldotsize","equaldotanddens","equaldotsize","randomdotsizeEA","equaldotanddens","equaldotsize","equaldotanddens","equaldotsize","equaldotanddens","randomdotsizeEA","equaldotsize","equaldotanddens","equaldotsize","equaldotsize","equaldotsize","equaldotanddens","equaldotsize","equaldotanddens","randomdotsizeEA","randomdotsizeEA","equaldotanddens","randomdotsizeEA","randomdotsizeEA","equaldotanddens","randomdotsizeEA","equaldotsize","randomdotsizeEA","randomdotsizeEA","equaldotanddens","equaldotsize","equaldotsize","randomdotsizeEA","randomdotsizeEA","equaldotsize","randomdotsizeEA","equaldotanddens","equaldotsize","equaldotanddens","equaldotsize","equaldotsize","equaldotsize","randomdotsizeEA","randomdotsizeEA","randomdotsizeEA","equaldotanddens","equaldotsize","randomdotsizeEA","equaldotanddens","equaldotsize","equaldotanddens","randomdotsizeEA","equaldotanddens","equaldotsize","randomdotsizeEA","equaldotanddens","equaldotanddens","equaldotanddens","equaldotsize","equaldotsize","equaldotanddens","equaldotsize","equaldotanddens","randomdotsizeEA","equaldotsize","equaldotanddens","equaldotanddens","equaldotsize","randomdotsizeEA","randomdotsizeEA","equaldotanddens","equaldotsize","randomdotsizeEA","equaldotanddens","equaldotsize"],"ratio_trial":[500,900,750,250,250,900,900,900,500,750,500,750,750,750,750,900,900,750,900,750,500,500,250,500,500,900,500,750,750,250,750,250,500,500,900,250,750,250,250,250,500,250,750,900,500,250,900,750,750,250,500,750,250,750,250,900,250,900,250,250,250,250,750,900,500,900,750,900,500,500,500,750,750,500,250,900,500,500,900,500,250,900,250,750,500,250,250,900,250,250,900,500,500,500,900,500,900,750,900,250,900,250,900,500,250,250,900,750,750,900,750,750,500,900,500,500,900,750,750,750],"smaller_num":["2","9","9","2","2","9","9","18","5","3","2","15","3","12","9","9","18","3","18","18","3","6","6","9","1","18","3","15","6","6","6","6","2","4","18","2","6","4","4","1","9","2","6","9","5","2","18","3","9","3","9","15","2","3","6","9","6","18","3","3","3","3","3","18","9","18","6","18","1","5","9","3","15","10","2","18","10","1","18","2","4","18","2","3","10","3","2","9","2","2","18","10","9","6","18","2","9","15","18","2","9","3","18","2","3","1","18","3","15","9","15","3","6","18","2","2","18","3","15","3"],"larger_num":["4","10","12","8","8","10","10","20","10","4","4","20","4","16","12","10","20","4","20","24","6","12","24","18","2","20","6","20","8","24","8","24","4","8","20","8","8","16","16","4","18","8","8","10","10","8","20","4","12","12","18","20","8","4","24","10","24","20","12","12","12","12","4","20","18","20","8","20","2","10","18","4","20","20","8","20","20","2","20","4","16","20","8","4","20","12","8","10","8","8","20","20","18","12","20","4","10","20","20","8","10","12","20","4","12","4","20","4","20","10","20","4","12","20","4","4","20","4","20","4"],"correct_side":[2,2,2,1,1,2,1,2,1,2,1,2,2,2,2,1,1,2,1,1,2,1,2,2,2,1,2,2,2,1,1,2,1,1,1,2,1,2,1,2,2,2,1,2,2,1,2,1,2,2,2,1,1,1,1,1,1,1,2,1,1,1,2,1,1,1,1,1,2,2,2,1,2,2,1,1,2,2,1,2,1,2,1,1,2,1,1,1,1,2,1,2,2,1,1,2,1,2,1,1,1,2,2,2,2,2,2,2,2,2,1,1,1,2,2,1,1,1,2,1],"img_shown":["img/500/randomdotsizeEA/R/9_Ratio_500_L_2_R_4.png","img/900/equaldotanddens/R/3_Ratio_900_L_9_R_10.png","img/750/randomdotsizeEA/R/15_Ratio_750_L_9_R_12.png","img/250/equaldotsize/L/3_Ratio_250_L_8_R_2.png","img/250/equaldotanddens/L/3_Ratio_250_L_8_R_2.png","img/900/randomdotsizeEA/R/15_Ratio_900_L_9_R_10.png","img/900/equaldotsize/L/1_Ratio_900_L_10_R_9.png","img/900/equaldotsize/R/12_Ratio_900_L_18_R_20.png","img/500/equaldotanddens/L/7_Ratio_500_L_10_R_5.png","img/750/randomdotsizeEA/R/12_Ratio_750_L_3_R_4.png","img/500/equaldotsize/L/10_Ratio_500_L_4_R_2.png","img/750/randomdotsizeEA/R/4_Ratio_750_L_15_R_20.png","img/750/randomdotsizeEA/R/12_Ratio_750_L_3_R_4.png","img/750/randomdotsizeEA/R/11_Ratio_750_L_12_R_16.png","img/750/randomdotsizeEA/R/15_Ratio_750_L_9_R_12.png","img/900/randomdotsizeEA/L/1_Ratio_900_L_10_R_9.png","img/900/equaldotanddens/L/8_Ratio_900_L_20_R_18.png","img/750/randomdotsizeEA/R/7_Ratio_750_L_3_R_4.png","img/900/randomdotsizeEA/L/2_Ratio_900_L_20_R_18.png","img/750/equaldotanddens/L/6_Ratio_750_L_24_R_18.png","img/500/equaldotsize/R/2_Ratio_500_L_3_R_6.png","img/500/equaldotanddens/L/13_Ratio_500_L_12_R_6.png","img/250/equaldotanddens/R/6_Ratio_250_L_6_R_24.png","img/500/equaldotsize/R/6_Ratio_500_L_9_R_18.png","img/500/equaldotanddens/R/15_Ratio_500_L_1_R_2.png","img/900/equaldotanddens/L/2_Ratio_900_L_20_R_18.png","img/500/equaldotsize/R/2_Ratio_500_L_3_R_6.png","img/750/equaldotsize/R/3_Ratio_750_L_15_R_20.png","img/750/equaldotanddens/R/2_Ratio_750_L_6_R_8.png","img/250/equaldotsize/L/5_Ratio_250_L_24_R_6.png","img/750/equaldotsize/L/14_Ratio_750_L_8_R_6.png","img/250/randomdotsizeEA/R/6_Ratio_250_L_6_R_24.png","img/500/equaldotanddens/L/10_Ratio_500_L_4_R_2.png","img/500/randomdotsizeEA/L/8_Ratio_500_L_8_R_4.png","img/900/equaldotsize/L/10_Ratio_900_L_20_R_18.png","img/250/equaldotanddens/R/13_Ratio_250_L_2_R_8.png","img/750/equaldotsize/L/14_Ratio_750_L_8_R_6.png","img/250/randomdotsizeEA/R/10_Ratio_250_L_4_R_16.png","img/250/randomdotsizeEA/L/2_Ratio_250_L_16_R_4.png","img/250/randomdotsizeEA/R/8_Ratio_250_L_1_R_4.png","img/500/equaldotanddens/R/1_Ratio_500_L_9_R_18.png","img/250/randomdotsizeEA/R/13_Ratio_250_L_2_R_8.png","img/750/equaldotsize/L/13_Ratio_750_L_8_R_6.png","img/900/equaldotanddens/R/15_Ratio_900_L_9_R_10.png","img/500/randomdotsizeEA/R/14_Ratio_500_L_5_R_10.png","img/250/equaldotanddens/L/7_Ratio_250_L_8_R_2.png","img/900/equaldotsize/R/11_Ratio_900_L_18_R_20.png","img/750/equaldotanddens/L/10_Ratio_750_L_4_R_3.png","img/750/equaldotsize/R/15_Ratio_750_L_9_R_12.png","img/250/randomdotsizeEA/R/11_Ratio_250_L_3_R_12.png","img/500/equaldotanddens/R/1_Ratio_500_L_9_R_18.png","img/750/equaldotsize/L/1_Ratio_750_L_20_R_15.png","img/250/equaldotanddens/L/3_Ratio_250_L_8_R_2.png","img/750/equaldotsize/L/10_Ratio_750_L_4_R_3.png","img/250/equaldotanddens/L/5_Ratio_250_L_24_R_6.png","img/900/randomdotsizeEA/L/1_Ratio_900_L_10_R_9.png","img/250/equaldotsize/L/5_Ratio_250_L_24_R_6.png","img/900/equaldotanddens/L/8_Ratio_900_L_20_R_18.png","img/250/equaldotsize/R/4_Ratio_250_L_3_R_12.png","img/250/equaldotsize/L/15_Ratio_250_L_12_R_3.png","img/250/equaldotsize/L/15_Ratio_250_L_12_R_3.png","img/250/equaldotanddens/L/15_Ratio_250_L_12_R_3.png","img/750/equaldotsize/R/12_Ratio_750_L_3_R_4.png","img/900/equaldotanddens/L/4_Ratio_900_L_20_R_18.png","img/500/randomdotsizeEA/L/4_Ratio_500_L_18_R_9.png","img/900/randomdotsizeEA/L/10_Ratio_900_L_20_R_18.png","img/750/equaldotanddens/L/14_Ratio_750_L_8_R_6.png","img/900/randomdotsizeEA/L/10_Ratio_900_L_20_R_18.png","img/500/randomdotsizeEA/R/12_Ratio_500_L_1_R_2.png","img/500/equaldotanddens/R/14_Ratio_500_L_5_R_10.png","img/500/randomdotsizeEA/R/1_Ratio_500_L_9_R_18.png","img/750/equaldotsize/L/9_Ratio_750_L_4_R_3.png","img/750/randomdotsizeEA/R/3_Ratio_750_L_15_R_20.png","img/500/randomdotsizeEA/R/3_Ratio_500_L_10_R_20.png","img/250/equaldotanddens/L/3_Ratio_250_L_8_R_2.png","img/900/equaldotsize/L/10_Ratio_900_L_20_R_18.png","img/500/equaldotsize/R/3_Ratio_500_L_10_R_20.png","img/500/randomdotsizeEA/R/15_Ratio_500_L_1_R_2.png","img/900/randomdotsizeEA/L/4_Ratio_900_L_20_R_18.png","img/500/equaldotsize/R/9_Ratio_500_L_2_R_4.png","img/250/randomdotsizeEA/L/2_Ratio_250_L_16_R_4.png","img/900/equaldotanddens/R/11_Ratio_900_L_18_R_20.png","img/250/equaldotsize/L/7_Ratio_250_L_8_R_2.png","img/750/equaldotanddens/L/9_Ratio_750_L_4_R_3.png","img/500/equaldotsize/R/3_Ratio_500_L_10_R_20.png","img/250/equaldotsize/L/14_Ratio_250_L_12_R_3.png","img/250/equaldotsize/L/7_Ratio_250_L_8_R_2.png","img/900/randomdotsizeEA/L/1_Ratio_900_L_10_R_9.png","img/250/randomdotsizeEA/L/1_Ratio_250_L_8_R_2.png","img/250/randomdotsizeEA/R/13_Ratio_250_L_2_R_8.png","img/900/equaldotanddens/L/8_Ratio_900_L_20_R_18.png","img/500/equaldotsize/R/3_Ratio_500_L_10_R_20.png","img/500/randomdotsizeEA/R/1_Ratio_500_L_9_R_18.png","img/500/equaldotanddens/L/11_Ratio_500_L_12_R_6.png","img/900/equaldotsize/L/4_Ratio_900_L_20_R_18.png","img/500/equaldotanddens/R/9_Ratio_500_L_2_R_4.png","img/900/randomdotsizeEA/L/1_Ratio_900_L_10_R_9.png","img/750/equaldotanddens/R/5_Ratio_750_L_15_R_20.png","img/900/equaldotsize/L/8_Ratio_900_L_20_R_18.png","img/250/randomdotsizeEA/L/7_Ratio_250_L_8_R_2.png","img/900/equaldotanddens/L/1_Ratio_900_L_10_R_9.png","img/250/equaldotanddens/R/4_Ratio_250_L_3_R_12.png","img/900/equaldotanddens/R/14_Ratio_900_L_18_R_20.png","img/500/equaldotsize/R/9_Ratio_500_L_2_R_4.png","img/250/equaldotsize/R/11_Ratio_250_L_3_R_12.png","img/250/equaldotanddens/R/8_Ratio_250_L_1_R_4.png","img/900/equaldotsize/R/14_Ratio_900_L_18_R_20.png","img/750/equaldotanddens/R/7_Ratio_750_L_3_R_4.png","img/750/randomdotsizeEA/R/4_Ratio_750_L_15_R_20.png","img/900/equaldotsize/R/15_Ratio_900_L_9_R_10.png","img/750/equaldotanddens/L/1_Ratio_750_L_20_R_15.png","img/750/equaldotanddens/L/10_Ratio_750_L_4_R_3.png","img/500/equaldotsize/L/11_Ratio_500_L_12_R_6.png","img/900/randomdotsizeEA/R/14_Ratio_900_L_18_R_20.png","img/500/randomdotsizeEA/R/9_Ratio_500_L_2_R_4.png","img/500/equaldotanddens/L/5_Ratio_500_L_4_R_2.png","img/900/equaldotsize/L/8_Ratio_900_L_20_R_18.png","img/750/randomdotsizeEA/L/9_Ratio_750_L_4_R_3.png","img/750/equaldotanddens/R/3_Ratio_750_L_15_R_20.png","img/750/equaldotsize/L/8_Ratio_750_L_4_R_3.png"],"Rat0":[["12_Ratio_0_L_9_R_0.png","13_Ratio_0_L_6_R_0.png","5_Ratio_0_L_2_R_0.png","6_Ratio_0_L_4_R_0.png","8_Ratio_0_L_6_R_0.png"],["1_Ratio_0_L_0_R_17.png","10_Ratio_0_L_0_R_22.png","11_Ratio_0_L_0_R_1.png","14_Ratio_0_L_0_R_24.png","15_Ratio_0_L_0_R_4.png","2_Ratio_0_L_0_R_5.png","3_Ratio_0_L_0_R_17.png","4_Ratio_0_L_0_R_7.png","7_Ratio_0_L_0_R_19.png","9_Ratio_0_L_0_R_15.png"]],"Rat250":[["1_Ratio_250_L_8_R_2.png","14_Ratio_250_L_12_R_3.png","15_Ratio_250_L_12_R_3.png","2_Ratio_250_L_16_R_4.png","3_Ratio_250_L_8_R_2.png","5_Ratio_250_L_24_R_6.png","7_Ratio_250_L_8_R_2.png"],["10_Ratio_250_L_4_R_16.png","11_Ratio_250_L_3_R_12.png","12_Ratio_250_L_5_R_20.png","13_Ratio_250_L_2_R_8.png","4_Ratio_250_L_3_R_12.png","6_Ratio_250_L_6_R_24.png","8_Ratio_250_L_1_R_4.png","9_Ratio_250_L_3_R_12.png"]],"Rat500":[["10_Ratio_500_L_4_R_2.png","11_Ratio_500_L_12_R_6.png","13_Ratio_500_L_12_R_6.png","4_Ratio_500_L_18_R_9.png","5_Ratio_500_L_4_R_2.png","7_Ratio_500_L_10_R_5.png","8_Ratio_500_L_8_R_4.png"],["1_Ratio_500_L_9_R_18.png","12_Ratio_500_L_1_R_2.png","14_Ratio_500_L_5_R_10.png","15_Ratio_500_L_1_R_2.png","2_Ratio_500_L_3_R_6.png","3_Ratio_500_L_10_R_20.png","6_Ratio_500_L_9_R_18.png","9_Ratio_500_L_2_R_4.png"]],"Rat750":[["1_Ratio_750_L_20_R_15.png","10_Ratio_750_L_4_R_3.png","13_Ratio_750_L_8_R_6.png","14_Ratio_750_L_8_R_6.png","6_Ratio_750_L_24_R_18.png","8_Ratio_750_L_4_R_3.png","9_Ratio_750_L_4_R_3.png"],["11_Ratio_750_L_12_R_16.png","12_Ratio_750_L_3_R_4.png","15_Ratio_750_L_9_R_12.png","2_Ratio_750_L_6_R_8.png","3_Ratio_750_L_15_R_20.png","4_Ratio_750_L_15_R_20.png","5_Ratio_750_L_15_R_20.png","7_Ratio_750_L_3_R_4.png"]],"Rat900":[["1_Ratio_900_L_10_R_9.png","10_Ratio_900_L_20_R_18.png","2_Ratio_900_L_20_R_18.png","4_Ratio_900_L_20_R_18.png","8_Ratio_900_L_20_R_18.png"],["11_Ratio_900_L_18_R_20.png","12_Ratio_900_L_18_R_20.png","13_Ratio_900_L_18_R_20.png","14_Ratio_900_L_18_R_20.png","15_Ratio_900_L_9_R_10.png","3_Ratio_900_L_9_R_10.png","5_Ratio_900_L_9_R_10.png","6_Ratio_900_L_9_R_10.png","7_Ratio_900_L_9_R_10.png","9_Ratio_900_L_18_R_20.png"]],"Rat1000":[["10_Ratio_1000_L_16_R_16.png","11_Ratio_1000_L_6_R_6.png","12_Ratio_1000_L_14_R_14.png","13_Ratio_1000_L_20_R_20.png","15_Ratio_1000_L_15_R_15.png","2_Ratio_1000_L_17_R_17.png","4_Ratio_1000_L_9_R_9.png","5_Ratio_1000_L_6_R_6.png","6_Ratio_1000_L_19_R_19.png","8_Ratio_1000_L_14_R_14.png","9_Ratio_1000_L_25_R_25.png"],["1_Ratio_1000_L_1_R_1.png","14_Ratio_1000_L_17_R_17.png","3_Ratio_1000_L_17_R_17.png","7_Ratio_1000_L_6_R_6.png"]]}},{"start_time":1552328343697,"click_time":1552328344925,"finger_time":1552328344644,"fix_duration":250,"trial":1,"RT":947,"MT":281,"sideResp":2,"stimulus":"img/900/equaldotanddens/R/3_Ratio_900_L_9_R_10.png","xmouse":[801,801,801,801,801,801,801,801,801,801,801,801,801,801,801,801,801,801,801,801,801,801,801,801,801,801,801,801,801,801,801,801,801,801,801,801,801,801,801,801,801,801,801,801,801,801,803,824,840,863,899,931,970,981,988,1001,1010,1021,1029,1039,1051,1061],"ymouse":[534,534,534,534,534,534,534,534,534,534,534,534,534,534,534,534,534,534,534,534,534,534,534,534,534,534,534,534,534,534,534,534,534,534,534,534,534,534,534,534,534,534,534,531,527,519,506,449,417,386,341,292,228,206,193,178,166,141,117,98,83,67],"timestamp_mouse":[10,37,48,67,88,108,128,149,168,188,207,227,247,269,289,308,327,348,369,388,408,428,448,468,488,508,528,547,568,587,607,629,647,667,687,707,728,748,767,787,807,828,848,868,887,907,928,947,967,987,1007,1027,1048,1067,1088,1108,1128,1148,1167,1187,1208,1228],"xSR":741.5,"ySR":469.95,"xT1":424.9,"yT1":0,"xT2":1058.1,"yT2":0,"toosoon":0,"cond_shown":"equaldotanddens","ratio_trial":900,"smaller_num":"9","larger_num":"10","correct_side":2,"subjID":"luciavelez14","gender":"1","age":"9","school":"4"},{"start_time":1552328347169,"click_time":1552328348224,"finger_time":1552328347964,"fix_duration":983.9565009184241,"trial":2,"RT":795,"MT":260,"sideResp":2,"stimulus":"img/750/randomdotsizeEA/R/15_Ratio_750_L_9_R_12.png","xmouse":[789,789,789,789,789,789,789,789,789,789,789,789,789,789,789,789,789,789,789,789,789,789,789,789,789,789,789,789,789,789,789,789,789,789,793,796,800,806,812,830,838,851,871,893,935,959,978,996,1010,1042,1059,1075,1090],"ymouse":[521,521,521,521,521,521,521,521,521,521,521,521,521,521,521,521,521,521,521,521,521,521,521,521,521,521,521,521,521,521,521,521,521,520,515,509,503,494,483,461,450,438,407,372,293,244,212,183,162,128,116,104,91],"timestamp_mouse":[15,36,55,76,95,116,137,156,176,196,217,236,256,275,297,316,335,355,376,395,416,435,456,475,496,516,536,556,575,596,617,635,656,675,695,715,736,756,775,795,815,835,856,876,895,915,937,955,976,995,1016,1035,1055],"xSR":741.5,"ySR":469.95,"xT1":424.9,"yT1":0,"xT2":1058.1,"yT2":0,"toosoon":0,"cond_shown":"randomdotsizeEA","ratio_trial":750,"smaller_num":"9","larger_num":"12","correct_side":2,"subjID":"luciavelez14","gender":"1","age":"9","school":"4"},{"start_time":1552328350987,"click_time":1552328352305,"finger_time":1552328351964,"fix_duration":980.1249541477874,"trial":3,"RT":977,"MT":341,"sideResp":1,"stimulus":"img/250/equaldotsize/L/3_Ratio_250_L_8_R_2.png","xmouse":[824,824,824,824,824,824,824,824,824,824,824,824,824,824,824,824,824,824,824,824,824,824,824,824,824,824,824,824,824,824,824,824,824,824,824,824,824,824,824,824,824,824,824,824,822,820,813,802,750,708,696,683,674,655,642,628,609,587,550,538,535,532,527,503,485,472],"ymouse":[517,517,517,517,517,517,517,517,517,517,517,517,517,517,517,517,517,517,517,517,517,517,517,517,517,517,517,517,517,517,517,517,517,517,517,517,517,517,517,517,517,517,517,517,516,514,506,494,441,383,358,335,307,245,211,187,165,147,126,119,117,115,113,105,100,96],"timestamp_mouse":[18,40,57,77,98,119,138,158,179,198,218,238,257,278,298,317,337,359,378,399,419,438,458,477,498,518,537,558,578,599,618,637,658,677,698,717,738,757,779,798,817,838,858,879,897,918,937,958,977,998,1018,1038,1058,1077,1097,1118,1138,1158,1179,1198,1217,1237,1257,1277,1298,1318],"xSR":741.5,"ySR":469.95,"xT1":424.9,"yT1":0,"xT2":1058.1,"yT2":0,"toosoon":0,"cond_shown":"equaldotsize","ratio_trial":250,"smaller_num":"2","larger_num":"8","correct_side":1,"subjID":"luciavelez14","gender":"1","age":"9","school":"4"},{"start_time":1552328354855,"click_time":1552328356524,"finger_time":1552328355784,"fix_duration":1169.3629821943803,"trial":4,"RT":929,"MT":740,"sideResp":1,"stimulus":"img/250/equaldotanddens/L/3_Ratio_250_L_8_R_2.png","xmouse":[777,777,777,777,777,777,777,777,777,777,777,777,777,777,777,777,777,777,777,777,777,777,777,777,777,777,777,777,777,777,777,777,777,777,777,777,777,777,777,777,777,777,777,777,773,768,742,723,695,656,560,507,419,402,393,364,345,342,341,341,349,352,354,354,354,356,361,373,385,399,405,408,408,406,406,409,415,417,417,417,418,419,421,430],"ymouse":[498,498,498,498,498,498,498,498,498,498,498,498,498,498,498,498,498,498,498,498,498,498,498,498,498,498,498,498,498,498,498,498,498,498,498,498,498,498,498,498,498,498,498,498,497,489,458,433,396,352,239,188,112,98,89,68,51,46,40,33,18,14,11,10,10,9,10,16,24,34,39,43,46,49,53,58,61,61,61,61,61,61,61,61],"timestamp_mouse":[13,37,50,70,89,110,129,150,169,191,209,230,251,269,289,310,330,350,370,390,409,430,450,469,491,509,530,550,569,589,611,630,650,669,689,711,729,750,771,789,810,830,850,871,889,909,929,949,970,989,1010,1030,1060,1069,1090,1109,1130,1149,1169,1189,1211,1229,1249,1269,1289,1311,1329,1349,1369,1390,1409,1429,1450,1469,1490,1511,1531,1549,1570,1590,1610,1630,1649,1669],"xSR":741.5,"ySR":469.95,"xT1":424.9,"yT1":0,"xT2":1058.1,"yT2":0,"toosoon":0,"cond_shown":"equaldotanddens","ratio_trial":250,"smaller_num":"2","larger_num":"8","correct_side":1,"subjID":"luciavelez14","gender":"1","age":"9","school":"4"},{"start_time":1552328357735,"click_time":1552328358924,"finger_time":1552328358604,"fix_duration":250,"trial":5,"RT":869,"MT":320,"sideResp":2,"stimulus":"img/900/randomdotsizeEA/R/15_Ratio_900_L_9_R_10.png","xmouse":[804,804,804,804,804,804,804,804,804,804,804,804,804,804,804,804,804,804,804,804,804,804,804,804,804,804,804,804,804,805,805,805,805,805,805,805,805,805,805,808,812,818,838,852,868,888,907,946,960,994,1009,1024,1046,1051,1055,1056,1057,1058,1058,1061],"ymouse":[494,494,494,494,494,494,494,494,495,496,498,498,499,499,499,499,499,499,499,499,499,499,499,499,499,499,499,499,499,499,499,499,499,499,499,499,499,499,499,499,499,496,480,466,450,429,407,353,326,265,223,179,118,104,95,89,88,88,87,87],"timestamp_mouse":[10,31,51,70,90,110,131,151,171,189,210,230,250,270,290,309,329,349,370,390,411,429,449,471,490,510,529,550,569,590,610,629,651,670,690,711,730,751,770,789,809,830,849,869,889,909,930,950,969,989,1011,1030,1049,1069,1090,1111,1130,1151,1169,1189],"xSR":741.5,"ySR":469.95,"xT1":424.9,"yT1":0,"xT2":1058.1,"yT2":0,"toosoon":0,"cond_shown":"randomdotsizeEA","ratio_trial":900,"smaller_num":"9","larger_num":"10","correct_side":2,"subjID":"luciavelez14","gender":"1","age":"9","school":"4"},{"start_time":1552328365662,"click_time":1552328367004,"finger_time":1552328366404,"fix_duration":373.8922306980097,"trial":6,"RT":742,"MT":600,"sideResp":2,"stimulus":"img/900/equaldotsize/L/1_Ratio_900_L_10_R_9.png","xmouse":[782,782,782,782,782,782,782,782,782,782,782,782,782,782,782,783,784,786,788,788,788,788,788,789,790,792,792,792,792,792,792,792,792,794,796,797,803,817,831,847,864,874,887,890,899,907,917,941,958,963,975,983,1004,1009,1016,1018,1021,1025,1027,1033,1038,1039,1040,1042,1042,1043,1045,1061],"ymouse":[510,510,510,510,510,510,510,510,510,510,510,510,510,510,510,510,510,510,510,510,510,510,510,510,510,511,511,511,511,511,511,511,511,511,511,510,498,461,414,357,295,252,183,171,149,129,112,70,48,43,37,37,43,46,49,50,50,50,47,43,41,41,38,37,36,36,36,44],"timestamp_mouse":[2,28,42,64,84,103,122,143,163,183,203,224,243,263,282,302,323,343,362,382,402,422,442,464,482,502,524,542,563,583,604,623,643,662,682,702,722,742,763,782,803,823,843,862,882,903,923,942,962,983,1003,1022,1042,1062,1083,1102,1123,1142,1162,1182,1202,1223,1243,1262,1282,1303,1323,1342],"xSR":741.5,"ySR":469.95,"xT1":424.9,"yT1":0,"xT2":1058.1,"yT2":0,"toosoon":0,"cond_shown":"equaldotsize","ratio_trial":900,"smaller_num":"9","larger_num":"10","correct_side":1,"subjID":"luciavelez14","gender":"1","age":"9","school":"4"},{"start_time":1552328371616,"click_time":1552328372706,"finger_time":1552328372504,"fix_duration":250,"trial":7,"RT":888,"MT":202,"sideResp":2,"stimulus":"img/900/equaldotsize/R/12_Ratio_900_L_18_R_20.png","xmouse":[771,771,771,771,771,771,771,771,771,771,771,771,771,771,771,771,771,771,771,771,771,771,771,771,771,771,771,771,771,771,771,771,771,771,771,771,771,771,771,771,779,789,799,811,825,855,863,874,886,931,962,995,1034,1077,1154],"ymouse":[524,524,524,524,524,524,524,524,524,524,524,524,524,524,524,524,524,524,524,524,524,524,524,524,524,524,524,524,524,524,524,524,524,524,524,524,524,524,524,523,518,507,491,473,449,397,378,356,331,257,222,184,147,100,20],"timestamp_mouse":[9,33,49,68,89,109,129,148,169,190,210,228,248,269,289,308,329,348,370,388,408,428,450,468,490,509,529,548,570,589,609,628,649,669,688,709,730,749,769,788,810,828,848,869,888,908,929,949,969,990,1008,1028,1048,1068,1090],"xSR":741.5,"ySR":469.95,"xT1":424.9,"yT1":0,"xT2":1058.1,"yT2":0,"toosoon":0,"cond_shown":"equaldotsize","ratio_trial":900,"smaller_num":"18","larger_num":"20","correct_side":2,"subjID":"luciavelez14","gender":"1","age":"9","school":"4"},{"start_time":1552328374156,"click_time":1552328375545,"finger_time":1552328375284,"fix_duration":310.7596816044872,"trial":8,"RT":1128,"MT":261,"sideResp":1,"stimulus":"img/500/equaldotanddens/L/7_Ratio_500_L_10_R_5.png","xmouse":[785,784,784,784,784,784,784,784,784,784,784,784,784,784,784,784,784,784,784,784,784,784,784,784,784,784,784,784,784,784,784,784,784,784,784,784,784,784,784,784,784,784,784,784,784,784,784,784,784,784,784,783,782,776,762,744,704,641,524,473,454,443,433,426,422,418,410,405,406,430],"ymouse":[522,522,522,522,522,522,522,522,522,522,522,522,522,522,522,522,522,522,522,522,522,522,522,522,522,522,522,522,522,522,522,522,522,522,522,522,522,522,522,522,522,522,522,522,522,522,522,522,522,522,522,522,522,521,514,502,473,430,326,272,244,223,205,189,182,176,160,139,84,40],"timestamp_mouse":[9,29,48,69,89,109,128,149,169,189,209,230,248,268,288,309,329,348,369,390,408,428,448,468,489,508,529,550,569,589,608,628,648,669,690,708,728,748,768,790,808,829,849,870,888,909,928,949,970,988,1009,1028,1048,1068,1088,1109,1128,1148,1168,1189,1208,1228,1248,1268,1288,1308,1328,1350,1368,1389],"xSR":741.5,"ySR":469.95,"xT1":424.9,"yT1":0,"xT2":1058.1,"yT2":0,"toosoon":0,"cond_shown":"equaldotanddens","ratio_trial":500,"smaller_num":"5","larger_num":"10","correct_side":1,"subjID":"luciavelez14","gender":"1","age":"9","school":"4"},{"start_time":1552328376798,"click_time":1552328379705,"finger_time":1552328378864,"fix_duration":271.21478898509764,"trial":9,"RT":2066,"MT":841,"sideResp":2,"stimulus":"img/750/randomdotsizeEA/R/12_Ratio_750_L_3_R_4.png","xmouse":[811,811,811,810,809,809,809,809,809,809,809,809,809,809,809,809,808,808,808,808,808,808,808,808,808,808,808,808,808,808,808,808,808,808,808,808,808,808,808,808,808,808,808,808,808,808,808,808,808,808,808,808,808,808,808,808,808,808,808,808,808,808,808,808,808,808,808,808,808,808,808,808,808,808,808,808,808,807,807,807,807,807,807,807,807,807,807,807,807,807,807,807,807,807,807,807,807,807,807,807,807,815,821,825,829,832,835,838,843,850,858,877,887,896,904,910,918,922,928,935,945,968,978,984,989,989,990,993,999,1008,1015,1022,1023,1023,1024,1025,1036,1041,1046,1051,1052,1053,1054,1055,1056,1060],"ymouse":[536,536,536,536,536,536,536,536,536,536,536,536,536,536,536,536,536,536,536,536,536,536,536,536,536,536,536,536,536,536,536,536,536,536,536,536,536,536,536,536,536,536,536,536,536,536,536,536,536,536,536,536,536,536,536,536,536,536,536,536,536,536,536,536,536,536,536,536,536,536,536,536,536,536,536,536,536,536,536,536,536,536,536,536,536,536,536,536,536,536,536,536,536,536,536,536,535,532,526,520,510,484,471,459,451,446,436,427,417,402,389,357,338,322,310,296,276,267,257,243,232,198,187,178,171,170,168,166,162,155,147,130,127,123,121,120,107,98,88,75,68,64,63,63,63,63],"timestamp_mouse":[12,36,46,67,87,107,126,147,167,186,207,227,247,266,288,306,326,347,368,387,406,427,446,467,487,506,527,546,568,587,606,626,647,666,687,706,727,746,768,787,807,827,847,866,888,907,928,948,966,987,1007,1026,1047,1068,1087,1107,1126,1148,1167,1187,1206,1227,1248,1266,1287,1307,1326,1347,1366,1387,1407,1426,1447,1468,1487,1506,1526,1546,1568,1587,1607,1628,1647,1667,1687,1707,1726,1747,1767,1788,1807,1826,1847,1866,1887,1907,1927,1947,1966,1987,2006,2027,2046,2066,2086,2106,2126,2147,2166,2188,2206,2227,2247,2267,2287,2308,2327,2346,2366,2387,2406,2427,2446,2467,2486,2507,2526,2547,2566,2586,2608,2627,2646,2666,2686,2707,2727,2747,2766,2786,2806,2827,2847,2867,2886,2906],"xSR":741.5,"ySR":469.95,"xT1":424.9,"yT1":0,"xT2":1058.1,"yT2":0,"toosoon":0,"cond_shown":"randomdotsizeEA","ratio_trial":750,"smaller_num":"3","larger_num":"4","correct_side":2,"subjID":"luciavelez14","gender":"1","age":"9","school":"4"},{"start_time":1552328381929,"click_time":1552328382925,"finger_time":1552328382764,"fix_duration":723.8859018282392,"trial":10,"RT":835,"MT":161,"sideResp":1,"stimulus":"img/500/equaldotsize/L/10_Ratio_500_L_4_R_2.png","xmouse":[814,814,814,814,814,814,814,814,814,814,814,814,814,814,814,814,814,814,814,814,814,814,814,814,814,814,814,814,814,814,814,814,814,814,814,814,814,814,814,814,783,736,673,607,537,455,440,439,438,440],"ymouse":[538,538,538,538,538,538,538,538,538,538,538,538,538,538,538,538,538,538,538,538,538,538,538,538,538,538,538,538,538,538,538,538,538,538,538,538,538,538,538,537,513,477,416,345,287,181,141,132,107,98],"timestamp_mouse":[15,37,56,75,96,116,137,157,176,195,215,237,256,276,296,315,335,356,375,397,417,436,455,476,497,515,535,557,576,597,617,636,655,675,696,716,736,756,775,796,815,835,856,875,895,915,935,956,976,996],"xSR":741.5,"ySR":469.95,"xT1":424.9,"yT1":0,"xT2":1058.1,"yT2":0,"toosoon":0,"cond_shown":"equaldotsize","ratio_trial":500,"smaller_num":"2","larger_num":"4","correct_side":1,"subjID":"luciavelez14","gender":"1","age":"9","school":"4"},{"start_time":1552328384850,"click_time":1552328386667,"finger_time":1552328385586,"fix_duration":704.9802264036107,"trial":11,"RT":736,"MT":1081,"sideResp":2,"stimulus":"img/750/randomdotsizeEA/R/4_Ratio_750_L_15_R_20.png","xmouse":[782,782,782,782,782,782,782,782,782,782,782,782,782,782,782,782,782,782,782,782,782,782,782,782,782,782,782,782,782,782,782,782,782,780,771,758,741,731,724,718,718,718,718,718,718,718,718,718,718,717,716,714,713,712,711,711,711,711,711,711,711,711,711,711,711,712,715,716,721,735,755,764,795,834,912,935,958,970,970,970,970,970,970,1011,1017,1020,1024,1028,1036,1057,1067],"ymouse":[528,528,528,528,528,528,528,528,528,528,528,528,528,528,528,528,528,528,528,528,528,528,528,528,528,528,528,528,528,528,528,528,528,528,526,519,509,502,496,491,489,487,486,484,481,480,479,479,479,479,479,479,479,479,481,481,482,482,482,483,483,484,485,486,489,491,495,495,496,496,478,464,410,331,151,80,26,1,1,1,1,1,1,0,3,5,8,11,16,28,30],"timestamp_mouse":[19,39,55,76,95,114,134,155,176,194,214,234,255,274,296,316,335,354,376,394,415,436,454,474,494,515,536,555,574,594,615,636,655,675,694,715,736,754,774,794,816,834,854,874,896,917,935,956,977,996,1017,1035,1055,1077,1096,1116,1136,1156,1176,1196,1216,1237,1256,1277,1295,1316,1336,1356,1375,1396,1415,1437,1457,1475,1495,1517,1536,1555,1576,1596,1616,1636,1657,1677,1695,1716,1736,1755,1777,1795,1816],"xSR":741.5,"ySR":469.95,"xT1":424.9,"yT1":0,"xT2":1058.1,"yT2":0,"toosoon":0,"cond_shown":"randomdotsizeEA","ratio_trial":750,"smaller_num":"15","larger_num":"20","correct_side":2,"subjID":"luciavelez14","gender":"1","age":"9","school":"4"},{"start_time":1552328389642,"click_time":1552328391426,"finger_time":1552328391006,"fix_duration":1454.6384780627327,"trial":12,"RT":1364,"MT":420,"sideResp":2,"stimulus":"img/750/randomdotsizeEA/R/12_Ratio_750_L_3_R_4.png","xmouse":[792,792,792,792,792,792,792,792,792,792,792,792,792,792,792,792,792,792,792,792,792,792,792,792,792,792,792,792,792,792,792,792,792,792,792,792,792,792,792,792,792,792,792,792,792,792,792,792,792,792,792,792,792,792,792,792,792,792,792,792,792,792,792,792,792,794,798,807,819,827,842,872,890,912,927,948,955,959,965,975,983,1002,1011,1021,1028,1035,1049,1053,1058,1059],"ymouse":[523,523,523,523,523,523,523,523,523,523,523,523,523,523,523,523,523,523,523,523,523,523,523,523,523,523,523,523,523,523,523,523,523,523,523,523,523,523,523,523,523,523,523,523,523,523,523,523,523,523,523,523,523,523,523,523,523,523,523,523,523,523,523,523,520,512,502,484,464,451,422,373,348,324,306,278,264,248,232,205,182,139,123,109,97,87,69,64,58,56],"timestamp_mouse":[12,30,44,63,85,103,123,145,163,184,204,225,244,264,285,303,325,343,364,385,404,424,445,464,484,504,524,545,565,584,604,623,643,663,683,703,724,743,764,785,804,825,844,863,884,904,924,945,964,985,1004,1024,1044,1064,1083,1104,1124,1145,1165,1185,1204,1224,1243,1263,1283,1304,1324,1345,1364,1383,1405,1423,1443,1464,1483,1505,1523,1543,1563,1584,1603,1623,1643,1664,1684,1704,1723,1744,1763,1784],"xSR":741.5,"ySR":469.95,"xT1":424.9,"yT1":0,"xT2":1058.1,"yT2":0,"toosoon":0,"cond_shown":"randomdotsizeEA","ratio_trial":750,"smaller_num":"3","larger_num":"4","correct_side":2,"subjID":"luciavelez14","gender":"1","age":"9","school":"4"},{"start_time":1552328414154,"click_time":1552328415586,"finger_time":1552328415006,"fix_duration":1047.7937218428222,"trial":13,"RT":852,"MT":580,"sideResp":2,"stimulus":"img/750/randomdotsizeEA/R/11_Ratio_750_L_12_R_16.png","xmouse":[801,801,801,801,801,801,801,801,801,801,801,801,801,801,801,801,801,801,801,801,801,801,801,801,801,801,801,801,801,801,801,801,801,801,801,801,801,801,801,801,801,805,833,852,881,909,939,995,1015,1032,1046,1057,1057,1057,1057,1057,1057,1057,1057,1057,1057,1057,1057,1057,1057,1057,1057,1057,1057,1057,1057,1099],"ymouse":[529,529,529,529,529,529,529,529,529,529,529,529,529,529,529,529,529,529,529,529,529,529,529,529,529,529,529,529,529,529,529,529,529,529,529,529,529,529,529,522,520,503,439,396,348,300,243,137,91,51,26,6,6,6,6,6,6,6,6,6,6,6,6,6,6,6,6,6,6,6,6,2],"timestamp_mouse":[12,38,52,73,91,112,131,153,172,191,213,231,252,271,293,312,331,351,371,392,413,431,453,472,491,511,533,553,573,592,611,633,652,672,691,712,731,751,773,792,811,831,852,871,891,912,932,953,971,991,1011,1032,1053,1072,1091,1111,1133,1152,1173,1193,1211,1231,1253,1272,1291,1313,1332,1352,1372,1391,1413,1432],"xSR":741.5,"ySR":469.95,"xT1":424.9,"yT1":0,"xT2":1058.1,"yT2":0,"toosoon":0,"cond_shown":"randomdotsizeEA","ratio_trial":750,"smaller_num":"12","larger_num":"16","correct_side":2,"subjID":"luciavelez14","gender":"1","age":"9","school":"4"},{"start_time":1552328418293,"click_time":1552328419866,"finger_time":1552328419226,"fix_duration":984.8171862640227,"trial":14,"RT":933,"MT":640,"sideResp":2,"stimulus":"img/750/randomdotsizeEA/R/15_Ratio_750_L_9_R_12.png","xmouse":[787,787,787,787,787,787,787,787,787,787,787,787,787,787,787,787,787,787,787,787,787,787,787,787,787,787,787,787,787,787,787,787,787,787,787,787,787,787,787,787,787,787,787,787,787,789,825,867,922,989,1065,1212,1260,1283,1283,1283,1283,1283,1283,1283,1283,1283,1283,1283,1283,1283,1185,1182,1179,1179,1178,1174,1172,1170,1169,1169,1167,1162,1154],"ymouse":[523,523,522,522,522,522,522,522,522,522,522,522,522,522,522,522,522,522,522,522,522,522,522,522,522,522,522,522,522,522,522,522,522,522,522,522,522,522,522,522,522,522,522,522,520,508,455,393,321,248,178,74,29,0,0,0,0,0,0,0,0,0,0,0,0,0,2,10,13,15,15,16,18,19,20,20,20,20,22],"timestamp_mouse":[13,32,52,74,92,112,133,152,174,192,213,233,253,272,292,313,334,352,373,394,414,434,454,472,493,514,533,552,573,593,612,634,653,673,693,714,733,752,773,792,814,833,853,872,893,913,933,954,972,992,1012,1032,1052,1072,1092,1113,1133,1153,1174,1192,1212,1232,1252,1273,1293,1313,1333,1352,1372,1392,1413,1432,1452,1472,1494,1512,1532,1552,1573],"xSR":741.5,"ySR":469.95,"xT1":424.9,"yT1":0,"xT2":1058.1,"yT2":0,"toosoon":0,"cond_shown":"randomdotsizeEA","ratio_trial":750,"smaller_num":"9","larger_num":"12","correct_side":2,"subjID":"luciavelez14","gender":"1","age":"9","school":"4"},{"start_time":1552328425408,"click_time":1552328427045,"finger_time":1552328426325,"fix_duration":539.9086970576233,"trial":15,"RT":917,"MT":720,"sideResp":2,"stimulus":"img/900/randomdotsizeEA/L/1_Ratio_900_L_10_R_9.png","xmouse":[784,784,783,783,783,783,783,783,783,783,783,783,783,783,783,783,782,781,781,780,780,780,780,780,780,780,780,780,780,780,780,780,780,780,780,780,780,780,780,780,782,798,810,832,839,863,892,910,939,969,997,1038,1057,1059,1067,1070,1072,1072,1074,1074,1078,1089,1095,1103,1107,1113,1117,1123,1131,1140,1148,1158,1164,1165,1165,1165,1165,1165,1165,1161,1160,1146],"ymouse":[512,512,512,512,512,512,512,512,512,512,512,512,512,512,512,512,512,513,514,515,515,515,515,515,515,515,515,515,515,515,515,515,515,515,515,515,515,515,515,516,516,512,507,493,488,465,430,409,376,343,316,281,263,260,252,246,241,239,235,230,222,202,193,181,173,160,154,148,141,132,126,114,107,105,105,103,102,102,100,99,98,92],"timestamp_mouse":[21,42,57,77,99,118,139,158,178,197,218,238,258,278,298,317,338,357,377,398,417,437,459,479,498,517,538,559,578,597,618,637,658,678,698,719,738,757,777,797,817,838,859,878,897,917,938,957,977,997,1018,1037,1057,1077,1098,1117,1137,1159,1178,1198,1217,1237,1257,1278,1298,1319,1337,1358,1378,1397,1418,1437,1458,1478,1498,1519,1538,1558,1578,1597,1617,1637],"xSR":741.5,"ySR":469.95,"xT1":424.9,"yT1":0,"xT2":1058.1,"yT2":0,"toosoon":0,"cond_shown":"randomdotsizeEA","ratio_trial":900,"smaller_num":"9","larger_num":"10","correct_side":1,"subjID":"luciavelez14","gender":"1","age":"9","school":"4"},{"start_time":1552328430539,"click_time":1552328432866,"finger_time":1552328432186,"fix_duration":1412.8720199837653,"trial":16,"RT":1647,"MT":680,"sideResp":2,"stimulus":"img/900/equaldotanddens/L/8_Ratio_900_L_20_R_18.png","xmouse":[794,794,794,794,794,794,794,793,793,793,793,793,793,793,793,793,793,793,793,792,792,792,792,792,792,792,792,792,792,792,792,792,792,792,792,792,792,792,792,792,792,792,791,791,791,791,791,791,790,790,789,789,788,788,788,788,788,788,788,788,787,786,786,786,786,786,786,786,786,785,783,783,782,782,782,782,782,782,783,785,800,808,819,837,869,959,994,1019,1038,1045,1054,1056,1057,1059,1066,1113,1140,1165,1181,1197,1215,1217,1217,1217,1217,1215,1209,1204,1199,1191,1185,1171,1166,1164,1162,1160,1158],"ymouse":[517,517,517,517,517,517,517,518,518,518,518,518,518,518,518,518,518,518,518,518,518,518,518,518,518,518,518,518,518,518,518,518,518,518,518,518,518,518,518,518,518,518,518,518,518,518,518,518,518,518,518,517,516,516,516,516,516,516,516,516,516,516,516,516,516,516,516,516,516,516,516,516,516,516,516,516,516,516,511,508,487,472,456,438,420,353,321,293,263,244,217,208,201,193,182,137,114,88,72,60,45,43,43,43,42,42,41,41,40,39,39,40,41,41,41,41,41],"timestamp_mouse":[10,26,46,66,88,108,127,147,166,188,207,228,248,266,286,306,327,348,368,386,408,426,446,467,487,507,526,546,568,588,606,627,646,667,688,708,727,747,767,787,807,827,847,866,886,906,928,947,967,986,1007,1027,1046,1068,1087,1106,1128,1147,1166,1186,1207,1227,1247,1266,1288,1306,1328,1347,1367,1387,1406,1427,1447,1467,1487,1507,1526,1546,1567,1586,1606,1626,1646,1667,1688,1707,1727,1746,1766,1786,1807,1826,1847,1867,1887,1908,1926,1946,1967,1987,2008,2026,2048,2068,2086,2107,2128,2147,2167,2187,2207,2226,2246,2267,2287,2306,2327],"xSR":741.5,"ySR":469.95,"xT1":424.9,"yT1":0,"xT2":1058.1,"yT2":0,"toosoon":0,"cond_shown":"equaldotanddens","ratio_trial":900,"smaller_num":"18","larger_num":"20","correct_side":1,"subjID":"luciavelez14","gender":"1","age":"9","school":"4"},{"start_time":1552328436728,"click_time":1552328438966,"finger_time":1552328438546,"fix_duration":1021.5780328886964,"trial":17,"RT":1818,"MT":420,"sideResp":2,"stimulus":"img/750/randomdotsizeEA/R/7_Ratio_750_L_3_R_4.png","xmouse":[778,778,778,780,783,787,794,797,799,800,800,800,800,800,800,800,800,800,800,800,800,800,800,800,800,800,799,798,797,797,797,796,796,795,795,795,795,795,795,795,795,795,795,795,795,795,795,795,795,792,792,791,789,788,787,786,784,783,781,780,777,776,775,775,775,775,775,775,775,775,775,775,776,778,779,780,782,783,784,785,787,789,791,792,794,796,806,816,823,840,856,925,1002,1051,1100,1140,1181,1190,1193,1195,1195,1201,1207,1211,1211,1211,1211,1211,1211,1211,1211,1148],"ymouse":[511,511,511,511,511,511,511,511,511,511,511,511,511,511,511,511,511,511,511,511,511,511,511,511,511,511,511,511,512,512,512,512,512,512,512,512,512,512,512,512,512,512,512,512,512,512,512,512,512,512,512,512,512,512,512,512,512,513,513,513,513,514,516,516,516,517,517,517,517,517,517,518,520,521,523,523,524,524,524,524,524,524,524,522,519,514,501,490,483,475,462,409,344,285,231,181,110,89,74,59,51,25,13,3,3,3,3,3,3,3,3,27],"timestamp_mouse":[18,44,57,77,98,117,137,157,177,197,219,238,258,277,299,319,338,358,379,397,418,439,459,477,498,518,539,559,577,599,617,638,659,679,698,719,739,758,779,798,817,839,857,877,899,917,939,957,977,997,1018,1038,1058,1078,1098,1117,1137,1157,1178,1198,1218,1238,1259,1278,1298,1318,1339,1357,1377,1397,1418,1438,1457,1478,1499,1517,1537,1557,1578,1597,1618,1637,1657,1677,1699,1717,1738,1757,1777,1798,1818,1837,1859,1877,1897,1917,1937,1957,1978,1998,2018,2038,2058,2077,2097,2117,2137,2158,2178,2198,2218,2237],"xSR":741.5,"ySR":469.95,"xT1":424.9,"yT1":0,"xT2":1058.1,"yT2":0,"toosoon":0,"cond_shown":"randomdotsizeEA","ratio_trial":750,"smaller_num":"3","larger_num":"4","correct_side":2,"subjID":"luciavelez14","gender":"1","age":"9","school":"4"},{"start_time":1552328441423,"click_time":1552328442967,"finger_time":1552328442286,"fix_duration":1116.6480029119944,"trial":18,"RT":863,"MT":681,"sideResp":2,"stimulus":"img/900/randomdotsizeEA/L/2_Ratio_900_L_20_R_18.png","xmouse":[792,792,792,792,792,792,792,792,792,792,792,792,792,792,792,792,792,792,792,792,792,792,792,792,792,792,792,792,792,792,792,792,792,792,792,792,792,792,792,792,791,794,811,847,867,884,897,917,954,969,985,997,1009,1031,1040,1047,1055,1061,1066,1071,1077,1083,1099,1106,1113,1124,1126,1137,1144,1149,1150,1150,1150,1149,1145,1143,1138,1138],"ymouse":[522,522,522,522,522,522,522,522,522,522,522,522,522,522,522,522,522,522,522,522,522,522,522,522,522,522,522,522,522,522,522,522,522,522,522,522,522,522,522,522,524,524,524,518,511,504,497,484,457,442,423,402,382,345,328,314,300,281,261,248,235,219,190,177,167,156,151,132,121,113,108,106,105,104,103,102,100,98],"timestamp_mouse":[12,23,43,63,82,102,123,143,163,182,203,223,243,263,283,302,322,344,362,382,403,424,442,462,482,504,523,542,564,583,602,623,643,664,682,702,724,743,764,782,802,823,842,863,882,902,922,943,963,983,1004,1024,1043,1063,1083,1102,1123,1144,1163,1182,1202,1222,1244,1262,1283,1303,1324,1343,1362,1382,1402,1424,1443,1462,1482,1502,1523,1544],"xSR":741.5,"ySR":469.95,"xT1":424.9,"yT1":0,"xT2":1058.1,"yT2":0,"toosoon":0,"cond_shown":"randomdotsizeEA","ratio_trial":900,"smaller_num":"18","larger_num":"20","correct_side":1,"subjID":"luciavelez14","gender":"1","age":"9","school":"4"},{"start_time":1552328447954,"click_time":1552328450487,"finger_time":1552328449487,"fix_duration":1066.7394968466892,"trial":19,"RT":1533,"MT":1000,"sideResp":1,"stimulus":"img/750/equaldotanddens/L/6_Ratio_750_L_24_R_18.png","xmouse":[787,787,787,787,787,787,787,787,787,786,786,786,786,786,786,786,786,786,786,786,786,786,786,786,786,785,785,784,784,784,784,784,784,784,784,784,784,784,784,784,784,784,784,784,784,784,784,784,784,784,784,784,784,784,784,784,784,784,784,784,784,784,784,784,784,784,784,783,783,780,779,777,773,768,763,752,733,725,717,710,703,679,666,653,638,623,585,570,554,541,527,503,495,490,487,485,485,485,485,485,485,485,484,481,474,466,443,443,443,447,452,457,457,457,457,457,457,457,458,458,458,458,458,458,458,456,454],"ymouse":[500,500,500,500,500,500,501,502,503,504,505,506,506,507,507,507,508,508,508,508,508,508,508,508,508,509,510,511,512,513,514,514,514,514,514,514,514,514,514,514,514,514,514,514,514,514,514,514,514,514,514,514,514,514,514,513,513,513,513,513,513,513,513,513,513,513,513,513,513,514,514,514,513,506,498,484,452,432,412,399,382,350,334,325,316,312,300,294,286,278,267,252,247,243,241,240,237,235,232,229,224,211,205,196,188,179,158,150,140,131,120,114,114,114,114,114,114,114,113,113,112,111,109,106,105,100,94],"timestamp_mouse":[13,33,53,73,93,113,133,152,172,194,212,233,254,272,292,313,333,353,373,394,412,432,453,474,494,513,533,553,574,594,613,632,653,673,692,712,733,753,773,792,813,833,852,873,892,913,933,954,972,993,1013,1033,1054,1073,1093,1113,1132,1153,1173,1193,1214,1232,1252,1272,1293,1312,1332,1353,1372,1392,1414,1433,1453,1473,1492,1513,1533,1553,1573,1594,1613,1633,1652,1672,1693,1713,1734,1753,1772,1793,1812,1833,1852,1872,1892,1913,1934,1952,1972,1993,2012,2034,2052,2073,2092,2113,2134,2153,2173,2192,2212,2233,2253,2273,2293,2314,2333,2353,2372,2394,2414,2433,2452,2473,2493,2513,2533],"xSR":741.5,"ySR":469.95,"xT1":424.9,"yT1":0,"xT2":1058.1,"yT2":0,"toosoon":0,"cond_shown":"equaldotanddens","ratio_trial":750,"smaller_num":"18","larger_num":"24","correct_side":1,"subjID":"luciavelez14","gender":"1","age":"9","school":"4"},{"start_time":1552328454292,"click_time":1552328456528,"finger_time":1552328455667,"fix_duration":482.66384210108515,"trial":20,"RT":1375,"MT":861,"sideResp":2,"stimulus":"img/500/equaldotsize/R/2_Ratio_500_L_3_R_6.png","xmouse":[782,782,782,782,782,782,782,782,782,782,782,782,782,782,782,782,782,782,782,782,782,782,782,782,782,782,782,782,782,782,782,782,782,782,782,782,782,782,782,782,782,782,782,782,782,782,782,782,782,782,782,782,782,782,782,782,782,782,782,782,782,782,782,782,783,793,810,838,856,870,888,894,898,906,913,939,958,967,975,980,988,993,1002,1016,1044,1139,1179,1192,1204,1212,1212,1212,1212,1212,1212,1212,1211,1209,1209,1209,1206,1201,1197,1194,1190,1182,1179,1175,1172,1170,1159,1155],"ymouse":[521,521,521,521,521,521,521,521,521,521,521,521,521,521,521,521,521,521,521,521,521,521,521,521,521,521,521,521,521,521,521,521,521,521,521,521,521,521,521,521,521,521,521,521,521,521,521,521,521,521,521,521,521,521,521,521,521,521,521,521,521,521,521,521,521,521,521,521,520,517,501,490,481,468,461,436,411,397,383,370,346,336,321,310,299,261,237,223,206,164,144,126,107,87,71,37,29,26,26,26,26,26,28,28,30,33,35,36,39,42,56,61],"timestamp_mouse":[16,36,54,75,94,114,135,154,176,195,214,235,254,275,296,314,335,355,374,394,416,436,456,474,496,515,536,555,575,596,615,635,655,675,695,716,736,755,775,795,816,835,855,876,896,915,934,956,976,994,1014,1034,1056,1076,1094,1116,1136,1155,1174,1194,1216,1236,1254,1275,1294,1315,1336,1355,1375,1394,1414,1434,1455,1475,1494,1515,1535,1554,1574,1594,1615,1634,1655,1675,1696,1715,1735,1754,1775,1801,1815,1834,1854,1875,1896,1915,1935,1955,1974,1994,2015,2034,2055,2074,2094,2115,2134,2154,2174,2194,2215,2235],"xSR":741.5,"ySR":469.95,"xT1":424.9,"yT1":0,"xT2":1058.1,"yT2":0,"toosoon":0,"cond_shown":"equaldotsize","ratio_trial":500,"smaller_num":"3","larger_num":"6","correct_side":2,"subjID":"luciavelez14","gender":"1","age":"9","school":"4"},{"start_time":1552328459484,"click_time":1552328461326,"finger_time":1552328460626,"fix_duration":874.2588901912782,"trial":21,"RT":1142,"MT":700,"sideResp":1,"stimulus":"img/500/equaldotanddens/L/13_Ratio_500_L_12_R_6.png","xmouse":[807,807,807,807,807,807,807,807,807,807,807,807,807,807,807,807,807,807,807,807,807,807,807,807,807,807,807,807,807,807,807,807,807,807,807,807,807,807,807,807,807,807,807,806,805,805,805,804,804,804,804,805,816,824,826,834,838,843,844,844,845,845,849,856,876,885,916,946,957,963,965,966,962,955,954,946,940,918,906,890,879,867,842,828,816,788,735,698,659,617,577,546,497],"ymouse":[510,510,510,510,510,510,510,510,510,510,510,510,510,510,510,510,510,510,510,510,510,510,510,510,510,510,510,510,510,510,510,510,510,510,510,510,510,510,510,510,510,510,513,514,516,517,518,518,518,518,519,519,512,498,495,479,470,460,455,450,443,433,404,390,365,358,330,295,277,261,255,244,225,218,216,214,211,207,203,198,194,189,178,173,167,154,126,111,91,70,53,37,16],"timestamp_mouse":[12,33,43,64,82,103,123,142,163,183,203,222,244,263,283,303,323,343,362,383,404,423,444,464,483,504,524,544,564,583,604,623,643,663,684,702,723,744,763,782,804,823,842,864,883,904,922,943,963,982,1003,1024,1043,1063,1082,1103,1122,1142,1163,1182,1202,1224,1243,1263,1283,1304,1322,1342,1362,1383,1402,1423,1442,1463,1482,1502,1522,1542,1562,1582,1602,1623,1642,1663,1683,1703,1724,1743,1763,1783,1802,1824,1842],"xSR":741.5,"ySR":469.95,"xT1":424.9,"yT1":0,"xT2":1058.1,"yT2":0,"toosoon":0,"cond_shown":"equaldotanddens","ratio_trial":500,"smaller_num":"6","larger_num":"12","correct_side":1,"subjID":"luciavelez14","gender":"1","age":"9","school":"4"},{"start_time":1552328465424,"click_time":1552328467206,"finger_time":1552328466366,"fix_duration":1474.946431860282,"trial":22,"RT":942,"MT":840,"sideResp":2,"stimulus":"img/250/equaldotanddens/R/6_Ratio_250_L_6_R_24.png","xmouse":[780,780,780,780,780,780,780,780,780,780,780,780,780,780,780,780,780,780,780,780,780,780,780,780,780,780,780,780,780,780,780,780,780,780,780,780,780,780,780,780,780,780,780,780,780,784,789,794,798,804,809,824,831,838,849,867,875,886,894,901,916,920,925,931,935,946,951,957,965,970,983,988,995,998,1000,1007,1010,1014,1017,1022,1032,1036,1040,1043,1046,1058,1063,1067,1071,1075],"ymouse":[498,498,498,498,498,498,498,498,498,498,498,498,498,498,498,498,498,498,498,498,498,498,498,498,498,498,498,498,498,498,498,498,498,498,498,498,498,498,498,498,498,498,498,498,498,486,473,460,452,438,423,375,347,317,282,244,228,211,200,188,163,155,148,141,134,129,129,128,126,125,119,117,115,113,112,109,108,107,107,106,103,103,103,103,103,103,103,103,101,99],"timestamp_mouse":[10,23,43,63,83,102,124,144,164,182,204,222,242,264,282,304,324,342,363,384,404,422,442,462,483,502,523,543,564,583,603,623,643,662,682,702,724,743,764,783,803,824,843,862,884,903,923,942,964,983,1003,1022,1042,1062,1083,1103,1123,1142,1163,1182,1203,1222,1243,1264,1283,1303,1322,1343,1362,1382,1403,1422,1442,1462,1483,1503,1522,1543,1563,1583,1603,1623,1642,1662,1683,1704,1722,1743,1762,1782],"xSR":741.5,"ySR":469.95,"xT1":424.9,"yT1":0,"xT2":1058.1,"yT2":0,"toosoon":0,"cond_shown":"equaldotanddens","ratio_trial":250,"smaller_num":"6","larger_num":"24","correct_side":2,"subjID":"luciavelez14","gender":"1","age":"9","school":"4"},{"start_time":1552328469112,"click_time":1552328470607,"finger_time":1552328470006,"fix_duration":382.3694920621136,"trial":23,"RT":894,"MT":601,"sideResp":2,"stimulus":"img/500/equaldotsize/R/6_Ratio_500_L_9_R_18.png","xmouse":[775,775,775,775,775,775,775,775,775,775,775,775,775,775,775,775,775,775,775,775,775,775,775,775,775,775,775,775,775,775,775,775,775,775,775,775,775,775,775,775,780,790,796,801,807,814,834,845,866,881,896,928,943,955,968,993,1016,1019,1027,1030,1034,1035,1035,1037,1039,1044,1056,1060,1068,1072,1074,1077,1079,1081,1085],"ymouse":[526,526,526,526,526,526,526,526,526,526,526,526,526,526,526,526,526,526,526,526,526,526,526,526,526,526,526,526,526,526,526,526,526,526,526,526,526,526,525,524,516,497,485,472,455,436,392,376,346,328,314,291,282,274,262,248,234,231,215,204,197,190,186,183,177,168,150,139,121,113,107,103,101,100,97],"timestamp_mouse":[23,34,54,74,96,115,136,155,175,196,215,234,254,275,296,314,334,355,374,394,415,436,456,476,496,516,534,555,574,596,615,635,655,674,696,716,734,755,775,795,814,835,854,876,894,914,934,954,974,995,1015,1034,1054,1074,1094,1117,1135,1156,1175,1195,1214,1235,1255,1274,1294,1315,1334,1355,1375,1395,1414,1434,1456,1475,1495],"xSR":741.5,"ySR":469.95,"xT1":424.9,"yT1":0,"xT2":1058.1,"yT2":0,"toosoon":0,"cond_shown":"equaldotsize","ratio_trial":500,"smaller_num":"9","larger_num":"18","correct_side":2,"subjID":"luciavelez14","gender":"1","age":"9","school":"4"},{"start_time":1552328484334,"click_time":1552328485347,"finger_time":1552328485187,"fix_duration":765.5983364564187,"trial":24,"RT":853,"MT":160,"sideResp":2,"stimulus":"img/500/equaldotanddens/R/15_Ratio_500_L_1_R_2.png","xmouse":[792,792,792,792,792,792,792,792,792,792,792,792,792,792,792,792,792,792,792,792,792,792,792,792,792,792,792,792,792,792,792,792,792,792,792,792,792,792,791,791,794,798,822,840,867,900,969,1016,1055,1082,1102],"ymouse":[530,530,530,530,530,530,530,530,530,530,530,530,530,530,530,530,530,530,530,530,530,530,530,530,530,530,530,530,530,530,530,530,530,530,530,530,530,530,530,528,511,496,444,405,350,289,197,162,133,114,99],"timestamp_mouse":[13,33,53,72,93,112,134,152,173,194,213,234,253,274,294,313,333,353,373,393,414,432,453,474,494,513,532,553,573,594,613,634,654,673,692,713,733,754,773,793,813,832,853,872,893,912,934,952,973,994,1013],"xSR":741.5,"ySR":469.95,"xT1":424.9,"yT1":0,"xT2":1058.1,"yT2":0,"toosoon":0,"cond_shown":"equaldotanddens","ratio_trial":500,"smaller_num":"1","larger_num":"2","correct_side":2,"subjID":"luciavelez14","gender":"1","age":"9","school":"4"},{"start_time":1552328488102,"click_time":1552328489487,"finger_time":1552328488887,"fix_duration":634.4328557719972,"trial":25,"RT":785,"MT":600,"sideResp":2,"stimulus":"img/900/equaldotanddens/L/2_Ratio_900_L_20_R_18.png","xmouse":[768,768,768,768,768,768,768,768,768,768,768,768,768,768,768,768,768,768,768,768,768,768,768,768,768,768,768,768,768,768,768,768,768,768,768,768,771,775,785,835,884,915,929,938,943,944,947,952,959,981,999,1009,1016,1022,1027,1027,1027,1027,1028,1031,1035,1036,1038,1038,1038,1040,1044,1048,1057,1060],"ymouse":[521,521,521,521,521,521,521,521,521,521,521,521,521,521,521,521,521,521,521,521,521,521,521,521,521,521,521,521,521,521,521,521,521,521,521,521,515,508,493,426,353,307,272,245,201,182,165,147,132,99,77,66,58,52,48,47,47,47,47,47,47,47,47,47,47,47,49,52,55,55],"timestamp_mouse":[12,31,46,66,86,104,124,145,165,186,205,224,244,265,286,305,325,344,364,385,405,425,445,466,486,506,524,545,565,586,604,624,644,665,685,704,725,744,765,785,805,824,844,864,886,905,925,944,966,984,1005,1025,1045,1066,1085,1105,1124,1146,1165,1185,1205,1225,1244,1265,1285,1305,1324,1344,1366,1385],"xSR":741.5,"ySR":469.95,"xT1":424.9,"yT1":0,"xT2":1058.1,"yT2":0,"toosoon":0,"cond_shown":"equaldotanddens","ratio_trial":900,"smaller_num":"18","larger_num":"20","correct_side":1,"subjID":"luciavelez14","gender":"1","age":"9","school":"4"},{"start_time":1552328505269,"click_time":1552328506726,"finger_time":1552328506208,"fix_duration":1019.0483203783183,"trial":26,"RT":939,"MT":518,"sideResp":2,"stimulus":"img/500/equaldotsize/R/2_Ratio_500_L_3_R_6.png","xmouse":[755,755,755,755,757,758,759,759,759,759,759,759,759,759,759,759,759,759,759,759,759,759,759,759,759,759,759,759,759,759,759,759,759,759,759,759,759,759,759,759,759,759,759,759,766,780,799,893,945,994,1018,1027,1033,1035,1036,1037,1040,1048,1053,1055,1057,1058,1059,1059,1059,1059,1059,1062,1065,1074,1081,1088,1094,1100],"ymouse":[511,511,511,511,511,511,512,512,512,512,512,512,512,512,512,512,512,512,512,512,512,512,512,512,512,512,512,512,512,512,512,512,512,512,512,512,512,512,512,512,512,512,512,512,512,500,476,357,297,234,194,171,156,148,148,148,148,147,145,144,143,142,141,141,141,141,141,138,135,128,122,115,108,96],"timestamp_mouse":[1,17,37,58,79,98,117,139,157,178,199,219,237,258,278,298,318,338,358,377,399,418,438,458,479,499,517,538,559,579,598,619,638,659,677,697,719,737,758,779,799,818,837,858,877,898,919,939,958,978,997,1017,1038,1058,1077,1098,1118,1139,1158,1179,1199,1218,1238,1257,1278,1298,1319,1339,1357,1377,1399,1417,1438,1457],"xSR":741.5,"ySR":469.95,"xT1":424.9,"yT1":0,"xT2":1058.1,"yT2":0,"toosoon":0,"cond_shown":"equaldotsize","ratio_trial":500,"smaller_num":"3","larger_num":"6","correct_side":2,"subjID":"luciavelez14","gender":"1","age":"9","school":"4"},{"start_time":1552328511888,"click_time":1552328512988,"finger_time":1552328512748,"fix_duration":1078.3863587040744,"trial":27,"RT":860,"MT":240,"sideResp":2,"stimulus":"img/750/equaldotsize/R/3_Ratio_750_L_15_R_20.png","xmouse":[785,785,785,784,783,783,783,783,783,783,783,783,783,783,783,783,783,783,783,783,783,783,783,783,783,783,783,783,783,783,783,783,783,783,783,783,783,783,783,783,783,788,795,812,820,830,841,880,918,964,1008,1081,1110,1130,1131,1131],"ymouse":[539,539,539,538,537,537,537,537,537,537,537,537,537,537,537,537,537,537,537,537,537,537,537,537,537,537,537,537,537,537,537,537,537,537,537,537,537,537,532,526,516,495,480,452,435,410,382,308,263,220,187,150,135,114,101,90],"timestamp_mouse":[1,19,39,59,80,100,120,139,161,181,199,220,239,259,279,300,320,340,359,380,399,419,439,461,480,500,520,539,559,580,600,620,639,660,679,700,720,739,760,779,799,819,839,860,879,899,919,940,959,980,999,1019,1039,1060,1081,1100],"xSR":741.5,"ySR":469.95,"xT1":424.9,"yT1":0,"xT2":1058.1,"yT2":0,"toosoon":0,"cond_shown":"equaldotsize","ratio_trial":750,"smaller_num":"15","larger_num":"20","correct_side":2,"subjID":"luciavelez14","gender":"1","age":"9","school":"4"},{"start_time":1552328514400,"click_time":1552328516447,"finger_time":1552328515609,"fix_duration":330.2868674688787,"trial":28,"RT":1209,"MT":838,"sideResp":2,"stimulus":"img/750/equaldotanddens/R/2_Ratio_750_L_6_R_8.png","xmouse":[830,830,826,826,826,826,826,826,826,826,826,826,826,826,826,826,824,824,823,823,823,823,823,823,823,823,823,823,823,823,823,823,823,823,823,823,823,823,823,822,822,820,819,819,817,816,814,813,812,811,811,811,811,811,812,813,816,820,821,821,821,816,805,802,802,806,812,825,828,832,839,844,864,890,914,950,994,1113,1169,1204,1228,1242,1256,1256,1256,1255,1252,1237,1225,1210,1198,1192,1187,1184,1183,1183,1183,1183,1183,1182,1174,1159,1109],"ymouse":[541,541,541,541,541,541,541,541,541,541,541,541,541,541,541,541,541,541,540,540,540,540,540,540,540,540,540,540,540,540,540,540,540,540,537,537,536,536,536,535,535,535,535,535,535,535,535,535,535,534,534,534,534,534,533,533,531,512,493,472,447,426,389,367,352,333,317,282,270,249,230,211,179,164,157,151,146,130,118,104,92,82,65,62,59,57,54,42,35,29,26,24,24,24,26,27,29,30,31,32,34,38,46],"timestamp_mouse":[10,27,48,68,87,108,129,147,168,187,207,227,247,268,288,308,329,347,369,387,407,428,448,467,487,508,528,548,567,587,607,628,648,668,688,707,728,748,767,787,808,829,849,867,888,907,927,947,968,989,1007,1027,1047,1068,1087,1109,1127,1147,1169,1188,1209,1228,1247,1268,1288,1308,1329,1348,1369,1387,1407,1428,1447,1468,1487,1508,1528,1548,1567,1587,1607,1628,1647,1668,1688,1707,1727,1747,1769,1788,1808,1827,1847,1867,1887,1908,1927,1948,1968,1988,2007,2028,2047],"xSR":741.5,"ySR":469.95,"xT1":424.9,"yT1":0,"xT2":1058.1,"yT2":0,"toosoon":0,"cond_shown":"equaldotanddens","ratio_trial":750,"smaller_num":"6","larger_num":"8","correct_side":2,"subjID":"luciavelez14","gender":"1","age":"9","school":"4"},{"start_time":1552328521416,"click_time":1552328523149,"finger_time":1552328522367,"fix_duration":1427.8995842560687,"trial":29,"RT":951,"MT":782,"sideResp":1,"stimulus":"img/250/equaldotsize/L/5_Ratio_250_L_24_R_6.png","xmouse":[775,775,775,775,775,775,775,775,775,775,775,775,775,775,775,775,775,775,775,775,775,775,775,775,775,775,775,775,775,775,775,775,775,775,775,775,775,775,775,775,775,775,775,775,771,767,756,725,711,701,693,685,653,628,593,568,546,534,534,537,537,534,526,519,514,513,512,512,512,510,509,508,507,507,507,507,507,507,507,507,506,505,505,505,505,505,504],"ymouse":[512,512,512,512,512,512,512,512,512,512,512,512,512,512,512,512,512,512,512,512,512,512,513,513,513,514,514,514,514,514,514,514,514,514,514,514,514,514,514,515,516,516,516,516,516,516,509,487,475,464,450,439,409,388,367,350,336,310,295,271,254,224,207,195,187,184,183,178,174,164,156,149,141,139,139,139,139,130,125,115,109,106,104,103,103,101,97],"timestamp_mouse":[12,31,52,71,93,111,131,151,172,192,212,231,251,271,292,314,332,351,372,393,411,431,452,471,491,512,533,553,571,592,611,632,652,672,691,711,732,751,771,791,811,832,853,871,891,913,931,951,971,991,1012,1031,1051,1071,1091,1112,1131,1151,1171,1192,1212,1233,1251,1272,1292,1311,1331,1351,1372,1391,1411,1432,1452,1471,1492,1512,1531,1551,1572,1591,1613,1632,1652,1671,1692,1712,1732],"xSR":741.5,"ySR":469.95,"xT1":424.9,"yT1":0,"xT2":1058.1,"yT2":0,"toosoon":0,"cond_shown":"equaldotsize","ratio_trial":250,"smaller_num":"6","larger_num":"24","correct_side":1,"subjID":"luciavelez14","gender":"1","age":"9","school":"4"},{"start_time":1552328525122,"click_time":1552328527768,"finger_time":1552328527167,"fix_duration":472.36868613451765,"trial":30,"RT":2045,"MT":601,"sideResp":1,"stimulus":"img/750/equaldotsize/L/14_Ratio_750_L_8_R_6.png","xmouse":[798,798,798,798,798,799,799,799,799,799,799,799,799,799,799,799,799,799,799,799,799,799,799,799,799,799,799,799,799,799,799,799,799,799,799,799,799,799,799,799,799,799,799,799,799,799,799,799,799,799,799,799,799,799,799,799,799,799,799,799,799,799,799,799,799,799,799,799,799,799,799,799,799,799,799,799,799,800,800,800,800,800,800,800,800,800,800,800,800,800,800,800,796,796,795,795,794,793,790,786,781,762,711,677,636,611,592,575,570,566,558,552,537,528,517,506,500,498,498,497,496,495,490,488,487,487,487,487,487,487,487,484,476],"ymouse":[515,515,514,514,514,513,513,513,513,513,513,513,513,513,513,513,513,513,513,513,513,513,513,513,513,513,513,513,513,513,513,513,513,513,513,513,513,513,513,513,513,513,513,513,513,513,513,513,513,513,513,513,513,513,513,513,513,513,513,513,513,513,513,513,513,513,513,513,513,513,513,513,513,513,513,513,512,512,514,515,516,516,516,516,516,516,516,516,516,516,517,517,518,518,518,518,518,518,518,518,518,506,467,440,413,389,371,338,324,308,291,275,239,226,210,194,183,170,167,163,159,152,126,117,115,115,115,115,115,114,111,105,95],"timestamp_mouse":[5,27,45,65,86,106,126,146,165,185,206,225,245,265,287,306,325,345,366,385,405,426,446,465,485,506,525,545,567,586,606,625,645,666,685,705,726,745,765,786,806,825,845,866,886,905,926,945,965,986,1005,1027,1045,1066,1085,1106,1126,1146,1165,1186,1207,1226,1245,1265,1285,1305,1326,1345,1366,1386,1405,1426,1445,1465,1487,1505,1525,1545,1566,1585,1605,1625,1647,1666,1686,1705,1726,1745,1765,1786,1805,1826,1846,1865,1885,1906,1925,1945,1967,1987,2005,2025,2045,2065,2085,2105,2127,2145,2165,2185,2206,2225,2246,2266,2286,2305,2326,2345,2365,2385,2406,2425,2446,2465,2485,2506,2526,2546,2566,2585,2607,2627,2645],"xSR":741.5,"ySR":469.95,"xT1":424.9,"yT1":0,"xT2":1058.1,"yT2":0,"toosoon":0,"cond_shown":"equaldotsize","ratio_trial":750,"smaller_num":"6","larger_num":"8","correct_side":1,"subjID":"luciavelez14","gender":"1","age":"9","school":"4"},{"start_time":1552328530812,"click_time":1552328532608,"finger_time":1552328532208,"fix_duration":324.16522168127904,"trial":31,"RT":1396,"MT":400,"sideResp":2,"stimulus":"img/250/randomdotsizeEA/R/6_Ratio_250_L_6_R_24.png","xmouse":[788,788,788,788,788,788,788,788,788,788,788,788,788,786,785,784,782,781,781,781,781,781,781,781,781,781,781,781,781,781,781,781,781,781,781,781,781,781,781,781,781,781,781,781,781,781,781,781,781,781,781,781,781,781,781,781,781,781,781,781,781,781,781,781,781,780,781,785,797,806,812,816,820,830,850,867,896,952,967,975,979,985,995,1028,1050,1060,1067,1072,1072,1072],"ymouse":[529,529,529,529,529,529,529,529,529,529,529,529,529,529,529,530,531,532,532,532,532,532,532,532,532,532,532,532,532,532,532,532,532,532,532,532,532,532,532,532,532,532,532,532,532,532,532,532,532,532,532,532,532,532,532,532,532,532,532,532,532,532,532,532,532,533,529,516,475,454,436,418,402,371,345,325,309,275,264,258,253,248,242,217,197,186,170,136,113,93],"timestamp_mouse":[17,35,57,76,95,116,137,156,176,196,216,236,255,275,295,317,336,355,376,396,415,436,455,476,495,516,536,555,575,595,615,636,656,676,695,717,736,755,776,795,816,835,856,875,896,916,936,955,976,996,1015,1036,1056,1075,1096,1115,1135,1156,1175,1195,1215,1235,1255,1276,1295,1316,1336,1355,1375,1396,1417,1437,1456,1475,1496,1515,1535,1557,1575,1596,1615,1635,1656,1675,1696,1715,1737,1757,1775,1795],"xSR":741.5,"ySR":469.95,"xT1":424.9,"yT1":0,"xT2":1058.1,"yT2":0,"toosoon":0,"cond_shown":"randomdotsizeEA","ratio_trial":250,"smaller_num":"6","larger_num":"24","correct_side":2,"subjID":"luciavelez14","gender":"1","age":"9","school":"4"},{"start_time":1552328536088,"click_time":1552328537588,"finger_time":1552328537487,"fix_duration":1099.72595145803,"trial":32,"RT":1399,"MT":101,"sideResp":1,"stimulus":"img/500/equaldotanddens/L/10_Ratio_500_L_4_R_2.png","xmouse":[814,814,814,814,814,814,814,814,814,814,814,814,814,814,814,814,814,814,814,814,814,814,814,815,815,815,816,816,816,816,816,816,816,816,816,816,816,816,816,816,816,816,816,816,816,816,816,816,816,816,816,816,816,816,816,816,816,816,816,816,816,816,816,816,816,816,816,808,802,776,755,674,626,583,555,517],"ymouse":[508,508,508,508,508,508,508,508,508,508,508,508,508,508,508,508,508,508,509,509,509,509,509,511,511,511,512,512,512,512,512,512,512,512,512,512,512,512,512,512,512,512,512,512,512,512,512,512,512,512,512,512,512,512,512,512,512,512,512,512,512,512,512,512,512,512,512,503,498,473,451,347,282,207,140,65],"timestamp_mouse":[1,20,40,59,80,100,120,139,159,179,199,220,240,260,280,300,320,339,360,380,400,420,439,460,479,499,519,539,559,580,599,620,639,659,681,699,720,740,760,780,799,821,840,860,879,899,919,940,959,980,1000,1019,1040,1060,1079,1099,1120,1140,1159,1180,1199,1221,1239,1260,1280,1299,1320,1340,1360,1380,1399,1420,1439,1460,1480,1500],"xSR":741.5,"ySR":469.95,"xT1":424.9,"yT1":0,"xT2":1058.1,"yT2":0,"toosoon":0,"cond_shown":"equaldotanddens","ratio_trial":500,"smaller_num":"2","larger_num":"4","correct_side":1,"subjID":"luciavelez14","gender":"1","age":"9","school":"4"},{"start_time":1552328540296,"click_time":1552328541988,"finger_time":1552328541449,"fix_duration":1368.872451006392,"trial":33,"RT":1153,"MT":539,"sideResp":2,"stimulus":"img/500/randomdotsizeEA/L/8_Ratio_500_L_8_R_4.png","xmouse":[784,784,784,784,784,784,784,784,784,784,784,784,784,784,784,784,784,784,784,784,784,784,784,784,784,784,784,784,784,784,784,784,784,784,784,784,784,784,784,784,784,784,784,784,784,784,784,784,784,784,784,784,784,784,784,788,795,817,846,872,897,899,902,909,913,923,926,930,935,940,949,951,953,955,958,968,984,993,999,1000,1000,1002,1019,1058,1121],"ymouse":[523,523,523,523,523,523,523,523,523,523,523,523,523,523,523,523,523,523,523,523,523,523,523,523,523,523,523,523,523,523,523,523,523,523,523,523,523,523,523,523,523,523,523,523,523,523,523,523,523,523,523,523,523,523,523,516,498,449,376,289,155,129,119,114,113,114,115,115,115,115,114,114,114,114,114,115,115,115,113,112,110,108,104,101,93],"timestamp_mouse":[11,32,51,71,92,111,132,151,172,192,212,231,252,272,291,312,333,352,371,391,412,432,451,471,492,512,532,552,571,591,611,631,652,672,692,711,731,752,772,792,812,832,851,872,891,912,931,953,972,991,1011,1032,1052,1073,1091,1112,1132,1153,1171,1192,1212,1233,1252,1271,1292,1311,1331,1351,1372,1393,1411,1431,1451,1472,1493,1511,1531,1551,1572,1592,1612,1631,1651,1671,1692],"xSR":741.5,"ySR":469.95,"xT1":424.9,"yT1":0,"xT2":1058.1,"yT2":0,"toosoon":0,"cond_shown":"randomdotsizeEA","ratio_trial":500,"smaller_num":"4","larger_num":"8","correct_side":1,"subjID":"luciavelez14","gender":"1","age":"9","school":"4"},{"start_time":1552328549486,"click_time":1552328550509,"finger_time":1552328550367,"fix_duration":336.8778382267367,"trial":34,"RT":881,"MT":142,"sideResp":2,"stimulus":"img/900/equaldotsize/L/10_Ratio_900_L_20_R_18.png","xmouse":[777,777,777,777,777,777,777,777,777,777,777,777,777,777,777,777,777,777,777,777,777,777,777,777,777,777,777,777,777,777,777,777,777,777,777,777,777,777,777,777,777,778,791,806,838,867,897,956,984,1011,1043,1075],"ymouse":[513,513,513,513,513,513,513,513,513,513,513,513,513,513,513,513,513,513,513,513,513,513,513,513,513,513,513,513,513,513,513,513,513,513,513,513,513,513,513,513,511,510,501,488,461,434,399,296,233,179,123,76],"timestamp_mouse":[9,21,41,61,82,101,122,141,161,181,201,222,242,262,281,302,322,342,361,381,402,422,442,462,482,502,521,541,562,582,602,621,641,663,683,702,721,742,761,781,801,821,842,862,881,901,922,941,962,982,1002,1022],"xSR":741.5,"ySR":469.95,"xT1":424.9,"yT1":0,"xT2":1058.1,"yT2":0,"toosoon":0,"cond_shown":"equaldotsize","ratio_trial":900,"smaller_num":"18","larger_num":"20","correct_side":1,"subjID":"luciavelez14","gender":"1","age":"9","school":"4"},{"start_time":1552328553438,"click_time":1552328554388,"finger_time":1552328554227,"fix_duration":1348.8786603564258,"trial":35,"RT":789,"MT":161,"sideResp":2,"stimulus":"img/250/equaldotanddens/R/13_Ratio_250_L_2_R_8.png","xmouse":[807,807,807,807,807,807,807,807,807,807,807,807,807,807,807,807,807,807,807,807,807,807,807,807,807,807,807,807,807,807,807,807,807,807,807,808,815,828,840,869,887,906,929,966,1060,1088,1104,1113],"ymouse":[524,524,524,524,524,524,524,524,524,524,524,524,524,524,524,524,524,524,524,524,524,524,524,524,524,524,524,524,524,524,524,524,524,524,524,522,516,504,486,435,405,367,330,287,178,141,114,92],"timestamp_mouse":[14,34,50,70,90,109,130,151,170,190,209,231,250,269,289,309,329,351,369,389,409,429,449,470,489,510,529,550,569,590,609,629,649,669,689,709,729,751,769,789,809,829,850,870,889,909,930,949],"xSR":741.5,"ySR":469.95,"xT1":424.9,"yT1":0,"xT2":1058.1,"yT2":0,"toosoon":0,"cond_shown":"equaldotanddens","ratio_trial":250,"smaller_num":"2","larger_num":"8","correct_side":2,"subjID":"luciavelez14","gender":"1","age":"9","school":"4"},{"start_time":1552328556969,"click_time":1552328560207,"finger_time":1552328559809,"fix_duration":1440.4880702110686,"trial":36,"RT":2840,"MT":398,"sideResp":2,"stimulus":"img/750/equaldotsize/L/14_Ratio_750_L_8_R_6.png","xmouse":[791,791,791,791,791,791,791,791,791,791,791,791,791,791,791,791,791,791,791,791,791,791,791,791,791,791,791,791,791,791,791,791,791,791,791,791,791,791,791,791,791,791,791,791,791,791,791,791,791,791,791,791,791,791,791,791,791,791,791,791,791,791,791,791,791,791,791,791,791,791,791,791,791,789,788,788,788,787,787,787,787,787,787,787,787,787,787,787,787,787,787,787,787,787,787,787,787,787,787,787,787,787,787,787,787,787,787,787,787,787,787,787,787,787,787,787,787,787,787,787,787,787,787,787,787,787,787,787,787,787,787,787,787,787,787,791,794,803,807,811,819,830,843,881,922,949,978,1001,1034,1049,1062,1073,1084,1106,1109,1110,1110,1110,1110,1110,1110,1110],"ymouse":[515,515,515,515,515,515,515,515,515,515,515,515,515,515,515,515,515,515,515,515,515,515,515,515,515,515,515,515,515,515,515,515,515,515,515,515,515,515,515,515,515,515,515,515,515,515,515,515,515,515,515,515,515,515,515,515,515,515,515,515,515,515,515,515,515,515,515,515,515,515,515,515,515,515,515,515,515,514,514,513,512,512,512,512,512,512,512,512,512,512,512,512,512,512,512,512,512,512,512,512,512,512,512,512,512,512,512,512,512,511,511,511,510,510,509,509,509,509,509,509,509,509,509,509,509,509,509,509,509,509,509,509,509,509,508,508,508,501,496,488,474,457,438,387,336,302,269,240,200,183,169,157,144,119,114,111,109,108,107,104,101,94],"timestamp_mouse":[19,38,58,79,99,119,140,159,179,198,219,239,258,278,299,319,339,358,379,399,418,439,458,478,498,518,539,559,578,598,619,638,659,680,700,719,739,760,779,798,819,839,858,878,899,919,939,958,980,999,1019,1039,1060,1078,1099,1119,1138,1159,1179,1198,1219,1239,1260,1279,1298,1319,1339,1360,1379,1399,1418,1438,1459,1478,1499,1519,1539,1558,1579,1599,1619,1639,1659,1679,1699,1719,1738,1758,1779,1799,1818,1838,1858,1878,1899,1918,1938,1958,1978,1999,2019,2038,2059,2078,2098,2118,2139,2160,2179,2198,2219,2238,2259,2279,2299,2319,2338,2358,2379,2398,2419,2438,2458,2479,2500,2519,2538,2558,2578,2599,2619,2638,2658,2679,2698,2720,2739,2760,2778,2798,2819,2840,2858,2878,2898,2918,2939,2959,2979,3000,3018,3039,3059,3078,3098,3118,3140,3159,3178,3199,3219,3238],"xSR":741.5,"ySR":469.95,"xT1":424.9,"yT1":0,"xT2":1058.1,"yT2":0,"toosoon":0,"cond_shown":"equaldotsize","ratio_trial":750,"smaller_num":"6","larger_num":"8","correct_side":1,"subjID":"luciavelez14","gender":"1","age":"9","school":"4"},{"start_time":1552328561800,"click_time":1552328563567,"finger_time":1552328562588,"fix_duration":250,"trial":37,"RT":788,"MT":979,"sideResp":2,"stimulus":"img/250/randomdotsizeEA/R/10_Ratio_250_L_4_R_16.png","xmouse":[798,798,798,798,798,798,798,798,798,798,798,798,798,798,798,798,798,798,798,798,798,798,798,798,798,798,798,798,798,798,798,798,798,798,795,794,792,781,772,763,748,717,661,636,611,595,582,562,556,552,551,551,551,551,551,551,551,551,551,551,552,560,573,615,651,693,740,830,856,886,908,932,970,989,1009,1029,1051,1091,1108,1126,1144,1149,1152,1152,1152,1148,1144,1144,1144],"ymouse":[521,521,521,521,521,521,521,521,521,521,521,521,521,521,521,521,521,521,521,521,521,521,521,521,521,521,521,521,521,521,521,521,521,521,518,516,510,489,475,460,441,398,323,282,240,208,179,133,119,106,99,95,94,94,94,94,94,94,94,94,98,106,122,162,186,210,234,268,274,277,277,277,272,269,265,263,256,245,239,234,220,216,207,200,187,171,152,104,81],"timestamp_mouse":[8,36,49,67,87,108,128,148,167,187,209,228,248,267,288,307,328,348,369,387,407,427,447,468,488,508,527,548,567,587,608,628,647,667,687,708,728,748,769,788,808,827,848,868,887,908,929,948,967,988,1007,1027,1048,1067,1088,1108,1127,1148,1168,1188,1208,1227,1247,1267,1288,1308,1327,1348,1368,1387,1408,1427,1448,1467,1487,1508,1528,1549,1567,1587,1607,1627,1647,1667,1687,1708,1727,1748,1767],"xSR":741.5,"ySR":469.95,"xT1":424.9,"yT1":0,"xT2":1058.1,"yT2":0,"toosoon":0,"cond_shown":"randomdotsizeEA","ratio_trial":250,"smaller_num":"4","larger_num":"16","correct_side":2,"subjID":"luciavelez14","gender":"1","age":"9","school":"4"},{"start_time":1552328566897,"click_time":1552328568407,"finger_time":1552328567748,"fix_duration":746.3845004177833,"trial":38,"RT":851,"MT":659,"sideResp":1,"stimulus":"img/250/randomdotsizeEA/L/2_Ratio_250_L_16_R_4.png","xmouse":[800,800,800,800,800,800,800,800,800,800,800,800,800,800,800,800,800,800,800,800,800,800,800,800,800,800,800,800,800,800,800,800,800,800,800,800,800,796,789,780,767,753,736,700,692,685,680,675,668,660,655,648,642,631,625,620,616,611,594,585,578,571,568,559,550,542,533,528,528,529,531,531,532,524,513,501],"ymouse":[525,525,525,525,525,525,525,525,525,525,525,525,525,525,525,525,525,525,525,525,525,525,525,525,525,525,525,525,525,525,525,525,525,525,525,525,525,523,517,507,493,474,454,411,396,375,356,333,279,253,222,198,178,151,140,133,128,123,120,120,120,120,120,120,120,118,116,113,109,105,103,103,102,101,100,98],"timestamp_mouse":[10,41,50,71,91,112,130,151,171,190,210,231,252,272,290,310,330,351,371,391,411,431,451,472,490,510,531,550,571,592,611,630,650,672,690,710,732,751,770,791,810,831,851,870,890,910,930,951,971,990,1010,1031,1050,1070,1090,1110,1131,1150,1171,1191,1211,1231,1251,1270,1291,1312,1331,1350,1371,1390,1411,1430,1450,1470,1491,1510],"xSR":741.5,"ySR":469.95,"xT1":424.9,"yT1":0,"xT2":1058.1,"yT2":0,"toosoon":0,"cond_shown":"randomdotsizeEA","ratio_trial":250,"smaller_num":"4","larger_num":"16","correct_side":1,"subjID":"luciavelez14","gender":"1","age":"9","school":"4"},{"start_time":1552328572279,"click_time":1552328573868,"finger_time":1552328573368,"fix_duration":250,"trial":39,"RT":1089,"MT":500,"sideResp":2,"stimulus":"img/250/randomdotsizeEA/R/8_Ratio_250_L_1_R_4.png","xmouse":[788,788,788,788,788,788,788,788,788,788,788,788,788,788,788,788,788,788,788,788,788,788,788,788,788,788,788,788,788,788,788,788,788,788,788,788,788,788,788,788,788,788,788,788,788,788,788,788,788,788,788,789,800,813,859,913,964,1031,1094,1193,1238,1249,1261,1262,1255,1250,1246,1244,1241,1238,1225,1211,1188,1176,1162,1160,1160,1160,1160,1158],"ymouse":[515,515,515,515,515,515,515,515,515,515,515,515,515,515,515,515,515,515,515,515,515,515,515,515,515,515,515,515,515,515,515,515,515,515,515,515,515,515,515,515,515,515,515,515,515,515,515,515,515,515,515,512,506,496,472,460,447,428,410,362,325,308,271,251,219,211,206,205,204,203,191,180,158,142,117,110,106,101,97,93],"timestamp_mouse":[12,33,49,70,89,110,129,150,170,189,208,230,249,269,290,308,330,349,368,388,410,429,448,469,488,510,529,550,568,590,610,629,648,668,690,710,730,748,768,789,809,830,849,870,889,910,929,948,968,989,1010,1030,1049,1068,1089,1109,1129,1149,1170,1190,1209,1229,1249,1269,1291,1309,1330,1350,1369,1390,1409,1428,1448,1468,1491,1509,1530,1549,1569,1589],"xSR":741.5,"ySR":469.95,"xT1":424.9,"yT1":0,"xT2":1058.1,"yT2":0,"toosoon":0,"cond_shown":"randomdotsizeEA","ratio_trial":250,"smaller_num":"1","larger_num":"4","correct_side":2,"subjID":"luciavelez14","gender":"1","age":"9","school":"4"},{"start_time":1552328583661,"click_time":1552328585088,"finger_time":1552328584928,"fix_duration":250,"trial":40,"RT":1267,"MT":160,"sideResp":2,"stimulus":"img/500/equaldotanddens/R/1_Ratio_500_L_9_R_18.png","xmouse":[813,813,813,813,813,813,813,813,813,813,813,813,813,813,813,813,813,813,813,813,813,813,813,813,813,813,813,813,813,813,813,813,813,813,813,813,813,813,814,814,814,814,814,814,814,814,814,814,814,814,814,814,814,814,814,814,814,814,814,814,815,817,830,843,856,882,892,922,952,986,1033,1085],"ymouse":[493,493,493,493,493,493,493,493,493,493,493,493,493,493,493,493,493,493,493,493,493,494,495,496,496,496,496,496,496,496,496,496,496,497,497,497,497,497,498,498,498,498,498,498,498,498,498,498,498,498,498,498,498,498,498,498,498,498,498,498,498,498,487,470,446,411,395,327,262,209,145,86],"timestamp_mouse":[13,27,47,67,88,107,127,147,167,186,206,227,248,268,287,306,328,347,368,386,408,428,447,467,488,508,526,548,567,586,608,628,646,668,687,708,726,746,767,787,807,826,848,868,888,908,928,948,968,988,1008,1028,1047,1067,1088,1107,1128,1148,1167,1188,1208,1227,1247,1267,1288,1308,1327,1346,1367,1387,1407,1427],"xSR":741.5,"ySR":469.95,"xT1":424.9,"yT1":0,"xT2":1058.1,"yT2":0,"toosoon":0,"cond_shown":"equaldotanddens","ratio_trial":500,"smaller_num":"9","larger_num":"18","correct_side":2,"subjID":"luciavelez14","gender":"1","age":"9","school":"4"},{"start_time":1552328586860,"click_time":1552328587988,"finger_time":1552328587707,"fix_duration":250,"trial":41,"RT":847,"MT":281,"sideResp":2,"stimulus":"img/250/randomdotsizeEA/R/13_Ratio_250_L_2_R_8.png","xmouse":[784,784,784,784,784,784,784,784,784,784,784,784,784,784,784,784,784,784,784,784,784,784,784,784,784,784,784,784,784,784,784,784,784,784,784,784,784,785,787,792,800,810,829,839,852,869,885,951,984,1003,1014,1019,1021,1024,1033,1052,1097],"ymouse":[557,557,557,557,557,557,557,556,556,554,553,552,550,549,548,547,546,543,542,541,541,541,541,540,540,539,538,538,538,538,538,538,538,538,538,537,536,531,525,515,502,485,449,426,397,347,310,204,169,150,132,117,94,86,74,56,35],"timestamp_mouse":[9,36,48,68,88,109,127,147,169,189,209,229,248,267,288,308,327,348,368,388,408,428,447,469,487,508,529,548,567,588,609,628,648,667,688,707,728,748,768,789,809,827,847,867,888,909,929,948,969,988,1008,1028,1048,1068,1089,1109,1128],"xSR":741.5,"ySR":469.95,"xT1":424.9,"yT1":0,"xT2":1058.1,"yT2":0,"toosoon":0,"cond_shown":"randomdotsizeEA","ratio_trial":250,"smaller_num":"2","larger_num":"8","correct_side":2,"subjID":"luciavelez14","gender":"1","age":"9","school":"4"},{"start_time":1552328592334,"click_time":1552328594088,"finger_time":1552328593307,"fix_duration":1325.193754824413,"trial":42,"RT":973,"MT":781,"sideResp":2,"stimulus":"img/750/equaldotsize/L/13_Ratio_750_L_8_R_6.png","xmouse":[796,796,796,796,796,796,796,796,796,796,796,796,796,796,796,796,796,796,796,796,796,796,796,796,796,796,796,796,796,796,796,796,796,796,796,796,796,796,796,796,796,796,796,796,800,806,816,827,842,883,902,916,928,936,946,947,949,952,956,963,969,974,983,991,1006,1010,1015,1018,1019,1019,1020,1024,1036,1052,1082,1088,1090,1090,1091,1091,1091,1091,1092,1095,1105,1112,1120,1127],"ymouse":[510,510,510,510,510,510,510,510,510,510,510,510,510,510,510,510,510,510,510,510,510,510,510,510,510,510,510,510,510,510,510,510,510,510,510,510,510,510,510,510,510,510,510,507,499,490,480,470,459,435,422,408,391,374,333,318,303,292,279,261,246,238,226,217,209,209,209,210,210,210,210,209,200,191,176,171,166,160,156,155,155,153,151,146,130,118,105,93],"timestamp_mouse":[15,41,53,74,95,114,135,155,174,194,215,234,255,275,293,314,333,354,375,394,415,433,455,475,493,515,535,553,575,594,613,635,654,674,695,714,735,755,773,795,815,834,855,875,894,913,934,955,973,994,1014,1034,1054,1075,1094,1115,1134,1153,1175,1194,1215,1234,1254,1275,1294,1314,1335,1355,1374,1395,1414,1434,1453,1474,1493,1514,1534,1554,1575,1595,1614,1634,1655,1674,1693,1714,1734,1754],"xSR":741.5,"ySR":469.95,"xT1":424.9,"yT1":0,"xT2":1058.1,"yT2":0,"toosoon":0,"cond_shown":"equaldotsize","ratio_trial":750,"smaller_num":"6","larger_num":"8","correct_side":1,"subjID":"luciavelez14","gender":"1","age":"9","school":"4"},{"start_time":1552328602220,"click_time":1552328603709,"finger_time":1552328603108,"fix_duration":250,"trial":43,"RT":888,"MT":601,"sideResp":2,"stimulus":"img/900/equaldotanddens/R/15_Ratio_900_L_9_R_10.png","xmouse":[768,768,768,768,768,768,768,768,768,768,768,768,768,768,768,768,768,768,768,768,768,768,768,768,768,768,768,768,768,768,768,768,768,768,768,768,768,768,768,768,768,768,768,776,790,824,950,1025,1074,1107,1132,1161,1180,1194,1210,1227,1265,1277,1282,1284,1284,1275,1266,1258,1250,1247,1231,1221,1209,1197,1183,1165,1161,1160,1158],"ymouse":[485,485,485,485,485,485,485,485,485,485,485,485,485,485,485,485,485,485,485,485,485,485,485,485,485,485,485,485,485,485,485,485,485,485,485,485,485,485,485,485,485,485,486,479,460,427,339,297,271,251,241,223,209,197,184,169,130,111,89,71,59,50,48,48,47,47,45,44,43,43,43,43,43,43,43],"timestamp_mouse":[10,38,49,68,87,109,129,148,169,189,209,228,248,269,289,309,329,348,369,389,408,428,449,469,489,508,529,548,569,589,608,629,648,667,689,709,729,747,768,788,809,829,847,867,888,909,927,949,969,989,1008,1028,1048,1068,1088,1109,1127,1148,1168,1188,1207,1229,1249,1269,1287,1307,1328,1349,1368,1388,1408,1427,1449,1468,1489],"xSR":741.5,"ySR":469.95,"xT1":424.9,"yT1":0,"xT2":1058.1,"yT2":0,"toosoon":0,"cond_shown":"equaldotanddens","ratio_trial":900,"smaller_num":"9","larger_num":"10","correct_side":2,"subjID":"luciavelez14","gender":"1","age":"9","school":"4"},{"start_time":1552328605846,"click_time":1552328607549,"finger_time":1552328606768,"fix_duration":916.2273898895837,"trial":44,"RT":922,"MT":781,"sideResp":2,"stimulus":"img/500/randomdotsizeEA/R/14_Ratio_500_L_5_R_10.png","xmouse":[792,792,792,792,792,791,791,791,791,791,791,790,790,790,790,790,790,790,790,790,790,789,789,788,788,788,788,788,788,788,788,788,788,788,788,788,788,788,788,788,787,787,789,792,798,805,835,874,884,943,1018,1056,1104,1151,1194,1249,1265,1271,1271,1271,1271,1271,1271,1271,1271,1271,1271,1271,1271,1271,1271,1271,1271,1271,1271,1271,1271,1271,1180,1178,1176,1170,1167,1165,1162,1156],"ymouse":[521,521,521,521,521,521,521,521,521,521,521,521,521,521,521,521,521,521,521,521,521,521,521,521,521,521,521,521,521,521,521,521,521,521,521,521,521,521,521,521,520,516,513,508,499,489,456,419,410,347,257,222,180,146,111,47,20,8,8,8,8,8,8,8,8,8,8,8,8,8,8,8,8,8,8,8,8,8,3,6,6,8,8,9,9,11],"timestamp_mouse":[10,22,43,62,82,103,122,141,162,183,202,223,241,263,283,302,323,341,362,382,403,422,442,463,483,502,523,542,562,582,602,622,642,662,682,702,723,741,763,783,803,822,843,863,883,901,922,942,963,983,1003,1022,1043,1063,1083,1102,1122,1142,1162,1182,1202,1222,1242,1262,1283,1303,1322,1342,1363,1382,1402,1422,1441,1462,1483,1502,1523,1543,1563,1583,1602,1623,1642,1662,1683,1702],"xSR":741.5,"ySR":469.95,"xT1":424.9,"yT1":0,"xT2":1058.1,"yT2":0,"toosoon":0,"cond_shown":"randomdotsizeEA","ratio_trial":500,"smaller_num":"5","larger_num":"10","correct_side":2,"subjID":"luciavelez14","gender":"1","age":"9","school":"4"},{"start_time":1552328612471,"click_time":1552328613968,"finger_time":1552328613288,"fix_duration":1100.8679521233835,"trial":45,"RT":817,"MT":680,"sideResp":1,"stimulus":"img/250/equaldotanddens/L/7_Ratio_250_L_8_R_2.png","xmouse":[778,778,778,778,778,778,778,778,778,778,778,777,777,777,777,777,777,777,777,777,777,777,777,777,777,777,777,777,777,777,777,777,777,777,777,777,776,775,771,753,738,713,692,673,653,654,657,660,660,659,654,645,632,617,572,554,540,531,527,522,521,521,521,521,522,522,523,523,523,520,517,510,504,499,495],"ymouse":[538,538,538,538,538,538,538,538,538,538,538,538,538,538,538,538,538,538,538,538,538,538,538,538,538,538,538,538,538,538,538,538,538,538,538,538,536,531,519,486,464,438,416,394,349,337,324,315,310,302,300,295,286,274,236,216,197,180,169,155,154,154,153,151,146,144,143,143,141,138,137,134,129,121,98],"timestamp_mouse":[17,37,57,78,98,118,138,158,177,196,218,237,258,277,297,317,338,358,378,397,417,438,458,477,498,517,537,557,577,598,618,638,657,677,698,718,736,758,777,797,817,837,858,877,897,916,937,957,978,997,1017,1037,1057,1078,1097,1117,1137,1157,1178,1196,1218,1236,1258,1278,1297,1316,1337,1357,1378,1397,1418,1437,1457,1477,1496],"xSR":741.5,"ySR":469.95,"xT1":424.9,"yT1":0,"xT2":1058.1,"yT2":0,"toosoon":0,"cond_shown":"equaldotanddens","ratio_trial":250,"smaller_num":"2","larger_num":"8","correct_side":1,"subjID":"luciavelez14","gender":"1","age":"9","school":"4"},{"start_time":1552328618234,"click_time":1552328619608,"finger_time":1552328619169,"fix_duration":1182.1099250450782,"trial":46,"RT":935,"MT":439,"sideResp":2,"stimulus":"img/900/equaldotsize/R/11_Ratio_900_L_18_R_20.png","xmouse":[777,778,778,778,778,778,778,778,778,778,778,778,778,778,779,779,780,781,782,782,782,782,782,782,782,782,782,782,782,782,782,782,782,782,782,782,782,782,783,784,786,789,793,798,808,818,848,865,887,910,926,942,960,969,972,975,982,989,1002,1015,1029,1052,1063,1066,1070,1073,1077,1089,1094],"ymouse":[528,529,529,529,529,529,529,529,529,529,529,529,529,530,531,531,532,532,532,532,532,532,532,532,532,532,532,532,532,532,532,532,532,532,532,532,532,532,532,532,532,532,532,528,518,508,470,450,429,406,391,377,365,360,359,356,351,345,334,322,308,271,239,230,197,176,153,111,95],"timestamp_mouse":[15,34,55,73,93,114,135,155,175,195,215,233,254,275,295,315,333,355,375,395,413,435,454,475,494,513,533,555,574,595,615,634,653,675,695,713,734,755,774,794,814,835,854,874,894,914,935,954,974,994,1014,1033,1053,1075,1094,1114,1135,1154,1175,1194,1214,1236,1255,1273,1293,1314,1335,1353,1374],"xSR":741.5,"ySR":469.95,"xT1":424.9,"yT1":0,"xT2":1058.1,"yT2":0,"toosoon":0,"cond_shown":"equaldotsize","ratio_trial":900,"smaller_num":"18","larger_num":"20","correct_side":2,"subjID":"luciavelez14","gender":"1","age":"9","school":"4"},{"start_time":1552328625599,"click_time":1552328627169,"finger_time":1552328626789,"fix_duration":250,"trial":47,"RT":1190,"MT":380,"sideResp":1,"stimulus":"img/750/equaldotanddens/L/10_Ratio_750_L_4_R_3.png","xmouse":[759,762,764,764,764,764,764,764,764,764,764,764,764,764,764,764,765,766,768,768,768,768,768,768,768,768,768,768,768,768,768,768,768,768,768,768,768,768,772,774,781,784,784,786,786,786,786,786,786,786,786,786,786,786,786,786,780,771,754,700,667,659,649,645,640,630,624,620,615,604,598,595,585,580,562,550,538,529,524],"ymouse":[517,518,518,518,518,518,518,518,518,518,518,518,518,518,518,518,518,519,520,520,520,520,520,520,520,520,520,520,520,520,520,520,520,520,520,520,520,520,521,522,525,527,527,527,528,528,528,528,528,528,528,528,528,528,528,528,525,518,506,473,445,437,418,406,390,367,353,339,322,281,255,225,168,132,74,50,34,23,15],"timestamp_mouse":[13,29,49,69,90,109,130,148,168,189,210,229,248,269,290,309,330,349,370,389,410,428,448,470,490,509,528,550,570,590,610,630,649,669,690,709,729,750,769,789,810,828,850,869,889,909,929,950,970,988,1010,1029,1050,1069,1090,1109,1130,1149,1170,1190,1209,1230,1249,1269,1290,1309,1329,1349,1369,1390,1408,1429,1449,1469,1490,1509,1529,1550,1570],"xSR":741.5,"ySR":469.95,"xT1":424.9,"yT1":0,"xT2":1058.1,"yT2":0,"toosoon":0,"cond_shown":"equaldotanddens","ratio_trial":750,"smaller_num":"3","larger_num":"4","correct_side":1,"subjID":"luciavelez14","gender":"1","age":"9","school":"4"},{"start_time":1552328630262,"click_time":1552328631768,"finger_time":1552328631408,"fix_duration":1291.4519941874328,"trial":48,"RT":1146,"MT":360,"sideResp":2,"stimulus":"img/750/equaldotsize/R/15_Ratio_750_L_9_R_12.png","xmouse":[782,782,782,782,782,782,782,782,782,782,782,782,782,782,782,782,782,782,782,782,782,782,782,782,782,782,782,782,782,782,782,782,782,782,782,782,782,782,782,782,782,782,782,782,782,782,782,782,782,782,784,787,801,809,818,827,830,851,862,873,886,903,931,944,955,964,974,1000,1014,1034,1047,1070,1108,1117,1122,1125],"ymouse":[538,538,538,538,538,538,538,538,538,538,538,538,537,537,537,537,537,537,537,537,537,537,537,537,537,537,537,537,537,537,537,537,537,537,537,537,537,537,537,537,537,537,537,537,537,537,537,537,537,536,533,529,516,510,505,497,495,466,446,428,406,384,346,329,316,303,290,250,232,207,189,166,128,115,102,90],"timestamp_mouse":[21,35,47,66,86,107,127,148,166,188,206,228,246,268,286,306,328,346,366,387,407,427,448,467,486,507,527,546,567,586,607,626,646,667,688,706,727,747,766,787,808,826,846,868,887,907,927,948,968,986,1007,1026,1046,1068,1087,1106,1127,1146,1166,1186,1206,1226,1247,1266,1286,1306,1326,1346,1368,1386,1406,1427,1447,1468,1487,1506],"xSR":741.5,"ySR":469.95,"xT1":424.9,"yT1":0,"xT2":1058.1,"yT2":0,"toosoon":0,"cond_shown":"equaldotsize","ratio_trial":750,"smaller_num":"9","larger_num":"12","correct_side":2,"subjID":"luciavelez14","gender":"1","age":"9","school":"4"},{"start_time":1552328640101,"click_time":1552328641329,"finger_time":1552328640929,"fix_duration":250,"trial":49,"RT":828,"MT":400,"sideResp":2,"stimulus":"img/250/randomdotsizeEA/R/11_Ratio_250_L_3_R_12.png","xmouse":[802,802,802,802,802,802,802,802,802,802,802,802,802,802,802,802,802,802,802,802,802,802,802,802,802,802,802,802,802,802,802,802,802,802,802,802,802,802,802,802,802,810,826,844,860,877,924,954,987,1011,1041,1072,1077,1082,1086,1087,1088,1088,1090,1101,1111,1130],"ymouse":[495,495,495,495,495,495,495,495,495,495,495,495,495,495,495,495,495,495,495,495,495,495,495,495,495,495,495,495,495,495,495,495,495,495,495,495,495,495,495,491,480,442,399,363,335,307,265,247,231,219,206,189,184,179,176,174,171,167,160,136,114,43],"timestamp_mouse":[10,37,47,68,87,108,127,149,168,187,208,227,249,267,288,307,327,347,368,388,408,429,448,468,489,508,527,548,567,589,608,627,648,667,688,708,727,749,768,788,807,828,848,867,887,907,928,949,967,987,1008,1028,1047,1069,1087,1108,1128,1147,1168,1188,1208,1227],"xSR":741.5,"ySR":469.95,"xT1":424.9,"yT1":0,"xT2":1058.1,"yT2":0,"toosoon":0,"cond_shown":"randomdotsizeEA","ratio_trial":250,"smaller_num":"3","larger_num":"12","correct_side":2,"subjID":"luciavelez14","gender":"1","age":"9","school":"4"},{"start_time":1552328645289,"click_time":1552328646948,"finger_time":1552328646248,"fix_duration":1419.249379112158,"trial":50,"RT":959,"MT":700,"sideResp":2,"stimulus":"img/500/equaldotanddens/R/1_Ratio_500_L_9_R_18.png","xmouse":[782,782,782,782,782,782,782,782,782,782,782,782,782,782,782,782,782,782,782,782,782,782,782,782,782,782,782,782,782,782,782,782,782,782,782,782,782,782,782,782,782,782,783,783,783,783,784,797,815,873,927,977,1024,1068,1080,1085,1088,1089,1096,1100,1106,1115,1120,1127,1127,1126,1122,1120,1118,1117,1116,1114,1114,1114,1114,1114,1114,1114,1114,1114,1114,1114,1114,1114],"ymouse":[517,517,517,517,517,517,517,517,517,517,517,517,517,517,517,517,517,517,517,517,517,517,517,517,517,517,517,517,517,517,517,517,517,517,517,517,517,517,517,517,517,517,517,516,514,510,501,472,446,384,327,274,227,174,165,162,162,162,162,160,158,153,149,140,139,139,139,139,135,131,126,119,114,108,108,108,108,108,107,107,106,105,103,96],"timestamp_mouse":[2,20,40,59,81,99,119,141,159,179,200,219,239,260,279,299,320,340,361,380,400,419,439,461,480,500,520,540,559,580,600,621,639,659,680,700,720,740,759,781,801,820,840,859,880,900,921,941,959,979,999,1020,1040,1060,1080,1100,1120,1140,1159,1180,1200,1221,1239,1260,1279,1299,1319,1340,1359,1380,1399,1420,1440,1460,1480,1500,1519,1539,1559,1579,1601,1621,1640,1659],"xSR":741.5,"ySR":469.95,"xT1":424.9,"yT1":0,"xT2":1058.1,"yT2":0,"toosoon":0,"cond_shown":"equaldotanddens","ratio_trial":500,"smaller_num":"9","larger_num":"18","correct_side":2,"subjID":"luciavelez14","gender":"1","age":"9","school":"4"},{"start_time":1552328649474,"click_time":1552328651470,"finger_time":1552328650690,"fix_duration":1123.8554725077247,"trial":51,"RT":1216,"MT":780,"sideResp":1,"stimulus":"img/750/equaldotsize/L/1_Ratio_750_L_20_R_15.png","xmouse":[775,775,775,775,775,775,775,775,775,775,775,775,775,775,775,775,775,775,775,775,775,775,775,775,775,775,775,775,775,775,775,775,775,775,775,775,775,775,775,775,775,775,775,775,775,775,775,775,775,775,775,775,775,775,775,775,775,774,770,765,755,743,730,708,702,698,698,698,704,705,699,687,667,637,622,608,596,594,588,575,563,551,538,525,522,518,517,517,517,517,517,517,517,516,513,512,510,508,503,492],"ymouse":[503,503,503,503,503,503,503,503,503,503,503,503,503,503,503,503,503,503,503,503,503,504,505,505,505,505,505,505,505,505,505,505,505,505,505,505,505,505,505,505,505,505,505,505,505,505,505,505,505,505,505,505,505,505,505,505,505,503,490,480,466,449,429,389,369,346,321,296,255,230,219,208,201,187,177,168,159,156,153,153,153,153,151,146,143,139,135,130,124,115,112,111,110,110,109,108,107,105,103,95],"timestamp_mouse":[28,36,54,74,96,114,135,154,175,194,215,234,256,275,296,315,335,354,375,394,415,434,455,476,496,515,535,554,574,595,614,636,655,674,696,716,735,755,775,795,815,834,855,875,895,914,935,954,974,996,1014,1035,1055,1074,1095,1115,1134,1154,1174,1196,1216,1234,1256,1275,1294,1315,1336,1355,1375,1394,1414,1435,1454,1475,1494,1516,1535,1555,1575,1595,1614,1636,1656,1675,1694,1714,1735,1756,1774,1795,1814,1834,1854,1875,1894,1916,1934,1955,1975,1996],"xSR":741.5,"ySR":469.95,"xT1":424.9,"yT1":0,"xT2":1058.1,"yT2":0,"toosoon":0,"cond_shown":"equaldotsize","ratio_trial":750,"smaller_num":"15","larger_num":"20","correct_side":1,"subjID":"luciavelez14","gender":"1","age":"9","school":"4"},{"start_time":1552328653898,"click_time":1552328655528,"finger_time":1552328654749,"fix_duration":1247.5988742106254,"trial":52,"RT":851,"MT":779,"sideResp":1,"stimulus":"img/250/equaldotanddens/L/3_Ratio_250_L_8_R_2.png","xmouse":[813,812,811,811,811,811,811,811,811,811,811,811,811,811,811,811,811,811,811,811,811,811,811,811,811,811,811,811,809,809,809,808,807,806,806,805,805,803,800,796,788,776,765,739,716,695,668,641,576,564,564,564,564,564,564,564,564,564,564,564,564,564,384,382,382,382,382,382,386,387,389,390,391,395,400,406,410,415,421,421,423,426],"ymouse":[537,537,536,536,536,536,536,536,536,536,536,536,536,536,536,536,536,536,536,536,536,536,536,536,536,536,536,536,536,536,536,536,536,536,536,536,536,536,530,524,512,494,468,397,330,284,217,155,31,10,10,10,10,10,10,10,10,10,10,10,10,10,3,21,25,26,26,26,26,26,26,26,26,26,30,35,38,43,49,51,54,58],"timestamp_mouse":[13,31,52,70,90,110,132,151,170,192,210,230,252,270,292,311,330,352,371,391,412,431,451,472,491,511,531,550,571,590,610,630,650,672,690,711,730,750,772,790,810,832,851,871,891,910,930,952,970,990,1012,1031,1050,1070,1091,1111,1130,1150,1170,1190,1210,1230,1251,1271,1290,1311,1331,1351,1370,1390,1411,1431,1450,1471,1490,1511,1532,1552,1571,1591,1610,1630],"xSR":741.5,"ySR":469.95,"xT1":424.9,"yT1":0,"xT2":1058.1,"yT2":0,"toosoon":0,"cond_shown":"equaldotanddens","ratio_trial":250,"smaller_num":"2","larger_num":"8","correct_side":1,"subjID":"luciavelez14","gender":"1","age":"9","school":"4"},{"start_time":1552328657686,"click_time":1552328660208,"finger_time":1552328659608,"fix_duration":954.4166543712399,"trial":53,"RT":1922,"MT":600,"sideResp":1,"stimulus":"img/750/equaldotsize/L/10_Ratio_750_L_4_R_3.png","xmouse":[784,784,784,784,784,784,784,784,784,784,784,784,784,784,784,784,784,784,784,784,784,784,784,784,784,784,784,784,784,784,784,784,784,784,784,784,784,784,784,784,784,783,783,783,783,783,783,783,783,783,783,783,783,783,783,783,783,783,783,783,783,783,783,782,782,782,782,782,782,782,782,782,782,782,782,782,782,782,782,782,782,782,782,782,782,782,782,782,782,782,782,782,782,780,768,753,732,711,688,648,634,621,610,598,590,574,568,558,550,541,537,536,534,532,529,526,522,517,513,511,511,511,511,509,507,506,506],"ymouse":[513,513,513,513,513,513,513,513,513,513,513,513,513,513,513,513,513,513,513,513,513,513,513,513,513,513,513,513,513,513,513,513,512,512,512,512,511,511,511,511,511,510,510,510,510,510,510,510,510,510,510,510,510,510,510,510,510,510,510,510,510,510,510,510,510,510,510,510,510,510,510,510,510,510,510,510,510,510,510,510,510,510,510,510,510,510,510,510,510,510,510,510,510,508,491,475,451,427,400,354,335,315,297,270,255,229,217,202,188,167,154,151,139,133,126,124,121,117,115,114,114,112,112,109,103,100,99],"timestamp_mouse":[3,30,42,62,84,104,124,142,163,182,204,224,243,262,282,303,324,343,362,382,402,422,444,462,482,502,522,544,564,583,602,623,644,662,683,704,722,742,763,784,803,823,843,862,883,904,923,943,963,983,1004,1024,1043,1063,1084,1102,1123,1142,1163,1183,1203,1223,1242,1262,1283,1304,1323,1344,1363,1382,1403,1424,1444,1462,1482,1504,1523,1542,1563,1583,1604,1622,1643,1663,1683,1702,1723,1743,1763,1783,1804,1823,1842,1862,1883,1903,1922,1943,1963,1984,2002,2022,2042,2062,2083,2102,2122,2142,2163,2183,2202,2223,2244,2264,2284,2302,2322,2342,2362,2383,2402,2423,2443,2463,2484,2503,2522],"xSR":741.5,"ySR":469.95,"xT1":424.9,"yT1":0,"xT2":1058.1,"yT2":0,"toosoon":0,"cond_shown":"equaldotsize","ratio_trial":750,"smaller_num":"3","larger_num":"4","correct_side":1,"subjID":"luciavelez14","gender":"1","age":"9","school":"4"},{"start_time":1552328661691,"click_time":1552328663150,"finger_time":1552328662608,"fix_duration":380.7440784013836,"trial":54,"RT":917,"MT":542,"sideResp":1,"stimulus":"img/250/equaldotanddens/L/5_Ratio_250_L_24_R_6.png","xmouse":[800,800,800,800,800,800,800,800,800,800,800,800,800,800,800,800,800,800,800,800,800,800,800,800,800,800,800,800,800,800,800,800,800,800,800,800,800,800,800,798,798,796,793,789,768,751,728,705,689,649,625,603,581,561,528,514,507,503,503,503,508,510,513,516,521,524,524,524,524,520,517,514,512],"ymouse":[529,529,529,529,529,529,529,529,529,529,529,529,529,529,529,529,529,529,529,529,529,529,529,529,529,529,529,529,529,529,529,529,529,529,529,529,527,527,527,524,524,521,516,511,484,462,435,409,386,328,294,265,236,212,179,167,160,156,153,148,141,139,135,129,121,118,118,116,116,109,105,101,96],"timestamp_mouse":[17,39,57,78,98,118,137,157,178,197,217,237,258,277,299,318,337,357,378,399,419,438,458,479,497,517,537,559,578,598,618,637,659,679,698,719,737,759,777,797,818,839,858,877,898,917,937,957,979,997,1018,1038,1058,1078,1098,1117,1138,1159,1178,1198,1218,1237,1259,1277,1297,1317,1337,1358,1377,1398,1417,1437,1458],"xSR":741.5,"ySR":469.95,"xT1":424.9,"yT1":0,"xT2":1058.1,"yT2":0,"toosoon":0,"cond_shown":"equaldotanddens","ratio_trial":250,"smaller_num":"6","larger_num":"24","correct_side":1,"subjID":"luciavelez14","gender":"1","age":"9","school":"4"},{"start_time":1552328665060,"click_time":1552328667468,"finger_time":1552328666728,"fix_duration":769.8496664960444,"trial":55,"RT":1668,"MT":740,"sideResp":1,"stimulus":"img/900/randomdotsizeEA/L/1_Ratio_900_L_10_R_9.png","xmouse":[776,776,776,776,776,775,775,775,775,775,775,775,775,775,775,775,775,775,775,775,775,775,775,775,775,775,775,775,775,775,775,775,775,775,775,775,775,775,775,775,775,775,775,775,775,775,775,775,775,775,775,775,775,775,775,775,775,775,775,775,775,775,775,775,775,775,775,775,775,775,775,775,775,775,775,775,775,775,775,775,772,760,750,741,730,725,718,709,703,695,675,647,631,617,608,599,596,596,596,596,595,595,595,596,596,596,594,590,589,583,576,568,557,553,547,542,531,526,525,525,523],"ymouse":[518,518,519,520,521,522,523,524,524,524,524,524,525,525,525,526,527,527,527,528,528,528,528,528,528,528,528,528,528,528,528,528,528,528,528,528,528,528,528,529,529,529,529,530,530,530,530,530,530,530,531,531,531,531,531,531,531,532,532,532,532,532,533,533,533,533,533,533,533,533,533,533,533,533,533,533,533,533,533,532,530,511,498,484,472,465,458,443,435,419,392,355,336,316,298,286,262,251,240,231,214,197,189,182,177,174,168,163,159,148,139,128,109,101,93,83,70,65,64,63,62],"timestamp_mouse":[20,37,50,68,88,109,128,148,169,188,209,229,249,270,288,309,328,350,370,389,408,429,450,469,490,509,528,548,568,589,609,630,649,668,689,709,730,749,768,788,808,830,850,868,888,910,930,949,968,989,1009,1028,1049,1068,1089,1110,1128,1148,1170,1188,1209,1230,1249,1268,1289,1309,1328,1349,1368,1390,1409,1428,1449,1470,1488,1509,1528,1550,1568,1589,1609,1629,1649,1668,1688,1709,1729,1750,1768,1789,1808,1828,1848,1869,1889,1908,1929,1948,1968,1989,2009,2029,2049,2068,2088,2109,2128,2148,2168,2189,2208,2228,2248,2269,2288,2309,2328,2349,2368,2388,2408],"xSR":741.5,"ySR":469.95,"xT1":424.9,"yT1":0,"xT2":1058.1,"yT2":0,"toosoon":0,"cond_shown":"randomdotsi