[{"start_time":1552313619732,"click_time":1552313625450,"finger_time":1552313619742,"fix_duration":757.3380627004767,"trial":0,"RT":10,"MT":5708,"sideResp":2,"stimulus":"img/250/equaldotanddens/R/13_Ratio_250_L_2_R_8.png","xmouse":[779,779,779,779,779,779,779,779,779,779,779,779,779,779,779,779,779,779,779,779,779,779,779,779,779,779,779,779,779,779,778,775,773,772,772,772,772,772,772,772,772,772,772,772,772,772,772,772,772,772,772,772,772,772,772,773,773,773,773,773,773,773,773,772,772,771,771,771,771,771,771,771,771,771,771,771,771,771,771,771,771,771,771,771,771,771,770,770,770,770,770,769,769,769,769,769,769,768,764,762,755,751,749,749,749,749,749,749,749,749,749,749,749,749,749,749,749,749,749,749,749,749,749,749,749,749,749,749,749,749,749,749,749,749,749,749,749,749,749,749,749,749,749,749,749,752,756,757,757,757,757,757,757,757,757,759,759,759,759,759,760,761,763,768,773,777,779,781,784,788,788,789,791,792,792,792,792,792,792,792,792,792,792,792,792,792,792,792,792,792,792,792,792,792,792,792,792,792,792,792,792,792,792,792,792,792,792,792,792,792,792,792,792,792,792,792,792,792,792,792,792,792,792,792,792,792,792,792,792,792,792,792,792,792,792,792,792,792,792,792,792,792,791,790,789,789,789,789,789,789,788,786,782,781,780,780,780,780,780,780,780,780,780,780,780,780,780,780,780,780,780,780,780,780,780,787,799,814,837,886,911,934,958,990,1029,1047,1061],"ymouse":[553,553,553,553,553,553,553,553,553,553,553,553,553,553,553,553,553,553,553,553,553,553,553,553,553,553,553,553,553,553,555,564,570,578,579,579,582,583,584,585,585,585,585,585,585,585,585,585,585,585,585,585,587,588,590,592,593,595,596,598,600,603,605,610,612,613,614,616,617,619,619,619,619,619,619,619,619,619,619,619,619,619,619,619,619,619,620,620,620,620,620,620,620,620,620,620,620,620,625,631,652,667,671,671,671,671,671,671,671,671,671,671,671,671,671,671,671,671,671,671,671,671,671,671,671,671,671,671,671,671,671,671,671,671,671,671,671,671,671,671,671,671,671,672,672,672,672,672,672,672,672,672,672,672,672,673,675,676,677,677,678,678,678,679,679,679,677,673,668,656,649,643,634,627,616,614,613,612,612,612,612,612,612,612,612,612,612,612,612,612,612,612,612,612,612,612,612,612,612,612,612,612,612,612,612,612,612,612,612,612,612,612,612,612,612,612,612,612,612,612,612,612,612,612,612,612,612,612,612,612,612,612,612,612,612,612,612,612,612,610,606,599,589,582,570,570,570,570,570,570,573,580,586,592,598,600,601,602,603,604,607,608,610,611,614,615,615,615,615,615,615,615,615,615,615,603,587,567,541,464,422,375,324,250,153,108,69],"timestamp_mouse":[10,20,39,58,78,98,119,138,158,178,198,219,238,259,279,298,318,338,359,379,399,418,438,457,478,497,519,539,559,579,599,618,638,657,678,697,718,738,758,778,799,818,839,858,878,899,917,939,959,979,998,1019,1039,1059,1079,1098,1118,1138,1158,1179,1198,1219,1237,1258,1278,1299,1319,1338,1357,1379,1399,1418,1438,1458,1478,1498,1518,1538,1558,1578,1598,1619,1637,1657,1678,1698,1718,1739,1759,1779,1797,1819,1839,1858,1879,1898,1919,1938,1958,1979,1999,2019,2038,2059,2078,2098,2119,2139,2158,2179,2198,2219,2238,2258,2279,2298,2318,2338,2357,2378,2399,2419,2438,2457,2478,2499,2518,2537,2558,2577,2599,2619,2639,2658,2679,2699,2718,2739,2758,2778,2799,2819,2838,2858,2879,2899,2918,2938,2959,2977,2997,3018,3039,3059,3077,3098,3118,3139,3159,3178,3199,3218,3238,3259,3278,3298,3318,3338,3357,3379,3398,3419,3438,3457,3478,3498,3518,3537,3558,3579,3597,3619,3638,3658,3678,3699,3718,3739,3757,3777,3799,3818,3839,3859,3879,3898,3917,3939,3959,3979,3997,4018,4037,4058,4079,4099,4118,4139,4159,4178,4198,4219,4239,4259,4277,4298,4319,4339,4359,4377,4398,4419,4438,4457,4479,4499,4518,4539,4559,4578,4598,4618,4639,4658,4679,4698,4719,4738,4757,4777,4797,4819,4838,4859,4878,4898,4918,4938,4958,4978,4998,5018,5039,5059,5079,5099,5119,5139,5158,5179,5199,5219,5238,5257,5277,5298,5319,5338,5358,5379,5399,5418,5438,5458,5478,5497,5517,5539,5557,5579,5598,5619,5638,5658,5677,5698,5718],"xSR":741.5,"ySR":501.8,"xT1":424.9,"yT1":0,"xT2":1058.1,"yT2":0,"toosoon":0,"cond_shown":"equaldotanddens","ratio_trial":250,"smaller_num":"2","larger_num":"8","correct_side":2,"subjID":"LUISABAQUEN19","gender":null,"age":"No_age","school":"No_school","test":{"fix_dur":[250,1500],"timestim":300,"targets_dim":[100,100],"targets_relative_coord":[0.3,0.7],"size_stim":[880,420],"start_dim":[100,100],"size_start":[300,300],"size_fix":60,"samplingrate":20,"img_types":["equaldotsize","equaldotanddens","randomdotsizeEA"],"ratios":[250,500,750,900],"rep_conds":9,"nTrials":120,"trials_to_rest":500,"Trials_order":[61,97,100,105,22,114,82,27,62,47,109,16,43,4,31,81,101,70,83,55,11,45,57,7,14,108,38,40,86,88,8,46,18,77,96,90,12,42,53,5,29,98,59,72,99,94,119,6,111,92,0,54,80,3,106,74,85,36,17,112,19,35,23,107,24,113,68,48,32,69,30,76,51,64,78,73,13,65,66,63,95,103,50,37,15,79,33,71,1,93,9,2,10,110,26,102,49,56,44,41,39,91,84,89,21,52,116,104,117,75,20,67,34,25,87,58,28,118,115,60],"cond_shown":["equaldotanddens","equaldotanddens","equaldotanddens","equaldotsize","equaldotanddens","equaldotsize","equaldotanddens","equaldotsize","randomdotsizeEA","randomdotsizeEA","equaldotanddens","equaldotanddens","equaldotanddens","equaldotanddens","equaldotanddens","equaldotsize","randomdotsizeEA","equaldotanddens","randomdotsizeEA","equaldotanddens","randomdotsizeEA","equaldotsize","equaldotsize","equaldotanddens","randomdotsizeEA","equaldotsize","randomdotsizeEA","equaldotanddens","randomdotsizeEA","equaldotanddens","randomdotsizeEA","equaldotanddens","equaldotsize","randomdotsizeEA","equaldotsize","equaldotsize","equaldotsize","equaldotsize","randomdotsizeEA","randomdotsizeEA","randomdotsizeEA","randomdotsizeEA","randomdotsizeEA","equaldotsize","equaldotsize","equaldotanddens","randomdotsizeEA","equaldotsize","equaldotsize","randomdotsizeEA","equaldotsize","equaldotsize","randomdotsizeEA","equaldotsize","equaldotanddens","randomdotsizeEA","equaldotanddens","equaldotsize","randomdotsizeEA","equaldotanddens","equaldotanddens","randomdotsizeEA","randomdotsizeEA","randomdotsizeEA","equaldotsize","randomdotsizeEA","randomdotsizeEA","equaldotsize","randomdotsizeEA","equaldotsize","equaldotsize","equaldotanddens","equaldotsize","equaldotanddens","equaldotsize","equaldotanddens","equaldotanddens","randomdotsizeEA","equaldotsize","equaldotsize","randomdotsizeEA","equaldotanddens","randomdotsizeEA","equaldotanddens","equaldotsize","equaldotanddens","equaldotsize","randomdotsizeEA","equaldotanddens","equaldotsize","equaldotsize","randomdotsizeEA","equaldotanddens","randomdotsizeEA","randomdotsizeEA","equaldotsize","equaldotanddens","randomdotsizeEA","randomdotsizeEA","randomdotsizeEA","equaldotsize","equaldotanddens","equaldotsize","randomdotsizeEA","equaldotsize","equaldotanddens","randomdotsizeEA","randomdotsizeEA","equaldotsize","equaldotsize","randomdotsizeEA","equaldotanddens","equaldotanddens","equaldotanddens","equaldotsize","equaldotanddens","equaldotanddens","equaldotanddens","equaldotanddens","equaldotsize"],"ratio_trial":[250,250,500,900,900,750,900,500,250,900,250,500,750,500,750,900,500,900,900,750,900,900,900,750,250,250,250,500,250,500,750,900,750,500,250,750,250,750,500,500,500,250,900,250,500,900,900,750,500,750,250,750,750,500,900,250,250,250,500,500,750,900,900,900,250,500,750,250,750,900,750,500,500,500,750,250,250,500,750,500,900,750,250,250,500,750,900,900,250,900,900,250,900,250,250,750,250,750,750,500,500,750,250,500,900,500,750,750,900,500,750,750,900,250,500,900,500,900,750,250],"smaller_num":["2","3","10","18","18","6","18","1","6","18","2","10","3","9","18","9","10","18","18","6","18","18","18","3","6","2","1","4","3","5","6","9","3","9","6","6","3","3","6","9","2","4","18","2","6","18","18","3","4","6","4","6","3","5","18","3","2","3","6","5","15","18","18","9","3","4","6","5","15","18","9","2","2","10","15","3","3","5","6","2","18","3","3","2","10","12","18","18","3","9","18","3","18","6","6","12","2","3","3","6","1","15","2","5","9","5","15","15","9","2","3","3","18","2","10","18","4","9","6","4"],"larger_num":["8","12","20","20","20","8","20","2","24","20","8","20","4","18","24","10","20","20","20","8","20","20","20","4","24","8","4","8","12","10","8","10","4","18","24","8","12","4","12","18","4","16","20","8","12","20","20","4","8","8","16","8","4","10","20","12","8","12","12","10","20","20","20","10","12","8","8","20","20","20","12","4","4","20","20","12","12","10","8","4","20","4","12","8","20","16","20","20","12","10","20","12","20","24","24","16","8","4","4","12","2","20","8","10","10","10","20","20","10","4","4","4","20","8","20","20","8","10","8","16"],"correct_side":[2,2,2,1,2,1,1,2,2,1,1,2,2,2,1,2,2,2,1,1,1,1,2,1,1,1,2,1,1,2,2,2,1,2,1,2,2,1,1,2,2,2,1,1,1,1,1,2,1,2,2,1,1,2,2,2,1,2,1,1,1,1,1,2,2,1,1,2,2,1,2,2,1,2,2,1,2,2,1,2,1,1,1,1,2,2,2,1,1,1,1,2,2,1,1,2,1,2,1,1,2,2,1,2,1,2,1,1,2,1,2,1,1,1,2,1,1,2,2,2],"img_shown":["img/250/equaldotanddens/R/13_Ratio_250_L_2_R_8.png","img/250/equaldotanddens/R/9_Ratio_250_L_3_R_12.png","img/500/equaldotanddens/R/3_Ratio_500_L_10_R_20.png","img/900/equaldotsize/L/2_Ratio_900_L_20_R_18.png","img/900/equaldotanddens/R/13_Ratio_900_L_18_R_20.png","img/750/equaldotsize/L/14_Ratio_750_L_8_R_6.png","img/900/equaldotanddens/L/8_Ratio_900_L_20_R_18.png","img/500/equaldotsize/R/12_Ratio_500_L_1_R_2.png","img/250/randomdotsizeEA/R/6_Ratio_250_L_6_R_24.png","img/900/randomdotsizeEA/L/2_Ratio_900_L_20_R_18.png","img/250/equaldotanddens/L/3_Ratio_250_L_8_R_2.png","img/500/equaldotanddens/R/3_Ratio_500_L_10_R_20.png","img/750/equaldotanddens/R/12_Ratio_750_L_3_R_4.png","img/500/equaldotanddens/R/1_Ratio_500_L_9_R_18.png","img/750/equaldotanddens/L/6_Ratio_750_L_24_R_18.png","img/900/equaldotsize/R/5_Ratio_900_L_9_R_10.png","img/500/randomdotsizeEA/R/3_Ratio_500_L_10_R_20.png","img/900/equaldotanddens/R/11_Ratio_900_L_18_R_20.png","img/900/randomdotsizeEA/L/4_Ratio_900_L_20_R_18.png","img/750/equaldotanddens/L/14_Ratio_750_L_8_R_6.png","img/900/randomdotsizeEA/L/8_Ratio_900_L_20_R_18.png","img/900/equaldotsize/L/2_Ratio_900_L_20_R_18.png","img/900/equaldotsize/R/13_Ratio_900_L_18_R_20.png","img/750/equaldotanddens/L/8_Ratio_750_L_4_R_3.png","img/250/randomdotsizeEA/L/5_Ratio_250_L_24_R_6.png","img/250/equaldotsize/L/1_Ratio_250_L_8_R_2.png","img/250/randomdotsizeEA/R/8_Ratio_250_L_1_R_4.png","img/500/equaldotanddens/L/8_Ratio_500_L_8_R_4.png","img/250/randomdotsizeEA/L/14_Ratio_250_L_12_R_3.png","img/500/equaldotanddens/R/14_Ratio_500_L_5_R_10.png","img/750/randomdotsizeEA/R/2_Ratio_750_L_6_R_8.png","img/900/equaldotanddens/R/7_Ratio_900_L_9_R_10.png","img/750/equaldotsize/L/8_Ratio_750_L_4_R_3.png","img/500/randomdotsizeEA/R/6_Ratio_500_L_9_R_18.png","img/250/equaldotsize/L/5_Ratio_250_L_24_R_6.png","img/750/equaldotsize/R/2_Ratio_750_L_6_R_8.png","img/250/equaldotsize/R/4_Ratio_250_L_3_R_12.png","img/750/equaldotsize/L/9_Ratio_750_L_4_R_3.png","img/500/randomdotsizeEA/L/13_Ratio_500_L_12_R_6.png","img/500/randomdotsizeEA/R/6_Ratio_500_L_9_R_18.png","img/500/randomdotsizeEA/R/9_Ratio_500_L_2_R_4.png","img/250/randomdotsizeEA/R/10_Ratio_250_L_4_R_16.png","img/900/randomdotsizeEA/L/2_Ratio_900_L_20_R_18.png","img/250/equaldotsize/L/1_Ratio_250_L_8_R_2.png","img/500/equaldotsize/L/11_Ratio_500_L_12_R_6.png","img/900/equaldotanddens/L/2_Ratio_900_L_20_R_18.png","img/900/randomdotsizeEA/L/4_Ratio_900_L_20_R_18.png","img/750/equaldotsize/R/7_Ratio_750_L_3_R_4.png","img/500/equaldotsize/L/8_Ratio_500_L_8_R_4.png","img/750/randomdotsizeEA/R/2_Ratio_750_L_6_R_8.png","img/250/equaldotsize/R/10_Ratio_250_L_4_R_16.png","img/750/equaldotsize/L/14_Ratio_750_L_8_R_6.png","img/750/randomdotsizeEA/L/8_Ratio_750_L_4_R_3.png","img/500/equaldotsize/R/14_Ratio_500_L_5_R_10.png","img/900/equaldotanddens/R/11_Ratio_900_L_18_R_20.png","img/250/randomdotsizeEA/R/4_Ratio_250_L_3_R_12.png","img/250/equaldotanddens/L/7_Ratio_250_L_8_R_2.png","img/250/equaldotsize/R/11_Ratio_250_L_3_R_12.png","img/500/randomdotsizeEA/L/13_Ratio_500_L_12_R_6.png","img/500/equaldotanddens/L/7_Ratio_500_L_10_R_5.png","img/750/equaldotanddens/L/1_Ratio_750_L_20_R_15.png","img/900/randomdotsizeEA/L/2_Ratio_900_L_20_R_18.png","img/900/randomdotsizeEA/L/4_Ratio_900_L_20_R_18.png","img/900/randomdotsizeEA/R/15_Ratio_900_L_9_R_10.png","img/250/equaldotsize/R/11_Ratio_250_L_3_R_12.png","img/500/randomdotsizeEA/L/8_Ratio_500_L_8_R_4.png","img/750/randomdotsizeEA/L/13_Ratio_750_L_8_R_6.png","img/250/equaldotsize/R/12_Ratio_250_L_5_R_20.png","img/750/randomdotsizeEA/R/3_Ratio_750_L_15_R_20.png","img/900/equaldotsize/L/8_Ratio_900_L_20_R_18.png","img/750/equaldotsize/R/15_Ratio_750_L_9_R_12.png","img/500/equaldotanddens/R/9_Ratio_500_L_2_R_4.png","img/500/equaldotsize/L/10_Ratio_500_L_4_R_2.png","img/500/equaldotanddens/R/3_Ratio_500_L_10_R_20.png","img/750/equaldotsize/R/3_Ratio_750_L_15_R_20.png","img/250/equaldotanddens/L/15_Ratio_250_L_12_R_3.png","img/250/equaldotanddens/R/11_Ratio_250_L_3_R_12.png","img/500/randomdotsizeEA/R/14_Ratio_500_L_5_R_10.png","img/750/equaldotsize/L/13_Ratio_750_L_8_R_6.png","img/500/equaldotsize/R/9_Ratio_500_L_2_R_4.png","img/900/randomdotsizeEA/L/8_Ratio_900_L_20_R_18.png","img/750/equaldotanddens/L/9_Ratio_750_L_4_R_3.png","img/250/randomdotsizeEA/L/15_Ratio_250_L_12_R_3.png","img/250/equaldotanddens/L/7_Ratio_250_L_8_R_2.png","img/500/equaldotsize/R/3_Ratio_500_L_10_R_20.png","img/750/equaldotanddens/R/11_Ratio_750_L_12_R_16.png","img/900/equaldotsize/R/9_Ratio_900_L_18_R_20.png","img/900/randomdotsizeEA/L/4_Ratio_900_L_20_R_18.png","img/250/equaldotanddens/L/15_Ratio_250_L_12_R_3.png","img/900/equaldotsize/L/1_Ratio_900_L_10_R_9.png","img/900/equaldotsize/L/8_Ratio_900_L_20_R_18.png","img/250/randomdotsizeEA/R/11_Ratio_250_L_3_R_12.png","img/900/equaldotanddens/R/12_Ratio_900_L_18_R_20.png","img/250/randomdotsizeEA/L/5_Ratio_250_L_24_R_6.png","img/250/randomdotsizeEA/L/5_Ratio_250_L_24_R_6.png","img/750/equaldotsize/R/11_Ratio_750_L_12_R_16.png","img/250/equaldotanddens/L/3_Ratio_250_L_8_R_2.png","img/750/randomdotsizeEA/R/7_Ratio_750_L_3_R_4.png","img/750/randomdotsizeEA/L/8_Ratio_750_L_4_R_3.png","img/500/randomdotsizeEA/L/13_Ratio_500_L_12_R_6.png","img/500/equaldotsize/R/15_Ratio_500_L_1_R_2.png","img/750/equaldotanddens/R/4_Ratio_750_L_15_R_20.png","img/250/equaldotsize/L/1_Ratio_250_L_8_R_2.png","img/500/randomdotsizeEA/R/14_Ratio_500_L_5_R_10.png","img/900/equaldotsize/L/1_Ratio_900_L_10_R_9.png","img/500/equaldotanddens/R/14_Ratio_500_L_5_R_10.png","img/750/randomdotsizeEA/L/1_Ratio_750_L_20_R_15.png","img/750/randomdotsizeEA/L/1_Ratio_750_L_20_R_15.png","img/900/equaldotsize/R/7_Ratio_900_L_9_R_10.png","img/500/equaldotsize/L/10_Ratio_500_L_4_R_2.png","img/750/randomdotsizeEA/R/7_Ratio_750_L_3_R_4.png","img/750/equaldotanddens/L/9_Ratio_750_L_4_R_3.png","img/900/equaldotanddens/L/8_Ratio_900_L_20_R_18.png","img/250/equaldotanddens/L/3_Ratio_250_L_8_R_2.png","img/500/equaldotsize/R/3_Ratio_500_L_10_R_20.png","img/900/equaldotanddens/L/4_Ratio_900_L_20_R_18.png","img/500/equaldotanddens/L/8_Ratio_500_L_8_R_4.png","img/900/equaldotanddens/R/6_Ratio_900_L_9_R_10.png","img/750/equaldotanddens/R/2_Ratio_750_L_6_R_8.png","img/250/equaldotsize/R/10_Ratio_250_L_4_R_16.png"],"Rat0":[["12_Ratio_0_L_9_R_0.png","13_Ratio_0_L_6_R_0.png","5_Ratio_0_L_2_R_0.png","6_Ratio_0_L_4_R_0.png","8_Ratio_0_L_6_R_0.png"],["1_Ratio_0_L_0_R_17.png","10_Ratio_0_L_0_R_22.png","11_Ratio_0_L_0_R_1.png","14_Ratio_0_L_0_R_24.png","15_Ratio_0_L_0_R_4.png","2_Ratio_0_L_0_R_5.png","3_Ratio_0_L_0_R_17.png","4_Ratio_0_L_0_R_7.png","7_Ratio_0_L_0_R_19.png","9_Ratio_0_L_0_R_15.png"]],"Rat250":[["1_Ratio_250_L_8_R_2.png","14_Ratio_250_L_12_R_3.png","15_Ratio_250_L_12_R_3.png","2_Ratio_250_L_16_R_4.png","3_Ratio_250_L_8_R_2.png","5_Ratio_250_L_24_R_6.png","7_Ratio_250_L_8_R_2.png"],["10_Ratio_250_L_4_R_16.png","11_Ratio_250_L_3_R_12.png","12_Ratio_250_L_5_R_20.png","13_Ratio_250_L_2_R_8.png","4_Ratio_250_L_3_R_12.png","6_Ratio_250_L_6_R_24.png","8_Ratio_250_L_1_R_4.png","9_Ratio_250_L_3_R_12.png"]],"Rat500":[["10_Ratio_500_L_4_R_2.png","11_Ratio_500_L_12_R_6.png","13_Ratio_500_L_12_R_6.png","4_Ratio_500_L_18_R_9.png","5_Ratio_500_L_4_R_2.png","7_Ratio_500_L_10_R_5.png","8_Ratio_500_L_8_R_4.png"],["1_Ratio_500_L_9_R_18.png","12_Ratio_500_L_1_R_2.png","14_Ratio_500_L_5_R_10.png","15_Ratio_500_L_1_R_2.png","2_Ratio_500_L_3_R_6.png","3_Ratio_500_L_10_R_20.png","6_Ratio_500_L_9_R_18.png","9_Ratio_500_L_2_R_4.png"]],"Rat750":[["1_Ratio_750_L_20_R_15.png","10_Ratio_750_L_4_R_3.png","13_Ratio_750_L_8_R_6.png","14_Ratio_750_L_8_R_6.png","6_Ratio_750_L_24_R_18.png","8_Ratio_750_L_4_R_3.png","9_Ratio_750_L_4_R_3.png"],["11_Ratio_750_L_12_R_16.png","12_Ratio_750_L_3_R_4.png","15_Ratio_750_L_9_R_12.png","2_Ratio_750_L_6_R_8.png","3_Ratio_750_L_15_R_20.png","4_Ratio_750_L_15_R_20.png","5_Ratio_750_L_15_R_20.png","7_Ratio_750_L_3_R_4.png"]],"Rat900":[["1_Ratio_900_L_10_R_9.png","10_Ratio_900_L_20_R_18.png","2_Ratio_900_L_20_R_18.png","4_Ratio_900_L_20_R_18.png","8_Ratio_900_L_20_R_18.png"],["11_Ratio_900_L_18_R_20.png","12_Ratio_900_L_18_R_20.png","13_Ratio_900_L_18_R_20.png","14_Ratio_900_L_18_R_20.png","15_Ratio_900_L_9_R_10.png","3_Ratio_900_L_9_R_10.png","5_Ratio_900_L_9_R_10.png","6_Ratio_900_L_9_R_10.png","7_Ratio_900_L_9_R_10.png","9_Ratio_900_L_18_R_20.png"]],"Rat1000":[["10_Ratio_1000_L_16_R_16.png","11_Ratio_1000_L_6_R_6.png","12_Ratio_1000_L_14_R_14.png","13_Ratio_1000_L_20_R_20.png","15_Ratio_1000_L_15_R_15.png","2_Ratio_1000_L_17_R_17.png","4_Ratio_1000_L_9_R_9.png","5_Ratio_1000_L_6_R_6.png","6_Ratio_1000_L_19_R_19.png","8_Ratio_1000_L_14_R_14.png","9_Ratio_1000_L_25_R_25.png"],["1_Ratio_1000_L_1_R_1.png","14_Ratio_1000_L_17_R_17.png","3_Ratio_1000_L_17_R_17.png","7_Ratio_1000_L_6_R_6.png"]]}},{"start_time":1552313628203,"click_time":1552313631530,"finger_time":1552313629910,"fix_duration":1431.1631563275955,"trial":1,"RT":1707,"MT":1620,"sideResp":2,"stimulus":"img/250/equaldotanddens/R/9_Ratio_250_L_3_R_12.png","xmouse":[803,803,803,803,803,803,803,803,803,803,803,803,803,803,803,803,803,803,803,803,803,803,803,803,803,803,803,803,803,803,803,803,803,803,803,803,803,803,803,803,803,803,803,803,803,803,803,803,803,803,803,803,803,803,803,803,803,803,803,803,803,803,803,803,803,803,803,803,803,803,803,803,803,804,805,806,809,809,811,814,820,823,825,829,833,844,852,856,869,878,888,900,902,902,902,902,902,902,902,902,902,902,902,902,902,897,893,886,882,877,870,857,850,846,844,843,843,842,840,836,831,830,827,825,824,822,821,821,820,819,818,818,818,818,818,834,901,960,1035,1107,1225,1268,1299,1322,1333,1338,1339,1339,1338,1334,1300,1277,1256,1243,1235,1224,1220,1215,1211,1210,1209,1202,1197,1192,1185,1180,1153],"ymouse":[607,607,607,607,607,607,607,607,607,607,607,607,607,607,607,607,607,607,607,607,607,607,607,607,607,607,607,607,607,607,607,607,607,607,607,607,607,607,607,607,607,607,607,607,607,607,607,607,607,607,607,607,607,607,607,607,607,607,607,607,607,607,607,607,607,607,607,607,607,607,607,607,607,608,608,608,607,607,605,603,599,596,592,588,582,569,559,553,533,521,508,489,484,484,484,484,484,484,484,484,484,484,484,484,486,493,500,509,514,521,530,542,547,552,554,555,556,558,564,571,586,593,598,603,606,609,611,613,613,615,615,615,615,615,615,592,494,405,301,193,5,0,0,0,0,0,0,0,0,2,7,10,10,10,11,11,11,11,12,12,12,13,15,15,19,21,30],"timestamp_mouse":[10,44,47,67,88,108,128,148,166,188,208,226,247,268,286,308,328,347,366,388,407,427,447,468,487,507,527,548,567,588,607,627,648,668,686,706,728,747,766,787,808,827,848,868,888,908,927,947,967,987,1008,1027,1046,1068,1087,1108,1127,1148,1168,1187,1207,1227,1247,1267,1287,1307,1328,1346,1368,1388,1407,1426,1448,1468,1488,1507,1526,1548,1568,1588,1607,1627,1647,1667,1688,1707,1726,1747,1766,1787,1807,1828,1847,1867,1886,1908,1927,1948,1968,1987,2007,2026,2047,2068,2087,2107,2127,2147,2167,2187,2208,2227,2246,2268,2288,2307,2327,2346,2366,2387,2407,2428,2447,2467,2487,2508,2528,2547,2567,2587,2607,2628,2647,2668,2688,2707,2727,2747,2767,2787,2808,2827,2846,2868,2887,2908,2927,2948,2967,2987,3008,3027,3048,3068,3088,3110,3127,3147,3168,3187,3208,3227,3247,3267,3288,3306,3326],"xSR":741.5,"ySR":573.95,"xT1":424.9,"yT1":0,"xT2":1058.1,"yT2":0,"toosoon":0,"cond_shown":"equaldotanddens","ratio_trial":250,"smaller_num":"3","larger_num":"12","correct_side":2,"subjID":"LUISABAQUEN19","gender":null,"age":"No_age","school":"No_school"},{"start_time":1552313633490,"click_time":1552313634431,"finger_time":1552313634289,"fix_duration":578.4627364893068,"trial":2,"RT":799,"MT":142,"sideResp":2,"stimulus":"img/500/equaldotanddens/R/3_Ratio_500_L_10_R_20.png","xmouse":[833,833,833,833,833,833,833,830,827,827,827,827,827,827,826,825,823,817,815,814,814,814,814,814,814,814,814,814,814,814,814,814,814,814,814,814,814,815,824,841,871,927,988,1013,1035,1052,1063,1070],"ymouse":[655,655,655,655,655,655,655,655,655,655,655,655,655,655,655,655,655,655,655,655,655,655,655,655,655,655,655,655,655,655,655,655,655,655,655,655,655,652,633,602,549,434,279,207,158,123,100,80],"timestamp_mouse":[1,19,39,59,81,100,120,140,161,181,199,221,241,261,280,300,320,341,361,379,399,421,441,461,481,501,520,540,561,580,601,621,640,661,681,699,721,741,760,779,799,821,840,861,881,900,920,941],"xSR":741.5,"ySR":573.95,"xT1":424.9,"yT1":0,"xT2":1058.1,"yT2":0,"toosoon":0,"cond_shown":"equaldotanddens","ratio_trial":500,"smaller_num":"10","larger_num":"20","correct_side":2,"subjID":"LUISABAQUEN19","gender":null,"age":"No_age","school":"No_school"},{"start_time":1552313635959,"click_time":1552313636630,"finger_time":1552313636510,"fix_duration":345.9140681236296,"trial":3,"RT":551,"MT":120,"sideResp":1,"stimulus":"img/900/equaldotsize/L/2_Ratio_900_L_20_R_18.png","xmouse":[797,797,797,797,797,797,797,797,797,797,797,797,797,797,797,797,797,797,797,797,797,797,797,796,794,791,790,776,725,690,647,605,559,516],"ymouse":[614,614,614,614,614,614,614,614,614,614,614,614,614,614,614,614,614,614,614,614,614,614,614,614,611,592,584,539,435,371,301,227,147,72],"timestamp_mouse":[11,33,51,71,91,111,132,151,171,190,212,231,252,271,292,311,331,351,371,391,411,431,451,471,492,512,532,551,570,592,611,632,652,670],"xSR":741.5,"ySR":573.95,"xT1":424.9,"yT1":0,"xT2":1058.1,"yT2":0,"toosoon":0,"cond_shown":"equaldotsize","ratio_trial":900,"smaller_num":"18","larger_num":"20","correct_side":1,"subjID":"LUISABAQUEN19","gender":null,"age":"No_age","school":"No_school"},{"start_time":1552313639319,"click_time":1552313640531,"finger_time":1552313640131,"fix_duration":907.948987978409,"trial":4,"RT":812,"MT":400,"sideResp":2,"stimulus":"img/900/equaldotanddens/R/13_Ratio_900_L_18_R_20.png","xmouse":[759,759,759,759,759,759,759,759,759,759,759,759,759,759,759,759,759,759,759,759,759,759,759,759,759,759,759,759,759,759,759,759,759,759,759,759,765,783,798,817,855,887,919,949,974,992,996,1000,1000,1000,1000,1003,1010,1018,1026,1034,1050,1052,1055,1060,1067],"ymouse":[632,632,632,632,632,632,632,632,632,632,632,632,632,632,632,632,632,632,632,632,632,632,632,632,632,632,632,632,632,632,632,632,632,632,632,632,629,616,603,584,530,486,442,396,351,291,265,260,258,258,258,257,256,252,244,235,197,176,152,117,32],"timestamp_mouse":[11,43,52,71,92,111,132,151,172,192,211,232,251,271,292,311,331,351,372,392,412,431,451,471,491,511,532,552,571,592,612,631,651,671,691,711,731,750,772,792,812,831,851,872,891,912,931,951,971,991,1011,1031,1052,1071,1091,1111,1132,1151,1172,1191,1212],"xSR":741.5,"ySR":573.95,"xT1":424.9,"yT1":0,"xT2":1058.1,"yT2":0,"toosoon":0,"cond_shown":"equaldotanddens","ratio_trial":900,"smaller_num":"18","larger_num":"20","correct_side":2,"subjID":"LUISABAQUEN19","gender":null,"age":"No_age","school":"No_school"},{"start_time":1552313642198,"click_time":1552313644450,"finger_time":1552313643810,"fix_duration":307.5518460263619,"trial":5,"RT":1612,"MT":640,"sideResp":1,"stimulus":"img/750/equaldotsize/L/14_Ratio_750_L_8_R_6.png","xmouse":[813,813,813,813,813,813,813,813,813,813,813,813,813,813,813,813,813,813,813,813,813,813,813,813,813,813,813,813,813,813,813,813,813,813,813,813,813,813,813,813,813,813,813,813,813,813,813,813,813,813,813,813,813,813,813,813,813,813,813,813,813,813,813,813,813,813,813,813,813,813,813,813,813,813,813,813,813,813,811,806,799,777,727,699,673,650,634,617,613,610,606,604,600,600,600,600,599,574,561,552,547,547,547,547,547,547,547,547,547,547,547,542,523],"ymouse":[605,605,605,605,605,605,605,605,605,605,605,605,605,605,605,605,605,605,605,605,605,605,605,605,605,605,605,605,605,605,605,605,605,605,605,605,605,605,605,605,605,605,605,605,605,605,605,605,605,605,605,605,605,605,605,605,605,605,605,605,605,605,605,605,605,605,605,605,605,605,605,605,605,605,605,605,605,605,599,578,551,474,346,284,229,192,166,141,135,132,127,124,122,122,122,122,122,114,110,107,105,105,105,105,105,105,105,105,105,105,105,101,94],"timestamp_mouse":[11,32,67,72,91,112,133,153,173,193,211,232,252,272,293,312,332,352,372,393,412,431,452,473,492,513,532,552,573,591,613,633,653,672,692,713,733,751,772,793,813,831,853,873,892,912,932,953,973,992,1013,1033,1052,1072,1091,1113,1131,1151,1173,1193,1212,1231,1252,1271,1293,1313,1332,1352,1373,1392,1411,1432,1453,1473,1493,1512,1533,1553,1572,1591,1612,1632,1652,1672,1693,1713,1733,1752,1772,1793,1812,1833,1852,1871,1892,1912,1932,1953,1971,1991,2012,2032,2052,2072,2092,2113,2133,2152,2172,2192,2212,2232,2252],"xSR":741.5,"ySR":573.95,"xT1":424.9,"yT1":0,"xT2":1058.1,"yT2":0,"toosoon":0,"cond_shown":"equaldotsize","ratio_trial":750,"smaller_num":"6","larger_num":"8","correct_side":1,"subjID":"LUISABAQUEN19","gender":null,"age":"No_age","school":"No_school"},{"start_time":1552313645802,"click_time":1552313646850,"finger_time":1552313646611,"fix_duration":250,"trial":6,"RT":809,"MT":239,"sideResp":2,"stimulus":"img/900/equaldotanddens/L/8_Ratio_900_L_20_R_18.png","xmouse":[802,802,802,802,802,802,802,802,802,802,802,802,802,802,802,802,802,802,802,802,802,802,802,802,802,802,802,802,802,802,802,802,802,802,802,802,802,803,804,806,811,823,884,925,964,997,1020,1042,1046,1063,1081,1097,1103],"ymouse":[609,609,610,610,610,610,610,610,610,610,610,610,610,610,610,610,610,610,610,610,610,610,610,610,610,610,610,610,610,610,610,610,610,610,610,610,606,594,589,582,570,548,442,391,346,308,279,248,238,208,175,138,94],"timestamp_mouse":[10,37,48,68,89,109,128,148,169,188,209,228,247,269,288,308,328,349,368,389,409,429,448,468,488,507,529,548,569,588,608,628,647,668,688,707,729,749,767,789,809,828,847,868,889,908,928,948,968,989,1008,1028,1048],"xSR":741.5,"ySR":573.95,"xT1":424.9,"yT1":0,"xT2":1058.1,"yT2":0,"toosoon":0,"cond_shown":"equaldotanddens","ratio_trial":900,"smaller_num":"18","larger_num":"20","correct_side":1,"subjID":"LUISABAQUEN19","gender":null,"age":"No_age","school":"No_school"},{"start_time":1552313648308,"click_time":1552313649391,"finger_time":1552313649150,"fix_duration":535.0231712923755,"trial":7,"RT":842,"MT":241,"sideResp":2,"stimulus":"img/500/equaldotsize/R/12_Ratio_500_L_1_R_2.png","xmouse":[783,783,783,783,783,783,783,783,783,783,783,783,783,783,783,783,783,783,783,783,783,783,783,783,783,783,783,783,783,783,783,783,783,783,783,783,783,783,783,786,790,796,813,829,840,855,872,888,920,935,952,973,1002,1060,1093],"ymouse":[639,639,639,639,639,639,639,639,639,639,639,639,639,639,639,639,639,639,639,639,639,639,639,639,639,639,639,639,639,639,639,639,639,639,639,639,639,631,623,612,601,588,552,515,489,454,418,389,332,311,288,262,231,165,99],"timestamp_mouse":[9,22,42,62,81,102,123,142,162,183,202,222,243,263,281,301,323,343,363,383,402,422,443,461,483,503,522,542,562,583,603,622,643,662,683,703,722,743,763,782,802,822,842,862,882,902,922,943,962,982,1002,1023,1042,1062,1082],"xSR":741.5,"ySR":573.95,"xT1":424.9,"yT1":0,"xT2":1058.1,"yT2":0,"toosoon":0,"cond_shown":"equaldotsize","ratio_trial":500,"smaller_num":"1","larger_num":"2","correct_side":2,"subjID":"LUISABAQUEN19","gender":null,"age":"No_age","school":"No_school"},{"start_time":1552313650526,"click_time":1552313651671,"finger_time":1552313651250,"fix_duration":313.8736063796574,"trial":8,"RT":724,"MT":421,"sideResp":1,"stimulus":"img/250/randomdotsizeEA/R/6_Ratio_250_L_6_R_24.png","xmouse":[765,765,765,765,765,765,765,765,765,765,765,765,765,765,765,765,765,765,765,765,765,765,765,765,765,765,765,765,765,765,765,765,762,755,747,743,738,729,720,707,692,669,609,596,590,588,587,587,587,587,582,580,564,553,540,527,513,489],"ymouse":[654,654,654,654,654,654,654,654,654,654,654,654,654,654,654,654,654,654,654,654,654,654,654,654,654,654,654,654,654,654,654,654,648,639,630,621,608,578,550,520,487,440,337,317,305,299,296,289,282,274,249,242,196,177,160,144,128,98],"timestamp_mouse":[10,24,44,64,85,105,123,145,163,184,205,223,244,265,283,304,324,345,364,385,404,424,444,465,485,505,525,544,564,585,603,623,644,665,684,705,724,745,765,785,804,824,843,865,885,904,925,945,963,983,1005,1025,1044,1065,1084,1105,1125,1145],"xSR":741.5,"ySR":573.95,"xT1":424.9,"yT1":0,"xT2":1058.1,"yT2":0,"toosoon":0,"cond_shown":"randomdotsizeEA","ratio_trial":250,"smaller_num":"6","larger_num":"24","correct_side":2,"subjID":"LUISABAQUEN19","gender":null,"age":"No_age","school":"No_school"},{"start_time":1552313653058,"click_time":1552313654410,"finger_time":1552313653749,"fix_duration":507.83894429302444,"trial":9,"RT":691,"MT":661,"sideResp":2,"stimulus":"img/900/randomdotsizeEA/L/2_Ratio_900_L_20_R_18.png","xmouse":[802,802,802,802,802,802,802,802,802,802,802,802,802,802,802,802,802,802,802,802,802,802,804,804,804,804,805,805,805,805,806,808,810,813,819,850,877,909,935,959,998,1009,1015,1021,1024,1033,1035,1037,1039,1039,1040,1040,1040,1040,1040,1040,1040,1040,1040,1041,1044,1049,1054,1056,1057,1057,1058,1060],"ymouse":[622,622,622,622,622,622,622,622,622,622,622,622,622,622,622,622,622,622,622,622,622,621,619,618,616,615,614,614,613,612,607,603,597,588,571,471,399,331,264,205,132,112,99,85,70,48,42,38,35,34,34,34,34,34,34,34,34,34,34,33,33,33,33,33,33,33,34,36],"timestamp_mouse":[11,32,51,78,92,113,133,153,171,193,213,233,253,273,292,312,332,352,371,393,413,432,451,472,492,513,533,551,573,592,612,632,653,673,691,712,733,752,772,792,813,832,853,871,892,912,933,952,971,992,1012,1031,1053,1072,1092,1112,1131,1152,1172,1192,1211,1231,1253,1272,1291,1312,1332,1352],"xSR":741.5,"ySR":573.95,"xT1":424.9,"yT1":0,"xT2":1058.1,"yT2":0,"toosoon":0,"cond_shown":"randomdotsizeEA","ratio_trial":900,"smaller_num":"18","larger_num":"20","correct_side":1,"subjID":"LUISABAQUEN19","gender":null,"age":"No_age","school":"No_school"},{"start_time":1552313656575,"click_time":1552313657689,"finger_time":1552313657091,"fix_duration":923.1605520829423,"trial":10,"RT":516,"MT":598,"sideResp":1,"stimulus":"img/250/equaldotanddens/L/3_Ratio_250_L_8_R_2.png","xmouse":[820,820,820,820,820,820,820,820,820,820,820,820,820,820,820,820,820,820,820,820,820,820,820,818,799,759,718,678,637,600,524,487,454,429,394,391,391,391,391,391,391,391,391,391,391,391,391,391,400,406,410,411,413,417,422,438],"ymouse":[595,595,595,595,595,595,595,595,595,595,595,595,595,595,595,595,595,595,595,595,595,595,595,594,578,545,514,482,444,406,308,249,195,141,41,7,0,0,0,0,0,0,0,0,0,0,0,0,3,5,7,8,10,12,16,29],"timestamp_mouse":[15,42,56,76,95,115,136,155,175,194,214,236,256,275,295,315,336,355,375,396,416,434,455,476,496,516,535,556,575,594,615,635,656,676,695,717,735,755,775,796,815,835,855,875,896,915,935,956,975,996,1015,1035,1056,1075,1096,1114],"xSR":741.5,"ySR":573.95,"xT1":424.9,"yT1":0,"xT2":1058.1,"yT2":0,"toosoon":0,"cond_shown":"equaldotanddens","ratio_trial":250,"smaller_num":"2","larger_num":"8","correct_side":1,"subjID":"LUISABAQUEN19","gender":null,"age":"No_age","school":"No_school"},{"start_time":1552313660251,"click_time":1552313661471,"finger_time":1552313660889,"fix_duration":1478.9046435051494,"trial":11,"RT":638,"MT":582,"sideResp":2,"stimulus":"img/500/equaldotanddens/R/3_Ratio_500_L_10_R_20.png","xmouse":[803,803,803,803,803,803,803,803,803,803,803,803,803,803,803,803,803,803,803,803,803,803,803,803,803,803,803,803,804,807,815,828,851,875,900,931,966,1011,1022,1027,1031,1031,1037,1037,1037,1037,1037,1039,1039,1039,1039,1039,1039,1039,1040,1041,1042,1047,1050,1053,1055,1063],"ymouse":[615,615,615,615,615,615,615,615,615,615,615,615,615,615,615,615,615,615,615,615,615,615,615,615,615,615,615,615,615,614,599,582,555,525,489,448,382,260,216,171,114,97,34,18,9,2,0,0,0,0,0,0,0,0,3,5,7,15,17,18,18,19],"timestamp_mouse":[1,20,40,59,78,100,120,140,158,180,200,219,240,259,280,299,318,340,360,380,398,419,440,459,479,498,518,539,558,579,600,620,638,660,679,700,718,739,759,780,799,819,838,860,880,900,918,939,959,980,1000,1020,1039,1058,1080,1099,1120,1139,1159,1179,1200,1220],"xSR":741.5,"ySR":573.95,"xT1":424.9,"yT1":0,"xT2":1058.1,"yT2":0,"toosoon":0,"cond_shown":"equaldotanddens","ratio_trial":500,"smaller_num":"10","larger_num":"20","correct_side":2,"subjID":"LUISABAQUEN19","gender":null,"age":"No_age","school":"No_school"},{"start_time":1552313664207,"click_time":1552313665291,"finger_time":1552313664790,"fix_duration":1335.9173848839882,"trial":12,"RT":583,"MT":501,"sideResp":2,"stimulus":"img/750/equaldotanddens/R/12_Ratio_750_L_3_R_4.png","xmouse":[804,804,804,804,804,804,804,804,804,804,804,804,804,804,804,804,804,804,804,804,804,804,804,804,804,804,804,804,806,833,863,901,911,912,912,913,913,913,913,916,921,935,949,961,981,988,997,1009,1024,1059,1078,1101,1112,1119,1128],"ymouse":[584,584,584,584,584,584,584,584,584,584,584,584,584,584,584,584,584,584,584,584,584,584,584,584,584,584,584,584,583,573,557,529,506,485,441,415,413,401,372,318,292,261,243,233,225,223,218,209,198,170,153,129,113,100,82],"timestamp_mouse":[10,23,43,64,82,102,122,143,164,184,203,224,242,264,284,303,322,344,363,383,403,423,443,462,483,503,523,544,564,583,602,624,642,664,683,703,724,744,764,784,803,823,843,864,883,903,924,944,962,984,1003,1024,1043,1063,1083],"xSR":741.5,"ySR":573.95,"xT1":424.9,"yT1":0,"xT2":1058.1,"yT2":0,"toosoon":0,"cond_shown":"equaldotanddens","ratio_trial":750,"smaller_num":"3","larger_num":"4","correct_side":2,"subjID":"LUISABAQUEN19","gender":null,"age":"No_age","school":"No_school"},{"start_time":1552313666932,"click_time":1552313668032,"finger_time":1552313667669,"fix_duration":721.3919864935467,"trial":13,"RT":737,"MT":363,"sideResp":2,"stimulus":"img/500/equaldotanddens/R/1_Ratio_500_L_9_R_18.png","xmouse":[835,835,835,835,835,835,835,835,835,835,835,835,835,835,835,835,835,835,835,835,835,835,835,835,835,835,835,835,835,835,835,835,835,835,835,839,844,852,879,898,917,944,977,1062,1078,1086,1091,1094,1095,1095,1095,1096,1098,1098,1098],"ymouse":[644,644,644,644,644,644,644,644,644,644,644,644,644,644,644,644,644,644,644,644,644,644,644,644,644,644,644,644,644,644,644,644,644,644,644,636,630,616,570,533,492,445,403,315,288,267,252,237,211,192,172,153,116,106,99],"timestamp_mouse":[18,42,58,78,99,117,137,159,179,198,219,239,259,278,298,318,339,358,378,398,417,438,459,478,497,517,538,559,578,597,617,638,658,677,697,717,737,757,778,797,817,837,858,878,898,918,938,957,977,999,1019,1038,1059,1078,1099],"xSR":741.5,"ySR":573.95,"xT1":424.9,"yT1":0,"xT2":1058.1,"yT2":0,"toosoon":0,"cond_shown":"equaldotanddens","ratio_trial":500,"smaller_num":"9","larger_num":"18","correct_side":2,"subjID":"LUISABAQUEN19","gender":null,"age":"No_age","school":"No_school"},{"start_time":1552313669979,"click_time":1552313671070,"finger_time":1552313670630,"fix_duration":985.0037440033761,"trial":14,"RT":651,"MT":440,"sideResp":1,"stimulus":"img/750/equaldotanddens/L/6_Ratio_750_L_24_R_18.png","xmouse":[806,806,806,806,806,806,806,806,806,806,806,806,806,806,806,806,806,806,806,806,806,806,806,806,806,806,806,806,806,806,806,806,806,806,806,793,768,751,726,699,668,594,577,547,537,534,532,530,530,530,530,530,530,529,524],"ymouse":[648,648,648,648,648,648,648,648,648,648,648,648,648,648,648,648,648,648,648,648,648,648,648,648,648,648,648,648,644,636,630,591,569,544,517,487,424,385,331,269,196,32,5,0,0,0,0,0,0,0,0,0,0,0,1],"timestamp_mouse":[11,36,52,71,92,110,130,152,172,191,211,231,250,272,292,311,332,351,372,391,412,431,452,471,492,511,531,552,572,592,611,630,651,671,692,712,731,752,772,791,811,830,851,872,890,911,932,951,971,990,1010,1031,1051,1072,1091],"xSR":741.5,"ySR":573.95,"xT1":424.9,"yT1":0,"xT2":1058.1,"yT2":0,"toosoon":0,"cond_shown":"equaldotanddens","ratio_trial":750,"smaller_num":"18","larger_num":"24","correct_side":1,"subjID":"LUISABAQUEN19","gender":null,"age":"No_age","school":"No_school"},{"start_time":1552313675250,"click_time":1552313676431,"finger_time":1552313676011,"fix_duration":798.0049592839409,"trial":15,"RT":761,"MT":420,"sideResp":1,"stimulus":"img/900/equaldotsize/R/5_Ratio_900_L_9_R_10.png","xmouse":[808,808,808,808,808,808,808,808,808,808,808,808,808,808,808,808,808,808,808,808,808,808,808,808,808,808,808,808,808,808,808,808,808,808,808,808,808,808,798,784,761,735,706,680,636,621,605,588,560,550,541,535,532,526,523,521,519,516,514,510],"ymouse":[580,580,580,580,580,580,580,580,580,580,580,580,580,580,580,580,580,580,580,580,580,580,580,580,580,580,580,580,580,580,580,580,580,580,580,580,580,580,566,540,505,462,414,371,286,264,246,230,204,194,183,173,167,154,147,141,133,124,113,95],"timestamp_mouse":[13,24,40,60,80,100,121,140,161,180,199,221,240,261,279,300,320,341,360,381,400,420,440,461,481,501,521,540,561,580,601,621,640,660,680,701,720,740,761,780,799,821,841,860,881,901,921,941,961,979,1001,1021,1040,1061,1080,1101,1120,1140,1159,1181],"xSR":741.5,"ySR":573.95,"xT1":424.9,"yT1":0,"xT2":1058.1,"yT2":0,"toosoon":0,"cond_shown":"equaldotsize","ratio_trial":900,"smaller_num":"9","larger_num":"10","correct_side":2,"subjID":"LUISABAQUEN19","gender":null,"age":"No_age","school":"No_school"},{"start_time":1552313678612,"click_time":1552313679591,"finger_time":1552313679191,"fix_duration":1099.088276173665,"trial":16,"RT":579,"MT":400,"sideResp":2,"stimulus":"img/500/randomdotsizeEA/R/3_Ratio_500_L_10_R_20.png","xmouse":[803,803,803,803,803,803,803,803,803,803,803,803,803,803,803,803,803,803,803,803,803,803,803,803,804,808,814,823,829,840,879,918,965,1065,1131,1201,1212,1215,1215,1214,1211,1208,1204,1196,1192,1177,1171,1161,1151],"ymouse":[632,632,632,632,632,631,631,631,631,631,631,631,631,631,631,631,631,631,631,631,631,631,631,631,629,619,610,593,571,543,447,373,295,185,136,78,67,61,60,56,52,48,43,40,38,36,35,35,35],"timestamp_mouse":[18,38,58,77,98,119,138,159,178,198,219,238,259,278,298,319,339,358,378,398,419,439,458,478,497,518,538,558,579,598,618,637,658,678,697,718,738,759,777,798,817,838,859,879,898,917,939,958,979],"xSR":741.5,"ySR":573.95,"xT1":424.9,"yT1":0,"xT2":1058.1,"yT2":0,"toosoon":0,"cond_shown":"randomdotsizeEA","ratio_trial":500,"smaller_num":"10","larger_num":"20","correct_side":2,"subjID":"LUISABAQUEN19","gender":null,"age":"No_age","school":"No_school"},{"start_time":1552313681700,"click_time":1552313682671,"finger_time":1552313682330,"fix_duration":969.117627558542,"trial":17,"RT":630,"MT":341,"sideResp":2,"stimulus":"img/900/equaldotanddens/R/11_Ratio_900_L_18_R_20.png","xmouse":[816,816,816,816,816,816,816,816,816,816,816,816,816,816,816,816,816,815,815,815,815,815,815,815,815,815,815,815,815,815,817,884,947,1023,1091,1143,1199,1209,1211,1211,1211,1207,1204,1201,1196,1190,1173,1163,1148],"ymouse":[613,613,613,613,613,613,613,613,613,613,613,614,614,614,614,614,614,614,614,614,614,614,614,614,614,614,614,614,614,614,613,566,521,472,422,373,287,259,233,199,180,150,136,125,112,101,78,66,56],"timestamp_mouse":[12,39,51,71,90,111,130,150,172,191,211,230,251,270,291,310,331,350,370,391,410,430,451,471,490,510,531,551,571,590,611,630,650,670,691,710,731,750,771,791,810,831,850,871,891,910,930,950,971],"xSR":741.5,"ySR":573.95,"xT1":424.9,"yT1":0,"xT2":1058.1,"yT2":0,"toosoon":0,"cond_shown":"equaldotanddens","ratio_trial":900,"smaller_num":"18","larger_num":"20","correct_side":2,"subjID":"LUISABAQUEN19","gender":null,"age":"No_age","school":"No_school"},{"start_time":1552313685218,"click_time":1552313686250,"finger_time":1552313685951,"fix_duration":1486.6812028684105,"trial":18,"RT":733,"MT":299,"sideResp":2,"stimulus":"img/900/randomdotsizeEA/L/4_Ratio_900_L_20_R_18.png","xmouse":[806,806,806,806,806,805,802,799,797,797,797,797,797,797,797,797,797,797,797,797,797,797,797,797,797,797,797,797,797,797,797,797,797,796,797,799,818,846,872,901,933,992,999,1005,1007,1014,1017,1022,1029,1036,1044,1060],"ymouse":[590,590,590,590,590,590,590,591,592,593,593,593,593,593,593,593,593,593,593,593,593,593,593,593,593,593,593,593,593,593,593,593,593,592,587,577,539,500,455,409,356,241,219,202,190,172,163,153,141,127,115,88],"timestamp_mouse":[14,32,52,72,92,113,132,153,172,192,213,233,252,272,292,312,333,352,374,393,412,432,452,472,493,512,532,552,573,593,613,632,652,673,692,712,733,752,773,793,812,833,853,872,893,913,932,953,973,993,1013,1032],"xSR":741.5,"ySR":573.95,"xT1":424.9,"yT1":0,"xT2":1058.1,"yT2":0,"toosoon":0,"cond_shown":"randomdotsizeEA","ratio_trial":900,"smaller_num":"18","larger_num":"20","correct_side":1,"subjID":"LUISABAQUEN19","gender":null,"age":"No_age","school":"No_school"},{"start_time":1552313688042,"click_time":1552313688930,"finger_time":1552313688651,"fix_duration":788.4905699000661,"trial":19,"RT":609,"MT":279,"sideResp":1,"stimulus":"img/750/equaldotanddens/L/14_Ratio_750_L_8_R_6.png","xmouse":[786,786,786,786,786,786,786,786,786,786,786,786,786,786,786,785,785,785,785,785,785,785,785,785,785,785,785,783,781,758,683,634,590,557,536,519,518,517,515,513,506,503,502,501,498],"ymouse":[630,631,631,631,631,631,632,632,632,632,632,632,632,632,633,633,633,633,633,633,633,633,633,633,633,633,633,632,627,591,479,406,336,275,231,182,173,168,163,150,127,117,108,100,93],"timestamp_mouse":[12,44,49,68,89,108,129,149,168,188,208,229,248,269,288,308,329,349,368,389,408,429,449,469,489,508,529,548,568,589,609,629,648,669,688,708,729,748,769,788,808,829,849,869,888],"xSR":741.5,"ySR":573.95,"xT1":424.9,"yT1":0,"xT2":1058.1,"yT2":0,"toosoon":0,"cond_shown":"equaldotanddens","ratio_trial":750,"smaller_num":"6","larger_num":"8","correct_side":1,"subjID":"LUISABAQUEN19","gender":null,"age":"No_age","school":"No_school"},{"start_time":1552313691884,"click_time":1552313692910,"finger_time":1552313692491,"fix_duration":1451.120236317182,"trial":20,"RT":607,"MT":419,"sideResp":2,"stimulus":"img/900/randomdotsizeEA/L/8_Ratio_900_L_20_R_18.png","xmouse":[771,771,771,771,771,771,771,771,771,771,771,771,771,771,771,771,771,771,771,771,771,771,771,771,771,771,771,771,771,773,795,818,845,863,902,917,957,977,1005,1009,1017,1021,1025,1030,1032,1035,1039,1042,1049,1053,1058,1063],"ymouse":[597,597,597,597,597,597,597,597,597,597,597,597,597,597,597,597,597,597,597,597,597,597,597,597,597,597,597,597,597,596,566,535,497,473,409,380,315,270,193,167,147,132,120,107,104,100,98,97,92,91,89,87],"timestamp_mouse":[13,36,47,67,86,107,126,146,166,186,206,227,246,268,287,307,327,346,367,386,406,427,447,466,486,507,526,546,567,587,607,627,646,667,686,707,726,747,766,787,806,827,846,866,886,906,928,947,966,986,1007,1026],"xSR":741.5,"ySR":573.95,"xT1":424.9,"yT1":0,"xT2":1058.1,"yT2":0,"toosoon":0,"cond_shown":"randomdotsizeEA","ratio_trial":900,"smaller_num":"18","larger_num":"20","correct_side":1,"subjID":"LUISABAQUEN19","gender":null,"age":"No_age","school":"No_school"},{"start_time":1552313695281,"click_time":1552313696671,"finger_time":1552313696091,"fix_duration":909.6205677016849,"trial":21,"RT":810,"MT":580,"sideResp":1,"stimulus":"img/900/equaldotsize/L/2_Ratio_900_L_20_R_18.png","xmouse":[792,792,792,792,792,792,792,792,792,792,792,792,792,792,792,792,792,792,792,792,792,792,792,792,792,792,792,792,792,792,792,792,792,792,792,792,792,791,788,782,776,766,747,725,698,695,688,681,673,663,661,659,655,637,624,623,622,617,591,581,577,575,575,574,560,557,557,556,549,515],"ymouse":[657,657,657,657,657,657,657,657,657,657,657,657,657,657,657,657,657,657,657,657,657,657,657,657,657,657,657,657,657,657,657,657,657,657,657,654,646,635,620,585,562,531,481,432,302,267,231,199,174,141,131,125,117,102,92,91,89,86,75,70,68,67,67,67,65,65,65,65,65,65],"timestamp_mouse":[20,39,50,70,90,109,131,150,169,189,209,229,250,270,289,309,330,349,369,389,411,429,449,469,490,509,530,549,570,589,610,629,649,669,689,710,730,750,769,789,810,830,849,869,890,910,930,949,969,990,1010,1030,1049,1069,1090,1109,1130,1150,1170,1189,1209,1230,1249,1269,1290,1309,1329,1350,1369,1390],"xSR":741.5,"ySR":573.95,"xT1":424.9,"yT1":0,"xT2":1058.1,"yT2":0,"toosoon":0,"cond_shown":"equaldotsize","ratio_trial":900,"smaller_num":"18","larger_num":"20","correct_side":1,"subjID":"LUISABAQUEN19","gender":null,"age":"No_age","school":"No_school"},{"start_time":1552313698913,"click_time":1552313699971,"finger_time":1552313699711,"fix_duration":1240.8467182419827,"trial":22,"RT":798,"MT":260,"sideResp":2,"stimulus":"img/900/equaldotsize/R/13_Ratio_900_L_18_R_20.png","xmouse":[771,771,771,771,771,771,771,771,771,771,771,771,771,771,771,771,771,771,771,771,771,771,771,771,771,771,771,771,771,771,771,771,771,771,771,777,783,813,834,865,932,979,1065,1093,1110,1112,1118,1123,1124,1127,1132,1135,1138],"ymouse":[641,641,641,641,641,641,641,641,641,641,641,641,641,641,641,641,641,641,641,641,641,641,641,641,641,641,641,641,641,641,641,641,641,641,641,636,631,599,579,547,465,404,286,236,198,193,180,167,160,151,135,122,96],"timestamp_mouse":[17,37,58,77,97,117,138,158,177,199,218,237,257,278,298,318,337,357,378,397,417,437,458,477,497,517,537,558,577,598,617,638,657,678,697,717,738,757,778,798,818,838,858,877,897,918,938,957,978,998,1018,1038,1058],"xSR":741.5,"ySR":573.95,"xT1":424.9,"yT1":0,"xT2":1058.1,"yT2":0,"toosoon":0,"cond_shown":"equaldotsize","ratio_trial":900,"smaller_num":"18","larger_num":"20","correct_side":2,"subjID":"LUISABAQUEN19","gender":null,"age":"No_age","school":"No_school"},{"start_time":1552313701462,"click_time":1552313702812,"finger_time":1552313702391,"fix_duration":250,"trial":23,"RT":929,"MT":421,"sideResp":1,"stimulus":"img/750/equaldotanddens/L/8_Ratio_750_L_4_R_3.png","xmouse":[806,806,806,806,806,806,806,806,806,806,806,806,806,806,806,806,806,806,806,806,806,806,806,806,806,806,806,806,806,806,806,806,806,806,806,806,806,806,806,806,806,806,806,806,794,781,707,670,649,636,632,627,623,612,599,584,555,549,549,549,552,556,552,545,541,535,514,503],"ymouse":[599,599,599,599,599,599,599,599,599,599,599,599,599,599,599,599,599,599,599,599,599,599,599,599,599,599,599,599,599,599,599,599,599,599,599,599,599,599,599,599,599,599,599,599,596,592,562,540,523,513,507,488,476,458,441,422,376,354,329,304,276,210,191,171,158,145,109,94],"timestamp_mouse":[11,42,48,68,88,109,129,148,169,188,209,229,248,269,289,308,329,349,369,389,409,428,448,469,488,509,529,548,568,589,609,628,650,669,689,708,728,749,768,788,809,828,849,869,889,909,929,949,969,989,1008,1029,1049,1069,1089,1109,1129,1149,1169,1189,1209,1229,1248,1269,1289,1309,1329,1349],"xSR":741.5,"ySR":573.95,"xT1":424.9,"yT1":0,"xT2":1058.1,"yT2":0,"toosoon":0,"cond_shown":"equaldotanddens","ratio_trial":750,"smaller_num":"3","larger_num":"4","correct_side":1,"subjID":"LUISABAQUEN19","gender":null,"age":"No_age","school":"No_school"},{"start_time":1552313710600,"click_time":1552313711790,"finger_time":1552313711331,"fix_duration":1006.0277005580817,"trial":24,"RT":731,"MT":459,"sideResp":1,"stimulus":"img/250/randomdotsizeEA/L/5_Ratio_250_L_24_R_6.png","xmouse":[790,790,790,790,790,790,790,790,790,790,790,790,790,790,790,790,790,790,790,790,790,790,790,790,790,790,790,790,790,790,790,790,790,789,787,769,742,699,647,582,466,424,393,368,359,357,358,359,363,370,381,383,386,390,395,405,411,416,420,427],"ymouse":[647,647,647,647,647,647,647,647,647,647,647,647,647,647,647,647,647,647,647,647,647,647,647,647,647,647,647,647,647,647,647,647,647,642,637,591,543,481,412,329,165,98,44,6,0,0,0,0,0,0,0,0,0,1,2,4,4,5,6,7],"timestamp_mouse":[10,38,50,70,90,110,130,151,170,191,210,230,250,271,290,310,330,351,371,391,410,431,451,470,492,511,530,551,570,591,611,630,651,671,691,711,731,751,771,790,811,832,851,871,891,911,931,950,970,991,1011,1031,1051,1070,1091,1110,1130,1150,1170,1190],"xSR":741.5,"ySR":573.95,"xT1":424.9,"yT1":0,"xT2":1058.1,"yT2":0,"toosoon":0,"cond_shown":"randomdotsizeEA","ratio_trial":250,"smaller_num":"6","larger_num":"24","correct_side":1,"subjID":"LUISABAQUEN19","gender":null,"age":"No_age","school":"No_school"},{"start_time":1552313713741,"click_time":1552313714651,"finger_time":1552313714431,"fix_duration":907.1248716981996,"trial":25,"RT":690,"MT":220,"sideResp":1,"stimulus":"img/250/equaldotsize/L/1_Ratio_250_L_8_R_2.png","xmouse":[832,832,832,832,832,832,832,832,832,832,832,832,832,832,832,832,832,832,832,832,832,832,832,832,832,831,829,829,826,823,820,816,809,797,777,769,736,690,612,587,575,557,548,531,525,521],"ymouse":[622,621,621,621,621,621,621,621,621,621,621,621,621,621,621,621,621,621,621,621,621,621,621,621,621,619,617,617,615,612,608,603,592,575,553,542,502,441,317,272,240,199,175,134,113,97],"timestamp_mouse":[10,29,51,70,89,111,130,150,169,190,209,229,249,270,291,310,329,349,370,390,410,430,449,470,490,510,529,549,569,590,609,630,650,669,690,709,730,750,769,791,810,830,849,869,890,910],"xSR":741.5,"ySR":573.95,"xT1":424.9,"yT1":0,"xT2":1058.1,"yT2":0,"toosoon":0,"cond_shown":"equaldotsize","ratio_trial":250,"smaller_num":"2","larger_num":"8","correct_side":1,"subjID":"LUISABAQUEN19","gender":null,"age":"No_age","school":"No_school"},{"start_time":1552313717393,"click_time":1552313718771,"finger_time":1552313718090,"fix_duration":1279.238984353113,"trial":26,"RT":697,"MT":681,"sideResp":2,"stimulus":"img/250/randomdotsizeEA/R/8_Ratio_250_L_1_R_4.png","xmouse":[790,790,790,790,790,790,790,790,790,790,790,790,790,790,790,790,790,790,790,790,790,790,790,790,790,790,790,790,790,790,790,790,790,790,798,806,822,836,848,863,878,917,936,947,955,973,983,988,991,995,1003,1006,1011,1014,1016,1017,1019,1023,1026,1029,1035,1040,1045,1050,1053,1056,1058,1058,1059],"ymouse":[601,601,601,601,601,601,601,601,601,601,601,601,601,601,601,601,601,601,601,601,601,601,601,601,601,601,601,601,601,601,601,600,596,585,568,551,511,479,452,424,399,302,249,211,182,143,118,105,91,76,48,35,26,20,18,18,18,18,18,18,18,18,20,21,23,24,25,25,26],"timestamp_mouse":[17,37,58,78,97,117,137,158,178,198,217,238,257,278,298,317,337,359,377,398,417,437,458,478,499,517,538,558,577,598,618,637,657,678,697,717,738,757,779,798,818,838,858,877,898,918,937,957,977,998,1018,1039,1057,1078,1097,1117,1138,1157,1178,1197,1218,1237,1257,1278,1298,1318,1337,1358,1378],"xSR":741.5,"ySR":573.95,"xT1":424.9,"yT1":0,"xT2":1058.1,"yT2":0,"toosoon":0,"cond_shown":"randomdotsizeEA","ratio_trial":250,"smaller_num":"1","larger_num":"4","correct_side":2,"subjID":"LUISABAQUEN19","gender":null,"age":"No_age","school":"No_school"},{"start_time":1552313721490,"click_time":1552313722831,"finger_time":1552313722151,"fix_duration":1458.9809275871821,"trial":27,"RT":661,"MT":680,"sideResp":1,"stimulus":"img/500/equaldotanddens/L/8_Ratio_500_L_8_R_4.png","xmouse":[765,765,765,765,765,765,765,765,765,765,765,765,765,765,765,765,765,765,765,765,765,765,765,765,765,765,765,765,765,765,765,764,745,727,696,660,606,592,587,585,582,580,570,567,567,567,567,567,566,563,558,551,534,532,532,532,532,532,532,532,532,531,531,529,528,525,524,522],"ymouse":[657,657,657,657,657,657,657,657,657,657,657,657,657,657,657,657,657,657,657,657,657,657,657,657,657,657,657,657,657,657,654,646,596,555,497,441,336,294,263,239,215,194,164,159,157,157,157,156,155,150,144,138,126,125,125,125,125,125,125,125,125,124,121,118,111,104,100,93],"timestamp_mouse":[10,21,40,60,81,100,120,140,162,181,201,220,240,261,280,301,320,341,360,380,401,421,441,461,480,501,521,542,561,580,601,621,640,661,680,702,722,740,761,781,800,821,841,861,880,900,920,941,960,981,1001,1021,1041,1060,1080,1101,1121,1141,1161,1180,1201,1220,1240,1260,1287,1300,1321,1341],"xSR":741.5,"ySR":573.95,"xT1":424.9,"yT1":0,"xT2":1058.1,"yT2":0,"toosoon":0,"cond_shown":"equaldotanddens","ratio_trial":500,"smaller_num":"4","larger_num":"8","correct_side":1,"subjID":"LUISABAQUEN19","gender":null,"age":"No_age","school":"No_school"},{"start_time":1552313725359,"click_time":1552313726491,"finger_time":1552313726030,"fix_duration":1427.8029471188534,"trial":28,"RT":671,"MT":461,"sideResp":1,"stimulus":"img/250/randomdotsizeEA/L/14_Ratio_250_L_12_R_3.png","xmouse":[802,802,802,802,802,802,802,802,802,802,802,802,802,802,802,802,802,802,802,802,802,802,802,802,802,802,802,802,802,802,799,795,776,679,575,537,426,368,313,304,300,300,298,295,295,295,295,295,301,309,322,340,359,391,408,419,431],"ymouse":[617,617,617,617,617,617,617,617,617,617,617,617,617,617,617,617,617,617,617,617,617,617,617,617,617,617,617,617,617,617,617,617,591,475,356,314,218,164,54,9,0,0,0,0,0,0,0,0,0,0,0,0,2,16,31,44,58],"timestamp_mouse":[12,31,51,71,92,111,131,153,171,191,212,231,251,272,292,311,331,351,371,392,411,432,452,471,492,511,532,551,572,591,611,631,651,671,691,712,731,752,771,791,812,832,852,871,891,912,931,952,971,991,1011,1032,1051,1073,1091,1112,1132],"xSR":741.5,"ySR":573.95,"xT1":424.9,"yT1":0,"xT2":1058.1,"yT2":0,"toosoon":0,"cond_shown":"randomdotsizeEA","ratio_trial":250,"smaller_num":"3","larger_num":"12","correct_side":1,"subjID":"LUISABAQUEN19","gender":null,"age":"No_age","school":"No_school"},{"start_time":1552313728515,"click_time":1552313729632,"finger_time":1552313729250,"fix_duration":664.4535322233163,"trial":29,"RT":735,"MT":382,"sideResp":2,"stimulus":"img/500/equaldotanddens/R/14_Ratio_500_L_5_R_10.png","xmouse":[779,779,779,779,779,779,779,779,779,779,779,779,779,779,779,779,779,779,779,779,779,779,779,779,779,779,779,779,779,779,779,779,779,779,779,783,840,880,913,934,943,945,945,946,950,961,980,996,1008,1017,1020,1021,1023,1029,1046,1068],"ymouse":[654,654,654,654,654,654,654,654,654,654,654,654,654,654,654,654,654,654,654,654,654,654,654,654,654,654,654,654,654,654,654,654,654,654,650,636,506,410,332,266,219,158,130,106,87,67,50,46,44,43,43,43,43,43,43,43],"timestamp_mouse":[16,41,55,75,95,115,136,156,176,195,216,235,255,276,296,315,335,356,376,396,416,435,455,475,495,516,535,555,576,596,616,636,655,676,695,716,735,755,776,796,815,835,856,876,895,916,935,955,975,996,1016,1036,1056,1076,1095,1116],"xSR":741.5,"ySR":573.95,"xT1":424.9,"yT1":0,"xT2":1058.1,"yT2":0,"toosoon":0,"cond_shown":"equaldotanddens","ratio_trial":500,"smaller_num":"5","larger_num":"10","correct_side":2,"subjID":"LUISABAQUEN19","gender":null,"age":"No_age","school":"No_school"},{"start_time":1552313730929,"click_time":1552313731972,"finger_time":1552313731530,"fix_duration":257.69728319244365,"trial":30,"RT":601,"MT":442,"sideResp":1,"stimulus":"img/750/randomdotsizeEA/R/2_Ratio_750_L_6_R_8.png","xmouse":[757,757,757,757,757,757,757,757,757,757,757,757,757,757,757,757,757,757,757,757,757,757,757,757,758,760,762,763,763,760,750,699,666,604,602,560,543,543,543,544,546,552,554,557,560,564,565,558,546,538,532,499,477],"ymouse":[633,633,633,633,633,633,633,633,633,633,633,633,633,633,633,633,633,633,633,633,633,633,633,633,632,628,617,608,595,576,553,491,453,382,378,331,294,292,290,285,280,265,259,251,244,230,203,185,165,155,146,109,92],"timestamp_mouse":[9,35,41,62,82,103,122,142,161,181,202,221,242,261,282,301,321,341,361,381,402,423,442,461,481,501,521,542,562,581,601,621,642,662,682,701,721,741,761,781,802,822,841,862,881,902,921,941,962,981,1001,1021,1043],"xSR":741.5,"ySR":573.95,"xT1":424.9,"yT1":0,"xT2":1058.1,"yT2":0,"toosoon":0,"cond_shown":"randomdotsizeEA","ratio_trial":750,"smaller_num":"6","larger_num":"8","correct_side":2,"subjID":"LUISABAQUEN19","gender":null,"age":"No_age","school":"No_school"},{"start_time":1552313733684,"click_time":1552313735431,"finger_time":1552313734170,"fix_duration":632.9895639365958,"trial":31,"RT":486,"MT":1261,"sideResp":1,"stimulus":"img/900/equaldotanddens/R/7_Ratio_900_L_9_R_10.png","xmouse":[775,775,775,775,775,775,775,775,776,776,776,776,776,776,776,776,776,776,776,777,783,790,797,808,814,821,825,830,835,853,863,876,888,914,930,955,973,991,1017,1025,1027,1027,1027,1027,1031,1039,1045,1051,1059,1061,1063,1064,1065,1065,1065,1065,1065,1065,1063,1031,1003,956,896,861,796,758,750,735,700,684,664,638,619,592,589,586,583,580,567,556,547,543,542,538,534,532,530,523],"ymouse":[599,599,599,599,599,599,599,600,600,600,600,600,600,600,600,600,600,600,600,600,598,593,588,575,567,555,546,537,525,490,473,450,428,383,357,314,285,260,225,214,210,210,210,210,209,206,201,196,183,176,169,165,162,161,161,161,161,161,161,159,159,159,159,159,159,159,159,155,134,121,110,96,85,66,61,55,49,44,28,20,14,11,10,9,9,9,9,9],"timestamp_mouse":[10,40,47,67,87,106,126,147,167,187,208,227,247,266,287,307,326,347,367,387,406,426,446,467,486,506,526,547,566,586,606,626,646,666,686,707,726,747,767,786,806,826,847,867,887,906,926,947,966,987,1006,1026,1046,1067,1086,1106,1127,1147,1166,1186,1206,1226,1247,1267,1286,1306,1327,1346,1366,1386,1406,1426,1446,1468,1486,1507,1527,1546,1566,1586,1607,1626,1646,1667,1686,1706,1727,1747],"xSR":741.5,"ySR":573.95,"xT1":424.9,"yT1":0,"xT2":1058.1,"yT2":0,"toosoon":0,"cond_shown":"equaldotanddens","ratio_trial":900,"smaller_num":"9","larger_num":"10","correct_side":2,"subjID":"LUISABAQUEN19","gender":null,"age":"No_age","school":"No_school"},{"start_time":1552313737624,"click_time":1552313738852,"finger_time":1552313738411,"fix_duration":430.39084496232596,"trial":32,"RT":787,"MT":441,"sideResp":1,"stimulus":"img/750/equaldotsize/L/8_Ratio_750_L_4_R_3.png","xmouse":[783,783,783,783,783,783,783,783,783,783,783,783,783,783,783,783,783,783,783,783,783,783,783,783,783,783,783,783,783,783,783,783,783,783,783,783,783,779,774,762,733,688,583,548,531,524,520,519,519,520,523,527,536,542,543,544,545,545,543,539,532,517],"ymouse":[598,598,598,598,598,598,598,598,598,598,598,598,598,598,598,598,598,598,598,598,598,598,598,598,598,598,598,598,598,598,598,598,598,598,598,598,598,594,581,556,508,445,312,261,230,210,195,175,171,165,156,144,126,117,111,108,105,97,91,88,81,73],"timestamp_mouse":[10,26,46,66,87,107,126,147,167,187,206,226,246,266,287,306,327,346,367,387,406,426,447,467,486,506,526,546,567,586,607,626,647,667,687,707,727,747,766,787,808,826,846,866,886,907,926,947,967,986,1007,1026,1046,1066,1087,1106,1127,1146,1168,1187,1207,1227],"xSR":741.5,"ySR":573.95,"xT1":424.9,"yT1":0,"xT2":1058.1,"yT2":0,"toosoon":0,"cond_shown":"equaldotsize","ratio_trial":750,"smaller_num":"3","larger_num":"4","correct_side":1,"subjID":"LUISABAQUEN19","gender":null,"age":"No_age","school":"No_school"},{"start_time":1552313740183,"click_time":1552313741070,"finger_time":1552313740852,"fix_duration":250,"trial":33,"RT":669,"MT":218,"sideResp":2,"stimulus":"img/500/randomdotsizeEA/R/6_Ratio_500_L_9_R_18.png","xmouse":[774,774,774,774,774,774,774,774,774,774,774,774,774,774,774,774,774,774,774,774,774,774,774,774,774,774,774,775,776,783,790,799,810,824,856,881,907,931,963,995,1009,1020,1032,1042,1064],"ymouse":[655,655,655,655,655,655,655,655,655,655,655,655,655,655,655,655,655,655,655,655,655,655,655,655,655,655,655,655,653,641,629,613,592,567,503,444,380,321,244,173,152,131,112,98,72],"timestamp_mouse":[9,39,47,67,88,107,127,148,168,187,208,227,247,267,288,308,327,348,368,388,408,429,449,469,488,507,528,548,568,588,608,628,648,669,688,708,728,748,767,788,809,828,848,868,887],"xSR":741.5,"ySR":573.95,"xT1":424.9,"yT1":0,"xT2":1058.1,"yT2":0,"toosoon":0,"cond_shown":"randomdotsizeEA","ratio_trial":500,"smaller_num":"9","larger_num":"18","correct_side":2,"subjID":"LUISABAQUEN19","gender":null,"age":"No_age","school":"No_school"},{"start_time":1552313743146,"click_time":1552313744091,"finger_time":1552313743632,"fix_duration":1193.0205715912668,"trial":34,"RT":486,"MT":459,"sideResp":1,"stimulus":"img/250/equaldotsize/L/5_Ratio_250_L_24_R_6.png","xmouse":[770,770,770,770,770,770,770,770,770,770,770,770,770,770,770,770,770,770,770,770,770,769,763,749,720,668,539,488,455,434,426,416,412,408,402,396,384,379,378,378,378,378,381,385,391,399,420,433],"ymouse":[622,622,622,622,622,622,622,622,622,622,622,622,622,622,622,622,622,622,622,622,622,620,606,584,544,485,351,294,252,205,182,136,113,94,75,55,27,12,10,5,2,0,0,0,0,0,1,2],"timestamp_mouse":[9,34,46,66,84,104,124,146,165,186,205,225,246,264,285,304,326,344,366,385,405,425,445,465,486,506,524,546,565,584,605,625,645,665,685,705,724,745,766,785,805,825,844,866,885,905,924,945],"xSR":741.5,"ySR":573.95,"xT1":424.9,"yT1":0,"xT2":1058.1,"yT2":0,"toosoon":0,"cond_shown":"equaldotsize","ratio_trial":250,"smaller_num":"6","larger_num":"24","correct_side":1,"subjID":"LUISABAQUEN19","gender":null,"age":"No_age","school":"No_school"},{"start_time":1552313745841,"click_time":1552313746991,"finger_time":1552313746511,"fix_duration":1008.1834481936606,"trial":35,"RT":670,"MT":480,"sideResp":2,"stimulus":"img/750/equaldotsize/R/2_Ratio_750_L_6_R_8.png","xmouse":[788,788,788,788,788,788,788,788,788,788,788,788,788,788,788,788,788,788,788,788,788,788,788,788,788,788,788,788,788,788,791,794,812,823,837,854,873,921,929,949,967,994,1000,1005,1009,1015,1021,1034,1040,1045,1051,1059,1071,1073,1078,1086,1094,1110],"ymouse":[622,622,622,622,622,622,622,622,622,622,622,622,622,622,622,622,622,622,622,622,622,622,622,622,622,622,622,622,622,622,613,609,575,558,538,518,492,438,429,407,385,337,321,304,289,274,260,232,217,206,193,177,157,151,143,132,121,97],"timestamp_mouse":[9,35,50,70,90,110,129,150,170,191,210,230,250,271,290,310,330,349,369,389,411,431,468,470,491,510,531,549,569,590,610,630,649,670,690,710,729,750,770,790,809,831,849,870,890,910,931,950,969,990,1009,1030,1049,1069,1089,1111,1130,1149],"xSR":741.5,"ySR":573.95,"xT1":424.9,"yT1":0,"xT2":1058.1,"yT2":0,"toosoon":0,"cond_shown":"equaldotsize","ratio_trial":750,"smaller_num":"6","larger_num":"8","correct_side":2,"subjID":"LUISABAQUEN19","gender":null,"age":"No_age","school":"No_school"},{"start_time":1552313748766,"click_time":1552313749672,"finger_time":1552313749350,"fix_duration":652.3919167429943,"trial":36,"RT":584,"MT":322,"sideResp":2,"stimulus":"img/250/equaldotsize/R/4_Ratio_250_L_3_R_12.png","xmouse":[764,764,764,764,764,764,764,764,764,764,764,764,764,764,764,764,764,764,764,764,764,764,764,764,764,764,764,768,780,799,824,897,931,962,984,1015,1054,1073,1094,1110,1118,1126,1130,1132,1137,1139],"ymouse":[620,620,620,620,620,620,620,620,620,620,620,620,620,620,620,620,620,620,620,620,620,620,620,620,620,620,620,617,597,572,534,446,406,371,346,308,261,240,224,209,200,179,154,143,108,85],"timestamp_mouse":[9,25,45,64,86,104,125,145,165,185,204,225,246,264,285,305,326,345,365,384,404,426,445,465,484,504,526,545,565,584,605,625,644,665,686,705,724,745,766,785,805,825,844,866,886,906],"xSR":741.5,"ySR":573.95,"xT1":424.9,"yT1":0,"xT2":1058.1,"yT2":0,"toosoon":0,"cond_shown":"equaldotsize","ratio_trial":250,"smaller_num":"3","larger_num":"12","correct_side":2,"subjID":"LUISABAQUEN19","gender":null,"age":"No_age","school":"No_school"},{"start_time":1552313751736,"click_time":1552313752530,"finger_time":1552313752451,"fix_duration":804.4176022922871,"trial":37,"RT":715,"MT":79,"sideResp":1,"stimulus":"img/750/equaldotsize/L/9_Ratio_750_L_4_R_3.png","xmouse":[824,824,824,824,824,824,824,824,824,824,824,824,824,824,824,824,824,824,824,824,824,824,824,824,824,824,824,824,824,824,824,824,824,824,817,760,675,522,471,438],"ymouse":[606,606,606,606,606,606,606,606,606,606,606,606,606,606,606,606,606,606,606,606,606,606,606,606,606,606,606,606,606,606,606,606,606,606,599,510,398,208,135,77],"timestamp_mouse":[15,38,55,74,94,116,135,154,176,194,216,234,255,274,296,315,335,355,375,395,416,434,454,475,494,514,534,554,576,595,614,634,655,675,695,715,735,755,774,794],"xSR":741.5,"ySR":573.95,"xT1":424.9,"yT1":0,"xT2":1058.1,"yT2":0,"toosoon":0,"cond_shown":"equaldotsize","ratio_trial":750,"smaller_num":"3","larger_num":"4","correct_side":1,"subjID":"LUISABAQUEN19","gender":null,"age":"No_age","school":"No_school"},{"start_time":1552313754431,"click_time":1552313755711,"finger_time":1552313755170,"fix_duration":699.8941125976742,"trial":38,"RT":739,"MT":541,"sideResp":1,"stimulus":"img/500/randomdotsizeEA/L/13_Ratio_500_L_12_R_6.png","xmouse":[767,767,767,767,767,767,767,767,767,767,767,767,767,767,767,767,767,767,767,767,767,767,767,767,767,767,767,767,767,767,767,767,767,767,768,780,796,815,834,881,905,927,947,965,983,988,990,990,988,985,979,969,958,924,898,871,840,802,768,689,623,557,506,482,474],"ymouse":[597,597,597,597,597,597,597,597,597,597,597,597,597,597,597,597,597,597,597,597,597,597,597,597,597,597,597,597,597,597,597,597,597,597,597,590,579,564,548,499,464,431,401,371,326,308,295,288,282,278,278,277,275,274,274,274,274,271,267,239,207,169,136,115,87],"timestamp_mouse":[1,20,53,59,80,101,119,141,160,180,199,221,239,260,279,301,320,341,360,380,399,419,440,461,479,501,519,539,559,581,599,620,639,660,680,700,719,739,760,779,800,821,840,860,879,900,920,939,959,980,1000,1019,1040,1061,1080,1100,1120,1141,1160,1180,1200,1219,1240,1259,1279],"xSR":741.5,"ySR":573.95,"xT1":424.9,"yT1":0,"xT2":1058.1,"yT2":0,"toosoon":0,"cond_shown":"randomdotsizeEA","ratio_trial":500,"smaller_num":"6","larger_num":"12","correct_side":1,"subjID":"LUISABAQUEN19","gender":null,"age":"No_age","school":"No_school"},{"start_time":1552313758211,"click_time":1552313759210,"finger_time":1552313758731,"fix_duration":958.2170902486456,"trial":39,"RT":520,"MT":479,"sideResp":2,"stimulus":"img/500/randomdotsizeEA/R/6_Ratio_500_L_9_R_18.png","xmouse":[792,792,792,792,792,792,792,792,792,792,792,792,792,792,792,792,792,792,792,792,792,792,792,792,795,810,816,828,846,866,915,936,960,982,998,1029,1038,1046,1056,1063,1071,1076,1081,1089,1092,1101,1105,1107,1109,1109,1109],"ymouse":[608,608,608,608,608,608,608,608,608,608,608,608,608,608,608,608,608,608,608,608,608,608,608,608,606,578,565,546,515,486,413,382,349,320,298,252,231,212,185,172,144,134,124,116,112,104,102,102,100,100,99],"timestamp_mouse":[1,19,40,60,79,99,121,139,160,179,200,219,239,260,281,300,319,341,360,380,400,420,439,459,480,499,520,540,560,581,601,620,640,659,680,699,719,740,759,781,799,819,841,861,879,899,921,940,959,980,999],"xSR":741.5,"ySR":573.95,"xT1":424.9,"yT1":0,"xT2":1058.1,"yT2":0,"toosoon":0,"cond_shown":"randomdotsizeEA","ratio_trial":500,"smaller_num":"9","larger_num":"18","correct_side":2,"subjID":"LUISABAQUEN19","gender":null,"age":"No_age","school":"No_school"},{"start_time":1552313761839,"click_time":1552313763110,"finger_time":1552313762811,"fix_duration":987.3982941486956,"trial":40,"RT":972,"MT":299,"sideResp":2,"stimulus":"img/500/randomdotsizeEA/R/9_Ratio_500_L_2_R_4.png","xmouse":[820,820,820,820,820,820,820,820,820,820,820,820,820,820,820,820,820,820,820,820,820,820,820,820,820,820,820,820,820,820,820,820,820,820,820,820,820,820,820,820,820,820,820,820,820,820,824,834,857,877,898,919,942,963,1005,1016,1028,1037,1045,1062,1070,1080,1086,1094],"ymouse":[619,619,619,619,619,619,619,619,619,619,619,619,619,619,619,619,619,619,619,619,619,619,619,619,619,619,619,619,619,619,619,619,619,619,619,619,619,619,619,619,619,619,619,619,619,620,618,602,563,538,511,485,458,433,365,340,314,290,261,200,170,137,106,49],"timestamp_mouse":[12,36,52,72,91,112,132,152,172,193,212,232,251,272,292,312,332,352,372,391,411,431,451,472,492,512,531,553,573,592,611,632,651,671,691,711,733,752,772,793,811,831,853,871,891,912,931,952,972,991,1013,1032,1052,1072,1092,1113,1132,1152,1172,1192,1212,1232,1252,1271],"xSR":741.5,"ySR":573.95,"xT1":424.9,"yT1":0,"xT2":1058.1,"yT2":0,"toosoon":0,"cond_shown":"randomdotsizeEA","ratio_trial":500,"smaller_num":"2","larger_num":"4","correct_side":2,"subjID":"LUISABAQUEN19","gender":null,"age":"No_age","school":"No_school"},{"start_time":1552313766216,"click_time":1552313767330,"finger_time":1552313767031,"fix_duration":1382.4126503123482,"trial":41,"RT":815,"MT":299,"sideResp":2,"stimulus":"img/250/randomdotsizeEA/R/10_Ratio_250_L_4_R_16.png","xmouse":[820,819,819,819,819,819,819,819,819,819,819,819,819,819,818,818,817,817,817,817,817,817,817,817,817,817,817,817,817,817,817,817,817,817,817,817,817,817,817,821,837,853,870,900,920,954,973,988,999,1008,1022,1028,1033,1039,1053,1064],"ymouse":[608,608,608,608,608,608,608,608,608,608,608,608,608,608,608,608,608,608,608,608,608,608,608,608,608,608,608,608,608,608,608,608,608,608,608,608,608,608,608,599,564,531,488,424,376,276,244,215,190,169,134,117,103,90,72,58],"timestamp_mouse":[15,39,54,74,94,115,134,154,175,195,214,234,255,275,295,315,335,354,376,394,414,435,454,475,495,515,535,555,574,594,616,635,654,675,695,716,735,754,775,795,815,834,855,874,895,915,935,954,975,995,1014,1034,1055,1074,1095,1114],"xSR":741.5,"ySR":573.95,"xT1":424.9,"yT1":0,"xT2":1058.1,"yT2":0,"toosoon":0,"cond_shown":"randomdotsizeEA","ratio_trial":250,"smaller_num":"4","larger_num":"16","correct_side":2,"subjID":"LUISABAQUEN19","gender":null,"age":"No_age","school":"No_school"},{"start_time":1552313768452,"click_time":1552313770512,"finger_time":1552313769091,"fix_duration":340.1744617570115,"trial":42,"RT":639,"MT":1421,"sideResp":1,"stimulus":"img/900/randomdotsizeEA/L/2_Ratio_900_L_20_R_18.png","xmouse":[827,827,827,827,827,827,827,827,827,827,827,827,827,827,827,827,827,827,827,827,827,827,827,827,827,827,827,827,826,807,785,759,733,716,708,702,701,701,703,706,709,711,713,716,716,711,701,693,690,690,688,688,691,710,722,729,736,745,771,795,845,890,937,1016,1037,1057,1075,1090,1112,1122,1134,1139,1140,1140,1126,1111,1087,1065,1049,1035,1035,1034,1030,989,948,915,884,854,802,784,758,745,729,700,691,682,676,673,661,628,595,541,508],"ymouse":[657,657,657,657,657,657,657,657,657,657,657,657,657,657,657,657,657,657,657,657,657,657,657,657,657,657,657,657,657,614,579,545,509,480,460,445,435,429,419,414,409,407,403,385,369,351,334,326,325,325,340,354,367,392,397,400,400,400,398,389,368,345,318,268,252,235,222,210,191,182,170,162,155,150,135,129,121,114,110,108,108,108,108,111,119,124,127,127,127,124,116,110,103,88,81,75,73,72,71,69,69,69,69],"timestamp_mouse":[19,42,59,78,98,119,138,158,180,198,218,240,259,279,298,318,339,359,378,399,418,438,458,478,498,518,539,560,579,600,618,639,660,679,699,719,740,760,779,798,819,839,860,879,898,919,939,958,978,998,1019,1040,1059,1079,1099,1118,1139,1159,1179,1199,1218,1239,1258,1279,1298,1319,1339,1360,1379,1398,1418,1439,1460,1479,1498,1519,1539,1559,1579,1598,1618,1639,1659,1679,1698,1719,1738,1758,1779,1798,1818,1838,1859,1879,1899,1919,1938,1959,1979,1998,2019,2039,2060],"xSR":741.5,"ySR":573.95,"xT1":424.9,"yT1":0,"xT2":1058.1,"yT2":0,"toosoon":0,"cond_shown":"randomdotsizeEA","ratio_trial":900,"smaller_num":"18","larger_num":"20","correct_side":1,"subjID":"LUISABAQUEN19","gender":null,"age":"No_age","school":"No_school"},{"start_time":1552313775174,"click_time":1552313776411,"finger_time":1552313775830,"fix_duration":781.3974318460901,"trial":43,"RT":656,"MT":581,"sideResp":1,"stimulus":"img/250/equaldotsize/L/1_Ratio_250_L_8_R_2.png","xmouse":[787,787,787,787,787,787,787,787,787,787,787,787,787,787,787,787,787,787,787,787,787,787,787,787,787,787,787,787,785,783,777,766,756,713,693,673,659,646,629,621,612,599,588,573,569,565,563,563,570,574,575,573,568,561,557,555,551,548,542,538,531,520],"ymouse":[659,659,659,659,659,659,659,659,659,659,659,659,659,659,659,659,659,659,659,659,659,659,659,657,656,654,650,647,637,626,610,582,560,498,472,450,433,416,390,374,356,327,308,268,246,222,199,173,111,82,52,40,37,35,35,35,35,35,35,35,35,35],"timestamp_mouse":[22,43,56,76,98,117,137,158,177,196,216,237,257,278,297,318,338,357,377,396,418,438,457,478,497,517,537,558,577,596,617,637,656,676,696,716,736,758,776,796,817,836,856,877,897,917,938,957,977,997,1017,1037,1057,1078,1096,1117,1136,1157,1176,1196,1217,1236],"xSR":741.5,"ySR":573.95,"xT1":424.9,"yT1":0,"xT2":1058.1,"yT2":0,"toosoon":0,"cond_shown":"equaldotsize","ratio_trial":250,"smaller_num":"2","larger_num":"8","correct_side":1,"subjID":"LUISABAQUEN19","gender":null,"age":"No_age","school":"No_school"},{"start_time":1552313777702,"click_time":1552313778691,"finger_time":1552313778510,"fix_duration":250,"trial":44,"RT":808,"MT":181,"sideResp":1,"stimulus":"img/500/equaldotsize/L/11_Ratio_500_L_12_R_6.png","xmouse":[809,809,809,809,809,809,809,809,809,809,809,809,809,809,809,809,809,809,809,809,809,809,809,809,809,809,809,809,809,809,809,809,809,809,809,809,809,809,808,802,793,785,771,710,679,646,609,550,532,522],"ymouse":[605,605,605,605,605,605,605,605,605,605,605,605,605,605,605,605,605,605,605,605,605,605,605,605,605,605,605,605,605,605,605,605,605,605,605,605,605,605,604,589,567,533,487,336,278,224,174,100,78,63],"timestamp_mouse":[10,40,49,68,89,109,130,149,168,189,209,229,249,269,289,308,328,348,370,390,409,429,449,470,489,508,528,549,570,589,609,628,648,669,690,709,728,749,768,788,808,829,848,869,888,908,928,948,968,989],"xSR":741.5,"ySR":573.95,"xT1":424.9,"yT1":0,"xT2":1058.1,"yT2":0,"toosoon":0,"cond_shown":"equaldotsize","ratio_trial":500,"smaller_num":"6","larger_num":"12","correct_side":1,"subjID":"LUISABAQUEN19","gender":null,"age":"No_age","school":"No_school"},{"start_time":1552313780642,"click_time":1552313781970,"finger_time":1552313781572,"fix_duration":269.1431678760184,"trial":45,"RT":930,"MT":398,"sideResp":1,"stimulus":"img/900/equaldotanddens/L/2_Ratio_900_L_20_R_18.png","xmouse":[772,772,772,772,772,772,772,772,772,772,772,772,772,772,772,772,772,772,772,772,772,772,772,772,772,772,772,772,772,772,772,772,772,772,772,772,778,784,788,790,792,792,792,792,792,792,785,775,756,709,586,550,547,547,554,556,556,554,552,548,547,544,542,539,535,526,509],"ymouse":[599,599,599,599,599,599,599,599,599,599,599,599,599,599,599,599,599,599,599,599,599,599,599,599,599,599,599,599,599,599,599,599,599,599,599,599,595,589,585,582,579,579,578,578,577,576,570,559,536,482,342,288,263,242,219,199,159,146,136,127,121,110,107,102,94,80,62],"timestamp_mouse":[13,37,49,69,89,110,128,149,170,189,210,228,249,269,289,308,328,350,368,389,410,428,448,468,489,509,530,548,569,589,608,628,649,670,689,709,728,749,770,789,809,829,850,869,889,909,930,948,969,989,1009,1028,1049,1069,1088,1109,1129,1149,1170,1190,1209,1228,1249,1269,1288,1309,1328],"xSR":741.5,"ySR":573.95,"xT1":424.9,"yT1":0,"xT2":1058.1,"yT2":0,"toosoon":0,"cond_shown":"equaldotanddens","ratio_trial":900,"smaller_num":"18","larger_num":"20","correct_side":1,"subjID":"LUISABAQUEN19","gender":null,"age":"No_age","school":"No_school"},{"start_time":1552313784941,"click_time":1552313786351,"finger_time":1552313785811,"fix_duration":489.4038415009834,"trial":46,"RT":870,"MT":540,"sideResp":1,"stimulus":"img/900/randomdotsizeEA/L/4_Ratio_900_L_20_R_18.png","xmouse":[754,754,754,754,754,754,754,754,754,754,754,754,754,754,754,754,754,754,754,754,754,754,754,754,754,754,754,755,755,756,757,759,761,763,763,764,764,766,769,777,784,796,799,800,800,795,782,780,776,774,773,771,768,764,763,763,734,715,697,677,660,596,566,538,527,525,524,524,524,524,524],"ymouse":[642,642,642,642,642,642,642,642,642,642,642,642,642,642,642,642,642,642,642,642,642,642,642,642,642,642,642,642,642,642,642,640,638,637,637,636,636,635,633,626,619,598,577,550,517,486,433,416,402,395,391,389,383,375,373,373,341,324,308,292,276,211,174,135,119,114,114,113,109,104,98],"timestamp_mouse":[14,42,50,71,89,110,129,149,169,190,209,229,249,270,291,311,330,351,370,389,409,431,450,469,491,510,530,551,569,590,609,629,650,670,690,709,729,749,770,791,810,830,850,870,889,910,929,951,969,990,1010,1029,1050,1069,1091,1110,1129,1150,1170,1189,1210,1230,1249,1269,1289,1310,1329,1351,1370,1391,1410],"xSR":741.5,"ySR":573.95,"xT1":424.9,"yT1":0,"xT2":1058.1,"yT2":0,"toosoon":0,"cond_shown":"randomdotsizeEA","ratio_trial":900,"smaller_num":"18","larger_num":"20","correct_side":1,"subjID":"LUISABAQUEN19","gender":null,"age":"No_age","school":"No_school"},{"start_time":1552313787777,"click_time":1552313788991,"finger_time":1552313788371,"fix_duration":263.17917994198535,"trial":47,"RT":594,"MT":620,"sideResp":2,"stimulus":"img/750/equaldotsize/R/7_Ratio_750_L_3_R_4.png","xmouse":[814,814,814,814,814,814,814,814,814,814,814,814,814,814,814,814,814,814,814,814,814,814,814,814,814,814,814,819,826,846,864,887,913,936,978,996,1020,1031,1042,1057,1060,1060,1060,1057,1053,1052,1048,1048,1046,1046,1046,1046,1046,1046,1046,1046,1045,1046,1051,1058,1061],"ymouse":[605,605,605,605,605,605,605,605,605,605,605,605,605,605,605,605,605,605,605,605,605,605,605,605,605,605,605,597,585,551,524,493,457,426,361,332,287,263,237,195,176,161,150,141,123,114,96,86,79,78,78,78,78,78,78,78,78,78,77,76,75],"timestamp_mouse":[14,39,54,74,93,114,134,153,174,194,214,234,254,274,295,314,334,353,373,394,413,433,453,473,494,514,534,553,574,594,613,634,655,674,693,714,734,754,774,793,814,834,854,873,893,915,934,953,973,994,1014,1033,1054,1074,1094,1114,1134,1155,1174,1193,1214],"xSR":741.5,"ySR":573.95,"xT1":424.9,"yT1":0,"xT2":1058.1,"yT2":0,"toosoon":0,"cond_shown":"equaldotsize","ratio_trial":750,"smaller_num":"3","larger_num":"4","correct_side":2,"subjID":"LUISABAQUEN19","gender":null,"age":"No_age","school":"No_school"},{"start_time":1552313790959,"click_time":1552313791971,"finger_time":1552313791530,"fix_duration":486.06011476048263,"trial":48,"RT":571,"MT":441,"sideResp":1,"stimulus":"img/500/equaldotsize/L/8_Ratio_500_L_8_R_4.png","xmouse":[827,827,827,827,827,827,827,827,827,827,827,827,827,827,827,827,827,827,827,827,827,827,827,827,827,827,827,828,826,822,814,754,711,676,641,607,602,601,600,597,591,561,554,551,548,538,533,531,529,526,520],"ymouse":[589,589,589,589,589,589,589,589,589,589,589,589,589,589,589,589,589,589,589,589,589,589,589,589,589,589,589,585,565,544,511,361,284,225,174,128,117,115,113,110,105,94,93,93,93,91,91,91,90,89,88],"timestamp_mouse":[11,32,52,71,91,112,132,152,172,192,212,232,252,272,293,311,333,352,371,391,411,432,451,472,491,511,532,552,571,592,611,632,651,673,691,712,732,752,771,792,811,831,852,873,891,912,931,952,972,992,1011],"xSR":741.5,"ySR":573.95,"xT1":424.9,"yT1":0,"xT2":1058.1,"yT2":0,"toosoon":0,"cond_shown":"equaldotsize","ratio_trial":500,"smaller_num":"4","larger_num":"8","correct_side":1,"subjID":"LUISABAQUEN19","gender":null,"age":"No_age","school":"No_school"},{"start_time":1552313796302,"click_time":1552313797671,"finger_time":1552313797131,"fix_duration":1308.3131506708407,"trial":49,"RT":829,"MT":540,"sideResp":1,"stimulus":"img/750/randomdotsizeEA/R/2_Ratio_750_L_6_R_8.png","xmouse":[795,795,795,795,795,795,795,795,795,795,795,795,795,795,795,795,795,795,795,795,795,795,795,795,795,795,795,795,795,795,795,795,795,795,795,795,795,796,796,791,781,771,760,748,724,706,687,645,610,525,494,480,477,476,476,476,476,476,476,477,477,477,477,477,476,475,474,472,470],"ymouse":[654,654,654,654,654,654,654,654,654,654,654,654,654,654,654,654,654,654,654,654,654,654,654,654,654,654,654,654,654,654,654,654,654,654,654,654,654,647,637,607,586,565,544,523,477,446,416,355,312,226,197,174,163,152,132,131,131,131,131,130,129,128,126,125,121,119,114,108,99],"timestamp_mouse":[13,34,50,69,88,109,128,149,168,188,209,228,249,270,288,309,328,348,368,388,408,428,449,469,489,509,528,549,568,589,610,629,649,669,690,708,729,748,768,788,808,829,849,868,888,908,928,948,968,988,1009,1028,1049,1068,1089,1109,1129,1148,1168,1188,1208,1229,1249,1269,1289,1308,1328,1349,1369],"xSR":741.5,"ySR":573.95,"xT1":424.9,"yT1":0,"xT2":1058.1,"yT2":0,"toosoon":0,"cond_shown":"randomdotsizeEA","ratio_trial":750,"smaller_num":"6","larger_num":"8","correct_side":2,"subjID":"LUISABAQUEN19","gender":null,"age":"No_age","school":"No_school"},{"start_time":1552313799687,"click_time":1552313800832,"finger_time":1552313800411,"fix_duration":1234.8366277096948,"trial":50,"RT":724,"MT":421,"sideResp":2,"stimulus":"img/250/equaldotsize/R/10_Ratio_250_L_4_R_16.png","xmouse":[794,794,794,794,794,794,794,794,794,794,794,794,794,794,794,794,794,794,794,794,794,794,794,794,794,794,794,794,794,794,794,794,794,794,794,829,885,922,953,983,1040,1059,1074,1086,1094,1123,1150,1164,1172,1173,1162,1153,1140,1125,1111,1101,1093,1087],"ymouse":[636,636,636,636,636,636,636,636,636,636,636,636,636,636,636,636,636,636,636,636,636,636,636,636,636,636,636,636,636,636,636,636,636,636,633,580,500,448,404,358,284,266,254,246,240,226,214,204,194,188,172,164,155,146,135,122,105,92],"timestamp_mouse":[4,23,43,65,85,104,123,143,163,183,203,224,244,263,283,303,323,344,364,384,404,423,445,464,484,504,523,545,563,584,605,624,645,664,684,704,724,744,765,784,803,823,844,864,885,904,924,943,964,984,1003,1024,1044,1064,1084,1103,1123,1144],"xSR":741.5,"ySR":573.95,"xT1":424.9,"yT1":0,"xT2":1058.1,"yT2":0,"toosoon":0,"cond_shown":"equaldotsize","ratio_trial":250,"smaller_num":"4","larger_num":"16","correct_side":2,"subjID":"LUISABAQUEN19","gender":null,"age":"No_age","school":"No_school"},{"start_time":1552313803109,"click_time":1552313804112,"finger_time":1552313803931,"fix_duration":1456.0705945826285,"trial":51,"RT":822,"MT":181,"sideResp":1,"stimulus":"img/750/equaldotsize/L/14_Ratio_750_L_8_R_6.png","xmouse":[775,775,775,775,775,775,775,775,775,775,775,775,775,775,775,775,775,775,775,775,775,775,775,775,775,775,775,775,775,775,775,775,775,775,775,775,775,775,775,774,753,712,659,599,471,456,453,453,454,458,462],"ymouse":[633,633,633,633,633,633,633,633,633,633,633,633,633,633,633,633,633,633,633,633,633,633,633,633,633,633,633,633,633,633,633,633,633,633,633,633,633,633,633,630,593,530,459,380,197,165,145,130,119,108,92],"timestamp_mouse":[10,36,42,61,83,101,122,143,162,181,201,222,241,263,282,302,322,341,363,381,401,421,442,462,482,501,522,542,563,582,603,621,641,662,681,703,721,742,762,783,802,822,841,862,882,901,923,942,961,982,1003],"xSR":741.5,"ySR":573.95,"xT1":424.9,"yT1":0,"xT2":1058.1,"yT2":0,"toosoon":0,"cond_shown":"equaldotsize","ratio_trial":750,"smaller_num":"6","larger_num":"8","correct_side":1,"subjID":"LUISABAQUEN19","gender":null,"age":"No_age","school":"No_school"},{"start_time":1552313805893,"click_time":1552313807650,"finger_time":1552313807350,"fix_duration":719.3747728475394,"trial":52,"RT":1457,"MT":300,"sideResp":1,"stimulus":"img/750/randomdotsizeEA/L/8_Ratio_750_L_4_R_3.png","xmouse":[790,790,790,790,790,790,790,790,790,790,790,790,790,790,790,790,790,790,790,790,790,790,790,790,790,790,790,790,790,790,790,790,790,790,790,790,790,790,790,790,790,790,790,790,790,790,790,790,790,790,790,790,790,790,790,790,790,790,790,790,790,790,790,790,790,790,790,790,790,790,786,755,727,673,645,619,618,617,616,615,609,602,595,580,567,525,509,490],"ymouse":[630,630,630,630,630,630,630,630,630,630,630,630,630,630,630,630,630,630,630,630,630,630,630,630,630,630,630,630,630,630,630,630,630,630,630,630,630,630,630,630,630,630,630,630,630,628,627,627,627,627,627,627,627,627,627,627,627,627,627,627,627,627,627,627,627,627,627,627,627,627,621,576,518,442,403,363,358,351,342,327,287,265,244,212,190,130,105,81],"timestamp_mouse":[28,41,58,78,97,117,139,158,177,199,218,238,257,277,297,318,338,358,378,397,417,438,457,479,497,517,538,559,577,598,619,638,657,679,697,719,738,758,778,799,817,838,858,878,898,917,938,958,977,998,1018,1037,1057,1078,1097,1117,1139,1159,1178,1197,1217,1237,1259,1277,1298,1319,1337,1357,1377,1399,1418,1438,1457,1478,1498,1518,1538,1559,1578,1598,1617,1639,1659,1677,1698,1717,1737,1757],"xSR":741.5,"ySR":573.95,"xT1":424.9,"yT1":0,"xT2":1058.1,"yT2":0,"toosoon":0,"cond_shown":"randomdotsizeEA","ratio_trial":750,"smaller_num":"3","larger_num":"4","correct_side":1,"subjID":"LUISABAQUEN19","gender":null,"age":"No_age","school":"No_school"},{"start_time":1552313810067,"click_time":1552313811631,"finger_time":1552313810811,"fix_duration":1315.019378090476,"trial":53,"RT":744,"MT":820,"sideResp":2,"stimulus":"img/500/equaldotsize/R/14_Ratio_500_L_5_R_10.png","xmouse":[770,770,770,770,770,770,770,770,768,767,767,766,765,765,764,764,764,764,764,764,764,764,764,764,764,764,764,764,764,764,764,764,764,764,773,789,808,830,876,901,938,960,979,1016,1027,1036,1041,1046,1051,1052,1052,1053,1054,1056,1056,1056,1056,1056,1056,1056,1056,1056,1056,1056,1056,1056,1056,1056,1056,1056,1056,1056,1056,1056,1056,1056,1056,1057,1060],"ymouse":[614,614,614,614,614,615,615,615,615,615,615,615,615,615,615,615,615,615,615,615,615,615,615,615,615,615,615,615,615,615,615,615,615,615,609,593,575,545,480,424,336,290,251,179,159,146,135,124,96,78,52,38,30,24,24,24,24,24,24,24,24,24,24,24,24,24,24,24,24,24,24,24,24,24,24,24,24,24,24],"timestamp_mouse":[10,24,45,63,84,103,125,144,164,183,203,224,244,264,283,304,324,343,363,383,403,425,443,464,484,504,525,544,564,584,604,623,644,663,684,703,725,744,764,784,804,824,844,864,883,904,923,945,963,984,1004,1024,1043,1063,1085,1103,1123,1145,1165,1185,1204,1223,1243,1265,1284,1305,1324,1344,1364,1384,1403,1424,1445,1465,1485,1504,1523,1544,1563],"xSR":741.5,"ySR":573.95,"xT1":424.9,"yT1":0,"xT2":1058.1,"yT2":0,"toosoon":0,"cond_shown":"equaldotsize","ratio_trial":500,"smaller_num":"5","larger_num":"10","correct_side":2,"subjID":"LUISABAQUEN19","gender":null,"age":"No_age","school":"No_school"},{"start_time":1552313813808,"click_time":1552313815032,"finger_time":1552313814531,"fix_duration":954.6541964705085,"trial":54,"RT":723,"MT":501,"sideResp":2,"stimulus":"img/900/equaldotanddens/R/11_Ratio_900_L_18_R_20.png","xmouse":[838,839,839,839,839,839,839,839,839,839,839,839,839,839,839,839,839,839,839,839,839,839,839,839,839,839,839,839,839,839,839,839,839,839,840,846,861,874,887,904,926,940,947,952,957,965,972,980,986,992,1005,1012,1016,1020,1022,1029,1034,1042,1048,1056,1070],"ymouse":[633,633,633,633,633,633,633,633,633,633,633,633,633,633,633,633,633,633,633,633,633,633,633,633,633,633,633,633,633,633,633,633,633,633,632,618,583,539,495,435,342,290,267,247,232,214,202,189,175,158,115,89,78,67,63,55,51,45,40,36,30],"timestamp_mouse":[4,42,64,83,102,122,144,163,183,203,222,242,263,283,302,323,342,362,383,402,423,442,464,482,502,523,543,562,582,602,624,643,662,682,703,723,743,763,782,802,823,843,863,884,904,923,942,962,982,1003,1023,1042,1063,1083,1103,1123,1143,1163,1183,1203,1224],"xSR":741.5,"ySR":573.95,"xT1":424.9,"yT1":0,"xT2":1058.1,"yT2":0,"toosoon":0,"cond_shown":"equaldotanddens","ratio_trial":900,"smaller_num":"18","larger_num":"20","correct_side":2,"subjID":"LUISABAQUEN19","gender":null,"age":"No_age","school":"No_school"},{"start_time":1552313816617,"click_time":1552313817871,"finger_time":1552313817371,"fix_duration":504.6692634699632,"trial":55,"RT":754,"MT":500,"sideResp":2,"stimulus":"img/250/randomdotsizeEA/R/4_Ratio_250_L_3_R_12.png","xmouse":[790,790,790,790,790,790,790,790,790,790,790,790,790,790,792,793,796,797,799,800,800,800,800,799,797,795,792,792,792,792,792,792,792,792,794,794,817,831,840,850,873,906,920,930,936,938,935,929,926,926,932,937,941,945,951,957,972,982,994,1006,1032,1080,1105],"ymouse":[639,639,639,639,639,639,639,639,639,639,639,639,639,639,637,636,633,631,630,629,629,629,629,629,629,629,629,629,629,629,629,629,629,629,623,621,582,550,525,493,430,350,315,290,262,215,196,180,170,164,153,147,144,140,137,134,130,127,125,121,114,102,97],"timestamp_mouse":[13,34,54,73,94,115,133,153,175,195,214,234,255,274,294,313,334,353,374,395,413,434,453,473,494,513,534,554,574,593,614,633,653,674,693,713,733,754,774,793,813,833,854,875,894,915,934,954,973,994,1014,1033,1054,1074,1094,1113,1134,1154,1174,1193,1213,1234,1254],"xSR":741.5,"ySR":573.95,"xT1":424.9,"yT1":0,"xT2":1058.1,"yT2":0,"toosoon":0,"cond_shown":"randomdotsizeEA","ratio_trial":250,"smaller_num":"3","larger_num":"12","correct_side":2,"subjID":"LUISABAQUEN19","gender":null,"age":"No_age","school":"No_school"},{"start_time":1552313819789,"click_time":1552313820831,"finger_time":1552313820710,"fix_duration":797.0519341504543,"trial":56,"RT":921,"MT":121,"sideResp":1,"stimulus":"img/250/equaldotanddens/L/7_Ratio_250_L_8_R_2.png","xmouse":[805,805,805,805,805,805,805,805,805,805,805,805,805,805,805,805,805,805,805,805,805,805,805,805,805,805,805,805,805,805,805,805,805,805,805,805,805,805,805,805,805,805,805,805,805,802,785,738,588,509,478,461,450],"ymouse":[636,636,636,636,636,636,636,636,636,636,636,636,636,636,636,636,636,636,636,636,636,636,636,636,636,636,636,636,636,636,636,636,636,636,636,636,636,636,636,636,636,636,636,636,636,613,545,455,271,180,145,118,98],"timestamp_mouse":[14,23,41,62,82,102,122,142,161,181,201,223,242,262,281,301,322,343,361,382,401,423,441,461,482,501,522,541,561,582,602,622,641,661,682,703,722,741,761,782,802,821,842,863,882,901,921,942,961,981,1002,1023,1042],"xSR":741.5,"ySR":573.95,"xT1":424.9,"yT1":0,"xT2":1058.1,"yT2":0,"toosoon":0,"cond_shown":"equaldotanddens","ratio_trial":250,"smaller_num":"2","larger_num":"8","correct_side":1,"subjID":"LUISABAQUEN19","gender":null,"age":"No_age","school":"No_school"},{"start_time":1552313822064,"click_time":1552313823070,"finger_time":1552313822651,"fix_duration":250,"trial":57,"RT":587,"MT":419,"sideResp":2,"stimulus":"img/250/equaldotsize/R/11_Ratio_250_L_3_R_12.png","xmouse":[782,782,782,782,782,782,782,782,782,782,782,782,782,782,782,782,782,782,782,782,782,782,782,782,782,782,782,782,783,825,847,867,886,909,968,1016,1042,1061,1077,1089,1110,1114,1118,1121,1124,1127,1127,1127,1127,1127,1126],"ymouse":[603,603,603,603,603,603,603,603,603,603,603,603,603,603,603,603,603,603,603,603,603,603,603,603,603,603,603,604,604,573,550,526,499,464,379,310,274,246,223,204,175,167,160,152,138,119,111,106,102,100,94],"timestamp_mouse":[10,37,46,66,86,108,127,147,166,188,207,226,247,266,288,308,326,347,367,386,406,428,446,467,487,507,528,547,567,587,607,626,647,666,687,706,727,748,767,786,807,826,846,866,886,907,926,946,967,986,1006],"xSR":741.5,"ySR":573.95,"xT1":424.9,"yT1":0,"xT2":1058.1,"yT2":0,"toosoon":0,"cond_shown":"equaldotsize","ratio_trial":250,"smaller_num":"3","larger_num":"12","correct_side":2,"subjID":"LUISABAQUEN19","gender":null,"age":"No_age","school":"No_school"},{"start_time":1552313824163,"click_time":1552313825531,"finger_time":1552313824832,"fix_duration":250,"trial":58,"RT":669,"MT":699,"sideResp":1,"stimulus":"img/500/randomdotsizeEA/L/13_Ratio_500_L_12_R_6.png","xmouse":[834,834,834,834,834,834,834,834,834,834,834,834,834,834,834,834,834,834,834,834,834,834,834,834,834,834,833,833,831,829,822,818,808,795,777,735,722,714,710,708,704,701,697,694,681,672,661,649,638,613,599,585,571,562,554,551,550,549,548,548,547,545,543,541,539,534,532,528,520],"ymouse":[595,595,595,595,595,595,595,595,595,595,595,595,595,595,595,595,595,595,595,595,595,595,595,595,595,595,595,595,595,595,592,589,582,572,560,524,505,487,468,441,403,382,360,338,289,266,244,225,211,188,181,171,162,153,145,132,126,120,114,112,109,104,100,96,94,88,86,84,81],"timestamp_mouse":[22,38,48,67,87,108,129,147,169,188,207,228,248,269,287,307,327,349,367,387,408,427,447,469,487,507,527,547,568,587,608,628,647,669,688,707,728,747,767,788,808,828,848,867,888,907,928,948,968,988,1007,1027,1047,1068,1087,1107,1127,1147,1167,1187,1208,1227,1247,1267,1288,1307,1328,1347,1367],"xSR":741.5,"ySR":573.95,"xT1":424.9,"yT1":0,"xT2":1058.1,"yT2":0,"toosoon":0,"cond_shown":"randomdotsizeEA","ratio_trial":500,"smaller_num":"6","larger_num":"12","correct_side":1,"subjID":"LUISABAQUEN19","gender":null,"age":"No_age","school":"No_school"},{"start_time":1552313827798,"click_time":1552313828671,"finger_time":1552313828432,"fix_duration":1445.3476406219297,"trial":59,"RT":634,"MT":239,"sideResp":1,"stimulus":"img/500/equaldotanddens/L/7_Ratio_500_L_10_R_5.png","xmouse":[770,770,770,770,770,770,770,770,770,770,770,770,770,770,770,770,770,770,770,770,770,770,770,770,770,770,770,770,770,760,742,728,715,694,679,669,660,646,622,610,598,581,561,523],"ymouse":[654,654,654,654,654,654,654,654,654,654,654,654,654,654,654,654,654,654,654,654,654,654,654,654,654,654,654,654,654,637,589,518,433,284,237,201,181,161,134,124,117,107,96,80],"timestamp_mouse":[12,37,53,73,94,112,133,154,174,193,213,234,253,272,292,312,332,352,372,393,413,434,453,474,493,514,533,552,572,592,613,634,652,672,692,713,733,754,772,793,813,833,853,873],"xSR":741.5,"ySR":573.95,"xT1":424.9,"yT1":0,"xT2":1058.1,"yT2":0,"toosoon":0,"cond_shown":"equaldotanddens","ratio_trial":500,"smaller_num":"5","larger_num":"10","correct_side":1,"subjID":"LUISABAQUEN19","gender":null,"age":"No_age","school":"No_school"},{"start_time":1552313830227,"click_time":1552313831671,"finger_time":1552313830891,"fix_duration":735.0845090212862,"trial":60,"RT":664,"MT":780,"sideResp":1,"stimulus":"img/750/equaldotanddens/L/1_Ratio_750_L_20_R_15.png","xmouse":[788,788,788,788,788,788,788,788,788,788,788,788,788,788,788,788,788,788,788,788,788,788,788,787,786,786,786,786,786,785,791,805,823,876,933,981,1031,1109,1132,1146,1155,1161,1163,1163,1163,1162,1153,1108,1082,1055,1038,1028,1022,998,944,863,785,679,651,607,547,471,303,268,260,260,260,260,267,277,300,335,427],"ymouse":[619,619,619,619,619,619,619,619,619,619,619,619,619,619,619,619,619,619,619,619,619,619,619,619,619,619,619,619,619,617,611,594,574,507,445,396,344,266,239,223,209,201,196,194,194,191,190,184,183,183,183,183,185,198,221,255,277,291,291,282,264,242,182,165,160,159,159,148,136,128,117,105,81],"timestamp_mouse":[13,29,44,63,84,104,124,144,163,184,203,223,243,263,284,304,323,344,365,385,405,425,443,463,485,504,523,544,563,584,603,624,643,664,684,704,724,743,763,783,804,823,844,863,884,904,924,944,964,984,1004,1023,1044,1063,1084,1105,1124,1143,1163,1184,1204,1223,1244,1264,1284,1304,1324,1344,1363,1383,1404,1424,1444],"xSR":741.5,"ySR":573.95,"xT1":424.9,"yT1":0,"xT2":1058.1,"yT2":0,"toosoon":0,"cond_shown":"equaldotanddens","ratio_trial":750,"smaller_num":"15","larger_num":"20","correct_side":1,"subjID":"LUISABAQUEN19","gender":null,"age":"No_age","school":"No_school"},{"start_time":1552313833621,"click_time":1552313834751,"finger_time":1552313834631,"fix_duration":787.1069406749453,"trial":61,"RT":1010,"MT":120,"sideResp":2,"stimulus":"img/900/randomdotsizeEA/L/2_Ratio_900_L_20_R_18.png","xmouse":[786,785,785,782,782,782,782,782,782,782,782,782,782,782,782,782,782,782,782,782,782,782,782,782,782,782,782,782,782,782,782,782,782,782,782,782,782,782,782,782,782,782,782,782,782,782,782,784,799,821,848,879,952,990,1048,1103,1146],"ymouse":[664,664,664,664,664,664,664,664,664,664,664,664,664,664,664,664,664,664,664,664,664,664,664,664,664,664,664,664,664,664,664,664,664,664,664,664,664,664,664,664,664,664,664,664,664,664,664,661,637,602,561,513,359,290,211,134,74],"timestamp_mouse":[14,36,49,70,90,109,130,149,171,191,209,230,250,269,291,310,330,349,369,389,411,430,450,470,491,511,530,549,569,590,610,630,650,669,689,710,729,750,771,791,809,830,849,870,890,910,930,949,969,990,1010,1031,1051,1069,1091,1110,1130],"xSR":741.5,"ySR":573.95,"xT1":424.9,"yT1":0,"xT2":1058.1,"yT2":0,"toosoon":0,"cond_shown":"randomdotsizeEA","ratio_trial":900,"smaller_num":"18","larger_num":"20","correct_side":1,"subjID":"LUISABAQUEN19","gender":null,"age":"No_age","school":"No_school"},{"start_time":1552313836591,"click_time":1552313838111,"finger_time":1552313837811,"fix_duration":538.095229041629,"trial":62,"RT":1220,"MT":300,"sideResp":2,"stimulus":"img/900/randomdotsizeEA/L/4_Ratio_900_L_20_R_18.png","xmouse":[765,765,765,765,765,765,765,765,765,765,765,765,765,765,765,765,765,764,764,764,764,764,764,764,764,764,764,764,764,764,764,764,764,764,764,764,764,764,764,764,764,764,764,764,764,764,764,764,764,764,764,764,764,764,764,764,764,764,764,769,787,814,839,875,909,959,976,993,1007,1018,1042,1059,1070,1079,1087,1104,1110],"ymouse":[607,607,607,607,607,607,607,607,607,607,607,607,607,607,607,607,607,608,608,608,608,608,608,608,608,608,608,608,608,608,608,608,608,608,608,608,608,608,608,608,608,608,608,608,608,608,608,608,608,608,608,608,608,608,608,608,608,608,608,605,584,543,509,464,422,362,343,323,307,294,262,237,215,190,164,112,90],"timestamp_mouse":[2,20,39,61,81,101,120,140,160,179,200,219,239,260,281,300,320,340,359,381,400,421,441,460,479,500,519,540,559,580,600,621,639,659,681,701,720,739,760,780,799,820,840,859,879,901,920,940,959,981,1001,1020,1040,1059,1081,1100,1121,1141,1159,1180,1200,1220,1240,1260,1280,1299,1319,1339,1359,1380,1399,1419,1439,1460,1479,1499,1520],"xSR":741.5,"ySR":573.95,"xT1":424.9,"yT1":0,"xT2":1058.1,"yT2":0,"toosoon":0,"cond_shown":"randomdotsizeEA","ratio_trial":900,"smaller_num":"18","larger_num":"20","correct_side":1,"subjID":"LUISABAQUEN19","gender":null,"age":"No_age","school":"No_school"},{"start_time":1552313839503,"click_time":1552313840590,"finger_time":1552313840390,"fix_duration":250,"trial":63,"RT":887,"MT":200,"sideResp":2,"stimulus":"img/900/randomdotsizeEA/R/15_Ratio_900_L_9_R_10.png","xmouse":[796,796,796,796,796,796,796,796,796,796,794,793,793,793,793,793,793,793,793,793,793,793,793,793,793,793,793,793,793,793,793,793,793,793,793,793,793,793,793,793,793,800,808,822,861,932,960,986,1004,1034,1045,1053,1059,1062,1065],"ymouse":[616,616,616,616,616,616,616,616,616,616,616,617,617,617,617,617,617,617,617,617,617,617,617,617,617,617,617,617,617,617,617,617,617,617,617,617,617,617,617,617,617,607,597,576,528,419,352,290,245,172,147,127,113,105,99],"timestamp_mouse":[10,43,49,68,88,107,127,148,168,187,207,228,247,268,287,309,329,348,368,389,409,428,448,468,487,509,528,548,569,587,608,629,648,667,688,708,729,748,767,787,807,828,849,869,887,907,927,949,969,988,1007,1027,1048,1067,1087],"xSR":741.5,"ySR":573.95,"xT1":424.9,"yT1":0,"xT2":1058.1,"yT2":0,"toosoon":0,"cond_shown":"randomdotsizeEA","ratio_trial":900,"smaller_num":"9","larger_num":"10","correct_side":2,"subjID":"LUISABAQUEN19","gender":null,"age":"No_age","school":"No_school"},{"start_time":1552313842999,"click_time":1552313843810,"finger_time":1552313843692,"fix_duration":1186.1176269698967,"trial":64,"RT":693,"MT":118,"sideResp":2,"stimulus":"img/250/equaldotsize/R/11_Ratio_250_L_3_R_12.png","xmouse":[828,828,828,828,828,828,828,828,828,828,828,828,828,828,828,828,828,828,828,828,828,828,828,828,828,828,828,828,827,827,827,827,830,837,856,945,1002,1057,1097,1120,1131],"ymouse":[643,643,643,643,643,643,643,643,643,643,643,643,643,643,643,643,643,643,643,643,643,643,643,643,643,643,643,643,641,637,627,620,607,588,554,421,340,261,203,146,64],"timestamp_mouse":[20,42,52,72,91,111,133,151,171,191,211,232,252,271,291,312,331,353,371,392,413,431,453,471,492,512,532,551,572,592,611,631,652,671,693,711,732,751,773,791,811],"xSR":741.5,"ySR":573.95,"xT1":424.9,"yT1":0,"xT2":1058.1,"yT2":0,"toosoon":0,"cond_shown":"equaldotsize","ratio_trial":250,"smaller_num":"3","larger_num":"12","correct_side":2,"subjID":"LUISABAQUEN19","gender":null,"age":"No_age","school":"No_school"},{"start_time":1552313845302,"click_time":1552313846250,"finger_time":1552313846090,"fix_duration":629.3320178714234,"trial":65,"RT":788,"MT":160,"sideResp":1,"stimulus":"img/500/randomdotsizeEA/L/8_Ratio_500_L_8_R_4.png","xmouse":[772,772,772,772,772,772,772,772,772,772,772,772,772,772,772,772,772,772,772,772,772,772,772,772,772,772,772,772,772,772,772,772,772,772,772,772,772,762,748,730,686,655,644,617,601,553,525,489],"ymouse":[617,617,617,617,617,617,617,617,617,617,617,617,617,617,617,617,617,617,617,617,617,617,617,617,617,617,617,617,617,617,617,617,617,617,617,617,614,601,584,564,481,371,333,240,198,122,94,68],"timestamp_mouse":[10,42,49,68,89,110,129,148,170,189,209,229,249,270,290,309,329,348,369,388,409,430,449,468,489,508,529,548,569,590,608,630,650,669,689,708,728,748,768,788,808,830,849,868,888,908,929,948],"xSR":741.5,"ySR":573.95,"xT1":424.9,"yT1":0,"xT2":1058.1,"yT2":0,"toosoon":0,"cond_shown":"randomdotsizeEA","ratio_trial":500,"smaller_num":"4","larger_num":"8","correct_side":1,"subjID":"LUISABAQUEN19","gender":null,"age":"No_age","school":"No_school"},{"start_time":1552313848955,"click_time":1552313850551,"finger_time":1552313849932,"fix_duration":1022.3266590287872,"trial":66,"RT":977,"MT":619,"sideResp":1,"stimulus":"img/750/randomdotsizeEA/L/13_Ratio_750_L_8_R_6.png","xmouse":[745,745,745,745,746,747,747,747,747,747,747,747,747,747,747,747,747,747,747,748,748,748,748,748,748,748,748,748,749,751,753,754,755,757,758,758,758,758,758,758,758,758,758,758,758,759,759,759,698,650,576,494,418,345,341,341,344,345,346,347,347,347,347,348,349,349,349,353,367,375,380,385,389,394,399,405,410,413,423,427],"ymouse":[619,619,619,618,617,617,617,617,617,617,617,617,617,617,617,617,617