[{"start_time":1552073550135,"click_time":1552073552081,"finger_time":1552073551961,"fix_duration":250,"trial":0,"RT":1826,"MT":120,"sideResp":2,"stimulus":[],"xmouse":[779,779,779,779,779,779,779,779,779,779,779,779,779,779,779,779,779,779,779,779,779,779,779,779,779,779,780,785,787,787,787,787,787,787,787,787,787,787,787,787,787,787,787,787,787,787,787,787,787,787,787,787,787,787,787,787,787,787,787,787,787,787,787,787,787,787,787,787,787,787,787,787,787,787,787,787,787,787,787,787,787,787,787,787,787,787,787,787,787,791,810,831,858,933,979,1023,1057,1078],"ymouse":[549,549,549,549,549,549,549,549,549,549,549,549,549,549,549,549,549,549,549,549,549,549,549,549,549,549,545,541,539,539,539,539,539,539,539,539,539,539,539,539,539,539,539,539,539,539,539,539,539,539,539,539,539,539,539,539,539,539,539,539,539,539,539,539,539,539,539,539,539,539,539,539,539,539,539,539,539,539,539,539,539,540,540,540,540,540,540,540,540,537,518,484,419,247,188,144,110,86],"timestamp_mouse":[8,38,45,66,85,105,125,145,165,185,205,226,246,265,285,306,326,346,366,386,406,426,445,466,485,505,525,545,566,585,606,625,645,665,686,706,725,746,766,785,806,825,846,865,886,905,926,945,965,986,1005,1025,1046,1065,1085,1105,1125,1146,1165,1185,1205,1226,1246,1266,1287,1306,1325,1345,1366,1385,1405,1426,1445,1466,1486,1506,1526,1546,1567,1586,1605,1626,1645,1666,1686,1706,1727,1746,1766,1785,1806,1826,1846,1866,1885,1905,1925,1946],"xSR":741.5,"ySR":501.8,"xT1":424.9,"yT1":0,"xT2":1058.1,"yT2":0,"toosoon":0,"cond_shown":"Congruent","ratio_trial":100,"L_num":1,"L_den":2,"R_num":3,"R_den":5,"correct_side":2,"subjID":"Luna Cortes Davila 25","gender":"1","age":"9 años ","school":"4","test":{"fix_dur":[250,1500],"timestim":1000,"targets_dim":[100,100],"targets_relative_coord":[0.3,0.7],"size_stim":[880,420],"start_dim":[100,100],"size_start":[300,300],"size_fix":60,"samplingrate":20,"img_types":["Congruent","Incongruent"],"ratios":[100,200,300],"rep_conds":19,"nTrials":120,"trials_to_rest":500,"Trials_order":[72,76,64,38,97,14,56,16,91,116,86,73,93,107,84,50,63,61,3,29,67,23,47,44,1,35,26,88,7,65,111,28,41,118,57,12,80,10,30,78,81,13,108,66,83,106,40,33,8,98,36,6,24,94,48,54,22,49,21,71,96,55,19,79,85,15,52,27,103,62,102,42,100,75,17,39,31,43,46,110,20,90,0,32,105,70,34,45,112,92,95,18,68,109,77,9,99,59,25,114,87,51,37,5,82,4,113,11,117,74,2,104,101,60,69,119,115,58,53,89],"cond_shown":["Congruent","Congruent","Congruent","Congruent","Incongruent","Congruent","Congruent","Congruent","Incongruent","Congruent","Congruent","Incongruent","Incongruent","Incongruent","Congruent","Congruent","Incongruent","Incongruent","Incongruent","Incongruent","Incongruent","Incongruent","Incongruent","Congruent","Incongruent","Incongruent","Congruent","Congruent","Incongruent","Incongruent","Incongruent","Congruent","Incongruent","Congruent","Incongruent","Congruent","Congruent","Congruent","Congruent","Congruent","Incongruent","Incongruent","Congruent","Congruent","Incongruent","Congruent","Congruent","Incongruent","Congruent","Congruent","Congruent","Congruent","Congruent","Congruent","Congruent","Congruent","Congruent","Incongruent","Incongruent","Incongruent","Congruent","Incongruent","Incongruent","Incongruent","Incongruent","Incongruent","Congruent","Incongruent","Incongruent","Congruent","Congruent","Congruent","Congruent","Incongruent","Incongruent","Incongruent","Incongruent","Incongruent","Congruent","Congruent","Congruent","Congruent","Congruent","Congruent","Incongruent","Congruent","Congruent","Incongruent","Congruent","Congruent","Incongruent","Congruent","Congruent","Incongruent","Incongruent","Incongruent","Incongruent","Incongruent","Incongruent","Congruent","Incongruent","Incongruent","Incongruent","Incongruent","Congruent","Congruent","Incongruent","Incongruent","Incongruent","Congruent","Congruent","Congruent","Incongruent","Congruent","Incongruent","Incongruent","Incongruent","Congruent","Incongruent","Incongruent"],"ratio_trial":[100,300,300,200,100,200,200,300,100,200,200,100,200,300,100,200,200,100,200,300,100,300,300,200,100,300,200,300,100,300,200,300,300,300,200,100,200,300,100,100,200,100,100,100,300,300,300,200,200,200,100,100,100,300,100,100,300,100,200,300,100,100,100,100,100,200,300,200,100,200,100,100,300,200,300,200,100,100,300,200,200,100,100,200,200,300,300,200,300,200,300,100,200,100,300,200,200,300,100,100,200,200,100,300,300,300,300,300,200,200,200,200,300,100,200,300,100,300,300,300],"left_num":[1,20,20,7,9,12,9,20,6,3,16,4,7,13,3,7,6,2,4,8,3,4,8,1,8,4,13,24,6,13,4,3,4,20,7,3,8,20,7,12,7,17,3,6,4,3,9,7,6,7,4,1,9,3,9,7,1,6,7,13,3,3,10,9,9,7,7,3,9,7,6,3,11,3,4,14,9,12,24,6,3,7,4,13,7,1,4,4,2,16,7,8,12,9,13,4,7,8,8,1,3,7,9,13,11,24,4,1,4,3,16,14,8,11,1,4,3,24,13,13],"right_num":[3,14,9,18,20,6,13,13,3,7,12,8,8,12,4,18,3,6,1,9,11,2,9,21,6,8,14,8,3,12,6,4,2,5,8,4,7,5,9,13,6,10,2,5,2,11,3,12,11,2,6,3,8,11,8,9,6,11,14,12,2,11,9,20,6,8,20,11,13,18,5,2,1,1,8,6,13,2,8,7,14,9,6,14,12,11,1,14,10,12,8,2,6,14,12,14,6,14,6,3,11,6,20,12,2,2,2,3,14,7,9,6,14,4,3,2,8,8,12,12],"left_den":[2,25,25,15,10,15,30,25,12,10,20,8,10,26,20,15,20,4,30,10,5,20,10,2,16,5,26,30,12,26,5,6,20,25,10,20,15,25,14,30,15,30,6,20,20,12,10,10,20,21,8,2,15,12,15,14,5,10,10,26,6,5,25,10,18,10,14,4,15,15,20,6,22,10,5,30,15,30,30,12,6,14,8,26,10,5,10,6,20,20,10,16,15,15,26,6,15,10,16,2,4,15,10,26,22,30,20,2,6,10,30,28,10,22,2,20,5,30,26,26],"right_den":[5,28,18,27,25,10,26,26,5,14,20,20,16,15,16,27,6,15,3,18,22,4,18,30,10,16,20,16,5,15,10,5,4,10,16,16,21,10,15,26,9,15,5,25,4,20,5,24,22,15,10,5,16,20,16,15,12,22,28,15,5,22,18,25,10,16,25,20,26,27,25,5,5,2,16,9,26,4,16,10,20,15,10,20,24,22,10,30,25,20,20,5,10,28,15,30,9,28,10,5,20,9,25,15,10,4,4,15,30,14,27,20,28,10,10,4,16,16,15,15],"correct_side":[2,1,1,2,1,1,2,1,2,2,1,1,1,2,2,2,2,1,2,1,1,2,1,2,2,1,2,1,2,2,1,2,2,1,1,2,1,1,2,2,2,2,1,1,2,2,1,1,2,1,2,2,1,2,1,2,2,1,1,2,1,1,2,1,2,1,2,1,1,2,1,1,1,2,1,2,1,2,1,2,2,2,2,2,1,2,1,1,2,1,1,1,1,1,2,1,2,1,2,2,1,2,1,2,1,1,2,1,1,2,1,1,1,1,1,2,1,1,2,2],"img_shown":["img2/100/Congruent/R/C_Dist_100_LN_1_LD_2_RN_3_RD_5_1.png","img2/300/Congruent/L/C_Dist_300_LN_20_LD_25_RN_14_RD_28_0.png","img2/300/Congruent/L/C_Dist_300_LN_20_LD_25_RN_9_RD_18_0.png","img2/200/Congruent/R/C_Dist_200_LN_7_LD_15_RN_18_RD_27_1.png","img2/100/Incongruent/L/I_Dist_100_LN_9_LD_10_RN_20_RD_25_0.png","img2/200/Congruent/L/C_Dist_200_LN_12_LD_15_RN_6_RD_10_0.png","img2/200/Congruent/R/C_Dist_200_LN_9_LD_30_RN_13_RD_26_1.png","img2/300/Congruent/L/C_Dist_300_LN_20_LD_25_RN_13_RD_26_0.png","img2/100/Incongruent/R/I_Dist_100_LN_6_LD_12_RN_3_RD_5_1.png","img2/200/Congruent/R/C_Dist_200_LN_3_LD_10_RN_7_RD_14_1.png","img2/200/Congruent/L/C_Dist_200_LN_16_LD_20_RN_12_RD_20_0.png","img2/100/Incongruent/L/I_Dist_100_LN_4_LD_8_RN_8_RD_20_0.png","img2/200/Incongruent/L/I_Dist_200_LN_7_LD_10_RN_8_RD_16_0.png","img2/300/Incongruent/R/I_Dist_300_LN_13_LD_26_RN_12_RD_15_1.png","img2/100/Congruent/R/C_Dist_100_LN_3_LD_20_RN_4_RD_16_1.png","img2/200/Congruent/R/C_Dist_200_LN_7_LD_15_RN_18_RD_27_1.png","img2/200/Incongruent/R/I_Dist_200_LN_6_LD_20_RN_3_RD_6_1.png","img2/100/Incongruent/L/I_Dist_100_LN_2_LD_4_RN_6_RD_15_0.png","img2/200/Incongruent/R/I_Dist_200_LN_4_LD_30_RN_1_RD_3_1.png","img2/300/Incongruent/L/I_Dist_300_LN_8_LD_10_RN_9_RD_18_0.png","img2/100/Incongruent/L/I_Dist_100_LN_3_LD_5_RN_11_RD_22_0.png","img2/300/Incongruent/R/I_Dist_300_LN_4_LD_20_RN_2_RD_4_1.png","img2/300/Incongruent/L/I_Dist_300_LN_8_LD_10_RN_9_RD_18_0.png","img2/200/Congruent/R/C_Dist_200_LN_1_LD_2_RN_21_RD_30_1.png","img2/100/Incongruent/R/I_Dist_100_LN_8_LD_16_RN_6_RD_10_1.png","img2/300/Incongruent/L/I_Dist_300_LN_4_LD_5_RN_8_RD_16_0.png","img2/200/Congruent/R/C_Dist_200_LN_13_LD_26_RN_14_RD_20_1.png","img2/300/Congruent/L/C_Dist_300_LN_24_LD_30_RN_8_RD_16_0.png","img2/100/Incongruent/R/I_Dist_100_LN_6_LD_12_RN_3_RD_5_1.png","img2/300/Incongruent/R/I_Dist_300_LN_13_LD_26_RN_12_RD_15_1.png","img2/200/Incongruent/L/I_Dist_200_LN_4_LD_5_RN_6_RD_10_0.png","img2/300/Congruent/R/C_Dist_300_LN_3_LD_6_RN_4_RD_5_1.png","img2/300/Incongruent/R/I_Dist_300_LN_4_LD_20_RN_2_RD_4_1.png","img2/300/Congruent/L/C_Dist_300_LN_20_LD_25_RN_5_RD_10_0.png","img2/200/Incongruent/L/I_Dist_200_LN_7_LD_10_RN_8_RD_16_0.png","img2/100/Congruent/R/C_Dist_100_LN_3_LD_20_RN_4_RD_16_1.png","img2/200/Congruent/L/C_Dist_200_LN_8_LD_15_RN_7_RD_21_0.png","img2/300/Congruent/L/C_Dist_300_LN_20_LD_25_RN_5_RD_10_0.png","img2/100/Congruent/R/C_Dist_100_LN_7_LD_14_RN_9_RD_15_1.png","img2/100/Congruent/R/C_Dist_100_LN_12_LD_30_RN_13_RD_26_1.png","img2/200/Incongruent/R/I_Dist_200_LN_7_LD_15_RN_6_RD_9_1.png","img2/100/Incongruent/R/I_Dist_100_LN_17_LD_30_RN_10_RD_15_1.png","img2/100/Congruent/L/C_Dist_100_LN_3_LD_6_RN_2_RD_5_0.png","img2/100/Congruent/L/C_Dist_100_LN_6_LD_20_RN_5_RD_25_0.png","img2/300/Incongruent/R/I_Dist_300_LN_4_LD_20_RN_2_RD_4_1.png","img2/300/Congruent/R/C_Dist_300_LN_3_LD_12_RN_11_RD_20_1.png","img2/300/Congruent/L/C_Dist_300_LN_9_LD_10_RN_3_RD_5_0.png","img2/200/Incongruent/L/I_Dist_200_LN_7_LD_10_RN_12_RD_24_0.png","img2/200/Congruent/R/C_Dist_200_LN_6_LD_20_RN_11_RD_22_1.png","img2/200/Congruent/L/C_Dist_200_LN_7_LD_21_RN_2_RD_15_0.png","img2/100/Congruent/R/C_Dist_100_LN_4_LD_8_RN_6_RD_10_1.png","img2/100/Congruent/R/C_Dist_100_LN_1_LD_2_RN_3_RD_5_1.png","img2/100/Congruent/L/C_Dist_100_LN_9_LD_15_RN_8_RD_16_0.png","img2/300/Congruent/R/C_Dist_300_LN_3_LD_12_RN_11_RD_20_1.png","img2/100/Congruent/L/C_Dist_100_LN_9_LD_15_RN_8_RD_16_0.png","img2/100/Congruent/R/C_Dist_100_LN_7_LD_14_RN_9_RD_15_1.png","img2/300/Congruent/R/C_Dist_300_LN_1_LD_5_RN_6_RD_12_1.png","img2/100/Incongruent/L/I_Dist_100_LN_6_LD_10_RN_11_RD_22_0.png","img2/200/Incongruent/L/I_Dist_200_LN_7_LD_10_RN_14_RD_28_0.png","img2/300/Incongruent/R/I_Dist_300_LN_13_LD_26_RN_12_RD_15_1.png","img2/100/Congruent/L/C_Dist_100_LN_3_LD_6_RN_2_RD_5_0.png","img2/100/Incongruent/L/I_Dist_100_LN_3_LD_5_RN_11_RD_22_0.png","img2/100/Incongruent/R/I_Dist_100_LN_10_LD_25_RN_9_RD_18_1.png","img2/100/Incongruent/L/I_Dist_100_LN_9_LD_10_RN_20_RD_25_0.png","img2/100/Incongruent/R/I_Dist_100_LN_9_LD_18_RN_6_RD_10_1.png","img2/200/Incongruent/L/I_Dist_200_LN_7_LD_10_RN_8_RD_16_0.png","img2/300/Congruent/R/C_Dist_300_LN_7_LD_14_RN_20_RD_25_1.png","img2/200/Incongruent/L/I_Dist_200_LN_3_LD_4_RN_11_RD_20_0.png","img2/100/Incongruent/L/I_Dist_100_LN_9_LD_15_RN_13_RD_26_0.png","img2/200/Congruent/R/C_Dist_200_LN_7_LD_15_RN_18_RD_27_1.png","img2/100/Congruent/L/C_Dist_100_LN_6_LD_20_RN_5_RD_25_0.png","img2/100/Congruent/L/C_Dist_100_LN_3_LD_6_RN_2_RD_5_0.png","img2/300/Congruent/L/C_Dist_300_LN_11_LD_22_RN_1_RD_5_0.png","img2/200/Incongruent/R/I_Dist_200_LN_3_LD_10_RN_1_RD_2_1.png","img2/300/Incongruent/L/I_Dist_300_LN_4_LD_5_RN_8_RD_16_0.png","img2/200/Incongruent/R/I_Dist_200_LN_14_LD_30_RN_6_RD_9_1.png","img2/100/Incongruent/L/I_Dist_100_LN_9_LD_15_RN_13_RD_26_0.png","img2/100/Incongruent/R/I_Dist_100_LN_12_LD_30_RN_2_RD_4_1.png","img2/300/Congruent/L/C_Dist_300_LN_24_LD_30_RN_8_RD_16_0.png","img2/200/Congruent/R/C_Dist_200_LN_6_LD_12_RN_7_RD_10_1.png","img2/200/Congruent/R/C_Dist_200_LN_3_LD_6_RN_14_RD_20_1.png","img2/100/Congruent/R/C_Dist_100_LN_7_LD_14_RN_9_RD_15_1.png","img2/100/Congruent/R/C_Dist_100_LN_4_LD_8_RN_6_RD_10_1.png","img2/200/Congruent/R/C_Dist_200_LN_13_LD_26_RN_14_RD_20_1.png","img2/200/Incongruent/L/I_Dist_200_LN_7_LD_10_RN_12_RD_24_0.png","img2/300/Congruent/R/C_Dist_300_LN_1_LD_5_RN_11_RD_22_1.png","img2/300/Congruent/L/C_Dist_300_LN_4_LD_10_RN_1_RD_10_0.png","img2/200/Incongruent/L/I_Dist_200_LN_4_LD_6_RN_14_RD_30_0.png","img2/300/Congruent/R/C_Dist_300_LN_2_LD_20_RN_10_RD_25_1.png","img2/200/Congruent/L/C_Dist_200_LN_16_LD_20_RN_12_RD_20_0.png","img2/300/Incongruent/L/I_Dist_300_LN_7_LD_10_RN_8_RD_20_0.png","img2/100/Congruent/L/C_Dist_100_LN_8_LD_16_RN_2_RD_5_0.png","img2/200/Congruent/L/C_Dist_200_LN_12_LD_15_RN_6_RD_10_0.png","img2/100/Incongruent/L/I_Dist_100_LN_9_LD_15_RN_14_RD_28_0.png","img2/300/Incongruent/R/I_Dist_300_LN_13_LD_26_RN_12_RD_15_1.png","img2/200/Incongruent/L/I_Dist_200_LN_4_LD_6_RN_14_RD_30_0.png","img2/200/Incongruent/R/I_Dist_200_LN_7_LD_15_RN_6_RD_9_1.png","img2/300/Incongruent/L/I_Dist_300_LN_8_LD_10_RN_14_RD_28_0.png","img2/100/Incongruent/R/I_Dist_100_LN_8_LD_16_RN_6_RD_10_1.png","img2/100/Congruent/R/C_Dist_100_LN_1_LD_2_RN_3_RD_5_1.png","img2/200/Incongruent/L/I_Dist_200_LN_3_LD_4_RN_11_RD_20_0.png","img2/200/Incongruent/R/I_Dist_200_LN_7_LD_15_RN_6_RD_9_1.png","img2/100/Incongruent/L/I_Dist_100_LN_9_LD_10_RN_20_RD_25_0.png","img2/300/Incongruent/R/I_Dist_300_LN_13_LD_26_RN_12_RD_15_1.png","img2/300/Congruent/L/C_Dist_300_LN_11_LD_22_RN_2_RD_10_0.png","img2/300/Congruent/L/C_Dist_300_LN_24_LD_30_RN_2_RD_4_0.png","img2/300/Incongruent/R/I_Dist_300_LN_4_LD_20_RN_2_RD_4_1.png","img2/300/Incongruent/L/I_Dist_300_LN_1_LD_2_RN_3_RD_15_0.png","img2/200/Incongruent/L/I_Dist_200_LN_4_LD_6_RN_14_RD_30_0.png","img2/200/Congruent/R/C_Dist_200_LN_3_LD_10_RN_7_RD_14_1.png","img2/200/Congruent/L/C_Dist_200_LN_16_LD_30_RN_9_RD_27_0.png","img2/200/Congruent/L/C_Dist_200_LN_14_LD_28_RN_6_RD_20_0.png","img2/300/Incongruent/L/I_Dist_300_LN_8_LD_10_RN_14_RD_28_0.png","img2/100/Congruent/L/C_Dist_100_LN_11_LD_22_RN_4_RD_10_0.png","img2/200/Incongruent/L/I_Dist_200_LN_1_LD_2_RN_3_RD_10_0.png","img2/300/Incongruent/R/I_Dist_300_LN_4_LD_20_RN_2_RD_4_1.png","img2/100/Incongruent/L/I_Dist_100_LN_3_LD_5_RN_8_RD_16_0.png","img2/300/Congruent/L/C_Dist_300_LN_24_LD_30_RN_8_RD_16_0.png","img2/300/Incongruent/R/I_Dist_300_LN_13_LD_26_RN_12_RD_15_1.png","img2/300/Incongruent/R/I_Dist_300_LN_13_LD_26_RN_12_RD_15_1.png"],"dist100_C":[["C_Dist_100_LN_10_LD_25_RN_3_RD_10_0.png","C_Dist_100_LN_11_LD_22_RN_4_RD_10_0.png","C_Dist_100_LN_11_LD_22_RN_6_RD_15_0.png","C_Dist_100_LN_15_LD_25_RN_13_RD_26_0.png","C_Dist_100_LN_3_LD_6_RN_2_RD_5_0.png","C_Dist_100_LN_6_LD_20_RN_5_RD_25_0.png","C_Dist_100_LN_8_LD_16_RN_2_RD_5_0.png","C_Dist_100_LN_9_LD_15_RN_8_RD_16_0.png"],["C_Dist_100_LN_1_LD_2_RN_18_RD_30_1.png","C_Dist_100_LN_1_LD_2_RN_3_RD_5_1.png","C_Dist_100_LN_12_LD_30_RN_13_RD_26_1.png","C_Dist_100_LN_2_LD_5_RN_11_RD_22_1.png","C_Dist_100_LN_2_LD_5_RN_6_RD_12_1.png","C_Dist_100_LN_3_LD_20_RN_4_RD_16_1.png","C_Dist_100_LN_4_LD_10_RN_15_RD_30_1.png","C_Dist_100_LN_4_LD_8_RN_6_RD_10_1.png","C_Dist_100_LN_6_LD_12_RN_15_RD_25_1.png","C_Dist_100_LN_7_LD_14_RN_15_RD_25_1.png","C_Dist_100_LN_7_LD_14_RN_9_RD_15_1.png"]],"dist100_I":[["I_Dist_100_LN_1_LD_2_RN_8_RD_20_0.png","I_Dist_100_LN_2_LD_4_RN_6_RD_15_0.png","I_Dist_100_LN_2_LD_4_RN_8_RD_20_0.png","I_Dist_100_LN_3_LD_5_RN_11_RD_22_0.png","I_Dist_100_LN_3_LD_5_RN_8_RD_16_0.png","I_Dist_100_LN_3_LD_6_RN_4_RD_10_0.png","I_Dist_100_LN_3_LD_9_RN_7_RD_30_0.png","I_Dist_100_LN_4_LD_8_RN_8_RD_20_0.png","I_Dist_100_LN_6_LD_10_RN_11_RD_22_0.png","I_Dist_100_LN_6_LD_10_RN_13_RD_26_0.png","I_Dist_100_LN_6_LD_10_RN_7_RD_14_0.png","I_Dist_100_LN_9_LD_10_RN_20_RD_25_0.png","I_Dist_100_LN_9_LD_15_RN_13_RD_26_0.png","I_Dist_100_LN_9_LD_15_RN_14_RD_28_0.png"],["I_Dist_100_LN_10_LD_25_RN_8_RD_16_1.png","I_Dist_100_LN_10_LD_25_RN_9_RD_18_1.png","I_Dist_100_LN_11_LD_22_RN_9_RD_15_1.png","I_Dist_100_LN_12_LD_24_RN_9_RD_15_1.png","I_Dist_100_LN_12_LD_30_RN_2_RD_4_1.png","I_Dist_100_LN_13_LD_26_RN_12_RD_20_1.png","I_Dist_100_LN_13_LD_26_RN_6_RD_10_1.png","I_Dist_100_LN_17_LD_30_RN_10_RD_15_1.png","I_Dist_100_LN_6_LD_12_RN_3_RD_5_1.png","I_Dist_100_LN_8_LD_16_RN_6_RD_10_1.png","I_Dist_100_LN_8_LD_20_RN_1_RD_2_1.png","I_Dist_100_LN_9_LD_18_RN_6_RD_10_1.png"]],"dist100_S":[["E_Dist_100_LN_2_LD_12_RN_2_RD_30_0.png","E_Dist_100_LN_6_LD_10_RN_6_RD_12_0.png"],["E_Dist_100_LN_6_LD_12_RN_6_RD_10_1.png"]],"dist200_C":[["C_Dist_200_LN_11_LD_22_RN_3_RD_10_0.png","C_Dist_200_LN_12_LD_15_RN_6_RD_10_0.png","C_Dist_200_LN_12_LD_20_RN_6_RD_15_0.png","C_Dist_200_LN_14_LD_28_RN_6_RD_20_0.png","C_Dist_200_LN_15_LD_25_RN_4_RD_10_0.png","C_Dist_200_LN_16_LD_20_RN_12_RD_20_0.png","C_Dist_200_LN_16_LD_30_RN_9_RD_27_0.png","C_Dist_200_LN_20_LD_25_RN_9_RD_15_0.png","C_Dist_200_LN_21_LD_30_RN_2_RD_4_0.png","C_Dist_200_LN_4_LD_10_RN_3_RD_15_0.png","C_Dist_200_LN_4_LD_8_RN_3_RD_10_0.png","C_Dist_200_LN_6_LD_15_RN_3_RD_15_0.png","C_Dist_200_LN_7_LD_21_RN_2_RD_15_0.png","C_Dist_200_LN_8_LD_15_RN_2_RD_6_0.png","C_Dist_200_LN_8_LD_15_RN_3_RD_9_0.png","C_Dist_200_LN_8_LD_15_RN_7_RD_21_0.png","C_Dist_200_LN_9_LD_20_RN_4_RD_16_0.png"],["C_Dist_200_LN_1_LD_2_RN_21_RD_30_1.png","C_Dist_200_LN_13_LD_26_RN_14_RD_20_1.png","C_Dist_200_LN_3_LD_10_RN_11_RD_22_1.png","C_Dist_200_LN_3_LD_10_RN_14_RD_28_1.png","C_Dist_200_LN_3_LD_10_RN_7_RD_14_1.png","C_Dist_200_LN_3_LD_12_RN_9_RD_20_1.png","C_Dist_200_LN_3_LD_6_RN_14_RD_20_1.png","C_Dist_200_LN_5_LD_10_RN_14_RD_20_1.png","C_Dist_200_LN_6_LD_12_RN_7_RD_10_1.png","C_Dist_200_LN_6_LD_20_RN_11_RD_22_1.png","C_Dist_200_LN_7_LD_15_RN_18_RD_27_1.png","C_Dist_200_LN_9_LD_30_RN_13_RD_26_1.png"]],"dist200_I":[["I_Dist_200_LN_1_LD_2_RN_3_RD_10_0.png","I_Dist_200_LN_1_LD_3_RN_2_RD_15_0.png","I_Dist_200_LN_3_LD_4_RN_11_RD_20_0.png","I_Dist_200_LN_4_LD_5_RN_6_RD_10_0.png","I_Dist_200_LN_4_LD_6_RN_14_RD_30_0.png","I_Dist_200_LN_7_LD_10_RN_12_RD_24_0.png","I_Dist_200_LN_7_LD_10_RN_14_RD_28_0.png","I_Dist_200_LN_7_LD_10_RN_8_RD_16_0.png"],["I_Dist_200_LN_11_LD_20_RN_3_RD_4_1.png","I_Dist_200_LN_14_LD_30_RN_12_RD_18_1.png","I_Dist_200_LN_14_LD_30_RN_6_RD_9_1.png","I_Dist_200_LN_3_LD_10_RN_1_RD_2_1.png","I_Dist_200_LN_4_LD_30_RN_1_RD_3_1.png","I_Dist_200_LN_6_LD_20_RN_3_RD_6_1.png","I_Dist_200_LN_7_LD_15_RN_4_RD_6_1.png","I_Dist_200_LN_7_LD_15_RN_6_RD_9_1.png","I_Dist_200_LN_9_LD_15_RN_8_RD_10_1.png"]],"dist200_S":[["E_Dist_200_LN_3_LD_6_RN_3_RD_10_0.png"],["E_Dist_200_LN_3_LD_10_RN_3_RD_6_1.png"]],"dist300_C":[["C_Dist_300_LN_11_LD_22_RN_1_RD_5_0.png","C_Dist_300_LN_11_LD_22_RN_2_RD_10_0.png","C_Dist_300_LN_11_LD_22_RN_4_RD_20_0.png","C_Dist_300_LN_12_LD_24_RN_2_RD_10_0.png","C_Dist_300_LN_18_LD_20_RN_9_RD_15_0.png","C_Dist_300_LN_20_LD_25_RN_13_RD_26_0.png","C_Dist_300_LN_20_LD_25_RN_14_RD_28_0.png","C_Dist_300_LN_20_LD_25_RN_5_RD_10_0.png","C_Dist_300_LN_20_LD_25_RN_8_RD_16_0.png","C_Dist_300_LN_20_LD_25_RN_9_RD_18_0.png","C_Dist_300_LN_24_LD_30_RN_2_RD_4_0.png","C_Dist_300_LN_24_LD_30_RN_8_RD_16_0.png","C_Dist_300_LN_3_LD_6_RN_2_RD_10_0.png","C_Dist_300_LN_4_LD_10_RN_1_RD_10_0.png","C_Dist_300_LN_4_LD_5_RN_2_RD_4_0.png","C_Dist_300_LN_8_LD_16_RN_1_RD_5_0.png","C_Dist_300_LN_9_LD_10_RN_3_RD_5_0.png"],["C_Dist_300_LN_1_LD_20_RN_7_RD_20_1.png","C_Dist_300_LN_1_LD_3_RN_19_RD_30_1.png","C_Dist_300_LN_1_LD_30_RN_8_RD_24_1.png","C_Dist_300_LN_1_LD_5_RN_11_RD_22_1.png","C_Dist_300_LN_1_LD_5_RN_3_RD_6_1.png","C_Dist_300_LN_1_LD_5_RN_6_RD_12_1.png","C_Dist_300_LN_2_LD_10_RN_12_RD_24_1.png","C_Dist_300_LN_2_LD_20_RN_10_RD_25_1.png","C_Dist_300_LN_3_LD_12_RN_11_RD_20_1.png","C_Dist_300_LN_3_LD_6_RN_4_RD_5_1.png","C_Dist_300_LN_4_LD_20_RN_13_RD_26_1.png","C_Dist_300_LN_5_LD_25_RN_6_RD_12_1.png","C_Dist_300_LN_5_LD_25_RN_7_RD_14_1.png","C_Dist_300_LN_7_LD_14_RN_20_RD_25_1.png","C_Dist_300_LN_8_LD_15_RN_10_RD_12_1.png"]],"dist300_I":[["I_Dist_300_LN_1_LD_2_RN_2_RD_10_0.png","I_Dist_300_LN_1_LD_2_RN_3_RD_15_0.png","I_Dist_300_LN_2_LD_4_RN_6_RD_30_0.png","I_Dist_300_LN_3_LD_6_RN_4_RD_20_0.png","I_Dist_300_LN_4_LD_5_RN_6_RD_12_0.png","I_Dist_300_LN_4_LD_5_RN_8_RD_16_0.png","I_Dist_300_LN_7_LD_10_RN_8_RD_20_0.png","I_Dist_300_LN_8_LD_10_RN_14_RD_28_0.png","I_Dist_300_LN_8_LD_10_RN_9_RD_18_0.png"],["I_Dist_300_LN_13_LD_26_RN_12_RD_15_1.png","I_Dist_300_LN_4_LD_20_RN_2_RD_4_1.png"]],"dist300_S":[["E_Dist_300_LN_9_LD_12_RN_9_RD_20_0.png"],["E_Dist_300_LN_18_LD_30_RN_18_RD_20_1.png","E_Dist_300_LN_3_LD_10_RN_3_RD_5_1.png","E_Dist_300_LN_9_LD_20_RN_9_RD_12_1.png"]],"dist500_C":[["C_Dist_500_LN_10_LD_13_RN_7_RD_26_0.png","C_Dist_500_LN_10_LD_15_RN_4_RD_24_0.png","C_Dist_500_LN_12_LD_16_RN_3_RD_12_0.png","C_Dist_500_LN_12_LD_18_RN_4_RD_24_0.png","C_Dist_500_LN_15_LD_18_RN_5_RD_15_0.png","C_Dist_500_LN_15_LD_20_RN_1_RD_4_0.png","C_Dist_500_LN_18_LD_27_RN_1_RD_6_0.png","C_Dist_500_LN_20_LD_24_RN_1_RD_3_0.png","C_Dist_500_LN_20_LD_24_RN_3_RD_9_0.png","C_Dist_500_LN_20_LD_24_RN_7_RD_21_0.png","C_Dist_500_LN_20_LD_28_RN_3_RD_14_0.png","C_Dist_500_LN_21_LD_28_RN_6_RD_24_0.png","C_Dist_500_LN_22_LD_28_RN_2_RD_7_0.png","C_Dist_500_LN_25_LD_30_RN_9_RD_27_0.png","C_Dist_500_LN_4_LD_6_RN_1_RD_6_0.png","C_Dist_500_LN_5_LD_6_RN_2_RD_6_0.png","C_Dist_500_LN_6_LD_9_RN_1_RD_6_0.png","C_Dist_500_LN_7_LD_10_RN_1_RD_5_0.png","C_Dist_500_LN_8_LD_12_RN_1_RD_6_0.png","C_Dist_500_LN_8_LD_12_RN_4_RD_24_0.png"],["C_Dist_500_LN_1_LD_4_RN_12_RD_16_1.png","C_Dist_500_LN_1_LD_4_RN_9_RD_12_1.png","C_Dist_500_LN_1_LD_9_RN_11_RD_18_1.png","C_Dist_500_LN_10_LD_24_RN_22_RD_24_1.png","C_Dist_500_LN_2_LD_12_RN_10_RD_15_1.png","C_Dist_500_LN_2_LD_12_RN_12_RD_18_1.png","C_Dist_500_LN_2_LD_12_RN_4_RD_6_1.png","C_Dist_500_LN_2_LD_24_RN_7_RD_12_1.png","C_Dist_500_LN_2_LD_5_RN_18_RD_20_1.png","C_Dist_500_LN_2_LD_5_RN_9_RD_10_1.png","C_Dist_500_LN_2_LD_8_RN_12_RD_16_1.png","C_Dist_500_LN_2_LD_8_RN_21_RD_28_1.png","C_Dist_500_LN_3_LD_10_RN_4_RD_5_1.png","C_Dist_500_LN_3_LD_12_RN_15_RD_20_1.png","C_Dist_500_LN_3_LD_30_RN_6_RD_10_1.png","C_Dist_500_LN_3_LD_8_RN_14_RD_16_1.png","C_Dist_500_LN_4_LD_16_RN_15_RD_20_1.png","C_Dist_500_LN_4_LD_24_RN_12_RD_18_1.png","C_Dist_500_LN_5_LD_14_RN_6_RD_7_1.png","C_Dist_500_LN_7_LD_21_RN_20_RD_24_1.png","C_Dist_500_LN_7_LD_28_RN_12_RD_16_1.png","C_Dist_500_LN_7_LD_28_RN_9_RD_12_1.png","C_Dist_500_LN_9_LD_27_RN_20_RD_24_1.png"]],"dist500_I":[["I_Dist_500_LN_2_LD_3_RN_4_RD_24_0.png","I_Dist_500_LN_5_LD_6_RN_6_RD_18_0.png","I_Dist_500_LN_7_LD_8_RN_9_RD_24_0.png"],["I_Dist_500_LN_7_LD_21_RN_5_RD_6_1.png"]],"dist500_S":[["E_Dist_500_LN_6_LD_8_RN_6_RD_24_0.png"],["E_Dist_500_LN_2_LD_12_RN_2_RD_3_1.png","E_Dist_500_LN_6_LD_24_RN_6_RD_8_1.png"]]}},{"start_time":1552073554057,"click_time":1552073554981,"finger_time":1552073554461,"fix_duration":833.7716257767771,"trial":1,"RT":404,"MT":520,"sideResp":2,"stimulus":[],"xmouse":[795,795,795,795,795,795,795,795,795,795,795,795,795,795,795,795,796,798,810,824,837,847,863,910,927,941,948,957,971,977,982,986,992,1033,1061,1081,1086,1086,1082,1082,1082,1082,1083,1083,1085,1089,1097],"ymouse":[544,544,544,544,544,544,544,544,544,544,544,544,544,544,544,544,544,541,528,509,492,471,443,383,365,354,347,339,315,304,297,292,285,249,222,198,184,176,168,160,152,147,144,138,129,112,86],"timestamp_mouse":[9,25,44,63,84,103,123,144,164,184,204,224,244,263,283,303,323,344,363,383,404,424,443,464,484,504,523,544,563,584,603,623,645,664,684,703,724,743,763,785,803,823,843,864,884,904,923],"xSR":741.5,"ySR":501.8,"xT1":424.9,"yT1":0,"xT2":1058.1,"yT2":0,"toosoon":0,"cond_shown":"Congruent","ratio_trial":300,"L_num":20,"L_den":25,"R_num":14,"R_den":28,"correct_side":1,"subjID":"Luna Cortes Davila 25","gender":"1","school":"4","age":"9 años "},{"start_time":1552073556413,"click_time":1552073556961,"finger_time":1552073556761,"fix_duration":250,"trial":2,"RT":348,"MT":200,"sideResp":1,"stimulus":[],"xmouse":[792,792,792,792,792,792,792,792,792,792,792,792,792,792,789,778,770,762,756,752,748,737,706,667,629,566,540,521],"ymouse":[540,540,540,540,540,540,540,540,540,540,540,540,540,540,537,519,505,492,484,479,465,428,352,278,224,136,91,59],"timestamp_mouse":[22,35,48,68,87,107,128,147,167,188,208,227,247,267,289,307,327,348,368,388,407,428,447,467,488,507,528,547],"xSR":741.5,"ySR":501.8,"xT1":424.9,"yT1":0,"xT2":1058.1,"yT2":0,"toosoon":0,"cond_shown":"Congruent","ratio_trial":300,"L_num":20,"L_den":25,"R_num":9,"R_den":18,"correct_side":1,"subjID":"Luna Cortes Davila 25","gender":"1","school":"4","age":"9 años "},{"start_time":1552073559524,"click_time":1552073560541,"finger_time":1552073559922,"fix_duration":1481.8059302835843,"trial":3,"RT":398,"MT":619,"sideResp":2,"stimulus":[],"xmouse":[788,788,788,788,788,788,788,788,788,788,788,788,788,788,788,788,789,790,790,790,791,794,809,833,869,878,888,916,971,990,996,979,968,965,965,966,967,967,967,967,979,1011,1064,1077,1076,1066,1064,1064,1064,1064,1077],"ymouse":[532,532,532,532,532,532,532,532,532,532,532,532,532,532,532,532,529,525,514,491,484,478,458,433,395,383,373,360,331,299,263,246,240,239,238,224,218,217,217,217,222,217,178,154,140,123,116,114,113,109,85],"timestamp_mouse":[17,36,59,76,97,117,136,156,176,197,218,237,257,277,297,318,336,357,377,398,416,436,456,477,498,516,537,557,576,597,616,638,657,676,698,716,736,756,776,796,818,837,857,877,898,916,936,956,976,996,1016],"xSR":741.5,"ySR":501.8,"xT1":424.9,"yT1":0,"xT2":1058.1,"yT2":0,"toosoon":0,"cond_shown":"Congruent","ratio_trial":200,"L_num":7,"L_den":15,"R_num":18,"R_den":27,"correct_side":2,"subjID":"Luna Cortes Davila 25","gender":"1","school":"4","age":"9 años "},{"start_time":1552073569489,"click_time":1552073570260,"finger_time":1552073569780,"fix_duration":1286.6818363798711,"trial":4,"RT":291,"MT":480,"sideResp":2,"stimulus":[],"xmouse":[795,795,795,795,795,795,795,795,795,795,795,795,794,801,812,826,834,844,923,972,985,985,984,965,959,954,952,951,1004,1038,1042,1042,1042,1053,1063,1065,1065,1065,1073],"ymouse":[566,566,566,566,566,566,566,566,566,566,566,566,562,531,490,446,414,385,316,295,285,283,279,263,260,257,255,240,152,122,119,119,118,116,110,108,108,108,91],"timestamp_mouse":[13,37,52,72,91,112,132,152,171,191,212,232,252,271,291,311,332,351,371,391,411,432,453,471,491,511,532,551,571,591,611,632,652,672,693,711,731,752,771],"xSR":741.5,"ySR":501.8,"xT1":424.9,"yT1":0,"xT2":1058.1,"yT2":0,"toosoon":0,"cond_shown":"Incongruent","ratio_trial":100,"L_num":9,"L_den":10,"R_num":20,"R_den":25,"correct_side":1,"subjID":"Luna Cortes Davila 25","gender":"1","school":"4","age":"9 años "},{"start_time":1552073572630,"click_time":1552073573461,"finger_time":1552073572960,"fix_duration":1068.390379371896,"trial":5,"RT":330,"MT":501,"sideResp":1,"stimulus":[],"xmouse":[788,788,788,788,788,788,788,788,788,788,788,788,788,783,775,759,717,703,688,677,665,662,652,646,638,620,580,576,576,576,576,576,576,576,574,570,565,562,557,547,535,519],"ymouse":[554,554,554,554,554,554,554,554,554,554,554,554,554,552,539,516,463,448,429,413,392,377,340,320,290,245,174,164,163,163,163,160,152,139,126,113,99,95,90,81,72,62],"timestamp_mouse":[10,34,50,70,92,111,131,151,171,190,210,231,251,270,291,310,330,350,371,392,410,430,451,470,490,511,530,550,571,591,611,631,651,671,690,711,731,750,770,791,811,831],"xSR":741.5,"ySR":501.8,"xT1":424.9,"yT1":0,"xT2":1058.1,"yT2":0,"toosoon":0,"cond_shown":"Congruent","ratio_trial":200,"L_num":12,"L_den":15,"R_num":6,"R_den":10,"correct_side":1,"subjID":"Luna Cortes Davila 25","gender":"1","school":"4","age":"9 años "},{"start_time":1552073575563,"click_time":1552073576220,"finger_time":1552073575881,"fix_duration":1260.4043000754618,"trial":6,"RT":318,"MT":339,"sideResp":1,"stimulus":[],"xmouse":[783,783,783,783,783,783,783,783,783,783,783,783,782,780,777,775,775,775,772,718,668,629,614,601,513,432,397,394,401,413,433,439,443],"ymouse":[554,554,554,554,554,554,554,554,554,554,554,554,553,536,511,460,434,411,387,332,313,300,296,287,240,206,184,171,156,142,123,108,87],"timestamp_mouse":[17,37,57,79,97,118,138,158,177,198,217,237,257,277,297,318,337,358,377,399,417,438,458,478,497,517,537,558,578,598,617,637,657],"xSR":741.5,"ySR":501.8,"xT1":424.9,"yT1":0,"xT2":1058.1,"yT2":0,"toosoon":0,"cond_shown":"Congruent","ratio_trial":200,"L_num":9,"L_den":30,"R_num":13,"R_den":26,"correct_side":2,"subjID":"Luna Cortes Davila 25","gender":"1","school":"4","age":"9 años "},{"start_time":1552073584638,"click_time":1552073585420,"finger_time":1552073584961,"fix_duration":475.9397037033076,"trial":7,"RT":323,"MT":459,"sideResp":2,"stimulus":[],"xmouse":[797,797,797,797,797,797,797,797,797,797,797,797,797,807,816,836,868,926,951,980,1003,1017,1029,1030,1035,1037,1048,1053,1053,1053,1053,1053,1054,1055,1056,1061,1082,1103,1104,1106],"ymouse":[570,570,570,570,570,570,570,570,570,570,570,570,570,564,553,521,474,391,364,329,302,280,246,239,217,210,188,178,178,178,178,178,177,170,167,159,138,113,105,93],"timestamp_mouse":[10,22,42,62,82,102,122,142,162,182,204,223,243,262,283,303,323,342,363,382,402,423,444,462,482,502,524,543,566,582,603,623,642,664,683,702,722,743,762,782],"xSR":741.5,"ySR":501.8,"xT1":424.9,"yT1":0,"xT2":1058.1,"yT2":0,"toosoon":0,"cond_shown":"Congruent","ratio_trial":300,"L_num":20,"L_den":25,"R_num":13,"R_den":26,"correct_side":1,"subjID":"Luna Cortes Davila 25","gender":"1","school":"4","age":"9 años "},{"start_time":1552073589951,"click_time":1552073590800,"finger_time":1552073590381,"fix_duration":749.9869027814609,"trial":8,"RT":430,"MT":419,"sideResp":1,"stimulus":[],"xmouse":[815,815,815,815,815,815,815,815,815,815,815,815,815,815,815,815,815,815,815,809,789,713,657,650,641,633,622,591,586,585,585,586,597,601,603,603,604,579,561,541,529,525,522],"ymouse":[508,508,508,508,508,508,508,508,508,508,508,508,508,508,508,508,508,508,508,508,508,508,478,450,397,337,261,81,59,53,52,49,42,38,34,34,32,36,46,55,57,57,43],"timestamp_mouse":[9,36,49,70,90,110,129,149,170,189,211,230,249,270,290,309,330,350,370,389,410,430,449,470,489,510,530,549,570,591,609,630,649,670,690,710,729,749,770,789,809,829,849],"xSR":741.5,"ySR":501.8,"xT1":424.9,"yT1":0,"xT2":1058.1,"yT2":0,"toosoon":0,"cond_shown":"Incongruent","ratio_trial":100,"L_num":6,"L_den":12,"R_num":3,"R_den":5,"correct_side":2,"subjID":"Luna Cortes Davila 25","gender":"1","school":"4","age":"9 años "},{"start_time":1552073592782,"click_time":1552073593400,"finger_time":1552073593061,"fix_duration":660.6927891481546,"trial":9,"RT":279,"MT":339,"sideResp":2,"stimulus":[],"xmouse":[775,775,775,775,775,775,775,775,775,775,775,782,790,826,912,988,1004,1014,1027,1045,1075,1083,1084,1084,1084,1084,1081,1079,1079,1079,1081],"ymouse":[570,570,570,570,570,570,570,570,570,570,570,560,547,497,408,328,306,295,283,267,229,208,191,174,172,169,168,154,131,109,87],"timestamp_mouse":[30,39,58,79,99,118,140,159,179,199,219,238,259,279,298,318,339,360,378,399,419,438,458,478,498,518,538,558,578,599,618],"xSR":741.5,"ySR":501.8,"xT1":424.9,"yT1":0,"xT2":1058.1,"yT2":0,"toosoon":0,"cond_shown":"Congruent","ratio_trial":200,"L_num":3,"L_den":10,"R_num":7,"R_den":14,"correct_side":2,"subjID":"Luna Cortes Davila 25","gender":"1","school":"4","age":"9 años "},{"start_time":1552073596298,"click_time":1552073597002,"finger_time":1552073596820,"fix_duration":435.6865387868132,"trial":10,"RT":522,"MT":182,"sideResp":1,"stimulus":[],"xmouse":[820,815,812,809,807,807,807,807,807,807,807,807,807,807,807,807,807,807,807,807,807,807,807,807,807,807,802,795,748,702,652,569,554,542,532,524],"ymouse":[511,514,517,519,521,522,522,522,522,522,522,522,522,522,522,522,522,522,522,522,522,522,522,522,522,522,497,460,336,251,175,60,38,23,9,1],"timestamp_mouse":[2,35,43,62,82,103,122,142,163,183,202,222,242,262,284,303,322,342,362,382,402,422,443,462,484,503,522,543,562,582,602,623,642,662,683,704],"xSR":741.5,"ySR":501.8,"xT1":424.9,"yT1":0,"xT2":1058.1,"yT2":0,"toosoon":0,"cond_shown":"Congruent","ratio_trial":200,"L_num":16,"L_den":20,"R_num":12,"R_den":20,"correct_side":1,"subjID":"Luna Cortes Davila 25","gender":"1","school":"4","age":"9 años "},{"start_time":1552073598591,"click_time":1552073599321,"finger_time":1552073598940,"fix_duration":250,"trial":11,"RT":349,"MT":381,"sideResp":1,"stimulus":[],"xmouse":[769,769,769,769,769,769,769,769,769,769,769,769,769,769,769,770,771,772,765,750,728,651,633,620,611,597,577,569,565,564,564,564,561,556,546,534,505],"ymouse":[536,536,536,536,536,536,536,536,536,536,536,536,536,536,536,532,506,469,432,387,345,255,240,230,221,208,175,161,152,150,150,148,138,116,91,67,43],"timestamp_mouse":[11,40,49,69,89,110,129,150,169,190,209,229,249,269,290,310,329,349,370,390,410,429,450,470,490,510,529,550,570,589,610,629,650,670,689,709,730],"xSR":741.5,"ySR":501.8,"xT1":424.9,"yT1":0,"xT2":1058.1,"yT2":0,"toosoon":0,"cond_shown":"Incongruent","ratio_trial":100,"L_num":4,"L_den":8,"R_num":8,"R_den":20,"correct_side":1,"subjID":"Luna Cortes Davila 25","gender":"1","school":"4","age":"9 años "},{"start_time":1552073600632,"click_time":1552073600961,"finger_time":1552073600860,"fix_duration":250,"trial":12,"RT":228,"MT":101,"sideResp":1,"stimulus":[],"xmouse":[780,780,780,780,780,780,780,780,780,772,762,740,704,672,574,508,463],"ymouse":[555,555,555,555,555,555,555,555,555,552,537,497,438,382,245,160,95],"timestamp_mouse":[9,40,49,68,89,108,129,149,169,188,209,228,248,268,288,308,329],"xSR":741.5,"ySR":501.8,"xT1":424.9,"yT1":0,"xT2":1058.1,"yT2":0,"toosoon":0,"cond_shown":"Incongruent","ratio_trial":200,"L_num":7,"L_den":10,"R_num":8,"R_den":16,"correct_side":1,"subjID":"Luna Cortes Davila 25","gender":"1","school":"4","age":"9 años "},{"start_time":1552073603064,"click_time":1552073603541,"finger_time":1552073603380,"fix_duration":1081.0047368881362,"trial":13,"RT":316,"MT":161,"sideResp":1,"stimulus":[],"xmouse":[792,792,792,792,792,792,792,792,792,792,792,792,792,792,778,758,682,550,522,508,505,504,503,503],"ymouse":[551,551,551,551,551,551,551,551,551,551,551,551,551,551,509,472,346,205,176,161,152,148,129,78],"timestamp_mouse":[16,37,57,77,97,116,137,156,176,197,217,237,256,276,297,316,337,357,376,396,417,437,456,476],"xSR":741.5,"ySR":501.8,"xT1":424.9,"yT1":0,"xT2":1058.1,"yT2":0,"toosoon":0,"cond_shown":"Incongruent","ratio_trial":300,"L_num":13,"L_den":26,"R_num":12,"R_den":15,"correct_side":2,"subjID":"Luna Cortes Davila 25","gender":"1","school":"4","age":"9 años "},{"start_time":1552073605044,"click_time":1552073605662,"finger_time":1552073605180,"fix_duration":301.7401626803878,"trial":14,"RT":136,"MT":482,"sideResp":2,"stimulus":[],"xmouse":[812,812,812,813,827,829,830,832,837,838,844,850,860,874,930,990,1021,1037,1042,1051,1054,1055,1055,1056,1056,1056,1056,1056,1056,1056,1069],"ymouse":[554,554,552,538,508,502,496,492,479,475,464,450,432,410,346,261,194,149,121,76,62,54,50,48,47,47,47,47,47,47,47],"timestamp_mouse":[32,36,56,76,96,116,136,157,177,196,216,237,257,276,296,316,336,356,377,396,416,436,458,477,496,516,537,556,577,596,617],"xSR":741.5,"ySR":501.8,"xT1":424.9,"yT1":0,"xT2":1058.1,"yT2":0,"toosoon":0,"cond_shown":"Congruent","ratio_trial":100,"L_num":3,"L_den":20,"R_num":4,"R_den":16,"correct_side":2,"subjID":"Luna Cortes Davila 25","gender":"1","school":"4","age":"9 años "},{"start_time":1552073607641,"click_time":1552073608281,"finger_time":1552073607780,"fix_duration":957.5793887144015,"trial":15,"RT":139,"MT":501,"sideResp":2,"stimulus":[],"xmouse":[821,821,821,821,821,822,835,854,875,893,915,925,940,954,967,985,996,1008,1018,1027,1033,1035,1037,1043,1049,1054,1058,1068,1080,1087,1087,1087,1091],"ymouse":[532,532,532,532,532,532,519,503,488,475,453,436,403,363,307,245,223,204,185,167,145,138,133,125,120,118,115,109,104,100,100,100,97],"timestamp_mouse":[2,25,40,59,80,100,119,139,160,179,199,220,239,260,280,299,319,339,359,379,400,419,440,460,480,499,519,539,560,579,600,620,640],"xSR":741.5,"ySR":501.8,"xT1":424.9,"yT1":0,"xT2":1058.1,"yT2":0,"toosoon":0,"cond_shown":"Congruent","ratio_trial":200,"L_num":7,"L_den":15,"R_num":18,"R_den":27,"correct_side":2,"subjID":"Luna Cortes Davila 25","gender":"1","school":"4","age":"9 años "},{"start_time":1552073609660,"click_time":1552073610080,"finger_time":1552073609840,"fix_duration":419.24408238050705,"trial":16,"RT":180,"MT":240,"sideResp":2,"stimulus":[],"xmouse":[770,770,770,778,786,790,799,812,826,850,874,914,980,1033,1042,1045,1050,1057,1064,1067,1078,1092],"ymouse":[556,556,556,558,559,557,547,528,509,475,440,380,305,237,187,164,145,133,123,120,109,95],"timestamp_mouse":[8,20,40,60,80,101,120,141,160,180,200,222,240,261,280,301,321,341,361,380,400,420],"xSR":741.5,"ySR":501.8,"xT1":424.9,"yT1":0,"xT2":1058.1,"yT2":0,"toosoon":0,"cond_shown":"Incongruent","ratio_trial":200,"L_num":6,"L_den":20,"R_num":3,"R_den":6,"correct_side":2,"subjID":"Luna Cortes Davila 25","gender":"1","school":"4","age":"9 años "},{"start_time":1552073612300,"click_time":1552073612920,"finger_time":1552073612661,"fix_duration":1097.478635384448,"trial":17,"RT":361,"MT":259,"sideResp":1,"stimulus":[],"xmouse":[798,798,798,798,798,798,798,798,798,798,798,798,798,798,798,798,796,785,714,668,602,567,544,542,542,541,535,526,521,521,518,511],"ymouse":[549,549,549,549,549,549,549,549,549,549,549,549,549,549,549,549,545,528,408,328,215,161,128,125,124,122,116,108,105,105,104,94],"timestamp_mouse":[8,20,40,60,81,100,120,141,160,180,201,221,241,260,281,301,321,341,361,382,400,420,441,460,480,500,521,542,560,580,601,620],"xSR":741.5,"ySR":501.8,"xT1":424.9,"yT1":0,"xT2":1058.1,"yT2":0,"toosoon":0,"cond_shown":"Incongruent","ratio_trial":100,"L_num":2,"L_den":4,"R_num":6,"R_den":15,"correct_side":1,"subjID":"Luna Cortes Davila 25","gender":"1","school":"4","age":"9 años "},{"start_time":1552073621019,"click_time":1552073622120,"finger_time":1552073621381,"fix_duration":655.9631120736036,"trial":18,"RT":362,"MT":739,"sideResp":2,"stimulus":[],"xmouse":[804,804,804,804,804,804,804,804,804,804,804,804,804,804,804,806,808,817,850,865,877,878,882,887,896,902,906,906,852,821,699,614,560,544,544,544,544,547,576,613,678,733,845,898,927,941,946,966,1005,1025,1052,1056,1056,1056,1056,1059],"ymouse":[568,568,568,568,568,568,568,568,568,568,568,568,568,568,568,568,559,532,458,423,383,363,316,289,265,245,235,227,209,206,206,206,206,207,207,207,207,206,196,192,182,173,157,148,138,132,128,106,80,73,54,48,45,45,45,46],"timestamp_mouse":[9,22,41,61,82,102,122,142,163,183,202,221,241,261,281,302,322,341,362,382,401,421,442,461,481,502,522,542,561,581,602,622,642,661,681,701,722,741,761,782,802,823,842,861,882,901,921,943,961,981,1001,1022,1042,1061,1082,1101],"xSR":741.5,"ySR":501.8,"xT1":424.9,"yT1":0,"xT2":1058.1,"yT2":0,"toosoon":0,"cond_shown":"Incongruent","ratio_trial":200,"L_num":4,"L_den":30,"R_num":1,"R_den":3,"correct_side":2,"subjID":"Luna Cortes Davila 25","gender":"1","school":"4","age":"9 años "},{"start_time":1552073624641,"click_time":1552073625401,"finger_time":1552073625040,"fix_duration":1399.6544266007727,"trial":19,"RT":399,"MT":361,"sideResp":2,"stimulus":[],"xmouse":[796,796,796,796,796,796,796,796,796,796,796,796,796,796,796,796,798,798,798,798,807,856,886,904,913,920,967,988,1004,1009,1011,1014,1018,1029,1038,1048,1056,1059],"ymouse":[570,570,570,570,570,570,570,570,570,570,570,570,570,570,569,565,536,523,511,497,475,423,395,376,358,339,264,238,218,205,196,182,171,155,139,116,89,76],"timestamp_mouse":[20,39,59,79,100,120,140,159,180,199,219,239,260,279,300,319,339,360,380,399,419,440,459,480,500,519,539,560,580,600,620,639,660,679,699,719,739,760],"xSR":741.5,"ySR":501.8,"xT1":424.9,"yT1":0,"xT2":1058.1,"yT2":0,"toosoon":0,"cond_shown":"Incongruent","ratio_trial":300,"L_num":8,"L_den":10,"R_num":9,"R_den":18,"correct_side":1,"subjID":"Luna Cortes Davila 25","gender":"1","school":"4","age":"9 años "},{"start_time":1552073641291,"click_time":1552073642021,"finger_time":1552073641620,"fix_duration":1468.3967150706635,"trial":20,"RT":329,"MT":401,"sideResp":2,"stimulus":[],"xmouse":[791,791,791,791,791,791,791,791,791,791,791,791,791,791,791,797,865,901,934,968,1013,1148,1218,1251,1251,1251,1251,1251,1251,1251,1251,1251,1251,1251,1186,1170,1117],"ymouse":[559,559,559,559,559,559,559,559,559,559,559,559,559,559,556,544,460,426,390,343,280,131,55,4,4,4,4,4,4,4,4,4,4,4,0,9,30],"timestamp_mouse":[9,43,50,70,90,109,130,149,170,190,210,230,250,269,290,310,329,349,370,389,410,430,449,470,490,509,529,549,569,589,609,630,650,669,690,710,730],"xSR":741.5,"ySR":501.8,"xT1":424.9,"yT1":0,"xT2":1058.1,"yT2":0,"toosoon":0,"cond_shown":"Incongruent","ratio_trial":100,"L_num":3,"L_den":5,"R_num":11,"R_den":22,"correct_side":1,"subjID":"Luna Cortes Davila 25","gender":"1","school":"4","age":"9 años "},{"start_time":1552073644342,"click_time":1552073645120,"finger_time":1552073644860,"fix_duration":1121.702100637832,"trial":21,"RT":518,"MT":260,"sideResp":2,"stimulus":[],"xmouse":[782,782,782,782,782,782,782,782,782,782,782,782,782,782,782,782,782,782,782,783,781,780,774,753,743,728,719,714,719,734,762,801,857,904,930,969,1008,1031,1077],"ymouse":[578,578,578,578,578,578,578,578,578,578,578,578,578,578,578,578,578,578,578,572,568,562,555,534,522,503,489,480,474,473,473,475,476,446,367,265,174,108,7],"timestamp_mouse":[18,40,58,78,99,119,139,159,179,199,219,238,259,280,299,319,339,358,378,398,418,438,458,478,498,518,539,558,578,598,618,639,659,678,699,718,738,759,778],"xSR":741.5,"ySR":501.8,"xT1":424.9,"yT1":0,"xT2":1058.1,"yT2":0,"toosoon":0,"cond_shown":"Incongruent","ratio_trial":300,"L_num":4,"L_den":20,"R_num":2,"R_den":4,"correct_side":2,"subjID":"Luna Cortes Davila 25","gender":"1","school":"4","age":"9 años "},{"start_time":1552073653611,"click_time":1552073655401,"finger_time":1552073655101,"fix_duration":250,"trial":22,"RT":1490,"MT":300,"sideResp":2,"stimulus":[],"xmouse":[807,807,807,807,807,807,807,807,807,807,807,807,807,807,807,807,807,807,807,807,807,807,807,807,807,807,806,804,804,804,804,804,804,804,804,804,804,804,804,804,804,804,804,804,804,804,804,804,804,804,804,804,804,804,804,804,804,804,804,804,803,799,795,794,794,794,794,794,794,794,794,794,807,826,872,917,987,1017,1047,1065,1065,1065,1065,1065,1065,1065,1065,1065,1065,1107],"ymouse":[549,549,549,549,549,549,549,549,549,549,549,549,549,549,549,549,549,549,549,549,549,549,549,549,549,549,547,544,544,544,544,544,544,544,544,544,544,544,544,544,544,544,544,544,544,544,544,544,544,544,544,544,544,544,544,544,544,544,544,544,543,538,534,533,533,533,533,533,533,533,533,531,518,504,462,416,286,188,83,0,0,0,0,0,0,0,0,0,0,4],"timestamp_mouse":[11,32,49,70,89,109,129,149,169,190,209,229,249,270,291,309,329,349,369,390,410,429,450,469,491,509,529,550,570,590,610,630,650,669,690,709,729,750,770,790,809,829,849,870,889,910,929,950,970,990,1010,1029,1050,1069,1090,1110,1129,1150,1170,1189,1209,1229,1250,1269,1289,1310,1329,1350,1370,1390,1410,1430,1450,1469,1490,1509,1529,1549,1569,1589,1610,1630,1650,1670,1690,1709,1730,1749,1770,1790],"xSR":741.5,"ySR":501.8,"xT1":424.9,"yT1":0,"xT2":1058.1,"yT2":0,"toosoon":0,"cond_shown":"Incongruent","ratio_trial":300,"L_num":8,"L_den":10,"R_num":9,"R_den":18,"correct_side":1,"subjID":"Luna Cortes Davila 25","gender":"1","school":"4","age":"9 años "},{"start_time":1552073661861,"click_time":1552073662621,"finger_time":1552073662400,"fix_duration":819.1442081768193,"trial":23,"RT":539,"MT":221,"sideResp":2,"stimulus":[],"xmouse":[793,793,793,793,793,793,793,793,793,793,791,790,790,790,789,788,787,786,786,786,786,786,785,785,803,824,864,942,970,975,975,976,982,990,1024,1041,1054,1060],"ymouse":[545,545,545,545,545,545,545,545,545,547,549,549,549,549,549,549,549,549,549,549,549,549,549,547,526,506,472,377,314,259,236,208,188,172,133,114,101,94],"timestamp_mouse":[35,39,59,80,99,120,140,159,180,199,220,240,260,279,300,319,339,359,379,400,419,439,459,479,499,519,539,560,579,600,619,639,660,679,699,719,739,760],"xSR":741.5,"ySR":501.8,"xT1":424.9,"yT1":0,"xT2":1058.1,"yT2":0,"toosoon":0,"cond_shown":"Congruent","ratio_trial":200,"L_num":1,"L_den":2,"R_num":21,"R_den":30,"correct_side":2,"subjID":"Luna Cortes Davila 25","gender":"1","school":"4","age":"9 años "},{"start_time":1552073666449,"click_time":1552073686021,"finger_time":1552073678540,"fix_duration":928.3258829389232,"trial":24,"RT":12091,"MT":7481,"sideResp":2,"stimulus":[],"xmouse":[785,785,785,785,785,785,785,785,785,785,785,785,785,785,785,785,785,785,785,785,785,785,785,785,785,785,785,785,785,785,785,785,785,785,785,785,785,785,785,785,785,785,785,785,785,785,785,785,785,785,785,785,785,785,785,785,785,785,785,785,785,785,785,785,785,785,785,785,785,785,785,785,785,785,785,785,785,785,785,785,785,785,785,785,785,785,785,785,785,785,785,785,785,785,785,785,785,785,785,785,785,785,785,785,785,785,785,785,785,785,785,785,785,785,785,785,785,785,785,785,785,785,785,785,785,785,785,785,785,785,785,785,785,785,785,785,785,785,785,785,785,785,785,785,785,785,785,785,785,785,785,785,785,785,785,785,785,785,785,785,785,785,785,785,785,785,785,785,785,785,785,785,785,785,785,785,785,785,785,785,785,785,785,785,785,785,785,785,785,785,785,785,785,785,785,785,785,785,785,785,785,785,785,785,785,785,785,785,785,785,785,785,785,785,785,785,785,785,785,785,785,785,785,785,785,785,785,785,785,785,785,785,785,785,785,785,785,785,785,785,785,785,785,785,785,785,785,785,785,785,785,785,785,785,785,785,785,785,785,785,786,798,807,810,810,811,811,811,811,811,811,811,811,811,811,811,811,811,811,811,811,811,811,811,811,811,810,808,806,803,800,797,797,797,797,797,797,797,797,797,797,797,797,797,797,797,797,797,797,797,797,797,797,797,797,797,797,797,797,797,797,797,797,797,797,797,797,797,797,797,797,797,797,797,797,797,797,797,797,797,797,797,797,797,797,797,797,797,797,797,797,797,797,797,797,797,797,797,797,797,797,797,797,797,797,797,797,797,797,797,797,797,797,797,797,797,797,797,797,797,797,797,797,797,797,797,797,797,797,797,797,797,797,797,797,797,797,797,797,797,797,797,797,797,797,797,797,797,797,797,797,797,797,797,797,797,797,797,797,797,797,797,797,797,797,797,797,797,797,797,797,797,797,797,797,797,797,797,797,797,797,797,797,797,797,797,797,797,797,797,797,797,797,797,797,797,797,797,797,797,797,797,797,797,797,797,797,797,797,797,797,797,797,797,797,797,797,797,797,797,797,797,797,797,797,797,797,797,797,797,797,797,797,797,797,797,797,797,797,797,797,797,797,797,797,797,797,797,797,797,797,797,797,797,797,797,797,797,797,797,797,797,797,797,797,797,797,797,797,797,797,797,797,797,797,797,797,797,797,797,797,797,797,797,797,797,797,797,797,797,797,797,797,797,797,797,797,797,797,797,797,797,797,797,797,797,797,797,797,797,797,797,797,797,797,797,797,797,797,797,797,797,797,797,797,797,797,797,797,797,797,797,797,797,797,797,797,797,796,796,796,802,819,837,847,853,854,842,830,821,817,817,817,817,816,813,811,800,794,788,784,784,784,784,784,784,784,784,784,784,784,784,784,784,784,784,784,784,784,785,785,785,785,785,785,785,785,785,785,785,785,785,785,803,836,868,868,868,868,868,868,868,868,868,868,868,868,868,868,868,868,811,797,779,774,773,773,773,773,773,773,773,773,773,773,773,773,773,773,773,773,773,773,773,773,774,775,781,781,786,787,787,787,787,787,787,787,787,787,787,787,787,788,790,791,791,791,791,791,791,791,791,791,791,791,791,791,791,791,791,791,791,791,791,791,791,791,791,791,791,791,791,791,791,791,791,791,791,791,791,791,791,791,791,791,791,791,791,791,791,791,791,791,791,791,791,791,791,791,791,790,790,789,789,789,791,793,794,794,794,794,794,794,794,794,794,794,794,794,794,794,795,795,795,795,795,795,795,795,795,795,795,795,795,795,795,795,795,795,795,795,795,795,795,795,795,795,795,795,795,795,795,795,795,795,795,795,795,795,795,795,795,795,795,795,795,795,795,795,795,795,795,795,795,795,795,795,795,795,795,795,795,795,795,795,795,795,795,795,795,795,795,795,795,795,795,795,795,795,795,795,795,795,795,795,795,795,795,795,795,795,795,795,795,795,795,795,795,795,795,795,795,795,795,795,795,795,795,795,795,795,795,795,795,795,795,795,795,795,795,795,795,795,795,795,795,795,795,795,795,795,795,795,795,795,795,795,795,795,795,795,795,795,795,795,795,795,793,792,792,792,792,792,801,805,805,811,824,861,869,877,881,883,888,893,905,917,924,926,930,934,936,937,944,967,995,1015,1023,1025,1029,1030,1034,1040,1054,1054,1054,1054,1054,1059],"ymouse":[559,559,559,559,559,559,559,559,559,559,559,559,559,559,559,559,559,559,559,559,559,559,559,559,559,559,559,559,559,559,559,559,559,559,559,559,559,559,559,559,559,559,559,559,559,559,559,559,559,559,559,559,559,559,559,559,559,559,559,559,559,559,559,559,559,559,559,559,559,559,559,559,559,559,559,559,559,559,559,559,559,559,559,559,559,559,559,559,559,559,559,559,559,559,559,559,559,559,559,559,559,559,559,559,559,559,559,559,559,559,559,559,559,559,559,559,559,559,559,559,559,559,559,559,559,559,559,559,559,559,559,559,559,559,559,559,559,559,559,559,559,559,559,559,559,559,559,559,559,559,559,559,559,559,559,559,559,559,559,559,559,559,559,559,559,559,559,559,559,559,559,559,559,559,559,559,559,559,559,559,559,559,559,559,559,559,559,559,559,559,559,559,559,559,559,559,559,559,559,559,559,559,559,559,559,559,559,559,559,559,559,559,559,559,559,559,559,559,559,559,559,559,559,559,559,559,559,559,559,559,559,559,559,559,559,559,559,559,559,559,559,559,559,559,559,559,559,559,559,559,559,559,559,559,559,559,559,559,559,559,559,563,567,570,571,571,571,571,571,571,571,571,571,571,571,571,571,571,571,571,571,571,571,571,571,571,571,571,570,569,568,567,567,567,567,567,567,567,567,567,567,567,567,567,567,567,567,567,567,567,567,567,567,567,567,567,567,567,567,567,567,567,567,567,567,567,567,567,567,567,567,567,567,567,567,567,567,567,567,567,567,567,567,567,567,567,567,567,567,567,567,567,567,567,567,567,567,567,567,567,567,567,567,567,567,567,567,567,567,567,567,567,567,567,567,567,567,567,567,567,567,567,567,567,567,567,567,567,567,567,567,567,567,567,567,567,567,567,567,567,567,567,567,567,567,567,567,567,567,567,567,567,567,567,567,567,567,567,567,567,567,567,567,567,567,567,567,567,567,567,567,567,567,567,567,567,567,567,567,567,567,567,567,567,567,567,567,567,567,567,567,567,567,567,567,567,567,567,567,567,567,567,567,567,567,567,567,567,567,567,567,567,567,567,567,567,567,567,567,567,567,567,567,567,567,567,567,567,567,567,567,567,567,567,567,567,567,567,567,567,567,567,567,567,567,567,567,567,567,567,567,567,567,567,567,567,567,567,567,567,567,567,567,567,567,567,567,567,567,567,567,567,567,567,567,567,567,567,567,567,567,567,567,567,567,567,567,567,567,567,567,567,567,567,567,567,567,567,567,567,567,567,567,567,567,567,567,567,567,567,567,567,567,567,567,567,567,567,567,567,567,567,567,567,567,567,567,567,567,567,567,567,567,567,567,567,567,567,563,561,557,551,546,541,538,536,534,522,514,508,506,506,506,506,506,512,518,539,549,558,564,564,564,564,564,564,567,569,569,569,569,569,569,569,569,569,569,569,569,569,569,569,569,569,569,569,569,569,569,569,569,569,577,610,676,756,756,756,756,756,756,756,756,756,756,756,756,756,756,756,756,731,680,554,527,521,521,521,521,521,521,521,521,521,521,521,522,522,522,522,522,522,522,522,522,524,524,535,537,540,542,543,543,543,543,543,543,543,543,543,543,543,545,545,546,546,546,546,546,546,546,546,546,546,546,546,546,546,546,546,546,546,546,546,546,546,546,546,546,546,546,546,546,546,546,546,546,546,546,546,546,546,546,546,546,546,546,546,546,546,546,546,546,546,546,546,546,546,546,547,547,547,549,552,558,563,566,571,571,571,571,571,571,571,571,571,571,571,571,571,571,571,571,571,571,571,571,571,571,571,571,571,571,571,571,571,571,571,571,571,571,571,571,571,571,571,571,571,571,571,571,571,571,571,571,571,571,571,571,571,571,571,571,571,571,571,571,571,571,571,571,571,571,571,571,571,571,571,571,571,571,571,571,571,571,571,571,571,571,571,571,571,571,571,571,571,571,571,571,571,571,571,571,571,571,571,571,571,571,571,571,571,571,571,571,571,571,571,571,571,571,571,571,571,571,571,571,571,571,571,571,571,571,571,571,571,571,571,571,571,571,571,571,571,571,571,571,571,571,571,571,571,571,571,571,571,571,571,571,571,571,571,571,571,521,394,297,212,209,209,209,209,209,204,198,187,176,158,101,83,73,68,65,62,62,62,62,59,59,59,59,59,59,58,58,56,51,50,50,49,49,48,48,45,45,45,45,45,45],"timestamp_mouse":[11,37,52,71,91,112,132,151,171,192,211,232,251,271,291,311,331,351,372,391,411,433,451,471,492,512,532,552,571,591,612,632,652,671,691,712,733,751,771,792,811,832,851,872,891,912,932,951,971,992,1011,1031,1052,1072,1091,1113,1131,1152,1172,1192,1211,1232,1251,1272,1293,1311,1332,1351,1372,1392,1411,1432,1452,1471,1492,1511,1531,1551,1572,1591,1612,1631,1652,1672,1692,1713,1732,1752,1771,1791,1811,1832,1851,1872,1892,1912,1932,1952,1971,1992,2012,2033,2052,2072,2091,2111,2132,2153,2172,2191,2212,2233,2253,2272,2291,2312,2332,2352,2372,2392,2412,2432,2451,2472,2492,2512,2533,2553,2571,2591,2612,2631,2651,2671,2691,2711,2732,2752,2773,2792,2811,2832,2852,2871,2892,2911,2931,2951,2973,2991,3012,3032,3053,3072,3091,3112,3132,3153,3172,3191,3212,3233,3253,3272,3291,3311,3332,3351,3372,3391,3411,3431,3453,3472,3492,3512,3531,3552,3571,3593,3613,3631,3651,3671,3692,3711,3732,3751,3773,3791,3811,3831,3851,3871,3891,3911,3933,3952,3972,3992,4012,4033,4052,4072,4091,4111,4133,4152,4172,4192,4211,4231,4252,4272,4291,4312,4333,4351,4372,4392,4411,4433,4451,4472,4492,4512,4531,4551,4571,4592,4611,4631,4651,4673,4691,4711,4731,4751,4772,4791,4812,4831,4851,4873,4893,4912,4932,4951,4973,4993,5012,5032,5053,5071,5092,5113,5132,5152,5172,5193,5212,5232,5252,5272,5292,5311,5332,5352,5371,5391,5411,5431,5452,5473,5492,5511,5531,5551,5572,5591,5611,5632,5651,5672,5692,5712,5732,5752,5772,5791,5812,5831,5852,5873,5892,5912,5932,5952,5972,5992,6012,6033,6052,6072,6092,6112,6132,6151,6173,6192,6212,6231,6253,6271,6292,6312,6331,6351,6372,6393,6412,6431,6452,6472,6493,6513,6532,6553,6572,6591,6611,6631,6651,6671,6692,6711,6732,6753,6771,6793,6812,6831,6851,6873,6892,6911,6932,6952,6972,6992,7011,7032,7051,7071,7093,7112,7132,7153,7173,7192,7212,7232,7252,7271,7293,7312,7331,7352,7372,7391,7411,7432,7453,7472,7492,7512,7532,7552,7572,7592,7612,7632,7652,7672,7693,7712,7731,7752,7771,7793,7812,7832,7851,7872,7892,7913,7931,7951,7971,7993,8012,8033,8053,8072,8091,8111,8132,8151,8172,8192,8212,8232,8253,8271,8292,8311,8332,8351,8372,8392,8412,8431,8451,8472,8491,8511,8531,8551,8571,8591,8611,8631,8652,8671,8691,8711,8731,8752,8771,8791,8811,8832,8853,8871,8892,8912,8932,8952,8972,8991,9012,9032,9051,9072,9093,9112,9131,9152,9171,9193,9212,9231,9252,9273,9292,9312,9331,9352,9373,9393,9411,9431,9452,9472,9492,9513,9531,9552,9572,9591,9611,9631,9652,9671,9693,9712,9731,9752,9771,9791,9812,9831,9852,9871,9891,9913,9931,9952,9972,9993,10011,10031,10051,10072,10091,10111,10131,10152,10171,10193,10212,10232,10252,10271,10293,10311,10331,10351,10373,10393,10412,10431,10452,10472,10492,10511,10531,10553,10572,10592,10612,10632,10652,10671,10692,10711,10732,10752,10771,10792,10812,10831,10851,10871,10891,10911,10931,10952,10971,10991,11012,11032,11052,11073,11093,11112,11132,11152,11171,11191,11212,11231,11252,11271,11292,11313,11333,11351,11372,11391,11412,11432,11451,11473,11492,11511,11532,11553,11572,11592,11612,11633,11653,11673,11692,11712,11732,11753,11771,11791,11812,11832,11852,11871,11893,11912,11932,11952,11972,11992,12012,12031,12051,12071,12091,12111,12132,12151,12172,12191,12211,12233,12251,12271,12292,12311,12333,12351,12371,12392,12411,12431,12451,12471,12491,12511,12532,12552,12573,12592,12612,12631,12651,12673,12691,12712,12733,12751,12772,12792,12811,12831,12851,12872,12892,12913,12931,12951,12972,12992,13011,13032,13051,13071,13091,13111,13132,13152,13172,13192,13212,13231,13252,13271,13292,13312,13332,13352,13371,13392,13411,13431,13451,13471,13492,13512,13532,13551,13572,13593,13612,13631,13652,13671,13692,13712,13732,13751,13771,13791,13812,13831,13851,13872,13892,13911,13932,13951,13971,13991,14011,14031,14051,14072,14092,14112,14132,14152,14172,14192,14212,14232,14251,14272,14291,14311,14332,14352,14371,14392,14412,14433,14452,14472,14492,14511,14531,14551,14573,14592,14612,14631,14651,14671,14692,14713,14732,14751,14773,14792,14811,14832,14851,14871,14891,14912,14931,14951,14971,14992,15011,15032,15051,15071,15091,15113,15131,15152,15172,15191,15212,15232,15252,15271,15291,15312,15331,15351,15371,15391,15412,15431,15451,15471,15491,15511,15532,15552,15571,15591,15613,15632,15652,15672,15692,15713,15731,15751,15772,15792,15811,15831,15853,15872,15892,15912,15932,15951,15972,15991,16011,16032,16052,16073,16092,16112,16132,16152,16171,16192,16211,16231,16251,16272,16291,16312,16332,16351,16372,16392,16411,16433,16451,16472,16492,16511,16531,16552,16573,16591,16611,16632,16653,16672,16691,16712,16732,16751,16772,16793,16812,16832,16852,16872,16893,16912,16932,16952,16971,16993,17011,17032,17052,17071,17093,17112,17131,17152,17171,17191,17211,17232,17251,17272,17293,17312,17332,17352,17373,17392,17411,17432,17453,17473,17492,17512,17531,17552,17573,17593,17612,17632,17652,17671,17692,17712,17733,17753,17772,17792,17811,17832,17853,17872,17892,17911,17931,17952,17972,17993,18012,18032,18051,18072,18091,18112,18133,18152,18172,18191,18212,18232,18251,18272,18291,18312,18331,18351,18372,18392,18411,18432,18451,18472,18492,18512,18533,18552,18572,18591,18611,18633,18651,18672,18691,18712,18732,18753,18771,18791,18812,18833,18851,18871,18891,18911,18931,18952,18971,18991,19011,19031,19051,19071,19092,19111,19132,19151,19171,19191,19212,19231,19251,19271,19291,19312,19332,19352,19373,19392,19412,19432,19453,19471,19491,19511,19531,19551,19571],"xSR":741.5,"ySR":501.8,"xT1":424.9,"yT1":0,"xT2":1058.1,"yT2":0,"toosoon":0,"cond_shown":"Incongruent","ratio_trial":100,"L_num":8,"L_den":16,"R_num":6,"R_den":10,"correct_side":2,"subjID":"Luna Cortes Davila 25","gender":"1","school":"4","age":"9 años "},{"start_time":1552073689638,"click_time":1552073690180,"finger_time":1552073690062,"fix_duration":497.3777988475501,"trial":25,"RT":424,"MT":118,"sideResp":2,"stimulus":[],"xmouse":[797,797,797,797,797,797,797,797,797,797,797,797,797,797,797,797,797,797,799,807,833,862,903,937,972,1041,1072,1084],"ymouse":[571,571,571,571,571,571,571,571,571,571,571,571,571,571,571,571,571,571,565,548,504,459,397,338,279,150,101,81],"timestamp_mouse":[9,32,42,64,82,103,123,144,162,182,202,223,243,264,282,304,322,342,362,382,403,424,443,463,484,502,524,542],"xSR":741.5,"ySR":501.8,"xT1":424.9,"yT1":0,"xT2":1058.1,"yT2":0,"toosoon":0,"cond_shown":"Incongruent","ratio_trial":300,"L_num":4,"L_den":5,"R_num":8,"R_den":16,"correct_side":1,"subjID":"Luna Cortes Davila 25","gender":"1","school":"4","age":"9 años "},{"start_time":1552073691534,"click_time":1552073692242,"finger_time":1552073691901,"fix_duration":250,"trial":26,"RT":367,"MT":341,"sideResp":1,"stimulus":[],"xmouse":[791,791,791,791,791,791,791,791,791,791,791,791,791,791,791,787,775,763,747,690,663,622,601,582,571,566,566,566,565,565,546,539,535,532,526,510],"ymouse":[560,560,560,560,560,560,560,560,560,560,560,560,560,560,560,560,546,522,486,364,297,216,179,140,118,107,107,107,105,105,98,94,90,81,73,62],"timestamp_mouse":[6,37,46,66,86,106,126,148,167,187,206,227,247,266,287,307,326,346,367,388,406,427,446,467,487,506,526,546,567,587,606,627,646,666,687,708],"xSR":741.5,"ySR":501.8,"xT1":424.9,"yT1":0,"xT2":1058.1,"yT2":0,"toosoon":0,"cond_shown":"Congruent","ratio_trial":200,"L_num":13,"L_den":26,"R_num":14,"R_den":20,"correct_side":2,"subjID":"Luna Cortes Davila 25","gender":"1","school":"4","age":"9 años "},{"start_time":1552073693838,"click_time":1552073694481,"finger_time":1552073694140,"fix_duration":515.9463450892983,"trial":27,"RT":302,"MT":341,"sideResp":2,"stimulus":[],"xmouse":[789,789,789,789,789,789,789,789,788,787,787,787,787,787,789,895,979,1035,1059,1071,1080,1088,1097,1103,1110,1111,1111,1111,1111,1104,1082,1074,1072],"ymouse":[544,544,544,544,544,544,544,544,544,544,544,544,544,544,542,451,379,332,309,292,269,256,241,230,211,199,193,191,188,175,133,106,86],"timestamp_mouse":[8,36,42,62,82,103,123,142,162,184,203,222,242,262,283,302,324,343,364,383,402,422,443,463,484,502,522,542,563,583,602,622,643],"xSR":741.5,"ySR":501.8,"xT1":424.9,"yT1":0,"xT2":1058.1,"yT2":0,"toosoon":0,"cond_shown":"Congruent","ratio_trial":300,"L_num":24,"L_den":30,"R_num":8,"R_den":16,"correct_side":1,"subjID":"Luna Cortes Davila 25","gender":"1","school":"4","age":"9 años "},{"start_time":1552073696141,"click_time":1552073696880,"finger_time":1552073696481,"fix_duration":817.09828049662,"trial":28,"RT":340,"MT":399,"sideResp":1,"stimulus":[],"xmouse":[780,780,780,780,780,780,780,780,780,780,780,780,780,780,780,776,765,746,699,661,605,596,585,569,548,516,513,513,513,513,513,513,513,514,515,515,513,507],"ymouse":[546,546,546,546,546,546,546,546,546,546,546,546,546,546,546,537,515,483,430,404,350,333,310,275,238,193,187,187,187,187,187,187,183,174,159,116,100,84],"timestamp_mouse":[1,30,39,60,80,100,119,139,160,181,199,220,241,259,280,299,321,340,359,380,400,420,439,459,479,499,519,539,560,580,600,620,639,659,679,699,719,739],"xSR":741.5,"ySR":501.8,"xT1":424.9,"yT1":0,"xT2":1058.1,"yT2":0,"toosoon":0,"cond_shown":"Incongruent","ratio_trial":100,"L_num":6,"L_den":12,"R_num":3,"R_den":5,"correct_side":2,"subjID":"Luna Cortes Davila 25","gender":"1","school":"4","age":"9 años "},{"start_time":1552073697893,"click_time":1552073698702,"finger_time":1552073698240,"fix_duration":250,"trial":29,"RT":347,"MT":462,"sideResp":2,"stimulus":[],"xmouse":[797,797,797,797,797,797,797,797,797,797,797,797,797,797,805,811,832,894,912,933,961,1014,1031,1040,1042,1049,1060,1076,1078,1078,1078,1078,1078,1078,1078,1078,1080,1098,1108,1116,1122],"ymouse":[569,569,569,569,569,569,569,569,569,569,569,569,569,569,558,549,531,470,443,412,374,299,264,227,217,198,174,144,142,142,142,142,142,142,142,141,140,129,116,101,85],"timestamp_mouse":[12,33,47,67,87,108,127,147,168,187,208,229,247,268,289,307,328,347,367,388,408,429,447,467,487,508,527,547,567,589,607,627,648,668,688,707,727,747,767,788,809],"xSR":741.5,"ySR":501.8,"xT1":424.9,"yT1":0,"xT2":1058.1,"yT2":0,"toosoon":0,"cond_shown":"Incongruent","ratio_trial":300,"L_num":13,"L_den":26,"R_num":12,"R_den":15,"correct_side":2,"subjID":"Luna Cortes Davila 25","gender":"1","school":"4","age":"9 años "},{"start_time":1552073699653,"click_time":1552073700320,"finger_time":1552073699941,"fix_duration":250,"trial":30,"RT":288,"MT":379,"sideResp":2,"stimulus":[],"xmouse":[760,760,760,760,760,760,760,760,760,760,760,762,769,788,878,909,925,932,941,966,1089,1105,1109,1109,1108,1107,1107,1105,1104,1103,1102,1102,1102,1100],"ymouse":[590,590,590,590,590,590,590,590,590,590,590,590,589,578,527,504,482,460,435,381,234,217,207,200,192,191,190,188,182,173,129,117,106,92],"timestamp_mouse":[8,34,47,67,88,107,128,147,167,187,207,228,247,268,288,307,328,348,367,388,407,428,448,467,489,507,528,547,567,587,608,627,648,667],"xSR":741.5,"ySR":501.8,"xT1":424.9,"yT1":0,"xT2":1058.1,"yT2":0,"toosoon":0,"cond_shown":"Incongruent","ratio_trial":200,"L_num":4,"L_den":5,"R_num":6,"R_den":10,"correct_side":1,"subjID":"Luna Cortes Davila 25","gender":"1","school":"4","age":"9 años "},{"start_time":1552073702423,"click_time":1552073703121,"finger_time":1552073702741,"fix_duration":1382.0602250390841,"trial":31,"RT":318,"MT":380,"sideResp":1,"stimulus":[],"xmouse":[789,789,789,789,789,789,789,789,789,789,790,789,789,782,774,759,723,697,650,600,553,520,515,515,515,515,518,518,518,520,524,529,525,517,504],"ymouse":[568,568,568,568,568,568,568,568,568,568,568,565,560,545,523,499,445,409,348,298,251,220,212,209,206,205,204,204,204,200,181,133,118,103,85],"timestamp_mouse":[18,37,57,78,99,117,138,158,178,197,217,237,257,278,297,318,337,358,377,399,418,437,458,477,497,518,538,558,577,598,618,637,658,677,698],"xSR":741.5,"ySR":501.8,"xT1":424.9,"yT1":0,"xT2":1058.1,"yT2":0,"toosoon":0,"cond_shown":"Congruent","ratio_trial":300,"L_num":3,"L_den":6,"R_num":4,"R_den":5,"correct_side":2,"subjID":"Luna Cortes Davila 25","gender":"1","school":"4","age":"9 años "},{"start_time":1552073704932,"click_time":1552073705640,"finger_time":1552073705260,"fix_duration":871.0467381569293,"trial":32,"RT":328,"MT":380,"sideResp":2,"stimulus":[],"xmouse":[781,781,781,781,781,781,782,783,785,786,786,786,787,793,817,835,877,916,935,946,949,952,957,964,972,981,1010,1023,1030,1034,1040,1053,1057,1058,1060,1060],"ymouse":[547,547,547,547,547,547,546,546,546,546,546,546,547,547,536,511,399,335,292,258,233,191,177,169,162,159,146,141,138,135,129,117,111,105,100,97],"timestamp_mouse":[14,41,50,68,88,109,129,149,169,188,208,228,248,269,289,308,328,348,368,389,410,428,449,468,489,510,528,549,568,589,609,629,648,668,689,708],"xSR":741.5,"ySR":501.8,"xT1":424.9,"yT1":0,"xT2":1058.1,"yT2":0,"toosoon":0,"cond_shown":"Incongruent","ratio_trial":300,"L_num":4,"L_den":20,"R_num":2,"R_den":4,"correct_side":2,"subjID":"Luna Cortes Davila 25","gender":"1","school":"4","age":"9 años "},{"start_time":1552073707292,"click_time":1552073707862,"finger_time":1552073707621,"fix_duration":429.4808885782918,"trial":33,"RT":329,"MT":241,"sideResp":2,"stimulus":[],"xmouse":[803,803,803,803,803,803,803,803,803,803,803,803,803,808,822,835,852,867,879,928,985,1050,1093,1117,1118,1117,1113,1111,1110],"ymouse":[548,548,548,548,548,548,548,548,548,548,548,548,548,539,521,510,493,480,466,403,338,277,233,180,160,149,132,121,99],"timestamp_mouse":[8,36,49,69,89,108,130,150,168,189,210,228,248,269,289,309,329,349,368,388,408,428,448,469,488,508,528,549,569],"xSR":741.5,"ySR":501.8,"xT1":424.9,"yT1":0,"xT2":1058.1,"yT2":0,"toosoon":0,"cond_shown":"Congruent","ratio_trial":300,"L_num":20,"L_den":25,"R_num":5,"R_den":10,"correct_side":1,"subjID":"Luna Cortes Davila 25","gender":"1","school":"4","age":"9 años "},{"start_time":1552073734729,"click_time":1552073736441,"finger_time":1552073736182,"fix_duration":1066.9393936402537,"trial":34,"RT":1453,"MT":259,"sideResp":1,"stimulus":[],"xmouse":[767,767,767,767,767,767,767,767,767,767,767,767,767,767,767,767,767,767,769,770,772,771,770,769,767,768,770,771,771,772,775,777,778,781,781,781,781,781,781,781,781,781,781,781,781,781,781,781,781,781,781,781,781,781,781,781,781,781,781,781,781,781,781,781,781,781,781,781,781,781,781,769,701,601,460,449,450,459,466,469,470,470,470,473,480,488],"ymouse":[574,574,574,574,574,574,574,574,574,574,574,574,574,574,574,574,574,574,573,571,567,565,565,564,562,554,553,551,550,548,541,536,533,531,531,531,531,531,531,531,531,531,531,531,531,531,531,531,531,531,531,531,531,531,531,531,531,531,531,531,531,531,531,531,531,531,531,531,531,531,531,523,494,448,309,246,198,164,142,130,120,119,119,112,102,93],"timestamp_mouse":[11,39,51,71,91,111,133,152,172,192,212,233,251,271,292,311,333,352,373,391,412,432,453,471,492,512,532,552,572,591,612,632,652,671,692,713,732,752,771,793,811,831,853,871,891,912,932,952,972,992,1012,1031,1052,1071,1091,1111,1131,1152,1173,1193,1212,1232,1253,1273,1291,1313,1332,1352,1371,1391,1411,1433,1453,1472,1493,1512,1531,1551,1572,1593,1612,1632,1651,1672,1691,1712],"xSR":741.5,"ySR":501.8,"xT1":424.9,"yT1":0,"xT2":1058.1,"yT2":0,"toosoon":0,"cond_shown":"Incongruent","ratio_trial":200,"L_num":7,"L_den":10,"R_num":8,"R_den":16,"correct_side":1,"subjID":"Luna Cortes Davila 25","gender":"1","school":"4","age":"9 años "},{"start_time":1552073738152,"click_time":1552073739020,"finger_time":1552073738702,"fix_duration":648.7722093260991,"trial":35,"RT":550,"MT":318,"sideResp":2,"stimulus":[],"xmouse":[817,817,817,817,817,817,817,817,817,817,817,817,817,817,817,816,815,814,814,809,803,790,776,767,762,761,759,759,769,815,849,909,956,987,1005,1009,1012,1018,1022,1030,1049,1077,1096,1111],"ymouse":[547,547,547,547,547,547,547,547,547,547,547,547,547,547,547,547,547,547,548,548,546,540,532,526,521,514,505,497,485,458,433,383,337,287,240,222,204,187,178,168,149,127,108,92],"timestamp_mouse":[11,33,49,69,88,109,129,148,168,189,209,230,249,268,288,309,328,348,370,388,409,429,450,468,488,508,529,550,570,588,608,628,649,669,688,709,729,750,770,788,808,829,849,868],"xSR":741.5,"ySR":501.8,"xT1":424.9,"yT1":0,"xT2":1058.1,"yT2":0,"toosoon":0,"cond_shown":"Congruent","ratio_trial":100,"L_num":3,"L_den":20,"R_num":4,"R_den":16,"correct_side":2,"subjID":"Luna Cortes Davila 25","gender":"1","school":"4","age":"9 años "},{"start_time":1552073743581,"click_time":1552073745081,"finger_time":1552073744042,"fix_duration":738.0805106713531,"trial":36,"RT":461,"MT":1039,"sideResp":1,"stimulus":[],"xmouse":[751,751,751,752,752,752,752,752,752,752,752,752,752,753,779,797,814,827,833,834,834,834,835,842,843,850,859,870,897,914,941,965,1002,1050,1079,1103,1130,1157,1194,1205,1213,1217,1219,1219,1219,1219,1219,1219,1219,1219,1219,1037,1037,1037,1037,1037,1035,1033,1026,958,878,775,667,569,413,400,400,400,403,411,418,419,419,420,424,426],"ymouse":[557,560,560,564,564,565,565,565,565,565,565,565,565,565,561,559,555,548,537,531,523,512,502,481,473,459,442,428,392,369,341,315,289,250,226,203,175,139,71,48,32,16,7,7,7,7,7,7,7,7,7,12,12,12,12,12,18,22,30,63,81,95,97,97,82,78,78,78,70,63,58,57,57,56,55,55],"timestamp_mouse":[1,31,40,60,81,99,119,140,160,179,199,221,239,259,280,300,320,340,360,380,400,421,440,461,479,499,520,541,561,579,600,619,640,661,679,700,720,739,761,779,800,820,840,860,881,899,920,940,960,979,1000,1019,1039,1061,1080,1100,1119,1139,1160,1180,1200,1219,1239,1260,1280,1299,1320,1340,1361,1380,1400,1420,1440,1460,1480,1499],"xSR":741.5,"ySR":501.8,"xT1":424.9,"yT1":0,"xT2":1058.1,"yT2":0,"toosoon":0,"cond_shown":"Congruent","ratio_trial":200,"L_num":8,"L_den":15,"R_num":7,"R_den":21,"correct_side":1,"subjID":"Luna Cortes Davila 25","gender":"1","school":"4","age":"9 años "},{"start_time":1552073747289,"click_time":1552073748122,"finger_time":1552073747661,"fix_duration":1224.3761766109353,"trial":37,"RT":372,"MT":461,"sideResp":1,"stimulus":[],"xmouse":[794,794,794,794,794,794,794,794,794,794,794,794,794,794,794,794,794,794,794,794,790,787,784,766,753,696,622,515,442,424,410,395,379,352,345,343,343,343,355,375,399,427],"ymouse":[564,564,564,564,564,564,564,564,564,564,564,564,564,564,564,560,553,533,426,390,372,361,356,351,351,346,330,281,203,167,148,130,111,58,37,28,26,24,23,23,23,20],"timestamp_mouse":[11,34,52,71,91,112,132,151,172,192,212,231,252,272,292,313,331,352,372,392,412,432,452,478,491,512,531,551,571,591,611,631,652,672,693,712,732,752,771,793,813,833],"xSR":741.5,"ySR":501.8,"xT1":424.9,"yT1":0,"xT2":1058.1,"yT2":0,"toosoon":0,"cond_shown":"Congruent","ratio_trial":300,"L_num":20,"L_den":25,"R_num":5,"R_den":10,"correct_side":1,"subjID":"Luna Cortes Davila 25","gender":"1","school":"4","age":"9 años "},{"start_time":1552073751066,"click_time":1552073752040,"finger_time":1552073751441,"fix_duration":1003.2666965156212,"trial":38,"RT":375,"MT":599,"sideResp":2,"stimulus":[],"xmouse":[772,772,773,773,773,773,773,773,773,773,773,773,773,774,775,776,778,778,772,760,756,755,751,745,740,735,734,737,752,792,807,824,849,892,1000,1057,1074,1081,1084,1086,1088,1096,1105,1112,1120,1123,1127,1130,1131],"ymouse":[566,566,566,566,566,566,566,566,566,566,566,566,566,565,565,559,537,513,487,446,432,422,413,403,394,387,381,375,367,348,337,324,305,270,199,165,151,141,134,130,129,126,125,122,115,112,105,102,98],"timestamp_mouse":[18,41,55,76,95,114,134,154,176,194,215,235,254,275,295,315,336,355,375,395,414,434,456,474,496,514,535,554,574,594,614,635,655,675,695,715,735,754,776,795,814,834,856,875,895,914,935,954,974],"xSR":741.5,"ySR":501.8,"xT1":424.9,"yT1":0,"xT2":1058.1,"yT2":0,"toosoon":0,"cond_shown":"Congruent","ratio_trial":100,"L_num":7,"L_den":14,"R_num":9,"R_den":15,"correct_side":2,"subjID":"Luna Cortes Davila 25","gender":"1","school":"4","age":"9 años "},{"start_time":1552073754428,"click_time":1552073755181,"finger_time":1552073754842,"fix_duration":1305.2658399523536,"trial":39,"RT":414,"MT":339,"sideResp":2,"stimulus":[],"xmouse":[801,801,801,801,801,801,801,801,801,801,801,801,801,801,801,801,801,811,819,824,830,833,838,842,849,861,880,936,954,969,981,997,1032,1040,1044,1044,1047,1073],"ymouse":[556,556,556,556,556,556,556,556,556,556,556,556,556,556,556,556,556,539,525,513,500,490,477,469,460,446,432,389,373,355,335,300,225,195,166,130,106,72],"timestamp_mouse":[12,32,52,73,94,114,133,153,173,192,212,232,253,274,293,313,332,352,372,393,414,432,452,472,493,513,533,552,572,593,614,632,652,673,694,712,732,752],"xSR":741.5,"ySR":501.8,"xT1":424.9,"yT1":0,"xT2":1058.1,"yT2":0,"toosoon":0,"cond_shown":"Congruent","ratio_trial":100,"L_num":12,"L_den":30,"R_num":13,"R_den":26,"correct_side":2,"subjID":"Luna Cortes Davila 25","gender":"1","school":"4","age":"9 años "},{"start_time":1552073758094,"click_time":1552073759461,"finger_time":1552073759181,"fix_duration":1011.7107955617281,"trial":40,"RT":1087,"MT":280,"sideResp":1,"stimulus":[],"xmouse":[787,787,787,787,787,787,787,787,787,787,787,787,787,787,787,787,787,787,787,787,787,787,787,787,787,787,787,787,787,787,787,787,787,787,787,787,787,787,787,787,787,787,787,787,787,787,787,787,787,787,787,787,782,771,706,671,635,604,587,573,573,573,573,573,571,562,547,528,516],"ymouse":[549,549,549,549,549,549,549,549,549,549,549,549,549,549,549,549,549,549,549,549,549,549,549,549,549,549,549,549,549,549,549,549,549,549,549,549,549,549,549,549,549,549,549,549,549,549,549,549,549,549,549,549,550,543,478,426,357,287,244,219,219,219,219,219,199,167,127,95,81],"timestamp_mouse":[8,33,46,66,86,107,126,147,166,186,207,227,248,267,287,307,326,347,367,387,407,427,447,467,486,508,526,546,567,586,607,627,646,666,686,707,727,748,766,786,807,826,846,866,886,907,928,948,967,987,1007,1028,1046,1067,1087,1107,1126,1146,1166,1186,1206,1227,1246,1266,1286,1307,1326,1347,1366],"xSR":741.5,"ySR":501.8,"xT1":424.9,"yT1":0,"xT2":1058.1,"yT2":0,"toosoon":0,"cond_shown":"Incongruent","ratio_trial":200,"L_num":7,"L_den":15,"R_num":6,"R_den":9,"correct_side":2,"subjID":"Luna Cortes Davila 25","gender":"1","school":"4","age":"9 años "},{"start_time":1552073762305,"click_time":1552073763401,"finger_time":1552073763001,"fix_duration":1443.8535897154477,"trial":41,"RT":696,"MT":400,"sideResp":2,"stimulus":[],"xmouse":[794,794,794,794,794,794,794,794,794,794,794,794,794,794,794,794,794,794,794,794,794,794,794,794,794,794,794,794,794,794,794,794,793,828,873,917,944,965,982,1009,1017,1028,1036,1047,1057,1057,1057,1057,1057,1060,1064,1067,1070,1075,1090],"ymouse":[548,548,548,548,548,548,548,548,548,548,548,548,548,548,548,548,548,548,548,548,548,548,548,548,548,548,548,548,548,548,548,548,546,516,483,444,410,375,335,269,251,226,208,188,169,165,163,162,161,147,138,130,122,112,78],"timestamp_mouse":[16,40,55,75,97,116,135,155,177,195,216,237,256,276,297,315,336,357,375,396,417,436,455,476,497,515,536,556,577,596,615,637,656,677,696,716,736,755,775,795,816,837,856,876,896,916,935,956,976,999,1017,1037,1056,1075,1096],"xSR":741.5,"ySR":501.8,"xT1":424.9,"yT1":0,"xT2":1058.1,"yT2":0,"toosoon":0,"cond_shown":"Incongruent","ratio_trial":100,"L_num":17,"L_den":30,"R_num":10,"R_den":15,"correct_side":2,"subjID":"Luna Cortes Davila 25","gender":"1","school":"4","age":"9 años "},{"start_time":1552073766962,"click_time":1552073768662,"finger_time":1552073768281,"fix_duration":1499.496396511219,"trial":42,"RT":1319,"MT":381,"sideResp":1,"stimulus":[],"xmouse":[792,792,792,792,792,792,792,792,792,792,792,792,792,792,792,792,792,792,792,792,792,792,793,793,793,793,793,793,793,793,793,793,793,793,793,793,793,793,793,793,793,793,793,793,793,793,793,793,793,793,793,793,793,793,793,793,793,793,793,793,793,793,790,783,776,762,739,694,679,665,656,645,635,623,618,614,597,588,575,567,553,533,526,525,521],"ymouse":[540,540,540,540,540,540,540,540,540,540,540,540,540,540,540,540,540,540,540,540,540,539,533,532,531,530,530,530,530,530,530,530,530,530,530,530,530,530,530,530,530,530,530,530,530,530,530,530,530,530,530,530,530,530,530,530,530,530,530,530,530,528,522,515,506,494,478,451,440,428,417,395,380,357,337,310,247,217,181,156,139,108,98,98,95],"timestamp_mouse":[18,40,59,78,99,118,138,159,179,198,219,240,258,280,298,318,339,360,379,400,418,438,459,479,499,519,540,558,578,599,620,638,659,679,700,719,738,758,779,799,818,838,858,879,900,919,938,958,979,999,1019,1039,1059,1078,1100,1118,1138,1158,1178,1198,1219,1239,1259,1280,1298,1319,1339,1359,1378,1398,1418,1438,1458,1478,1498,1519,1539,1558,1579,1600,1618,1639,1658,1680,1700],"xSR":741.5,"ySR":501.8,"xT1":424.9,"yT1":0,"xT2":1058.1,"yT2":0,"toosoon":0,"cond_shown":"Congruent","ratio_trial":100,"L_num":3,"L_den":6,"R_num":2,"R_den":5,"correct_side":1,"subjID":"Luna Cortes Davila 25","gender":"1","school":"4","age":"9 años "},{"start_time":1552073778630,"click_time":1552073780501,"finger_time":1552073778647,"fix_duration":986.8074626404775,"trial":43,"RT":17,"MT":1854,"sideResp":2,"stimulus":[],"xmouse":[948,984,986,979,945,934,929,924,911,900,865,844,825,820,819,819,819,819,819,819,819,819,819,819,819,828,829,821,800,772,737,727,726,742,762,811,833,835,835,835,835,835,836,836,813,795,786,784,784,784,784,784,784,784,784,784,784,784,784,784,784,784,784,784,784,784,784,784,784,784,784,784,788,810,923,941,945,945,948,952,967,984,1000,1014,1018,1032,1040,1049,1051,1054,1061,1067,1076,1083],"ymouse":[353,287,267,257,240,240,240,240,249,262,294,313,327,332,332,332,332,332,332,332,332,332,332,334,334,354,373,396,432,464,507,538,567,594,607,622,624,625,625,625,625,625,625,623,599,580,572,569,567,567,567,567,567,567,567,567,567,567,567,567,567,567,567,567,567,567,567,567,567,567,567,567,562,549,457,401,356,317,278,232,177,151,139,135,133,128,126,126,125,125,126,126,116,99],"timestamp_mouse":[17,34,52,70,93,110,131,150,171,191,211,230,250,270,290,311,332,352,372,392,411,431,451,471,490,510,531,552,570,590,610,630,650,671,691,712,731,751,772,790,812,831,850,871,892,911,931,951,970,991,1010,1032,1051,1071,1092,1110,1131,1151,1172,1191,1211,1230,1250,1272,1291,1311,1330,1352,1371,1392,1411,1432,1450,1471,1492,1511,1532,1550,1572,1590,1611,1631,1651,1671,1691,1710,1730,1751,1770,1791,1811,1831,1850,1871],"xSR":741.5,"ySR":501.8,"xT1":424.9,"yT1":0,"xT2":1058.1,"yT2":0,"toosoon":0,"cond_shown":"Congruent","ratio_trial":100,"L_num":6,"L_den":20,"R_num":5,"R_den":25,"correct_side":1,"subjID":"Luna Cortes Davila 25","gender":"1","school":"4","age":"9 años "},{"start_time":1552073781714,"click_time":1552073782941,"finger_time":1552073782041,"fix_duration":250,"trial":44,"RT":327,"MT":900,"sideResp":2,"stimulus":[],"xmouse":[820,819,819,819,819,819,819,819,819,819,819,819,819,817,815,811,778,760,749,739,726,711,696,679,662,642,622,616,606,584,568,547,547,547,547,547,546,545,545,545,545,592,676,789,915,1033,1220,1260,1279,1286,1286,1286,1286,1286,1286,1286,1286,1286,1286,1286,1286,1126],"ymouse":[579,579,579,579,579,579,579,579,579,579,579,579,579,579,578,560,457,419,398,380,357,331,311,297,283,271,253,245,233,208,189,174,174,174,174,174,172,169,169,169,169,198,238,268,281,287,220,178,128,57,18,18,18,18,18,18,18,18,18,18,18,28],"timestamp_mouse":[8,29,47,67,88,108,127,148,167,188,207,228,247,267,287,307,327,347,367,387,407,426,446,466,486,507,526,546,567,587,608,626,646,667,688,707,727,747,768,787,807,827,847,867,887,907,926,946,967,986,1007,1027,1046,1066,1086,1106,1126,1147,1167,1186,1207,1227],"xSR":741.5,"ySR":501.8,"xT1":424.9,"yT1":0,"xT2":1058.1,"yT2":0,"toosoon":0,"cond_shown":"Incongruent","ratio_trial":300,"L_num":4,"L_den":20,"R_num":2,"R_den":4,"correct_side":2,"subjID":"Luna Cortes Davila 25","gender":"1","school":"4","age":"9 años "},{"start_time":1552073785012,"click_time":1552073785882,"finger_time":1552073785460,"fix_duration":991.5812062742617,"trial":45,"RT":448,"MT":422,"sideResp":2,"stimulus":[],"xmouse":[788,788,788,788,788,788,788,788,788,788,788,788,788,788,788,788,788,788,788,788,788,806,831,864,922,942,960,995,1014,1025,1033,1038,1040,1048,1056,1057,1058,1059,1063,1070,1073,1084,1097,1104],"ymouse":[541,541,541,541,541,541,541,541,541,541,541,541,541,541,541,541,541,541,541,541,542,523,496,468,410,382,348,255,212,182,167,160,158,154,151,151,150,150,150,146,143,130,110,98],"timestamp_mouse":[11,40,48,69,89,109,130,150,169,189,209,228,248,268,289,308,328,350,369,389,409,429,448,468,489,510,529,548,568,589,608,628,648,669,689,709,729,748,768,789,808,829,848,869],"xSR":741.5,"ySR":501.8,"xT1":424.9,"yT1":0,"xT2":1058.1,"yT2":0,"toosoon":0,"cond_shown":"Congruent","ratio_trial":300,"L_num":3,"L_den":12,"R_num":11,"R_den":20,"correct_side":2,"subjID":"Luna Cortes Davila 25","gender":"1","school":"4","age":"9 años "},{"start_time":1552073788640,"click_time":1552073790380,"finger_time":1552073789620,"fix_duration":258.80219296358786,"trial":46,"RT":980,"MT":760,"sideResp":1,"stimulus":[],"xmouse":[833,833,833,833,833,833,833,833,833,833,833,833,833,833,833,833,833,833,833,833,833,833,833,833,833,833,833,833,833,833,833,833,833,833,833,833,833,833,833,833,833,833,833,833,833,833,833,833,837,842,882,869,831,801,781,774,743,731,723,722,722,722,722,722,722,728,778,778,778,778,778,778,778,778,778,778,778,778,778,778,778,778,778,778,778,778,778,492],"ymouse":[551,551,551,551,551,551,551,551,551,551,551,551,551,551,551,551,551,551,551,551,551,551,551,551,551,551,551,551,551,551,551,551,551,551,551,551,551,551,551,551,551,551,551,551,551,551,551,551,544,523,421,231,216,212,207,203,195,195,194,193,193,193,193,193,192,156,10,10,10,10,10,10,10,10,10,10,10,10,10,10,10,10,10,10,10,10,10,5],"timestamp_mouse":[9,34,41,61,80,100,120,140,162,181,200,220,240,261,281,302,321,340,361,381,400,420,441,460,480,501,522,541,560,580,602,621,640,660,682,702,721,740,761,781,801,821,840,860,880,901,920,942,961,980,1001,1020,1040,1060,1080,1102,1120,1141,1161,1182,1201,1220,1241,1260,1281,1301,1321,1341,1362,1382,1402,1420,1442,1462,1482,1500,1520,1541,1560,1581,1602,1621,1641,1661,1680,1702,1721,1740],"xSR":741.5,"ySR":501.8,"xT1":424.9,"yT1":0,"xT2":1058.1,"yT2":0,"toosoon":0,"cond_shown":"Congruent","ratio_trial":300,"L_num":9,"L_den":10,"R_num":3,"R_den":5,"correct_side":1,"subjID":"Luna Cortes Davila 25","gender":"1","school":"4","age":"9 años "},{"start_time":1552073792953,"click_time":1552073794582,"finger_time":1552073793982,"fix_duration":250,"trial":47,"RT":1029,"MT":600,"sideResp":1,"stimulus":[],"xmouse":[759,759,759,759,759,759,759,759,759,759,759,759,759,759,759,759,759,759,759,760,760,760,760,760,760,760,760,760,760,760,760,760,760,760,760,760,760,760,760,760,760,760,760,760,760,760,760,760,753,744,651,575,441,351,351,351,351,351,351,351,351,351,351,351,351,351,351,351,410,411,411,411,411,411,480,553,612,620,620,499,462],"ymouse":[531,531,531,531,531,531,531,531,531,531,531,531,531,531,531,531,531,531,531,531,531,531,531,531,531,531,531,531,531,531,531,531,531,531,531,531,531,531,531,531,531,531,531,531,531,531,531,531,529,520,393,287,115,15,15,15,15,15,15,15,15,15,15,15,15,15,15,15,1,4,4,4,6,19,134,190,213,216,216,128,97],"timestamp_mouse":[29,48,68,87,108,127,149,168,189,207,228,249,267,287,309,328,347,369,388,408,427,449,468,488,508,527,549,569,587,607,628,647,668,689,708,729,748,768,788,808,827,847,869,889,907,927,948,968,989,1007,1029,1047,1068,1088,1107,1128,1148,1168,1188,1208,1229,1248,1269,1288,1307,1328,1347,1368,1387,1408,1427,1448,1468,1489,1509,1527,1548,1567,1587,1607,1628],"xSR":741.5,"ySR":501.8,"xT1":424.9,"yT1":0,"xT2":1058.1,"yT2":0,"toosoon":0,"cond_shown":"Incongruent","ratio_trial":200,"L_num":7,"L_den":10,"R_num":12,"R_den":24,"correct_side":1,"subjID":"Luna Cortes Davila 25","gender":"1","school":"4","age":"9 años "},{"start_time":1552073797559,"click_time":1552073798681,"finger_time":1552073798361,"fix_duration":755.2987471951535,"trial":48,"RT":802,"MT":320,"sideResp":2,"stimulus":[],"xmouse":[783,783,783,783,783,783,783,783,783,783,783,783,783,783,783,783,783,783,783,783,783,783,783,783,783,782,782,782,782,782,782,782,782,782,782,782,784,796,813,834,847,857,857,857,857,857,864,871,877,889,905,955,1002,1060,1097,1125,1152],"ymouse":[542,542,542,542,542,542,542,542,542,542,542,542,542,542,542,542,542,542,542,542,542,542,542,542,544,544,544,544,544,544,544,544,544,544,544,544,544,544,542,539,537,536,536,536,536,536,515,479,436,375,329,263,207,151,123,104,83],"timestamp_mouse":[9,36,41,62,83,102,122,141,161,182,202,222,242,261,282,303,323,342,362,383,402,423,442,461,481,502,523,541,561,581,601,621,641,662,683,701,721,742,761,781,802,821,842,861,882,902,922,941,962,982,1002,1021,1042,1062,1081,1101,1122],"xSR":741.5,"ySR":501.8,"xT1":424.9,"yT1":0,"xT2":1058.1,"yT2":0,"toosoon":0,"cond_shown":"Congruent","ratio_trial":200,"L_num":6,"L_den":20,"R_num":11,"R_den":22,"correct_side":2,"subjID":"Luna Cortes Davila 25","gender":"1","school":"4","age":"9 años "},{"start_time":1552073800326,"click_time":1552073801381,"finger_time":1552073801220,"fix_duration":344.94221237369584,"trial":49,"RT":894,"MT":161,"sideResp":2,"stimulus":[],"xmouse":[788,788,788,788,788,788,788,788,788,788,788,788,788,788,788,788,788,787,784,782,779,777,777,777,777,777,777,777,777,777,777,777,777,777,777,777,776,777,780,783,785,789,801,817,844,883,935,997,1010,1024,1035,1048,1075],"ymouse":[562,562,562,562,562,562,562,562,562,562,562,562,562,562,562,562,562,563,558,554,550,550,550,550,550,550,550,550,550,550,550,550,550,550,550,550,549,549,549,547,547,546,543,533,513,467,374,211,167,116,96,80,59],"timestamp_mouse":[15,35,55,76,94,115,135,154,175,194,215,234,254,275,296,316,335,355,376,395,415,435,454,475,496,514,536,554,574,594,616,635,656,674,695,715,734,755,775,795,814,834,855,875,894,914,934,955,975,994,1014,1035,1054],"xSR":741.5,"ySR":501.8,"xT1":424.9,"yT1":0,"xT2":1058.1,"yT2":0,"toosoon":0,"cond_shown":"Congruent","ratio_trial":200,"L_num":7,"L_den":21,"R_num":2,"R_den":15,"correct_side":1,"subjID":"Luna Cortes Davila 25","gender":"1","school":"4","age":"9 años "},{"start_time":1552073804656,"click_time":1552073809801,"finger_time":1552073808200,"fix_duration":892.9149149335718,"trial":50,"RT":3544,"MT":1601,"sideResp":2,"stimulus":[],"xmouse":[782,782,782,782,782,782,782,782,782,782,782,782,782,782,782,782,782,782,782,782,782,782,782,782,782,782,782,782,782,782,782,782,782,782,782,782,782,782,782,782,782,782,782,782,782,782,782,782,782,782,782,782,782,782,782,782,782,782,782,782,782,782,782,782,782,782,782,782,782,782,782,782,782,782,782,782,782,782,782,782,782,782,782,782,782,782,782,782,782,782,782,782,782,782,782,782,782,782,782,782,782,782,782,782,782,782,782,782,782,782,782,782,782,782,782,782,782,782,782,782,782,782,782,782,782,782,782,782,782,782,782,782,782,782,782,782,782,782,782,782,782,782,782,782,782,782,782,782,782,782,782,782,782,782,782,782,782,782,782,782,782,782,782,782,782,782,782,782,782,782,782,782,782,782,782,782,802,848,921,978,994,994,994,994,994,994,994,994,982,932,873,825,808,808,808,808,808,808,808,808,808,807,799,799,799,799,799,799,798,798,802,805,828,835,841,845,845,845,845,845,845,843,825,825,825,825,825,845,880,924,957,997,1034,1043,1048,1051,1052,1054,1059,1064,1066,1067,1067,1071,1084,1100,1110,1113,1114,1114,1116,1117,1117,1117,1117,1118,1119,1119],"ymouse":[585,585,585,585,585,585,585,585,585,585,585,585,585,585,585,585,585,585,585,585,585,585,585,585,585,585,585,585,585,585,585,585,585,585,585,585,585,585,585,585,585,585,585,585,585,585,585,585,585,585,585,585,585,585,585,585,585,585,585,585,585,585,585,585,585,585,585,585,585,585,585,585,585,585,585,585,585,585,585,585,585,585,585,585,585,585,585,585,585,585,585,585,585,585,585,585,585,585,585,585,585,585,585,585,585,585,585,585,585,585,585,585,585,585,585,585,585,585,585,585,585,585,585,585,585,585,585,585,585,585,585,585,585,585,585,585,585,585,585,585,585,585,585,585,585,585,585,585,585,585,585,585,585,585,585,585,585,585,585,585,585,585,585,585,585,585,585,585,585,585,585,585,585,585,584,584,584,584,561,538,530,530,530,530,530,530,530,530,533,547,558,564,569,569,569,569,569,569,569,569,569,569,572,572,572,572,572,572,572,573,590,599,648,663,676,683,684,684,684,683,674,621,545,507,469,440,419,376,344,314,292,254,198,181,169,162,159,153,145,133,124,119,119,115,112,110,108,108,108,108,108,108,108,108,108,107,101,89],"timestamp_mouse":[10,25,45,65,84,105,126,145,165,184,205,225,244,266,286,306,325,345,365,385,404,425,446,465,485,504,525,545,565,584,604,624,645,665,685,706,726,745,765,786,805,825,846,864,884,904,925,946,965,986,1005,1025,1045,1066,1084,1105,1125,1145,1165,1186,1204,1225,1246,1264,1284,1306,1324,1345,1366,1384,1405,1426,1446,1465,1484,1506,1526,1545,1566,1586,1604,1625,1646,1665,1686,1704,1725,1744,1766,1786,1805,1826,1844,1865,1885,1906,1925,1946,1966,1985,2005,2025,2045,2066,2084,2105,2124,2146,2165,2185,2205,2226,2245,2265,2284,2305,2326,2344,2365,2385,2404,2425,2444,2465,2484,2506,2525,2545,2565,2586,2606,2624,2646,2666,2686,2705,2725,2744,2765,2786,2806,2826,2844,2864,2885,2906,2925,2946,2965,2984,3005,3026,3045,3065,3086,3104,3124,3146,3164,3185,3205,3225,3246,3264,3286,3305,3325,3345,3366,3384,3405,3425,3444,3464,3486,3505,3526,3544,3565,3585,3606,3624,3644,3664,3686,3705,3725,3744,3765,3784,3804,3826,3844,3865,3886,3905,3925,3944,3966,3986,4004,4024,4045,4066,4085,4104,4125,4144,4165,4185,4205,4224,4245,4265,4285,4304,4324,4345,4365,4385,4404,4425,4444,4465,4485,4505,4526,4544,4564,4585,4605,4625,4644,4664,4685,4705,4725,4744,4764,4786,4805,4824,4844,4865,4884,4905,4924,4945,4966,4985,5006,5025,5045,5065,5084,5105,5124,5145],"xSR":741.5,"ySR":501.8,"xT1":424.9,"yT1":0,"xT2":1058.1,"yT2":0,"toosoon":0,"cond_shown":"Congruent","ratio_trial":100,"L_num":4,"L_den":8,"R_num":6,"R_den":10,"correct_side":2,"subjID":"Luna Cortes Davila 25","gender":"1","school":"4","age":"9 años "},{"start_time":1552073814464,"click_time":1552073816360,"finger_time":1552073816021,"fix_duration":743.7592540515141,"trial":51,"RT":1557,"MT":339,"sideResp":2,"stimulus":[],"xmouse":[775,778,778,778,778,778,778,778,778,778,778,778,778,778,778,778,778,778,778,778,778,778,778,778,778,778,778,778,778,778,778,778,778,778,778,778,778,778,778,778,778,778,778,778,778,778,778,778,778,778,778,778,778,778,778,778,778,778,778,778,778,778,778,778,778,778,778,778,778,778,778,778,778,778,778,780,794,966,1019,1044,1052,1052,1054,1054,1054,1054,1054,1054,1054,1054,1054,1054,1054,1054,1102],"ymouse":[558,548,535,535,535,535,535,535,535,535,535,535,535,535,535,535,535,535,535,535,535,535,535,535,535,535,535,535,535,535,535,535,535,535,535,535,535,535,535,535,535,535,535,535,535,535,535,535,535,535,535,535,535,535,535,535,535,535,535,535,535,535,535,535,535,535,535,535,535,535,535,535,535,535,535,534,529,383,302,236,173,105,10,10,10,10,10,10,10,10,10,10,10,10,6],"timestamp_mouse":[17,38,58,77,96,117,138,156,176,197,218,237,256,277,298,316,337,358,378,398,417,438,458,477,497,517,537,557,577,596,618,636,657,678,698,716,738,757,777,797,818,838,857,878,897,916,936,957,977,997,1017,1037,1057,1076,1097,1117,1136,1158,1177,1196,1218,1238,1256,1276,1296,1318,1338,1357,1377,1397,1416,1437,1457,1478,1498,1516,1537,1557,1577,1597,1616,1636,1656,1676,1697,1717,1737,1757,1777,1797,1816,1836,1857,1877,1896],"xSR":741.5,"ySR":501.8,"xT1":424.9,"yT1":0,"xT2":1058.1,"yT2":0,"toosoon":0,"cond_shown":"Congruent","ratio_trial":100,"L_num":1,"L_den":2,"R_num":3,"R_den":5,"correct_side":2,"subjID":"Luna Cortes Davila 25","gender":"1","school":"4","age":"9 años "},{"start_time":1552073818911,"click_time":1552073821201,"finger_time":1552073820561,"fix_duration":1308.1352407025952,"trial":52,"RT":1650,"MT":640,"sideResp":2,"stimulus":[],"xmouse":[788,788,788,788,788,788,788,788,788,788,788,788,788,788,788,788,788,788,788,788,788,788,788,788,788,788,788,788,788,788,788,788,788,788,788,788,788,788,788,788,788,788,788,788,788,788,788,788,788,788,788,788,788,788,788,788,788,788,788,788,788,788,788,788,788,788,788,788,788,788,788,788,788,788,788,788,788,788,788,785,770,763,758,758,758,758,758,758,758,759,767,777,793,801,807,829,845,862,878,888,899,932,1001,1049,1081,1100,1100,1100,1100,1103,1116,1125,1126,1126,1125],"ymouse":[553,553,553,553,553,553,553,553,553,553,553,553,553,553,553,553,553,553,553,553,553,553,553,553,553,553,553,553,553,553,553,553,553,553,553,553,553,553,553,553,553,553,553,553,553,553,553,553,553,553,553,553,553,553,553,553,553,553,553,553,553,553,553,553,553,553,553,553,553,553,553,553,553,553,553,553,553,554,552,545,521,509,498,498,498,498,498,498,498,498,498,498,498,498,495,476,456,431,404,381,357,296,216,180,163,152,152,152,152,151,140,124,111,102,97],"timestamp_mouse":[11,39,50,70,91,111,130,151,169,189,211,230,250,269,290,311,330,350,370,391,410,430,450,470,490,511,530,550,571,591,609,631,650,671,689,709,730,750,771,789,809,829,850,869,890,910,930,951,971,990,1010,1031,1051,1070,1089,1109,1129,1151,1171,1190,1209,1229,1250,1270,1290,1309,1331,1349,1371,1391,1409,1430,1450,1470,1489,1509,1530,1551,1570,1589,1609,1629,1650,1670,1689,1709,1731,1751,1769,1789,1810,1829,1850,1871,1891,1909,1930,1949,1969,1989,2010,2031,2049,2069,2089,2109,2131,2151,2170,2190,2211,2229,2250,2271,2290],"xSR":741.5,"ySR":501.8,"xT1":424.9,"yT1":0,"xT2":1058.1,"yT2":0,"toosoon":0,"cond_shown":"Congruent","ratio_trial":100,"L_num":9,"L_den":15,"R_num":8,"R_den":16,"correct_side":1,"subjID":"Luna Cortes Davila 25","gender":"1","school":"4","age":"9 años "},{"start_time":1552073822946,"click_time":1552073824641,"finger_time":1552073824361,"fix_duration":602.9959520865505,"trial":53,"RT":1415,"MT":280,"sideResp":2,"stimulus":[],"xmouse":[795,795,795,795,795,795,795,795,795,795,795,795,795,795,795,795,795,795,795,795,795,795,795,795,795,795,795,795,795,795,795,795,795,795,795,795,795,795,795,795,795,795,795,795,795,795,795,795,795,795,795,795,795,795,795,795,795,795,795,795,795,795,795,795,795,795,795,795,795,829,875,950,1005,1027,1036,1038,1048,1058,1081,1093,1099,1103,1104,1104,1103],"ymouse":[577,577,577,577,577,577,577,577,577,577,577,577,577,577,577,577,577,577,577,577,577,577,577,577,577,577,577,577,577,577,577,577,577,577,577,577,577,577,577,577,577,577,577,577,577,577,577,577,577,577,577,577,577,577,577,577,577,577,577,577,577,577,577,577,577,577,577,577,576,556,539,510,483,467,444,433,395,333,231,182,148,127,113,105,97],"timestamp_mouse":[15,38,54,74,95,114,134,156,175,195,214,236,254,275,295,315,336,355,374,395,414,434,454,475,496,515,536,556,576,595,615,635,655,676,695,714,734,756,774,795,816,834,854,875,894,916,934,955,975,995,1015,1035,1056,1075,1095,1114,1134,1156,1174,1196,1214,1236,1255,1274,1296,1314,1334,1355,1375,1396,1415,1435,1454,1475,1495,1514,1535,1555,1576,1594,1615,1635,1655,1675,1695],"xSR":741.5,"ySR":501.8,"xT1":424.9,"yT1":0,"xT2":1058.1,"yT2":0,"toosoon":0,"cond_shown":"Congruent","ratio_trial":300,"L_num":3,"L_den":12,"R_num":11,"R_den":20,"correct_side":2,"subjID":"Luna Cortes Davila 25","gender":"1","school":"4","age":"9 años "},{"start_time":1552073836032,"click_time":1552073837161,"finger_time":1552073836960,"fix_duration":250,"trial":54,"RT":928,"MT":201,"sideResp":2,"stimulus":[],"xmouse":[808,808,808,808,808,808,808,808,808,808,808,808,808,808,808,808,808,808,808,808,808,808,808,808,808,808,808,808,808,808,808,808,808,808,807,806,805,805,805,805,805,805,805,805,810,820,873,884,885,885,891,950,995,1028,1049,1058,1059],"ymouse":[510,510,510,510,510,510,510,510,510,510,510,510,510,510,510,510,510,510,510,510,510,510,510,510,510,510,510,510,510,510,510,510,510,511,513,514,515,515,515,515,515,515,515,516,511,503,447,422,399,367,340,221,144,106,91,85,84],"timestamp_mouse":[11,41,49,69,88,109,129,149,169,188,210,228,250,269,289,310,328,349,368,390,409,430,449,469,489,508,528,548,568,589,609,630,650,668,689,709,728,748,770,789,808,830,848,869,888,909,928,948,969,988,1008,1028,1048,1068,1089,1108,1128],"xSR":741.5,"ySR":501.8,"xT1":424.9,"yT1":0,"xT2":1058.1,"yT2":0,"toosoon":0,"cond_shown":"Congruent","ratio_trial":100,"L_num":9,"L_den":15,"R_num":8,"R_den":16,"correct_side":1,"subjID":"Luna Cortes Davila 25","gender":"1","school":"4","age":"9 años "},{"start_time":1552073838498,"click_time":1552073839581,"finger_time":1552073839441,"fix_duration":517.493996366068,"trial":55,"RT":943,"MT":140,"sideResp":2,"stimulus":[],"xmouse":[796,796,796,796,796,796,796,796,796,796,796,796,796,796,796,796,796,796,796,796,796,796,796,796,796,796,796,796,796,796,796,796,796,796,796,796,796,796,796,796,796,796,796,796,796,799,818,855,1012,1083,1124,1138,1139,1138,1129],"ymouse":[554,554,554,554,554,554,554,554,554,554,554,554,554,554,554,554,554,554,554,554,554,554,554,554,554,554,554,554,554,554,554,554,554,554,554,554,554,554,554,554,554,554,554,554,554,552,536,507,382,297,225,173,143,119,90],"timestamp_mouse":[11,31,42,63,82,102,124,142,163,183,203,223,244,263,284,303,323,342,363,383,404,422,443,462,483,503,524,543,562,583,602,624,644,663,683,703,723,744,762,782,803,822,844,862,883,903,923,943,964,982,1002,1022,1043,1062,1082],"xSR":741.5,"ySR":501.8,"xT1":424.9,"yT1":0,"xT2":1058.1,"yT2":0,"toosoon":0,"cond_shown":"Congruent","ratio_trial":100,"L_num":7,"L_den":14,"R_num":9,"R_den":15,"correct_side":2,"subjID":"Luna Cortes Davila 25","gender":"1","school":"4","age":"9 años "},{"start_time":1552073842269,"click_time":1552073843361,"finger_time":1552073843001,"fix_duration":826.5400113878092,"trial":56,"RT":732,"MT":360,"sideResp":2,"stimulus":[],"xmouse":[792,792,792,792,792,792,792,792,792,792,792,792,792,792,792,792,792,792,792,792,792,792,792,792,792,792,792,792,792,792,792,792,792,792,793,826,847,872,894,911,938,947,956,964,977,980,981,982,987,994,1015,1034,1062,1067,1074],"ymouse":[568,568,568,568,568,568,568,568,568,568,568,568,568,568,568,568,568,568,568,568,568,568,568,568,568,568,568,568,568,568,568,568,568,568,567,530,513,486,437,367,239,209,192,182,172,169,167,159,149,140,128,119,104,102,98],"timestamp_mouse":[12,41,51,71,92,113,132,151,173,192,212,233,253,271,292,311,331,351,372,391,411,432,452,472,493,512,532,551,573,591,612,632,652,671,692,711,732,752,773,792,811,831,853,873,892,912,932,952,972,991,1013,1032,1052,1072,1092],"xSR":741.5,"ySR":501.8,"xT1":424.9,"yT1":0,"xT2":1058.1,"yT2":0,"toosoon":0,"cond_shown":"Congruent","ratio_trial":300,"L_num":1,"L_den":5,"R_num":6,"R_den":12,"correct_side":2,"subjID":"Luna Cortes Davila 25","gender":"1","school":"4","age":"9 años "},{"start_time":1552073844513,"click_time":1552073845760,"finger_time":1552073845380,"fix_duration":250,"trial":57,"RT":867,"MT":380,"sideResp":2,"stimulus":[],"xmouse":[800,800,800,800,800,800,800,800,800,800,800,800,800,800,800,800,800,800,800,802,803,803,803,803,803,803,803,803,803,803,803,803,803,803,803,803,803,803,803,803,803,803,803,844,897,930,955,971,981,981,977,977,977,979,979,979,979,979,996,1015,1044,1055,1062],"ymouse":[566,566,566,566,566,566,566,566,566,566,566,566,566,566,566,566,566,566,566,563,562,562,562,562,562,562,562,562,562,562,562,562,562,562,562,562,562,562,562,562,562,562,560,527,495,465,427,378,327,175,150,142,140,138,138,138,138,137,134,129,115,104,89],"timestamp_mouse":[8,33,47,68,89,107,128,148,168,188,208,227,248,269,289,308,328,348,368,389,407,427,448,467,487,508,529,547,567,588,609,629,648,667,687,708,728,749,769,788,808,827,848,867,889,908,928,947,968,987,1008,1029,1048,1068,1089,1109,1128,1149,1168,1187,1208,1228,1247],"xSR":741.5,"ySR":501.8,"xT1":424.9,"yT1":0,"xT2":1058.1,"yT2":0,"toosoon":0,"cond_shown":"Incongruent","ratio_trial":100,"L_num":6,"L_den":10,"R_num":11,"R_den":22,"correct_side":1,"subjID":"Luna Cortes Davila 25","gender":"1","school":"4","age":"9 años "},{"start_time":1552073848533,"click_time":1552073849200,"finger_time":1552073848960,"fix_duration":1430.7238061832672,"trial":58,"RT":427,"MT":240,"sideResp":1,"stimulus":[],"xmouse":[796,796,796,796,796,796,796,796,796,796,796,796,796,796,796,796,795,794,789,781,768,752,740,689,659,621,585,545,526,514,502,492,485,473],"ymouse":[563,563,563,563,563,563,563,563,563,563,563,563,563,563,563,563,562,552,535,522,505,486,469,393,345,290,243,195,173,159,143,128,116,98],"timestamp_mouse":[9,34,49,68,89,108,128,147,169,189,208,228,248,269,289,309,328,348,368,388,408,427,447,468,487,509,529,548,568,587,608,629,647,667],"xSR":741.5,"ySR":501.8,"xT1":424.9,"yT1":0,"xT2":1058.1,"yT2":0,"toosoon":0,"cond_shown":"Incongruent","ratio_trial":200,"L_num":7,"L_den":10,"R_num":14,"R_den":28,"correct_side":1,"subjID":"Luna Cortes Davila 25","gender":"1","school":"4","age":"9 años "},{"start_time":1552073851223,"click_time":1552073852340,"finger_time":1552073851901,"fix_duration":380.2667383394253,"trial":59,"RT":678,"MT":439,"sideResp":2,"stimulus":[],"xmouse":[808,808,808,808,808,808,808,808,808,808,808,808,808,808,808,808,808,808,808,808,808,808,808,808,808,808,808,808,808,808,808,817,829,926,993,1056,1100,1116,1124,1130,1140,1151,1158,1165,1165,1164,1162,1162,1162,1162,1162,1162,1162,1162,1162,1157],"ymouse":[554,554,554,554,554,554,554,554,554,554,554,554,554,554,554,554,554,554,554,554,554,554,554,554,554,554,554,554,554,554,554,549,542,493,437,373,306,252,190,174,161,150,139,97,85,77,74,74,73,70,64,64,63,63,63,61],"timestamp_mouse":[17,37,59,78,98,117,138,158,179,199,218,238,257,278,298,318,338,358,377,397,419,438,457,479,498,517,537,557,577,597,617,638,658,678,697,717,737,758,778,797,818,838,858,878,898,917,939,959,977,998,1017,1038,1058,1077,1097,1117],"xSR":741.5,"ySR":501.8,"xT1":424.9,"yT1":0,"xT2":1058.1,"yT2":0,"toosoon":0,"cond_shown":"Incongruent","ratio_trial":300,"L_num":13,"L_den":26,"R_num":12,"R_den":