[{"start_time":1552074819276,"click_time":1552074820134,"finger_time":1552074819974,"fix_duration":737.3027408538826,"trial":0,"RT":698,"MT":160,"sideResp":2,"stimulus":"img/900/randomdotsizeEA/R/12_Ratio_900_L_18_R_20.png","xmouse":[789,789,789,789,789,789,789,789,789,789,789,789,789,789,789,789,789,789,789,789,789,789,789,789,789,789,789,789,789,789,789,789,789,789,789,820,862,930,1006,1071,1125,1165,1166,1157],"ymouse":[501,501,501,501,501,501,501,501,501,501,501,501,501,501,501,501,501,501,501,501,501,501,501,501,501,501,501,501,501,501,501,501,501,501,501,458,407,343,271,216,165,94,42,10],"timestamp_mouse":[8,27,37,57,78,98,118,138,159,178,198,218,238,258,278,298,317,339,359,379,398,418,438,459,477,498,518,538,557,579,598,619,638,657,677,698,717,738,757,778,799,818,838,857],"xSR":741.5,"ySR":469.95,"xT1":424.9,"yT1":0,"xT2":1058.1,"yT2":0,"toosoon":0,"cond_shown":"randomdotsizeEA","ratio_trial":900,"smaller_num":"18","larger_num":"20","correct_side":2,"subjID":"luna cortes davila 25","gender":"1","age":"9","school":"4","test":{"fix_dur":[250,1500],"timestim":300,"targets_dim":[100,100],"targets_relative_coord":[0.3,0.7],"size_stim":[880,420],"start_dim":[100,100],"size_start":[300,300],"size_fix":60,"samplingrate":20,"img_types":["equaldotsize","equaldotanddens","randomdotsizeEA"],"ratios":[250,500,750,900],"rep_conds":9,"nTrials":120,"trials_to_rest":500,"Trials_order":[47,8,15,34,119,32,22,50,79,115,71,89,76,101,100,106,108,29,96,83,86,72,74,39,6,45,97,105,46,2,112,48,7,41,92,113,19,42,85,35,103,69,49,36,3,111,38,70,14,9,78,116,102,43,52,30,10,80,67,87,118,44,65,93,64,37,98,11,0,24,81,13,53,110,84,17,5,56,59,68,25,94,28,40,58,21,62,107,31,51,57,117,66,20,73,82,77,88,91,1,61,18,54,27,16,63,104,60,75,90,4,23,99,114,26,95,12,55,33,109],"cond_shown":["randomdotsizeEA","randomdotsizeEA","equaldotsize","equaldotanddens","randomdotsizeEA","randomdotsizeEA","equaldotanddens","randomdotsizeEA","equaldotanddens","equaldotanddens","randomdotsizeEA","randomdotsizeEA","equaldotanddens","randomdotsizeEA","equaldotanddens","equaldotanddens","equaldotsize","randomdotsizeEA","equaldotsize","randomdotsizeEA","randomdotsizeEA","equaldotsize","randomdotsizeEA","equaldotsize","equaldotsize","equaldotsize","equaldotanddens","equaldotsize","equaldotanddens","randomdotsizeEA","equaldotanddens","equaldotsize","equaldotanddens","randomdotsizeEA","randomdotsizeEA","randomdotsizeEA","equaldotanddens","equaldotsize","equaldotanddens","randomdotsizeEA","equaldotanddens","equaldotsize","equaldotanddens","equaldotsize","equaldotsize","equaldotsize","randomdotsizeEA","equaldotanddens","randomdotsizeEA","equaldotsize","equaldotsize","randomdotsizeEA","equaldotsize","equaldotanddens","equaldotanddens","equaldotsize","equaldotanddens","randomdotsizeEA","equaldotanddens","equaldotsize","equaldotanddens","randomdotsizeEA","randomdotsizeEA","equaldotsize","equaldotanddens","equaldotanddens","randomdotsizeEA","randomdotsizeEA","equaldotsize","equaldotsize","equaldotsize","equaldotanddens","randomdotsizeEA","randomdotsizeEA","equaldotsize","randomdotsizeEA","randomdotsizeEA","randomdotsizeEA","randomdotsizeEA","randomdotsizeEA","equaldotanddens","equaldotanddens","equaldotanddens","equaldotanddens","equaldotanddens","equaldotsize","randomdotsizeEA","randomdotsizeEA","equaldotanddens","equaldotsize","equaldotsize","equaldotsize","equaldotsize","randomdotsizeEA","equaldotanddens","equaldotanddens","randomdotsizeEA","equaldotanddens","equaldotanddens","equaldotanddens","equaldotanddens","equaldotsize","equaldotsize","equaldotsize","equaldotanddens","equaldotsize","randomdotsizeEA","equaldotsize","equaldotsize","equaldotsize","equaldotanddens","randomdotsizeEA","equaldotsize","equaldotsize","randomdotsizeEA","randomdotsizeEA","equaldotsize","equaldotanddens","equaldotsize","equaldotanddens"],"ratio_trial":[900,750,500,900,900,750,900,250,750,750,900,500,500,500,500,900,250,500,250,900,250,250,250,500,750,900,250,900,900,250,500,250,750,500,750,500,750,750,250,900,750,900,250,250,500,500,250,900,250,900,750,750,750,750,500,750,900,750,750,500,900,750,500,900,500,250,250,900,250,250,900,250,500,250,250,500,500,750,900,750,250,900,500,500,900,900,250,900,750,500,900,900,750,750,250,900,500,500,750,250,250,750,750,500,500,500,750,250,500,750,500,900,500,750,250,900,250,750,900,250],"smaller_num":["18","6","3","18","9","18","9","3","15","6","18","4","4","5","2","9","3","5","3","9","6","2","3","6","15","9","1","18","9","2","2","2","18","1","9","6","3","3","5","9","15","18","2","2","10","3","2","9","4","18","15","15","3","3","1","6","18","3","3","2","18","18","5","9","2","2","6","9","2","2","9","3","6","2","6","5","5","15","18","15","3","9","2","2","18","18","3","9","9","1","18","9","18","3","2","18","2","5","6","3","4","3","15","2","1","4","3","3","6","3","2","18","10","6","6","18","4","3","9","2"],"larger_num":["20","8","6","20","10","24","10","12","20","8","20","8","8","10","4","10","12","10","12","10","24","8","12","12","20","10","4","20","10","8","4","8","24","2","12","12","4","4","20","10","20","20","8","8","20","6","8","10","16","20","20","20","4","4","2","8","20","4","4","4","20","24","10","10","4","8","24","10","8","8","10","12","12","8","24","10","10","20","20","20","12","10","4","4","20","20","12","10","12","2","20","10","24","4","8","20","4","10","8","12","16","4","20","4","2","8","4","12","12","4","4","20","20","8","24","20","16","4","10","8"],"correct_side":[2,1,2,1,1,1,1,2,2,1,1,1,1,2,1,1,1,2,1,2,1,1,1,1,2,2,2,1,1,1,1,1,1,2,2,1,1,1,2,2,1,1,1,1,2,2,1,2,1,2,2,2,2,1,2,1,2,2,1,1,1,1,2,2,1,1,2,2,1,1,2,2,1,1,2,2,1,1,1,2,1,1,2,2,1,1,1,2,2,2,1,2,1,1,1,1,1,2,2,1,2,2,2,1,2,1,1,2,1,1,1,1,2,1,1,2,2,1,2,2],"img_shown":["img/900/randomdotsizeEA/R/12_Ratio_900_L_18_R_20.png","img/750/randomdotsizeEA/L/14_Ratio_750_L_8_R_6.png","img/500/equaldotsize/R/2_Ratio_500_L_3_R_6.png","img/900/equaldotanddens/L/8_Ratio_900_L_20_R_18.png","img/900/randomdotsizeEA/L/1_Ratio_900_L_10_R_9.png","img/750/randomdotsizeEA/L/6_Ratio_750_L_24_R_18.png","img/900/equaldotanddens/L/1_Ratio_900_L_10_R_9.png","img/250/randomdotsizeEA/R/11_Ratio_250_L_3_R_12.png","img/750/equaldotanddens/R/4_Ratio_750_L_15_R_20.png","img/750/equaldotanddens/L/14_Ratio_750_L_8_R_6.png","img/900/randomdotsizeEA/L/2_Ratio_900_L_20_R_18.png","img/500/randomdotsizeEA/L/8_Ratio_500_L_8_R_4.png","img/500/equaldotanddens/L/8_Ratio_500_L_8_R_4.png","img/500/randomdotsizeEA/R/14_Ratio_500_L_5_R_10.png","img/500/equaldotanddens/L/5_Ratio_500_L_4_R_2.png","img/900/equaldotanddens/L/1_Ratio_900_L_10_R_9.png","img/250/equaldotsize/L/14_Ratio_250_L_12_R_3.png","img/500/randomdotsizeEA/R/14_Ratio_500_L_5_R_10.png","img/250/equaldotsize/L/15_Ratio_250_L_12_R_3.png","img/900/randomdotsizeEA/R/6_Ratio_900_L_9_R_10.png","img/250/randomdotsizeEA/L/5_Ratio_250_L_24_R_6.png","img/250/equaldotsize/L/3_Ratio_250_L_8_R_2.png","img/250/randomdotsizeEA/L/15_Ratio_250_L_12_R_3.png","img/500/equaldotsize/L/13_Ratio_500_L_12_R_6.png","img/750/equaldotsize/R/3_Ratio_750_L_15_R_20.png","img/900/equaldotsize/R/5_Ratio_900_L_9_R_10.png","img/250/equaldotanddens/R/8_Ratio_250_L_1_R_4.png","img/900/equaldotsize/L/4_Ratio_900_L_20_R_18.png","img/900/equaldotanddens/L/1_Ratio_900_L_10_R_9.png","img/250/randomdotsizeEA/L/3_Ratio_250_L_8_R_2.png","img/500/equaldotanddens/L/5_Ratio_500_L_4_R_2.png","img/250/equaldotsize/L/7_Ratio_250_L_8_R_2.png","img/750/equaldotanddens/L/6_Ratio_750_L_24_R_18.png","img/500/randomdotsizeEA/R/12_Ratio_500_L_1_R_2.png","img/750/randomdotsizeEA/R/15_Ratio_750_L_9_R_12.png","img/500/randomdotsizeEA/L/13_Ratio_500_L_12_R_6.png","img/750/equaldotanddens/L/8_Ratio_750_L_4_R_3.png","img/750/equaldotsize/L/9_Ratio_750_L_4_R_3.png","img/250/equaldotanddens/R/12_Ratio_250_L_5_R_20.png","img/900/randomdotsizeEA/R/6_Ratio_900_L_9_R_10.png","img/750/equaldotanddens/L/1_Ratio_750_L_20_R_15.png","img/900/equaldotsize/L/2_Ratio_900_L_20_R_18.png","img/250/equaldotanddens/L/1_Ratio_250_L_8_R_2.png","img/250/equaldotsize/L/1_Ratio_250_L_8_R_2.png","img/500/equaldotsize/R/3_Ratio_500_L_10_R_20.png","img/500/equaldotsize/R/2_Ratio_500_L_3_R_6.png","img/250/randomdotsizeEA/L/3_Ratio_250_L_8_R_2.png","img/900/equaldotanddens/R/15_Ratio_900_L_9_R_10.png","img/250/randomdotsizeEA/L/2_Ratio_250_L_16_R_4.png","img/900/equaldotsize/R/11_Ratio_900_L_18_R_20.png","img/750/equaldotsize/R/5_Ratio_750_L_15_R_20.png","img/750/randomdotsizeEA/R/3_Ratio_750_L_15_R_20.png","img/750/equaldotsize/R/12_Ratio_750_L_3_R_4.png","img/750/equaldotanddens/L/10_Ratio_750_L_4_R_3.png","img/500/equaldotanddens/R/15_Ratio_500_L_1_R_2.png","img/750/equaldotsize/L/14_Ratio_750_L_8_R_6.png","img/900/equaldotanddens/R/13_Ratio_900_L_18_R_20.png","img/750/randomdotsizeEA/R/7_Ratio_750_L_3_R_4.png","img/750/equaldotanddens/L/9_Ratio_750_L_4_R_3.png","img/500/equaldotsize/L/5_Ratio_500_L_4_R_2.png","img/900/equaldotanddens/L/2_Ratio_900_L_20_R_18.png","img/750/randomdotsizeEA/L/6_Ratio_750_L_24_R_18.png","img/500/randomdotsizeEA/R/14_Ratio_500_L_5_R_10.png","img/900/equaldotsize/R/5_Ratio_900_L_9_R_10.png","img/500/equaldotanddens/L/5_Ratio_500_L_4_R_2.png","img/250/equaldotanddens/L/1_Ratio_250_L_8_R_2.png","img/250/randomdotsizeEA/R/6_Ratio_250_L_6_R_24.png","img/900/randomdotsizeEA/R/5_Ratio_900_L_9_R_10.png","img/250/equaldotsize/L/3_Ratio_250_L_8_R_2.png","img/250/equaldotsize/L/1_Ratio_250_L_8_R_2.png","img/900/equaldotsize/R/7_Ratio_900_L_9_R_10.png","img/250/equaldotanddens/R/9_Ratio_250_L_3_R_12.png","img/500/randomdotsizeEA/L/11_Ratio_500_L_12_R_6.png","img/250/randomdotsizeEA/L/3_Ratio_250_L_8_R_2.png","img/250/equaldotsize/R/6_Ratio_250_L_6_R_24.png","img/500/randomdotsizeEA/R/14_Ratio_500_L_5_R_10.png","img/500/randomdotsizeEA/L/7_Ratio_500_L_10_R_5.png","img/750/randomdotsizeEA/L/1_Ratio_750_L_20_R_15.png","img/900/randomdotsizeEA/L/4_Ratio_900_L_20_R_18.png","img/750/randomdotsizeEA/R/5_Ratio_750_L_15_R_20.png","img/250/equaldotanddens/L/15_Ratio_250_L_12_R_3.png","img/900/equaldotanddens/L/1_Ratio_900_L_10_R_9.png","img/500/equaldotanddens/R/9_Ratio_500_L_2_R_4.png","img/500/equaldotanddens/R/9_Ratio_500_L_2_R_4.png","img/900/equaldotanddens/L/8_Ratio_900_L_20_R_18.png","img/900/equaldotsize/L/2_Ratio_900_L_20_R_18.png","img/250/randomdotsizeEA/L/15_Ratio_250_L_12_R_3.png","img/900/randomdotsizeEA/R/7_Ratio_900_L_9_R_10.png","img/750/equaldotanddens/R/15_Ratio_750_L_9_R_12.png","img/500/equaldotsize/R/15_Ratio_500_L_1_R_2.png","img/900/equaldotsize/L/4_Ratio_900_L_20_R_18.png","img/900/equaldotsize/R/5_Ratio_900_L_9_R_10.png","img/750/equaldotsize/L/6_Ratio_750_L_24_R_18.png","img/750/randomdotsizeEA/L/8_Ratio_750_L_4_R_3.png","img/250/equaldotanddens/L/1_Ratio_250_L_8_R_2.png","img/900/equaldotanddens/L/2_Ratio_900_L_20_R_18.png","img/500/randomdotsizeEA/L/5_Ratio_500_L_4_R_2.png","img/500/equaldotanddens/R/14_Ratio_500_L_5_R_10.png","img/750/equaldotanddens/R/2_Ratio_750_L_6_R_8.png","img/250/equaldotanddens/L/15_Ratio_250_L_12_R_3.png","img/250/equaldotanddens/R/10_Ratio_250_L_4_R_16.png","img/750/equaldotsize/R/12_Ratio_750_L_3_R_4.png","img/750/equaldotsize/R/4_Ratio_750_L_15_R_20.png","img/500/equaldotsize/L/5_Ratio_500_L_4_R_2.png","img/500/equaldotanddens/R/15_Ratio_500_L_1_R_2.png","img/500/equaldotsize/L/8_Ratio_500_L_8_R_4.png","img/750/randomdotsizeEA/L/8_Ratio_750_L_4_R_3.png","img/250/equaldotsize/R/4_Ratio_250_L_3_R_12.png","img/500/equaldotsize/L/11_Ratio_500_L_12_R_6.png","img/750/equaldotsize/L/9_Ratio_750_L_4_R_3.png","img/500/equaldotanddens/L/5_Ratio_500_L_4_R_2.png","img/900/randomdotsizeEA/L/4_Ratio_900_L_20_R_18.png","img/500/equaldotsize/R/3_Ratio_500_L_10_R_20.png","img/750/equaldotsize/L/14_Ratio_750_L_8_R_6.png","img/250/randomdotsizeEA/L/5_Ratio_250_L_24_R_6.png","img/900/randomdotsizeEA/R/11_Ratio_900_L_18_R_20.png","img/250/equaldotsize/R/10_Ratio_250_L_4_R_16.png","img/750/equaldotanddens/L/8_Ratio_750_L_4_R_3.png","img/900/equaldotsize/R/3_Ratio_900_L_9_R_10.png","img/250/equaldotanddens/R/13_Ratio_250_L_2_R_8.png"],"Rat0":[["12_Ratio_0_L_9_R_0.png","13_Ratio_0_L_6_R_0.png","5_Ratio_0_L_2_R_0.png","6_Ratio_0_L_4_R_0.png","8_Ratio_0_L_6_R_0.png"],["1_Ratio_0_L_0_R_17.png","10_Ratio_0_L_0_R_22.png","11_Ratio_0_L_0_R_1.png","14_Ratio_0_L_0_R_24.png","15_Ratio_0_L_0_R_4.png","2_Ratio_0_L_0_R_5.png","3_Ratio_0_L_0_R_17.png","4_Ratio_0_L_0_R_7.png","7_Ratio_0_L_0_R_19.png","9_Ratio_0_L_0_R_15.png"]],"Rat250":[["1_Ratio_250_L_8_R_2.png","14_Ratio_250_L_12_R_3.png","15_Ratio_250_L_12_R_3.png","2_Ratio_250_L_16_R_4.png","3_Ratio_250_L_8_R_2.png","5_Ratio_250_L_24_R_6.png","7_Ratio_250_L_8_R_2.png"],["10_Ratio_250_L_4_R_16.png","11_Ratio_250_L_3_R_12.png","12_Ratio_250_L_5_R_20.png","13_Ratio_250_L_2_R_8.png","4_Ratio_250_L_3_R_12.png","6_Ratio_250_L_6_R_24.png","8_Ratio_250_L_1_R_4.png","9_Ratio_250_L_3_R_12.png"]],"Rat500":[["10_Ratio_500_L_4_R_2.png","11_Ratio_500_L_12_R_6.png","13_Ratio_500_L_12_R_6.png","4_Ratio_500_L_18_R_9.png","5_Ratio_500_L_4_R_2.png","7_Ratio_500_L_10_R_5.png","8_Ratio_500_L_8_R_4.png"],["1_Ratio_500_L_9_R_18.png","12_Ratio_500_L_1_R_2.png","14_Ratio_500_L_5_R_10.png","15_Ratio_500_L_1_R_2.png","2_Ratio_500_L_3_R_6.png","3_Ratio_500_L_10_R_20.png","6_Ratio_500_L_9_R_18.png","9_Ratio_500_L_2_R_4.png"]],"Rat750":[["1_Ratio_750_L_20_R_15.png","10_Ratio_750_L_4_R_3.png","13_Ratio_750_L_8_R_6.png","14_Ratio_750_L_8_R_6.png","6_Ratio_750_L_24_R_18.png","8_Ratio_750_L_4_R_3.png","9_Ratio_750_L_4_R_3.png"],["11_Ratio_750_L_12_R_16.png","12_Ratio_750_L_3_R_4.png","15_Ratio_750_L_9_R_12.png","2_Ratio_750_L_6_R_8.png","3_Ratio_750_L_15_R_20.png","4_Ratio_750_L_15_R_20.png","5_Ratio_750_L_15_R_20.png","7_Ratio_750_L_3_R_4.png"]],"Rat900":[["1_Ratio_900_L_10_R_9.png","10_Ratio_900_L_20_R_18.png","2_Ratio_900_L_20_R_18.png","4_Ratio_900_L_20_R_18.png","8_Ratio_900_L_20_R_18.png"],["11_Ratio_900_L_18_R_20.png","12_Ratio_900_L_18_R_20.png","13_Ratio_900_L_18_R_20.png","14_Ratio_900_L_18_R_20.png","15_Ratio_900_L_9_R_10.png","3_Ratio_900_L_9_R_10.png","5_Ratio_900_L_9_R_10.png","6_Ratio_900_L_9_R_10.png","7_Ratio_900_L_9_R_10.png","9_Ratio_900_L_18_R_20.png"]],"Rat1000":[["10_Ratio_1000_L_16_R_16.png","11_Ratio_1000_L_6_R_6.png","12_Ratio_1000_L_14_R_14.png","13_Ratio_1000_L_20_R_20.png","15_Ratio_1000_L_15_R_15.png","2_Ratio_1000_L_17_R_17.png","4_Ratio_1000_L_9_R_9.png","5_Ratio_1000_L_6_R_6.png","6_Ratio_1000_L_19_R_19.png","8_Ratio_1000_L_14_R_14.png","9_Ratio_1000_L_25_R_25.png"],["1_Ratio_1000_L_1_R_1.png","14_Ratio_1000_L_17_R_17.png","3_Ratio_1000_L_17_R_17.png","7_Ratio_1000_L_6_R_6.png"]]}},{"start_time":1552074823501,"click_time":1552074831174,"finger_time":1552074824593,"fix_duration":1106.8280150338278,"trial":1,"RT":1092,"MT":6581,"sideResp":2,"stimulus":"img/750/randomdotsizeEA/L/14_Ratio_750_L_8_R_6.png","xmouse":[804,804,804,804,804,804,804,804,804,804,804,804,804,804,804,804,804,804,804,804,804,804,804,804,804,804,804,804,804,804,804,804,804,804,804,804,804,804,804,804,804,804,804,804,804,804,804,804,804,804,804,800,786,762,688,644,604,540,508,458,439,425,415,407,399,398,398,398,398,398,398,398,398,398,398,398,398,398,398,398,398,398,398,398,398,398,398,398,398,398,398,398,398,398,398,398,398,398,398,398,398,398,398,398,398,398,398,398,398,398,398,398,398,398,398,398,398,398,398,398,398,398,398,398,398,398,398,398,398,398,398,398,398,398,398,398,398,398,398,398,398,398,398,398,398,398,398,398,398,398,398,398,398,398,398,398,398,398,398,398,398,398,398,398,398,398,398,398,398,398,399,417,484,576,755,816,823,831,832,835,835,837,837,838,840,836,827,827,827,827,827,827,828,828,828,828,828,829,835,842,851,851,851,851,851,851,851,851,851,851,851,851,840,829,821,817,817,817,817,817,817,817,817,817,817,817,817,817,817,817,817,817,817,817,817,817,817,817,817,817,817,817,817,817,817,817,817,817,817,817,817,817,817,817,817,817,817,817,817,817,817,817,817,817,817,813,807,803,800,798,796,795,795,792,791,790,790,790,790,790,790,790,790,790,790,790,790,790,790,792,815,849,889,923,959,959,959,959,959,959,959,959,959,959,959,965,950,925,897,867,805,792,789,788,788,788,788,787,785,782,782,782,782,782,782,782,782,782,782,782,782,782,782,782,782,782,782,782,781,782,785,788,792,795,798,799,799,799,799,799,799,799,799,799,799,799,799,799,799,799,799,799,799,799,799,799,799,799,799,800,807,826,862,904,972,1010,1012,1012,1012,1014,1032,1046,1060,1071],"ymouse":[557,557,557,557,557,557,557,557,557,557,557,557,557,557,557,557,557,557,557,557,557,557,557,557,557,557,557,557,557,557,557,557,557,557,557,557,557,557,557,557,557,557,557,557,557,557,557,557,557,557,557,555,551,544,522,507,493,469,456,436,429,423,419,417,414,414,414,414,414,414,414,414,414,414,414,414,414,414,414,414,414,414,414,414,414,414,414,414,414,414,414,414,414,414,414,414,414,414,414,414,414,414,414,414,414,414,414,414,414,414,414,414,414,414,414,414,414,414,414,414,414,414,414,414,414,414,414,414,414,414,414,414,414,414,414,414,414,414,414,414,414,414,414,414,414,414,414,414,414,414,414,414,414,414,414,414,414,414,414,414,414,414,414,414,414,414,414,414,414,414,410,390,339,294,280,311,321,358,386,445,461,467,470,472,485,493,502,502,502,502,502,502,502,502,502,502,502,503,512,521,530,531,531,531,531,531,531,531,531,531,531,531,530,525,522,519,519,519,519,519,519,519,519,519,519,519,519,519,519,519,519,518,518,518,518,518,518,518,518,518,518,518,518,518,518,518,518,518,518,518,518,518,518,518,518,518,518,518,518,518,518,518,518,518,518,518,520,520,521,521,522,522,522,524,526,531,535,537,538,538,538,538,538,538,538,538,538,538,538,541,563,599,647,687,722,722,722,722,722,722,722,722,722,722,722,703,676,638,592,559,517,510,510,510,510,510,510,510,510,510,510,510,510,510,510,510,510,510,510,510,510,510,510,510,510,510,510,510,510,510,510,510,510,510,510,510,510,510,510,510,510,510,510,510,510,510,510,510,510,510,510,510,510,510,510,510,510,510,510,510,508,502,481,439,336,230,200,180,165,153,128,115,103,95],"timestamp_mouse":[12,40,52,73,94,114,133,154,174,194,212,233,252,273,293,314,334,353,372,393,414,434,453,472,494,513,533,554,573,593,612,634,653,673,693,714,734,754,772,794,814,834,852,872,893,913,934,952,972,993,1014,1032,1053,1072,1092,1114,1133,1153,1172,1193,1212,1233,1253,1273,1293,1313,1333,1353,1372,1393,1413,1432,1453,1474,1493,1513,1533,1553,1573,1593,1613,1634,1653,1673,1693,1714,1733,1753,1773,1793,1812,1833,1853,1873,1893,1914,1932,1952,1973,1992,2012,2033,2052,2074,2093,2114,2134,2154,2174,2193,2213,2232,2253,2272,2293,2314,2334,2353,2373,2393,2413,2433,2453,2472,2493,2513,2533,2552,2574,2593,2613,2634,2653,2673,2692,2712,2732,2752,2773,2794,2814,2833,2853,2873,2894,2912,2932,2953,2973,2993,3013,3032,3052,3074,3093,3112,3133,3153,3172,3193,3213,3233,3253,3273,3292,3312,3334,3353,3374,3393,3413,3433,3453,3472,3492,3512,3533,3552,3572,3593,3612,3634,3654,3673,3693,3712,3733,3754,3773,3793,3813,3834,3852,3873,3893,3913,3933,3953,3973,3993,4013,4032,4053,4073,4093,4113,4133,4153,4172,4193,4213,4233,4254,4274,4293,4312,4332,4352,4374,4393,4413,4433,4453,4474,4493,4513,4534,4554,4572,4593,4613,4632,4654,4674,4693,4712,4733,4753,4774,4793,4814,4832,4854,4874,4893,4913,4932,4952,4974,4992,5012,5034,5053,5073,5093,5113,5134,5153,5173,5192,5214,5234,5253,5272,5293,5313,5333,5353,5372,5393,5413,5434,5453,5473,5494,5514,5532,5554,5574,5593,5612,5633,5653,5673,5692,5713,5734,5753,5773,5792,5813,5833,5853,5872,5899,5913,5932,5953,5973,5993,6012,6032,6053,6073,6093,6113,6133,6153,6172,6192,6212,6233,6253,6272,6293,6313,6333,6353,6373,6394,6413,6434,6454,6472,6493,6514,6533,6553,6572,6594,6612,6634,6653,6674,6692,6714,6734,6753,6773,6794,6813,6833,6853,6872,6894,6913,6934,6953,6973,6993,7014,7033,7054,7072,7093,7114,7133,7154,7174,7192,7214,7234,7254,7273,7294,7313,7333,7353,7373,7394,7413,7433,7453,7474,7493,7513,7534,7552,7573,7592,7613,7633,7654,7673],"xSR":741.5,"ySR":469.95,"xT1":424.9,"yT1":0,"xT2":1058.1,"yT2":0,"toosoon":0,"cond_shown":"randomdotsizeEA","ratio_trial":750,"smaller_num":"6","larger_num":"8","correct_side":1,"subjID":"luna cortes davila 25","gender":"1","age":"9","school":"4"},{"start_time":1552074833109,"click_time":1552074833914,"finger_time":1552074833494,"fix_duration":1032.8724077456159,"trial":2,"RT":385,"MT":420,"sideResp":1,"stimulus":"img/500/equaldotsize/R/2_Ratio_500_L_3_R_6.png","xmouse":[790,790,790,790,790,790,790,790,790,790,790,790,790,790,790,787,775,761,747,735,722,717,710,690,668,619,597,584,574,562,537,526,518,517,517,517,516,513,508,502,489],"ymouse":[535,535,535,535,535,535,535,535,535,535,535,535,535,535,535,530,512,496,479,466,451,444,431,394,359,279,239,209,186,168,133,123,117,116,116,116,116,112,107,102,92],"timestamp_mouse":[10,25,45,65,85,106,126,145,164,184,205,226,245,266,285,305,325,346,365,385,405,425,446,465,486,505,524,544,565,586,605,625,645,666,686,706,724,744,764,785,805],"xSR":741.5,"ySR":469.95,"xT1":424.9,"yT1":0,"xT2":1058.1,"yT2":0,"toosoon":0,"cond_shown":"equaldotsize","ratio_trial":500,"smaller_num":"3","larger_num":"6","correct_side":2,"subjID":"luna cortes davila 25","gender":"1","age":"9","school":"4"},{"start_time":1552074835745,"click_time":1552074836494,"finger_time":1552074836193,"fix_duration":769.0874151042341,"trial":3,"RT":448,"MT":301,"sideResp":2,"stimulus":"img/900/equaldotanddens/L/8_Ratio_900_L_20_R_18.png","xmouse":[777,777,777,777,777,777,777,777,777,777,777,777,777,777,777,777,777,777,777,777,787,804,830,853,886,896,900,903,926,949,1001,1027,1039,1045,1045,1052,1058,1063],"ymouse":[505,505,505,505,505,505,505,505,505,505,505,505,505,505,505,505,505,505,505,505,490,470,429,373,251,209,180,153,99,68,31,21,20,19,19,24,33,37],"timestamp_mouse":[8,34,50,68,88,110,130,148,168,190,210,229,249,270,289,309,330,349,368,389,409,430,448,468,488,509,529,549,570,588,609,629,650,669,688,708,729,749],"xSR":741.5,"ySR":469.95,"xT1":424.9,"yT1":0,"xT2":1058.1,"yT2":0,"toosoon":0,"cond_shown":"equaldotanddens","ratio_trial":900,"smaller_num":"18","larger_num":"20","correct_side":1,"subjID":"luna cortes davila 25","gender":"1","age":"9","school":"4"},{"start_time":1552074838117,"click_time":1552074838675,"finger_time":1552074838534,"fix_duration":541.8218557011179,"trial":4,"RT":417,"MT":141,"sideResp":1,"stimulus":"img/900/randomdotsizeEA/L/1_Ratio_900_L_10_R_9.png","xmouse":[801,801,801,801,801,801,801,801,801,801,801,801,801,801,801,801,801,801,797,789,727,668,589,531,486,482,479,479],"ymouse":[495,495,495,495,495,495,495,495,495,495,495,495,495,495,495,495,495,495,491,482,410,348,277,219,159,138,116,96],"timestamp_mouse":[28,37,57,76,98,118,137,158,178,197,217,238,258,277,296,316,337,357,378,397,417,437,458,477,498,516,536,558],"xSR":741.5,"ySR":469.95,"xT1":424.9,"yT1":0,"xT2":1058.1,"yT2":0,"toosoon":0,"cond_shown":"randomdotsizeEA","ratio_trial":900,"smaller_num":"9","larger_num":"10","correct_side":1,"subjID":"luna cortes davila 25","gender":"1","age":"9","school":"4"},{"start_time":1552074839685,"click_time":1552074840255,"finger_time":1552074839995,"fix_duration":250,"trial":5,"RT":310,"MT":260,"sideResp":2,"stimulus":"img/750/randomdotsizeEA/L/6_Ratio_750_L_24_R_18.png","xmouse":[795,795,795,795,795,795,795,795,795,795,795,795,795,799,834,901,990,1165,1205,1209,1209,1209,1205,1200,1193,1185,1176,1161,1157],"ymouse":[522,522,522,522,522,522,522,522,522,522,522,522,522,514,473,390,276,84,45,34,31,30,30,33,43,53,63,76,78],"timestamp_mouse":[10,28,49,69,88,108,129,149,169,190,209,229,250,269,290,310,330,348,370,390,408,429,448,468,488,509,530,549,570],"xSR":741.5,"ySR":469.95,"xT1":424.9,"yT1":0,"xT2":1058.1,"yT2":0,"toosoon":0,"cond_shown":"randomdotsizeEA","ratio_trial":750,"smaller_num":"18","larger_num":"24","correct_side":1,"subjID":"luna cortes davila 25","gender":"1","age":"9","school":"4"},{"start_time":1552074841506,"click_time":1552074842113,"finger_time":1552074841774,"fix_duration":250,"trial":6,"RT":268,"MT":339,"sideResp":2,"stimulus":"img/900/equaldotanddens/L/1_Ratio_900_L_10_R_9.png","xmouse":[807,807,807,807,807,807,807,807,807,807,807,807,807,816,829,868,952,982,999,1009,1014,1013,1012,1012,1012,1012,1012,1012,1015,1040,1068],"ymouse":[484,484,484,484,484,484,484,484,484,484,484,484,484,469,452,404,269,202,154,121,95,85,83,83,83,83,83,85,90,95,95],"timestamp_mouse":[9,39,49,68,89,109,127,147,168,187,208,228,248,268,287,307,327,347,367,387,407,428,449,468,488,508,528,548,569,588,607],"xSR":741.5,"ySR":469.95,"xT1":424.9,"yT1":0,"xT2":1058.1,"yT2":0,"toosoon":0,"cond_shown":"equaldotanddens","ratio_trial":900,"smaller_num":"9","larger_num":"10","correct_side":1,"subjID":"luna cortes davila 25","gender":"1","age":"9","school":"4"},{"start_time":1552074843224,"click_time":1552074844073,"finger_time":1552074843613,"fix_duration":367.920041694641,"trial":7,"RT":389,"MT":460,"sideResp":2,"stimulus":"img/250/randomdotsizeEA/R/11_Ratio_250_L_3_R_12.png","xmouse":[770,770,770,770,770,770,770,770,770,770,770,770,770,770,772,783,816,828,840,857,941,1003,1052,1087,1089,1089,1089,1089,1089,1089,1089,1089,1089,1089,1089,1089,1089,1089,1089,1089,1089,1091,1094],"ymouse":[548,548,548,548,548,548,548,548,548,548,548,548,548,548,547,537,508,491,472,433,274,194,138,110,108,108,108,108,108,108,108,108,108,108,108,108,108,108,108,108,108,101,94],"timestamp_mouse":[11,38,49,69,91,109,131,150,171,190,209,230,251,269,289,309,329,350,370,389,409,429,450,470,490,510,530,551,570,590,610,630,650,671,690,709,729,750,771,790,810,831,849],"xSR":741.5,"ySR":469.95,"xT1":424.9,"yT1":0,"xT2":1058.1,"yT2":0,"toosoon":0,"cond_shown":"randomdotsizeEA","ratio_trial":250,"smaller_num":"3","larger_num":"12","correct_side":2,"subjID":"luna cortes davila 25","gender":"1","age":"9","school":"4"},{"start_time":1552074855288,"click_time":1552074856113,"finger_time":1552074855573,"fix_duration":1492.7265685970713,"trial":8,"RT":285,"MT":540,"sideResp":1,"stimulus":"img/750/equaldotanddens/R/4_Ratio_750_L_15_R_20.png","xmouse":[791,791,791,791,791,791,791,791,791,791,791,791,794,799,810,817,821,820,781,717,631,537,446,341,335,335,338,348,379,391,396,399,401,404,406,406,406,406,406,413,418,426],"ymouse":[517,517,517,517,517,517,517,517,517,517,517,517,516,493,406,366,335,307,274,261,250,242,233,205,198,193,185,179,169,164,162,160,158,156,150,147,143,137,131,107,99,91],"timestamp_mouse":[8,37,46,65,84,105,126,146,165,185,206,225,245,265,285,304,325,346,366,385,404,426,444,465,484,505,525,545,565,585,606,626,645,665,684,704,725,745,764,785,806,825],"xSR":741.5,"ySR":469.95,"xT1":424.9,"yT1":0,"xT2":1058.1,"yT2":0,"toosoon":0,"cond_shown":"equaldotanddens","ratio_trial":750,"smaller_num":"15","larger_num":"20","correct_side":2,"subjID":"luna cortes davila 25","gender":"1","age":"9","school":"4"},{"start_time":1552074859703,"click_time":1552074860333,"finger_time":1552074860093,"fix_duration":587.012922372198,"trial":9,"RT":390,"MT":240,"sideResp":2,"stimulus":"img/750/equaldotanddens/L/14_Ratio_750_L_8_R_6.png","xmouse":[802,802,802,802,802,802,802,802,802,802,802,802,802,802,802,802,803,807,814,820,827,847,865,883,921,937,954,966,990,1004,1032,1095],"ymouse":[535,535,535,535,535,535,535,535,535,535,535,535,535,535,534,529,520,507,480,465,446,408,381,357,305,284,260,239,200,180,147,86],"timestamp_mouse":[9,36,51,69,91,111,131,150,171,190,211,230,250,271,289,310,330,351,370,390,410,431,450,470,490,510,530,550,570,591,611,630],"xSR":741.5,"ySR":469.95,"xT1":424.9,"yT1":0,"xT2":1058.1,"yT2":0,"toosoon":0,"cond_shown":"equaldotanddens","ratio_trial":750,"smaller_num":"6","larger_num":"8","correct_side":1,"subjID":"luna cortes davila 25","gender":"1","age":"9","school":"4"},{"start_time":1552074863095,"click_time":1552074863693,"finger_time":1552074863473,"fix_duration":421.2013375204503,"trial":10,"RT":378,"MT":220,"sideResp":2,"stimulus":"img/900/randomdotsizeEA/L/2_Ratio_900_L_20_R_18.png","xmouse":[793,793,793,793,793,793,793,793,793,793,793,793,793,793,793,793,793,794,807,823,839,849,853,861,867,879,900,952,1015,1091],"ymouse":[539,539,539,539,539,539,539,539,539,539,539,539,539,539,539,539,539,517,438,374,316,281,253,204,187,169,152,126,107,71],"timestamp_mouse":[18,38,58,79,98,118,139,158,178,199,219,239,257,279,297,317,339,359,378,398,418,439,459,478,498,518,538,558,579,598],"xSR":741.5,"ySR":469.95,"xT1":424.9,"yT1":0,"xT2":1058.1,"yT2":0,"toosoon":0,"cond_shown":"randomdotsizeEA","ratio_trial":900,"smaller_num":"18","larger_num":"20","correct_side":1,"subjID":"luna cortes davila 25","gender":"1","age":"9","school":"4"},{"start_time":1552074867359,"click_time":1552074868314,"finger_time":1552074867874,"fix_duration":1405.924870048031,"trial":11,"RT":515,"MT":440,"sideResp":2,"stimulus":"img/500/randomdotsizeEA/L/8_Ratio_500_L_8_R_4.png","xmouse":[780,780,780,780,780,780,780,780,780,780,780,780,780,780,780,780,780,780,780,780,781,790,792,794,794,794,795,795,795,795,795,807,830,874,950,996,1031,1039,1040,1040,1040,1039,1037,1037,1037,1037,1051,1067],"ymouse":[521,521,521,521,521,521,521,521,521,521,521,521,521,521,521,521,521,521,521,521,521,500,488,476,470,466,465,465,465,465,465,453,437,408,358,326,294,279,269,262,256,239,230,219,209,185,119,91],"timestamp_mouse":[15,34,54,75,94,114,135,155,175,195,215,234,254,273,295,314,334,354,374,395,415,434,454,475,495,515,534,553,573,594,615,633,654,675,694,714,734,754,775,794,813,834,853,874,894,915,934,954],"xSR":741.5,"ySR":469.95,"xT1":424.9,"yT1":0,"xT2":1058.1,"yT2":0,"toosoon":0,"cond_shown":"randomdotsizeEA","ratio_trial":500,"smaller_num":"4","larger_num":"8","correct_side":1,"subjID":"luna cortes davila 25","gender":"1","age":"9","school":"4"},{"start_time":1552074870361,"click_time":1552074871433,"finger_time":1552074870794,"fix_duration":1227.4303738756682,"trial":12,"RT":433,"MT":639,"sideResp":1,"stimulus":"img/500/equaldotanddens/L/8_Ratio_500_L_8_R_4.png","xmouse":[796,796,796,796,796,796,796,796,796,796,796,796,796,796,796,796,796,796,795,784,766,715,677,619,593,581,574,574,575,576,576,578,578,578,577,576,573,562,543,522,502,471,457,456,456,456,456,455,455,455,457,461,468,472],"ymouse":[537,537,537,537,537,537,537,537,537,537,537,537,537,537,537,537,537,537,527,504,477,432,405,357,325,302,274,263,253,240,231,195,182,167,162,161,161,159,150,139,132,114,108,108,108,108,108,108,108,108,107,106,101,96],"timestamp_mouse":[13,33,59,72,93,112,132,153,173,193,213,233,253,273,291,313,332,352,372,391,413,433,451,472,491,513,532,552,572,592,612,634,652,671,692,713,733,752,772,793,812,833,852,872,892,913,932,953,973,993,1012,1032,1053,1072],"xSR":741.5,"ySR":469.95,"xT1":424.9,"yT1":0,"xT2":1058.1,"yT2":0,"toosoon":0,"cond_shown":"equaldotanddens","ratio_trial":500,"smaller_num":"4","larger_num":"8","correct_side":1,"subjID":"luna cortes davila 25","gender":"1","age":"9","school":"4"},{"start_time":1552074873800,"click_time":1552074874894,"finger_time":1552074874513,"fix_duration":345.6328542410423,"trial":13,"RT":713,"MT":381,"sideResp":2,"stimulus":"img/500/randomdotsizeEA/R/14_Ratio_500_L_5_R_10.png","xmouse":[763,763,763,763,763,763,763,763,763,763,763,763,763,763,763,763,763,763,763,763,765,769,773,777,779,779,780,780,780,780,780,780,780,780,783,818,861,924,990,1104,1109,1109,1106,1102,1090,1086,1082,1074,1064,1053,1035,1035,1038,1052,1068],"ymouse":[531,531,531,531,531,531,531,531,531,531,531,531,531,531,531,531,531,531,531,531,531,530,528,525,523,523,522,520,518,508,502,496,490,487,482,463,445,415,380,283,264,250,233,218,188,178,167,156,144,134,110,97,78,57,36],"timestamp_mouse":[13,33,53,74,92,113,134,154,173,194,213,234,253,274,293,313,334,353,373,393,412,433,452,473,494,513,534,553,573,594,612,633,653,673,692,713,733,753,774,795,813,833,853,874,894,912,933,952,972,994,1012,1033,1053,1072,1094],"xSR":741.5,"ySR":469.95,"xT1":424.9,"yT1":0,"xT2":1058.1,"yT2":0,"toosoon":0,"cond_shown":"randomdotsizeEA","ratio_trial":500,"smaller_num":"5","larger_num":"10","correct_side":2,"subjID":"luna cortes davila 25","gender":"1","age":"9","school":"4"},{"start_time":1552074877863,"click_time":1552074881414,"finger_time":1552074879094,"fix_duration":767.5246319439126,"trial":14,"RT":1231,"MT":2320,"sideResp":2,"stimulus":"img/500/equaldotanddens/L/5_Ratio_500_L_4_R_2.png","xmouse":[775,775,775,775,775,775,775,775,775,775,775,775,775,775,775,775,775,775,775,775,775,775,775,775,775,775,775,775,775,775,775,775,775,775,775,775,775,775,775,775,775,775,775,775,775,775,775,775,775,775,775,775,775,775,775,775,775,775,775,755,742,721,716,716,719,730,736,740,741,745,756,768,796,821,825,825,825,825,822,822,822,822,825,830,831,833,837,850,863,873,879,885,888,893,899,900,902,904,904,903,896,887,887,887,887,887,887,887,887,887,887,887,887,887,887,887,887,887,887,887,887,887,887,887,887,887,887,887,887,887,887,887,887,887,887,887,887,887,887,887,887,887,887,887,887,887,887,887,887,887,887,887,887,887,887,887,887,887,887,887,887,887,887,887,887,887,887,887,887,887,887,887,887,887,887,887,887,1120],"ymouse":[527,527,527,527,527,527,527,527,527,527,527,527,527,527,527,527,527,527,527,527,527,527,527,527,527,527,527,527,527,527,527,527,527,527,527,527,527,527,527,527,527,527,527,527,527,527,527,527,527,527,527,527,527,527,527,527,527,527,527,507,496,481,479,479,479,479,479,479,479,481,492,501,507,484,461,411,343,241,216,201,197,196,196,194,193,193,193,195,200,204,205,206,204,198,191,191,190,190,190,192,195,204,204,204,204,204,204,204,204,204,204,204,204,204,204,204,204,204,204,204,204,204,204,204,204,204,204,204,204,204,204,204,204,204,204,204,204,204,204,204,204,204,204,204,204,204,204,204,204,204,204,204,204,204,204,204,204,204,204,204,204,204,204,204,204,204,204,204,204,204,204,204,204,204,204,204,204,58],"timestamp_mouse":[10,35,51,71,91,110,131,151,169,190,211,231,249,271,289,311,330,351,370,389,411,431,451,471,491,511,530,551,570,591,609,631,650,670,691,710,730,749,770,790,811,829,850,870,891,910,931,951,970,990,1011,1029,1050,1071,1091,1110,1130,1150,1169,1190,1210,1231,1250,1269,1290,1310,1330,1351,1370,1391,1411,1430,1450,1471,1490,1511,1531,1551,1570,1590,1611,1631,1650,1670,1693,1710,1730,1751,1770,1790,1810,1829,1851,1871,1890,1910,1930,1951,1970,1990,2011,2030,2050,2070,2091,2111,2130,2150,2170,2191,2211,2229,2251,2270,2291,2310,2330,2351,2370,2390,2411,2429,2451,2470,2491,2511,2530,2550,2570,2589,2609,2630,2650,2670,2690,2710,2731,2750,2770,2789,2810,2831,2851,2870,2890,2911,2930,2950,2970,2991,3010,3031,3049,3071,3090,3111,3130,3151,3170,3190,3210,3229,3250,3270,3290,3311,3330,3351,3371,3390,3411,3430,3450,3470,3491,3510,3530,3551],"xSR":741.5,"ySR":469.95,"xT1":424.9,"yT1":0,"xT2":1058.1,"yT2":0,"toosoon":0,"cond_shown":"equaldotanddens","ratio_trial":500,"smaller_num":"2","larger_num":"4","correct_side":1,"subjID":"luna cortes davila 25","gender":"1","age":"9","school":"4"},{"start_time":1552074883705,"click_time":1552074888034,"finger_time":1552074883753,"fix_duration":250,"trial":15,"RT":48,"MT":4281,"sideResp":2,"stimulus":"img/900/equaldotanddens/L/1_Ratio_900_L_10_R_9.png","xmouse":[772,744,552,391,214,23,0,0,0,0,0,0,0,0,0,0,0,0,0,0,0,40,77,117,135,142,153,166,181,203,275,434,489,521,547,575,610,614,615,615,619,664,697,739,765,794,864,894,953,971,1003,1012,1012,1012,1012,1008,998,996,994,982,964,916,892,867,848,835,815,809,808,808,808,808,808,808,808,808,808,807,806,806,804,803,801,799,797,796,795,795,795,795,795,795,795,795,795,794,794,795,796,798,799,799,800,800,801,802,804,805,805,805,805,805,805,805,805,805,805,805,805,805,805,805,805,805,805,805,805,805,805,805,805,805,805,805,805,805,805,805,805,805,805,805,805,805,805,805,805,806,806,808,809,812,814,814,814,815,815,815,815,815,815,815,815,815,815,815,815,815,815,815,815,815,815,815,815,815,815,815,815,815,815,815,815,815,815,815,815,813,812,809,807,803,803,803,803,807,859,942,969,1034,1071,1114,1138,1168,1187,1199,1203,1203,1203,1203,1203,1198,1194,1186,1177,1166,1149],"ymouse":[490,486,466,457,444,442,442,435,435,433,433,433,440,450,463,467,473,473,475,478,481,481,477,469,461,455,441,437,434,428,417,399,399,398,397,397,395,394,394,394,392,385,385,383,383,386,393,395,405,407,411,412,412,412,412,412,412,412,412,414,419,433,440,447,455,461,474,480,483,485,486,487,487,487,487,487,487,488,489,490,490,491,492,492,492,492,492,492,492,492,492,492,492,492,492,493,493,496,497,499,501,503,505,506,507,509,512,514,515,515,515,515,515,515,515,515,515,515,515,517,517,517,517,517,517,517,517,517,517,517,517,517,517,517,517,517,517,517,517,517,517,517,517,517,517,517,517,518,518,518,518,518,518,518,518,518,518,518,518,518,518,518,518,518,518,518,518,518,518,518,518,518,518,518,518,518,518,518,518,518,518,518,518,518,518,518,518,518,518,519,520,521,521,521,521,520,486,437,416,366,323,247,188,123,86,70,64,64,64,62,54,43,40,37,35,35,37],"timestamp_mouse":[8,29,48,67,88,109,128,148,168,188,208,228,248,269,288,310,328,348,369,388,408,428,449,468,488,508,528,548,568,588,608,628,648,668,687,709,728,749,768,789,809,829,848,868,887,908,928,948,968,988,1008,1028,1047,1068,1088,1109,1128,1148,1168,1189,1208,1228,1248,1268,1288,1308,1328,1348,1368,1389,1408,1429,1448,1469,1489,1507,1528,1548,1569,1588,1608,1628,1648,1667,1688,1708,1727,1749,1769,1788,1808,1829,1847,1869,1889,1908,1928,1949,1968,1988,2008,2027,2048,2069,2088,2108,2128,2147,2168,2189,2207,2228,2248,2269,2287,2308,2329,2349,2367,2388,2409,2428,2448,2468,2488,2508,2527,2547,2567,2589,2608,2629,2648,2668,2687,2708,2728,2748,2768,2788,2808,2828,2848,2869,2887,2907,2928,2949,2968,2988,3008,3028,3048,3069,3089,3109,3128,3149,3169,3188,3208,3227,3249,3269,3287,3308,3329,3347,3369,3388,3408,3428,3447,3469,3488,3508,3529,3547,3569,3589,3608,3629,3648,3669,3689,3708,3728,3749,3768,3789,3809,3828,3847,3869,3888,3908,3927,3948,3969,3988,4009,4028,4048,4068,4088,4108,4129,4149,4168,4188,4208,4229,4248,4267,4288,4308,4329],"xSR":741.5,"ySR":469.95,"xT1":424.9,"yT1":0,"xT2":1058.1,"yT2":0,"toosoon":0,"cond_shown":"equaldotanddens","ratio_trial":900,"smaller_num":"9","larger_num":"10","correct_side":1,"subjID":"luna cortes davila 25","gender":"1","age":"9","school":"4"},{"start_time":1552074889814,"click_time":1552074890633,"finger_time":1552074890254,"fix_duration":779.0302950723856,"trial":16,"RT":440,"MT":379,"sideResp":1,"stimulus":"img/250/equaldotsize/L/14_Ratio_250_L_12_R_3.png","xmouse":[794,794,794,794,794,793,793,793,793,793,793,793,793,793,793,793,793,793,793,791,785,759,737,721,712,704,704,704,704,700,683,654,643,637,632,626,613,603,581,549,524],"ymouse":[531,531,531,532,532,532,533,533,533,533,533,533,533,533,533,533,533,533,533,530,507,420,364,326,299,273,262,244,217,193,156,125,120,119,119,119,116,111,101,87,77],"timestamp_mouse":[19,39,59,79,98,120,140,160,178,199,220,240,260,280,298,319,340,359,378,400,419,440,459,479,499,530,539,560,579,599,620,639,659,679,699,719,739,759,780,800,819],"xSR":741.5,"ySR":469.95,"xT1":424.9,"yT1":0,"xT2":1058.1,"yT2":0,"toosoon":0,"cond_shown":"equaldotsize","ratio_trial":250,"smaller_num":"3","larger_num":"12","correct_side":1,"subjID":"luna cortes davila 25","gender":"1","age":"9","school":"4"},{"start_time":1552074892680,"click_time":1552074893753,"finger_time":1552074893434,"fix_duration":1044.0876325918105,"trial":17,"RT":754,"MT":319,"sideResp":2,"stimulus":"img/500/randomdotsizeEA/R/14_Ratio_500_L_5_R_10.png","xmouse":[781,781,781,781,781,781,781,781,781,781,781,781,781,781,781,781,781,781,781,781,781,781,781,781,781,781,781,781,781,781,781,781,782,785,790,797,827,873,972,1003,1019,1027,1034,1046,1053,1062,1077,1102,1114,1115,1115,1117,1121,1136],"ymouse":[499,499,499,499,499,499,499,499,499,499,499,499,499,499,499,499,499,499,499,499,499,499,499,499,499,499,499,499,499,499,499,499,499,499,499,498,486,462,405,383,364,348,329,280,256,231,203,164,142,136,132,123,106,69],"timestamp_mouse":[13,35,53,73,93,113,133,152,174,193,213,234,254,273,293,313,334,352,374,394,414,433,453,474,493,514,533,552,574,593,614,634,654,673,692,714,733,754,772,792,813,833,854,873,893,914,933,953,974,993,1014,1033,1053,1073],"xSR":741.5,"ySR":469.95,"xT1":424.9,"yT1":0,"xT2":1058.1,"yT2":0,"toosoon":0,"cond_shown":"randomdotsizeEA","ratio_trial":500,"smaller_num":"5","larger_num":"10","correct_side":2,"subjID":"luna cortes davila 25","gender":"1","age":"9","school":"4"},{"start_time":1552074895073,"click_time":1552074895913,"finger_time":1552074895473,"fix_duration":419.42514943457564,"trial":18,"RT":400,"MT":440,"sideResp":1,"stimulus":"img/250/equaldotsize/L/15_Ratio_250_L_12_R_3.png","xmouse":[791,791,791,791,791,791,791,791,791,791,791,791,791,791,791,796,804,807,809,809,801,785,767,750,727,723,721,714,704,679,663,652,640,626,615,611,611,600,586,559,544,532,521],"ymouse":[519,519,519,519,519,519,519,519,519,519,519,519,519,519,520,520,515,512,507,490,468,431,391,350,299,286,278,257,239,191,162,145,130,114,102,101,101,99,97,88,80,72,64],"timestamp_mouse":[2,30,40,60,79,101,120,141,160,181,201,219,241,260,280,300,320,341,360,380,400,419,441,460,480,501,520,541,561,580,599,621,641,660,679,700,720,740,760,780,801,821,840],"xSR":741.5,"ySR":469.95,"xT1":424.9,"yT1":0,"xT2":1058.1,"yT2":0,"toosoon":0,"cond_shown":"equaldotsize","ratio_trial":250,"smaller_num":"3","larger_num":"12","correct_side":1,"subjID":"luna cortes davila 25","gender":"1","age":"9","school":"4"},{"start_time":1552074899387,"click_time":1552074925955,"finger_time":1552074920254,"fix_duration":332.44474298390224,"trial":19,"RT":20867,"MT":5701,"sideResp":2,"stimulus":"img/900/randomdotsizeEA/R/6_Ratio_900_L_9_R_10.png","xmouse":[775,775,775,775,775,775,775,775,775,775,775,775,775,775,775,775,775,775,775,775,775,775,775,775,775,775,775,775,775,775,775,775,775,775,775,775,775,775,775,775,775,775,775,775,775,775,775,775,775,775,775,775,775,775,775,775,775,775,775,775,775,775,775,775,775,775,775,775,775,775,775,775,775,775,775,775,775,775,775,775,775,775,775,775,775,775,775,775,775,775,775,775,775,775,775,775,775,775,775,775,775,775,775,775,775,775,775,775,775,775,775,775,775,775,775,775,775,775,775,775,775,775,775,775,775,775,775,775,775,775,775,775,775,775,775,775,775,775,775,775,775,775,775,775,775,775,775,775,775,775,775,775,775,775,775,775,775,775,775,775,775,775,775,775,775,775,775,775,775,775,775,775,775,775,775,775,775,775,775,775,775,775,775,775,775,775,775,775,775,775,775,775,775,775,775,775,775,775,775,775,775,775,775,775,775,775,775,775,775,775,775,775,775,775,775,775,775,775,775,775,775,775,775,775,775,775,775,775,775,775,775,775,775,775,775,775,775,775,775,775,775,775,775,775,775,775,775,775,775,775,775,775,775,775,775,775,775,775,775,775,775,775,775,775,775,775,775,775,775,775,775,775,775,775,775,775,775,775,775,775,775,775,775,775,775,775,775,775,775,775,775,775,775,775,775,775,775,775,775,775,775,775,775,775,775,775,775,775,775,775,775,775,775,775,775,775,775,775,775,775,775,775,775,775,775,775,775,775,775,775,775,775,775,775,775,775,775,775,775,775,775,775,775,775,775,775,775,775,775,775,775,775,775,775,775,775,775,775,775,775,775,775,775,775,775,775,775,775,775,775,775,775,775,775,775,775,775,775,775,775,775,775,775,775,775,775,775,775,775,775,775,775,775,775,775,775,775,775,775,775,775,775,775,775,775,775,775,775,775,775,775,775,775,775,775,775,775,775,775,775,775,775,775,775,775,775,775,775,775,775,775,775,775,775,775,775,775,775,775,775,775,775,775,775,775,775,775,775,775,775,775,775,775,775,775,775,775,775,775,775,775,775,775,775,775,775,775,775,775,775,775,775,775,775,775,775,775,775,775,775,775,775,775,775,775,775,775,775,775,775,775,775,775,775,775,775,775,775,775,775,775,775,775,775,775,775,775,775,775,775,775,775,775,775,775,775,775,775,775,775,775,775,775,775,775,775,775,775,775,775,775,775,775,775,775,775,775,775,775,775,775,777,780,781,784,785,785,785,785,785,785,785,785,785,785,785,785,785,785,785,785,785,785,785,785,785,785,785,785,785,785,785,785,785,785,785,785,785,785,785,785,785,785,785,785,785,785,785,785,785,785,785,785,785,785,785,785,785,785,785,785,785,785,785,785,785,785,785,785,785,785,785,785,785,785,785,785,785,785,785,785,785,785,785,785,785,785,785,785,785,785,785,785,785,785,785,785,785,785,785,785,785,785,785,785,785,785,785,785,785,785,785,785,785,785,785,785,785,785,785,785,785,785,785,785,785,785,785,785,785,785,785,785,785,785,785,785,785,785,785,785,785,785,785,785,785,785,785,785,785,785,785,785,785,785,785,785,785,785,785,785,785,785,785,785,785,785,785,785,785,785,785,785,785,785,785,785,785,785,785,785,785,785,785,785,785,785,785,785,785,785,785,785,785,785,785,785,785,785,785,785,785,785,785,785,785,785,785,785,785,785,785,785,785,785,785,785,785,785,785,785,785,785,785,785,785,785,785,785,785,785,785,785,785,785,785,785,785,785,785,785,785,785,785,785,785,785,785,785,785,785,785,785,785,785,785,785,785,785,785,785,785,785,785,785,785,785,785,785,785,785,785,785,785,785,785,785,785,785,785,785,785,785,785,785,785,785,785,785,785,785,785,785,785,785,785,785,785,785,785,785,785,785,785,785,785,785,785,785,785,785,785,785,785,785,785,785,785,785,785,785,785,785,785,785,785,785,785,785,785,785,785,785,785,785,785,785,785,785,785,785,785,785,785,785,785,785,785,785,785,785,785,785,785,785,785,785,785,785,785,785,785,785,785,785,785,785,785,785,785,785,785,785,785,785,785,785,785,785,785,785,785,785,785,785,785,785,785,785,785,785,785,785,785,785,785,785,785,785,785,785,785,785,785,785,785,785,785,785,785,785,785,785,785,785,785,785,785,785,785,785,785,785,785,785,785,785,785,785,785,785,785,785,785,785,785,785,785,785,785,785,785,785,785,785,785,785,785,785,785,785,785,785,785,785,785,785,785,785,785,785,785,785,785,785,785,785,785,785,785,785,785,785,785,785,785,785,785,785,785,785,785,785,785,785,785,785,785,785,785,803,827,834,834,834,834,834,834,834,834,834,834,841,857,888,938,1032,1065,1074,1093,1102,1120,1143,1143,1143,1143,1143,1143,1143,1143,1143,1143,1143,1143,1143,1143,1143,1143,1143,1143,1143,1143,1143,1143,1143,1143,1143,1143,1143,1143,1143,1143,1143,1143,1143,1143,1143,1143,1143,1143,1143,1143,1143,1143,1143,1143,1143,1143,1143,1143,1143,1143,1143,1143,1143,1143,1143,1143,1143,1143,1143,1143,1143,1143,1143,1143,1143,1143,1143,1143,1143,1143,1143,1143,1143,1143,1143,1143,1143,1143,1143,1143,1143,1143,1143,1143,1489,1479,1464,1456,1452,1451,1451,1451,1451,1451,1448,1441,1425,1413,1399,1368,1354,1344,1338,1334,1328,1328,1328,1328,1328,1315,1302,1281,1258,1235,1210,1176,1170,1165,1154,1123,1100,1083,1068,1060,1051,1049,1049,1049,1049,1049,1049,1049,1049,1054,1064,1065,1067,1068,1070,1070,1053,1022,961,903,806,765,762,762,762,762,762,762,762,763,763,763,763,763,763,763,763,763,766,767,770,773,776,777,779,779,779,779,779,779,779,779,779,779,779,779,780,784,785,788,792,793,793,793,793,793,793,793,793,793,793,793,793,793,793,793,793,793,793,793,793,793,793,793,793,793,793,793,793,793,793,793,793,793,793,793,793,793,793,793,793,793,793,793,793,793,793,793,793,793,793,793,793,793,793,793,793,793,793,793,793,793,793,793,793,793,793,793,793,793,793,804,828,877,931,1030,1061,1085,1102,1119,1138,1186,1197,1202,1204,1205,1205,1203,1202,1198,1193,1169,1157],"ymouse":[522,522,522,522,522,522,522,522,522,522,522,522,522,522,522,522,522,522,522,522,522,522,522,522,522,522,522,522,522,522,522,522,522,522,522,522,522,522,522,522,522,522,522,522,522,522,522,522,522,522,522,522,522,522,522,522,522,522,522,522,522,522,522,522,522,522,522,522,522,522,522,522,522,522,522,522,522,522,522,522,522,522,522,522,522,522,522,522,522,522,522,522,522,522,522,522,522,522,522,522,522,522,522,522,522,522,522,522,522,522,522,522,522,522,522,522,522,522,522,522,522,522,522,522,522,522,522,522,522,522,522,522,522,522,522,522,522,522,522,522,522,522,522,522,522,522,522,522,522,522,522,522,522,522,522,522,522,522,522,522,522,522,522,522,522,522,522,522,522,522,522,522,522,522,522,522,522,522,522,522,522,522,522,522,522,522,522,522,522,522,522,522,522,522,522,522,522,522,522,522,522,522,522,522,522,522,522,522,522,522,522,522,522,522,522,522,522,522,522,522,522,522,522,522,522,522,522,522,522,522,522,522,522,522,522,522,522,522,522,522,522,522,522,522,522,522,522,522,522,522,522,522,522,522,522,522,522,522,522,522,522,522,522,522,522,522,522,522,522,522,522,522,522,522,522,522,522,522,522,522,522,522,522,522,522,522,522,522,522,522,522,522,522,522,522,522,522,522,522,522,522,522,522,522,522,522,522,522,522,522,522,522,522,522,522,522,522,522,522,522,522,522,522,522,522,522,522,522,522,522,522,522,522,522,522,522,522,522,522,522,522,522,522,522,522,522,522,522,522,522,522,522,522,522,522,522,522,522,522,522,522,522,522,522,522,522,522,522,522,522,522,522,522,522,522,522,522,522,522,522,522,522,522,522,522,522,522,522,522,522,522,522,522,522,522,522,522,522,522,522,522,522,522,522,522,522,522,522,522,522,522,522,522,522,522,522,522,522,522,522,522,522,522,522,522,522,522,522,522,522,522,522,522,522,522,522,522,522,522,522,522,522,522,522,522,522,522,522,522,522,522,522,522,522,522,522,522,522,522,522,522,522,522,522,522,522,522,522,522,522,522,522,522,522,522,522,522,522,522,522,522,522,522,522,522,522,522,522,522,522,522,522,522,522,522,522,522,522,522,522,522,522,522,522,522,522,522,522,522,522,522,522,522,522,522,522,522,522,522,522,522,522,522,522,522,522,522,522,522,522,522,522,522,522,522,522,522,522,522,522,522,522,522,522,522,522,522,522,522,522,522,523,523,523,523,523,523,523,523,523,523,523,523,523,523,523,523,523,523,523,523,523,523,523,523,523,523,523,523,523,523,523,523,523,523,523,523,523,523,523,523,523,523,523,523,523,523,523,523,523,523,523,523,523,523,523,523,523,523,523,523,523,523,523,523,523,523,523,523,523,523,523,523,523,523,523,523,523,523,523,523,523,523,523,523,523,523,523,523,523,523,523,523,523,523,523,523,523,523,523,523,523,523,523,523,523,523,523,523,523,523,523,523,523,523,523,523,523,523,523,523,523,523,523,523,523,523,523,523,523,523,523,523,523,523,523,523,523,523,523,523,523,523,523,523,523,523,523,523,523,523,523,523,523,523,523,523,523,523,523,523,523,523,523,523,523,523,523,523,523,523,523,523,523,523,523,523,523,523,523,523,523,523,523,523,523,523,523,523,523,523,523,523,523,523,523,523,523,523,523,523,523,523,523,523,523,523,523,523,523,523,523,523,523,523,523,523,523,523,523,523,523,523,523,523,523,523,523,523,523,523,523,523,523,523,523,523,523,523,523,523,523,523,523,523,523,523,523,523,523,523,523,523,523,523,523,523,523,523,523,523,523,523,523,523,523,523,523,523,523,523,523,523,523,523,523,523,523,523,523,523,523,523,523,523,523,523,523,523,523,523,523,523,523,523,523,523,523,523,523,523,523,523,523,523,523,523,523,523,523,523,523,523,523,523,523,523,523,523,523,523,523,523,523,523,523,523,523,523,523,523,523,523,523,523,523,523,523,523,523,523,523,523,523,523,523,523,523,523,523,523,523,523,523,523,523,523,523,523,523,523,523,523,523,523,523,523,523,523,523,523,523,523,523,523,523,523,523,523,523,523,523,523,523,523,523,523,523,523,523,523,523,523,523,523,523,523,523,523,523,523,523,523,523,523,523,523,523,523,523,523,523,523,523,523,523,523,523,523,523,523,523,523,523,523,523,523,523,523,523,523,523,523,523,523,523,523,523,523,523,523,523,523,523,523,523,523,523,523,523,523,523,523,523,523,523,523,523,523,523,523,523,523,523,523,523,523,523,523,523,523,523,523,523,523,523,523,523,523,523,527,532,532,532,532,532,532,532,532,532,532,532,533,540,553,568,585,594,600,619,631,656,681,681,681,681,681,681,681,681,681,681,681,681,681,681,681,681,681,681,681,681,681,681,681,681,681,681,681,681,681,681,681,681,681,681,681,681,681,681,681,681,681,681,681,681,681,681,681,681,681,681,681,681,681,681,681,681,681,681,681,681,681,681,681,681,681,681,681,681,681,681,681,681,681,681,681,681,681,681,681,681,681,681,681,681,711,704,700,698,695,695,695,695,695,695,695,693,688,685,683,679,678,678,678,678,678,678,678,678,677,673,670,667,663,658,649,637,634,630,621,601,589,583,577,575,572,571,571,571,571,571,571,571,570,565,560,560,560,561,562,563,564,564,560,550,534,532,531,531,531,531,531,531,531,531,531,531,531,531,531,531,531,531,530,530,530,530,530,530,530,530,530,530,530,530,530,530,530,530,530,530,530,530,530,530,530,530,530,530,530,530,530,530,530,530,530,530,530,530,530,530,530,530,530,530,530,530,530,530,530,530,530,530,530,530,530,530,530,530,530,530,530,530,530,530,530,530,530,530,530,530,530,530,530,530,530,530,530,530,530,530,530,530,530,530,530,530,530,530,530,530,530,530,530,530,530,520,493,442,379,259,218,189,168,151,130,83,69,61,57,56,54,52,52,52,52,59,64],"timestamp_mouse":[11,30,46,67,87,106,125,147,165,186,207,225,247,267,286,306,327,346,367,387,406,427,447,466,487,507,526,545,567,585,606,627,646,667,685,707,727,747,767,787,805,827,847,866,887,907,927,947,965,986,1007,1025,1047,1067,1085,1106,1127,1147,1167,1187,1206,1227,1246,1267,1285,1307,1327,1346,1365,1387,1407,1425,1446,1467,1486,1505,1527,1546,1567,1587,1607,1626,1647,1667,1687,1705,1727,1747,1765,1787,1807,1825,1847,1867,1887,1906,1927,1947,1965,1987,2005,2026,2047,2067,2087,2107,2127,2147,2167,2186,2206,2227,2247,2266,2286,2306,2327,2347,2367,2387,2407,2426,2447,2465,2487,2507,2526,2546,2566,2587,2605,2626,2647,2665,2686,2707,2725,2747,2767,2786,2807,2826,2846,2865,2887,2906,2925,2946,2967,2987,3005,3027,3046,3065,3086,3107,3126,3147,3167,3186,3207,3227,3247,3266,3287,3306,3326,3347,3366,3386,3407,3426,3447,3466,3487,3507,3525,3547,3567,3586,3607,3626,3645,3666,3686,3707,3727,3747,3765,3787,3807,3825,3846,3865,3886,3907,3927,3947,3966,3987,4006,4025,4047,4067,4085,4107,4127,4147,4166,4187,4207,4226,4247,4266,4287,4305,4326,4346,4366,4387,4407,4425,4447,4466,4487,4506,4527,4547,4567,4587,4607,4627,4645,4666,4686,4707,4725,4745,4766,4787,4807,4826,4846,4866,4885,4906,4927,4945,4965,4987,5007,5027,5046,5066,5086,5106,5127,5145,5167,5186,5207,5225,5247,5266,5286,5305,5326,5346,5366,5385,5406,5426,5446,5466,5485,5507,5525,5546,5567,5586,5605,5627,5646,5666,5687,5705,5727,5747,5767,5786,5805,5825,5846,5865,5885,5907,5925,5946,5967,5987,6005,6026,6046,6067,6086,6106,6126,6145,6167,6186,6207,6227,6247,6265,6286,6307,6325,6347,6365,6386,6407,6426,6446,6466,6486,6507,6527,6546,6567,6586,6605,6627,6646,6665,6686,6707,6725,6747,6767,6787,6806,6827,6846,6867,6887,6906,6926,6947,6966,6987,7006,7027,7047,7066,7086,7107,7127,7146,7165,7187,7207,7227,7245,7266,7287,7307,7327,7346,7366,7387,7406,7427,7446,7467,7486,7506,7526,7547,7567,7586,7606,7626,7647,7666,7686,7707,7727,7747,7765,7787,7807,7826,7845,7866,7887,7906,7926,7946,7966,7987,8007,8027,8046,8067,8087,8107,8125,8147,8167,8186,8207,8227,8246,8266,8287,8307,8325,8346,8367,8386,8407,8426,8445,8467,8487,8506,8526,8546,8566,8586,8606,8627,8647,8667,8687,8705,8726,8747,8766,8786,8807,8826,8846,8867,8886,8906,8927,8946,8968,8988,9009,9028,9049,9068,9088,9108,9128,9149,9168,9188,9208,9227,9248,9268,9287,9308,9328,9349,9368,9388,9408,9428,9448,9468,9488,9507,9528,9547,9568,9588,9608,9627,9648,9668,9689,9708,9728,9748,9769,9788,9808,9827,9847,9868,9887,9907,9928,9947,9967,9989,10009,10028,10048,10069,10088,10108,10127,10147,10168,10188,10209,10228,10247,10267,10288,10309,10328,10348,10368,10388,10409,10428,10447,10468,10488,10509,10528,10548,10568,10588,10608,10628,10649,10668,10688,10707,10727,10749,10767,10788,10808,10828,10847,10867,10887,10907,10927,10947,10969,10988,11007,11028,11047,11069,11087,11108,11127,11147,11167,11189,11208,11228,11247,11268,11288,11307,11328,11348,11367,11387,11408,11427,11449,11468,11489,11508,11527,11548,11568,11587,11608,11629,11648,11669,11687,11708,11728,11747,11768,11787,11809,11827,11848,11867,11887,11908,11927,11948,11968,11987,12008,12028,12047,12067,12087,12108,12128,12149,12167,12187,12208,12228,12248,12268,12287,12308,12328,12348,12368,12387,12408,12429,12447,12467,12487,12509,12527,12548,12568,12588,12608,12627,12648,12668,12687,12708,12728,12747,12768,12788,12808,12827,12847,12868,12887,12909,12928,12948,12968,12987,13009,13028,13047,13068,13087,13108,13128,13149,13169,13188,13207,13228,13247,13268,13287,13309,13328,13348,13367,13388,13409,13428,13448,13468,13487,13509,13529,13548,13567,13587,13607,13627,13649,13669,13688,13707,13727,13747,13768,13787,13807,13828,13847,13867,13887,13909,13928,13947,13968,13988,14007,14027,14047,14068,14089,14109,14127,14148,14167,14188,14207,14228,14247,14268,14287,14307,14328,14348,14367,14388,14407,14428,14448,14468,14488,14507,14527,14547,14568,14587,14607,14628,14647,14667,14687,14708,14728,14748,14768,14788,14808,14828,14848,14867,14888,14907,14927,14948,14968,14987,15007,15028,15049,15069,15088,15107,15128,15149,15169,15188,15207,15228,15248,15268,15288,15308,15329,15349,15368,15387,15408,15428,15448,15467,15488,15507,15528,15549,15567,15587,15607,15629,15647,15667,15688,15707,15727,15748,15767,15788,15807,15827,15848,15868,15888,15907,15928,15948,15967,15989,16007,16028,16048,16067,16087,16109,16128,16148,16167,16188,16207,16228,16248,16268,16288,16308,16328,16348,16368,16388,16407,16427,16448,16467,16489,16508,16529,16547,16567,16588,16607,16627,16649,16667,16688,16708,16728,16747,16767,16787,16808,16827,16847,16867,16888,16908,16927,16949,16968,16988,17008,17028,17047,17067,17089,17108,17128,17148,17168,17188,17208,17228,17248,17267,17289,17308,17327,17348,17367,17387,17408,17429,17447,17468,17487,17508,17528,17548,17569,17589,17607,17628,17648,17667,17688,17707,17729,17749,17768,17787,17808,17828,17847,17867,17889,17908,17928,17947,17968,17988,18008,18028,18047,18068,18087,18108,18127,18148,18168,18187,18207,18228,18249,18268,18287,18308,18328,18347,18368,18388,18409,18427,18448,18467,18488,18508,18529,18548,18568,18587,18608,18628,18648,18667,18688,18709,18728,18748,18768,18787,18809,18828,18848,18867,18888,18907,18927,18948,18968,18988,19009,19027,19048,19067,19087,19109,19128,19147,19167,19187,19209,19227,19247,19268,19289,19307,19328,19348,19368,19388,19407,19428,19448,19469,19487,19508,19528,19547,19567,19588,19608,19629,19648,19668,19688,19707,19727,19748,19767,19787,19807,19828,19848,19867,19888,19908,19927,19947,19967,19987,20007,20029,20048,20067,20087,20108,20129,20148,20167,20187,20208,20228,20248,20267,20288,20307,20328,20347,20367,20387,20407,20429,20448,20467,20487,20507,20528,20547,20569,20589,20608,20629,20648,20668,20688,20707,20728,20747,20768,20788,20807,20828,20847,20867,20887,20908,20927,20947,20967,20987,21007,21028,21047,21068,21087,21108,21127,21147,21168,21189,21208,21227,21248,21268,21288,21307,21327,21348,21367,21387,21408,21429,21448,21468,21487,21508,21527,21548,21568,21587,21607,21627,21647,21668,21687,21708,21727,21748,21767,21788,21807,21827,21849,21868,21887,21907,21928,21947,21967,21987,22008,22027,22048,22067,22088,22109,22127,22147,22167,22188,22208,22228,22248,22268,22288,22308,22327,22348,22367,22388,22408,22428,22448,22467,22488,22508,22527,22548,22567,22587,22608,22628,22647,22668,22687,22707,22729,22747,22768,22788,22807,22828,22847,22867,22888,22907,22927,22947,22968,22987,23007,23028,23048,23068,23087,23108,23128,23147,23167,23188,23207,23227,23247,23268,23287,23308,23328,23348,23367,23387,23407,23428,23447,23469,23488,23508,23527,23548,23568,23588,23607,23627,23647,23667,23687,23708,23729,23749,23768,23788,23807,23827,23847,23867,23888,23908,23927,23948,23967,23987,24007,24027,24048,24068,24087,24108,24129,24147,24168,24189,24208,24228,24247,24267,24287,24308,24327,24347,24367,24387,24407,24427,24449,24467,24487,24509,24527,24547,24567,24589,24607,24627,24648,24667,24688,24707,24728,24748,24768,24788,24807,24827,24847,24867,24888,24907,24928,24948,24967,24988,25009,25028,25047,25068,25087,25108,25128,25148,25168,25189,25209,25228,25248,25267,25288,25309,25328,25348,25367,25388,25408,25427,25448,25468,25489,25509,25528,25548,25568,25588,25609,25628,25647,25667,25688,25707,25727,25747,25768,25787,25808,25827,25847,25867,25888,25907,25928,25949,25968,25987,26008,26028,26047,26067,26087,26108,26128,26148,26167,26188,26207,26228,26247,26268,26288,26308,26327,26348,26367,26388,26407,26429,26447,26467,26487,26509,26528,26547,26568],"xSR":741.5,"ySR":469.95,"xT1":424.9,"yT1":0,"xT2":1058.1,"yT2":0,"toosoon":0,"cond_shown":"randomdotsizeEA","ratio_trial":900,"smaller_num":"9","larger_num":"10","correct_side":2,"subjID":"luna cortes davila 25","gender":"1","age":"9","school":"4"},{"start_time":1552074928381,"click_time":1552074929596,"finger_time":1552074928835,"fix_duration":1425.6980634887907,"trial":20,"RT":454,"MT":761,"sideResp":1,"stimulus":"img/250/randomdotsizeEA/L/5_Ratio_250_L_24_R_6.png","xmouse":[781,781,781,781,781,781,781,781,781,781,781,781,781,781,781,781,781,781,783,788,791,795,799,799,796,796,801,828,834,839,843,856,886,1036,1156,1187,1214,1214,1214,1211,1208,1205,1188,1169,1135,1048,974,855,825,802,782,764,729,714,703,689,683,650,609,536,452],"ymouse":[541,541,541,541,541,541,541,541,541,541,541,541,541,541,541,541,541,541,533,518,498,471,424,404,385,356,332,286,276,270,267,263,253,217,190,180,168,167,164,162,159,156,146,143,140,140,140,140,140,136,133,130,114,106,100,99,98,97,97,97,97],"timestamp_mouse":[13,36,53,73,93,113,133,154,174,193,214,235,255,273,294,314,333,353,373,394,413,434,454,474,494,513,534,554,573,594,613,633,653,673,693,713,733,753,773,795,813,834,853,874,894,914,934,953,973,993,1013,1033,1053,1074,1093,1114,1134,1154,1174,1194,1215],"xSR":741.5,"ySR":469.95,"xT1":424.9,"yT1":0,"xT2":1058.1,"yT2":0,"toosoon":0,"cond_shown":"randomdotsizeEA","ratio_trial":250,"smaller_num":"6","larger_num":"24","correct_side":1,"subjID":"luna cortes davila 25","gender":"1","age":"9","school":"4"},{"start_time":1552074936047,"click_time":1552074936855,"finger_time":1552074936494,"fix_duration":390.0516122831633,"trial":21,"RT":447,"MT":361,"sideResp":1,"stimulus":"img/250/equaldotsize/L/3_Ratio_250_L_8_R_2.png","xmouse":[773,773,773,773,773,773,773,773,773,773,773,773,773,773,773,773,773,773,773,773,761,752,739,726,710,666,641,623,610,594,590,580,569,553,544,531,530,527,517,511,490],"ymouse":[511,511,511,511,511,511,511,511,511,511,511,511,511,511,511,511,511,511,511,511,496,483,467,451,429,380,352,332,317,287,275,257,237,217,197,164,153,141,118,103,66],"timestamp_mouse":[11,35,47,67,88,108,127,149,168,187,208,228,248,268,287,307,328,347,367,387,407,427,447,467,487,507,527,547,568,589,607,628,647,667,687,708,728,748,768,788,808],"xSR":741.5,"ySR":469.95,"xT1":424.9,"yT1":0,"xT2":1058.1,"yT2":0,"toosoon":0,"cond_shown":"equaldotsize","ratio_trial":250,"smaller_num":"2","larger_num":"8","correct_side":1,"subjID":"luna cortes davila 25","gender":"1","age":"9","school":"4"},{"start_time":1552074937967,"click_time":1552074938755,"finger_time":1552074938395,"fix_duration":250,"trial":22,"RT":428,"MT":360,"sideResp":1,"stimulus":"img/250/randomdotsizeEA/L/15_Ratio_250_L_12_R_3.png","xmouse":[786,786,786,786,786,784,784,784,784,784,784,786,789,792,794,794,794,794,793,780,763,738,697,639,547,539,538,538,538,534,520,515,503,499,499,499,500,502,503,504],"ymouse":[531,531,531,531,531,530,530,530,530,530,530,530,530,530,530,531,531,531,532,526,515,497,440,364,280,271,264,255,235,176,145,140,123,118,112,110,106,104,100,98],"timestamp_mouse":[7,35,48,68,89,108,129,147,169,188,208,227,248,267,287,308,328,347,367,387,408,428,448,467,488,507,528,548,568,588,607,628,648,667,687,707,728,747,768,788],"xSR":741.5,"ySR":469.95,"xT1":424.9,"yT1":0,"xT2":1058.1,"yT2":0,"toosoon":0,"cond_shown":"randomdotsizeEA","ratio_trial":250,"smaller_num":"3","larger_num":"12","correct_side":1,"subjID":"luna cortes davila 25","gender":"1","age":"9","school":"4"},{"start_time":1552074946646,"click_time":1552074947914,"finger_time":1552074947614,"fix_duration":1170.2036671890287,"trial":23,"RT":968,"MT":300,"sideResp":1,"stimulus":"img/500/equaldotsize/L/13_Ratio_500_L_12_R_6.png","xmouse":[790,790,790,790,790,790,790,790,790,790,790,790,790,790,790,790,790,790,790,790,790,790,790,790,790,790,790,790,790,790,790,790,790,790,790,790,790,790,790,790,790,790,790,790,790,790,790,779,741,684,607,425,369,340,330,330,333,334,335,337,342,381,417,429],"ymouse":[526,526,526,526,526,526,526,526,526,526,526,526,526,526,526,526,526,526,526,526,526,526,526,526,526,526,526,526,526,526,526,526,526,526,526,526,526,526,526,526,526,526,526,526,526,526,526,510,453,381,302,145,100,76,52,37,24,22,21,19,16,14,13,13],"timestamp_mouse":[8,35,48,68,88,108,129,148,169,188,209,230,250,269,288,308,329,349,369,388,408,430,450,469,489,509,529,548,568,588,609,628,649,668,689,709,729,748,768,789,809,830,850,869,889,909,929,948,968,988,1008,1028,1048,1068,1089,1108,1129,1149,1169,1189,1208,1228,1249,1268],"xSR":741.5,"ySR":469.95,"xT1":424.9,"yT1":0,"xT2":1058.1,"yT2":0,"toosoon":0,"cond_shown":"equaldotsize","ratio_trial":500,"smaller_num":"6","larger_num":"12","correct_side":1,"subjID":"luna cortes davila 25","gender":"1","age":"9","school":"4"},{"start_time":1552074951747,"click_time":1552074952215,"finger_time":1552074952096,"fix_duration":250,"trial":24,"RT":349,"MT":119,"sideResp":1,"stimulus":"img/750/equaldotsize/R/3_Ratio_750_L_15_R_20.png","xmouse":[789,789,789,789,788,788,786,786,786,786,786,786,786,786,786,786,784,748,719,684,643,594,532,519],"ymouse":[504,504,504,504,503,499,494,491,491,491,491,491,491,491,491,491,489,428,377,316,254,183,88,71],"timestamp_mouse":[7,40,49,68,87,108,128,147,169,188,207,228,247,268,287,307,327,349,368,389,408,427,447,468],"xSR":741.5,"ySR":469.95,"xT1":424.9,"yT1":0,"xT2":1058.1,"yT2":0,"toosoon":0,"cond_shown":"equaldotsize","ratio_trial":750,"smaller_num":"15","larger_num":"20","correct_side":2,"subjID":"luna cortes davila 25","gender":"1","age":"9","school":"4"},{"start_time":1552074953899,"click_time":1552074954314,"finger_time":1552074954114,"fix_duration":943.0202207881936,"trial":25,"RT":215,"MT":200,"sideResp":2,"stimulus":"img/900/equaldotsize/R/5_Ratio_900_L_9_R_10.png","xmouse":[810,810,810,810,810,810,810,810,815,834,856,883,908,932,989,1044,1056,1078,1083,1087,1094],"ymouse":[506,506,506,506,506,506,506,506,503,489,472,449,419,383,276,177,158,119,109,101,97],"timestamp_mouse":[17,41,55,76,95,115,135,155,176,196,215,235,255,275,295,315,335,355,375,395,415],"xSR":741.5,"ySR":469.95,"xT1":424.9,"yT1":0,"xT2":1058.1,"yT2":0,"toosoon":0,"cond_shown":"equaldotsize","ratio_trial":900,"smaller_num":"9","larger_num":"10","correct_side":2,"subjID":"luna cortes davila 25","gender":"1","age":"9","school":"4"},{"start_time":1552074960808,"click_time":1552074964216,"finger_time":1552074962914,"fix_duration":373.0474691521193,"trial":26,"RT":2106,"MT":1302,"sideResp":2,"stimulus":"img/250/equaldotanddens/R/8_Ratio_250_L_1_R_4.png","xmouse":[812,812,812,812,812,812,812,812,812,812,812,812,812,812,812,812,812,812,812,812,812,812,812,812,812,812,812,812,812,812,812,812,812,812,812,812,812,812,812,812,812,812,812,812,812,812,812,812,812,812,812,812,812,812,812,812,812,812,812,812,812,812,812,812,812,812,812,812,812,812,812,812,812,812,812,812,812,812,812,812,812,812,812,812,812,812,812,812,812,812,812,812,812,812,812,812,812,811,808,808,808,808,808,815,824,850,862,862,862,862,862,862,862,862,857,845,834,828,821,812,799,797,797,797,797,797,797,797,797,797,797,797,797,797,797,795,793,793,793,793,793,808,877,930,948,986,986,986,986,986,986,986,1267,1269,1269,1266,1262,1254,1224,1200,1169,1166,1164,1161,1160,1159,1159,1159,1159,1159,1151],"ymouse":[569,569,569,569,569,569,569,569,569,569,569,569,569,569,569,569,569,569,569,569,569,569,569,569,569,569,569,569,569,569,569,569,569,569,569,569,569,569,569,569,569,569,569,569,569,569,569,569,569,569,569,569,569,569,569,569,569,569,569,569,569,569,569,569,569,569,569,569,569,569,569,569,569,569,569,569,569,569,569,569,569,569,569,569,569,569,569,569,569,569,569,569,569,569,569,569,569,567,564,563,563,560,554,542,530,499,486,485,485,485,485,485,484,484,484,484,484,485,488,501,516,518,519,519,519,519,519,519,519,519,519,519,519,519,519,520,522,523,523,523,523,511,439,356,265,105,105,105,105,105,105,105,29,65,84,90,94,97,105,107,109,102,87,69,58,55,55,55,55,55,54],"timestamp_mouse":[9,34,47,66,87,107,126,148,167,186,206,227,246,267,286,307,326,347,368,387,406,426,447,466,487,506,526,548,566,586,607,627,648,666,687,707,727,747,768,787,806,827,847,867,888,907,928,947,967,987,1007,1026,1047,1068,1086,1107,1127,1148,1166,1186,1207,1227,1246,1267,1287,1306,1328,1346,1367,1386,1407,1428,1447,1467,1487,1507,1526,1548,1568,1588,1607,1627,1647,1667,1686,1707,1727,1748,1767,1787,1807,1827,1848,1867,1887,1908,1928,1946,1966,1986,2007,2026,2046,2066,2087,2106,2127,2147,2166,2187,2207,2229,2247,2266,2287,2306,2326,2346,2366,2386,2406,2426,2447,2467,2486,2507,2527,2546,2568,2587,2607,2628,2646,2666,2686,2706,2726,2747,2766,2786,2807,2826,2847,2867,2886,2907,2927,2946,2967,2986,3006,3026,3047,3066,3087,3106,3126,3146,3166,3186,3207,3227,3246,3266,3288,3306,3328,3348,3367,3386,3408],"xSR":741.5,"ySR":469.95,"xT1":424.9,"yT1":0,"xT2":1058.1,"yT2":0,"toosoon":0,"cond_shown":"equaldotanddens","ratio_trial":250,"smaller_num":"1","larger_num":"4","correct_side":2,"subjID":"luna cortes davila 25","gender":"1","age":"9","school":"4"},{"start_time":1552074965694,"click_time":1552074968915,"finger_time":1552074968395,"fix_duration":517.2614127306356,"trial":27,"RT":2701,"MT":520,"sideResp":2,"stimulus":"img/900/equaldotsize/L/4_Ratio_900_L_20_R_18.png","xmouse":[779,779,779,779,779,779,779,779,779,779,779,779,779,779,779,779,779,779,779,779,779,779,779,779,779,779,779,779,779,779,779,779,779,779,779,779,779,779,779,779,779,779,779,779,779,779,779,779,779,779,779,779,779,779,779,779,779,779,779,779,779,779,779,779,779,779,779,779,779,779,779,779,779,779,779,779,779,779,779,779,779,779,779,779,779,779,779,779,779,779,779,779,779,779,779,779,779,779,779,779,779,779,779,779,779,779,779,779,779,779,779,779,779,779,779,779,779,779,779,779,779,779,779,779,779,779,779,779,779,779,779,779,781,795,812,824,834,839,839,839,839,849,864,878,890,919,957,1094,1159,1190,1202,1207,1208,1208,1208,1208,1208,1202,1195,1186,1168,1148],"ymouse":[529,529,529,529,529,529,529,529,529,529,529,529,529,529,529,529,529,529,529,529,529,529,529,529,529,529,529,529,529,529,529,529,529,529,529,529,529,529,529,529,529,529,529,529,529,529,529,529,529,529,529,529,529,529,529,529,529,529,529,529,529,529,529,529,529,529,529,529,529,529,529,529,529,529,529,529,529,529,529,529,529,529,529,529,529,529,529,529,529,529,529,529,529,529,529,529,529,529,529,529,529,529,529,529,529,529,529,529,529,529,529,529,529,529,529,529,529,529,529,529,529,529,529,529,529,529,529,529,529,529,529,529,520,498,471,449,436,426,425,425,423,394,358,336,313,281,245,160,116,93,82,75,70,70,70,70,70,62,60,59,56,56],"timestamp_mouse":[8,34,40,60,80,101,121,142,161,182,200,220,240,261,281,301,321,340,361,380,400,420,440,461,482,501,520,541,560,581,600,620,640,660,680,701,720,741,760,780,801,820,840,861,882,900,920,941,962,981,1000,1021,1041,1061,1081,1101,1120,1140,1161,1182,1201,1220,1240,1260,1280,1301,1320,1341,1361,1381,1400,1421,1441,1460,1480,1501,1520,1542,1562,1580,1601,1621,1640,1660,1681,1700,1722,1740,1760,1781,1800,1820,1840,1860,1880,1900,1920,1941,1962,1981,2000,2020,2042,2060,2080,2100,2120,2142,2160,2180,2200,2221,2240,2260,2280,2302,2321,2341,2362,2382,2401,2421,2440,2461,2480,2500,2520,2540,2560,2581,2600,2621,2641,2660,2682,2701,2721,2741,2761,2781,2801,2822,2841,2861,2881,2902,2921,2941,2961,2981,3002,3021,3041,3062,3082,3101,3122,3141,3162,3182,3201,3221],"xSR":741.5,"ySR":469.95,"xT1":424.9,"yT1":0,"xT2":1058.1,"yT2":0,"toosoon":0,"cond_shown":"equaldotsize","ratio_trial":900,"smaller_num":"18","larger_num":"20","correct_side":1,"subjID":"luna cortes davila 25","gender":"1","age":"9","school":"4"},{"start_time":1552074970206,"click_time":1552074971035,"finger_time":1552074970616,"fix_duration":250,"trial":28,"RT":410,"MT":419,"sideResp":1,"stimulus":"img/900/equaldotanddens/L/1_Ratio_900_L_10_R_9.png","xmouse":[779,779,779,779,779,779,779,779,779,779,779,779,779,779,779,779,779,779,780,780,757,731,697,633,619,594,593,592,590,586,582,575,571,567,563,556,539,527,513,494,478,464],"ymouse":[535,535,535,535,535,535,535,535,535,535,535,535,535,535,535,535,535,535,534,530,466,419,369,304,294,268,263,255,245,235,228,214,208,201,197,187,171,160,148,133,114,74],"timestamp_mouse":[11,39,49,69,89,110,130,150,170,190,210,230,250,269,290,310,329,349,369,389,410,429,450,469,489,510,529,549,570,589,609,629,650,670,690,709,729,749,769,790,809,829],"xSR":741.5,"ySR":469.95,"xT1":424.9,"yT1":0,"xT2":1058.1,"yT2":0,"toosoon":0,"cond_shown":"equaldotanddens","ratio_trial":900,"smaller_num":"9","larger_num":"10","correct_side":1,"subjID":"luna cortes davila 25","gender":"1","age":"9","school":"4"},{"start_time":1552074973656,"click_time":1552074974436,"finger_time":1552074973795,"fix_duration":439.196209315893,"trial":29,"RT":139,"MT":641,"sideResp":2,"stimulus":"img/250/randomdotsizeEA/L/3_Ratio_250_L_8_R_2.png","xmouse":[758,761,761,765,768,768,769,769,769,770,770,771,771,771,771,780,785,793,800,802,802,796,792,792,818,841,864,884,904,944,975,988,998,1009,1023,1039,1044,1048,1053,1063],"ymouse":[539,534,534,522,502,489,470,454,443,435,434,434,434,434,432,415,400,381,358,290,225,200,185,173,133,120,112,110,108,101,97,94,90,86,83,79,78,78,78,75],"timestamp_mouse":[1,32,40,59,79,99,120,139,159,179,199,220,240,260,279,299,320,339,359,379,400,419,440,459,479,499,520,540,560,579,599,619,639,659,679,699,719,739,760,779],"xSR":741.5,"ySR":469.95,"xT1":424.9,"yT1":0,"xT2":1058.1,"yT2":0,"toosoon":0,"cond_shown":"randomdotsizeEA","ratio_trial":250,"smaller_num":"2","larger_num":"8","correct_side":1,"subjID":"luna cortes davila 25","gender":"1","age":"9","school":"4"},{"start_time":1552074976989,"click_time":1552074977655,"finger_time":1552074977336,"fix_duration":250,"trial":30,"RT":347,"MT":319,"sideResp":1,"stimulus":"img/500/equaldotanddens/L/5_Ratio_500_L_4_R_2.png","xmouse":[791,791,791,791,791,791,791,791,791,791,791,791,791,791,788,779,766,741,664,606,559,538,535,540,541,541,541,542,542,542,542,542,530,517],"ymouse":[546,546,546,546,546,546,546,546,546,546,546,546,546,546,535,513,483,429,300,231,177,149,115,103,96,90,86,80,79,79,79,79,77,77],"timestamp_mouse":[24,26,46,66,87,106,126,146,166,186,207,226,246,266,286,306,326,347,366,386,406,427,447,466,486,507,527,548,566,587,606,626,647,666],"xSR":741.5,"ySR":469.95,"xT1":424.9,"yT1":0,"xT2":1058.1,"yT2":0,"toosoon":0,"cond_shown":"equaldotanddens","ratio_trial":500,"smaller_num":"2","larger_num":"4","correct_side":1,"subjID":"luna cortes davila 25","gender":"1","age":"9","school":"4"},{"start_time":1552074985434,"click_time":1552074986156,"finger_time":1552074985815,"fix_duration":855.6947360783794,"trial":31,"RT":381,"MT":341,"sideResp":1,"stimulus":"img/250/equaldotsize/L/7_Ratio_250_L_8_R_2.png","xmouse":[809,809,809,809,809,809,809,809,809,809,809,809,809,809,809,809,809,796,777,745,699,613,591,579,570,559,548,505,490,482,480,480,480,480,480,480,480],"ymouse":[520,520,520,520,520,520,520,520,520,520,520,520,520,520,520,520,520,511,489,454,405,292,250,223,201,182,164,122,111,107,104,104,104,104,104,101,95],"timestamp_mouse":[8,21,41,62,81,102,122,142,161,182,201,221,242,261,281,301,321,342,361,381,401,422,441,461,481,502,521,541,561,581,602,622,641,661,681,701,721],"xSR":741.5,"ySR":469.95,"xT1":424.9,"yT1":0,"xT2":1058.1,"yT2":0,"toosoon":0,"cond_shown":"equaldotsize","ratio_trial":250,"smaller_num":"2","larger_num":"8","correct_side":1,"subjID":"luna cortes davila 25","gender":"1","age":"9","school":"4"},{"start_time":1552074988599,"click_time":1552074989215,"finger_time":1552074988935,"fix_duration":642.4791228239096,"trial":32,"RT":336,"MT":280,"sideResp":1,"stimulus":"img/750/equaldotanddens/L/6_Ratio_750_L_24_R_18.png","xmouse":[780,780,780,780,780,780,780,780,780,780,780,780,780,780,780,763,724,679,602,575,562,558,556,543,538,536,534,532,522,518,517],"ymouse":[522,522,522,522,522,522,522,522,522,522,522,522,522,522,522,504,455,402,299,265,241,226,211,172,157,149,145,137,113,104,99],"timestamp_mouse":[27,36,56,76,96,117,137,156,177,197,217,237,257,276,297,316,336,356,376,396,416,437,457,476,496,516,536,556,577,596,616],"xSR":741.5,"ySR":469.95,"xT1":424.9,"yT1":0,"xT2":1058.1,"yT2":0,"toosoon":0,"cond_shown":"equaldotanddens","ratio_trial":750,"smaller_num":"18","larger_num":"24","correct_side":1,"subjID":"luna cortes davila 25","gender":"1","age":"9","school":"4"},{"start_time":1552074991415,"click_time":1552074992075,"finger_time":1552074991715,"fix_duration":1196.3092448544978,"trial":33,"RT":300,"MT":360,"sideResp":1,"stimulus":"img/500/randomdotsizeEA/R/12_Ratio_500_L_1_R_2.png","xmouse":[775,775,775,775,775,775,775,775,775,775,775,775,775,769,752,723,678,650,629,621,610,591,575,552,542,537,535,535,535,535,535,533,527,501],"ymouse":[526,526,526,526,526,526,526,526,526,526,526,526,524,515,491,449,396,371,349,333,308,264,231,196,175,161,153,147,137,127,114,98,84,52],"timestamp_mouse":[8,21,40,61,81,101,120,141,161,180,201,220,240,260,280,300,320,341,360,380,400,421,440,461,480,500,520,540,561,580,600,620,640,660],"xSR":741.5,"ySR":469.95,"xT1":424.9,"yT1":0,"xT2":1058.1,"yT2":0,"toosoon":0,"cond_shown":"randomdotsizeEA","ratio_trial":500,"smaller_num":"1","larger_num":"2","correct_side":2,"subjID":"luna cortes davila 25","gender":"1","age":"9","school":"4"},{"start_time":1552074993934,"click_time":1552074994876,"finger_time":1552074994515,"fix_duration":578.5762242992364,"trial":34,"RT":581,"MT":361,"sideResp":2,"stimulus":"img/750/randomdotsizeEA/R/15_Ratio_750_L_9_R_12.png","xmouse":[797,797,797,797,797,797,797,797,797,797,797,797,797,797,797,797,797,797,797,797,797,799,805,807,809,810,811,820,837,858,890,917,958,975,988,1000,1012,1037,1047,1059,1070,1077,1084,1097,1102,1105,1105,1098],"ymouse":[496,496,496,496,496,496,496,496,496,496,496,496,496,496,496,496,496,496,496,496,496,496,495,495,495,495,494,490,481,464,440,415,367,347,327,311,295,245,233,221,210,202,190,161,146,128,106,50],"timestamp_mouse":[8,22,41,62,82,101,122,141,161,182,202,221,243,261,281,300,322,341,361,381,402,421,442,461,481,501,521,541,562,581,602,621,641,661,681,701,722,742,761,781,801,822,842,861,881,901,922,941],"xSR":741.5,"ySR":469.95,"xT1":424.9,"yT1":0,"xT2":1058.1,"yT2":0,"toosoon":0,"cond_shown":"randomdotsizeEA","ratio_trial":750,"smaller_num":"9","larger_num":"12","correct_side":2,"subjID":"luna cortes davila 25","gender":"1","age":"9","school":"4"},{"start_time":1552074996647,"click_time":1552074998255,"finger_time":1552074996695,"fix_duration":250,"trial":35,"RT":48,"MT":1560,"sideResp":2,"stimulus":"img/500/randomdotsizeEA/L/13_Ratio_500_L_12_R_6.png","xmouse":[807,827,848,863,863,863,863,863,863,862,858,844,839,835,831,827,826,821,821,821,821,821,821,821,821,821,821,821,821,821,820,818,803,796,787,780,777,777,777,777,777,777,777,777,777,777,777,777,777,777,777,777,777,777,777,777,777,777,777,777,780,832,925,946,967,989,996,997,1000,1007,1022,1028,1030,1030,1030,1030,1038,1059,1072,1091,1112],"ymouse":[522,548,573,591,593,593,593,593,593,593,591,573,563,557,548,543,539,530,529,529,529,529,529,529,529,529,529,529,529,529,528,528,528,528,526,524,523,523,523,523,523,523,523,523,523,523,523,523,523,523,523,523,523,523,523,523,523,523,523,523,520,488,415,376,332,290,266,247,234,215,187,179,177,177,177,175,166,142,130,104,76],"timestamp_mouse":[9,28,48,68,88,109,128,150,169,189,209,229,248,268,289,308,328,348,368,389,409,429,448,469,488,509,528,548,568,589,608,628,648,668,688,708,728,748,768,788,808,829,848,868,889,909,929,948,968,988,1008,1028,1049,1069,1088,1109,1128,1148,1170,1190,1208,1228,1249,1268,1289,1309,1328,1348,1369,1388,1408,1428,1448,1469,1489,1508,1529,1548,1568,1588,1608],"xSR":741.5,"ySR":469.95,"xT1":424.9,"yT1":0,"xT2":1058.1,"yT2":0,"toosoon":0,"cond_shown":"randomdotsizeEA","ratio_trial":500,"smaller_num":"6","larger_num":"12","correct_side":1,"subjID":"luna cortes davila 25","gender":"1","age":"9","school":"4"},{"start_time":1552074999528,"click_time":1552075000176,"finger_time":1552074999956,"fix_duration":250,"trial":36,"RT":428,"MT":220,"sideResp":1,"stimulus":"img/750/equaldotanddens/L/8_Ratio_750_L_4_R_3.png","xmouse":[819,819,819,819,819,819,819,819,819,819,819,819,819,819,819,819,819,815,803,793,779,764,735,642,578,543,518,501,493,487,479,465,447],"ymouse":[488,488,488,488,488,488,488,488,488,488,488,488,488,488,488,488,488,488,486,480,470,456,431,340,276,225,197,180,172,162,148,122,95],"timestamp_mouse":[20,34,47,68,87,107,128,147,167,188,208,227,247,267,287,307,328,347,367,387,407,428,448,467,488,507,527,547,567,587,608,628,648],"xSR":741.5,"ySR":469.95,"xT1":424.9,"yT1":0,"xT2":1058.1,"yT2":0,"toosoon":0,"cond_shown":"equaldotanddens","ratio_trial":750,"smaller_num":"3","larger_num":"4","correct_side":1,"subjID":"luna cortes davila 25","gender":"1","age":"9","school":"4"},{"start_time":1552075006607,"click_time":1552075007015,"finger_time":1552075006915,"fix_duration":250,"trial":37,"RT":308,"MT":100,"sideResp":1,"stimulus":"img/750/equaldotsize/L/9_Ratio_750_L_4_R_3.png","xmouse":[806,806,806,806,806,806,806,806,806,806,806,806,806,806,805,789,752,701,640,549,495],"ymouse":[504,504,504,504,504,504,504,504,504,504,504,504,504,504,502,452,371,288,213,131,86],"timestamp_mouse":[10,36,48,69,89,109,128,148,169,188,209,229,249,269,289,308,328,348,369,388,408],"xSR":741.5,"ySR":469.95,"xT1":424.9,"yT1":0,"xT2":1058.1,"yT2":0,"toosoon":0,"cond_shown":"equaldotsize","ratio_trial":750,"smaller_num":"3","larger_num":"4","correct_side":1,"subjID":"luna cortes davila 25","gender":"1","age":"9","school":"4"},{"start_time":1552075008389,"click_time":1552075009795,"finger_time":1552075009615,"fix_duration":432.3503731784838,"trial":38,"RT":1226,"MT":180,"sideResp":2,"stimulus":"img/250/equaldotanddens/R/12_Ratio_250_L_5_R_20.png","xmouse":[802,802,802,802,802,802,802,802,802,802,802,802,802,802,802,802,802,802,802,802,802,802,802,802,802,802,802,802,802,802,802,802,802,802,802,802,802,802,802,802,802,802,802,802,802,802,802,802,802,802,802,802,802,802,802,802,802,802,802,802,814,893,962,1004,1011,1011,1021,1043,1058,1074,1081],"ymouse":[494,494,494,494,494,494,494,494,494,494,494,494,494,494,494,494,494,494,494,494,494,494,494,494,494,494,494,494,494,494,494,494,494,494,494,494,494,494,494,494,494,494,494,494,494,494,494,494,494,494,494,494,494,494,494,494,494,494,494,494,488,455,416,386,367,353,300,224,180,142,88],"timestamp_mouse":[6,34,46,66,86,106,126,146,167,187,206,226,247,267,286,307,326,347,368,387,407,427,446,466,487,507,526,547,566,586,606,626,647,667,688,706,727,747,766,786,806,826,846,867,887,906,927,947,966,987,1007,1027,1046,1067,1086,1106,1127,1146,1166,1186,1206,1226,1246,1266,1286,1306,1327,1347,1366,1386,1406],"xSR":741.5,"ySR":469.95,"xT1":424.9,"yT1":0,"xT2":1058.1,"yT2":0,"toosoon":0,"cond_shown":"equaldotanddens","ratio_trial":250,"smaller_num":"5","larger_num":"20","correct_side":2,"subjID":"luna cortes davila 25","gender":"1","age":"9","school":"4"},{"start_time":1552075011266,"click_time":1552075012176,"finger_time":1552075011856,"fix_duration":250,"trial":39,"RT":590,"MT":320,"sideResp":2,"stimulus":"img/900/randomdotsizeEA/R/6_Ratio_900_L_9_R_10.png","xmouse":[809,809,809,809,809,809,809,809,809,809,809,809,809,809,809,809,809,809,809,809,809,809,809,809,809,809,809,809,819,846,880,913,930,951,964,981,999,1019,1024,1025,1026,1026,1026,1040,1055,1070],"ymouse":[499,499,499,499,499,499,499,499,499,499,499,499,499,499,499,499,499,499,499,499,499,499,499,499,499,499,499,497,476,437,397,352,327,288,263,232,201,165,154,149,144,141,139,123,108,97],"timestamp_mouse":[11,31,49,70,90,110,129,150,169,191,209,230,250,269,290,310,329,349,370,390,410,430,450,469,490,509,530,551,569,590,609,629,649,670,689,709,729,750,769,789,809,829,849,869,889,910],"xSR":741.5,"ySR":469.95,"xT1":424.9,"yT1":0,"xT2":1058.1,"yT2":0,"toosoon":0,"cond_shown":"randomdotsizeEA","ratio_trial":900,"smaller_num":"9","larger_num":"10","correct_side":2,"subjID":"luna cortes davila 25","gender":"1","age":"9","school":"4"},{"start_time":1552075014006,"click_time":1552075014656,"finger_time":1552075014376,"fix_duration":250,"trial":40,"RT":370,"MT":280,"sideResp":2,"stimulus":"img/750/equaldotanddens/L/1_Ratio_750_L_20_R_15.png","xmouse":[804,804,804,804,804,804,804,804,804,804,804,804,804,804,804,804,804,815,838,874,958,982,996,1003,1004,1005,1006,1009,1012,1016,1024,1050,1064],"ymouse":[478,478,478,478,478,478,478,478,478,478,478,478,478,478,478,478,478,471,456,438,387,366,352,329,317,277,221,202,192,182,166,119,99],"timestamp_mouse":[17,39,49,69,89,109,129,149,170,189,209,230,249,270,289,310,330,349,370,389,410,429,451,469,489,509,529,549,571,589,609,629,649],"xSR":741.5,"ySR":469.95,"xT1":424.9,"yT1":0,"xT2":1058.1,"yT2":0,"toosoon":0,"cond_shown":"equaldotanddens","ratio_trial":750,"smaller_num":"15","larger_num":"20","correct_side":1,"subjID":"luna cortes davila 25","gender":"1","age":"9","school":"4"},{"start_time":1552075016374,"click_time":1552075017135,"finger_time":1552075016737,"fix_duration":937.7790565866834,"trial":41,"RT":363,"MT":398,"sideResp":1,"stimulus":"img/900/equaldotsize/L/2_Ratio_900_L_20_R_18.png","xmouse":[816,816,816,816,816,816,816,815,812,812,811,811,811,811,810,806,795,780,735,703,675,653,645,643,643,643,643,643,643,643,643,643,643,643,625,597,559,520,486],"ymouse":[499,499,499,499,499,499,499,498,498,498,498,498,498,498,498,497,491,481,433,387,332,273,243,227,227,227,227,227,227,227,227,227,227,225,198,172,139,110,90],"timestamp_mouse":[8,21,46,61,81,102,121,142,161,182,201,222,241,262,282,301,321,341,363,381,401,421,442,461,482,501,521,542,561,581,602,622,641,661,681,701,721,741,761],"xSR":741.5,"ySR":469.95,"xT1":424.9,"yT1":0,"xT2":1058.1,"yT2":0,"toosoon":0,"cond_shown":"equaldotsize","ratio_trial":900,"smaller_num":"18","larger_num":"20","correct_side":1,"subjID":"luna cortes davila 25","gender":"1","age":"9","school":"4"},{"start_time":1552075019308,"click_time":1552075020455,"finger_time":1552075019716,"fix_duration":1252.9462558214364,"trial":42,"RT":408,"MT":739,"sideResp":1,"stimulus":"img/250/equaldotanddens/L/1_Ratio_250_L_8_R_2.png","xmouse":[788,788,788,788,788,788,788,788,788,788,788,788,788,788,788,790,804,826,834,841,844,845,845,845,845,845,845,845,845,845,845,845,840,827,812,789,686,650,625,608,599,591,589,585,579,572,565,555,551,548,545,539,537,536,535,534,526,521],"ymouse":[517,517,517,517,517,517,517,517,517,517,517,517,517,517,517,517,506,492,487,483,480,479,479,479,479,479,479,479,479,479,479,479,474,467,452,420,253,187,138,113,98,85,82,75,68,61,52,47,47,46,46,46,47,47,47,47,45,45],"timestamp_mouse":[9,38,47,68,87,107,128,148,168,188,208,228,247,268,288,308,327,348,367,387,408,428,447,467,487,508,527,548,568,587,608,627,647,667,687,707,728,747,767,787,807,828,847,868,888,908,927,947,967,987,1007,1028,1047,1067,1088,1107,1127,1147],"xSR":741.5,"ySR":469.95,"xT1":424.9,"yT1":0,"xT2":1058.1,"yT2":0,"toosoon":0,"cond_shown":"equaldotanddens","ratio_trial":250,"smaller_num":"2","larger_num":"8","correct_side":1,"subjID":"luna cortes davila 25","gender":"1","age":"9","school":"4"},{"start_time":1552075022706,"click_time":1552075023396,"finger_time":1552075023096,"fix_duration":448.4589500302422,"trial":43,"RT":390,"MT":300,"sideResp":1,"stimulus":"img/250/equaldotsize/L/1_Ratio_250_L_8_R_2.png","xmouse":[779,779,779,779,779,779,779,779,779,779,779,779,779,779,779,779,779,779,770,748,722,666,638,612,589,582,573,562,558,558,558,558,558,558,499],"ymouse":[522,522,522,522,522,522,522,522,522,522,522,522,522,522,522,522,522,522,487,409,327,188,132,94,61,53,37,9,1,1,1,1,1,1,3],"timestamp_mouse":[10,30,49,70,89,110,129,149,170,189,210,229,249,269,289,310,330,349,369,390,409,430,449,469,489,509,529,550,569,590,609,629,650,669,690],"xSR":741.5,"ySR":469.95,"xT1":424.9,"yT1":0,"xT2":1058.1,"yT2":0,"toosoon":0,"cond_shown":"equaldotsize","ratio_trial":250,"smaller_num":"2","larger_num":"8","correct_side":1,"subjID":"luna cortes davila 25","gender":"1","age":"9","school":"4"},{"start_time":1552075025432,"click_time":1552075026035,"finger_time":1552075025816,"fix_duration":1015.5203110042805,"trial":44,"RT":384,"MT":219,"sideResp":1,"stimulus":"img/500/equaldotsize/R/3_Ratio_500_L_10_R_20.png","xmouse":[792,792,792,792,792,792,792,792,792,792,792,792,792,792,792,792,792,790,778,756,729,624,576,554,544,540,539,538,536,532,524],"ymouse":[528,528,528,528,528,528,528,528,528,528,528,528,528,528,528,528,528,528,502,455,388,214,146,117,101,94,93,92,83,66,44],"timestamp_mouse":[10,34,43,64,84,103,123,144,163,183,203,223,244,264,283,303,323,344,363,384,403,423,443,463,484,504,523,544,563,584,603],"xSR":741.5,"ySR":469.95,"xT1":424.9,"yT1":0,"xT2":1058.1,"yT2":0,"toosoon":0,"cond_shown":"equaldotsize","ratio_trial":500,"smaller_num":"10","larger_num":"20","correct_side":2,"subjID":"luna cortes davila 25","gender":"1","age":"9","school":"4"},{"start_time":1552075028136,"click_time":1552075028775,"finger_time":1552075028456,"fix_duration":880.5056453752462,"trial":45,"RT":320,"MT":319,"sideResp":2,"stimulus":"img/500/equaldotsize/R/2_Ratio_500_L_3_R_6.png","xmouse":[778,778,778,778,778,778,778,778,778,778,778,778,783,801,925,962,975,979,981,1008,1077,1120,1137,1139,1139,1139,1137,1135,1132,1120,1114],"ymouse":[506,506,506,506,506,506,506,506,506,506,506,506,505,496,429,410,398,393,386,327,219,166,150,148,148,148,148,146,140,106,92],"timestamp_mouse":[39,60,80,100,119,139,159,180,200,219,241,260,281,300,320,339,360,380,400,420,439,460,479,500,519,539,560,580,600,620,639],"xSR":741.5,"ySR":469.95,"xT1":424.9,"yT1":0,"xT2":1058.1,"yT2":0,"toosoon":0,"cond_shown":"equaldotsize","ratio_trial":500,"smaller_num":"3","larger_num":"6","correct_side":2,"subjID":"luna cortes davila 25","gender":"1","age":"9","school":"4"},{"start_time":1552075033562,"click_time":1552075034435,"finger_time":1552075034036,"fix_duration":1043.1755652545844,"trial":46,"RT":474,"MT":399,"sideResp":1,"stimulus":"img/250/randomdotsizeEA/L/3_Ratio_250_L_8_R_2.png","xmouse":[770,770,770,770,770,770,770,770,770,770,770,770,770,770,770,770,770,770,770,770,770,770,765,757,750,735,726,698,676,651,620,619,619,619,618,615,607,598,591,580,559,544,524,501],"ymouse":[543,543,543,543,543,543,543,543,543,543,543,543,543,543,543,543,543,543,543,543,520,499,478,459,446,419,400,353,320,286,235,225,219,212,202,178,156,143,134,126,113,107,101,93],"timestamp_mouse":[14,34,55,74,94,115,135,155,175,195,215,234,255,275,293,313,334,353,375,393,414,433,455,474,494,514,533,553,574,593,614,633,654,675,694,713,735,753,774,795,813,833,854,873],"xSR":741.5,"ySR":469.95,"xT1":424.9,"yT1":0,"xT2":1058.1,"yT2":0,"toosoon":0,"cond_shown":"randomdotsizeEA","ratio_trial":250,"smaller_num":"2","larger_num":"8","correct_side":1,"subjID":"luna cortes davila 25","gender":"1","age":"9","school":"4"},{"start_time":1552075036646,"click_time":1552075037277,"finger_time":1552075036977,"fix_duration":1429.94963707743,"trial":47,"RT":331,"MT":300,"sideResp":2,"stimulus":"img/900/equaldotanddens/R/15_Ratio_900_L_9_R_10.png","xmouse":[782,782,782,782,782,782,782,782,782,786,787,794,798,803,807,812,845,874,899,912,922,930,970,994,1037,1061,1074,1074,1074,1076,1078,1089],"ymouse":[535,535,535,535,535,535,535,535,535,533,530,518,511,502,495,484,415,345,286,264,258,253,217,196,160,142,134,134,134,133,126,99],"timestamp_mouse":[10,35,50,70,91,110,131,151,170,189,211,233,250,269,289,310,331,349,370,389,410,430,449,469,491,510,530,550,570,590,610,631],"xSR":741.5,"ySR":469.95,"xT1":424.9,"yT1":0,"xT2":1058.1,"yT2":0,"toosoon":0,"cond_shown":"equaldotanddens","ratio_trial":900,"smaller_num":"9","larger_num":"10","correct_side":2,"subjID":"luna cortes davila 25","gender":"1","age":"9","school":"4"},{"start_time":1552075049364,"click_time":1552075050576,"finger_time":1552075049856,"fix_duration":1407.0242683583165,"trial":48,"RT":492,"MT":720,"sideResp":1,"stimulus":"img/250/randomdotsizeEA/L/2_Ratio_250_L_16_R_4.png","xmouse":[803,803,803,803,803,803,803,803,803,803,803,803,803,803,803,803,803,803,803,803,803,803,803,803,803,803,804,819,830,847,872,895,929,940,948,951,952,952,952,950,947,936,884,832,775,707,647,552,528,515,512,506,484,473,468,466,465,465,465,480,506],"ymouse":[478,478,478,478,478,478,478,478,478,478,478,478,478,478,478,478,478,478,478,478,478,478,478,474,455,435,414,370,346,317,283,260,227,216,206,201,198,197,196,196,195,195,194,194,194,194,194,194,197,202,202,202,202,198,196,194,190,166,151,115,53],"timestamp_mouse":[11,33,52,72,93,112,133,152,172,192,212,232,253,272,292,312,331,351,373,392,411,432,451,471,492,511,532,552,573,592,612,632,652,671,692,712,731,752,773,791,812,832,853,873,893,912,932,952,972,991,1012,1033,1052,1071,1092,1112,1133,1152,1172,1192,1212],"xSR":741.5,"ySR":469.95,"xT1":424.9,"yT1":0,"xT2":1058.1,"yT2":0,"toosoon":0,"cond_shown":"randomdotsizeEA","ratio_trial":250,"smaller_num":"4","larger_num":"16","correct_side":1,"subjID":"luna cortes davila 25","gender":"1","age":"9","school":"4"},{"start_time":1552075052134,"click_time":1552075053135,"finger_time":1552075052776,"fix_duration":357.89237131873386,"trial":49,"RT":642,"MT":359,"sideResp":1,"stimulus":"img/900/equaldotsize/R/11_Ratio_900_L_18_R_20.png","xmouse":[793,793,793,793,793,793,793,793,793,793,793,793,793,793,793,793,793,793,793,793,793,793,793,793,791,787,786,785,785,784,783,779,772,747,639,573,526,491,465,420,408,401,399,398,398,398,398,398,401,410,426],"ymouse":[523,523,523,523,523,523,523,523,523,523,523,523,523,523,523,523,523,523,523,523,523,523,523,523,521,516,512,511,509,507,498,488,469,436,334,287,249,213,177,114,102,94,92,92,92,91,86,80,76,75,75],"timestamp_mouse":[9,35,43,62,82,103,123,141,162,181,203,221,243,262,283,302,322,342,361,381,403,421,443,461,482,501,523,542,561,581,603,621,642,662,682,701,722,741,763,783,803,822,841,863,882,902,922,942,961,982,1001],"xSR":741.5,"ySR":469.95,"xT1":424.9,"yT1":0,"xT2":1058.1,"yT2":0,"toosoon":0,"cond_shown":"equaldotsize","ratio_trial":900,"smaller_num":"18","larger_num":"20","correct_side":2,"subjID":"luna cortes davila 25","gender":"1","age":"9","school":"4"},{"start_time":1552075055271,"click_time":1552075056356,"finger_time":1552075055996,"fix_duration":1274.904027087354,"trial":50,"RT":725,"MT":360,"sideResp":2,"stimulus":"img/750/equaldotsize/R/5_Ratio_750_L_15_R_20.png","xmouse":[806,806,806,806,806,806,806,806,806,806,806,806,806,806,806,806,806,806,806,806,806,806,806,806,806,806,806,806,806,806,806,806,807,812,820,832,847,896,930,950,968,985,1012,1020,1030,1042,1053,1072,1077,1078,1079,1081,1082,1091,1094],"ymouse":[530,530,530,530,530,530,530,530,530,530,530,530,530,530,530,530,530,530,530,530,530,530,530,530,530,530,530,530,530,530,530,530,531,521,503,479,452,392,355,332,311,287,239,221,205,188,175,153,145,138,132,124,121,104,98],"timestamp_mouse":[9,31,45,66,84,105,125,146,166,184,204,226,246,265,284,306,326,345,365,384,404,426,445,466,485,504,525,544,565,585,606,625,646,665,684,705,725,746,765,784,804,825,845,864,884,905,925,946,964,985,1005,1024,1045,1064,1085],"xSR":741.5,"ySR":469.95,"xT1":424.9,"yT1":0,"xT2":1058.1,"yT2":0,"toosoon":0,"cond_shown":"equaldotsize","ratio_trial":750,"smaller_num":"15","larger_num":"20","correct_side":2,"subjID":"luna cortes davila 25","gender":"1","age":"9","school":"4"},{"start_time":1552075058593,"click_time":1552075059456,"finger_time":1552075059076,"fix_duration":775.4871329600903,"trial":51,"RT":483,"MT":380,"sideResp":2,"stimulus":"img/750/randomdotsizeEA/R/3_Ratio_750_L_15_R_20.png","xmouse":[781,781,781,781,781,781,781,781,781,781,781,781,781,781,781,781,781,781,781,781,781,781,785,789,795,801,805,843,883,931,983,1012,1042,1042,1045,1045,1046,1051,1056,1063,1069,1075,1076,1076],"ymouse":[522,522,522,522,522,522,522,522,522,522,522,522,522,522,522,522,522,522,522,521,518,507,487,475,462,449,437,389,357,328,303,287,265,261,256,247,241,222,202,179,158,136,104,87],"timestamp_mouse":[17,37,44,63,83,103,122,143,162,184,203,223,243,264,283,303,322,344,364,382,403,424,442,463,483,503,523,543,562,583,602,623,642,663,683,703,722,744,762,783,803,823,843,862],"xSR":741.5,"ySR":469.95,"xT1":424.9,"yT1":0,"xT2":1058.1,"yT2":0,"toosoon":0,"cond_shown":"randomdotsizeEA","ratio_trial":750,"smaller_num":"15","larger_num":"20","correct_side":2,"subjID":"luna cortes davila 25","gender":"1","age":"9","school":"4"},{"start_time":1552075061016,"click_time":1552075061956,"finger_time":1552075061536,"fix_duration":578.8876258499263,"trial":52,"RT":520,"MT":420,"sideResp":2,"stimulus":"img/750/equaldotsize/R/12_Ratio_750_L_3_R_4.png","xmouse":[795,795,795,795,795,795,795,795,795,795,795,795,795,795,795,795,795,795,795,795,797,809,815,817,818,821,826,849,894,947,978,997,999,1008,1019,1032,1049,1051,1053,1055,1057,1071,1075,1082,1083,1083,1086,1088],"ymouse":[539,539,539,539,539,539,539,539,539,539,539,539,539,539,539,539,539,539,539,535,531,510,498,494,487,476,451,424,385,346,322,297,274,245,220,202,181,176,170,166,159,136,130,116,112,109,103,99],"timestamp_mouse":[2,31,41,60,79,101,119,141,161,180,200,221,240,260,280,301,321,340,361,380,400,420,441,460,480,500,520,539,559,579,601,620,641,659,679,699,719,739,760,780,801,821,840,859,880,900,920,940],"xSR":741.5,"ySR":469.95,"xT1":424.9,"yT1":0,"xT2":1058.1,"yT2":0,"toosoon":0,"cond_shown":"equaldotsize","ratio_trial":750,"smaller_num":"3","larger_num":"4","correct_side":2,"subjID":"luna cortes davila 25","gender":"1","age":"9","school":"4"},{"start_time":1552075063322,"click_time":1552075065096,"finger_time":1552075064796,"fix_duration":404.0144624059393,"trial":53,"RT":1474,"MT":300,"sideResp":2,"stimulus":"img/750/equaldotanddens/L/10_Ratio_750_L_4_R_3.png","xmouse":[794,794,794,794,794,794,794,794,794,794,794,794,794,794,794,794,794,794,794,794,794,794,794,794,794,794,794,794,794,794,794,794,794,794,794,794,794,794,794,794,794,794,794,794,794,794,794,794,794,794,794,794,794,794,794,794,794,794,794,794,794,794,794,794,794,794,794,794,794,794,794,793,800,824,858,949,958,966,990,1015,1046,1058,1066,1071,1072,1074,1074,1077,1081],"ymouse":[527,527,527,527,527,527,527,527,527,527,527,527,527,527,527,527,527,527,527,527,527,527,527,527,527,527,527,527,527,527,527,527,527,527,527,527,527,527,527,527,527,527,527,527,527,527,527,527,527,527,527,527,527,527,527,527,527,527,527,527,527,527,527,527,527,527,527,527,527,527,527,512,485,445,398,310,295,276,229,198,166,155,143,132,127,115,110,104,98],"timestamp_mouse":[15,34,54,73,93,114,135,153,175,194,215,235,255,274,294,315,335,354,375,393,413,435,453,475,494,513,533,555,574,593,614,635,655,673,695,714,735,755,774,795,815,833,854,875,894,913,934,954,974,994,1015,1033,1053,1074,1093,1114,1135,1154,1174,1195,1213,1233,1255,1275,1295,1314,1335,1354,1375,1394,1413,1433,1454,1474,1495,1515,1533,1554,1574,1594,1614,1633,1653,1674,1695,1714,1733,1754,1774],"xSR":741.5,"ySR":469.95,"xT1":424.9,"yT1":0,"xT2":1058.1,"yT2":0,"toosoon":0,"cond_shown":"equaldotanddens","ratio_trial":750,"smaller_num":"3","larger_num":"4","correct_side":1,"subjID":"luna cortes davila 25","gender":"1","age":"9","school":"4"},{"start_time":1552075066308,"click_time":1552075067577,"finger_time":1552075066436,"fix_duration":271.8631683609813,"trial":54,"RT":128,"MT":1141,"sideResp":2,"stimulus":"img/500/equaldotanddens/R/15_Ratio_500_L_1_R_2.png","xmouse":[746,746,746,746,747,747,740,721,713,707,701,677,663,649,627,612,596,560,546,530,517,508,496,492,492,492,492,492,492,492,492,493,493,493,493,493,494,502,514,531,556,592,670,733,750,783,807,812,816,817,818,818,818,818,818,818,821,848,868,897,936,1024,1055,1081],"ymouse":[529,529,529,529,527,516,431,381,370,361,351,313,296,281,262,252,242,217,208,200,194,186,166,148,144,134,133,133,133,131,131,130,130,130,130,129,129,146,171,203,241,291,389,463,483,519,545,550,556,558,558,558,559,559,559,559,555,455,379,302,228,100,58,11],"timestamp_mouse":[10,40,48,67,87,107,128,148,168,188,208,229,248,268,287,308,329,348,368,388,408,428,447,468,488,509,529,548,569,588,607,628,648,669,689,709,727,748,767,788,808,828,848,868,888,908,929,948,969,987,1007,1029,1049,1067,1089,1109,1128,1149,1167,1188,1208,1229,1248,1268],"xSR":741.5,"ySR":469.95,"xT1":424.9,"yT1":0,"xT2":1058.1,"yT2":0,"toosoon":0,"cond_shown":"equaldotanddens","ratio_trial":500,"smaller_num":"1","larger_num":"2","correct_side":2,"subjID":"luna cortes davila 25","gender":"1","age":"9","school":"4"},{"start_time":1552075072187,"click_time":1552075072696,"finger_time":1552075072196,"fix_duration":688.7082655541946,"trial":55,"RT":9,"MT":500,"sideResp":2,"stimulus":"img/750/equaldotsize/L/14_Ratio_750_L_8_R_6.png","xmouse":[811,814,816,819,823,826,830,835,845,849,855,864,876,898,910,925,943,966,1007,1018,1025,1028,1030,1039,1049,1064],"ymouse":[464,457,448,425,413,398,387,371,332,318,304,285,265,229,215,199,183,164,135,127,121,119,118,108,96,82],"timestamp_mouse":[9,29,49,71,89,109,129,149,170,189,209,229,249,270,290,308,328,348