[{"start_time":1552055534300,"click_time":1552055555193,"finger_time":1552055534693,"fix_duration":1064.859930978392,"trial":0,"RT":393,"MT":20500,"sideResp":1,"stimulus":[],"xmouse":[760,760,760,760,760,760,760,760,760,760,760,760,760,760,760,760,760,760,760,757,748,737,735,733,732,728,721,712,698,678,654,586,551,522,489,483,478,478,479,479,479,479,480,480,480,480,480,480,480,480,480,489,511,555,610,721,831,851,858,858,858,858,858,858,858,858,858,857,852,848,842,831,826,820,809,783,668,668,668,668,668,668,668,668,668,668,668,668,668,668,668,668,668,668,668,668,668,668,668,668,668,668,668,668,668,668,668,668,668,668,668,668,668,668,668,668,668,668,668,668,668,668,668,668,668,668,668,668,668,668,668,668,668,668,668,668,668,668,668,668,668,668,668,668,668,668,668,668,668,668,668,668,668,668,668,668,668,668,668,668,668,668,668,668,668,668,668,668,668,668,668,668,668,668,668,668,668,668,668,668,668,668,668,668,668,668,668,668,668,668,668,668,668,668,668,668,668,668,668,668,668,668,668,668,668,668,668,668,668,668,668,668,668,668,668,668,668,668,668,668,668,668,668,668,668,668,668,668,668,668,668,668,668,668,668,668,668,668,668,668,668,668,668,668,668,668,668,668,668,668,668,668,668,668,668,668,668,668,668,668,668,668,668,668,668,668,668,668,668,668,668,668,668,668,668,668,668,668,668,668,668,668,668,668,668,668,668,668,668,668,668,668,668,668,668,668,668,668,668,668,668,668,668,668,668,668,668,668,668,668,668,668,668,668,668,668,668,668,668,668,668,668,668,668,668,668,668,668,668,668,668,668,668,668,668,668,668,668,668,668,668,668,668,668,668,668,668,668,668,668,668,668,668,668,668,668,668,668,668,668,668,668,668,668,668,668,668,668,668,668,668,668,668,668,668,668,668,668,668,668,668,668,668,668,668,668,668,668,668,668,668,668,668,668,668,668,668,668,668,668,668,668,668,668,668,668,668,668,668,668,668,668,668,668,668,668,668,668,668,668,668,668,668,668,668,668,668,668,668,668,668,668,668,647,648,649,643,633,618,602,591,586,586,586,587,599,630,645,658,670,677,685,689,695,702,715,715,715,715,715,716,719,729,738,762,781,813,819,821,821,821,821,821,821,821,821,821,821,821,821,821,821,821,821,821,821,821,821,821,821,821,821,821,821,821,821,820,818,817,815,813,811,809,801,774,754,730,726,726,726,726,726,725,725,725,725,732,737,739,741,742,743,747,747,751,755,760,764,769,773,775,777,778,778,778,778,778,777,764,735,735,735,735,735,735,735,735,735,735,735,735,735,735,738,769,786,796,797,798,798,798,798,797,792,785,776,775,775,775,775,775,774,774,774,774,774,774,774,774,774,774,774,774,774,774,774,774,774,774,774,774,774,774,774,774,774,774,774,774,774,774,774,774,774,774,774,774,774,774,774,774,774,774,774,774,774,774,774,774,774,774,774,774,774,774,774,774,774,774,774,774,774,774,774,774,774,774,774,774,774,774,774,774,774,774,774,774,774,774,774,774,774,774,774,774,774,774,774,774,774,774,774,774,774,774,774,774,774,774,774,774,774,774,774,774,774,774,774,774,774,774,774,774,774,774,774,774,774,774,774,774,774,774,774,774,774,774,774,774,774,774,774,774,774,774,774,774,774,774,774,774,774,774,774,774,774,774,774,774,774,774,774,774,774,774,774,774,774,774,774,774,774,774,774,774,774,774,774,774,774,774,774,774,774,774,774,774,774,774,774,774,774,774,774,774,774,774,774,774,774,774,774,774,774,774,774,774,774,774,774,774,774,774,774,774,774,774,774,774,774,774,774,774,774,774,774,774,774,774,774,774,774,774,774,774,774,774,774,774,774,774,774,774,774,774,774,774,774,774,774,774,774,774,774,774,774,774,774,774,774,774,774,774,774,774,774,774,774,774,774,774,774,774,774,774,774,774,774,774,774,774,774,774,774,774,774,774,774,774,774,774,774,774,774,774,774,774,774,774,774,774,774,774,774,774,774,774,774,774,774,774,774,774,774,774,774,774,774,774,774,774,774,774,774,774,774,774,774,774,774,774,774,774,774,774,774,774,774,774,774,774,774,774,774,774,774,774,774,774,774,774,774,774,774,774,762,709,681,666,663,663,663,663,677,677,677,677,677,677,677,677,677,677,677,677,677,677,677,677,677,677,842,837,835,840,849,871,875,876,869,850,814,798,785,768,762,751,746,740,734,730,727,727,727,727,727,730,737,739,739,740,740,740,740,742,744,750,753,755,758,762,763,766,766,768,768,768,768,768,768,768,768,768,768,768,768,768,768,768,768,768,768,768,768,768,768,768,768,768,768,768,768,768,768,768,768,768,768,763,756,738,651,591,523,453,370,365,365,365,365,365,365,365,365,365,365,365,365,365,365,365,365,412,423,439],"ymouse":[540,540,540,540,540,540,540,540,540,540,540,540,540,540,540,540,527,509,489,466,444,418,409,402,398,393,383,371,354,332,311,265,244,226,202,195,184,182,181,180,180,180,180,180,180,180,180,180,180,180,180,271,349,432,496,570,618,625,628,628,628,628,628,628,628,628,628,628,625,623,620,617,617,617,617,630,716,716,716,716,716,716,716,716,716,716,716,716,716,716,716,716,716,716,716,716,716,716,716,716,716,716,716,716,716,716,716,716,716,716,716,716,716,716,716,716,716,716,716,716,716,716,716,716,716,716,716,716,716,716,716,716,716,716,716,716,716,716,716,716,716,716,716,716,716,716,716,716,716,716,716,716,716,716,716,716,716,716,716,716,716,716,716,716,716,716,716,716,716,716,716,716,716,716,716,716,716,716,716,716,716,716,716,716,716,716,716,716,716,716,716,716,716,716,716,716,716,716,716,716,716,716,716,716,716,716,716,716,716,716,716,716,716,716,716,716,716,716,716,716,716,716,716,716,716,716,716,716,716,716,716,716,716,716,716,716,716,716,716,716,716,716,716,716,716,716,716,716,716,716,716,716,716,716,716,716,716,716,716,716,716,716,716,716,716,716,716,716,716,716,716,716,716,716,716,716,716,716,716,716,716,716,716,716,716,716,716,716,716,716,716,716,716,716,716,716,716,716,716,716,716,716,716,716,716,716,716,716,716,716,716,716,716,716,716,716,716,716,716,716,716,716,716,716,716,716,716,716,716,716,716,716,716,716,716,716,716,716,716,716,716,716,716,716,716,716,716,716,716,716,716,716,716,716,716,716,716,716,716,716,716,716,716,716,716,716,716,716,716,716,716,716,716,716,716,716,716,716,716,716,716,716,716,716,716,716,716,716,716,716,716,716,716,716,716,716,716,716,716,716,716,716,716,716,716,716,716,716,716,716,716,716,716,716,716,716,716,716,716,716,716,716,716,716,716,716,716,716,716,716,716,716,716,715,699,680,663,651,640,630,624,620,620,620,618,615,609,607,602,597,589,580,577,575,573,571,571,571,571,571,571,569,566,563,558,553,540,536,534,534,534,534,534,534,534,534,534,534,534,534,534,534,534,534,534,534,534,534,534,534,534,534,534,534,534,534,534,535,537,539,541,541,543,544,544,544,544,544,544,544,544,544,544,544,544,543,536,533,531,529,528,528,525,524,522,521,517,514,511,509,507,506,506,506,506,506,507,539,590,662,662,662,662,662,662,662,662,662,662,662,662,662,662,649,573,519,474,465,461,461,461,461,464,477,491,508,513,513,513,513,513,513,513,513,513,513,513,513,513,513,513,513,513,513,513,513,513,513,513,513,513,513,513,513,513,513,513,513,513,513,513,513,513,513,513,513,513,513,513,513,513,513,513,513,513,513,513,513,513,513,513,513,513,513,513,513,513,513,513,513,513,513,513,513,513,513,513,513,513,513,513,513,513,513,513,513,513,513,513,513,513,513,513,513,513,513,513,513,513,513,513,513,513,513,513,513,513,513,513,513,513,513,513,513,513,513,513,513,513,513,513,513,513,513,513,513,513,513,513,513,513,513,513,513,513,513,513,513,513,513,513,513,513,513,513,513,513,513,513,513,513,513,513,513,513,513,513,513,513,513,513,513,513,513,513,513,513,513,513,513,513,513,513,513,513,513,513,513,513,513,513,513,513,513,513,513,513,513,513,513,513,513,513,513,513,513,513,513,513,513,513,513,513,513,513,513,513,513,513,513,513,513,513,513,513,513,513,513,513,513,513,513,513,513,513,513,513,513,513,513,513,513,513,513,513,513,513,513,513,513,513,513,513,513,513,513,513,513,513,513,513,513,513,513,513,513,513,513,513,513,513,513,513,513,513,513,513,513,513,513,513,513,513,513,513,513,513,513,513,513,513,513,513,513,513,513,513,513,513,513,513,513,513,513,513,513,513,513,513,513,513,513,513,513,513,513,513,513,513,513,513,513,513,513,513,513,513,513,513,513,513,513,513,513,513,513,513,513,513,513,513,513,513,513,513,513,513,513,513,513,513,513,513,513,513,513,513,513,513,513,513,513,513,513,513,517,502,472,441,430,428,428,420,308,235,40,40,40,40,40,40,40,40,40,40,40,40,40,40,40,40,31,58,81,124,152,226,266,305,342,388,443,461,472,485,489,495,497,500,505,509,519,520,521,521,521,522,519,519,519,519,519,519,519,519,518,517,516,514,512,508,506,502,499,496,495,495,495,495,495,495,495,495,495,495,495,495,495,495,495,495,495,495,495,495,495,495,495,495,495,495,495,495,495,495,495,495,495,475,457,417,284,230,168,107,12,2,2,2,2,2,2,2,2,2,2,2,2,2,2,2,2,5,10,18],"timestamp_mouse":[12,38,52,73,93,113,133,153,174,192,213,234,252,274,293,313,333,352,373,393,413,432,452,473,493,512,532,552,573,592,612,632,652,672,692,713,732,752,772,792,813,834,852,873,893,914,933,953,972,992,1013,1032,1053,1072,1093,1112,1133,1153,1172,1192,1213,1232,1253,1272,1292,1312,1332,1352,1373,1392,1412,1432,1452,1473,1492,1512,1533,1553,1573,1592,1612,1632,1652,1673,1693,1714,1732,1753,1773,1793,1813,1832,1852,1872,1892,1912,1932,1953,1973,1993,2014,2033,2053,2072,2092,2113,2133,2152,2172,2192,2212,2232,2252,2273,2292,2312,2333,2353,2372,2393,2412,2432,2452,2473,2492,2514,2532,2554,2573,2592,2613,2632,2652,2672,2692,2712,2732,2753,2773,2792,2814,2832,2852,2873,2892,2912,2933,2953,2973,2992,3012,3033,3052,3072,3092,3113,3133,3153,3172,3192,3213,3232,3253,3273,3292,3312,3332,3352,3372,3392,3413,3432,3452,3472,3493,3514,3534,3552,3573,3593,3613,3632,3653,3673,3693,3714,3732,3753,3773,3793,3813,3832,3852,3873,3893,3913,3932,3953,3972,3993,4013,4032,4054,4072,4092,4112,4132,4153,4173,4193,4212,4232,4252,4273,4293,4313,4333,4352,4372,4392,4413,4433,4453,4472,4492,4513,4532,4552,4573,4592,4614,4632,4652,4672,4693,4713,4733,4752,4772,4793,4813,4833,4853,4873,4893,4913,4932,4953,4973,4992,5014,5032,5052,5073,5093,5114,5132,5152,5172,5193,5214,5232,5253,5272,5292,5313,5333,5352,5372,5393,5412,5432,5453,5473,5493,5512,5533,5552,5572,5592,5614,5632,5652,5673,5692,5714,5732,5753,5773,5793,5812,5832,5852,5873,5893,5914,5932,5952,5973,5992,6013,6032,6053,6073,6094,6113,6132,6152,6173,6192,6214,6232,6253,6272,6293,6314,6332,6352,6373,6392,6414,6432,6452,6472,6492,6513,6533,6553,6572,6592,6612,6632,6652,6672,6692,6713,6732,6753,6773,6792,6813,6832,6852,6872,6892,6913,6932,6952,6972,6992,7012,7032,7053,7073,7093,7113,7132,7153,7173,7192,7212,7233,7253,7273,7293,7313,7332,7352,7373,7393,7412,7433,7452,7472,7492,7514,7532,7553,7573,7593,7613,7633,7653,7673,7692,7713,7732,7753,7773,7793,7813,7832,7853,7872,7892,7914,7932,7953,7973,7992,8013,8032,8053,8072,8093,8113,8133,8153,8173,8193,8212,8232,8252,8273,8293,8313,8332,8352,8372,8393,8413,8432,8452,8472,8492,8513,8532,8553,8573,8592,8612,8632,8653,8672,8692,8712,8732,8752,8772,8793,8812,8833,8852,8872,8893,8912,8932,8953,8972,8992,9013,9032,9053,9072,9093,9114,9132,9152,9172,9192,9213,9232,9253,9273,9292,9312,9332,9352,9373,9392,9413,9433,9452,9472,9492,9513,9532,9552,9573,9592,9614,9633,9653,9673,9694,9712,9733,9753,9773,9792,9813,9832,9852,9872,9892,9913,9933,9952,9972,9992,10013,10032,10053,10073,10093,10112,10134,10153,10172,10193,10214,10232,10253,10273,10293,10312,10332,10352,10372,10392,10412,10432,10452,10473,10493,10513,10533,10552,10572,10593,10613,10632,10652,10673,10693,10713,10733,10752,10773,10792,10812,10833,10853,10872,10892,10912,10932,10954,10974,10993,11012,11032,11052,11072,11092,11112,11132,11152,11172,11192,11213,11232,11252,11272,11292,11312,11332,11352,11373,11392,11414,11432,11452,11473,11493,11513,11533,11552,11572,11593,11612,11633,11653,11672,11694,11712,11732,11752,11773,11792,11813,11833,11853,11873,11893,11913,11932,11953,11973,11992,12013,12032,12052,12072,12092,12112,12133,12153,12173,12194,12214,12234,12253,12272,12293,12312,12332,12353,12373,12393,12413,12432,12453,12472,12493,12512,12533,12553,12572,12593,12613,12633,12652,12673,12693,12712,12733,12753,12774,12793,12812,12832,12853,12873,12892,12912,12933,12952,12973,12993,13013,13033,13053,13072,13092,13112,13133,13152,13173,13193,13213,13233,13252,13272,13293,13313,13333,13353,13373,13392,13412,13433,13452,13473,13493,13512,13532,13552,13573,13592,13612,13632,13652,13672,13693,13713,13733,13753,13773,13793,13812,13833,13853,13873,13892,13912,13933,13953,13972,13993,14013,14033,14052,14073,14092,14112,14133,14153,14173,14193,14212,14232,14253,14272,14292,14313,14332,14353,14373,14393,14412,14433,14453,14472,14492,14512,14533,14552,14572,14593,14614,14632,14653,14672,14692,14713,14732,14753,14773,14793,14812,14833,14853,14872,14893,14912,14933,14953,14973,14994,15012,15033,15053,15073,15092,15113,15133,15153,15173,15193,15213,15232,15252,15273,15293,15313,15332,15352,15373,15393,15414,15433,15452,15473,15493,15513,15532,15553,15573,15593,15612,15633,15653,15674,15692,15712,15733,15753,15773,15794,15814,15833,15853,15873,15892,15913,15933,15952,15972,15993,16014,16034,16052,16073,16092,16113,16132,16153,16172,16193,16212,16232,16252,16273,16293,16312,16332,16353,16372,16393,16412,16432,16452,16473,16492,16513,16534,16552,16572,16593,16612,16633,16652,16672,16693,16713,16733,16752,16772,16792,16813,16832,16853,16873,16893,16912,16934,16952,16972,16992,17012,17032,17053,17073,17092,17113,17132,17153,17173,17193,17213,17234,17253,17273,17293,17313,17332,17353,17373,17394,17412,17433,17453,17474,17493,17512,17532,17552,17573,17594,17613,17633,17653,17672,17693,17714,17734,17753,17773,17792,17813,17833,17853,17873,17893,17912,17933,17952,17973,17993,18013,18033,18053,18073,18092,18112,18132,18152,18172,18193,18212,18233,18252,18273,18292,18312,18333,18352,18373,18392,18413,18432,18452,18472,18492,18512,18533,18552,18572,18592,18612,18632,18652,18673,18692,18712,18732,18752,18772,18793,18812,18832,18852,18872,18893,18912,18932,18952,18973,18992,19012,19032,19053,19072,19092,19112,19132,19152,19172,19193,19213,19232,19252,19272,19292,19314,19332,19352,19372,19393,19413,19432,19453,19472,19492,19512,19533,19552,19573,19593,19613,19632,19653,19672,19692,19712,19734,19753,19773,19792,19812,19832,19853,19873,19892,19912,19932,19952,19972,19992,20012,20033,20052,20073,20092,20114,20133,20153,20172,20193,20212,20233,20252,20273,20292,20313,20334,20353,20373,20392,20413,20432,20452,20472,20492,20514,20532,20552,20573,20593,20612,20633,20652,20672,20692,20713,20733,20753,20773,20792,20812,20833,20852,20873,20892],"xSR":741.5,"ySR":469.95,"xT1":424.9,"yT1":0,"xT2":1058.1,"yT2":0,"toosoon":0,"cond_shown":"Congruent","ratio_trial":300,"L_num":2,"L_den":20,"R_num":10,"R_den":25,"correct_side":2,"subjID":"manuelafernandezmatyasvalenciasaab26","gender":"1","age":"9","school":"4","test":{"fix_dur":[250,1500],"timestim":1000,"targets_dim":[100,100],"targets_relative_coord":[0.3,0.7],"size_stim":[880,420],"start_dim":[100,100],"size_start":[300,300],"size_fix":60,"samplingrate":20,"img_types":["Congruent","Incongruent"],"ratios":[100,200,300],"rep_conds":19,"nTrials":120,"trials_to_rest":500,"Trials_order":[118,45,116,49,50,19,21,86,119,15,56,9,46,10,99,5,4,107,73,29,57,12,84,62,47,85,0,90,108,16,91,109,75,53,111,26,3,7,65,6,117,14,93,103,110,11,52,101,31,100,37,112,72,20,98,1,79,71,115,27,54,25,113,83,30,51,89,114,28,70,78,40,97,36,69,17,35,81,60,44,23,68,13,74,33,80,38,43,55,87,95,48,67,59,88,22,34,96,8,42,32,106,82,76,105,63,58,18,92,94,2,41,39,61,24,77,64,66,102,104],"cond_shown":["Congruent","Incongruent","Congruent","Incongruent","Congruent","Incongruent","Incongruent","Congruent","Incongruent","Incongruent","Congruent","Incongruent","Congruent","Congruent","Incongruent","Incongruent","Congruent","Incongruent","Incongruent","Incongruent","Incongruent","Congruent","Congruent","Congruent","Incongruent","Incongruent","Congruent","Congruent","Congruent","Congruent","Incongruent","Incongruent","Incongruent","Incongruent","Incongruent","Congruent","Incongruent","Incongruent","Incongruent","Congruent","Incongruent","Congruent","Incongruent","Incongruent","Congruent","Incongruent","Congruent","Incongruent","Incongruent","Congruent","Incongruent","Congruent","Congruent","Congruent","Congruent","Incongruent","Incongruent","Incongruent","Incongruent","Incongruent","Congruent","Incongruent","Incongruent","Incongruent","Congruent","Incongruent","Incongruent","Congruent","Congruent","Congruent","Congruent","Congruent","Incongruent","Congruent","Incongruent","Incongruent","Incongruent","Incongruent","Congruent","Congruent","Incongruent","Congruent","Incongruent","Congruent","Incongruent","Congruent","Congruent","Incongruent","Incongruent","Incongruent","Incongruent","Congruent","Incongruent","Incongruent","Congruent","Congruent","Congruent","Congruent","Congruent","Congruent","Congruent","Congruent","Congruent","Congruent","Incongruent","Incongruent","Congruent","Congruent","Congruent","Congruent","Congruent","Incongruent","Incongruent","Incongruent","Congruent","Incongruent","Congruent","Congruent","Congruent","Congruent"],"ratio_trial":[300,200,200,100,200,100,200,200,300,200,200,200,300,300,200,300,300,300,100,300,200,100,100,200,300,100,100,100,100,300,100,100,200,300,200,200,200,100,300,100,200,200,200,100,200,300,300,300,100,300,100,300,100,200,200,100,100,300,100,200,100,100,300,300,100,200,300,100,300,300,100,300,100,100,200,300,300,200,100,200,300,200,100,200,200,200,200,100,100,200,300,100,100,300,300,300,300,100,200,100,200,300,300,300,200,200,300,100,200,300,200,300,200,100,100,300,300,100,100,200],"left_num":[2,11,3,11,12,3,6,3,13,4,3,3,11,5,4,13,2,7,13,4,11,11,4,3,4,3,12,8,15,7,3,10,7,3,7,8,4,10,8,1,7,7,3,11,20,4,20,13,3,2,3,20,11,21,3,6,13,13,9,14,11,6,4,4,6,4,7,4,20,1,2,11,12,6,3,4,4,3,6,1,2,11,3,13,1,6,12,9,3,9,13,7,1,1,20,4,2,7,8,15,1,1,11,11,7,7,5,2,8,11,4,4,7,3,12,1,5,4,6,3],"right_num":[10,3,9,9,6,8,3,14,12,6,7,1,1,7,1,12,12,8,12,2,3,4,6,11,8,11,13,2,13,20,8,9,14,4,6,3,14,9,14,3,12,18,11,9,9,8,5,12,8,12,11,8,6,2,7,7,6,12,6,12,4,3,6,6,5,6,8,15,13,8,6,1,2,5,11,2,6,1,5,21,6,3,7,14,3,3,6,20,4,8,12,9,8,3,5,1,12,15,3,13,21,6,4,2,14,12,7,11,7,4,3,2,8,4,13,2,6,15,5,14],"left_den":[20,20,12,22,15,5,20,10,26,5,10,10,22,25,30,26,10,10,26,20,20,22,8,10,5,5,30,16,25,14,5,25,10,6,15,15,6,25,10,2,10,15,4,22,25,5,25,26,5,10,5,25,22,30,10,10,26,26,18,30,22,12,5,5,20,5,10,10,25,30,5,22,30,20,4,20,5,10,20,2,4,22,9,26,2,15,15,10,6,15,26,14,2,2,25,10,10,14,15,25,2,5,22,22,10,10,25,5,15,22,10,20,10,6,30,2,25,10,20,6],"right_den":[25,4,20,15,10,16,6,28,15,10,14,2,5,14,3,15,24,20,20,4,4,10,10,22,16,22,26,5,26,25,16,18,28,20,9,9,30,18,28,5,24,27,20,15,15,16,10,15,16,24,22,16,15,4,14,14,10,15,10,18,10,5,12,12,25,10,20,30,26,24,12,5,4,25,20,4,12,2,25,30,30,10,30,20,10,15,10,25,10,10,15,15,20,15,10,10,24,25,9,26,30,12,20,10,28,24,14,22,21,20,15,4,16,10,26,10,12,30,25,20],"correct_side":[2,2,2,2,1,1,2,2,2,1,2,2,1,2,2,2,2,1,2,2,2,1,2,2,1,1,2,1,1,2,1,2,1,1,2,1,1,2,1,2,1,2,1,2,1,1,1,2,1,2,1,1,1,1,2,1,2,2,2,2,1,2,1,1,1,1,1,2,1,2,2,1,2,1,1,2,1,2,1,2,1,1,1,2,1,1,1,1,1,2,2,2,1,1,1,1,2,2,1,1,2,2,1,1,1,1,2,2,1,1,1,2,1,1,2,1,2,2,1,2],"img_shown":["img2/300/Congruent/R/C_Dist_300_LN_2_LD_20_RN_10_RD_25_1.png","img2/200/Incongruent/R/I_Dist_200_LN_11_LD_20_RN_3_RD_4_1.png","img2/200/Congruent/R/C_Dist_200_LN_3_LD_12_RN_9_RD_20_1.png","img2/100/Incongruent/R/I_Dist_100_LN_11_LD_22_RN_9_RD_15_1.png","img2/200/Congruent/L/C_Dist_200_LN_12_LD_15_RN_6_RD_10_0.png","img2/100/Incongruent/L/I_Dist_100_LN_3_LD_5_RN_8_RD_16_0.png","img2/200/Incongruent/R/I_Dist_200_LN_6_LD_20_RN_3_RD_6_1.png","img2/200/Congruent/R/C_Dist_200_LN_3_LD_10_RN_14_RD_28_1.png","img2/300/Incongruent/R/I_Dist_300_LN_13_LD_26_RN_12_RD_15_1.png","img2/200/Incongruent/L/I_Dist_200_LN_4_LD_5_RN_6_RD_10_0.png","img2/200/Congruent/R/C_Dist_200_LN_3_LD_10_RN_7_RD_14_1.png","img2/200/Incongruent/R/I_Dist_200_LN_3_LD_10_RN_1_RD_2_1.png","img2/300/Congruent/L/C_Dist_300_LN_11_LD_22_RN_1_RD_5_0.png","img2/300/Congruent/R/C_Dist_300_LN_5_LD_25_RN_7_RD_14_1.png","img2/200/Incongruent/R/I_Dist_200_LN_4_LD_30_RN_1_RD_3_1.png","img2/300/Incongruent/R/I_Dist_300_LN_13_LD_26_RN_12_RD_15_1.png","img2/300/Congruent/R/C_Dist_300_LN_2_LD_10_RN_12_RD_24_1.png","img2/300/Incongruent/L/I_Dist_300_LN_7_LD_10_RN_8_RD_20_0.png","img2/100/Incongruent/R/I_Dist_100_LN_13_LD_26_RN_12_RD_20_1.png","img2/300/Incongruent/R/I_Dist_300_LN_4_LD_20_RN_2_RD_4_1.png","img2/200/Incongruent/R/I_Dist_200_LN_11_LD_20_RN_3_RD_4_1.png","img2/100/Congruent/L/C_Dist_100_LN_11_LD_22_RN_4_RD_10_0.png","img2/100/Congruent/R/C_Dist_100_LN_4_LD_8_RN_6_RD_10_1.png","img2/200/Congruent/R/C_Dist_200_LN_3_LD_10_RN_11_RD_22_1.png","img2/300/Incongruent/L/I_Dist_300_LN_4_LD_5_RN_8_RD_16_0.png","img2/100/Incongruent/L/I_Dist_100_LN_3_LD_5_RN_11_RD_22_0.png","img2/100/Congruent/R/C_Dist_100_LN_12_LD_30_RN_13_RD_26_1.png","img2/100/Congruent/L/C_Dist_100_LN_8_LD_16_RN_2_RD_5_0.png","img2/100/Congruent/L/C_Dist_100_LN_15_LD_25_RN_13_RD_26_0.png","img2/300/Congruent/R/C_Dist_300_LN_7_LD_14_RN_20_RD_25_1.png","img2/100/Incongruent/L/I_Dist_100_LN_3_LD_5_RN_8_RD_16_0.png","img2/100/Incongruent/R/I_Dist_100_LN_10_LD_25_RN_9_RD_18_1.png","img2/200/Incongruent/L/I_Dist_200_LN_7_LD_10_RN_14_RD_28_0.png","img2/300/Incongruent/L/I_Dist_300_LN_3_LD_6_RN_4_RD_20_0.png","img2/200/Incongruent/R/I_Dist_200_LN_7_LD_15_RN_6_RD_9_1.png","img2/200/Congruent/L/C_Dist_200_LN_8_LD_15_RN_3_RD_9_0.png","img2/200/Incongruent/L/I_Dist_200_LN_4_LD_6_RN_14_RD_30_0.png","img2/100/Incongruent/R/I_Dist_100_LN_10_LD_25_RN_9_RD_18_1.png","img2/300/Incongruent/L/I_Dist_300_LN_8_LD_10_RN_14_RD_28_0.png","img2/100/Congruent/R/C_Dist_100_LN_1_LD_2_RN_3_RD_5_1.png","img2/200/Incongruent/L/I_Dist_200_LN_7_LD_10_RN_12_RD_24_0.png","img2/200/Congruent/R/C_Dist_200_LN_7_LD_15_RN_18_RD_27_1.png","img2/200/Incongruent/L/I_Dist_200_LN_3_LD_4_RN_11_RD_20_0.png","img2/100/Incongruent/R/I_Dist_100_LN_11_LD_22_RN_9_RD_15_1.png","img2/200/Congruent/L/C_Dist_200_LN_20_LD_25_RN_9_RD_15_0.png","img2/300/Incongruent/L/I_Dist_300_LN_4_LD_5_RN_8_RD_16_0.png","img2/300/Congruent/L/C_Dist_300_LN_20_LD_25_RN_5_RD_10_0.png","img2/300/Incongruent/R/I_Dist_300_LN_13_LD_26_RN_12_RD_15_1.png","img2/100/Incongruent/L/I_Dist_100_LN_3_LD_5_RN_8_RD_16_0.png","img2/300/Congruent/R/C_Dist_300_LN_2_LD_10_RN_12_RD_24_1.png","img2/100/Incongruent/L/I_Dist_100_LN_3_LD_5_RN_11_RD_22_0.png","img2/300/Congruent/L/C_Dist_300_LN_20_LD_25_RN_8_RD_16_0.png","img2/100/Congruent/L/C_Dist_100_LN_11_LD_22_RN_6_RD_15_0.png","img2/200/Congruent/L/C_Dist_200_LN_21_LD_30_RN_2_RD_4_0.png","img2/200/Congruent/R/C_Dist_200_LN_3_LD_10_RN_7_RD_14_1.png","img2/100/Incongruent/L/I_Dist_100_LN_6_LD_10_RN_7_RD_14_0.png","img2/100/Incongruent/R/I_Dist_100_LN_13_LD_26_RN_6_RD_10_1.png","img2/300/Incongruent/R/I_Dist_300_LN_13_LD_26_RN_12_RD_15_1.png","img2/100/Incongruent/R/I_Dist_100_LN_9_LD_18_RN_6_RD_10_1.png","img2/200/Incongruent/R/I_Dist_200_LN_14_LD_30_RN_12_RD_18_1.png","img2/100/Congruent/L/C_Dist_100_LN_11_LD_22_RN_4_RD_10_0.png","img2/100/Incongruent/R/I_Dist_100_LN_6_LD_12_RN_3_RD_5_1.png","img2/300/Incongruent/L/I_Dist_300_LN_4_LD_5_RN_6_RD_12_0.png","img2/300/Incongruent/L/I_Dist_300_LN_4_LD_5_RN_6_RD_12_0.png","img2/100/Congruent/L/C_Dist_100_LN_6_LD_20_RN_5_RD_25_0.png","img2/200/Incongruent/L/I_Dist_200_LN_4_LD_5_RN_6_RD_10_0.png","img2/300/Incongruent/L/I_Dist_300_LN_7_LD_10_RN_8_RD_20_0.png","img2/100/Congruent/R/C_Dist_100_LN_4_LD_10_RN_15_RD_30_1.png","img2/300/Congruent/L/C_Dist_300_LN_20_LD_25_RN_13_RD_26_0.png","img2/300/Congruent/R/C_Dist_300_LN_1_LD_30_RN_8_RD_24_1.png","img2/100/Congruent/R/C_Dist_100_LN_2_LD_5_RN_6_RD_12_1.png","img2/300/Congruent/L/C_Dist_300_LN_11_LD_22_RN_1_RD_5_0.png","img2/100/Incongruent/R/I_Dist_100_LN_12_LD_30_RN_2_RD_4_1.png","img2/100/Congruent/L/C_Dist_100_LN_6_LD_20_RN_5_RD_25_0.png","img2/200/Incongruent/L/I_Dist_200_LN_3_LD_4_RN_11_RD_20_0.png","img2/300/Incongruent/R/I_Dist_300_LN_4_LD_20_RN_2_RD_4_1.png","img2/300/Incongruent/L/I_Dist_300_LN_4_LD_5_RN_6_RD_12_0.png","img2/200/Incongruent/R/I_Dist_200_LN_3_LD_10_RN_1_RD_2_1.png","img2/100/Congruent/L/C_Dist_100_LN_6_LD_20_RN_5_RD_25_0.png","img2/200/Congruent/R/C_Dist_200_LN_1_LD_2_RN_21_RD_30_1.png","img2/300/Incongruent/L/I_Dist_300_LN_2_LD_4_RN_6_RD_30_0.png","img2/200/Congruent/L/C_Dist_200_LN_11_LD_22_RN_3_RD_10_0.png","img2/100/Incongruent/L/I_Dist_100_LN_3_LD_9_RN_7_RD_30_0.png","img2/200/Congruent/R/C_Dist_200_LN_13_LD_26_RN_14_RD_20_1.png","img2/200/Incongruent/L/I_Dist_200_LN_1_LD_2_RN_3_RD_10_0.png","img2/200/Congruent/L/C_Dist_200_LN_6_LD_15_RN_3_RD_15_0.png","img2/200/Congruent/L/C_Dist_200_LN_12_LD_15_RN_6_RD_10_0.png","img2/100/Incongruent/L/I_Dist_100_LN_9_LD_10_RN_20_RD_25_0.png","img2/100/Incongruent/L/I_Dist_100_LN_3_LD_6_RN_4_RD_10_0.png","img2/200/Incongruent/R/I_Dist_200_LN_9_LD_15_RN_8_RD_10_1.png","img2/300/Incongruent/R/I_Dist_300_LN_13_LD_26_RN_12_RD_15_1.png","img2/100/Congruent/R/C_Dist_100_LN_7_LD_14_RN_9_RD_15_1.png","img2/100/Incongruent/L/I_Dist_100_LN_1_LD_2_RN_8_RD_20_0.png","img2/300/Incongruent/L/I_Dist_300_LN_1_LD_2_RN_3_RD_15_0.png","img2/300/Congruent/L/C_Dist_300_LN_20_LD_25_RN_5_RD_10_0.png","img2/300/Congruent/L/C_Dist_300_LN_4_LD_10_RN_1_RD_10_0.png","img2/300/Congruent/R/C_Dist_300_LN_2_LD_10_RN_12_RD_24_1.png","img2/100/Congruent/R/C_Dist_100_LN_7_LD_14_RN_15_RD_25_1.png","img2/200/Congruent/L/C_Dist_200_LN_8_LD_15_RN_3_RD_9_0.png","img2/100/Congruent/L/C_Dist_100_LN_15_LD_25_RN_13_RD_26_0.png","img2/200/Congruent/R/C_Dist_200_LN_1_LD_2_RN_21_RD_30_1.png","img2/300/Congruent/R/C_Dist_300_LN_1_LD_5_RN_6_RD_12_1.png","img2/300/Congruent/L/C_Dist_300_LN_11_LD_22_RN_4_RD_20_0.png","img2/300/Congruent/L/C_Dist_300_LN_11_LD_22_RN_2_RD_10_0.png","img2/200/Incongruent/L/I_Dist_200_LN_7_LD_10_RN_14_RD_28_0.png","img2/200/Incongruent/L/I_Dist_200_LN_7_LD_10_RN_12_RD_24_0.png","img2/300/Congruent/R/C_Dist_300_LN_5_LD_25_RN_7_RD_14_1.png","img2/100/Congruent/R/C_Dist_100_LN_2_LD_5_RN_11_RD_22_1.png","img2/200/Congruent/L/C_Dist_200_LN_8_LD_15_RN_7_RD_21_0.png","img2/300/Congruent/L/C_Dist_300_LN_11_LD_22_RN_4_RD_20_0.png","img2/200/Congruent/L/C_Dist_200_LN_4_LD_10_RN_3_RD_15_0.png","img2/300/Incongruent/R/I_Dist_300_LN_4_LD_20_RN_2_RD_4_1.png","img2/200/Incongruent/L/I_Dist_200_LN_7_LD_10_RN_8_RD_16_0.png","img2/100/Incongruent/L/I_Dist_100_LN_3_LD_6_RN_4_RD_10_0.png","img2/100/Congruent/R/C_Dist_100_LN_12_LD_30_RN_13_RD_26_1.png","img2/300/Incongruent/L/I_Dist_300_LN_1_LD_2_RN_2_RD_10_0.png","img2/300/Congruent/R/C_Dist_300_LN_5_LD_25_RN_6_RD_12_1.png","img2/100/Congruent/R/C_Dist_100_LN_4_LD_10_RN_15_RD_30_1.png","img2/100/Congruent/L/C_Dist_100_LN_6_LD_20_RN_5_RD_25_0.png","img2/200/Congruent/R/C_Dist_200_LN_3_LD_6_RN_14_RD_20_1.png"],"dist100_C":[["C_Dist_100_LN_10_LD_25_RN_3_RD_10_0.png","C_Dist_100_LN_11_LD_22_RN_4_RD_10_0.png","C_Dist_100_LN_11_LD_22_RN_6_RD_15_0.png","C_Dist_100_LN_15_LD_25_RN_13_RD_26_0.png","C_Dist_100_LN_3_LD_6_RN_2_RD_5_0.png","C_Dist_100_LN_6_LD_20_RN_5_RD_25_0.png","C_Dist_100_LN_8_LD_16_RN_2_RD_5_0.png","C_Dist_100_LN_9_LD_15_RN_8_RD_16_0.png"],["C_Dist_100_LN_1_LD_2_RN_18_RD_30_1.png","C_Dist_100_LN_1_LD_2_RN_3_RD_5_1.png","C_Dist_100_LN_12_LD_30_RN_13_RD_26_1.png","C_Dist_100_LN_2_LD_5_RN_11_RD_22_1.png","C_Dist_100_LN_2_LD_5_RN_6_RD_12_1.png","C_Dist_100_LN_3_LD_20_RN_4_RD_16_1.png","C_Dist_100_LN_4_LD_10_RN_15_RD_30_1.png","C_Dist_100_LN_4_LD_8_RN_6_RD_10_1.png","C_Dist_100_LN_6_LD_12_RN_15_RD_25_1.png","C_Dist_100_LN_7_LD_14_RN_15_RD_25_1.png","C_Dist_100_LN_7_LD_14_RN_9_RD_15_1.png"]],"dist100_I":[["I_Dist_100_LN_1_LD_2_RN_8_RD_20_0.png","I_Dist_100_LN_2_LD_4_RN_6_RD_15_0.png","I_Dist_100_LN_2_LD_4_RN_8_RD_20_0.png","I_Dist_100_LN_3_LD_5_RN_11_RD_22_0.png","I_Dist_100_LN_3_LD_5_RN_8_RD_16_0.png","I_Dist_100_LN_3_LD_6_RN_4_RD_10_0.png","I_Dist_100_LN_3_LD_9_RN_7_RD_30_0.png","I_Dist_100_LN_4_LD_8_RN_8_RD_20_0.png","I_Dist_100_LN_6_LD_10_RN_11_RD_22_0.png","I_Dist_100_LN_6_LD_10_RN_13_RD_26_0.png","I_Dist_100_LN_6_LD_10_RN_7_RD_14_0.png","I_Dist_100_LN_9_LD_10_RN_20_RD_25_0.png","I_Dist_100_LN_9_LD_15_RN_13_RD_26_0.png","I_Dist_100_LN_9_LD_15_RN_14_RD_28_0.png"],["I_Dist_100_LN_10_LD_25_RN_8_RD_16_1.png","I_Dist_100_LN_10_LD_25_RN_9_RD_18_1.png","I_Dist_100_LN_11_LD_22_RN_9_RD_15_1.png","I_Dist_100_LN_12_LD_24_RN_9_RD_15_1.png","I_Dist_100_LN_12_LD_30_RN_2_RD_4_1.png","I_Dist_100_LN_13_LD_26_RN_12_RD_20_1.png","I_Dist_100_LN_13_LD_26_RN_6_RD_10_1.png","I_Dist_100_LN_17_LD_30_RN_10_RD_15_1.png","I_Dist_100_LN_6_LD_12_RN_3_RD_5_1.png","I_Dist_100_LN_8_LD_16_RN_6_RD_10_1.png","I_Dist_100_LN_8_LD_20_RN_1_RD_2_1.png","I_Dist_100_LN_9_LD_18_RN_6_RD_10_1.png"]],"dist100_S":[["E_Dist_100_LN_2_LD_12_RN_2_RD_30_0.png","E_Dist_100_LN_6_LD_10_RN_6_RD_12_0.png"],["E_Dist_100_LN_6_LD_12_RN_6_RD_10_1.png"]],"dist200_C":[["C_Dist_200_LN_11_LD_22_RN_3_RD_10_0.png","C_Dist_200_LN_12_LD_15_RN_6_RD_10_0.png","C_Dist_200_LN_12_LD_20_RN_6_RD_15_0.png","C_Dist_200_LN_14_LD_28_RN_6_RD_20_0.png","C_Dist_200_LN_15_LD_25_RN_4_RD_10_0.png","C_Dist_200_LN_16_LD_20_RN_12_RD_20_0.png","C_Dist_200_LN_16_LD_30_RN_9_RD_27_0.png","C_Dist_200_LN_20_LD_25_RN_9_RD_15_0.png","C_Dist_200_LN_21_LD_30_RN_2_RD_4_0.png","C_Dist_200_LN_4_LD_10_RN_3_RD_15_0.png","C_Dist_200_LN_4_LD_8_RN_3_RD_10_0.png","C_Dist_200_LN_6_LD_15_RN_3_RD_15_0.png","C_Dist_200_LN_7_LD_21_RN_2_RD_15_0.png","C_Dist_200_LN_8_LD_15_RN_2_RD_6_0.png","C_Dist_200_LN_8_LD_15_RN_3_RD_9_0.png","C_Dist_200_LN_8_LD_15_RN_7_RD_21_0.png","C_Dist_200_LN_9_LD_20_RN_4_RD_16_0.png"],["C_Dist_200_LN_1_LD_2_RN_21_RD_30_1.png","C_Dist_200_LN_13_LD_26_RN_14_RD_20_1.png","C_Dist_200_LN_3_LD_10_RN_11_RD_22_1.png","C_Dist_200_LN_3_LD_10_RN_14_RD_28_1.png","C_Dist_200_LN_3_LD_10_RN_7_RD_14_1.png","C_Dist_200_LN_3_LD_12_RN_9_RD_20_1.png","C_Dist_200_LN_3_LD_6_RN_14_RD_20_1.png","C_Dist_200_LN_5_LD_10_RN_14_RD_20_1.png","C_Dist_200_LN_6_LD_12_RN_7_RD_10_1.png","C_Dist_200_LN_6_LD_20_RN_11_RD_22_1.png","C_Dist_200_LN_7_LD_15_RN_18_RD_27_1.png","C_Dist_200_LN_9_LD_30_RN_13_RD_26_1.png"]],"dist200_I":[["I_Dist_200_LN_1_LD_2_RN_3_RD_10_0.png","I_Dist_200_LN_1_LD_3_RN_2_RD_15_0.png","I_Dist_200_LN_3_LD_4_RN_11_RD_20_0.png","I_Dist_200_LN_4_LD_5_RN_6_RD_10_0.png","I_Dist_200_LN_4_LD_6_RN_14_RD_30_0.png","I_Dist_200_LN_7_LD_10_RN_12_RD_24_0.png","I_Dist_200_LN_7_LD_10_RN_14_RD_28_0.png","I_Dist_200_LN_7_LD_10_RN_8_RD_16_0.png"],["I_Dist_200_LN_11_LD_20_RN_3_RD_4_1.png","I_Dist_200_LN_14_LD_30_RN_12_RD_18_1.png","I_Dist_200_LN_14_LD_30_RN_6_RD_9_1.png","I_Dist_200_LN_3_LD_10_RN_1_RD_2_1.png","I_Dist_200_LN_4_LD_30_RN_1_RD_3_1.png","I_Dist_200_LN_6_LD_20_RN_3_RD_6_1.png","I_Dist_200_LN_7_LD_15_RN_4_RD_6_1.png","I_Dist_200_LN_7_LD_15_RN_6_RD_9_1.png","I_Dist_200_LN_9_LD_15_RN_8_RD_10_1.png"]],"dist200_S":[["E_Dist_200_LN_3_LD_6_RN_3_RD_10_0.png"],["E_Dist_200_LN_3_LD_10_RN_3_RD_6_1.png"]],"dist300_C":[["C_Dist_300_LN_11_LD_22_RN_1_RD_5_0.png","C_Dist_300_LN_11_LD_22_RN_2_RD_10_0.png","C_Dist_300_LN_11_LD_22_RN_4_RD_20_0.png","C_Dist_300_LN_12_LD_24_RN_2_RD_10_0.png","C_Dist_300_LN_18_LD_20_RN_9_RD_15_0.png","C_Dist_300_LN_20_LD_25_RN_13_RD_26_0.png","C_Dist_300_LN_20_LD_25_RN_14_RD_28_0.png","C_Dist_300_LN_20_LD_25_RN_5_RD_10_0.png","C_Dist_300_LN_20_LD_25_RN_8_RD_16_0.png","C_Dist_300_LN_20_LD_25_RN_9_RD_18_0.png","C_Dist_300_LN_24_LD_30_RN_2_RD_4_0.png","C_Dist_300_LN_24_LD_30_RN_8_RD_16_0.png","C_Dist_300_LN_3_LD_6_RN_2_RD_10_0.png","C_Dist_300_LN_4_LD_10_RN_1_RD_10_0.png","C_Dist_300_LN_4_LD_5_RN_2_RD_4_0.png","C_Dist_300_LN_8_LD_16_RN_1_RD_5_0.png","C_Dist_300_LN_9_LD_10_RN_3_RD_5_0.png"],["C_Dist_300_LN_1_LD_20_RN_7_RD_20_1.png","C_Dist_300_LN_1_LD_3_RN_19_RD_30_1.png","C_Dist_300_LN_1_LD_30_RN_8_RD_24_1.png","C_Dist_300_LN_1_LD_5_RN_11_RD_22_1.png","C_Dist_300_LN_1_LD_5_RN_3_RD_6_1.png","C_Dist_300_LN_1_LD_5_RN_6_RD_12_1.png","C_Dist_300_LN_2_LD_10_RN_12_RD_24_1.png","C_Dist_300_LN_2_LD_20_RN_10_RD_25_1.png","C_Dist_300_LN_3_LD_12_RN_11_RD_20_1.png","C_Dist_300_LN_3_LD_6_RN_4_RD_5_1.png","C_Dist_300_LN_4_LD_20_RN_13_RD_26_1.png","C_Dist_300_LN_5_LD_25_RN_6_RD_12_1.png","C_Dist_300_LN_5_LD_25_RN_7_RD_14_1.png","C_Dist_300_LN_7_LD_14_RN_20_RD_25_1.png","C_Dist_300_LN_8_LD_15_RN_10_RD_12_1.png"]],"dist300_I":[["I_Dist_300_LN_1_LD_2_RN_2_RD_10_0.png","I_Dist_300_LN_1_LD_2_RN_3_RD_15_0.png","I_Dist_300_LN_2_LD_4_RN_6_RD_30_0.png","I_Dist_300_LN_3_LD_6_RN_4_RD_20_0.png","I_Dist_300_LN_4_LD_5_RN_6_RD_12_0.png","I_Dist_300_LN_4_LD_5_RN_8_RD_16_0.png","I_Dist_300_LN_7_LD_10_RN_8_RD_20_0.png","I_Dist_300_LN_8_LD_10_RN_14_RD_28_0.png","I_Dist_300_LN_8_LD_10_RN_9_RD_18_0.png"],["I_Dist_300_LN_13_LD_26_RN_12_RD_15_1.png","I_Dist_300_LN_4_LD_20_RN_2_RD_4_1.png"]],"dist300_S":[["E_Dist_300_LN_9_LD_12_RN_9_RD_20_0.png"],["E_Dist_300_LN_18_LD_30_RN_18_RD_20_1.png","E_Dist_300_LN_3_LD_10_RN_3_RD_5_1.png","E_Dist_300_LN_9_LD_20_RN_9_RD_12_1.png"]],"dist500_C":[["C_Dist_500_LN_10_LD_13_RN_7_RD_26_0.png","C_Dist_500_LN_10_LD_15_RN_4_RD_24_0.png","C_Dist_500_LN_12_LD_16_RN_3_RD_12_0.png","C_Dist_500_LN_12_LD_18_RN_4_RD_24_0.png","C_Dist_500_LN_15_LD_18_RN_5_RD_15_0.png","C_Dist_500_LN_15_LD_20_RN_1_RD_4_0.png","C_Dist_500_LN_18_LD_27_RN_1_RD_6_0.png","C_Dist_500_LN_20_LD_24_RN_1_RD_3_0.png","C_Dist_500_LN_20_LD_24_RN_3_RD_9_0.png","C_Dist_500_LN_20_LD_24_RN_7_RD_21_0.png","C_Dist_500_LN_20_LD_28_RN_3_RD_14_0.png","C_Dist_500_LN_21_LD_28_RN_6_RD_24_0.png","C_Dist_500_LN_22_LD_28_RN_2_RD_7_0.png","C_Dist_500_LN_25_LD_30_RN_9_RD_27_0.png","C_Dist_500_LN_4_LD_6_RN_1_RD_6_0.png","C_Dist_500_LN_5_LD_6_RN_2_RD_6_0.png","C_Dist_500_LN_6_LD_9_RN_1_RD_6_0.png","C_Dist_500_LN_7_LD_10_RN_1_RD_5_0.png","C_Dist_500_LN_8_LD_12_RN_1_RD_6_0.png","C_Dist_500_LN_8_LD_12_RN_4_RD_24_0.png"],["C_Dist_500_LN_1_LD_4_RN_12_RD_16_1.png","C_Dist_500_LN_1_LD_4_RN_9_RD_12_1.png","C_Dist_500_LN_1_LD_9_RN_11_RD_18_1.png","C_Dist_500_LN_10_LD_24_RN_22_RD_24_1.png","C_Dist_500_LN_2_LD_12_RN_10_RD_15_1.png","C_Dist_500_LN_2_LD_12_RN_12_RD_18_1.png","C_Dist_500_LN_2_LD_12_RN_4_RD_6_1.png","C_Dist_500_LN_2_LD_24_RN_7_RD_12_1.png","C_Dist_500_LN_2_LD_5_RN_18_RD_20_1.png","C_Dist_500_LN_2_LD_5_RN_9_RD_10_1.png","C_Dist_500_LN_2_LD_8_RN_12_RD_16_1.png","C_Dist_500_LN_2_LD_8_RN_21_RD_28_1.png","C_Dist_500_LN_3_LD_10_RN_4_RD_5_1.png","C_Dist_500_LN_3_LD_12_RN_15_RD_20_1.png","C_Dist_500_LN_3_LD_30_RN_6_RD_10_1.png","C_Dist_500_LN_3_LD_8_RN_14_RD_16_1.png","C_Dist_500_LN_4_LD_16_RN_15_RD_20_1.png","C_Dist_500_LN_4_LD_24_RN_12_RD_18_1.png","C_Dist_500_LN_5_LD_14_RN_6_RD_7_1.png","C_Dist_500_LN_7_LD_21_RN_20_RD_24_1.png","C_Dist_500_LN_7_LD_28_RN_12_RD_16_1.png","C_Dist_500_LN_7_LD_28_RN_9_RD_12_1.png","C_Dist_500_LN_9_LD_27_RN_20_RD_24_1.png"]],"dist500_I":[["I_Dist_500_LN_2_LD_3_RN_4_RD_24_0.png","I_Dist_500_LN_5_LD_6_RN_6_RD_18_0.png","I_Dist_500_LN_7_LD_8_RN_9_RD_24_0.png"],["I_Dist_500_LN_7_LD_21_RN_5_RD_6_1.png"]],"dist500_S":[["E_Dist_500_LN_6_LD_8_RN_6_RD_24_0.png"],["E_Dist_500_LN_2_LD_12_RN_2_RD_3_1.png","E_Dist_500_LN_6_LD_24_RN_6_RD_8_1.png"]]}},{"start_time":1552055557412,"click_time":1552055560173,"finger_time":1552055557972,"fix_duration":1117.2539322493408,"trial":1,"RT":560,"MT":2201,"sideResp":1,"stimulus":[],"xmouse":[782,782,782,782,782,782,782,782,782,782,782,782,782,782,782,782,782,782,782,782,782,782,782,783,787,808,818,824,827,827,827,827,827,827,827,827,827,827,827,827,827,827,827,827,827,827,827,827,827,827,827,825,818,810,804,800,797,796,795,794,793,789,786,785,783,783,783,783,783,783,783,783,783,783,783,783,783,783,783,783,783,783,783,783,783,783,783,783,783,783,783,783,783,783,783,783,783,783,783,783,783,783,783,783,783,783,783,783,783,783,783,783,783,783,781,775,774,773,773,773,773,773,773,773,772,772,771,771,771,771,769,751,729,688,640,578,469,444,429],"ymouse":[505,505,505,505,505,505,505,505,505,505,505,505,505,505,505,505,505,505,505,505,505,505,505,505,502,487,479,474,468,465,462,462,462,462,462,462,462,462,462,462,462,462,462,462,462,462,462,462,462,462,462,461,465,470,474,478,481,483,484,486,488,492,495,497,499,500,500,500,500,500,500,500,500,500,500,500,500,500,500,500,500,500,500,500,500,500,500,500,500,500,500,500,500,500,500,500,500,500,500,500,500,500,500,500,500,500,500,500,500,500,500,500,500,500,502,506,508,510,510,510,510,510,510,510,510,511,511,511,511,511,511,488,463,417,364,293,162,131,99],"timestamp_mouse":[10,34,41,62,80,101,121,140,161,181,200,220,240,260,280,301,320,341,361,381,400,421,441,461,481,501,520,541,560,581,600,620,641,661,681,701,720,741,761,781,801,820,841,861,880,901,920,940,961,980,1001,1020,1040,1061,1080,1100,1120,1140,1160,1181,1201,1221,1240,1261,1281,1300,1322,1341,1361,1381,1400,1421,1440,1460,1480,1501,1520,1541,1561,1581,1600,1620,1640,1661,1680,1702,1721,1741,1761,1781,1800,1820,1840,1861,1882,1901,1921,1941,1961,1981,2001,2021,2040,2061,2081,2102,2122,2141,2161,2181,2202,2222,2241,2261,2280,2301,2320,2340,2361,2381,2402,2421,2441,2460,2480,2501,2521,2541,2560,2581,2600,2621,2640,2660,2681,2701,2720,2740,2760],"xSR":741.5,"ySR":469.95,"xT1":424.9,"yT1":0,"xT2":1058.1,"yT2":0,"toosoon":0,"cond_shown":"Incongruent","ratio_trial":200,"L_num":11,"L_den":20,"R_num":3,"R_den":4,"correct_side":2,"subjID":"manuelafernandezmatyasvalenciasaab26","gender":"1","school":"4","age":"9"},{"start_time":1552055562633,"click_time":1552055565513,"finger_time":1552055564113,"fix_duration":1279.984799249707,"trial":2,"RT":1480,"MT":1400,"sideResp":2,"stimulus":[],"xmouse":[757,757,757,757,757,757,757,757,757,757,757,757,757,757,757,757,757,757,757,757,757,757,757,757,757,757,757,757,757,757,757,757,757,757,757,757,757,757,757,757,757,757,757,757,757,757,757,757,757,757,757,757,757,757,757,757,757,757,757,757,757,757,757,757,757,757,757,757,757,757,757,757,749,744,736,719,704,690,674,639,633,629,628,628,627,624,621,615,601,590,567,555,543,531,523,516,515,515,515,515,514,513,513,513,513,513,513,513,513,513,513,513,513,515,517,525,534,546,579,635,667,691,709,723,738,757,765,775,783,797,817,824,830,835,837,843,852,865,881,920,1002,1035,1054,1072,1080],"ymouse":[503,503,503,503,503,503,503,503,503,503,503,503,503,503,503,503,503,503,503,503,503,503,503,503,503,503,503,503,503,503,503,503,503,503,503,503,503,503,503,503,503,503,503,503,503,503,503,503,503,503,503,503,503,503,503,503,503,503,503,503,503,503,503,503,503,503,503,503,503,503,503,503,503,503,503,491,480,466,446,401,393,386,383,383,377,372,364,351,328,310,271,252,229,211,192,165,156,149,145,140,135,133,132,132,132,132,132,132,132,132,132,132,132,134,136,149,161,175,199,237,257,271,282,292,303,322,335,349,364,389,424,437,446,453,455,456,451,436,407,339,224,181,158,123,96],"timestamp_mouse":[2,20,46,60,80,100,119,139,160,180,201,219,239,259,280,300,319,339,359,381,400,419,441,460,480,499,519,540,561,580,600,619,640,660,679,700,719,739,759,779,800,820,840,859,880,901,920,940,960,979,1001,1019,1039,1059,1079,1100,1119,1139,1159,1180,1199,1220,1241,1260,1280,1300,1320,1339,1359,1380,1399,1419,1440,1460,1480,1499,1520,1540,1559,1581,1600,1620,1639,1659,1681,1699,1720,1739,1759,1779,1799,1819,1840,1859,1879,1899,1920,1940,1960,1979,1999,2019,2039,2059,2079,2099,2120,2139,2160,2179,2200,2219,2239,2259,2280,2299,2319,2339,2359,2381,2399,2419,2440,2459,2480,2499,2520,2539,2560,2579,2600,2619,2640,2659,2679,2699,2719,2739,2760,2779,2799,2819,2841,2861,2880],"xSR":741.5,"ySR":469.95,"xT1":424.9,"yT1":0,"xT2":1058.1,"yT2":0,"toosoon":0,"cond_shown":"Congruent","ratio_trial":200,"L_num":3,"L_den":12,"R_num":9,"R_den":20,"correct_side":2,"subjID":"manuelafernandezmatyasvalenciasaab26","gender":"1","school":"4","age":"9"},{"start_time":1552055567954,"click_time":1552055569773,"finger_time":1552055569452,"fix_duration":1139.7182911399816,"trial":3,"RT":1498,"MT":321,"sideResp":1,"stimulus":[],"xmouse":[786,786,786,786,786,786,786,786,786,786,786,786,786,786,786,786,786,786,786,786,786,786,786,786,786,786,786,786,786,786,786,786,786,786,786,786,786,786,786,786,786,786,786,786,786,786,786,786,786,786,786,786,786,786,786,786,786,786,786,786,786,786,786,786,786,786,786,786,786,786,786,786,786,787,767,740,694,655,635,626,626,630,634,646,657,658,658,650,636,576,533,488],"ymouse":[525,525,525,525,525,525,525,525,525,525,525,525,525,525,525,525,525,525,525,525,525,525,525,525,525,525,525,525,525,525,525,525,525,525,525,525,525,525,525,525,525,525,525,525,525,525,525,525,525,525,525,525,525,525,525,525,525,525,525,525,525,525,525,525,525,525,525,525,525,525,525,525,525,518,475,434,376,326,295,257,242,232,227,223,219,214,200,179,157,103,75,51],"timestamp_mouse":[1,19,38,59,79,98,119,138,160,180,199,219,238,258,279,298,318,339,359,379,398,419,439,458,478,498,519,538,558,579,599,618,639,658,679,699,718,740,759,779,798,818,839,858,879,898,919,939,960,978,998,1018,1038,1059,1078,1098,1118,1140,1159,1178,1199,1219,1239,1258,1279,1299,1318,1339,1359,1379,1398,1419,1438,1458,1478,1498,1518,1539,1560,1578,1598,1620,1638,1658,1678,1698,1718,1738,1758,1778,1798,1819],"xSR":741.5,"ySR":469.95,"xT1":424.9,"yT1":0,"xT2":1058.1,"yT2":0,"toosoon":0,"cond_shown":"Incongruent","ratio_trial":100,"L_num":11,"L_den":22,"R_num":9,"R_den":15,"correct_side":2,"subjID":"manuelafernandezmatyasvalenciasaab26","gender":"1","school":"4","age":"9"},{"start_time":1552055571313,"click_time":1552055572453,"finger_time":1552055571953,"fix_duration":379.9181600220656,"trial":4,"RT":640,"MT":500,"sideResp":2,"stimulus":[],"xmouse":[783,783,783,783,783,783,783,783,783,783,783,783,783,783,783,783,783,783,783,783,783,783,783,783,783,783,783,783,783,783,783,783,794,795,804,825,910,930,945,955,962,975,979,995,998,1015,1017,1019,1022,1026,1031,1038,1042,1048,1054,1062,1100,1112],"ymouse":[498,498,498,498,498,498,498,498,498,498,498,498,498,498,498,498,498,498,498,498,498,498,498,498,498,498,498,498,498,498,498,498,462,442,410,368,265,240,217,195,178,156,149,138,137,129,129,129,129,129,129,127,126,124,120,117,101,96],"timestamp_mouse":[9,36,39,60,79,100,120,139,161,180,200,220,240,260,280,299,319,340,359,380,399,419,440,459,479,499,520,539,559,580,599,619,640,659,679,700,719,740,760,780,799,819,839,859,880,901,919,939,959,979,999,1019,1039,1059,1079,1100,1119,1140],"xSR":741.5,"ySR":469.95,"xT1":424.9,"yT1":0,"xT2":1058.1,"yT2":0,"toosoon":0,"cond_shown":"Congruent","ratio_trial":200,"L_num":12,"L_den":15,"R_num":6,"R_den":10,"correct_side":1,"subjID":"manuelafernandezmatyasvalenciasaab26","gender":"1","school":"4","age":"9"},{"start_time":1552055577221,"click_time":1552055578553,"finger_time":1552055577634,"fix_duration":1488.0602556700708,"trial":5,"RT":413,"MT":919,"sideResp":2,"stimulus":[],"xmouse":[804,804,804,804,804,804,804,804,804,804,804,804,804,804,804,804,804,802,797,776,732,711,687,668,648,645,644,643,643,643,639,631,619,611,602,593,593,592,592,592,590,588,585,581,571,545,538,534,534,537,540,544,552,567,604,627,655,689,732,793,861,888,911,941,973,1056,1097],"ymouse":[491,491,491,491,491,491,491,491,491,491,491,491,491,491,491,491,491,491,491,474,444,425,409,396,380,377,376,376,376,376,372,365,356,349,341,332,330,330,330,328,298,276,243,210,172,109,89,79,76,75,75,75,76,84,102,110,122,131,140,148,149,149,149,138,125,90,72],"timestamp_mouse":[13,39,52,72,91,113,131,152,172,192,212,231,252,271,292,312,331,351,371,391,413,431,451,471,493,511,532,551,572,591,611,632,652,672,692,711,731,751,772,793,811,831,852,872,892,911,931,951,971,993,1012,1031,1053,1072,1093,1111,1133,1151,1172,1192,1212,1231,1252,1271,1291,1311,1332],"xSR":741.5,"ySR":469.95,"xT1":424.9,"yT1":0,"xT2":1058.1,"yT2":0,"toosoon":0,"cond_shown":"Incongruent","ratio_trial":100,"L_num":3,"L_den":5,"R_num":8,"R_den":16,"correct_side":1,"subjID":"manuelafernandezmatyasvalenciasaab26","gender":"1","school":"4","age":"9"},{"start_time":1552055582194,"click_time":1552055585832,"finger_time":1552055585513,"fix_duration":1158.7911125772373,"trial":6,"RT":3319,"MT":319,"sideResp":2,"stimulus":[],"xmouse":[753,753,753,753,753,753,753,753,753,753,753,753,753,753,753,753,753,753,753,753,753,753,753,753,753,753,753,753,753,753,753,753,753,753,753,753,753,753,753,753,753,753,753,753,753,753,753,753,753,753,753,753,753,753,753,753,753,753,753,753,753,753,753,753,753,753,753,753,753,753,753,753,753,753,753,753,753,753,753,753,753,753,753,753,753,753,753,753,753,753,753,753,753,753,753,753,753,753,753,753,753,753,753,753,753,753,753,753,753,753,753,753,753,753,753,753,753,753,753,753,753,753,753,753,753,753,753,753,753,753,753,753,753,753,753,753,753,753,753,753,753,753,753,753,753,753,753,753,753,753,753,753,753,753,753,753,753,753,753,753,753,753,753,762,781,823,912,930,947,963,984,1028,1037,1042,1044,1044,1045,1048,1053,1057,1061,1065,1065],"ymouse":[543,543,543,543,543,543,543,543,543,543,543,543,543,543,543,543,543,543,543,543,543,543,543,543,543,543,543,543,543,543,543,543,543,543,543,543,543,543,543,543,543,543,543,543,543,543,543,543,543,543,543,543,543,543,543,543,543,543,543,543,543,543,543,543,543,543,543,543,543,543,543,543,543,543,543,543,543,543,543,543,543,543,543,543,543,543,543,543,543,543,543,543,543,543,543,543,543,543,543,543,543,543,543,543,543,543,543,543,543,543,543,543,543,543,543,543,543,543,543,543,543,543,543,543,543,543,543,543,543,543,543,543,543,543,543,543,543,543,543,543,543,543,543,543,543,543,543,543,543,543,543,543,543,543,543,543,543,543,543,543,543,543,543,529,512,482,425,410,396,381,360,300,281,262,245,233,225,209,195,177,153,106,73],"timestamp_mouse":[8,22,46,59,78,99,118,138,160,179,198,219,239,258,279,299,319,338,358,379,399,419,439,459,479,498,519,539,558,579,598,618,638,658,679,698,718,739,758,778,799,819,839,859,878,898,919,939,958,978,998,1019,1038,1059,1079,1099,1118,1139,1158,1178,1198,1218,1238,1258,1279,1299,1318,1340,1358,1379,1399,1419,1440,1459,1479,1499,1519,1538,1559,1579,1599,1618,1639,1658,1679,1700,1718,1738,1759,1780,1799,1818,1839,1859,1879,1899,1919,1938,1959,1979,1999,2019,2039,2059,2079,2099,2118,2138,2159,2178,2198,2218,2239,2259,2279,2299,2320,2340,2359,2379,2399,2419,2439,2459,2478,2499,2518,2538,2558,2579,2599,2619,2638,2659,2679,2699,2719,2738,2759,2778,2799,2819,2838,2859,2879,2899,2919,2939,2958,2979,2999,3020,3039,3058,3079,3099,3119,3139,3159,3179,3199,3218,3239,3258,3278,3298,3319,3338,3358,3378,3398,3420,3438,3458,3478,3499,3518,3538,3558,3578,3599,3618,3638],"xSR":741.5,"ySR":469.95,"xT1":424.9,"yT1":0,"xT2":1058.1,"yT2":0,"toosoon":0,"cond_shown":"Incongruent","ratio_trial":200,"L_num":6,"L_den":20,"R_num":3,"R_den":6,"correct_side":2,"subjID":"manuelafernandezmatyasvalenciasaab26","gender":"1","school":"4","age":"9"},{"start_time":1552055588315,"click_time":1552055590154,"finger_time":1552055590073,"fix_duration":1241.889403029478,"trial":7,"RT":1758,"MT":81,"sideResp":1,"stimulus":[],"xmouse":[792,792,792,792,792,792,792,792,792,792,792,792,792,792,792,792,792,792,792,792,792,792,792,792,792,792,792,792,792,792,792,792,792,792,792,792,792,792,792,792,792,792,792,792,792,792,792,792,792,792,792,792,792,792,792,792,792,792,792,792,792,792,792,792,792,792,792,792,792,792,792,792,792,792,792,792,792,792,792,792,792,792,792,792,792,784,766,746,714,623,565,513],"ymouse":[534,534,534,534,534,534,534,534,534,534,534,534,534,534,534,534,534,534,534,534,534,534,534,534,534,534,534,534,534,534,534,534,534,534,534,534,534,534,534,534,534,534,534,534,534,534,534,534,534,534,534,534,534,534,534,534,534,534,534,534,534,534,534,534,534,534,534,534,534,534,534,534,534,534,534,534,534,534,534,534,534,534,534,534,534,519,476,428,372,229,150,72],"timestamp_mouse":[18,37,58,77,97,119,137,157,178,198,218,237,258,278,298,317,337,357,378,397,418,438,459,479,500,519,538,559,579,599,619,638,659,678,698,718,738,758,780,800,819,839,858,879,900,919,938,959,979,998,1018,1039,1059,1078,1100,1120,1138,1158,1180,1200,1220,1239,1260,1278,1299,1320,1338,1359,1380,1399,1420,1439,1459,1480,1499,1519,1539,1558,1579,1598,1619,1639,1658,1678,1700,1719,1738,1758,1779,1800,1819,1839],"xSR":741.5,"ySR":469.95,"xT1":424.9,"yT1":0,"xT2":1058.1,"yT2":0,"toosoon":0,"cond_shown":"Congruent","ratio_trial":200,"L_num":3,"L_den":10,"R_num":14,"R_den":28,"correct_side":2,"subjID":"manuelafernandezmatyasvalenciasaab26","gender":"1","school":"4","age":"9"},{"start_time":1552055592588,"click_time":1552055594254,"finger_time":1552055593915,"fix_duration":1273.5101241364396,"trial":8,"RT":1327,"MT":339,"sideResp":2,"stimulus":[],"xmouse":[789,789,789,789,789,789,789,789,789,789,790,795,813,819,820,820,820,820,820,801,776,758,754,754,754,754,754,754,754,754,753,753,746,745,745,745,745,745,745,745,745,745,745,745,745,745,745,745,745,745,745,745,745,745,745,745,745,745,745,752,755,757,760,762,767,777,814,858,912,963,1001,1038,1043,1045,1045,1044,1039,1030,1026,1023,1020,1034,1053,1072],"ymouse":[513,513,513,513,513,513,513,513,513,513,512,510,492,486,485,485,485,485,485,501,517,523,523,523,523,523,523,523,523,523,524,525,533,534,534,534,534,534,534,534,534,534,534,534,534,534,534,534,534,534,534,534,534,534,534,534,534,534,534,529,525,523,520,517,511,501,466,422,375,320,279,211,199,192,186,180,172,159,153,149,140,115,96,78],"timestamp_mouse":[13,27,45,65,85,105,125,147,165,187,206,226,246,265,286,307,325,345,365,385,406,425,446,465,485,507,526,546,566,585,606,626,645,666,686,707,725,745,765,787,807,827,846,866,885,906,925,945,965,987,1006,1025,1046,1065,1086,1106,1127,1145,1166,1185,1205,1225,1245,1265,1286,1306,1327,1346,1366,1386,1405,1427,1445,1465,1486,1505,1526,1545,1566,1585,1607,1627,1645,1666],"xSR":741.5,"ySR":469.95,"xT1":424.9,"yT1":0,"xT2":1058.1,"yT2":0,"toosoon":0,"cond_shown":"Incongruent","ratio_trial":300,"L_num":13,"L_den":26,"R_num":12,"R_den":15,"correct_side":2,"subjID":"manuelafernandezmatyasvalenciasaab26","gender":"1","school":"4","age":"9"},{"start_time":1552055598963,"click_time":1552055600694,"finger_time":1552055600355,"fix_duration":527.1417020504728,"trial":9,"RT":1392,"MT":339,"sideResp":1,"stimulus":[],"xmouse":[788,788,788,788,788,788,788,788,788,788,788,788,788,788,788,788,788,788,788,788,788,788,788,788,788,788,788,788,788,788,788,788,788,788,788,788,788,788,788,788,788,788,788,788,788,788,788,788,788,788,788,788,788,788,788,788,788,788,788,788,788,788,788,788,788,788,788,786,781,771,757,728,695,621,603,595,594,595,596,597,598,599,599,583,559,517,462],"ymouse":[508,508,508,508,508,508,508,508,508,508,508,508,508,508,508,508,508,508,508,508,508,508,508,508,508,508,508,508,508,508,508,508,508,508,508,508,508,508,508,508,508,508,508,508,508,508,508,508,508,508,508,508,508,508,508,508,508,508,508,508,508,508,508,508,508,508,508,496,482,464,441,407,369,281,260,242,236,233,232,230,226,219,204,169,140,110,72],"timestamp_mouse":[12,34,51,72,90,111,131,152,171,192,210,230,251,270,291,312,331,352,370,391,411,431,452,471,490,512,532,552,570,592,611,631,650,670,691,710,730,752,771,790,812,830,850,871,891,910,930,952,970,990,1012,1032,1050,1071,1090,1111,1131,1151,1171,1191,1212,1231,1252,1272,1290,1310,1332,1352,1370,1391,1411,1430,1451,1470,1490,1510,1531,1552,1570,1590,1611,1630,1651,1670,1690,1710,1731],"xSR":741.5,"ySR":469.95,"xT1":424.9,"yT1":0,"xT2":1058.1,"yT2":0,"toosoon":0,"cond_shown":"Incongruent","ratio_trial":200,"L_num":4,"L_den":5,"R_num":6,"R_den":10,"correct_side":1,"subjID":"manuelafernandezmatyasvalenciasaab26","gender":"1","school":"4","age":"9"},{"start_time":1552055602127,"click_time":1552055605154,"finger_time":1552055603973,"fix_duration":250,"trial":10,"RT":1846,"MT":1181,"sideResp":2,"stimulus":[],"xmouse":[783,783,783,783,783,783,783,783,783,783,783,783,783,783,783,783,783,783,783,783,783,783,783,783,783,783,783,783,783,783,783,783,783,783,783,783,783,783,783,783,783,783,783,783,783,783,783,783,783,783,783,783,783,783,783,783,783,783,783,783,783,783,783,783,783,783,783,783,783,783,783,783,783,783,784,787,787,787,787,788,788,788,790,792,792,792,792,792,792,792,792,795,797,799,804,804,804,804,804,804,804,804,804,804,804,804,804,804,804,804,804,804,805,815,824,851,870,896,928,950,973,980,980,980,980,980,980,980,980,980,980,980,980,980,980,980,980,1038,1038,1042,1050,1051,1051,1051,1051,1051,1051,1051,1051,1051,1052,1069],"ymouse":[497,497,497,497,497,497,497,497,497,497,497,497,497,497,497,497,497,497,497,497,497,497,497,497,497,497,497,497,497,497,497,497,497,497,497,497,497,497,497,497,497,497,497,497,497,497,497,497,497,497,497,497,497,497,497,497,497,497,497,497,497,497,497,497,497,497,497,497,497,497,497,497,497,495,491,486,484,484,484,483,482,482,480,478,478,478,478,478,478,478,478,471,467,461,448,447,447,447,447,447,447,447,447,447,447,447,447,447,447,447,447,447,447,436,428,402,384,351,298,232,84,14,14,14,14,14,14,14,14,14,14,14,14,14,14,14,14,0,8,17,30,31,31,31,31,31,31,31,31,31,31,36],"timestamp_mouse":[14,36,47,66,86,106,126,148,167,186,207,228,247,267,287,307,327,347,368,386,406,427,447,467,486,506,527,546,566,586,608,626,646,666,687,707,728,746,766,788,806,827,847,866,886,908,927,947,967,986,1006,1026,1046,1066,1087,1107,1126,1147,1167,1187,1207,1226,1247,1266,1286,1306,1327,1346,1367,1388,1406,1427,1446,1466,1487,1507,1527,1547,1566,1587,1606,1626,1647,1667,1686,1707,1728,1748,1766,1786,1806,1827,1846,1866,1888,1906,1927,1948,1968,1986,2006,2026,2046,2066,2087,2106,2126,2146,2166,2188,2206,2226,2246,2267,2287,2307,2326,2346,2367,2386,2406,2427,2447,2467,2487,2508,2527,2547,2567,2588,2606,2627,2647,2667,2686,2706,2727,2746,2766,2786,2807,2827,2847,2867,2887,2907,2927,2947,2967,2987,3006,3027],"xSR":741.5,"ySR":469.95,"xT1":424.9,"yT1":0,"xT2":1058.1,"yT2":0,"toosoon":0,"cond_shown":"Congruent","ratio_trial":200,"L_num":3,"L_den":10,"R_num":7,"R_den":14,"correct_side":2,"subjID":"manuelafernandezmatyasvalenciasaab26","gender":"1","school":"4","age":"9"},{"start_time":1552055608600,"click_time":1552055611434,"finger_time":1552055609594,"fix_duration":1443.208629219937,"trial":11,"RT":994,"MT":1840,"sideResp":2,"stimulus":[],"xmouse":[754,754,754,754,754,754,754,754,754,754,754,754,754,754,754,754,754,754,754,754,754,754,754,754,754,754,754,754,754,754,754,754,754,754,754,754,754,754,754,754,754,754,754,754,754,754,754,752,747,733,730,725,725,725,725,725,725,725,725,725,725,725,725,725,725,725,725,725,725,725,725,725,724,724,723,721,716,707,691,673,649,632,629,623,610,585,464,437,420,405,386,351,328,315,307,304,304,304,304,302,298,296,296,296,295,295,295,295,306,322,347,387,410,436,471,499,544,566,580,595,619,670,706,750,796,827,846,846,846,846,846,855,862,868,874,886,924,948,983,1022,1048,1100],"ymouse":[538,538,538,538,538,538,538,538,538,538,538,538,538,538,538,538,538,538,538,538,538,538,538,538,538,538,538,538,538,538,538,538,538,538,538,538,538,538,538,538,538,538,538,538,538,538,538,535,533,522,520,517,517,517,517,517,517,517,517,517,517,517,517,517,517,517,517,517,517,517,517,516,515,515,514,514,514,512,509,505,499,493,491,487,482,471,432,423,415,408,389,364,352,343,337,333,332,332,331,325,315,312,311,310,309,309,309,307,301,296,288,271,261,253,243,237,228,218,210,200,186,178,178,178,178,178,177,177,177,177,177,169,158,150,143,142,138,134,122,114,109,96],"timestamp_mouse":[13,34,54,74,93,113,133,154,174,194,215,235,255,274,294,314,335,354,374,394,415,435,454,473,494,515,534,554,573,594,614,634,653,674,693,715,734,754,773,795,813,833,853,875,895,913,933,953,974,994,1014,1033,1053,1074,1094,1113,1133,1154,1175,1193,1213,1234,1254,1273,1293,1313,1333,1354,1373,1394,1413,1433,1453,1473,1493,1514,1533,1554,1573,1594,1615,1633,1653,1674,1693,1713,1733,1753,1773,1794,1813,1833,1853,1873,1894,1913,1933,1953,1973,1993,2015,2033,2053,2074,2093,2114,2134,2153,2173,2193,2213,2233,2253,2274,2293,2313,2333,2353,2374,2394,2414,2433,2454,2474,2493,2514,2533,2554,2574,2594,2615,2635,2654,2674,2693,2714,2733,2754,2773,2793,2814,2834],"xSR":741.5,"ySR":469.95,"xT1":424.9,"yT1":0,"xT2":1058.1,"yT2":0,"toosoon":0,"cond_shown":"Incongruent","ratio_trial":200,"L_num":3,"L_den":10,"R_num":1,"R_den":2,"correct_side":2,"subjID":"manuelafernandezmatyasvalenciasaab26","gender":"1","school":"4","age":"9"},{"start_time":1552055613166,"click_time":1552055614733,"finger_time":1552055614533,"fix_duration":250,"trial":12,"RT":1367,"MT":200,"sideResp":1,"stimulus":[],"xmouse":[782,782,782,782,782,782,782,782,782,782,782,782,782,782,782,782,782,782,782,782,782,782,782,782,782,782,782,782,782,782,782,782,782,782,782,782,782,782,782,782,782,782,782,782,782,782,782,782,782,782,782,782,782,782,782,782,782,782,782,782,782,782,782,782,782,786,791,795,801,801,801,793,759,658,594,538,495,473,456],"ymouse":[508,508,508,508,508,508,508,508,508,508,508,508,508,508,508,508,508,508,508,508,508,508,508,508,508,508,508,508,508,508,508,508,508,508,508,508,508,508,508,508,508,508,508,508,508,508,508,508,508,508,508,508,508,508,508,508,508,508,508,508,508,508,508,508,509,505,500,492,469,454,434,413,362,258,203,161,123,100,67],"timestamp_mouse":[12,35,48,68,87,107,128,148,167,189,208,228,248,269,287,308,329,347,368,388,407,428,448,468,487,508,527,548,569,589,607,629,647,667,688,707,727,749,768,789,807,827,847,867,888,909,927,947,968,989,1008,1027,1049,1067,1087,1109,1128,1148,1167,1189,1209,1228,1247,1267,1287,1307,1327,1347,1367,1388,1407,1427,1447,1467,1487,1507,1528,1547,1567],"xSR":741.5,"ySR":469.95,"xT1":424.9,"yT1":0,"xT2":1058.1,"yT2":0,"toosoon":0,"cond_shown":"Congruent","ratio_trial":300,"L_num":11,"L_den":22,"R_num":1,"R_den":5,"correct_side":1,"subjID":"manuelafernandezmatyasvalenciasaab26","gender":"1","school":"4","age":"9"},{"start_time":1552055616207,"click_time":1552055617733,"finger_time":1552055617253,"fix_duration":371.68386628619277,"trial":13,"RT":1046,"MT":480,"sideResp":2,"stimulus":[],"xmouse":[829,829,829,829,829,829,829,829,829,829,829,829,829,829,829,829,829,829,829,829,829,829,829,829,829,829,829,829,829,829,829,829,829,829,829,829,829,829,829,829,829,829,829,829,829,829,829,829,829,829,829,839,851,870,892,910,936,946,957,967,979,1000,1008,1018,1027,1036,1049,1053,1054,1054,1054,1053,1056,1057,1063,1070,1086],"ymouse":[560,560,560,560,560,560,560,560,560,560,560,560,560,560,560,560,560,560,560,560,560,560,560,560,560,560,560,560,560,560,560,560,560,560,560,560,560,560,560,560,560,560,560,560,560,560,560,560,560,560,560,553,538,520,502,482,436,411,386,362,337,298,280,258,237,215,173,155,142,132,123,118,114,112,108,102,97],"timestamp_mouse":[12,39,48,68,86,108,126,146,168,186,206,227,246,267,288,306,327,348,368,387,407,426,446,467,486,508,526,546,566,587,607,627,647,666,687,708,728,748,767,787,807,826,847,866,888,907,928,947,967,986,1006,1026,1046,1066,1086,1106,1126,1147,1167,1186,1206,1226,1246,1267,1286,1306,1326,1346,1367,1387,1406,1427,1446,1467,1486,1507,1526],"xSR":741.5,"ySR":469.95,"xT1":424.9,"yT1":0,"xT2":1058.1,"yT2":0,"toosoon":0,"cond_shown":"Congruent","ratio_trial":300,"L_num":5,"L_den":25,"R_num":7,"R_den":14,"correct_side":2,"subjID":"manuelafernandezmatyasvalenciasaab26","gender":"1","school":"4","age":"9"},{"start_time":1552055624444,"click_time":1552055626054,"finger_time":1552055624853,"fix_duration":250,"trial":14,"RT":409,"MT":1201,"sideResp":1,"stimulus":[],"xmouse":[819,819,819,819,819,819,819,819,819,819,819,819,819,819,819,819,819,819,819,782,737,672,594,423,324,243,243,243,243,243,243,243,243,243,243,243,243,243,243,243,243,243,243,243,243,243,243,243,243,243,243,243,243,243,243,243,243,243,243,243,229,247,265,285,323,341,360,365,373,373,371,371,371,371,371,371,374,378,391,415,425],"ymouse":[537,537,537,537,537,537,537,537,537,537,537,537,537,537,537,537,537,537,536,522,498,455,391,225,122,35,35,35,35,35,35,35,35,35,35,35,35,35,35,35,35,35,35,35,35,35,35,35,35,35,35,35,35,35,35,35,35,35,35,35,3,10,18,26,42,45,46,45,34,16,10,10,10,10,10,11,16,21,32,49,60],"timestamp_mouse":[13,36,49,71,89,109,131,150,170,190,210,229,249,269,290,309,331,350,370,389,409,430,449,471,489,509,529,549,569,590,609,630,649,669,690,709,730,751,769,789,809,829,850,871,890,910,930,950,969,989,1009,1029,1050,1069,1090,1109,1129,1149,1169,1190,1209,1230,1250,1270,1290,1310,1329,1349,1369,1389,1413,1429,1449,1469,1489,1511,1530,1549,1569,1589,1609],"xSR":741.5,"ySR":469.95,"xT1":424.9,"yT1":0,"xT2":1058.1,"yT2":0,"toosoon":0,"cond_shown":"Incongruent","ratio_trial":200,"L_num":4,"L_den":30,"R_num":1,"R_den":3,"correct_side":2,"subjID":"manuelafernandezmatyasvalenciasaab26","gender":"1","school":"4","age":"9"},{"start_time":1552055627421,"click_time":1552055627973,"finger_time":1552055627853,"fix_duration":366.2301061198897,"trial":15,"RT":432,"MT":120,"sideResp":2,"stimulus":[],"xmouse":[818,818,818,818,818,818,818,818,818,818,818,818,818,818,818,818,818,818,818,818,818,820,830,852,887,993,1039,1078],"ymouse":[521,521,521,521,521,521,521,521,521,521,521,521,521,521,521,521,521,521,521,521,513,461,390,332,280,147,95,50],"timestamp_mouse":[14,41,53,72,92,112,132,153,173,192,212,232,252,273,292,312,332,353,373,392,413,432,452,473,492,512,532,552],"xSR":741.5,"ySR":469.95,"xT1":424.9,"yT1":0,"xT2":1058.1,"yT2":0,"toosoon":0,"cond_shown":"Incongruent","ratio_trial":300,"L_num":13,"L_den":26,"R_num":12,"R_den":15,"correct_side":2,"subjID":"manuelafernandezmatyasvalenciasaab26","gender":"1","school":"4","age":"9"},{"start_time":1552055633227,"click_time":1552055640915,"finger_time":1552055637714,"fix_duration":250,"trial":16,"RT":4487,"MT":3201,"sideResp":1,"stimulus":[],"xmouse":[751,751,751,751,751,751,751,751,751,751,751,751,751,751,751,751,751,751,751,751,751,751,751,751,751,751,751,751,751,751,751,751,751,751,751,751,751,751,751,751,751,751,751,751,751,751,751,751,751,751,751,751,751,751,751,751,751,751,751,751,752,753,753,753,753,754,754,754,754,754,754,754,755,755,756,757,757,757,757,757,757,757,757,757,757,757,757,757,757,757,757,757,757,757,757,757,757,757,757,757,757,757,758,758,758,758,758,758,758,758,758,758,758,758,758,758,758,758,758,758,758,758,758,758,758,758,758,758,758,758,758,758,758,758,758,758,758,758,758,758,758,758,758,758,758,758,758,758,758,758,758,758,758,758,758,758,758,758,758,758,758,758,758,758,758,758,758,758,758,758,758,758,758,758,758,758,758,758,758,758,758,758,758,758,758,758,759,759,759,759,759,759,759,759,759,759,759,759,759,759,759,759,759,760,764,793,801,803,803,803,803,803,804,805,806,806,806,806,806,806,798,791,788,783,770,763,758,756,755,755,755,755,755,755,755,761,765,765,763,760,758,758,758,758,758,758,758,758,758,758,762,767,769,769,769,769,771,776,800,815,818,818,818,818,818,820,824,827,828,828,828,828,828,828,828,828,828,828,828,828,828,828,828,831,832,840,842,842,842,842,842,842,842,842,842,842,842,842,842,842,883,848,816,792,765,759,758,761,763,773,780,782,785,786,787,787,787,787,787,787,784,782,781,781,781,781,779,778,777,777,777,777,777,777,777,777,777,778,778,779,779,779,779,779,779,779,779,779,779,779,779,779,779,779,779,779,779,779,779,779,779,779,779,779,785,792,794,796,790,768,755,755,755,755,751,728,705,670,628,587,553,533,515,498,472],"ymouse":[523,523,523,523,523,523,523,523,523,523,523,523,523,523,523,523,523,523,523,523,523,523,523,523,523,523,523,523,523,523,523,523,523,523,523,523,523,523,523,523,523,523,523,523,523,523,523,523,523,523,523,523,523,523,523,523,523,523,524,524,526,527,528,529,530,531,531,533,534,535,538,538,540,541,545,547,548,548,548,548,548,548,548,548,548,548,548,548,548,548,548,548,548,548,548,548,548,548,548,548,548,548,549,549,549,549,549,549,549,549,549,549,549,549,549,549,549,549,549,549,549,549,549,549,549,549,549,549,549,549,549,549,549,549,549,549,549,549,549,549,549,549,549,549,549,549,549,549,549,549,549,549,549,549,549,549,549,549,549,549,549,549,549,549,549,549,549,549,549,549,549,549,549,549,549,549,549,549,549,549,550,550,550,550,550,550,550,551,551,551,551,551,551,551,551,551,551,551,551,551,551,551,551,551,551,550,550,550,550,550,550,550,546,542,535,531,531,531,531,530,541,550,557,563,582,591,599,604,606,606,606,606,606,606,606,578,543,509,488,474,466,466,466,466,466,466,466,466,466,466,508,518,524,524,524,524,526,526,528,528,528,528,528,528,528,533,543,550,552,552,552,552,552,552,552,552,552,552,552,552,552,552,552,554,556,605,692,692,692,692,692,692,692,692,692,692,692,692,692,692,719,690,663,643,620,617,616,613,611,603,594,587,582,579,578,578,578,578,577,570,565,563,562,561,561,561,561,561,560,560,560,560,560,560,558,550,544,537,536,533,533,533,533,533,533,533,533,533,533,533,533,533,533,533,533,532,532,532,532,532,532,532,532,532,532,532,521,511,494,465,445,445,445,445,440,409,385,346,298,249,204,173,141,120,92],"timestamp_mouse":[21,44,46,66,87,108,126,147,168,188,217,227,248,267,286,307,326,347,366,386,406,427,446,467,486,507,527,547,567,588,607,627,648,667,687,706,726,748,768,786,807,827,848,867,886,907,928,946,967,988,1008,1027,1046,1067,1086,1107,1126,1146,1166,1186,1207,1226,1246,1267,1286,1306,1326,1347,1366,1387,1407,1426,1446,1467,1487,1506,1527,1546,1568,1587,1607,1626,1647,1666,1686,1707,1726,1748,1766,1786,1806,1828,1846,1866,1887,1907,1927,1946,1966,1987,2007,2026,2046,2066,2087,2107,2127,2147,2167,2186,2206,2226,2247,2268,2286,2307,2327,2347,2366,2387,2407,2428,2446,2466,2487,2507,2527,2547,2567,2586,2607,2628,2648,2667,2686,2707,2728,2746,2767,2786,2808,2828,2846,2867,2886,2908,2927,2946,2968,2988,3007,3026,3047,3067,3087,3108,3126,3147,3166,3188,3206,3226,3247,3268,3286,3307,3328,3347,3366,3386,3408,3426,3446,3467,3486,3506,3527,3547,3567,3586,3607,3627,3647,3668,3686,3707,3727,3748,3767,3786,3806,3826,3848,3866,3887,3907,3928,3948,3966,3987,4007,4028,4047,4066,4087,4106,4127,4147,4166,4186,4208,4226,4247,4266,4286,4307,4326,4348,4366,4386,4407,4426,4446,4466,4487,4506,4528,4547,4567,4587,4606,4627,4646,4668,4686,4706,4727,4746,4767,4787,4807,4828,4847,4867,4887,4906,4926,4947,4968,4986,5006,5026,5046,5067,5086,5106,5126,5146,5167,5187,5208,5226,5246,5267,5286,5306,5326,5347,5367,5386,5408,5426,5447,5467,5487,5508,5528,5547,5567,5587,5606,5628,5647,5666,5687,5706,5726,5746,5766,5787,5807,5826,5847,5866,5888,5906,5926,5946,5966,5987,6006,6026,6046,6066,6088,6106,6127,6146,6166,6186,6206,6227,6247,6267,6286,6307,6327,6347,6367,6387,6407,6426,6446,6467,6487,6506,6527,6546,6566,6586,6606,6626,6647,6666,6686,6706,6726,6746,6768,6787,6807,6827,6847,6868,6887,6907,6927,6947,6966,6988,7007,7027,7047,7066,7088,7106,7126,7147,7168,7188,7207,7226,7246,7268,7288,7306,7327,7346,7368,7387,7406,7426,7448,7466,7487,7506,7526,7546,7566,7586,7606,7627,7646,7667,7688],"xSR":741.5,"ySR":469.95,"xT1":424.9,"yT1":0,"xT2":1058.1,"yT2":0,"toosoon":0,"cond_shown":"Congruent","ratio_trial":300,"L_num":2,"L_den":10,"R_num":12,"R_den":24,"correct_side":2,"subjID":"manuelafernandezmatyasvalenciasaab26","gender":"1","school":"4","age":"9"},{"start_time":1552055642486,"click_time":1552055643214,"finger_time":1552055642834,"fix_duration":390.89400796297537,"trial":17,"RT":348,"MT":380,"sideResp":2,"stimulus":[],"xmouse":[791,791,791,791,791,791,791,791,791,791,791,791,791,791,797,813,834,888,939,985,1010,1015,1015,1015,1015,1019,1025,1029,1032,1034,1034,1034,1034,1037,1044,1050,1061],"ymouse":[546,546,546,546,546,546,546,546,546,546,546,546,546,547,551,555,552,517,462,384,313,244,137,112,91,76,50,39,31,27,26,26,27,37,46,50,54],"timestamp_mouse":[14,42,47,68,88,108,128,149,168,188,208,229,247,268,287,308,328,348,367,387,408,428,447,467,487,508,529,547,568,588,608,629,647,667,687,707,727],"xSR":741.5,"ySR":469.95,"xT1":424.9,"yT1":0,"xT2":1058.1,"yT2":0,"toosoon":0,"cond_shown":"Incongruent","ratio_trial":300,"L_num":7,"L_den":10,"R_num":8,"R_den":20,"correct_side":1,"subjID":"manuelafernandezmatyasvalenciasaab26","gender":"1","school":"4","age":"9"},{"start_time":1552055644484,"click_time":1552055645333,"finger_time":1552055644933,"fix_duration":250,"trial":18,"RT":449,"MT":400,"sideResp":1,"stimulus":[],"xmouse":[751,751,751,751,751,751,751,751,751,751,751,751,751,751,751,751,751,751,751,751,751,742,691,661,646,635,632,621,616,610,599,581,576,574,573,571,567,555,539,520,498,460,444],"ymouse":[523,523,523,523,523,523,523,523,523,523,523,523,523,523,523,523,523,523,523,523,523,501,441,408,380,348,331,298,284,269,254,230,222,217,215,212,207,196,186,173,157,120,98],"timestamp_mouse":[10,33,50,70,89,109,131,150,170,190,211,231,250,270,290,310,329,349,369,390,409,430,449,469,490,510,530,549,570,591,610,630,651,670,690,709,729,749,769,789,809,831,849],"xSR":741.5,"ySR":469.95,"xT1":424.9,"yT1":0,"xT2":1058.1,"yT2":0,"toosoon":0,"cond_shown":"Incongruent","ratio_trial":100,"L_num":13,"L_den":26,"R_num":12,"R_den":20,"correct_side":2,"subjID":"manuelafernandezmatyasvalenciasaab26","gender":"1","school":"4","age":"9"},{"start_time":1552055647364,"click_time":1552055649355,"finger_time":1552055647773,"fix_duration":250,"trial":19,"RT":409,"MT":1582,"sideResp":1,"stimulus":[],"xmouse":[760,760,760,760,760,760,760,760,760,760,760,760,760,769,785,808,825,829,837,840,843,846,853,873,892,912,924,947,959,968,974,980,991,1006,1007,1008,1009,1010,1011,1012,1012,1012,1012,1012,1012,1012,1012,1012,1012,1012,1012,1012,1012,1012,1012,1012,1012,1010,1007,1006,1005,1005,1004,1000,999,996,992,987,969,954,933,912,867,830,821,810,801,789,762,746,728,704,685,678,672,663,651,628,617,609,606,602,592,570,564,557,554,549,531,523],"ymouse":[530,530,530,530,530,530,530,530,530,530,530,530,530,528,520,508,498,495,489,487,484,480,473,462,457,455,451,425,415,411,411,409,404,397,396,396,394,393,393,392,392,392,392,392,392,392,392,392,392,392,392,392,392,392,392,392,392,391,391,391,390,390,389,386,385,384,383,382,375,370,361,352,330,303,291,277,263,245,214,197,183,164,151,146,143,138,131,119,114,109,107,105,99,88,85,83,83,81,79,76],"timestamp_mouse":[19,40,50,69,90,109,130,151,171,189,209,229,249,269,289,309,330,350,369,389,409,430,449,469,490,509,529,550,569,590,609,629,649,669,689,709,730,749,769,789,809,829,851,870,889,910,929,951,969,989,1009,1030,1050,1069,1089,1110,1130,1151,1170,1190,1210,1231,1250,1269,1289,1309,1329,1350,1370,1389,1410,1430,1449,1469,1490,1510,1529,1551,1569,1589,1611,1631,1651,1670,1690,1710,1730,1751,1769,1791,1811,1829,1849,1869,1889,1910,1929,1951,1970,1991],"xSR":741.5,"ySR":469.95,"xT1":424.9,"yT1":0,"xT2":1058.1,"yT2":0,"toosoon":0,"cond_shown":"Incongruent","ratio_trial":300,"L_num":4,"L_den":20,"R_num":2,"R_den":4,"correct_side":2,"subjID":"manuelafernandezmatyasvalenciasaab26","gender":"1","school":"4","age":"9"},{"start_time":1552055656813,"click_time":1552055658933,"finger_time":1552055658555,"fix_duration":1137.2173791095759,"trial":20,"RT":1742,"MT":378,"sideResp":2,"stimulus":[],"xmouse":[783,783,783,783,783,783,783,783,783,783,783,783,783,783,783,783,783,783,783,783,783,783,783,783,783,783,783,783,783,783,783,783,783,783,783,783,783,783,783,783,783,783,783,783,783,783,783,783,783,783,783,783,783,783,783,783,783,783,783,783,783,783,783,783,783,783,783,783,783,783,783,783,783,783,783,783,783,783,783,783,783,783,783,783,783,788,807,850,932,1029,1117,1191,1203,1211,1216,1218,1221,1221,1221,1220,1220,1214,1209,1202,1192,1175,1119],"ymouse":[530,530,530,530,530,530,530,530,530,530,530,530,530,530,530,530,530,530,530,530,530,530,530,530,530,530,530,530,530,530,530,530,530,530,530,530,530,530,530,530,530,530,530,530,530,530,530,530,530,530,530,530,530,530,530,530,530,530,530,530,530,530,530,530,530,530,530,530,530,530,530,530,530,530,530,530,530,530,530,530,530,530,530,530,530,530,522,510,485,458,428,379,356,330,311,296,270,255,242,219,182,124,103,89,75,62,39],"timestamp_mouse":[10,37,41,61,81,102,121,141,162,180,202,221,242,260,280,302,322,340,361,380,402,422,441,461,481,501,520,541,562,580,602,622,640,662,682,701,722,741,760,781,802,821,841,861,882,902,922,940,961,982,1000,1020,1041,1062,1081,1100,1120,1141,1162,1181,1202,1221,1241,1262,1281,1300,1322,1340,1360,1380,1402,1420,1440,1462,1480,1500,1522,1540,1562,1582,1600,1620,1640,1661,1680,1700,1720,1742,1761,1781,1801,1820,1841,1861,1881,1900,1920,1942,1961,1980,2000,2020,2040,2061,2080,2100,2120],"xSR":741.5,"ySR":469.95,"xT1":424.9,"yT1":0,"xT2":1058.1,"yT2":0,"toosoon":0,"cond_shown":"Incongruent","ratio_trial":200,"L_num":11,"L_den":20,"R_num":3,"R_den":4,"correct_side":2,"subjID":"manuelafernandezmatyasvalenciasaab26","gender":"1","school":"4","age":"9"},{"start_time":1552055661702,"click_time":1552055663673,"finger_time":1552055663214,"fix_duration":726.8186494018483,"trial":21,"RT":1512,"MT":459,"sideResp":1,"stimulus":[],"xmouse":[782,782,782,782,782,782,782,782,782,782,782,782,782,782,782,782,782,782,782,782,782,782,782,782,782,782,782,782,782,782,782,782,782,782,782,782,782,782,782,782,782,782,783,783,783,783,783,783,783,783,783,783,783,783,783,783,783,783,783,783,783,783,783,783,783,783,783,783,783,783,783,783,783,781,757,708,530,432,350,308,301,316,332,346,355,362,368,371,374,379,384,398,406,411,415,423,436,438,442],"ymouse":[521,521,521,521,521,521,521,521,521,521,521,521,521,521,521,521,521,521,521,521,521,521,521,521,521,521,521,521,521,521,521,521,521,521,521,521,521,521,521,521,521,521,522,522,522,522,522,522,522,522,522,522,522,522,522,522,522,522,522,523,523,523,523,523,523,523,523,523,523,523,523,523,525,525,513,478,362,297,239,190,171,152,146,139,135,131,126,126,126,126,126,123,121,119,116,109,102,100,97],"timestamp_mouse":[13,34,51,72,91,113,131,151,172,193,212,231,252,271,293,313,331,352,373,393,412,431,451,472,493,513,531,551,573,592,613,633,651,673,692,712,732,752,772,792,811,831,853,873,892,912,931,952,973,991,1011,1033,1052,1071,1092,1111,1131,1152,1172,1191,1211,1232,1252,1273,1292,1313,1332,1352,1372,1392,1413,1432,1451,1472,1493,1512,1532,1551,1572,1591,1612,1631,1652,1672,1692,1712,1731,1752,1772,1791,1811,1831,1853,1873,1891,1911,1931,1952,1971],"xSR":741.5,"ySR":469.95,"xT1":424.9,"yT1":0,"xT2":1058.1,"yT2":0,"toosoon":0,"cond_shown":"Congruent","ratio_trial":100,"L_num":11,"L_den":22,"R_num":4,"R_den":10,"correct_side":1,"subjID":"manuelafernandezmatyasvalenciasaab26","gender":"1","school":"4","age":"9"},{"start_time":1552055665553,"click_time":1552055667074,"finger_time":1552055666494,"fix_duration":818.6164873202475,"trial":22,"RT":941,"MT":580,"sideResp":2,"stimulus":[],"xmouse":[774,774,774,774,774,774,774,774,774,774,774,774,774,774,774,774,774,774,774,774,774,774,774,774,773,771,769,768,768,768,768,768,768,768,768,768,768,768,768,768,768,769,776,783,810,826,839,853,870,906,919,940,970,1003,1017,1030,1037,1042,1045,1049,1051,1053,1055,1066,1069,1074,1079,1079,1079,1079,1079,1079,1079,1080,1085,1086,1091],"ymouse":[539,539,539,539,539,539,539,539,539,539,539,539,539,539,539,539,539,539,539,539,539,539,539,539,543,549,551,553,553,553,553,553,553,553,553,553,553,553,553,553,553,554,554,554,547,538,530,519,507,484,476,463,452,437,432,428,424,420,412,391,376,361,344,278,247,212,184,161,144,135,135,135,135,132,119,111,95],"timestamp_mouse":[2,22,41,62,81,101,121,140,161,182,202,221,241,260,282,302,322,342,361,382,402,420,441,460,482,500,522,542,561,580,600,621,640,662,681,701,720,742,761,782,800,820,841,860,880,900,920,941,960,980,1002,1022,1042,1063,1080,1101,1121,1141,1161,1180,1200,1220,1241,1262,1280,1300,1322,1341,1361,1380,1402,1422,1442,1461,1481,1501,1521],"xSR":741.5,"ySR":469.95,"xT1":424.9,"yT1":0,"xT2":1058.1,"yT2":0,"toosoon":0,"cond_shown":"Congruent","ratio_trial":100,"L_num":4,"L_den":8,"R_num":6,"R_den":10,"correct_side":2,"subjID":"manuelafernandezmatyasvalenciasaab26","gender":"1","school":"4","age":"9"},{"start_time":1552055668598,"click_time":1552055670115,"finger_time":1552055669715,"fix_duration":322.02793748144643,"trial":23,"RT":1117,"MT":400,"sideResp":2,"stimulus":[],"xmouse":[813,813,813,813,813,813,813,813,813,813,813,813,813,813,813,813,813,811,810,807,806,806,806,806,806,806,806,806,806,806,806,806,806,806,806,806,806,806,806,806,806,806,806,806,806,806,806,806,806,806,806,806,810,817,829,858,887,921,947,973,1003,1038,1056,1070,1081,1091,1106,1112,1113,1114,1117,1121,1123,1124,1124,1125],"ymouse":[520,520,520,520,520,520,520,520,520,520,520,520,520,520,520,520,520,520,520,520,520,520,520,520,520,520,520,520,520,520,520,520,520,520,520,520,520,520,520,520,520,520,520,520,520,520,520,520,520,520,520,521,517,509,496,453,414,378,353,336,317,287,268,252,236,221,194,184,177,167,152,127,114,106,101,93],"timestamp_mouse":[16,35,56,76,95,115,137,157,177,195,217,236,256,277,297,316,335,355,376,397,415,436,456,477,495,516,536,556,576,597,615,637,657,675,696,717,737,755,776,797,815,837,856,876,897,916,936,956,976,996,1016,1036,1055,1076,1095,1117,1136,1156,1176,1195,1216,1235,1255,1276,1296,1317,1335,1355,1376,1396,1415,1436,1455,1476,1495,1517],"xSR":741.5,"ySR":469.95,"xT1":424.9,"yT1":0,"xT2":1058.1,"yT2":0,"toosoon":0,"cond_shown":"Congruent","ratio_trial":200,"L_num":3,"L_den":10,"R_num":11,"R_den":22,"correct_side":2,"subjID":"manuelafernandezmatyasvalenciasaab26","gender":"1","school":"4","age":"9"},{"start_time":1552055672137,"click_time":1552055674134,"finger_time":1552055673695,"fix_duration":680.9970951682958,"trial":24,"RT":1558,"MT":439,"sideResp":1,"stimulus":[],"xmouse":[792,792,792,792,792,792,792,792,792,792,792,792,792,792,792,792,792,792,792,792,792,792,792,792,792,792,792,792,792,792,792,792,792,792,792,792,792,792,792,792,792,792,792,792,792,792,792,792,792,792,792,792,792,792,792,792,783,777,767,752,750,750,750,750,750,750,750,750,750,750,750,750,750,750,749,748,747,745,727,711,693,673,639,614,611,610,610,610,610,610,607,595,588,542,525,505,486,468,455,445],"ymouse":[500,500,500,500,500,500,500,500,500,500,500,500,500,500,500,500,500,500,500,500,500,500,500,500,500,500,500,500,500,500,500,500,500,500,500,500,500,500,500,500,500,500,500,500,500,500,500,500,500,500,500,500,500,500,500,500,498,495,492,489,487,487,487,487,487,487,487,487,487,487,487,487,487,487,484,477,473,465,427,384,336,281,204,142,127,120,117,116,116,116,115,115,115,119,119,119,116,111,106,97],"timestamp_mouse":[18,46,58,78,97,117,138,157,176,197,217,238,258,276,298,317,336,358,377,398,417,437,456,478,498,517,536,557,578,597,617,637,657,676,698,718,737,758,776,796,818,837,858,877,897,916,938,957,977,997,1018,1038,1056,1076,1098,1116,1136,1157,1176,1196,1216,1238,1258,1277,1296,1318,1336,1358,1377,1397,1417,1437,1457,1478,1497,1516,1545,1558,1579,1597,1618,1636,1658,1678,1697,1717,1736,1758,1777,1796,1817,1836,1857,1878,1896,1916,1936,1956,1977,1996],"xSR":741.5,"ySR":469.95,"xT1":424.9,"yT1":0,"xT2":1058.1,"yT2":0,"toosoon":0,"cond_shown":"Incongruent","ratio_trial":300,"L_num":4,"L_den":5,"R_num":8,"R_den":16,"correct_side":1,"subjID":"manuelafernandezmatyasvalenciasaab26","gender":"1","school":"4","age":"9"},{"start_time":1552055678964,"click_time":1552055680833,"finger_time":1552055680453,"fix_duration":1448.4634478381863,"trial":25,"RT":1489,"MT":380,"sideResp":1,"stimulus":[],"xmouse":[799,799,799,799,799,799,799,799,799,799,799,799,799,799,799,799,799,799,799,799,799,799,799,800,803,804,804,804,804,804,804,804,804,804,804,804,804,804,804,804,804,804,804,804,804,804,804,804,804,804,804,804,804,804,804,804,804,804,804,804,804,804,804,804,804,804,804,804,804,804,804,802,798,784,769,746,714,629,582,543,511,503,493,487,487,487,487,489,501,501,501,500,498,495],"ymouse":[525,525,525,525,525,525,525,525,525,525,525,525,525,525,525,525,525,525,525,525,525,526,522,502,498,496,495,495,495,495,495,495,495,495,495,495,495,495,495,495,495,495,495,495,495,495,495,495,495,495,495,495,495,495,495,495,495,495,495,495,495,495,495,495,495,495,495,495,495,495,494,494,492,478,462,442,414,346,299,262,224,212,195,184,184,183,181,178,164,148,132,118,102,89],"timestamp_mouse":[12,35,50,71,91,111,130,150,171,190,210,229,251,271,290,309,331,350,371,390,409,430,449,469,489,509,530,550,570,590,611,631,649,670,691,710,729,750,771,790,809,830,851,870,889,910,930,949,971,990,1010,1029,1051,1069,1089,1111,1130,1151,1169,1190,1211,1229,1250,1271,1290,1311,1331,1350,1369,1391,1409,1430,1449,1469,1489,1509,1529,1551,1569,1591,1609,1630,1649,1669,1690,1710,1730,1751,1769,1790,1810,1829,1849,1869],"xSR":741.5,"ySR":469.95,"xT1":424.9,"yT1":0,"xT2":1058.1,"yT2":0,"toosoon":0,"cond_shown":"Incongruent","ratio_trial":100,"L_num":3,"L_den":5,"R_num":11,"R_den":22,"correct_side":1,"subjID":"manuelafernandezmatyasvalenciasaab26","gender":"1","school":"4","age":"9"},{"start_time":1552055682730,"click_time":1552055686874,"finger_time":1552055685294,"fix_duration":494.2407920004993,"trial":26,"RT":2564,"MT":1580,"sideResp":1,"stimulus":[],"xmouse":[780,780,780,780,780,780,780,780,780,780,780,780,780,780,780,780,780,780,780,780,780,780,780,780,780,780,780,780,780,780,780,780,780,780,780,780,780,780,780,780,780,780,780,780,780,780,780,780,780,780,780,780,780,780,780,780,780,780,780,780,780,780,780,780,780,780,780,780,780,780,780,780,780,780,780,780,780,780,780,780,780,780,780,780,780,780,780,780,780,780,780,780,780,780,780,780,780,780,780,780,780,780,780,780,780,780,780,780,780,780,780,780,780,780,780,780,780,780,780,780,780,780,780,780,780,780,779,779,779,779,783,787,791,793,794,794,794,794,794,794,794,794,793,793,793,793,793,793,793,793,793,793,793,793,793,793,793,793,793,793,793,793,793,793,793,793,793,793,793,793,793,791,791,789,789,795,798,800,801,802,802,802,802,802,802,797,784,765,732,676,652,626,616,611,609,609,609,609,609,609,609,609,608,605,599,541,489,443],"ymouse":[537,537,537,537,537,537,537,537,537,537,537,537,537,537,537,537,537,537,537,537,537,537,537,537,537,537,537,537,537,537,537,537,537,537,537,537,537,537,537,537,537,537,537,537,537,537,537,537,537,537,537,537,537,537,537,537,537,537,537,537,537,537,537,537,537,537,537,537,537,537,537,537,537,537,537,537,537,537,537,537,537,537,537,537,537,537,537,537,537,537,537,537,537,537,537,537,537,537,537,537,537,537,537,537,537,537,537,537,537,537,537,537,537,537,537,537,537,537,537,537,537,537,537,537,537,540,551,566,583,602,642,662,674,680,682,682,682,682,682,682,680,675,665,662,639,626,610,586,561,544,536,536,536,536,536,536,536,536,536,536,536,536,536,536,536,536,536,536,536,536,536,537,541,558,585,624,634,643,647,649,649,649,649,649,649,633,609,573,517,394,336,297,282,274,271,271,271,271,271,270,268,266,265,260,251,181,122,70],"timestamp_mouse":[11,39,44,63,84,105,124,143,165,183,203,224,245,265,284,305,325,344,365,385,403,424,445,463,484,505,523,545,564,584,603,624,645,663,685,705,723,744,765,785,803,823,845,865,884,904,925,943,964,984,1005,1023,1044,1064,1085,1104,1124,1145,1164,1183,1205,1224,1243,1264,1284,1304,1325,1344,1365,1385,1405,1424,1443,1465,1484,1505,1524,1543,1563,1584,1603,1624,1645,1663,1683,1705,1725,1744,1764,1784,1803,1824,1845,1865,1885,1905,1924,1944,1965,1984,2005,2024,2044,2065,2085,2105,2124,2145,2165,2184,2205,2224,2243,2264,2284,2303,2325,2345,2365,2384,2403,2425,2445,2463,2484,2505,2523,2543,2564,2584,2603,2623,2644,2664,2684,2704,2724,2744,2764,2783,2803,2825,2843,2863,2885,2903,2923,2943,2964,2984,3004,3024,3043,3063,3085,3104,3125,3143,3163,3184,3203,3223,3244,3265,3283,3303,3323,3345,3363,3385,3403,3423,3444,3464,3484,3503,3523,3543,3564,3583,3603,3623,3643,3665,3684,3704,3724,3743,3763,3785,3803,3825,3844,3863,3884,3904,3924,3945,3964,3983,4003,4024,4044,4064,4084,4104,4123,4143],"xSR":741.5,"ySR":469.95,"xT1":424.9,"yT1":0,"xT2":1058.1,"yT2":0,"toosoon":0,"cond_shown":"Congruent","ratio_trial":100,"L_num":12,"L_den":30,"R_num":13,"R_den":26,"correct_side":2,"subjID":"manuelafernandezmatyasvalenciasaab26","gender":"1","school":"4","age":"9"},{"start_time":1552055690529,"click_time":1552055692214,"finger_time":1552055691774,"fix_duration":1394.9395363353856,"trial":27,"RT":1245,"MT":440,"sideResp":2,"stimulus":[],"xmouse":[839,839,839,839,839,839,839,839,839,839,839,839,839,839,839,839,839,839,839,839,839,839,839,839,839,839,839,839,839,839,839,839,839,839,839,839,839,839,839,839,839,839,839,839,839,839,839,839,839,839,839,839,839,839,839,839,839,839,839,839,839,840,847,861,893,938,954,966,976,986,1010,1028,1047,1072,1098,1103,1105,1109,1113,1115,1115,1115,1115,1115,1117],"ymouse":[515,515,515,515,515,515,515,515,515,515,515,515,515,515,515,515,515,515,515,515,515,515,515,515,515,515,515,515,515,515,515,515,515,515,515,515,515,515,515,515,515,515,515,515,515,515,515,515,515,515,515,515,515,515,515,515,515,515,515,515,515,509,496,476,432,360,326,299,276,262,246,242,240,235,221,212,202,189,175,163,141,129,119,110,98],"timestamp_mouse":[26,41,46,64,84,105,124,146,164,186,206,224,246,264,286,305,324,346,366,384,404,425,446,465,485,506,525,544,565,584,604,626,644,666,686,706,724,746,765,785,806,825,845,865,885,905,925,944,965,984,1004,1025,1044,1065,1086,1104,1125,1145,1166,1186,1204,1225,1245,1266,1285,1305,1325,1344,1365,1385,1404,1424,1445,1465,1486,1505,1525,1545,1565,1584,1604,1624,1645,1666,1685],"xSR":741.5,"ySR":469.95,"xT1":424.9,"yT1":0,"xT2":1058.1,"yT2":0,"toosoon":0,"cond_shown":"Congruent","ratio_trial":100,"L_num":8,"L_den":16,"R_num":2,"R_den":5,"correct_side":1,"subjID":"manuelafernandezmatyasvalenciasaab26","gender":"1","school":"4","age":"9"},{"start_time":1552055708008,"click_time":1552055709736,"finger_time":1552055709455,"fix_duration":452.3504769675829,"trial":28,"RT":1447,"MT":281,"sideResp":1,"stimulus":[],"xmouse":[788,788,788,788,788,788,788,788,788,788,788,788,788,788,788,788,788,788,788,788,788,786,783,783,782,782,782,782,782,782,782,782,782,782,782,782,782,782,782,782,782,782,782,782,782,782,782,782,782,782,782,782,782,782,782,782,782,782,782,782,782,782,782,782,782,782,782,782,782,782,781,770,761,747,728,688,672,660,641,634,610,572,550,528,507,490,486],"ymouse":[542,542,542,542,542,542,542,542,542,542,542,542,542,542,542,542,542,542,542,542,539,527,523,520,520,520,520,520,520,520,520,520,520,520,520,520,520,520,520,520,520,520,520,520,520,520,520,520,520,520,520,520,520,520,520,520,520,520,520,520,520,520,520,520,520,520,520,520,520,520,516,487,459,419,369,284,253,230,204,194,167,138,126,116,107,101,98],"timestamp_mouse":[13,41,46,65,86,106,127,145,167,187,206,226,247,265,286,307,326,346,367,386,405,426,445,465,487,505,527,546,565,585,606,627,645,666,685,707,728,747,768,787,807,828,847,868,888,908,927,947,968,987,1009,1027,1047,1067,1088,1108,1128,1148,1167,1187,1207,1228,1248,1267,1287,1308,1327,1348,1368,1387,1407,1426,1447,1468,1487,1509,1527,1547,1566,1587,1607,1628,1647,1667,1687,1707,1728],"xSR":741.5,"ySR":469.95,"xT1":424.9,"yT1":0,"xT2":1058.1,"yT2":0,"toosoon":0,"cond_shown":"Congruent","ratio_trial":100,"L_num":15,"L_den":25,"R_num":13,"R_den":26,"correct_side":1,"subjID":"manuelafernandezmatyasvalenciasaab26","gender":"1","school":"4","age":"9"},{"start_time":1552055711006,"click_time":1552055712415,"finger_time":1552055712035,"fix_duration":530.366051938353,"trial":29,"RT":1029,"MT":380,"sideResp":2,"stimulus":[],"xmouse":[766,766,766,766,766,766,766,766,766,766,766,766,766,766,766,766,766,766,766,766,766,766,766,766,766,767,767,767,767,767,767,767,767,767,767,767,767,767,767,767,767,767,767,767,767,767,767,767,767,772,801,960,1066,1159,1227,1292,1305,1313,1319,1327,1332,1330,1324,1312,1298,1256,1232,1203,1179,1160,1139],"ymouse":[516,516,516,516,516,516,516,516,516,516,516,516,516,516,516,516,516,516,516,516,516,516,516,516,516,516,516,516,516,516,516,516,516,516,516,516,516,516,516,516,516,516,516,516,516,516,516,516,516,511,488,401,348,300,266,212,191,173,156,139,116,110,105,100,95,87,84,78,74,70,68],"timestamp_mouse":[20,37,48,69,89,109,130,150,169,189,209,229,249,268,289,309,329,349,370,390,408,429,449,470,490,509,530,549,570,588,610,630,649,669,689,710,730,749,769,789,809,829,849,869,888,910,930,949,970,989,1010,1029,1049,1069,1089,1111,1128,1150,1169,1189,1211,1228,1249,1269,1289,1311,1329,1349,1369,1389,1409],"xSR":741.5,"ySR":469.95,"xT1":424.9,"yT1":0,"xT2":1058.1,"yT2":0,"toosoon":0,"cond_shown":"Congruent","ratio_trial":300,"L_num":7,"L_den":14,"R_num":20,"R_den":25,"correct_side":2,"subjID":"manuelafernandezmatyasvalenciasaab26","gender":"1","school":"4","age":"9"},{"start_time":1552055714339,"click_time":1552055715556,"finger_time":1552055715475,"fix_duration":703.2725995115006,"trial":30,"RT":1136,"MT":81,"sideResp":2,"stimulus":[],"xmouse":[817,817,817,817,817,817,817,817,816,810,804,797,796,793,793,793,793,792,787,783,776,770,768,767,767,767,767,767,767,767,767,767,767,767,767,767,767,767,767,767,767,767,767,767,767,767,767,767,767,767,767,767,767,767,767,767,785,808,937,1026,1116],"ymouse":[494,494,494,494,494,494,494,494,494,494,494,495,496,496,496,496,496,496,496,494,488,484,482,480,480,480,480,480,480,480,480,480,480,480,480,480,480,480,480,480,480,480,480,480,480,480,480,480,480,480,480,480,480,480,480,480,457,437,300,188,80],"timestamp_mouse":[17,45,57,77,97,116,137,157,177,196,216,236,257,277,297,316,336,356,377,396,417,436,456,477,495,516,537,556,577,596,616,636,657,677,697,716,737,757,777,796,816,836,856,877,897,916,937,956,977,995,1016,1037,1057,1077,1097,1116,1136,1156,1178,1197,1216],"xSR":741.5,"ySR":469.95,"xT1":424.9,"yT1":0,"xT2":1058.1,"yT2":0,"toosoon":0,"cond_shown":"Incongruent","ratio_trial":100,"L_num":3,"L_den":5,"R_num":8,"R_den":16,"correct_side":1,"subjID":"manuelafernandezmatyasvalenciasaab26","gender":"1","school":"4","age":"9"},{"start_time":1552055731967,"click_time":1552055734156,"finger_time":1552055733356,"fix_duration":250,"trial":31,"RT":1389,"MT":800,"sideResp":2,"stimulus":[],"xmouse":[796,796,796,796,796,796,796,796,796,796,796,796,796,796,796,796,796,796,796,796,796,796,796,796,796,796,796,796,796,796,796,796,796,796,796,796,796,796,796,796,796,796,796,796,796,796,796,796,796,796,796,796,796,796,796,795,794,792,792,792,792,792,792,792,792,792,792,792,791,791,789,789,786,785,784,783,782,782,782,782,782,785,801,860,902,949,1002,1049,1125,1154,1181,1192,1203,1205,1204,1204,1204,1204,1204,1204,1204,1204,1204,1204,1204,1204,1204,1204,1204,1131],"ymouse":[516,516,516,516,516,516,516,516,516,516,516,516,516,516,516,516,516,516,516,516,516,516,516,516,516,516,516,516,516,516,516,516,516,516,516,516,516,516,516,516,516,516,516,516,516,516,516,516,516,516,516,516,514,500,492,487,483,477,477,476,476,476,476,476,476,476,476,476,474,469,465,463,458,456,455,454,453,453,453,453,452,451,449,423,394,356,303,238,140,105,77,62,41,10,2,2,2,2,2,2,2,2,2,2,2,2,2,2,2,6],"timestamp_mouse":[13,35,48,67,89,109,128,148,169,189,209,229,249,269,288,309,329,348,369,389,408,429,448,469,488,509,529,549,569,589,608,628,649,668,688,708,728,749,769,788,809,829,849,869,887,909,929,948,968,988,1008,1028,1048,1069,1087,1108,1128,1149,1168,1188,1208,1228,1249,1269,1289,1309,1329,1348,1368,1389,1408,1427,1448,1467,1488,1508,1528,1549,1568,1588,1609,1629,1648,1668,1688,1708,1728,1748,1768,1788,1807,1828,1848,1868,1888,1908,1929,1948,1968,1988,2008,2029,2049,2068,2089,2109,2128,2148,2168,2189],"xSR":741.5,"ySR":469.95,"xT1":424.9,"yT1":0,"xT2":1058.1,"yT2":0,"toosoon":0,"cond_shown":"Incongruent","ratio_trial":100,"L_num":10,"L_den":25,"R_num":9,"R_den":18,"correct_side":2,"subjID":"manuelafernandezmatyasvalenciasaab26","gender":"1","school":"4","age":"9"},{"start_time":1552055738346,"click_time":1552055740736,"finger_time":1552055740355,"fix_duration":829.725380588997,"trial":32,"RT":2009,"MT":381,"sideResp":2,"stimulus":[],"xmouse":[795,795,793,792,787,786,785,785,785,785,784,784,784,784,784,784,784,784,784,784,784,784,784,784,784,784,784,784,784,784,784,784,784,784,784,784,784,784,784,784,784,784,784,784,784,784,784,784,784,784,784,784,784,784,784,784,784,784,784,784,784,784,784,784,784,784,784,784,784,784,784,784,784,784,784,784,784,784,784,784,784,784,786,789,789,789,789,789,789,789,789,789,789,789,789,789,789,789,789,801,828,867,904,939,1000,1019,1033,1045,1045,1045,1045,1045,1045,1045,1045,1045,1045,1045,1045,1064],"ymouse":[508,508,512,516,525,527,528,528,528,528,529,529,529,529,529,529,529,529,529,529,529,529,529,529,529,529,529,529,529,529,529,529,529,529,529,529,529,529,529,529,529,529,529,529,529,529,529,529,529,529,529,529,529,529,529,529,529,529,529,529,529,529,529,529,529,529,529,529,529,529,529,529,529,529,529,529,529,529,529,529,529,529,519,513,510,510,510,510,510,510,510,510,510,510,510,510,510,510,510,489,449,389,328,266,149,96,47,5,5,5,5,5,5,5,5,5,5,5,5,12],"timestamp_mouse":[19,29,50,70,89,109,129,150,168,189,209,229,248,270,290,309,328,350,369,390,409,430,450,470,489,510,530,549,570,590,609,630,650,669,690,710,730,750,768,789,808,830,850,869,889,909,930,950,969,990,1009,1030,1050,1069,1090,1110,1130,1149,1170,1189,1210,1229,1250,1270,1290,1309,1330,1350,1369,1389,1410,1429,1449,1470,1489,1508,1529,1548,1569,1590,1609,1629,1648,1669,1690,1710,1729,1749,1769,1790,1810,1828,1850,1870,1889,1908,1930,1949,1970,1989,2009,2029,2050,2069,2089,2109,2129,2148,2169,2189,2209,2229,2250,2269,2289,2309,2330,2349,2370,2390],"xSR":741.5,"ySR":469.95,"xT1":424.9,"yT1":0,"xT2":1058.1,"yT2":0,"toosoon":0,"cond_shown":"Incongruent","ratio_trial":200,"L_num":7,"L_den":10,"R_num":14,"R_den":28,"correct_side":1,"subjID":"manuelafernandezmatyasvalenciasaab26","gender":"1","school":"4","age":"9"},{"start_time":1552055750687,"click_time":1552055752295,"finger_time":1552055751934,"fix_duration":250,"trial":33,"RT":1247,"MT":361,"sideResp":1,"stimulus":[],"xmouse":[778,778,778,778,778,778,778,778,778,778,778,778,778,778,778,778,778,778,778,778,778,778,778,778,778,778,778,778,778,778,778,778,778,778,778,778,778,778,778,778,778,778,778,778,778,778,778,778,778,778,778,778,778,778,778,778,778,778,778,778,778,778,750,708,661,617,582,562,552,544,544,544,544,542,542,542,542,540,536,529,523],"ymouse":[532,532,532,532,532,532,532,532,532,532,532,532,532,532,532,532,532,532,532,532,532,532,532,532,532,532,532,532,532,532,532,532,532,532,532,532,532,532,532,532,532,532,532,532,532,532,532,532,532,532,532,532,532,532,532,532,532,532,532,532,532,524,466,397,340,296,262,239,232,228,227,227,227,227,224,202,168,111,86,69,58],"timestamp_mouse":[13,27,48,67,89,109,128,148,168,189,208,229,249,268,289,307,329,349,367,389,409,429,449,468,488,508,529,549,568,588,609,628,649,669,689,709,728,749,768,787,808,827,848,867,889,907,928,948,969,988,1008,1028,1048,1068,1088,1107,1128,1148,1169,1189,1209,1228,1247,1268,1287,1308,1328,1348,1368,1388,1408,1429,1448,1468,1488,1507,1528,1548,1568,1588,1608],"xSR":741.5,"ySR":469.95,"xT1":424.9,"yT1":0,"xT2":1058.1,"yT2":0,"toosoon":0,"cond_shown":"Incongruent","ratio_trial":300,"L_num":3,"L_den":6,"R_num":4,"R_den":20,"correct_side":1,"subjID":"manuelafernandezmatyasvalenciasaab26","gender":"1","school":"4","age":"9"},{"start_time":1552055753820,"click_time":1552055755556,"finger_time":1552055755236,"fix_duration":483.8834511455535,"trial":34,"RT":1416,"MT":320,"sideResp":1,"stimulus":[],"xmouse":[777,777,777,777,777,777,777,777,778,778,778,778,778,778,778,778,778,778,778,778,778,778,778,778,778,778,778,778,778,778,778,778,778,778,778,778,778,778,778,778,778,778,778,778,778,778,778,778,778,778,778,778,778,778,778,778,778,778,778,778,778,778,778,778,778,778,778,778,777,762,683,622,572,538,505,466,462,461,461,461,462,467,474,482,486,493,495],"ymouse":[534,534,534,534,534,534,534,534,535,535,535,535,535,535,535,535,535,535,535,535,535,535,535,535,535,535,535,535,535,535,535,535,535,535,535,535,535,535,535,535,535,535,535,535,535,535,535,535,535,535,535,535,535,535,535,535,535,535,535,535,535,535,535,535,535,535,535,535,525,493,393,332,285,244,207,160,151,146,145,145,142,134,126,118,113,100,99],"timestamp_mouse":[15,36,55,75,95,116,135,155,175,195,216,235,255,276,296,316,336,355,375,396,416,436,454,476,496,516,536,554,576,596,616,634,656,675,696,714,735,756,776,795,816,836,855,876,896,916,936,955,976,995,1015,1035,1056,1076,1095,1114,1136,1155,1176,1195,1215,1236,1255,1276,1295,1316,1336,1355,1375,1395,1416,1435,1454,1475,1496,1515,1535,1554,1575,1596,1615,1635,1655,1675,1696,1715,1736],"xSR":741.5,"ySR":469.95,"xT1":424.9,"yT1":0,"xT2":1058.1,"yT2":0,"toosoon":0,"cond_shown":"Incongruent","ratio_trial":200,"L_num":7,"L_den":15,"R_num":6,"R_den":9,"correct_side":2,"subjID":"manuelafernandezmatyasvalenciasaab26","gender":"1","school":"4","age":"9"},{"start_time":1552055761748,"click_time":1552055764015,"finger_time":1552055763436,"fix_duration":732.6181489518513,"trial":35,"RT":1688,"MT":579,"sideResp":1,"stimulus":[],"xmouse":[827,827,827,827,827,827,827,827,827,827,827,827,827,827,827,827,827,827,827,827,827,827,827,827,827,827,827,827,827,827,827,827,827,827,827,827,827,827,827,827,827,827,827,827,827,827,827,827,827,827,827,827,827,827,827,827,827,827,827,827,827,827,827,827,827,827,827,827,827,827,827,827,827,827,827,827,827,827,827,827,819,811,789,743,670,646,622,597,559,548,544,542,539,535,531,531,531,531,531,526,522,522,521,518,511,511,511,511,511,511,511,510,509,509],"ymouse":[540,540,540,540,540,540,540,540,540,540,540,540,540,540,540,540,540,540,540,540,540,540,540,540,540,540,540,540,540,540,540,540,540,540,540,540,540,540,540,540,540,540,540,540,540,540,540,540,540,540,540,540,540,540,540,540,540,540,540,540,540,540,540,540,540,540,540,540,540,540,540,540,540,540,540,540,540,540,540,540,534,529,515,482,436,422,407,391,367,359,354,345,330,310,265,247,190,190,180,140,114,110,106,103,102,102,102,102,102,102,102,102,101,98],"timestamp_mouse":[13,36,47,67,88,108,128,148,168,188,207,228,247,268,287,308,328,347,368,388,407,427,447,467,486,508,528,548,567,587,607,628,648,668,687,707,728,748,768,788,808,828,847,868,887,908,928,947,967,988,1007,1027,1048,1067,1088,1107,1127,1147,1167,1187,1208,1228,1248,1268,1288,1308,1328,1347,1368,1388,1407,1428,1448,1467,1488,1507,1528,1548,1567,1587,1607,1627,1648,1668,1688,1707,1728,1747,1769,1787,1806,1827,1847,1867,1887,1907,1942,1946,1966,1987,2007,2028,2048,2067,2087,2107,2126,2148,2168,2188,2208,2227,2248,2267],"xSR":741.5,"ySR":469.95,"xT1":424.9,"yT1":0,"xT2":1058.1,"yT2":0,"toosoon":0,"cond_shown":"Congruent","ratio_trial":200,"L_num":8,"L_den":15,"R_num":3,"R_den":9,"correct_side":1,"subjID":"manuelafernandezmatyasvalenciasaab26","gender":"1","school":"4","age":"9"},{"start_time":1552055769416,"click_time":1552055771117,"finger_time":1552055770855,"fix_duration":677.4126785100615,"trial":36,"RT":1439,"MT":262,"sideResp":2,"stimulus":[],"xmouse":[815,815,815,815,815,815,815,815,815,815,815,815,815,815,815,815,815,815,815,815,815,815,815,815,815,815,815,815,815,815,815,815,815,815,815,815,815,815,815,815,815,815,815,815,815,815,815,815,815,815,815,815,815,815,815,815,815,815,815,815,815,815,815,815,815,815,815,815,815,815,815,820,826,843,867,929,955,972,985,993,1000,1011,1022,1038,1053,1080],"ymouse":[531,531,531,531,531,531,531,531,531,531,531,531,531,531,531,531,531,531,531,531,531,531,531,531,531,531,531,531,531,531,531,531,531,531,531,531,531,531,531,531,531,531,531,531,531,531,531,531,531,531,531,531,531,531,531,531,531,531,531,531,531,531,531,531,531,531,531,531,531,531,527,489,457,405,346,237,194,159,122,92,61,26,16,10,8,4],"timestamp_mouse":[1,37,39,60,80,100,119,139,161,179,200,221,240,259,279,299,319,341,361,380,399,421,440,459,480,499,519,540,561,580,599,621,639,659,681,701,719,741,761,779,800,821,839,859,879,901,919,939,960,979,1000,1019,1039,1061,1079,1100,1119,1139,1161,1179,1200,1220,1240,1259,1280,1300,1320,1340,1360,1380,1400,1419,1439,1459,1479,1501,1519,1539,1559,1580,1599,1620,1639,1659,1680,1700],"xSR":741.5,"ySR":469.95,"xT1":424.9,"yT1":0,"xT2":1058.1,"yT2":0,"toosoon":0,"cond_shown":"Incongruent","ratio_trial":200,"L_num":4,"L_den":6,"R_num":14,"R_den":30,"correct_side":1,"subjID":"manuelafernandezmatyasvalenciasaab26","gender":"1","school":"4","age":"9"},{"start_time":1552055773429,"click_time":1552055775236,"finger_time":1552055775117,"fix_duration":951.6741515723162,"trial":37,"RT":1688,"MT":119,"sideResp":1,"stimulus":[],"xmouse":[787,787,787,787,787,787,787,787,787,787,787,787,787,787,787,787,787,787,787,787,787,787,787,787,787,787,787,787,787,787,787,787,787,787,787,787,787,787,787,787,787,787,787,787,787,787,787,787,787,787,787,787,787,787,788,788,788,788,788,788,788,788,788,788,788,788,788,788,788,788,788,788,788,788,788,788,788,788,788,788,788,788,789,783,697,653,604,563,536,515,498],"ymouse":[550,550,550,550,550,550,550,550,550,550,550,550,550,550,550,550,550,550,550,550,550,550,550,550,550,550,550,550,550,550,550,550,550,550,550,550,550,550,550,550,550,550,550,550,550,550,550,550,550,550,550,550,550,550,550,550,550,550,550,550,550,550,550,550,550,550,550,550,550,550,550,550,550,550,550,550,550,550,550,550,550,550,547,536,448,378,290,211,156,118,83],"timestamp_mouse":[13,34,46,67,88,106,126,147,166,187,208,226,248,266,288,306,326,348,366,386,407,427,447,466,487,506,526,546,568,588,607,627,646,667,688,708,726,747,767,786,807,826,848,868,887,906,927,948,966,987,1006,1027,1046,1068,1088,1107,1126,1148,1166,1187,1207,1227,1247,1266,1286,1307,1327,1346,1367,1387,1406,1427,1446,1467,1486,1507,1526,1548,1566,1588,1606,1627,1647,1667,1688,1706,1726,1746,1766,1786,1807],"xSR":741.5,"ySR":469.95,"xT1":424.9,"yT1":0,"xT2":1058.1,"yT2":0,"toosoon":0,"cond_shown":"Incongruent","ratio_trial":100,"L_num":10,"L_den":25,"R_num":9,"R_den":18,"correct_side":2,"subjID":"manuelafernandezmatyasvalenciasaab26","gender":"1","school":"4","a