[{"start_time":1552056430158,"click_time":1552056433106,"finger_time":1552056430169,"fix_duration":850.8463353425417,"trial":0,"RT":11,"MT":2937,"sideResp":1,"stimulus":"img/250/randomdotsizeEA/R/4_Ratio_250_L_3_R_12.png","xmouse":[783,783,783,783,783,783,783,783,783,783,783,783,783,783,783,783,783,783,783,783,783,783,783,783,783,783,783,783,783,783,783,783,783,783,783,783,786,789,793,794,796,796,795,794,793,791,787,786,784,783,782,782,782,782,782,782,781,781,778,778,776,774,781,783,784,784,784,784,790,808,834,896,912,924,942,964,1032,1086,1146,1189,1255,1460,1515,1533,1534,1534,1534,1531,1509,1441,1345,1217,808,630,416,242,176,169,151,124,99,65,64,70,85,113,171,198,222,243,251,248,234,222,210,205,205,242,259,266,269,269,269,269,269,271,283,384,451,488,501,503,503,503,503,503,503,503,503,505,507,514,517,517,517,517,517,512],"ymouse":[539,539,539,539,539,539,539,539,539,539,539,539,539,539,539,539,539,539,539,539,539,539,539,539,539,539,539,539,539,539,539,539,539,539,541,546,560,572,582,589,596,598,602,603,604,608,613,616,619,622,623,625,625,625,626,627,628,628,629,630,631,631,631,631,632,632,632,632,632,629,626,617,615,613,610,610,608,608,608,608,643,800,839,852,852,852,852,851,835,807,784,765,709,683,676,661,538,460,385,308,236,143,127,111,88,52,0,0,0,0,0,0,0,0,1,1,1,0,0,0,0,0,0,0,0,0,0,0,0,0,0,0,0,0,0,0,0,0,0,0,0,0,0,0,0,0,0,4],"timestamp_mouse":[11,28,48,67,88,108,128,148,167,187,207,227,247,267,287,307,327,346,368,387,408,427,447,468,487,507,528,548,568,588,607,628,647,668,688,707,727,747,768,787,806,828,848,868,888,907,927,947,968,986,1008,1027,1047,1068,1087,1107,1128,1148,1166,1188,1207,1226,1247,1267,1288,1306,1327,1347,1367,1387,1407,1427,1447,1467,1488,1507,1527,1547,1567,1587,1606,1627,1647,1668,1686,1708,1728,1748,1767,1787,1807,1827,1847,1867,1887,1906,1927,1946,1967,1987,2008,2027,2047,2067,2087,2107,2128,2149,2167,2188,2208,2228,2247,2267,2288,2308,2327,2347,2367,2387,2407,2428,2447,2466,2488,2507,2527,2547,2567,2587,2607,2628,2648,2668,2688,2707,2727,2746,2768,2788,2807,2827,2847,2867,2887,2907,2927,2947],"xSR":741.5,"ySR":469.95,"xT1":424.9,"yT1":0,"xT2":1058.1,"yT2":0,"toosoon":0,"cond_shown":"randomdotsizeEA","ratio_trial":250,"smaller_num":"3","larger_num":"12","correct_side":2,"subjID":"manuelafernandez26","gender":"1","age":"9","school":"4","test":{"fix_dur":[250,1500],"timestim":300,"targets_dim":[100,100],"targets_relative_coord":[0.3,0.7],"size_stim":[880,420],"start_dim":[100,100],"size_start":[300,300],"size_fix":60,"samplingrate":20,"img_types":["equaldotsize","equaldotanddens","randomdotsizeEA"],"ratios":[250,500,750,900],"rep_conds":9,"nTrials":120,"trials_to_rest":500,"Trials_order":[74,101,71,87,26,63,12,104,33,84,14,36,8,78,52,56,95,94,59,22,31,92,55,21,111,3,113,39,16,114,18,75,62,6,57,72,109,103,115,23,1,73,91,118,44,17,34,45,116,9,80,77,61,100,0,48,10,119,50,2,43,102,105,19,67,41,69,99,79,89,117,5,66,29,40,37,38,98,108,110,112,24,90,20,13,106,15,65,97,58,11,27,42,83,81,54,28,82,47,25,7,76,46,4,85,93,64,35,60,53,70,107,86,49,30,32,51,68,88,96],"cond_shown":["randomdotsizeEA","randomdotsizeEA","randomdotsizeEA","equaldotsize","randomdotsizeEA","equaldotsize","equaldotsize","randomdotsizeEA","equaldotsize","equaldotsize","randomdotsizeEA","equaldotsize","randomdotsizeEA","equaldotsize","equaldotanddens","randomdotsizeEA","randomdotsizeEA","equaldotanddens","randomdotsizeEA","equaldotanddens","equaldotanddens","randomdotsizeEA","equaldotanddens","equaldotsize","equaldotsize","equaldotsize","randomdotsizeEA","equaldotsize","equaldotanddens","equaldotsize","equaldotsize","equaldotsize","randomdotsizeEA","equaldotsize","equaldotsize","equaldotsize","equaldotanddens","equaldotanddens","equaldotanddens","randomdotsizeEA","equaldotanddens","equaldotanddens","equaldotanddens","equaldotanddens","randomdotsizeEA","randomdotsizeEA","equaldotanddens","equaldotsize","randomdotsizeEA","equaldotsize","randomdotsizeEA","randomdotsizeEA","equaldotanddens","equaldotanddens","equaldotsize","equaldotsize","equaldotanddens","randomdotsizeEA","randomdotsizeEA","randomdotsizeEA","equaldotanddens","equaldotsize","equaldotsize","equaldotanddens","equaldotanddens","randomdotsizeEA","equaldotsize","equaldotsize","equaldotanddens","randomdotsizeEA","equaldotsize","randomdotsizeEA","equaldotsize","randomdotsizeEA","equaldotanddens","equaldotanddens","randomdotsizeEA","randomdotsizeEA","equaldotsize","randomdotsizeEA","equaldotanddens","equaldotsize","equaldotsize","randomdotsizeEA","equaldotanddens","equaldotanddens","equaldotsize","randomdotsizeEA","equaldotanddens","equaldotanddens","randomdotsizeEA","equaldotsize","equaldotsize","randomdotsizeEA","equaldotsize","equaldotsize","equaldotanddens","equaldotanddens","randomdotsizeEA","equaldotanddens","equaldotanddens","equaldotanddens","equaldotanddens","equaldotanddens","equaldotanddens","equaldotsize","equaldotanddens","randomdotsizeEA","equaldotsize","randomdotsizeEA","equaldotanddens","randomdotsizeEA","randomdotsizeEA","equaldotanddens","equaldotsize","randomdotsizeEA","equaldotsize","randomdotsizeEA","equaldotanddens","equaldotsize"],"ratio_trial":[250,500,900,500,250,500,250,750,900,250,250,250,750,750,500,750,900,900,900,900,750,750,750,900,500,500,500,500,500,750,750,500,250,750,900,250,250,750,750,900,250,250,750,900,750,500,900,900,750,900,750,500,250,500,250,250,900,900,250,250,750,750,900,750,750,500,900,500,750,500,900,500,750,500,500,250,250,250,250,250,500,250,750,750,250,900,500,500,250,900,900,500,750,900,900,750,500,900,900,250,750,500,900,500,250,900,500,900,250,500,900,900,250,250,750,750,500,750,500,250],"smaller_num":["3","4","9","4","2","2","2","15","9","3","6","2","15","3","6","6","18","9","18","18","3","3","3","9","2","9","5","2","1","6","15","9","3","3","18","3","3","6","15","9","4","6","6","18","3","9","18","18","3","18","6","10","4","5","2","4","18","18","3","5","18","3","9","15","15","9","18","2","6","6","9","6","12","10","2","4","6","2","6","1","3","3","18","3","5","18","3","6","3","18","18","5","6","18","9","6","4","18","18","2","15","2","9","1","2","18","6","9","3","1","18","18","5","3","9","3","1","15","5","2"],"larger_num":["12","8","10","8","8","4","8","20","10","12","24","8","20","4","12","8","20","10","20","20","4","4","4","10","4","18","10","4","2","8","20","18","12","4","20","12","12","8","20","10","16","24","8","20","4","18","20","20","4","20","8","20","16","10","8","16","20","20","12","20","24","4","10","20","20","18","20","4","8","12","10","12","16","20","4","16","24","8","24","4","6","12","24","4","20","20","6","12","12","20","20","10","8","20","10","8","8","20","20","8","20","4","10","2","8","20","12","10","12","2","20","20","20","12","12","4","2","20","10","8"],"correct_side":[2,1,1,1,1,1,1,2,2,1,2,1,1,1,1,2,1,2,1,1,1,2,1,2,1,2,1,1,2,2,2,2,2,1,2,2,1,1,1,2,1,2,1,1,1,2,2,2,1,1,1,2,2,1,1,1,2,1,2,2,1,1,1,2,1,1,1,1,2,1,2,1,2,2,2,2,2,1,2,2,2,2,1,1,2,1,2,1,2,1,2,1,1,1,2,1,1,2,1,2,1,2,2,2,1,2,1,2,2,2,1,1,2,2,2,2,2,1,2,1],"img_shown":["img/250/randomdotsizeEA/R/4_Ratio_250_L_3_R_12.png","img/500/randomdotsizeEA/L/8_Ratio_500_L_8_R_4.png","img/900/randomdotsizeEA/L/1_Ratio_900_L_10_R_9.png","img/500/equaldotsize/L/8_Ratio_500_L_8_R_4.png","img/250/randomdotsizeEA/L/3_Ratio_250_L_8_R_2.png","img/500/equaldotsize/L/5_Ratio_500_L_4_R_2.png","img/250/equaldotsize/L/1_Ratio_250_L_8_R_2.png","img/750/randomdotsizeEA/R/3_Ratio_750_L_15_R_20.png","img/900/equaldotsize/R/6_Ratio_900_L_9_R_10.png","img/250/equaldotsize/L/15_Ratio_250_L_12_R_3.png","img/250/randomdotsizeEA/R/6_Ratio_250_L_6_R_24.png","img/250/equaldotsize/L/1_Ratio_250_L_8_R_2.png","img/750/randomdotsizeEA/L/1_Ratio_750_L_20_R_15.png","img/750/equaldotsize/L/10_Ratio_750_L_4_R_3.png","img/500/equaldotanddens/L/13_Ratio_500_L_12_R_6.png","img/750/randomdotsizeEA/R/2_Ratio_750_L_6_R_8.png","img/900/randomdotsizeEA/L/10_Ratio_900_L_20_R_18.png","img/900/equaldotanddens/R/5_Ratio_900_L_9_R_10.png","img/900/randomdotsizeEA/L/2_Ratio_900_L_20_R_18.png","img/900/equaldotanddens/L/8_Ratio_900_L_20_R_18.png","img/750/equaldotanddens/L/9_Ratio_750_L_4_R_3.png","img/750/randomdotsizeEA/R/7_Ratio_750_L_3_R_4.png","img/750/equaldotanddens/L/8_Ratio_750_L_4_R_3.png","img/900/equaldotsize/R/15_Ratio_900_L_9_R_10.png","img/500/equaldotsize/L/10_Ratio_500_L_4_R_2.png","img/500/equaldotsize/R/6_Ratio_500_L_9_R_18.png","img/500/randomdotsizeEA/L/7_Ratio_500_L_10_R_5.png","img/500/equaldotsize/L/10_Ratio_500_L_4_R_2.png","img/500/equaldotanddens/R/15_Ratio_500_L_1_R_2.png","img/750/equaldotsize/R/2_Ratio_750_L_6_R_8.png","img/750/equaldotsize/R/3_Ratio_750_L_15_R_20.png","img/500/equaldotsize/R/6_Ratio_500_L_9_R_18.png","img/250/randomdotsizeEA/R/9_Ratio_250_L_3_R_12.png","img/750/equaldotsize/L/9_Ratio_750_L_4_R_3.png","img/900/equaldotsize/R/14_Ratio_900_L_18_R_20.png","img/250/equaldotsize/R/4_Ratio_250_L_3_R_12.png","img/250/equaldotanddens/L/15_Ratio_250_L_12_R_3.png","img/750/equaldotanddens/L/13_Ratio_750_L_8_R_6.png","img/750/equaldotanddens/L/1_Ratio_750_L_20_R_15.png","img/900/randomdotsizeEA/R/3_Ratio_900_L_9_R_10.png","img/250/equaldotanddens/L/2_Ratio_250_L_16_R_4.png","img/250/equaldotanddens/R/6_Ratio_250_L_6_R_24.png","img/750/equaldotanddens/L/14_Ratio_750_L_8_R_6.png","img/900/equaldotanddens/L/10_Ratio_900_L_20_R_18.png","img/750/randomdotsizeEA/L/8_Ratio_750_L_4_R_3.png","img/500/randomdotsizeEA/R/1_Ratio_500_L_9_R_18.png","img/900/equaldotanddens/R/14_Ratio_900_L_18_R_20.png","img/900/equaldotsize/R/9_Ratio_900_L_18_R_20.png","img/750/randomdotsizeEA/L/9_Ratio_750_L_4_R_3.png","img/900/equaldotsize/L/8_Ratio_900_L_20_R_18.png","img/750/randomdotsizeEA/L/13_Ratio_750_L_8_R_6.png","img/500/randomdotsizeEA/R/3_Ratio_500_L_10_R_20.png","img/250/equaldotanddens/R/10_Ratio_250_L_4_R_16.png","img/500/equaldotanddens/L/7_Ratio_500_L_10_R_5.png","img/250/equaldotsize/L/3_Ratio_250_L_8_R_2.png","img/250/equaldotsize/L/2_Ratio_250_L_16_R_4.png","img/900/equaldotanddens/R/9_Ratio_900_L_18_R_20.png","img/900/randomdotsizeEA/L/2_Ratio_900_L_20_R_18.png","img/250/randomdotsizeEA/R/4_Ratio_250_L_3_R_12.png","img/250/randomdotsizeEA/R/12_Ratio_250_L_5_R_20.png","img/750/equaldotanddens/L/6_Ratio_750_L_24_R_18.png","img/750/equaldotsize/L/8_Ratio_750_L_4_R_3.png","img/900/equaldotsize/L/1_Ratio_900_L_10_R_9.png","img/750/equaldotanddens/R/4_Ratio_750_L_15_R_20.png","img/750/equaldotanddens/L/1_Ratio_750_L_20_R_15.png","img/500/randomdotsizeEA/L/4_Ratio_500_L_18_R_9.png","img/900/equaldotsize/L/2_Ratio_900_L_20_R_18.png","img/500/equaldotsize/L/10_Ratio_500_L_4_R_2.png","img/750/equaldotanddens/R/2_Ratio_750_L_6_R_8.png","img/500/randomdotsizeEA/L/11_Ratio_500_L_12_R_6.png","img/900/equaldotsize/R/7_Ratio_900_L_9_R_10.png","img/500/randomdotsizeEA/L/11_Ratio_500_L_12_R_6.png","img/750/equaldotsize/R/11_Ratio_750_L_12_R_16.png","img/500/randomdotsizeEA/R/3_Ratio_500_L_10_R_20.png","img/500/equaldotanddens/R/9_Ratio_500_L_2_R_4.png","img/250/equaldotanddens/R/10_Ratio_250_L_4_R_16.png","img/250/randomdotsizeEA/R/6_Ratio_250_L_6_R_24.png","img/250/randomdotsizeEA/L/3_Ratio_250_L_8_R_2.png","img/250/equaldotsize/R/6_Ratio_250_L_6_R_24.png","img/250/randomdotsizeEA/R/8_Ratio_250_L_1_R_4.png","img/500/equaldotanddens/R/2_Ratio_500_L_3_R_6.png","img/250/equaldotsize/R/4_Ratio_250_L_3_R_12.png","img/750/equaldotsize/L/6_Ratio_750_L_24_R_18.png","img/750/randomdotsizeEA/L/8_Ratio_750_L_4_R_3.png","img/250/equaldotanddens/R/12_Ratio_250_L_5_R_20.png","img/900/equaldotanddens/L/4_Ratio_900_L_20_R_18.png","img/500/equaldotsize/R/2_Ratio_500_L_3_R_6.png","img/500/randomdotsizeEA/L/11_Ratio_500_L_12_R_6.png","img/250/equaldotanddens/R/11_Ratio_250_L_3_R_12.png","img/900/equaldotanddens/L/8_Ratio_900_L_20_R_18.png","img/900/randomdotsizeEA/R/14_Ratio_900_L_18_R_20.png","img/500/equaldotsize/L/7_Ratio_500_L_10_R_5.png","img/750/equaldotsize/L/13_Ratio_750_L_8_R_6.png","img/900/randomdotsizeEA/L/8_Ratio_900_L_20_R_18.png","img/900/equaldotsize/R/6_Ratio_900_L_9_R_10.png","img/750/equaldotsize/L/14_Ratio_750_L_8_R_6.png","img/500/equaldotanddens/L/8_Ratio_500_L_8_R_4.png","img/900/equaldotanddens/R/9_Ratio_900_L_18_R_20.png","img/900/randomdotsizeEA/L/2_Ratio_900_L_20_R_18.png","img/250/equaldotanddens/R/13_Ratio_250_L_2_R_8.png","img/750/equaldotanddens/L/1_Ratio_750_L_20_R_15.png","img/500/equaldotanddens/R/9_Ratio_500_L_2_R_4.png","img/900/equaldotanddens/R/7_Ratio_900_L_9_R_10.png","img/500/equaldotanddens/R/12_Ratio_500_L_1_R_2.png","img/250/equaldotanddens/L/3_Ratio_250_L_8_R_2.png","img/900/equaldotsize/R/12_Ratio_900_L_18_R_20.png","img/500/equaldotanddens/L/11_Ratio_500_L_12_R_6.png","img/900/randomdotsizeEA/R/7_Ratio_900_L_9_R_10.png","img/250/equaldotsize/R/9_Ratio_250_L_3_R_12.png","img/500/randomdotsizeEA/R/15_Ratio_500_L_1_R_2.png","img/900/equaldotanddens/L/2_Ratio_900_L_20_R_18.png","img/900/randomdotsizeEA/L/4_Ratio_900_L_20_R_18.png","img/250/randomdotsizeEA/R/12_Ratio_250_L_5_R_20.png","img/250/equaldotanddens/R/9_Ratio_250_L_3_R_12.png","img/750/equaldotsize/R/15_Ratio_750_L_9_R_12.png","img/750/randomdotsizeEA/R/12_Ratio_750_L_3_R_4.png","img/500/equaldotsize/R/12_Ratio_500_L_1_R_2.png","img/750/randomdotsizeEA/L/1_Ratio_750_L_20_R_15.png","img/500/equaldotanddens/R/14_Ratio_500_L_5_R_10.png","img/250/equaldotsize/L/1_Ratio_250_L_8_R_2.png"],"Rat0":[["12_Ratio_0_L_9_R_0.png","13_Ratio_0_L_6_R_0.png","5_Ratio_0_L_2_R_0.png","6_Ratio_0_L_4_R_0.png","8_Ratio_0_L_6_R_0.png"],["1_Ratio_0_L_0_R_17.png","10_Ratio_0_L_0_R_22.png","11_Ratio_0_L_0_R_1.png","14_Ratio_0_L_0_R_24.png","15_Ratio_0_L_0_R_4.png","2_Ratio_0_L_0_R_5.png","3_Ratio_0_L_0_R_17.png","4_Ratio_0_L_0_R_7.png","7_Ratio_0_L_0_R_19.png","9_Ratio_0_L_0_R_15.png"]],"Rat250":[["1_Ratio_250_L_8_R_2.png","14_Ratio_250_L_12_R_3.png","15_Ratio_250_L_12_R_3.png","2_Ratio_250_L_16_R_4.png","3_Ratio_250_L_8_R_2.png","5_Ratio_250_L_24_R_6.png","7_Ratio_250_L_8_R_2.png"],["10_Ratio_250_L_4_R_16.png","11_Ratio_250_L_3_R_12.png","12_Ratio_250_L_5_R_20.png","13_Ratio_250_L_2_R_8.png","4_Ratio_250_L_3_R_12.png","6_Ratio_250_L_6_R_24.png","8_Ratio_250_L_1_R_4.png","9_Ratio_250_L_3_R_12.png"]],"Rat500":[["10_Ratio_500_L_4_R_2.png","11_Ratio_500_L_12_R_6.png","13_Ratio_500_L_12_R_6.png","4_Ratio_500_L_18_R_9.png","5_Ratio_500_L_4_R_2.png","7_Ratio_500_L_10_R_5.png","8_Ratio_500_L_8_R_4.png"],["1_Ratio_500_L_9_R_18.png","12_Ratio_500_L_1_R_2.png","14_Ratio_500_L_5_R_10.png","15_Ratio_500_L_1_R_2.png","2_Ratio_500_L_3_R_6.png","3_Ratio_500_L_10_R_20.png","6_Ratio_500_L_9_R_18.png","9_Ratio_500_L_2_R_4.png"]],"Rat750":[["1_Ratio_750_L_20_R_15.png","10_Ratio_750_L_4_R_3.png","13_Ratio_750_L_8_R_6.png","14_Ratio_750_L_8_R_6.png","6_Ratio_750_L_24_R_18.png","8_Ratio_750_L_4_R_3.png","9_Ratio_750_L_4_R_3.png"],["11_Ratio_750_L_12_R_16.png","12_Ratio_750_L_3_R_4.png","15_Ratio_750_L_9_R_12.png","2_Ratio_750_L_6_R_8.png","3_Ratio_750_L_15_R_20.png","4_Ratio_750_L_15_R_20.png","5_Ratio_750_L_15_R_20.png","7_Ratio_750_L_3_R_4.png"]],"Rat900":[["1_Ratio_900_L_10_R_9.png","10_Ratio_900_L_20_R_18.png","2_Ratio_900_L_20_R_18.png","4_Ratio_900_L_20_R_18.png","8_Ratio_900_L_20_R_18.png"],["11_Ratio_900_L_18_R_20.png","12_Ratio_900_L_18_R_20.png","13_Ratio_900_L_18_R_20.png","14_Ratio_900_L_18_R_20.png","15_Ratio_900_L_9_R_10.png","3_Ratio_900_L_9_R_10.png","5_Ratio_900_L_9_R_10.png","6_Ratio_900_L_9_R_10.png","7_Ratio_900_L_9_R_10.png","9_Ratio_900_L_18_R_20.png"]],"Rat1000":[["10_Ratio_1000_L_16_R_16.png","11_Ratio_1000_L_6_R_6.png","12_Ratio_1000_L_14_R_14.png","13_Ratio_1000_L_20_R_20.png","15_Ratio_1000_L_15_R_15.png","2_Ratio_1000_L_17_R_17.png","4_Ratio_1000_L_9_R_9.png","5_Ratio_1000_L_6_R_6.png","6_Ratio_1000_L_19_R_19.png","8_Ratio_1000_L_14_R_14.png","9_Ratio_1000_L_25_R_25.png"],["1_Ratio_1000_L_1_R_1.png","14_Ratio_1000_L_17_R_17.png","3_Ratio_1000_L_17_R_17.png","7_Ratio_1000_L_6_R_6.png"]]}},{"start_time":1552056437202,"click_time":1552056438485,"finger_time":1552056438045,"fix_duration":1255.5764428832706,"trial":1,"RT":843,"MT":440,"sideResp":2,"stimulus":"img/500/randomdotsizeEA/L/8_Ratio_500_L_8_R_4.png","xmouse":[835,835,835,835,835,835,835,835,835,835,835,835,835,835,835,835,835,835,835,835,835,835,835,835,835,835,835,835,835,835,835,835,835,835,835,835,835,835,835,834,834,834,837,841,846,864,875,888,896,907,923,933,943,957,982,990,998,1009,1021,1052,1058,1060,1061,1062,1074],"ymouse":[633,633,633,633,633,633,633,633,633,633,633,633,633,633,633,633,633,633,633,633,633,633,633,633,633,633,633,633,633,633,633,633,633,633,633,633,633,633,633,631,601,580,558,533,497,375,319,275,249,215,180,168,161,154,144,141,137,131,126,116,112,108,105,102,96],"timestamp_mouse":[12,32,42,63,84,104,123,142,163,182,203,223,243,262,283,302,322,343,363,383,404,422,443,462,484,503,523,543,562,583,603,624,644,663,684,703,724,744,764,782,803,822,843,863,883,902,923,943,964,983,1002,1023,1043,1063,1084,1103,1123,1142,1163,1183,1203,1223,1243,1262,1282],"xSR":741.5,"ySR":573.95,"xT1":424.9,"yT1":0,"xT2":1058.1,"yT2":0,"toosoon":0,"cond_shown":"randomdotsizeEA","ratio_trial":500,"smaller_num":"4","larger_num":"8","correct_side":1,"subjID":"manuelafernandez26","gender":"1","age":"9","school":"4"},{"start_time":1552056441790,"click_time":1552056443665,"finger_time":1552056443206,"fix_duration":982.494154684913,"trial":2,"RT":1416,"MT":459,"sideResp":1,"stimulus":"img/900/randomdotsizeEA/L/1_Ratio_900_L_10_R_9.png","xmouse":[800,800,800,800,800,800,800,800,800,800,800,800,800,800,800,800,800,800,800,800,800,800,800,800,800,800,800,800,800,800,800,800,800,800,800,800,800,800,800,800,800,800,800,800,800,800,800,800,800,800,800,800,800,800,800,800,800,800,800,800,800,800,800,800,800,800,803,806,808,803,787,760,738,709,652,631,615,598,580,562,561,561,560,560,560,557,547,531,514,495,494,494,493,492],"ymouse":[634,634,634,634,634,634,634,634,634,634,634,634,634,634,634,634,634,634,634,634,634,634,634,634,634,634,634,634,634,634,634,634,634,634,634,634,634,634,634,634,634,634,634,634,634,634,634,634,634,634,634,634,634,634,634,634,634,634,634,634,634,634,634,634,634,634,634,633,626,576,543,495,455,407,316,281,252,225,200,175,173,173,172,172,172,169,155,139,124,103,101,100,100,98],"timestamp_mouse":[16,38,56,76,95,114,136,155,175,194,215,234,256,275,296,316,335,354,374,396,416,435,456,475,496,515,535,556,575,596,616,636,656,675,696,716,736,756,775,795,816,834,856,875,894,915,935,956,975,996,1016,1035,1056,1074,1096,1115,1135,1155,1175,1195,1216,1236,1255,1274,1296,1315,1335,1355,1375,1395,1416,1434,1454,1475,1495,1514,1535,1555,1575,1595,1614,1635,1655,1675,1696,1714,1736,1755,1776,1795,1816,1835,1854,1875],"xSR":741.5,"ySR":573.95,"xT1":424.9,"yT1":0,"xT2":1058.1,"yT2":0,"toosoon":0,"cond_shown":"randomdotsizeEA","ratio_trial":900,"smaller_num":"9","larger_num":"10","correct_side":1,"subjID":"manuelafernandez26","gender":"1","age":"9","school":"4"},{"start_time":1552056445866,"click_time":1552056448886,"finger_time":1552056447048,"fix_duration":777.8452400770841,"trial":3,"RT":1182,"MT":1838,"sideResp":1,"stimulus":"img/500/equaldotsize/L/8_Ratio_500_L_8_R_4.png","xmouse":[757,757,757,757,757,757,757,757,757,757,757,757,757,757,757,757,757,757,757,757,757,757,757,757,757,757,757,757,757,757,757,757,757,757,757,757,757,757,757,757,757,757,757,757,757,757,757,757,757,757,757,757,757,757,757,757,757,757,755,749,738,725,703,701,700,700,700,700,698,695,692,686,684,684,683,682,682,682,682,682,682,682,682,682,682,682,682,682,682,682,682,682,682,682,682,682,682,682,682,682,682,682,682,682,682,682,682,682,682,682,682,682,682,682,682,682,686,690,693,699,706,718,722,726,729,733,739,744,745,745,745,740,730,713,681,653,600,577,573,571,571,571,567,562,556,551,546,541,536,532,527,515],"ymouse":[633,633,633,633,633,633,633,633,633,633,633,633,633,633,633,633,633,633,633,633,633,633,633,633,633,633,633,633,633,633,633,633,633,633,633,633,633,633,633,633,633,633,633,633,633,633,633,633,633,633,633,633,633,633,633,633,628,601,585,564,547,531,505,501,501,501,501,501,502,504,506,512,515,516,518,518,518,518,518,518,518,518,518,518,518,518,518,518,518,518,518,518,518,518,518,518,518,518,518,518,518,518,518,518,518,518,518,518,518,518,518,518,518,518,518,518,512,502,494,483,464,414,382,356,336,318,295,281,271,261,249,215,196,171,138,117,78,67,64,63,63,63,63,63,61,60,60,60,59,58,58,58],"timestamp_mouse":[19,21,41,62,80,100,122,140,160,181,201,220,242,260,280,300,321,340,360,380,400,421,440,460,480,501,522,542,560,581,602,621,641,662,682,700,721,740,760,781,802,822,842,860,881,900,922,942,960,981,1002,1020,1040,1062,1080,1101,1120,1142,1160,1182,1201,1221,1240,1261,1281,1301,1321,1341,1360,1381,1401,1420,1440,1461,1482,1502,1521,1540,1560,1581,1600,1621,1640,1661,1681,1701,1721,1740,1760,1781,1800,1820,1840,1862,1881,1901,1921,1940,1961,1980,2000,2021,2041,2062,2080,2100,2121,2141,2162,2181,2200,2221,2240,2261,2282,2302,2321,2342,2360,2381,2401,2421,2440,2461,2481,2500,2520,2540,2560,2582,2601,2621,2640,2661,2681,2700,2721,2742,2761,2781,2801,2821,2840,2861,2881,2901,2921,2941,2961,2981,3001,3020],"xSR":741.5,"ySR":573.95,"xT1":424.9,"yT1":0,"xT2":1058.1,"yT2":0,"toosoon":0,"cond_shown":"equaldotsize","ratio_trial":500,"smaller_num":"4","larger_num":"8","correct_side":1,"subjID":"manuelafernandez26","gender":"1","age":"9","school":"4"},{"start_time":1552056453379,"click_time":1552056454887,"finger_time":1552056453706,"fix_duration":250,"trial":4,"RT":327,"MT":1181,"sideResp":1,"stimulus":"img/250/randomdotsizeEA/L/3_Ratio_250_L_8_R_2.png","xmouse":[765,764,764,764,764,764,764,764,763,763,763,763,765,769,787,792,795,795,795,795,795,795,795,795,795,795,795,795,795,795,795,795,795,795,795,791,786,782,779,772,758,729,683,620,447,362,286,235,214,206,206,207,220,235,265,280,297,311,318,321,321,321,321,321,331,341,349,356,362,367,377,382,390,402,428],"ymouse":[629,627,626,625,625,625,625,625,624,624,624,624,622,614,580,572,567,567,567,567,567,567,567,567,567,567,567,567,567,567,567,567,567,567,566,566,566,566,565,520,480,432,371,312,200,154,117,96,89,88,88,88,88,88,82,74,65,61,58,56,56,56,56,56,56,56,56,55,55,53,52,51,50,48,44],"timestamp_mouse":[28,47,68,87,107,129,148,167,187,208,228,248,267,288,309,327,348,368,389,408,429,447,469,489,508,528,547,568,589,609,631,648,668,689,708,727,748,767,787,808,828,848,868,888,909,927,948,968,988,1007,1027,1048,1068,1088,1107,1127,1148,1168,1188,1207,1228,1247,1268,1288,1308,1329,1347,1367,1387,1407,1428,1448,1469,1489,1508],"xSR":741.5,"ySR":573.95,"xT1":424.9,"yT1":0,"xT2":1058.1,"yT2":0,"toosoon":0,"cond_shown":"randomdotsizeEA","ratio_trial":250,"smaller_num":"2","larger_num":"8","correct_side":1,"subjID":"manuelafernandez26","gender":"1","age":"9","school":"4"},{"start_time":1552056456970,"click_time":1552056458527,"finger_time":1552056457906,"fix_duration":703.6103503910543,"trial":5,"RT":936,"MT":621,"sideResp":1,"stimulus":"img/500/equaldotsize/L/5_Ratio_500_L_4_R_2.png","xmouse":[770,770,770,770,770,770,770,770,770,770,770,770,770,770,770,770,770,770,770,769,769,769,769,769,769,769,769,769,769,769,769,769,769,769,769,769,769,769,769,769,769,769,769,769,769,773,784,788,788,785,749,689,643,608,580,556,556,556,556,556,556,557,562,569,574,581,583,584,585,585,575,569,564,559,552,535,528,522],"ymouse":[605,605,605,605,605,605,605,605,605,605,605,605,605,605,605,605,605,605,605,606,606,606,606,606,606,606,606,606,606,606,606,606,606,606,606,606,606,606,606,606,606,606,606,606,606,587,500,434,399,371,302,245,223,210,204,199,199,199,199,199,199,199,197,185,169,149,143,140,132,123,109,100,92,84,74,50,42,34],"timestamp_mouse":[18,38,57,78,97,117,138,157,177,197,218,236,258,276,296,317,337,358,378,396,417,436,456,478,498,517,536,557,577,598,617,636,657,677,697,717,738,757,776,797,817,836,856,877,896,917,936,957,977,997,1017,1038,1057,1077,1097,1116,1138,1158,1178,1197,1217,1236,1257,1276,1297,1318,1337,1357,1377,1398,1416,1438,1456,1476,1497,1517,1536,1557],"xSR":741.5,"ySR":573.95,"xT1":424.9,"yT1":0,"xT2":1058.1,"yT2":0,"toosoon":0,"cond_shown":"equaldotsize","ratio_trial":500,"smaller_num":"2","larger_num":"4","correct_side":1,"subjID":"manuelafernandez26","gender":"1","age":"9","school":"4"},{"start_time":1552056461368,"click_time":1552056462667,"finger_time":1552056462327,"fix_duration":919.9541972857952,"trial":6,"RT":959,"MT":340,"sideResp":1,"stimulus":"img/250/equaldotsize/L/1_Ratio_250_L_8_R_2.png","xmouse":[797,797,797,797,797,797,797,797,797,797,797,797,797,797,797,797,797,797,797,797,797,797,797,797,797,797,797,797,797,797,797,797,797,797,797,797,797,797,797,797,797,797,797,797,797,797,780,728,671,623,505,457,445,434,429,424,422,422,422,422,423,426,429,432,436],"ymouse":[634,634,634,634,634,634,634,634,634,634,634,634,634,634,634,634,634,634,634,634,634,634,634,634,634,634,634,634,634,634,634,634,634,634,634,634,634,634,634,634,634,634,634,634,634,634,611,549,489,437,321,280,267,255,249,239,233,225,212,195,163,137,122,110,98],"timestamp_mouse":[24,39,59,79,99,118,139,160,178,198,220,240,258,278,299,319,339,359,379,399,420,438,459,479,499,519,539,559,578,599,618,640,659,679,699,719,739,759,779,800,820,840,859,878,899,920,938,959,979,999,1018,1039,1059,1080,1099,1119,1138,1159,1180,1199,1218,1239,1258,1279,1298],"xSR":741.5,"ySR":573.95,"xT1":424.9,"yT1":0,"xT2":1058.1,"yT2":0,"toosoon":0,"cond_shown":"equaldotsize","ratio_trial":250,"smaller_num":"2","larger_num":"8","correct_side":1,"subjID":"manuelafernandez26","gender":"1","age":"9","school":"4"},{"start_time":1552056464783,"click_time":1552056466187,"finger_time":1552056465566,"fix_duration":1054.4742356646675,"trial":7,"RT":783,"MT":621,"sideResp":2,"stimulus":"img/750/randomdotsizeEA/R/3_Ratio_750_L_15_R_20.png","xmouse":[759,759,759,759,758,756,756,755,755,754,753,753,753,753,753,753,752,752,751,750,749,749,749,749,748,747,747,747,746,745,745,745,744,744,743,743,743,743,742,741,741,741,741,741,741,741,741,741,741,740,740,731,716,696,677,654,647,642,639,639,639,645,659,673,688,762,815,878,947,1003,1068],"ymouse":[639,639,639,639,639,639,639,639,639,639,639,639,639,639,639,639,640,640,640,640,640,640,640,640,640,641,641,641,641,641,641,641,641,641,641,642,642,642,642,643,643,643,643,643,643,643,643,643,643,642,602,561,526,489,459,424,413,406,402,402,400,399,387,378,371,320,279,232,182,137,73],"timestamp_mouse":[13,31,44,65,85,103,125,144,163,184,205,224,244,264,284,303,323,345,364,384,404,423,444,463,484,505,523,543,565,585,604,625,644,663,684,704,725,744,764,783,804,825,843,864,885,905,924,943,963,983,1003,1023,1043,1064,1084,1104,1124,1143,1164,1184,1203,1224,1243,1263,1284,1304,1323,1344,1363,1383,1403],"xSR":741.5,"ySR":573.95,"xT1":424.9,"yT1":0,"xT2":1058.1,"yT2":0,"toosoon":0,"cond_shown":"randomdotsizeEA","ratio_trial":750,"smaller_num":"15","larger_num":"20","correct_side":2,"subjID":"manuelafernandez26","gender":"1","age":"9","school":"4"},{"start_time":1552056468822,"click_time":1552056470007,"finger_time":1552056469767,"fix_duration":494.24448237748067,"trial":8,"RT":945,"MT":240,"sideResp":2,"stimulus":"img/900/equaldotsize/R/6_Ratio_900_L_9_R_10.png","xmouse":[768,768,768,768,768,768,768,768,768,768,768,768,768,768,768,768,768,768,768,768,768,768,768,768,768,768,768,768,768,768,768,768,768,768,768,768,768,768,768,768,768,768,768,768,772,777,788,802,833,899,930,958,979,1008,1019,1030,1042,1054,1073,1076],"ymouse":[632,632,632,632,632,632,632,632,632,632,632,632,632,632,632,632,632,632,632,632,632,632,632,632,632,632,632,632,632,632,632,632,632,632,632,632,632,632,632,632,632,632,632,632,617,605,584,558,501,403,359,322,291,246,227,209,188,165,113,90],"timestamp_mouse":[20,29,44,65,84,106,126,144,164,185,204,226,245,264,286,306,324,345,365,384,406,424,446,465,485,505,526,546,566,586,605,624,644,665,685,705,725,745,764,786,806,825,846,866,885,905,924,945,965,986,1005,1026,1045,1065,1084,1105,1125,1145,1165,1185],"xSR":741.5,"ySR":573.95,"xT1":424.9,"yT1":0,"xT2":1058.1,"yT2":0,"toosoon":0,"cond_shown":"equaldotsize","ratio_trial":900,"smaller_num":"9","larger_num":"10","correct_side":2,"subjID":"manuelafernandez26","gender":"1","age":"9","school":"4"},{"start_time":1552056471312,"click_time":1552056472546,"finger_time":1552056472187,"fix_duration":404.5158568658015,"trial":9,"RT":875,"MT":359,"sideResp":1,"stimulus":"img/250/equaldotsize/L/15_Ratio_250_L_12_R_3.png","xmouse":[762,762,762,762,762,762,762,762,762,762,762,762,762,762,762,762,762,762,762,762,762,762,762,762,762,762,762,762,762,762,762,762,762,762,762,762,762,762,762,762,762,761,755,689,661,627,588,559,531,523,519,518,515,512,512,510,505,498,477,472,468,466],"ymouse":[617,617,617,617,617,617,617,617,617,617,617,617,617,617,617,617,617,617,617,617,617,617,617,617,617,617,617,617,617,617,617,617,617,617,617,617,617,617,617,617,617,610,591,452,400,360,318,290,262,252,245,242,239,230,224,219,210,195,152,133,113,94],"timestamp_mouse":[15,34,55,74,94,115,134,154,175,195,215,234,254,275,294,315,336,354,375,394,416,435,454,475,496,514,536,555,575,596,616,635,655,674,694,716,736,755,775,794,815,834,856,875,895,915,934,954,975,994,1015,1035,1055,1075,1096,1115,1135,1155,1174,1194,1214,1234],"xSR":741.5,"ySR":573.95,"xT1":424.9,"yT1":0,"xT2":1058.1,"yT2":0,"toosoon":0,"cond_shown":"equaldotsize","ratio_trial":250,"smaller_num":"3","larger_num":"12","correct_side":1,"subjID":"manuelafernandez26","gender":"1","age":"9","school":"4"},{"start_time":1552056473972,"click_time":1552056475066,"finger_time":1552056474746,"fix_duration":783.0372301045983,"trial":10,"RT":774,"MT":320,"sideResp":2,"stimulus":"img/250/randomdotsizeEA/R/6_Ratio_250_L_6_R_24.png","xmouse":[790,790,790,790,790,790,790,790,789,789,789,789,789,789,789,789,789,789,789,789,789,789,789,789,789,789,789,789,789,788,788,788,788,788,788,789,797,809,828,847,898,977,1030,1066,1090,1100,1100,1100,1102,1105,1106,1108,1108,1108,1105],"ymouse":[609,609,609,609,609,609,609,609,609,609,609,609,609,609,609,609,609,609,609,609,609,609,609,609,609,609,609,609,609,609,609,609,609,609,609,604,593,583,570,557,500,391,315,265,225,178,164,151,144,133,130,115,109,102,93],"timestamp_mouse":[20,34,54,75,94,114,136,155,174,194,216,234,255,276,295,315,336,355,374,396,415,434,454,476,495,516,535,556,574,594,615,634,655,675,694,715,734,754,774,795,814,834,855,875,895,915,934,955,975,996,1015,1035,1054,1075,1094],"xSR":741.5,"ySR":573.95,"xT1":424.9,"yT1":0,"xT2":1058.1,"yT2":0,"toosoon":0,"cond_shown":"randomdotsizeEA","ratio_trial":250,"smaller_num":"6","larger_num":"24","correct_side":2,"subjID":"manuelafernandez26","gender":"1","age":"9","school":"4"},{"start_time":1552056476398,"click_time":1552056477467,"finger_time":1552056477087,"fix_duration":250,"trial":11,"RT":689,"MT":380,"sideResp":1,"stimulus":"img/250/equaldotsize/L/1_Ratio_250_L_8_R_2.png","xmouse":[759,759,759,759,759,759,759,759,759,759,759,759,759,759,759,759,759,759,759,759,759,759,759,759,759,759,759,759,759,759,759,759,759,754,735,703,642,565,484,333,309,298,295,295,298,317,331,339,348,379,393,411,430,451],"ymouse":[656,656,656,656,656,656,656,656,656,656,656,656,656,656,656,656,656,656,656,656,656,656,656,656,656,656,656,656,656,656,656,656,656,643,621,593,549,491,433,277,237,211,197,189,177,162,156,150,141,120,112,105,100,94],"timestamp_mouse":[12,31,50,70,90,109,128,149,170,188,210,228,248,270,288,308,329,350,368,389,409,430,449,469,489,510,530,549,570,589,610,630,649,668,689,708,728,749,769,789,808,829,849,868,889,908,930,949,970,989,1008,1029,1048,1069],"xSR":741.5,"ySR":573.95,"xT1":424.9,"yT1":0,"xT2":1058.1,"yT2":0,"toosoon":0,"cond_shown":"equaldotsize","ratio_trial":250,"smaller_num":"2","larger_num":"8","correct_side":1,"subjID":"manuelafernandez26","gender":"1","age":"9","school":"4"},{"start_time":1552056479949,"click_time":1552056481306,"finger_time":1552056480846,"fix_duration":1401.2375735613161,"trial":12,"RT":897,"MT":460,"sideResp":1,"stimulus":"img/750/randomdotsizeEA/L/1_Ratio_750_L_20_R_15.png","xmouse":[784,784,784,784,784,784,784,784,784,784,784,784,784,784,784,784,784,784,784,784,784,784,784,784,784,784,784,784,784,784,784,784,784,784,784,784,784,784,784,784,784,784,798,812,834,853,875,877,874,862,836,768,731,690,652,625,586,570,552,537,520,498,496,495,494,493,486,481],"ymouse":[636,636,636,636,636,636,636,636,636,636,636,636,636,636,636,636,636,636,636,636,636,636,636,636,636,636,636,636,636,636,636,636,636,636,636,636,636,636,636,636,636,636,610,590,564,541,502,483,466,450,431,397,376,351,324,301,263,245,226,213,200,172,159,151,142,132,111,98],"timestamp_mouse":[22,42,57,77,97,118,139,158,178,197,219,237,257,279,299,317,337,358,379,398,417,437,457,479,499,519,538,559,578,598,618,639,659,678,697,718,737,759,779,799,819,837,857,877,897,918,938,957,979,998,1018,1038,1057,1078,1098,1118,1138,1157,1178,1198,1219,1238,1257,1277,1298,1317,1337,1357],"xSR":741.5,"ySR":573.95,"xT1":424.9,"yT1":0,"xT2":1058.1,"yT2":0,"toosoon":0,"cond_shown":"randomdotsizeEA","ratio_trial":750,"smaller_num":"15","larger_num":"20","correct_side":1,"subjID":"manuelafernandez26","gender":"1","age":"9","school":"4"},{"start_time":1552056483112,"click_time":1552056484747,"finger_time":1552056483986,"fix_duration":603.9531103874997,"trial":13,"RT":874,"MT":761,"sideResp":2,"stimulus":"img/750/equaldotsize/L/10_Ratio_750_L_4_R_3.png","xmouse":[752,752,752,752,752,752,752,752,752,752,752,751,751,751,751,751,751,751,750,750,749,749,749,749,749,749,749,749,749,749,749,749,749,749,749,749,749,749,749,749,746,744,742,740,742,747,751,757,772,785,802,819,835,879,905,928,952,970,1004,1017,1025,1029,1038,1039,1059,1069,1074,1078,1083,1091,1094,1095,1096,1096,1096,1096,1096,1096,1096,1096,1096,1096],"ymouse":[623,623,623,623,623,623,623,623,623,623,623,623,623,623,623,623,623,623,623,623,623,623,623,623,623,623,623,623,623,623,623,623,623,623,623,623,623,623,623,623,616,606,599,577,553,538,526,518,500,489,476,463,450,409,386,368,345,324,290,272,257,246,226,220,196,188,181,172,165,152,145,139,134,130,128,126,122,119,114,105,102,99],"timestamp_mouse":[16,34,56,74,96,114,135,155,176,194,216,235,254,275,296,315,336,355,375,394,415,436,456,476,495,514,534,556,575,596,616,636,654,674,694,716,736,756,775,794,815,834,855,874,894,915,936,954,975,994,1015,1034,1055,1074,1094,1115,1134,1155,1175,1194,1215,1235,1255,1275,1295,1315,1336,1355,1375,1394,1415,1435,1455,1474,1495,1514,1535,1555,1575,1594,1615,1635],"xSR":741.5,"ySR":573.95,"xT1":424.9,"yT1":0,"xT2":1058.1,"yT2":0,"toosoon":0,"cond_shown":"equaldotsize","ratio_trial":750,"smaller_num":"3","larger_num":"4","correct_side":1,"subjID":"manuelafernandez26","gender":"1","age":"9","school":"4"},{"start_time":1552056487799,"click_time":1552056488947,"finger_time":1552056488647,"fix_duration":250,"trial":14,"RT":848,"MT":300,"sideResp":1,"stimulus":"img/500/equaldotanddens/L/13_Ratio_500_L_12_R_6.png","xmouse":[764,764,764,764,764,765,765,765,765,765,765,765,765,765,765,765,765,765,765,765,765,765,765,765,765,765,765,765,765,765,765,765,765,765,761,760,759,758,758,755,753,750,737,707,648,634,621,610,603,592,587,582,577,571,549,531,495,449],"ymouse":[606,606,606,606,606,606,606,606,606,606,606,606,606,606,606,606,606,606,606,606,606,606,606,606,606,606,606,606,606,606,606,606,606,606,606,606,606,606,606,606,606,605,585,534,466,450,432,416,405,381,369,356,340,318,252,206,138,72],"timestamp_mouse":[13,32,48,67,88,108,127,149,169,187,209,229,247,269,288,308,328,348,367,387,409,429,449,469,488,507,528,549,568,588,608,627,649,668,687,707,727,748,769,787,807,827,848,868,888,907,927,948,968,988,1008,1028,1048,1068,1088,1107,1128,1148],"xSR":741.5,"ySR":573.95,"xT1":424.9,"yT1":0,"xT2":1058.1,"yT2":0,"toosoon":0,"cond_shown":"equaldotanddens","ratio_trial":500,"smaller_num":"6","larger_num":"12","correct_side":1,"subjID":"manuelafernandez26","gender":"1","age":"9","school":"4"},{"start_time":1552056491352,"click_time":1552056530148,"finger_time":1552056492986,"fix_duration":1144.897549583179,"trial":15,"RT":1634,"MT":37162,"sideResp":2,"stimulus":"img/750/randomdotsizeEA/R/2_Ratio_750_L_6_R_8.png","xmouse":[797,797,797,797,797,797,797,797,797,797,797,797,797,797,797,797,797,797,797,797,797,797,797,797,798,799,799,799,799,799,799,799,799,799,799,799,799,799,799,799,799,799,799,799,799,799,799,799,799,799,799,799,799,799,799,799,799,799,799,799,799,799,799,799,799,799,799,799,799,799,799,799,799,799,793,790,769,765,761,754,748,732,720,712,709,707,707,707,707,707,707,707,707,707,707,707,707,707,707,707,707,707,707,707,707,707,707,707,707,707,707,707,686,665,646,628,612,612,612,612,612,613,618,618,619,619,618,618,618,618,618,618,618,618,618,618,618,617,617,617,617,617,617,617,617,617,617,617,617,617,617,617,617,617,617,617,617,617,617,617,617,617,617,617,617,617,617,617,617,617,617,617,617,617,617,617,617,617,617,617,617,617,617,617,617,617,617,617,617,617,617,617,617,617,617,617,617,617,617,617,617,617,617,617,617,617,617,617,617,617,617,612,610,609,609,609,609,609,609,609,609,609,609,609,609,609,609,609,609,609,609,609,609,609,609,609,609,609,609,609,609,609,609,609,609,609,609,609,609,609,609,609,609,609,609,609,609,609,609,609,609,609,609,609,609,609,609,609,609,609,609,609,609,609,609,609,609,609,609,609,609,609,609,609,609,609,609,609,609,609,609,609,609,609,609,609,609,609,609,609,609,609,609,609,609,609,609,609,609,609,609,609,609,609,609,609,609,609,609,609,609,609,609,609,609,609,609,609,609,609,609,609,609,609,609,609,609,609,609,609,609,609,609,609,609,609,609,609,609,609,609,609,609,609,609,609,609,609,609,609,609,609,609,609,609,609,609,609,609,609,609,609,609,609,609,609,609,609,609,609,609,609,609,609,609,609,609,609,609,609,609,609,609,609,609,609,609,609,609,609,609,609,609,609,609,609,609,609,609,609,609,609,609,609,609,609,609,609,609,609,609,609,609,609,609,609,609,609,609,609,609,609,609,609,609,609,609,609,609,609,609,609,609,609,609,609,609,609,609,609,609,609,609,609,609,609,609,609,609,609,609,609,609,609,609,609,609,609,609,609,609,609,609,609,609,609,609,609,609,609,609,609,609,609,609,609,609,609,609,609,609,609,609,609,609,609,609,609,609,609,609,609,609,609,609,609,609,609,609,609,609,609,609,609,609,609,609,609,609,609,609,609,609,609,609,609,609,609,609,609,609,609,609,609,609,609,609,609,609,609,609,609,609,609,609,609,609,609,609,609,609,609,609,609,609,609,609,609,609,609,609,609,609,609,609,609,609,609,609,609,609,609,609,609,609,609,609,609,609,609,609,609,609,609,609,609,609,609,609,609,609,609,609,609,609,609,609,609,609,609,609,609,609,609,609,609,609,609,609,609,609,609,609,609,609,609,609,609,609,609,609,609,609,609,609,609,609,609,609,609,609,609,609,609,609,609,609,609,609,609,609,609,609,609,609,609,609,609,609,609,609,609,609,609,609,609,609,609,609,609,609,609,609,609,609,609,609,609,609,609,609,609,609,609,609,609,609,609,609,609,609,609,609,609,609,609,609,609,609,609,609,609,609,609,609,609,609,609,609,609,609,609,609,609,609,609,609,609,609,609,609,609,609,609,609,609,609,609,609,609,609,609,609,609,609,609,609,609,609,609,609,609,609,609,609,609,609,609,609,609,609,609,609,609,609,609,609,609,609,609,609,609,609,609,609,609,609,609,609,609,609,609,609,609,609,609,609,609,609,609,609,609,609,609,609,609,609,609,609,609,609,609,609,609,609,609,609,609,609,609,609,609,609,609,609,609,609,609,609,609,609,609,609,609,609,609,609,609,609,609,609,609,609,609,609,609,609,609,609,609,609,609,609,609,609,609,609,609,609,609,609,609,609,609,609,609,609,609,609,609,609,609,609,609,609,609,609,609,609,609,609,609,609,609,609,609,609,609,609,609,609,609,609,609,609,609,609,609,609,609,609,609,609,609,609,609,608,606,606,606,605,605,605,605,605,605,605,605,605,605,605,605,605,605,605,605,605,605,605,605,605,605,605,605,605,605,605,605,605,605,605,605,605,605,605,605,605,605,605,605,605,605,605,605,605,605,605,605,605,605,605,605,605,605,605,605,605,605,605,605,605,605,605,605,605,605,605,605,605,605,605,605,605,605,605,605,605,605,605,605,605,605,605,605,605,605,605,605,605,605,605,605,605,605,605,605,605,605,605,605,605,605,605,605,605,605,605,604,602,601,601,601,600,600,600,600,600,600,600,600,600,600,600,600,600,600,600,600,600,600,600,600,600,600,600,600,600,600,600,600,600,600,600,600,600,600,600,600,600,600,600,600,599,599,598,598,598,598,598,598,598,598,598,598,598,598,598,598,598,598,598,598,598,598,598,598,598,598,598,598,598,598,598,598,598,598,598,598,597,596,595,593,591,591,591,591,591,591,591,591,591,591,591,591,591,591,591,591,591,591,591,591,591,591,591,591,591,591,591,591,591,591,591,591,591,591,591,591,591,591,591,591,591,591,591,591,591,591,591,591,591,591,591,591,591,591,591,591,591,591,591,591,591,591,591,591,591,591,591,591,591,591,591,591,591,591,591,591,591,591,591,591,591,591,591,591,591,591,591,591,591,591,591,591,591,591,591,591,591,591,591,591,591,591,591,591,591,591,591,591,591,591,591,591,591,591,591,591,591,591,591,591,591,591,591,591,591,591,591,591,591,591,591,591,591,591,591,591,591,591,591,591,591,591,591,591,591,591,591,591,591,591,591,591,591,591,591,591,591,591,591,591,591,591,591,591,591,591,591,591,591,591,591,591,591,591,591,591,591,591,591,591,591,591,591,591,591,591,591,591,591,591,591,591,591,591,591,591,591,591,591,591,591,591,591,591,591,591,591,591,591,591,591,591,591,591,591,591,591,591,591,591,591,591,591,591,591,591,591,591,591,591,591,591,591,591,591,591,591,591,591,591,591,591,591,591,591,591,591,591,591,591,591,591,591,591,591,591,591,591,591,591,591,591,591,591,591,591,591,591,591,591,591,591,591,591,591,591,591,591,591,591,591,591,591,591,591,591,591,591,591,591,591,591,591,591,591,591,591,591,591,591,591,591,591,591,591,591,591,591,591,591,591,591,591,591,591,591,591,591,591,591,591,591,591,591,591,591,591,591,591,591,591,591,591,591,591,591,591,591,591,591,591,591,591,591,591,591,591,591,591,591,591,591,591,591,591,591,591,591,591,591,591,591,591,591,591,591,591,591,591,591,591,591,591,591,591,591,591,591,591,591,591,591,591,591,591,591,591,591,591,591,591,591,591,591,591,591,591,591,591,591,591,591,591,591,591,591,591,591,591,591,591,591,591,591,591,591,591,591,591,591,591,591,591,591,591,591,591,591,591,591,591,591,591,591,591,591,591,591,591,591,591,591,591,591,591,591,591,591,591,591,591,591,591,591,591,591,591,591,591,591,591,591,591,591,591,591,591,591,591,591,591,591,591,591,591,591,591,591,591,591,591,591,591,591,591,591,591,591,591,591,591,591,591,591,591,591,591,591,591,591,591,591,591,591,591,591,591,591,591,591,591,591,591,591,591,591,591,591,591,591,591,591,591,591,591,591,591,591,591,591,591,591,591,591,591,591,591,591,591,591,591,591,591,591,591,591,591,591,591,591,591,591,591,591,591,591,591,591,591,591,591,591,591,591,591,591,591,591,591,591,591,591,591,591,591,591,591,591,591,591,591,591,591,591,591,591,591,591,591,591,591,591,591,591,591,591,591,591,591,591,591,591,591,591,591,591,591,591,591,591,591,591,591,591,591,591,591,591,591,591,591,591,591,591,591,591,591,591,591,591,591,591,591,591,591,591,591,591,591,591,591,591,591,591,591,591,591,591,591,591,591,591,591,591,591,591,591,591,591,591,591,591,591,591,605,624,642,663,665,645,563,519,506,506,506,506,506,506,506,506,506,506,535,567,586,586,586,586,586,663,683,695,707,713,739,772,808,832,845,851,851,851,850,843,836,834,830,824,814,789,779,779,779,779,779,779,779,779,779,779,779,779,779,779,779,779,779,779,779,779,777,775,773,770,757,747,736,725,714,699,693,687,687,687,687,687,687,687,687,687,688,690,693,700,709,709,709,709,724,734,734,734,738,743,751,756,758,759,759,759,759,759,759,759,760,760,760,760,756,748,744,741,735,732,730,729,727,725,724,721,718,716,715,713,711,711,711,711,711,710,710,710,710,710,710,710,710,710,710,710,710,710,710,710,710,710,710,710,710,710,710,710,710,710,710,709,709,708,708,707,707,707,708,709,715,715,716,717,731,777,806,836,849,862,886,896,904,907,911,917,919,923,927,940,978,985,987,990,994,1010,1019,1027,1031,1031,1032,1037,1046,1060],"ymouse":[626,626,626,626,626,626,626,626,626,626,626,626,626,626,626,626,626,626,626,626,626,626,626,626,626,626,626,626,627,627,627,627,627,627,627,627,627,627,627,627,627,627,627,627,627,627,627,627,627,627,627,627,627,627,627,627,627,627,627,627,627,627,627,627,627,627,627,627,627,627,627,627,627,627,628,628,631,632,633,635,637,642,644,647,647,647,647,647,647,647,647,647,647,647,647,647,647,647,647,647,647,647,647,647,647,647,647,647,647,647,647,647,658,667,672,676,677,677,677,677,677,682,684,684,685,685,685,685,685,685,685,685,685,685,685,685,685,685,685,685,685,685,685,685,685,685,685,685,685,685,685,685,685,685,685,685,685,685,685,685,685,685,685,685,685,685,685,685,685,685,685,685,685,685,685,685,685,685,685,685,685,685,685,685,685,685,685,685,685,685,685,685,685,685,685,685,685,685,685,685,685,685,685,685,685,685,685,685,685,685,685,686,687,687,687,687,687,687,687,687,687,687,687,687,687,687,687,687,687,687,687,687,687,687,687,687,687,687,687,687,687,687,687,687,687,687,687,687,687,687,687,687,687,687,687,687,687,687,687,687,687,687,687,687,687,687,687,687,687,687,687,687,687,687,687,687,687,687,687,687,687,687,687,687,687,687,687,687,687,687,687,687,687,687,687,687,687,687,687,687,687,687,687,687,687,687,687,687,687,687,687,687,687,687,687,687,687,687,687,687,687,687,687,687,687,687,687,687,687,687,687,687,687,687,687,687,687,687,687,687,687,687,687,687,687,687,687,687,687,687,687,687,687,687,687,687,687,687,687,687,687,687,687,687,687,687,687,687,687,687,687,687,687,687,687,687,687,687,687,687,687,687,687,687,687,687,687,687,687,687,687,687,687,687,687,687,687,687,687,687,687,687,687,687,687,687,687,687,687,687,687,687,687,687,687,687,687,687,687,687,687,687,687,687,687,687,687,687,687,687,687,687,687,687,687,687,687,687,687,687,687,687,687,687,687,687,687,687,687,687,687,687,687,687,687,687,687,687,687,687,687,687,687,687,687,687,687,687,687,687,687,687,687,687,687,687,687,687,687,687,687,687,687,687,687,687,687,687,687,687,687,687,687,687,687,687,687,687,687,687,687,687,687,687,687,687,687,687,687,687,687,687,687,687,687,687,687,687,687,687,687,687,687,687,687,687,687,687,687,687,687,687,687,687,687,687,687,687,687,687,687,687,687,687,687,687,687,687,687,687,687,687,687,687,687,687,687,687,687,687,687,687,687,687,687,687,687,687,687,687,687,687,687,687,687,687,687,687,687,687,687,687,687,687,687,687,687,687,687,687,687,687,687,687,687,687,687,687,687,687,687,687,687,687,687,687,687,687,687,687,687,687,687,687,687,687,687,687,687,687,687,687,687,687,687,687,687,687,687,687,687,687,687,687,687,687,687,687,687,687,687,687,687,687,687,687,687,687,687,687,687,687,687,687,687,687,687,687,687,687,687,687,687,687,687,687,687,687,687,687,687,687,687,687,687,687,687,687,687,687,687,687,687,687,687,687,687,687,687,687,687,687,687,687,687,687,687,687,687,687,687,687,687,687,687,687,687,687,687,687,687,687,687,687,687,687,687,687,687,687,687,687,687,687,687,687,687,687,687,687,687,687,687,687,687,687,687,687,687,687,687,687,687,687,687,687,687,687,687,687,687,687,687,687,687,687,687,687,687,687,687,687,687,687,687,687,687,687,687,687,687,687,687,687,687,687,687,687,687,687,687,687,687,687,687,687,687,687,687,687,687,687,687,687,687,687,687,687,687,687,687,687,687,687,687,687,687,687,687,687,687,687,687,687,687,687,687,687,687,687,687,687,687,687,687,687,687,687,687,687,687,687,687,687,687,687,687,687,687,687,687,687,687,687,687,687,687,687,687,687,687,687,687,687,687,687,687,687,687,687,687,687,687,687,687,687,687,687,687,687,687,687,687,687,687,687,687,687,687,687,687,687,687,687,687,687,687,687,687,687,687,687,687,687,687,687,687,687,687,687,687,687,687,687,687,687,687,687,687,687,687,687,687,687,687,687,687,687,687,687,687,687,687,687,687,687,687,687,687,687,687,687,687,687,687,687,687,687,687,687,687,687,687,687,687,687,687,687,687,687,687,687,687,687,687,687,687,687,687,687,687,687,687,687,687,687,687,687,687,687,687,687,687,687,687,687,687,687,687,687,687,687,687,687,687,687,687,687,687,687,687,687,688,688,688,688,688,688,688,688,688,688,688,688,688,688,688,688,688,688,688,688,688,688,688,688,688,688,688,688,688,688,688,688,688,688,688,688,688,688,688,688,688,688,688,688,688,688,688,688,688,688,688,688,688,688,688,688,688,688,688,688,688,688,688,688,688,688,688,688,688,688,688,688,688,688,688,688,688,688,688,688,688,688,688,688,688,688,688,688,688,688,688,688,688,688,688,688,688,688,688,688,688,688,688,688,688,688,688,688,688,688,688,688,688,688,688,688,688,688,688,688,688,688,688,688,688,688,688,688,688,688,688,688,688,688,688,688,688,688,688,688,688,688,688,688,688,688,688,688,688,688,688,688,688,688,688,688,688,688,688,688,688,688,688,688,688,688,688,688,688,688,688,688,688,688,688,688,688,688,688,688,688,688,688,688,688,688,688,688,688,688,688,688,688,688,688,688,688,688,688,688,688,688,688,688,688,688,688,688,688,688,688,688,688,688,688,688,688,688,688,688,688,688,688,688,688,688,688,688,688,688,688,688,688,688,688,688,688,688,688,688,688,688,688,688,688,688,688,688,688,688,688,688,688,688,688,688,688,688,688,688,688,688,688,688,688,688,688,688,688,688,688,688,688,688,688,688,688,688,688,688,688,688,688,688,688,688,688,688,688,688,688,688,688,688,688,688,688,688,688,688,688,688,688,688,688,688,688,688,688,688,688,688,688,688,688,688,688,688,688,688,688,688,688,688,688,688,688,688,688,688,688,688,688,688,688,688,688,688,688,688,688,688,688,688,688,688,688,688,688,688,688,688,688,688,688,688,688,688,688,688,688,688,688,688,688,688,688,688,688,688,688,688,688,688,688,688,688,688,688,688,688,688,688,688,688,688,688,688,688,688,688,688,688,688,688,688,688,688,688,688,688,688,688,688,688,688,688,688,688,688,688,688,688,688,688,688,688,688,688,688,688,688,688,688,688,688,688,688,688,688,688,688,688,688,688,688,688,688,688,688,688,688,688,688,688,688,688,688,688,688,688,688,688,688,688,688,688,688,688,688,688,688,688,688,688,688,688,688,688,688,688,688,688,688,688,688,688,688,688,688,688,688,688,688,688,688,688,688,688,688,688,688,688,688,688,688,688,688,688,688,688,688,688,688,688,688,688,688,688,688,688,688,688,688,688,688,688,688,688,688,688,688,688,688,688,688,688,688,688,688,688,688,688,688,688,688,688,688,688,688,688,688,688,688,688,688,688,688,688,688,688,688,688,688,688,688,688,688,688,688,688,688,688,688,688,688,688,688,688,688,688,688,688,688,688,688,688,688,688,688,688,688,688,688,688,688,688,688,688,688,688,688,688,688,688,688,688,688,688,688,688,688,688,688,688,688,688,688,688,688,688,688,688,688,688,688,688,688,688,688,688,688,688,688,688,688,688,688,688,688,688,688,688,688,688,688,688,688,688,688,688,688,688,688,688,688,688,688,688,688,688,688,688,688,688,688,688,688,688,688,688,688,688,688,688,688,688,688,688,688,688,688,688,688,688,688,688,688,688,688,688,688,688,688,688,688,688,688,688,688,688,688,688,688,688,688,688,688,688,688,688,688,688,688,688,688,688,688,688,688,688,688,688,688,688,688,688,688,688,688,688,688,688,688,688,688,688,688,688,688,688,688,688,688,688,688,688,688,688,688,688,688,688,688,678,668,662,652,650,653,712,746,748,748,748,748,748,748,748,748,748,748,754,780,857,857,857,857,857,853,838,826,813,806,789,773,757,745,737,732,730,718,707,693,661,646,636,626,620,608,605,605,605,605,605,605,605,605,605,605,605,605,605,605,605,605,605,605,605,605,605,605,605,606,607,609,610,612,614,616,617,618,618,618,618,618,618,618,618,618,618,622,629,637,645,645,645,645,645,645,645,645,645,645,643,639,637,636,636,636,636,636,636,636,634,626,623,622,622,622,623,623,624,624,625,625,625,626,626,627,627,627,628,628,629,629,629,629,629,629,629,629,629,629,629,629,629,629,629,629,629,629,629,629,629,629,629,629,629,629,629,629,629,629,629,629,629,629,629,629,629,629,629,629,629,629,629,629,627,619,597,565,543,516,461,430,403,378,355,339,334,319,293,242,146,125,113,98,84,58,50,45,43,43,43,43,43,43],"timestamp_mouse":[14,35,55,75,96,115,135,156,174,194,216,235,254,285,295,315,335,355,375,395,414,434,454,476,495,515,535,554,576,595,616,636,654,674,695,715,736,756,774,796,816,835,854,874,894,915,934,956,974,994,1015,1036,1054,1074,1094,1115,1134,1154,1175,1195,1215,1236,1254,1275,1295,1316,1336,1354,1374,1396,1414,1435,1454,1476,1495,1514,1535,1554,1575,1595,1615,1634,1654,1675,1694,1716,1735,1756,1775,1794,1814,1835,1854,1875,1895,1914,1934,1955,1975,1996,2015,2034,2056,2076,2096,2116,2136,2162,2174,2195,2216,2234,2256,2275,2295,2315,2335,2354,2376,2395,2414,2435,2454,2475,2495,2515,2535,2555,2576,2595,2616,2634,2655,2674,2695,2716,2734,2755,2777,2794,2816,2835,2856,2876,2895,2914,2935,2955,2976,2996,3016,3036,3054,3074,3095,3114,3135,3155,3175,3195,3216,3235,3256,3275,3295,3314,3335,3356,3374,3395,3415,3435,3454,3475,3496,3515,3534,3555,3575,3595,3616,3635,3655,3674,3696,3715,3735,3755,3774,3794,3815,3835,3855,3876,3895,3914,3935,3955,3976,3996,4015,4035,4054,4074,4096,4115,4136,4154,4175,4196,4215,4235,4255,4275,4295,4316,4336,4355,4376,4396,4416,4436,4454,4474,4495,4516,4535,4555,4576,4596,4614,4635,4654,4675,4695,4716,4734,4755,4774,4795,4816,4835,4855,4875,4896,4915,4936,4955,4975,4995,5014,5035,5054,5075,5094,5116,5136,5155,5175,5194,5214,5235,5255,5276,5295,5315,5336,5354,5374,5395,5414,5434,5456,5475,5494,5515,5535,5556,5575,5595,5614,5634,5654,5675,5695,5714,5735,5755,5775,5794,5816,5835,5855,5874,5895,5915,5935,5956,5974,5994,6016,6036,6054,6075,6094,6115,6135,6154,6174,6196,6215,6234,6256,6275,6295,6316,6336,6355,6374,6394,6415,6434,6454,6474,6496,6516,6535,6555,6574,6596,6615,6635,6655,6674,6695,6715,6735,6755,6774,6796,6816,6835,6855,6875,6895,6914,6935,6956,6974,6994,7014,7035,7054,7076,7094,7114,7135,7155,7175,7194,7215,7235,7255,7275,7294,7316,7335,7355,7374,7395,7415,7435,7455,7476,7495,7515,7535,7555,7576,7594,7614,7634,7654,7675,7694,7714,7735,7754,7775,7795,7815,7836,7854,7875,7896,7914,7935,7956,7975,7994,8014,8034,8054,8076,8096,8115,8135,8155,8174,8195,8216,8236,8255,8275,8294,8315,8335,8355,8376,8394,8415,8435,8455,8475,8495,8516,8535,8555,8574,8595,8615,8636,8655,8675,8694,8714,8736,8756,8774,8794,8814,8834,8855,8876,8895,8915,8935,8956,8976,8996,9014,9035,9054,9076,9094,9114,9134,9156,9176,9194,9214,9234,9256,9274,9294,9314,9335,9355,9375,9394,9414,9435,9455,9476,9495,9514,9534,9556,9575,9594,9616,9636,9654,9675,9695,9715,9736,9755,9776,9796,9815,9835,9855,9876,9895,9915,9936,9954,9974,9994,10014,10036,10056,10076,10096,10116,10135,10155,10174,10195,10215,10236,10256,10276,10295,10315,10335,10355,10375,10395,10414,10434,10455,10476,10496,10514,10535,10554,10574,10594,10615,10634,10656,10675,10695,10714,10735,10756,10775,10795,10815,10835,10856,10875,10896,10915,10935,10955,10974,10994,11015,11035,11056,11075,11096,11116,11135,11155,11174,11196,11215,11236,11256,11275,11294,11314,11335,11356,11375,11395,11415,11435,11455,11475,11494,11515,11535,11554,11574,11595,11615,11635,11654,11674,11695,11714,11735,11756,11774,11794,11814,11835,11854,11874,11895,11916,11935,11954,11974,11994,12016,12035,12056,12074,12094,12115,12135,12156,12174,12194,12216,12235,12254,12274,12294,12316,12335,12354,12374,12395,12415,12435,12455,12474,12495,12515,12535,12555,12575,12595,12614,12635,12656,12674,12694,12715,12734,12755,12775,12795,12814,12835,12854,12875,12896,12915,12935,12955,12976,12996,13015,13035,13056,13075,13096,13115,13134,13156,13176,13196,13215,13235,13256,13275,13295,13316,13335,13355,13374,13395,13415,13435,13455,13476,13495,13514,13535,13555,13576,13595,13614,13634,13655,13674,13694,13714,13735,13755,13775,13796,13814,13835,13855,13875,13896,13916,13935,13956,13975,13995,14014,14035,14056,14076,14096,14115,14135,14155,14174,14195,14216,14235,14255,14274,14294,14316,14335,14355,14376,14395,14415,14435,14456,14475,14496,14515,14536,14556,14575,14596,14616,14636,14656,14675,14696,14717,14736,14757,14776,14795,14815,14836,14856,14876,14896,14916,14936,14957,14976,14995,15015,15035,15057,15076,15095,15116,15136,15155,15175,15195,15217,15236,15256,15275,15296,15315,15337,15357,15376,15397,15415,15436,15455,15475,15497,15516,15536,15555,15575,15596,15617,15636,15655,15676,15696,15716,15736,15756,15777,15796,15816,15835,15856,15876,15896,15917,15936,15955,15977,15995,16016,16035,16056,16076,16096,16117,16136,16156,16175,16196,16215,16236,16255,16276,16297,16315,16336,16355,16375,16396,16416,16436,16455,16476,16496,16516,16536,16555,16575,16595,16617,16636,16655,16676,16696,16715,16735,16756,16776,16796,16817,16836,16855,16876,16896,16916,16936,16957,16977,16996,17015,17036,17056,17076,17095,17116,17136,17156,17175,17195,17217,17235,17256,17275,17296,17315,17336,17355,17377,17396,17415,17436,17457,17475,17496,17515,17535,17557,17576,17596,17615,17636,17657,17675,17696,17715,17736,17757,17777,17796,17815,17836,17855,17877,17896,17917,17936,17956,17975,17995,18015,18036,18057,18076,18095,18117,18136,18156,18175,18196,18215,18235,18256,18276,18296,18315,18336,18356,18375,18397,18416,18436,18456,18475,18495,18515,18536,18556,18576,18595,18616,18636,18657,18676,18695,18716,18735,18756,18776,18797,18816,18836,18856,18876,18895,18917,18936,18956,18975,18995,19016,19036,19056,19075,19095,19116,19135,19155,19175,19196,19216,19235,19256,19276,19297,19317,19336,19356,19376,19397,19417,19436,19455,19476,19497,19517,19535,19555,19575,19596,19617,19636,19655,19677,19696,19716,19736,19756,19775,19796,19817,19835,19855,19876,19896,19916,19936,19955,19976,19996,20016,20036,20056,20075,20096,20115,20136,20156,20177,20195,20215,20236,20257,20277,20295,20315,20336,20356,20377,20395,20416,20435,20456,20476,20497,20515,20535,20557,20576,20595,20615,20636,20656,20676,20695,20715,20736,20756,20776,20796,20817,20836,20856,20877,20896,20917,20936,20955,20976,20995,21015,21036,21056,21076,21096,21116,21136,21156,21176,21196,21215,21235,21256,21276,21296,21315,21336,21355,21376,21395,21416,21435,21456,21476,21496,21517,21536,21556,21576,21596,21615,21636,21656,21677,21695,21716,21736,21756,21775,21796,21816,21835,21856,21877,21896,21917,21936,21955,21976,21995,22015,22036,22057,22077,22095,22115,22136,22156,22176,22195,22217,22235,22255,22276,22295,22315,22335,22355,22376,22395,22415,22436,22457,22477,22495,22515,22536,22556,22576,22595,22616,22636,22656,22675,22696,22715,22735,22756,22775,22795,22815,22835,22855,22875,22895,22915,22935,22956,22975,22995,23016,23035,23055,23077,23096,23115,23136,23156,23175,23197,23215,23236,23256,23276,23296,23317,23336,23355,23376,23395,23417,23436,23455,23476,23495,23517,23536,23556,23575,23595,23615,23635,23656,23676,23695,23715,23735,23755,23775,23796,23817,23836,23855,23876,23896,23916,23935,23956,23975,23995,24016,24036,24056,24076,24096,24115,24135,24156,24177,24197,24215,24236,24257,24276,24297,24315,24336,24357,24376,24395,24416,24436,24455,24476,24495,24516,24537,24556,24576,24595,24617,24636,24655,24677,24696,24715,24736,24756,24775,24795,24816,24836,24855,24875,24895,24917,24936,24955,24975,24996,25017,25036,25057,25076,25095,25117,25136,25156,25177,25196,25217,25235,25256,25275,25295,25315,25335,25356,25377,25396,25415,25436,25456,25475,25495,25516,25536,25555,25575,25595,25617,25636,25656,25675,25696,25716,25736,25755,25776,25795,25816,25836,25856,25875,25895,25915,25935,25955,25976,25995,26015,26035,26055,26075,26097,26115,26136,26156,26176,26196,26216,26237,26257,26276,26295,26315,26335,26356,26376,26395,26416,26435,26455,26477,26497,26515,26536,26555,26575,26597,26616,26636,26657,26675,26696,26715,26736,26756,26776,26795,26817,26836,26856,26875,26895,26916,26935,26957,26977,26996,27015,27035,27056,27077,27095,27116,27136,27157,27175,27196,27215,27235,27256,27275,27295,27315,27335,27356,27375,27395,27416,27435,27455,27477,27496,27515,27535,27555,27577,27597,27615,27636,27655,27675,27695,27715,27736,27756,27775,27796,27815,27835,27856,27876,27895,27916,27935,27956,27975,27997,28017,28036,28055,28075,28095,28117,28136,28157,28176,28195,28216,28236,28257,28277,28296,28315,28335,28357,28376,28396,28415,28435,28456,28475,28495,28515,28536,28556,28575,28595,28616,28636,28656,28675,28696,28716,28736,28756,28776,28796,28815,28836,28855,28876,28896,28917,28936,28956,28975,28995,29017,29036,29057,29076,29096,29116,29135,29156,29175,29196,29217,29236,29256,29276,29296,29317,29336,29356,29375,29395,29415,29435,29455,29475,29495,29516,29536,29555,29576,29595,29616,29636,29657,29675,29695,29716,29736,29756,29775,29796,29815,29835,29856,29876,29897,29916,29935,29957,29977,29996,30016,30036,30056,30075,30096,30117,30135,30157,30176,30196,30216,30236,30256,30275,30296,30315,30335,30356,30376,30395,30416,30436,30456,30475,30496,30515,30535,30557,30577,30595,30615,30635,30656,30677,30696,30715,30735,30755,30776,30797,30815,30835,30856,30876,30895,30917,30936,30956,30975,30995,31015,31035,31056,31076,31096,31115,31135,31157,31176,31196,31215,31235,31257,31276,31296,31316,31335,31356,31377,31397,31415,31435,31456,31477,31496,31516,31536,31556,31575,31596,31616,31636,31657,31676,31696,31715,31736,31757,31776,31795,31816,31835,31856,31877,31895,31915,31936,31956,31976,31996,32015,32035,32056,32075,32095,32116,32135,32157,32176,32196,32215,32235,32256,32276,32295,32316,32335,32356,32375,32396,32416,32435,32457,32476,32495,32516,32536,32556,32577,32595,32616,32635,32656,32676,32696,32716,32736,32756,32775,32795,32817,32837,32856,32875,32895,32916,32936,32957,32976,32996,33016,33035,33055,33076,33095,33115,33135,33155,33176,33197,33215,33235,33256,33276,33297,33315,33335,33355,33377,33397,33416,33436,33456,33475,33495,33517,33536,33556,33575,33596,33616,33636,33656,33676,33695,33716,33735,33756,33777,33796,33815,33836,33855,33876,33896,33915,33935,33955,33976,33996,34016,34035,34055,34076,34096,34117,34135,34155,34175,34197,34215,34235,34256,34276,34296,34317,34335,34356,34376,34395,34415,34435,34456,34476,34495,34517,34537,34556,34576,34596,34615,34635,34656,34676,34696,34715,34735,34755,34775,34796,34817,34835,34856,34876,34895,34917,34936,34957,34975,34995,35015,35035,35056,35075,35096,35116,35135,35155,35175,35195,35216,35235,35256,35275,35295,35315,35335,35355,35376,35396,35415,35435,35457,35475,35495,35515,35535,35556,35576,35596,35615,35635,35656,35675,35695,35717,35737,35755,35776,35795,35816,35836,35857,35876,35895,35916,35935,35956,35977,35997,36016,36036,36056,36076,36097,36115,36136,36156,36177,36196,36216,36235,36255,36276,36297,36316,36335,36355,36375,36395,36416,36437,36457,36475,36496,36515,36535,36556,36576,36596,36615,36635,36656,36675,36696,36715,36736,36756,36776,36796,36816,36837,36857,36876,36896,36915,36937,36955,36976,36995,37016,37035,37056,37075,37096,37115,37136,37155,37176,37195,37215,37235,37255,37275,37296,37316,37335,37355,37375,37395,37416,37435,37456,37476,37497,37516,37535,37555,37576,37596,37615,37635,37656,37676,37697,37716,37735,37757,37776,37795,37816,37835,37856,37876,37896,37917,37935,37956,37975,37995,38017,38036,38057,38076,38096,38115,38136,38155,38176,38196,38217,38235,38256,38276,38296,38315,38335,38355,38375,38396,38417,38435,38456,38475,38495,38515,38535,38555,38575,38595,38615,38635,38656,38675,38696,38716,38737,38755,38776,38796],"xSR":741.5,"ySR":573.95,"xT1":424.9,"yT1":0,"xT2":1058.1,"yT2":0,"toosoon":0,"cond_shown":"randomdotsizeEA","ratio_trial":750,"smaller_num":"6","larger_num":"8","correct_side":2,"subjID":"manuelafernandez26","gender":"1","age":"9","school":"4"},{"start_time":1552056531444,"click_time":1552056533087,"finger_time":1552056531588,"fix_duration":275.52580662314074,"trial":16,"RT":144,"MT":1499,"sideResp":1,"stimulus":"img/900/randomdotsizeEA/L/10_Ratio_900_L_20_R_18.png","xmouse":[836,836,836,836,836,834,831,811,779,711,653,607,567,566,565,562,557,533,514,505,498,493,487,487,494,515,572,682,689,690,695,702,729,750,775,799,812,822,822,824,829,835,839,839,839,839,839,839,839,839,839,839,839,839,839,824,806,596,541,453,453,453,453,453,453,453,453,453,453,453,453,453,453,453,453,452,451,451,455,456,457,459,459],"ymouse":[657,657,657,657,657,650,639,564,489,354,275,223,205,204,206,221,240,269,279,282,283,286,310,317,322,332,353,401,410,414,431,453,522,565,606,639,653,658,658,658,656,650,647,647,647,647,647,647,647,647,647,647,647,647,647,621,596,326,258,124,124,124,124,124,124,124,124,124,124,124,124,124,124,123,123,122,122,119,114,113,106,101,89],"timestamp_mouse":[13,23,43,63,84,103,125,144,165,183,204,224,244,263,284,303,324,343,363,384,403,423,443,463,483,503,525,544,565,583,603,624,643,663,685,705,724,743,763,783,803,825,844,863,884,904,925,944,965,984,1003,1023,1045,1064,1084,1103,1124,1143,1164,1184,1204,1223,1243,1264,1283,1303,1324,1344,1364,1384,1404,1423,1444,1463,1483,1504,1525,1544,1563,1584,1603,1623,1643],"xSR":741.5,"ySR":573.95,"xT1":424.9,"yT1":0,"xT2":1058.1,"yT2":0,"toosoon":0,"cond_shown":"randomdotsizeEA","ratio_trial":900,"smaller_num":"18","larger_num":"20","correct_side":1,"subjID":"manuelafernandez26","gender":"1","age":"9","school":"4"},{"start_time":1552056539150,"click_time":1552056540107,"finger_time":1552056539988,"fix_duration":561.569774168212,"trial":17,"RT":838,"MT":119,"sideResp":2,"stimulus":"img/900/equaldotanddens/R/5_Ratio_900_L_9_R_10.png","xmouse":[795,795,795,795,795,795,795,795,795,795,795,795,795,795,795,795,795,795,795,795,795,795,795,795,795,795,795,795,795,795,795,791,786,784,782,778,769,767,767,781,809,942,1003,1017,1044,1055,1068,1083],"ymouse":[625,625,625,625,625,625,625,625,625,625,625,625,625,625,625,625,625,625,625,625,625,625,625,625,625,625,625,625,625,625,625,625,626,626,627,627,628,629,629,620,595,473,379,345,255,200,112,77],"timestamp_mouse":[19,38,58,78,98,119,139,158,179,197,217,237,259,277,298,317,338,358,377,398,418,437,457,477,498,517,538,559,578,598,617,637,657,678,699,718,739,758,778,797,818,838,857,878,898,919,938,957],"xSR":741.5,"ySR":573.95,"xT1":424.9,"yT1":0,"xT2":1058.1,"yT2":0,"toosoon":0,"cond_shown":"equaldotanddens","ratio_trial":900,"smaller_num":"9","larger_num":"10","correct_side":2,"subjID":"manuelafernandez26","gender":"1","age":"9","school":"4"},{"start_time":1552056543959,"click_time":1552056545288,"finger_time":1552056544807,"fix_duration":250,"trial":18,"RT":848,"MT":481,"sideResp":1,"stimulus":"img/900/randomdotsizeEA/L/2_Ratio_900_L_20_R_18.png","xmouse":[813,813,813,813,813,813,813,813,813,813,813,813,813,813,813,813,813,813,813,813,813,813,813,813,813,813,813,813,813,813,813,813,813,813,813,813,813,813,813,813,812,807,721,651,581,538,509,463,445,432,423,426,449,465,478,489,495,512,521,532,535,536,536,536,532,526,519],"ymouse":[619,619,619,619,619,619,619,619,619,619,619,619,619,619,619,619,619,619,619,619,619,619,619,619,619,619,619,619,619,619,619,619,619,619,619,619,619,619,619,619,619,615,559,529,496,456,401,326,290,266,237,225,208,200,193,188,186,181,180,175,172,146,130,113,99,84,71],"timestamp_mouse":[12,38,48,69,88,109,128,148,170,190,208,229,249,269,289,309,328,349,368,389,409,428,448,470,490,510,528,549,568,589,608,629,650,669,688,710,728,749,769,790,808,829,848,868,889,908,928,948,969,989,1010,1028,1048,1068,1089,1108,1129,1149,1169,1189,1209,1228,1248,1269,1289,1308,1329],"xSR":741.5,"ySR":573.95,"xT1":424.9,"yT1":0,"xT2":1058.1,"yT2":0,"toosoon":0,"cond_shown":"randomdotsizeEA","ratio_trial":900,"smaller_num":"18","larger_num":"20","correct_side":1,"subjID":"manuelafernandez26","gender":"1","age":"9","school":"4"},{"start_time":1552056547510,"click_time":1552056550028,"finger_time":1552056548487,"fix_duration":858.2554402026611,"trial":19,"RT":977,"MT":1541,"sideResp":1,"stimulus":"img/900/equaldotanddens/L/8_Ratio_900_L_20_R_18.png","xmouse":[743,743,743,743,743,743,743,743,743,743,743,743,743,743,743,743,743,743,743,743,743,743,743,743,743,743,743,743,743,743,743,743,743,743,743,743,743,743,743,743,743,743,743,743,743,743,743,743,741,729,720,715,713,713,713,713,713,713,713,713,713,713,713,713,713,713,713,713,713,715,716,721,732,750,754,757,758,760,764,769,777,787,796,806,807,807,807,807,807,807,807,807,807,807,807,807,807,807,807,807,807,807,807,807,807,808,808,800,748,671,671,634,611,585,580,580,580,580,578,576,574,572,567,544,531,524],"ymouse":[622,622,622,622,622,622,622,622,622,622,622,622,622,622,622,622,622,622,622,622,622,622,622,622,622,622,622,622,622,622,622,622,622,622,622,622,622,622,622,622,622,622,622,622,622,622,622,622,622,621,621,621,621,621,621,621,621,621,621,621,621,621,621,621,621,621,621,621,621,620,620,619,617,607,605,604,604,604,604,603,601,599,596,594,593,593,593,593,593,593,593,593,593,593,593,593,593,593,593,593,593,593,593,593,593,575,551,523,408,277,277,222,187,139,123,118,115,105,92,85,80,75,69,57,51,50],"timestamp_mouse":[19,39,58,79,99,117,138,158,178,197,218,238,258,279,297,318,338,357,377,398,418,437,457,477,498,519,537,559,579,597,618,638,657,678,699,719,738,757,778,798,819,839,858,878,898,918,938,957,977,997,1017,1038,1059,1078,1098,1117,1137,1158,1177,1199,1218,1238,1258,1278,1298,1318,1339,1359,1378,1397,1417,1437,1457,1478,1499,1519,1539,1557,1577,1598,1618,1637,1657,1677,1697,1717,1737,1758,1777,1799,1817,1838,1858,1877,1897,1919,1938,1959,1977,1998,2018,2038,2057,2078,2098,2117,2137,2157,2177,2207,2217,2237,2259,2278,2298,2318,2337,2357,2377,2397,2419,2438,2457,2477,2497,2517],"xSR":741.5,"ySR":573.95,"xT1":424.9,"yT1":0,"xT2":1058.1,"yT2":0,"toosoon":0,"cond_shown":"equaldotanddens","ratio_trial":900,"smaller_num":"18","larger_num":"20","correct_side":1,"subjID":"manuelafernandez26","gender":"1","age":"9","school":"4"},{"start_time":1552056553355,"click_time":1552056554627,"finger_time":1552056554087,"fix_duration":766.1161782382193,"trial":20,"RT":732,"MT":540,"sideResp":1,"stimulus":"img/750/equaldotanddens/L/9_Ratio_750_L_4_R_3.png","xmouse":[769,769,769,769,769,769,769,769,769,769,769,769,769,769,769,769,769,769,768,768,767,767,767,767,767,767,767,767,767,767,767,767,767,767,767,770,756,729,693,666,638,605,598,597,597,597,597,593,589,589,589,578,575,571,566,564,558,556,553,551,550,537,529,521],"ymouse":[637,637,637,637,637,637,637,637,637,637,637,637,637,637,637,637,637,637,637,637,636,636,636,636,636,636,636,636,636,636,636,636,636,636,617,588,391,260,143,59,0,0,0,0,0,0,0,0,0,0,0,2,2,2,2,2,2,2,1,1,1,2,6,8],"timestamp_mouse":[12,33,52,73,92,113,132,154,174,192,213,234,254,272,293,312,333,353,373,393,413,434,452,472,492,512,532,553,572,592,613,632,653,672,693,713,732,752,773,794,813,833,852,873,892,914,933,952,973,993,1013,1033,1053,1072,1092,1112,1134,1153,1173,1193,1213,1234,1252,1272],"xSR":741.5,"ySR":573.95,"xT1":424.9,"yT1":0,"xT2":1058.1,"yT2":0,"toosoon":0,"cond_shown":"equaldotanddens","ratio_trial":750,"smaller_num":"3","larger_num":"4","correct_side":1,"subjID":"manuelafernandez26","gender":"1","age":"9","school":"4"},{"start_time":1552056565828,"click_time":1552056567008,"finger_time":1552056566548,"fix_duration":1138.887937953737,"trial":21,"RT":720,"MT":460,"sideResp":2,"stimulus":"img/750/randomdotsizeEA/R/7_Ratio_750_L_3_R_4.png","xmouse":[837,837,837,837,837,837,835,834,832,832,832,832,832,832,832,829,828,828,828,828,828,828,828,828,826,822,821,821,821,821,821,821,821,821,825,831,845,856,888,909,935,963,992,1070,1130,1207,1272,1348,1364,1348,1335,1327,1327,1325,1319,1304,1279,1233,1184,1155],"ymouse":[589,589,589,589,589,589,589,589,589,589,589,589,589,589,589,590,591,591,591,591,591,591,591,591,593,593,593,593,593,593,593,593,593,593,591,587,577,567,544,530,521,508,492,433,377,285,203,101,8,0,0,0,0,0,0,0,0,0,3,9],"timestamp_mouse":[10,20,40,61,80,100,120,141,160,182,200,221,240,260,282,300,321,340,360,381,401,420,441,462,480,501,521,540,561,581,601,621,641,661,681,700,720,741,760,782,801,820,841,860,880,901,920,941,960,981,1000,1020,1041,1061,1080,1101,1122,1140,1162,1180],"xSR":741.5,"ySR":573.95,"xT1":424.9,"yT1":0,"xT2":1058.1,"yT2":0,"toosoon":0,"cond_shown":"randomdotsizeEA","ratio_trial":750,"smaller_num":"3","larger_num":"4","correct_side":2,"subjID":"manuelafernandez26","gender":"1","age":"9","school":"4"},{"start_time":1552056569632,"click_time":1552056570929,"finger_time":1552056570488,"fix_duration":302.8396895288138,"trial":22,"RT":856,"MT":441,"sideResp":1,"stimulus":"img/750/equaldotanddens/L/8_Ratio_750_L_4_R_3.png","xmouse":[796,796,794,793,793,793,793,793,793,793,793,793,793,793,793,793,793,793,793,793,793,793,793,793,793,793,793,793,793,793,793,793,793,793,793,793,793,793,793,791,787,772,734,644,625,620,620,611,598,581,572,570,571,575,578,578,578,578,578,577,573,563,541,530,523],"ymouse":[627,627,627,627,627,627,627,627,627,627,627,627,627,627,627,627,627,627,627,627,627,627,627,627,627,627,627,627,627,627,627,627,627,627,627,627,627,627,627,626,622,606,565,439,369,312,231,157,130,107,96,92,92,92,91,91,91,91,91,91,91,89,83,77,72],"timestamp_mouse":[17,38,56,77,97,116,136,156,177,196,217,236,257,278,297,317,337,356,376,398,416,436,457,476,498,517,536,558,576,597,618,636,657,677,697,717,736,756,777,797,817,836,856,876,896,916,937,956,977,997,1017,1036,1056,1076,1096,1116,1137,1156,1177,1196,1217,1236,1256,1276,1296],"xSR":741.5,"ySR":573.95,"xT1":424.9,"yT1":0,"xT2":1058.1,"yT2":0,"toosoon":0,"cond_shown":"equaldotanddens","ratio_trial":750,"smaller_num":"3","larger_num":"4","correct_side":1,"subjID":"manuelafernandez26","gender":"1","age":"9","school":"4"},{"start_time":1552056574154,"click_time":1552056575348,"finger_time":1552056574988,"fix_duration":1044.3655129993103,"trial":23,"RT":834,"MT":360,"sideResp":2,"stimulus":"img/900/equaldotsize/R/15_Ratio_900_L_9_R_10.png","xmouse":[769,769,769,769,769,769,769,769,769,769,769,769,769,769,769,769,769,769,769,769,769,769,769,769,769,769,769,769,769,769,769,769,769,769,769,769,769,769,769,774,785,813,838,867,907,954,1050,1089,1113,1127,1141,1144,1145,1145,1145,1145,1145,1145,1145,1145],"ymouse":[622,622,622,622,622,622,622,622,622,622,622,622,622,622,622,622,622,622,622,622,622,622,622,622,622,622,622,622,622,622,622,622,622,622,622,622,622,622,622,619,597,547,509,465,419,382,313,294,289,286,278,271,251,236,220,200,152,128,104,84],"timestamp_mouse":[16,36,55,74,96,116,135,154,174,195,215,234,254,274,294,315,334,355,374,395,414,434,455,474,496,515,535,555,575,595,614,635,655,675,695,715,735,754,774,794,815,834,855,874,895,914,934,954,976,994,1015,1034,1054,1074,1095,1115,1134,1154,1175,1194],"xSR":741.5,"ySR":573.95,"xT1":424.9,"yT1":0,"xT2":1058.1,"yT2":0,"toosoon":0,"cond_shown":"equaldotsize","ratio_trial":900,"smaller_num":"9","larger_num":"10","correct_side":2,"subjID":"manuelafernandez26","gender":"1","age":"9","school":"4"},{"start_time":1552056589204,"click_time":1552056590250,"finger_time":1552056589868,"fix_duration":394.4184798091525,"trial":24,"RT":664,"MT":382,"sideResp":1,"stimulus":"img/500/equaldotsize/L/10_Ratio_500_L_4_R_2.png","xmouse":[809,809,809,809,809,809,809,809,809,809,809,809,809,809,809,809,809,809,809,809,809,809,809,809,809,809,809,809,809,809,809,803,796,771,685,634,593,563,537,516,515,515,516,519,526,528,531,533,535,535,533,526,517],"ymouse":[628,628,628,628,628,628,628,628,628,628,628,628,628,628,628,628,628,628,628,628,628,628,628,628,628,628,628,628,628,628,623,604,583,546,442,388,332,295,257,223,215,213,210,205,185,171,155,135,113,79,53,37,23],"timestamp_mouse":[13,32,44,64,84,104,125,146,165,184,205,224,244,265,285,306,325,344,365,385,404,424,444,465,485,504,525,544,565,585,605,624,645,664,684,704,725,744,765,784,804,824,844,864,884,904,925,944,965,984,1005,1025,1046],"xSR":741.5,"ySR":573.95,"xT1":424.9,"yT1":0,"xT2":1058.1,"yT2":0,"toosoon":0,"cond_shown":"equaldotsize","ratio_trial":500,"smaller_num":"2","larger_num":"4","correct_side":1,"subjID":"manuelafernandez26","gender":"1","age":"9","school":"4"},{"start_time":1552056592111,"click_time":1552056594870,"finger_time":1552056592135,"fix_duration":802.855805054817,"trial":25,"RT":24,"MT":2735,"sideResp":1,"stimulus":"img/500/equaldotsize/R/6_Ratio_500_L_9_R_18.png","xmouse":[809,871,910,1124,1174,1174,1174,1174,1174,1209,1209,1207,1205,1205,1205,1205,1205,1204,1203,1201,1199,1197,1196,1194,1194,1194,1194,1194,1194,1193,1193,1191,1187,1174,1165,1160,1158,1157,1154,1151,1142,1130,1115,1061,1043,1025,1016,1008,998,996,992,989,981,939,917,894,871,845,806,790,776,774,774,774,774,774,774,774,774,774,774,774,774,774,774,774,774,774,774,774,774,774,774,774,774,774,774,774,774,774,774,774,774,774,774,774,774,774,774,774,774,774,774,774,774,774,774,774,774,774,774,774,774,767,760,753,743,731,699,683,665,643,617,588,588,588,588,588,580,573,565,558,552,546,540,533,526,518],"ymouse":[736,776,793,869,880,880,880,880,880,882,881,877,875,874,874,874,874,874,873,873,873,873,873,873,873,873,873,873,873,873,873,873,873,873,873,873,872,871,866,861,847,834,820,781,766,753,745,737,729,727,726,725,721,701,688,673,659,644,619,609,601,598,598,598,598,598,598,598,598,598,598,598,598,598,598,598,598,598,598,598,598,598,598,598,598,598,598,598,598,598,598,598,598,598,598,598,598,598,598,598,598,598,598,598,598,598,598,598,598,598,598,598,598,598,598,596,592,584,557,537,508,466,416,320,285,249,216,188,140,118,101,90,81,76,72,67,65,62],"timestamp_mouse":[24,37,57,78,97,117,138,158,177,198,217,237,257,278,297,317,338,357,377,397,418,438,457,477,498,518,538,557,578,597,619,638,658,678,698,717,738,758,777,797,818,837,858,877,897,918,938,958,977,997,1018,1038,1057,1077,1097,1117,1137,1157,1177,1197,1218,1237,1258,1277,1297,1318,1337,1357,1377,1398,1418,1438,1458,1477,1498,1517,1539,1558,1577,1598,1617,1637,1657,1678,1699,1718,1737,1758,1778,1798,1818,1837,1858,1879,1898,1918,1937,1958,1978,1998,2017,2037,2059,2079,2098,2118,2137,2157,2179,2198,2218,2238,2258,2277,2298,2317,2338,2357,2377,2397,2418,2437,2457,2477,2497,2517,2537,2557,2578,2597,2617,2637,2658,2677,2697,2717,2737,2758],"xSR":741.5,"ySR":573.95,"xT1":424.9,"yT1":0,"xT2":1058.1,"yT2":0,"toosoon":0,"cond_shown":"equaldotsize","ratio_trial":500,"smaller_num":"9","larger_num":"18","correct_side":2,"subjID":"manuelafernandez26","gender":"1","age":"9","school":"4"},{"start_time":1552056603980,"click_time":1552056605810,"finger_time":1552056604789,"fix_duration":250,"trial":26,"RT":809,"MT":1021,"sideResp":1,"stimulus":"img/500/randomdotsizeEA/L/7_Ratio_500_L_10_R_5.png","xmouse":[769,769,769,769,769,769,769,769,769,769,769,769,769,769,769,769,769,769,769,769,769,769,769,769,769,769,769,769,769,769,769,769,768,768,768,768,768,769,776,796,839,1035,1114,1184,1246,1337,1353,1362,1366,1366,1366,1365,1352,1346,1346,1346,1346,1346,1342,1334,1304,1293,1285,1281,1266,1221,1187,1151,1107,1063,952,908,860,820,788,755,695,668,641,620,592,586,580,577,574,569,562,557,553,549,531,521],"ymouse":[604,604,604,604,604,604,604,604,604,604,604,604,604,604,604,604,604,604,604,604,604,604,604,604,604,607,607,608,608,608,608,608,608,608,608,608,608,608,605,589,544,275,153,28,0,0,0,0,0,0,0,0,0,0,0,0,0,0,0,1,4,4,4,3,2,0,0,0,0,0,0,0,0,0,0,0,0,0,0,0,0,1,2,2,3,3,3,3,3,4,9,13],"timestamp_mouse":[27,28,49,68,88,109,128,149,169,189,208,228,249,269,289,308,328,348,369,388,409,428,449,468,488,508,530,549,568,588,609,628,650,668,689,708,730,748,768,789,809,830,850,869,888,910,928,949,969,989,1009,1028,1048,1068,1088,1109,1129,1149,1169,1188,1210,1228,1248,1269,1289,1308,1329,1348,1368,1388,1408,1428,1449,1468,1488,1508,1528,1549,1568,1588,1608,1628,1648,1668,1688,1709,1728,1749,1768,1789,1809,1830],"xSR":741.5,"ySR":573.95,"xT1":424.9,"yT1":0,"xT2":1058.1,"yT2":0,"toosoon":0,"cond_shown":"randomdotsizeEA","ratio_trial":500,"smaller_num":"5","larger_num":"10","correct_side":1,"subjID":"manuelafernandez26","gender":"1","age":"9","school":"4"},{"start_time":1552056607317,"click_time":1552056608548,"finger_time":1552056607969,"fix_duration":407.57040266630753,"trial":27,"RT":652,"MT":579,"sideResp":1,"stimulus":"img/500/equaldotsize/L/10_Ratio_500_L_4_R_2.png","xmouse":[745,745,745,745,745,745,745,745,745,745,745,749,749,750,750,750,750,750,750,750,750,750,750,750,750,750,750,750,750,752,753,754,754,731,712,700,693,688,682,671,663,648,631,595,584,576,570,565,561,561,560,558,556,549,549,549,548,547,538,531,525,518],"ymouse":[611,611,611,611,611,611,611,611,611,611,611,611,611,611,611,611,611,611,611,611,611,611,611,611,611,611,611,611,611,610,605,589,552,480,432,393,369,351,333,303,288,269,247,199,182,166,155,146,133,127,119,112,107,96,96,96,95,95,94,93,90,86],"timestamp_mouse":[12,31,52,73,91,112,132,151,172,192,211,231,252,271,292,312,331,352,373,391,412,432,451,472,491,511,532,551,571,592,611,631,652,671,693,711,731,751,771,791,811,831,852,871,891,911,932,951,971,991,1012,1031,1051,1071,1092,1111,1131,1151,1172,1191,1212,1231],"xSR":741.5,"ySR":573.95,"xT1":424.9,"yT1":0,"xT2":1058.1,"yT2":0,"toosoon":0,"cond_shown":"equaldotsize","ratio_trial":500,"smaller_num":"2","larger_num":"4","correct_side":1,"subjID":"manuelafernandez26","gender":"1","age":"9","school":"4"},{"start_time":1552056614252,"click_time":1552056615790,"finger_time":1552056615068,"fix_duration":1439.299343936325,"trial":28,"RT":816,"MT":722,"sideResp":2,"stimulus":"img/500/equaldotanddens/R/15_Ratio_500_L_1_R_2.png","xmouse":[785,784,781,779,779,779,779,779,779,779,779,779,779,779,779,779,779,779,779,779,779,779,779,779,779,779,779,779,779,779,779,779,779,779,779,779,779,789,805,822,857,941,981,1016,1039,1050,1054,1056,1059,1067,1076,1093,1113,1115,1115,1115,1115,1115,1115,1115,1115,1114,1114,1113,1113,1113,1112,1111,1110,1109,1109,1109,1108,1108,1108,1108,1106],"ymouse":[615,615,615,615,615,615,615,615,615,615,615,615,615,615,615,615,615,615,615,615,615,615,615,615,615,615,615,615,615,615,615,615,615,615,615,615,615,614,611,605,568,446,388,312,236,165,63,11,0,0,0,0,0,0,0,0,0,0,0,0,0,0,0,0,0,0,0,0,0,0,0,0,0,0,0,0,1],"timestamp_mouse":[16,36,56,76,96,117,136,158,176,196,217,238,258,278,298,317,337,357,377,396,416,437,457,477,496,516,536,558,578,597,616,636,656,677,696,716,737,757,777,796,816,837,856,876,896,916,936,956,977,996,1016,1036,1056,1077,1097,1117,1137,1156,1177,1197,1217,1237,1257,1277,1297,1316,1338,1356,1376,1397,1417,1436,1457,1477,1497,1517,1537],"xSR":741.5,"ySR":573.95,"xT1":424.9,"yT1":0,"xT2":1058.1,"yT2":0,"toosoon":0,"cond_shown":"equaldotanddens","ratio_trial":500,"smaller_num":"1","larger_num":"2","correct_side":2,"subjID":"manuelafernandez26","gender":"1","age":"9","school":"4"},{"start_time":1552056617893,"click_time":1552056618788,"finger_time":1552056618589,"fix_duration":1203.9682059893573,"trial":29,"RT":696,"MT":199,"sideResp":1,"stimulus":"img/750/equaldotsize/R/2_Ratio_750_L_6_R_8.png","xmouse":[808,808,808,808,808,808,808,808,808,808,808,808,808,808,808,808,808,808,808,808,808,808,808,808,808,808,808,808,808,808,808,799,794,777,640,566,498,445,409,388,388,394,403,414,438],"ymouse":[622,622,622,622,622,622,622,622,622,622,622,622,622,622,622,622,622,622,622,622,622,622,622,622,622,622,622,622,622,622,622,614,607,587,456,382,306,242,188,134,121,113,108,103,93],"timestamp_mouse":[16,39,55,76,96,115,136,156,175,195,216,235,257,277,296,315,335,355,375,395,416,435,456,476,497,516,535,555,577,595,616,636,655,677,696,717,735,756,775,795,815,836,855,876,895],"xSR":741.5,"ySR":573.95,"xT1":424.9,"yT1":0,"xT2":1058.1,"yT2":0,"toosoon":0,"cond_shown":"equaldotsize","ratio_trial":750,"smaller_num":"6","larger_num":"8","correct_side":2,"subjID":"manuelafernandez26","gender":"1","age":"9","school":"4"},{"start_time":1552056620747,"click_time":1552056621708,"finger_time":1552056621328,"fix_duration":896.3392899324966,"trial":30,"RT":581,"MT":380,"sideResp":2,"stimulus":"img/750/equaldotsize/R/3_Ratio_750_L_15_R_20.png","xmouse":[758,758,758,758,758,758,758,758,758,758,758,758,759,759,759,759,759,759,760,760,760,760,762,765,766,768,772,777,801,818,837,858,915,958,982,1007,1025,1049,1058,1068,1073,1079,1085,1096,1101,1103,1104,1104,1103],"ymouse":[619,620,621,621,621,621,621,621,621,623,623,623,625,626,626,626,626,627,627,627,627,627,627,627,626,624,621,617,595,573,548,518,431,368,334,305,276,243,234,228,224,217,204,182,168,151,130,101,85],"timestamp_mouse":[1,29,41,62,82,102,121,143,162,182,202,222,242,261,281,301,321,342,362,381,402,421,441,461,482,502,522,541,561,581,601,621,641,661,681,701,721,741,761,781,801,823,841,862,881,901,923,942,961],"xSR":741.5,"ySR":573.95,"xT1":424.9,"yT1":0,"xT2":1058.1,"yT2":0,"toosoon":0,"cond_shown":"equaldotsize","ratio_trial":750,"smaller_num":"15","larger_num":"20","correct_side":2,"subjID":"manuelafernandez26","gender":"1","age":"9","school":"4"},{"start_time":1552056627901,"click_time":1552056628829,"finger_time":1552056628489,"fix_duration":250,"trial":31,"RT":588,"MT":340,"sideResp":2,"stimulus":"img/500/equaldotsize/R/6_Ratio_500_L_9_R_18.png","xmouse":[768,768,768,768,768,768,768,768,768,768,768,768,768,768,768,768,768,768,768,768,768,768,768,768,768,768,768,768,772,805,833,859,886,912,970,997,1007,1014,1018,1022,1022,1022,1022,1023,1028,1050,1059],"ymouse":[614,614,614,614,614,614,614,614,614,614,614,614,614,614,614,614,614,614,614,614,614,614,614,614,614,614,613,608,590,518,463,404,356,304,203,153,128,105,91,76,72,70,67,64,63,52,48],"timestamp_mouse":[13,36,48,68,87,108,129,147,167,188,207,228,248,268,289,308,329,347,369,388,408,428,449,468,487,509,528,549,567,588,608,628,648,669,687,708,728,748,767,788,808,828,847,868,887,907,928],"xSR":741.5,"ySR":573.95,"xT1":424.9,"yT1":0,"xT2":1058.1,"yT2":0,"toosoon":0,"cond_shown":"equaldotsize","ratio_trial":500,"smaller_num":"9","larger_num":"18","correct_side":2,"subjID":"manuelafernandez26","gender":"1","age":"9","school":"4"},{"start_time":1552056630906,"click_time":1552056632269,"finger_time":1552056631608,"fix_duration":356.52038486168203,"trial":32,"RT":702,"MT":661,"sideResp":2,"stimulus":"img/250/randomdotsizeEA/R/9_Ratio_250_L_3_R_12.png","xmouse":[801,801,801,801,801,801,801,801,801,801,801,801,801,801,801,801,802,802,802,802,802,802,802,802,802,802,802,802,802,802,802,802,802,801,789,770,755,739,720,696,694,694,701,724,856,918,973,1011,1041,1092,1112,1127,1141,1155,1176,1177,1177,1177,1175,1170,1167,1162,1158,1155,1145,1139,1136,1136,1134],"ymouse":[615,615,615,615,615,615,615,615,615,615,615,615,615,615,615,615,615,615,615,615,615,615,615,615,615,615,615,615,615,615,615,615,612,608,587,564,549,535,519,496,488,482,476,465,409,381,353,326,301,245,220,193,171,153,126,118,113,110,107,106,106,105,104,104,102,101,100,100,97],"timestamp_mouse":[12,30,44,64,84,102,124,144,162,184,204,224,242,264,284,302,323,342,364,383,402,423,443,464,483,504,523,543,563,584,604,624,643,663,682,702,723,743,763,783,802,823,842,863,883,903,923,944,962,983,1003,1022,1042,1064,1083,1102,1123,1143,1163,1183,1202,1223,1243,1263,1282,1302,1323,1343,1363],"xSR":741.5,"ySR":573.95,"xT1":424.9,"yT1":0,"xT2":1058.1,"yT2":0,"toosoon":0,"cond_shown":"randomdotsizeEA","ratio_trial":250,"smaller_num":"3","larger_num":"12","correct_side":2,"subjID":"manuelafernandez26","gender":"1","age":"9","school":"4"},{"start_time":1552056633441,"click_time":1552056634489,"finger_time":1552056634189,"fix_duration":250,"trial":33,"RT":748,"MT":300,"sideResp":1,"stimulus":"img/750/equaldotsize/L/9_Ratio_750_L_4_R_3.png","xmouse":[820,820,820,820,820,820,820,820,820,820,820,820,820,820,820,820,821,824,824,824,824,824,824,824,824,824,824,824,824,824,824,824,824,823,819,814,809,794,763,730,695,657,578,551,531,516,508,506,507,507,508,508,508],"ymouse":[615,615,615,615,615,615,615,615,615,615,615,615,615,615,616,616,616,614,614,614,614,614,614,614,614,614,614,614,614,614,614,614,613,609,605,600,593,571,529,491,442,387,273,228,197,174,156,142,137,133,130,123,99],"timestamp_mouse":[20,34,48,69,89,109,128,148,168,187,208,227,247,269,288,308,329,348,367,387,408,428,448,467,488,508,529,547,567,588,609,628,648,667,688,708,727,748,769,788,808,828,847,867,887,907,929,947,968,988,1009,1028,1047],"xSR":741.5,"ySR":573.95,"xT1":424.9,"yT1":0,"xT2":1058.1,"yT2":0,"toosoon":0,"cond_shown":"equaldotsize","ratio_trial":750,"smaller_num":"3","larger_num":"4","correct_side":1,"subjID":"manuelafernandez26","gender":"1","age":"9","school":"4"},{"start_time":1552056640685,"click_time":1552056641910,"finger_time":1552056641509,"fix_duration":295.82831945776024,"trial":34,"RT":824,"MT":401,"sideResp":2,"stimulus":"img/900/equaldotsize/R/14_Ratio_900_L_18_R_20.png","xmouse":[814,814,814,814,814,814,814,814,814,814,814,814,814,814,814,814,814,814,814,814,814,814,814,814,814,814,814,814,814,814,814,814,814,814,814,814,814,814,814,814,827,845,875,921,977,1112,1157,1207,1228,1239,1245,1245,1246,1246,1246,1235,1226,1212,1200,1186,1161,1153],"ymouse":[619,619,619,619,619,619,619,619,619,619,619,619,619,619,619,619,619,619,619,619,619,619,619,619,619,619,619,619,619,619,619,619,619,619,619,619,618,616,615,612,597,584,568,541,505,389,343,269,230,203,156,143,129,116,105,87,80,74,69,65,60,60],"timestamp_mouse":[15,33,45,63,83,103,123,143,164,183,203,224,244,264,285,304,324,344,363,385,403,425,445,464,485,505,523,543,563,584,603,624,645,663,683,704,724,745,765,783,803,824,844,865,883,903,923,943,963,984,1004,1025,1044,1064,1084,1103,1124,1143,1165,1184,1203,1224],"xSR":741.5,"ySR":573.95,"xT1":424.9,"yT1":0,"xT2":1058.1,"yT2":0,"toosoon":0,"cond_shown":"equaldotsize","ratio_trial":900,"smaller_num":"18","larger_num":"20","correct_side":2,"subjID":"manuelafernandez26","gender":"1","age":"9","school":"4"},{"start_time":1552056644120,"click_time":1552056645188,"finger_time":1552056644770,"fix_duration":929.95075208923,"trial":35,"RT":650,"MT":418,"sideResp":2,"stimulus":"img/250/equaldotsize/R/4_Ratio_250_L_3_R_12.png","xmouse":[819,819,819,819,819,819,819,819,819,819,819,819,819,819,819,819,819,819,819,819,819,819,819,819,819,819,819,819,819,820,826,835,849,886,909,943,974,1003,1046,1059,1070,1077,1080,1086,1087,1090,1094,1095,1103,1108,1112,1115,1117,1118],"ymouse":[657,657,657,657,657,657,657,657,657,657,657,657,657,657,657,657,657,657,657,657,657,657,657,657,657,657,657,657,657,651,637,617,591,526,489,441,406,377,340,323,302,281,262,224,217,192,175,164,139,128,120,109,103,98],"timestamp_mouse":[11,31,48,70,90,110,129,149,170,190,209,229,250,270,288,309,329,349,370,389,408,428,450,469,488,509,529,548,570,589,609,628,650,668,690,709,729,749,769,789,809,829,850,869,889,909,929,948,968,988,1008,1028,1048,1068],"xSR":741.5,"ySR":573.95,"xT1":424.9,"yT1":0,"xT2":1058.1,"yT2":0,"toosoon":0,"cond_shown":"equaldotsize","ratio_trial":250,"smaller_num":"3","larger_num":"12","correct_side":2,"subjID":"manuelafernandez26","gender":"1","age":"9","school":"4"},{"start_time":1552056647682,"click_time":1552056648849,"finger_time":1552056648289,"fix_duration":250,"trial":36,"RT":607,"MT":560,"sideResp":1,"stimulus":"img/250/equaldotanddens/L/15_Ratio_250_L_12_R_3.png","xmouse":[770,770,770,770,770,770,770,770,770,770,770,770,770,770,770,770,770,770,770,770,770,770,770,770,770,770,770,770,770,771,765,741,707,664,622,565,547,532,531,533,538,539,539,539,539,539,539,537,536,535,535,534,533,532,531,529,529,525,520],"ymouse":[625,625,625,625,625,625,625,625,625,625,625,625,625,625,625,625,625,625,625,625,625,625,625,625,625,625,625,625,625,612,566,517,463,401,334,209,151,89,68,56,49,49,49,49,49,49,48,48,48,48,48,48,48,48,48,48,48,48,48],"timestamp_mouse":[13,33,48,68,86,108,126,148,168,188,206,228,247,266,287,307,327,347,366,386,407,426,448,467,486,507,528,548,568,587,607,627,648,666,688,707,728,747,768,787,806,827,847,867,887,907,926,946,967,987,1006,1026,1047,1068,1087,1107,1127,1146,1167],"xSR":741.5,"ySR":573.95,"xT1":424.9,"yT1":0,"xT2":1058.1,"yT2":0,"toosoon":0,"cond_shown":"equaldotanddens","ratio_trial":250,"smaller_num":"3","larger_num":"12","correct_side":1,"subjID":"manuelafernandez26","gender":"1","age":"9","school":"4"},{"start_time":1552056650817,"click_time":1552056651829,"finger_time":1552056651508,"fix_duration":707.860212929211,"trial":37,"RT":691,"MT":321,"sideResp":1,"stimulus":"img/750/equaldotanddens/L/13_Ratio_750_L_8_R_6.png","xmouse":[802,801,800,798,797,796,795,795,794,794,794,794,794,794,794,794,794,794,794,794,794,794,794,794,794,794,794,794,794,794,794,794,789,764,742,717,690,668,631,628,615,607,601,591,585,581,575,566,549,530,514],"ymouse":[623,623,623,622,622,621,621,621,621,621,621,621,621,621,621,621,621,621,621,621,621,621,621,621,621,621,621,621,621,621,620,618,610,581,555,526,494,465,400,388,346,321,301,265,243,216,183,150,105,76,57],"timestamp_mouse":[14,32,53,71,92,112,131,152,172,193,211,232,253,272,291,312,332,353,373,392,412,431,453,473,491,512,533,553,572,592,612,632,652,671,691,713,733,753,772,792,811,832,851,871,891,911,932,953,972,991,1012],"xSR":741.5,"ySR":573.95,"xT1":424.9,"yT1":0,"xT2":1058.1,"yT2":0,"toosoon":0,"cond_shown":"equaldotanddens","ratio_trial":750,"smaller_num":"6","larger_num":"8","correct_side":1,"subjID":"manuelafernandez26","gender":"1","age":"9","school":"4"},{"start_time":1552056653806,"click_time":1552056654909,"finger_time":1552056654488,"fix_duration":1156.3372547320355,"trial":38,"RT":682,"MT":421,"sideResp":1,"stimulus":"img/750/equaldotanddens/L/1_Ratio_750_L_20_R_15.png","xmouse":[819,819,819,819,819,819,819,819,819,819,819,819,819,819,819,818,816,815,812,810,810,810,810,810,810,810,810,810,810,807,803,798,789,777,757,752,746,738,732,717,697,682,666,649,624,612,605,601,598,589,583,574,561,543,494,473],"ymouse":[620,620,620,620,620,620,620,620,620,620,620,620,620,620,620,620,620,620,620,620,620,620,620,620,620,620,620,620,620,618,615,610,602,592,566,551,534,513,495,451,410,379,350,324,281,265,255,250,248,241,236,226,211,187,120,91],"timestamp_mouse":[12,31,43,62,82,103,124,144,163,182,204,223,244,263,284,302,323,343,363,382,403,424,443,464,483,504,523,542,563,583,603,622,643,663,682,703,724,743,763,782,802,823,842,862,883,904,922,942,962,983,1002,1023,1042,1062,1082,1103],"xSR":741.5,"ySR":573.95,"xT1":424.9,"yT1":0,"xT2":1058.1,"yT2":0,"toosoon":0,"cond_shown":"equaldotanddens","ratio_trial":750,"smaller_num":"15","larger_num":"20","correct_side":1,"subjID":"manuelafernandez26","gender":"1","age":"9","school":"4"},{"start_time":1552056657048,"click_time":1552056658209,"finger_time":1552056657829,"fix_duration":598.7158760376282,"trial":39,"RT":781,"MT":380,"sideResp":1,"stimulus":"img/900/randomdotsizeEA/R/3_Ratio_900_L_9_R_10.png","xmouse":[769,769,769,769,769,769,769,769,769,769,769,769,769,769,769,769,769,769,769,769,769,769,769,769,769,769,769,769,769,769,769,769,769,769,769,769,769,769,755,743,730,708,678,637,624,616,608,597,595,592,589,587,583,579,575,570,560,527,515],"ymouse":[638,638,638,638,638,638,638,638,638,638,638,638,638,638,638,638,638,638,638,638,638,638,638,638,638,638,638,638,638,638,638,638,638,636,635,630,620,617,585,565,540,502,447,360,318,286,248,209,197,187,178,172,162,156,151,144,133,100,89],"timestamp_mouse":[9,21,42,62,81,102,122,141,162,181,200,221,242,261,282,300,322,341,362,382,401,420,440,460,480,500,522,542,561,582,601,620,641,661,682,701,722,740,760,781,801,820,841,860,881,900,922,940,962,981,1001,1021,1041,1060,1080,1101,1121,1141,1161],"xSR":741.5,"ySR":573.95,"xT1":424.9,"yT1":0,"xT2":1058.1,"yT2":0,"toosoon":0,"cond_shown":"randomdotsizeEA","ratio_trial":900,"smaller_num":"9","larger_num":"10","correct_side":2,"subjID":"manuelafernandez26","gender":"1","age":"9","school":"4"},{"start_time":1552056659283,"click_time":1552056661009,"finger_time":1552056660009,"fix_duration":352.091006498516,"trial":40,"RT":726,"MT":1000,"sideResp":1,"stimulus":"img/250/equaldotanddens/L/2_Ratio_250_L_16_R_4.png","xmouse":[819,816,815,815,815,815,815,815,814,814,814,814,814,814,814,814,814,814,814,814,814,814,814,814,814,814,814,814,814,814,814,814,814,812,806,773,754,737,717,700,675,664,653,644,639,632,631,630,627,624,612,605,601,598,597,597,597,597,597,597,597,597,597,596,592,566,532,503,483,471,463,463,465,467,468,468,468,468,468,468,468,468,468,468,468,470,472],"ymouse":[647,642,641,640,640,640,640,639,639,639,639,639,639,639,639,639,639,639,639,639,639,639,639,639,639,639,639,639,639,639,639,639,636,633,622,575,552,532,509,488,448,429,413,401,394,386,385,383,379,373,357,347,343,339,338,338,338,338,338,338,338,338,337,329,310,259,212,181,153,136,116,112,107,103,103,102,102,102,102,102,102,102,102,102,102,100,94],"timestamp_mouse":[5,31,46,65,85,107,126,146,166,187,207,226,246,266,287,306,326,345,366,387,406,427,445,466,486,507,525,546,565,585,606,627,646,666,686,706,726,747,765,786,806,825,846,865,886,905,926,946,966,985,1005,1026,1047,1066,1086,1106,1126,1147,1166,1186,1206,1227,1246,1265,1285,1305,1325,1346,1366,1386,1405,1425,1446,1466,1486,1506,1526,1547,1566,1587,1606,1625,1647,1666,1687,1706,1726],"xSR":741.5,"ySR":573.95,"xT1":424.9,"yT1":0,"xT2":1058.1,"yT2":0,"toosoon":0,"cond_shown":"equaldotanddens","ratio_trial":250,"smaller_num":"4","larger_num":"16","correct_side":1,"subjID":"manuelafernandez26","gender":"1","age":"9","school":"4"},{"start_time":1552056663003,"click_time":1552056664089,"finger_time":1552056663569,"fix_duration":1012.4144490850829,"trial":41,"RT":566,"MT":520,"sideResp":2,"stimulus":"img/250/equaldotanddens/R/6_Ratio_250_L_6_R_24.png","xmouse":[797,797,797,797,797,797,797,797,797,797,797,797,797,797,797,797,797,797,797,797,797,797,797,797,797,797,798,808,853,962,975,985,996,1014,1047,1056,1062,1068,1074,1082,1094,1102,1108,1116,1127,1134,1138,1140,1140,1140,1137,1135,1134,1134,1130],"ymouse":[633,633,633,633,633,633,633,633,633,633,633,633,633,633,633,633,633,633,633,633,633,633,633,633,633,633,633,633,621,572,555,531,506,463,402,385,367,353,340,328,307,292,279,262,222,200,178,161,145,127,112,108,104,102,93],"timestamp_mouse":[11,30,47,67,85,107,127,146,166,187,207,225,246,266,286,305,326,347,367,386,407,426,446,466,485,507,525,545,566,586,605,626,647,666,686,706,726,747,767,785,806,826,846,865,885,907,926,946,967,985,1005,1025,1046,1066,1085],"xSR":741.5,"ySR":573.95,"xT1":424.9,"yT1":0,"xT2":1058.1,"yT2":0,"toosoon":0,"cond_shown":"equaldotanddens","ratio_trial":250,"smaller_num":"6","larger_num":"24","correct_side":2,"subjID":"manuelafernandez26","gender":"1","age":"9","school":"4"},{"start_time":1552056666396,"click_time":1552056667929,"finger_time":1552056667168,"fix_duration":1204.2219694860366,"trial":42,"RT":772,"MT":761,"sideResp":1,"stimulus":"img/750/equaldotanddens/L/14_Ratio_750_L_8_R_6.png","xmouse":[796,796,796,796,796,796,796,796,796,796,796,796,796,796,796,796,798,798,798,799,799,799,799,799,799,799,799,799,799,799,799,799,799,799,799,800,800,800,791,767,749,734,721,707,695,670,658,647,636,628,618,617,616,616,616,616,616,613,606,570,561,554,550,547,543,542,541,540,540,540,540,540,539,537,531,528,523],"ymouse":[633,633,633,633,633,633,633,633,633,633,633,633,633,633,633,633,633,633,633,633,633,633,633,633,633,633,633,633,633,633,633,633,633,633,633,625,616,600,571,526,501,479,458,439,418,381,360,335,312,292,275,273,272,271,263,252,236,213,184,120,112,105,105,104,104,104,105,105,105,105,105,105,105,104,101,98,93],"timestamp_mouse":[12,35,54,74,92,114,133,154,173,193,213,234,253,273,293,313,333,353,373,392,413,432,452,472,494,512,534,554,574,593,614,632,654,674,692,712,732,752,772,792,812,833,854,872,893,913,933,952,974,993,1013,1032,1053,1072,1092,1112,1133,1153,1172,1192,1212,1233,1252,1272,1293,1313,1332,1352,1374,1394,1413,1433,1452,1472,1493,1514,1533],"xSR":741.5,"ySR":573.95,"xT1":424.9,"yT1":0,"xT2":1058.1,"yT2":0,"toosoon":0,"cond_shown":"equaldotanddens","ratio_trial":750,"smaller_num":"6","larger_num":"8","correct_side":1,"subjID":"manuelafernandez26","gender":"1","age":"9","school":"4"},{"start_time":1552056670502,"click_time":1552056671649,"finger_time":1552056671309,"fix_duration":1171.870109649822,"trial":43,"RT":807,"MT":340,"sideResp":1,"stimulus":"img/900/equaldotanddens/L/10_Ratio_900_L_20_R_18.png","xmouse":[776,776,776,776,776,776,776,776,776,776,776,776,776,776,776,776,776,776,776,776,776,776,776,776,776,776,776,776,776,776,776,776,776,776,776,776,776,776,776,769,756,734,707,674,616,602,591,585,583,583,583,583,582,578,556,542,528,512],"ymouse":[626,626,626,626,626,626,626,626,626,626,626,626,626,626,626,626,626,626,626,626,626,626,626,626,626,626,626,626,626,626,626,626,626,626,626,626,626,622,616,583,551,500,430,355,196,166,148,138,136,133,131,128,125,119,98,90,82,75],"timestamp_mouse":[12,31,47,68,88,108,127,147,166,188,207,228,246,266,287,306,328,348,367,387,407,428,447,466,488,508,527,548,567,587,606,626,647,668,687,707,727,747,766,787,807,827,846,866,886,906,927,948,967,986,1006,1028,1046,1066,1086,1108,1126,1147],"xSR":741.5,"ySR":573.95,"xT1":424.9,"yT1":0,"xT2":1058.1,"yT2":0,"toosoon":0,"cond_shown":"equaldotanddens","ratio_trial":900,"smaller_num":"18","larger_num":"20","correct_side":1,"subjID":"manuelafernandez26","gender":"1","age":"9","school":"4"},{"start_time":1552056673839,"click_time":1552056674810,"finger_time":1552056674488,"fix_duration":1308.4988294894088,"trial":44,"RT":649,"MT":322,"sideResp":1,"stimulus":"img/750/randomdotsizeEA/L/8_Ratio_750_L_4_R_3.png","xmouse":[825,825,825,825,825,825,825,825,825,825,825,825,825,825,825,825,825,825,825,825,825,825,825,825,825,825,825,825,824,823,815,804,767,743,716