[{"start_time":1552313788751,"click_time":1552313791059,"finger_time":1552313789119,"fix_duration":507.9948407024468,"trial":0,"RT":368,"MT":1940,"sideResp":2,"stimulus":"img/500/equaldotsize/R/3_Ratio_500_L_10_R_20.png","xmouse":[784,784,784,784,784,784,784,787,788,788,790,793,804,813,813,813,813,814,822,824,824,824,824,825,827,830,830,830,833,834,834,834,835,835,835,835,835,836,836,836,836,837,837,837,837,837,837,838,838,838,838,838,838,838,838,838,838,838,838,838,838,839,839,839,839,839,839,839,839,839,839,839,839,839,839,839,839,839,839,839,840,840,840,840,840,840,840,840,840,840,840,840,840,840,840,840,840,840,840,840,850,877,912,955,960,971,986,994,995,994,1017,1034,1048,1053,1056,1064],"ymouse":[538,538,538,538,538,538,538,538,538,538,538,538,551,564,564,564,564,566,573,575,575,575,575,576,578,579,579,579,581,582,582,582,582,582,582,582,582,583,583,583,583,584,584,584,584,584,584,584,584,584,584,584,584,584,584,584,584,584,584,584,585,585,585,585,585,585,585,585,585,585,585,585,585,585,585,585,585,585,585,585,586,586,586,586,586,586,586,586,586,586,586,586,586,586,586,586,586,586,586,586,582,553,508,461,455,442,425,406,387,338,289,246,207,173,110,73],"timestamp_mouse":[9,37,47,69,89,107,128,148,168,187,209,228,247,268,289,309,327,347,368,388,408,429,448,468,487,509,529,548,568,588,609,628,649,669,689,708,727,747,768,788,808,827,847,869,888,909,929,948,968,988,1007,1028,1047,1069,1087,1107,1127,1149,1169,1189,1208,1228,1247,1267,1288,1307,1328,1348,1369,1388,1408,1428,1448,1468,1488,1508,1529,1549,1568,1588,1607,1627,1647,1668,1688,1708,1728,1748,1769,1787,1807,1828,1848,1867,1888,1908,1929,1948,1967,1988,2007,2028,2049,2069,2087,2108,2128,2149,2168,2187,2208,2228,2248,2269,2288,2307],"xSR":741.5,"ySR":469.95,"xT1":424.9,"yT1":0,"xT2":1058.1,"yT2":0,"toosoon":0,"cond_shown":"equaldotsize","ratio_trial":500,"smaller_num":"10","larger_num":"20","correct_side":2,"subjID":"mariaalejandraoledo22","gender":"1","age":"9","school":"4","test":{"fix_dur":[250,1500],"timestim":300,"targets_dim":[100,100],"targets_relative_coord":[0.3,0.7],"size_stim":[880,420],"start_dim":[100,100],"size_start":[300,300],"size_fix":60,"samplingrate":20,"img_types":["equaldotsize","equaldotanddens","randomdotsizeEA"],"ratios":[250,500,750,900],"rep_conds":9,"nTrials":120,"trials_to_rest":500,"Trials_order":[75,0,39,37,118,42,20,103,88,77,86,34,12,59,28,101,15,13,33,49,56,73,102,109,30,46,79,105,45,52,32,18,35,69,5,72,41,21,97,68,83,89,70,81,76,23,94,47,113,87,58,40,25,7,29,90,119,85,111,96,51,116,48,112,19,2,64,9,24,71,108,6,50,80,43,44,60,91,114,31,11,62,84,61,104,10,55,100,65,17,1,92,22,4,54,63,93,8,95,98,82,106,67,14,53,107,3,74,16,26,57,115,117,38,36,27,99,110,78,66],"cond_shown":["equaldotsize","equaldotsize","equaldotsize","equaldotanddens","equaldotanddens","equaldotsize","randomdotsizeEA","equaldotanddens","equaldotanddens","randomdotsizeEA","randomdotsizeEA","equaldotanddens","equaldotsize","randomdotsizeEA","equaldotanddens","randomdotsizeEA","equaldotsize","equaldotanddens","equaldotsize","equaldotanddens","randomdotsizeEA","equaldotanddens","equaldotsize","equaldotanddens","equaldotsize","equaldotanddens","equaldotanddens","equaldotsize","equaldotsize","equaldotanddens","randomdotsizeEA","equaldotsize","randomdotsizeEA","equaldotsize","randomdotsizeEA","equaldotsize","randomdotsizeEA","equaldotsize","equaldotanddens","randomdotsizeEA","randomdotsizeEA","randomdotsizeEA","equaldotanddens","equaldotsize","equaldotanddens","randomdotsizeEA","equaldotanddens","randomdotsizeEA","randomdotsizeEA","equaldotsize","equaldotanddens","equaldotanddens","equaldotanddens","equaldotanddens","randomdotsizeEA","equaldotsize","randomdotsizeEA","equaldotanddens","equaldotsize","equaldotsize","equaldotsize","randomdotsizeEA","equaldotsize","equaldotanddens","equaldotanddens","randomdotsizeEA","equaldotanddens","equaldotsize","equaldotsize","randomdotsizeEA","equaldotsize","equaldotsize","randomdotsizeEA","randomdotsizeEA","equaldotanddens","randomdotsizeEA","equaldotsize","equaldotanddens","equaldotsize","equaldotanddens","randomdotsizeEA","randomdotsizeEA","equaldotsize","equaldotanddens","randomdotsizeEA","equaldotanddens","equaldotanddens","equaldotanddens","randomdotsizeEA","randomdotsizeEA","equaldotanddens","randomdotsizeEA","equaldotanddens","equaldotanddens","equaldotsize","equaldotsize","equaldotsize","randomdotsizeEA","randomdotsizeEA","randomdotsizeEA","equaldotanddens","equaldotanddens","equaldotanddens","randomdotsizeEA","randomdotsizeEA","randomdotsizeEA","equaldotsize","randomdotsizeEA","equaldotanddens","randomdotsizeEA","equaldotsize","equaldotanddens","equaldotsize","randomdotsizeEA","equaldotsize","equaldotsize","equaldotsize","randomdotsizeEA","equaldotsize","equaldotsize"],"ratio_trial":[500,250,500,250,900,750,750,750,500,500,250,900,250,900,500,500,500,250,900,250,750,250,750,250,750,900,750,900,900,500,750,750,900,900,500,250,500,900,250,750,900,500,900,900,500,900,900,900,500,500,900,500,250,750,500,750,900,250,500,250,500,750,250,500,750,250,500,900,250,900,250,750,250,750,750,750,250,750,750,750,900,250,250,250,750,900,750,500,500,500,250,750,900,500,750,500,900,750,900,250,900,900,750,250,500,900,500,250,500,250,900,750,900,250,250,500,500,250,750,750],"smaller_num":["10","3","2","3","18","15","18","15","5","6","3","9","1","9","1","4","9","2","9","2","18","3","15","3","15","18","15","18","18","2","6","6","18","18","4","2","2","18","3","3","18","4","9","9","6","9","18","18","9","2","9","6","3","6","1","6","18","3","4","3","6","15","1","6","12","4","6","9","2","18","2","6","4","9","15","6","3","18","6","15","18","6","3","3","6","18","9","9","4","10","5","18","18","2","6","1","18","9","18","6","18","9","15","3","2","9","1","3","9","4","9","3","9","2","2","2","9","6","3","15"],"larger_num":["20","12","4","12","20","20","24","20","10","12","12","10","4","10","2","8","18","8","10","8","24","12","20","12","20","20","20","20","20","4","8","8","20","20","8","8","4","20","12","4","20","8","10","10","12","10","20","20","18","4","10","12","12","8","2","8","20","12","8","12","12","20","4","12","16","16","12","10","8","20","8","8","16","12","20","8","12","24","8","20","20","24","12","12","8","20","12","18","8","20","20","24","20","4","8","2","20","12","20","24","20","10","20","12","4","10","2","12","18","16","10","4","10","8","8","4","18","24","4","20"],"correct_side":[2,2,2,1,1,2,1,2,2,1,1,2,2,1,2,1,1,1,2,1,1,2,1,2,1,1,2,1,1,1,1,1,2,2,1,1,2,1,1,2,1,1,2,2,1,1,2,1,2,2,2,1,2,1,2,1,2,2,1,1,1,1,2,1,2,2,1,2,1,1,1,1,2,2,2,1,1,1,1,2,1,1,1,1,1,1,2,2,1,2,2,1,1,1,2,2,1,2,2,2,1,2,2,2,2,2,2,1,2,2,1,2,2,1,1,1,1,2,1,1],"img_shown":["img/500/equaldotsize/R/3_Ratio_500_L_10_R_20.png","img/250/equaldotsize/R/11_Ratio_250_L_3_R_12.png","img/500/equaldotsize/R/9_Ratio_500_L_2_R_4.png","img/250/equaldotanddens/L/15_Ratio_250_L_12_R_3.png","img/900/equaldotanddens/L/2_Ratio_900_L_20_R_18.png","img/750/equaldotsize/R/3_Ratio_750_L_15_R_20.png","img/750/randomdotsizeEA/L/6_Ratio_750_L_24_R_18.png","img/750/equaldotanddens/R/3_Ratio_750_L_15_R_20.png","img/500/equaldotanddens/R/14_Ratio_500_L_5_R_10.png","img/500/randomdotsizeEA/L/13_Ratio_500_L_12_R_6.png","img/250/randomdotsizeEA/L/15_Ratio_250_L_12_R_3.png","img/900/equaldotanddens/R/15_Ratio_900_L_9_R_10.png","img/250/equaldotsize/R/8_Ratio_250_L_1_R_4.png","img/900/randomdotsizeEA/L/1_Ratio_900_L_10_R_9.png","img/500/equaldotanddens/R/15_Ratio_500_L_1_R_2.png","img/500/randomdotsizeEA/L/8_Ratio_500_L_8_R_4.png","img/500/equaldotsize/L/4_Ratio_500_L_18_R_9.png","img/250/equaldotanddens/L/7_Ratio_250_L_8_R_2.png","img/900/equaldotsize/R/7_Ratio_900_L_9_R_10.png","img/250/equaldotanddens/L/7_Ratio_250_L_8_R_2.png","img/750/randomdotsizeEA/L/6_Ratio_750_L_24_R_18.png","img/250/equaldotanddens/R/9_Ratio_250_L_3_R_12.png","img/750/equaldotsize/L/1_Ratio_750_L_20_R_15.png","img/250/equaldotanddens/R/11_Ratio_250_L_3_R_12.png","img/750/equaldotsize/L/1_Ratio_750_L_20_R_15.png","img/900/equaldotanddens/L/4_Ratio_900_L_20_R_18.png","img/750/equaldotanddens/R/4_Ratio_750_L_15_R_20.png","img/900/equaldotsize/L/8_Ratio_900_L_20_R_18.png","img/900/equaldotsize/L/8_Ratio_900_L_20_R_18.png","img/500/equaldotanddens/L/10_Ratio_500_L_4_R_2.png","img/750/randomdotsizeEA/L/14_Ratio_750_L_8_R_6.png","img/750/equaldotsize/L/14_Ratio_750_L_8_R_6.png","img/900/randomdotsizeEA/R/11_Ratio_900_L_18_R_20.png","img/900/equaldotsize/R/14_Ratio_900_L_18_R_20.png","img/500/randomdotsizeEA/L/8_Ratio_500_L_8_R_4.png","img/250/equaldotsize/L/3_Ratio_250_L_8_R_2.png","img/500/randomdotsizeEA/R/9_Ratio_500_L_2_R_4.png","img/900/equaldotsize/L/4_Ratio_900_L_20_R_18.png","img/250/equaldotanddens/L/15_Ratio_250_L_12_R_3.png","img/750/randomdotsizeEA/R/7_Ratio_750_L_3_R_4.png","img/900/randomdotsizeEA/L/8_Ratio_900_L_20_R_18.png","img/500/randomdotsizeEA/L/8_Ratio_500_L_8_R_4.png","img/900/equaldotanddens/R/3_Ratio_900_L_9_R_10.png","img/900/equaldotsize/R/15_Ratio_900_L_9_R_10.png","img/500/equaldotanddens/L/11_Ratio_500_L_12_R_6.png","img/900/randomdotsizeEA/L/1_Ratio_900_L_10_R_9.png","img/900/equaldotanddens/R/12_Ratio_900_L_18_R_20.png","img/900/randomdotsizeEA/L/2_Ratio_900_L_20_R_18.png","img/500/randomdotsizeEA/R/6_Ratio_500_L_9_R_18.png","img/500/equaldotsize/R/9_Ratio_500_L_2_R_4.png","img/900/equaldotanddens/R/3_Ratio_900_L_9_R_10.png","img/500/equaldotanddens/L/13_Ratio_500_L_12_R_6.png","img/250/equaldotanddens/R/4_Ratio_250_L_3_R_12.png","img/750/equaldotanddens/L/14_Ratio_750_L_8_R_6.png","img/500/randomdotsizeEA/R/12_Ratio_500_L_1_R_2.png","img/750/equaldotsize/L/14_Ratio_750_L_8_R_6.png","img/900/randomdotsizeEA/R/12_Ratio_900_L_18_R_20.png","img/250/equaldotanddens/R/4_Ratio_250_L_3_R_12.png","img/500/equaldotsize/L/8_Ratio_500_L_8_R_4.png","img/250/equaldotsize/L/14_Ratio_250_L_12_R_3.png","img/500/equaldotsize/L/11_Ratio_500_L_12_R_6.png","img/750/randomdotsizeEA/L/1_Ratio_750_L_20_R_15.png","img/250/equaldotsize/R/8_Ratio_250_L_1_R_4.png","img/500/equaldotanddens/L/11_Ratio_500_L_12_R_6.png","img/750/equaldotanddens/R/11_Ratio_750_L_12_R_16.png","img/250/randomdotsizeEA/R/10_Ratio_250_L_4_R_16.png","img/500/equaldotanddens/L/11_Ratio_500_L_12_R_6.png","img/900/equaldotsize/R/7_Ratio_900_L_9_R_10.png","img/250/equaldotsize/L/1_Ratio_250_L_8_R_2.png","img/900/randomdotsizeEA/L/4_Ratio_900_L_20_R_18.png","img/250/equaldotsize/L/1_Ratio_250_L_8_R_2.png","img/750/equaldotsize/L/13_Ratio_750_L_8_R_6.png","img/250/randomdotsizeEA/R/10_Ratio_250_L_4_R_16.png","img/750/randomdotsizeEA/R/15_Ratio_750_L_9_R_12.png","img/750/equaldotanddens/R/3_Ratio_750_L_15_R_20.png","img/750/randomdotsizeEA/L/14_Ratio_750_L_8_R_6.png","img/250/equaldotsize/L/14_Ratio_250_L_12_R_3.png","img/750/equaldotanddens/L/6_Ratio_750_L_24_R_18.png","img/750/equaldotsize/L/14_Ratio_750_L_8_R_6.png","img/750/equaldotanddens/R/4_Ratio_750_L_15_R_20.png","img/900/randomdotsizeEA/L/10_Ratio_900_L_20_R_18.png","img/250/randomdotsizeEA/L/5_Ratio_250_L_24_R_6.png","img/250/equaldotsize/L/14_Ratio_250_L_12_R_3.png","img/250/equaldotanddens/L/14_Ratio_250_L_12_R_3.png","img/750/randomdotsizeEA/L/14_Ratio_750_L_8_R_6.png","img/900/equaldotanddens/L/8_Ratio_900_L_20_R_18.png","img/750/equaldotanddens/R/15_Ratio_750_L_9_R_12.png","img/500/equaldotanddens/R/6_Ratio_500_L_9_R_18.png","img/500/randomdotsizeEA/L/8_Ratio_500_L_8_R_4.png","img/500/randomdotsizeEA/R/3_Ratio_500_L_10_R_20.png","img/250/equaldotanddens/R/12_Ratio_250_L_5_R_20.png","img/750/randomdotsizeEA/L/6_Ratio_750_L_24_R_18.png","img/900/equaldotanddens/L/10_Ratio_900_L_20_R_18.png","img/500/equaldotanddens/L/5_Ratio_500_L_4_R_2.png","img/750/equaldotsize/R/2_Ratio_750_L_6_R_8.png","img/500/equaldotsize/R/15_Ratio_500_L_1_R_2.png","img/900/equaldotsize/L/10_Ratio_900_L_20_R_18.png","img/750/randomdotsizeEA/R/15_Ratio_750_L_9_R_12.png","img/900/randomdotsizeEA/R/13_Ratio_900_L_18_R_20.png","img/250/randomdotsizeEA/R/6_Ratio_250_L_6_R_24.png","img/900/equaldotanddens/L/8_Ratio_900_L_20_R_18.png","img/900/equaldotanddens/R/3_Ratio_900_L_9_R_10.png","img/750/equaldotanddens/R/5_Ratio_750_L_15_R_20.png","img/250/randomdotsizeEA/R/4_Ratio_250_L_3_R_12.png","img/500/randomdotsizeEA/R/9_Ratio_500_L_2_R_4.png","img/900/randomdotsizeEA/R/5_Ratio_900_L_9_R_10.png","img/500/equaldotsize/R/12_Ratio_500_L_1_R_2.png","img/250/randomdotsizeEA/L/15_Ratio_250_L_12_R_3.png","img/500/equaldotanddens/R/6_Ratio_500_L_9_R_18.png","img/250/randomdotsizeEA/R/10_Ratio_250_L_4_R_16.png","img/900/equaldotsize/L/1_Ratio_900_L_10_R_9.png","img/750/equaldotanddens/R/7_Ratio_750_L_3_R_4.png","img/900/equaldotsize/R/7_Ratio_900_L_9_R_10.png","img/250/randomdotsizeEA/L/7_Ratio_250_L_8_R_2.png","img/250/equaldotsize/L/7_Ratio_250_L_8_R_2.png","img/500/equaldotsize/L/10_Ratio_500_L_4_R_2.png","img/500/equaldotsize/L/4_Ratio_500_L_18_R_9.png","img/250/randomdotsizeEA/R/6_Ratio_250_L_6_R_24.png","img/750/equaldotsize/L/8_Ratio_750_L_4_R_3.png","img/750/equaldotsize/L/1_Ratio_750_L_20_R_15.png"],"Rat0":[["12_Ratio_0_L_9_R_0.png","13_Ratio_0_L_6_R_0.png","5_Ratio_0_L_2_R_0.png","6_Ratio_0_L_4_R_0.png","8_Ratio_0_L_6_R_0.png"],["1_Ratio_0_L_0_R_17.png","10_Ratio_0_L_0_R_22.png","11_Ratio_0_L_0_R_1.png","14_Ratio_0_L_0_R_24.png","15_Ratio_0_L_0_R_4.png","2_Ratio_0_L_0_R_5.png","3_Ratio_0_L_0_R_17.png","4_Ratio_0_L_0_R_7.png","7_Ratio_0_L_0_R_19.png","9_Ratio_0_L_0_R_15.png"]],"Rat250":[["1_Ratio_250_L_8_R_2.png","14_Ratio_250_L_12_R_3.png","15_Ratio_250_L_12_R_3.png","2_Ratio_250_L_16_R_4.png","3_Ratio_250_L_8_R_2.png","5_Ratio_250_L_24_R_6.png","7_Ratio_250_L_8_R_2.png"],["10_Ratio_250_L_4_R_16.png","11_Ratio_250_L_3_R_12.png","12_Ratio_250_L_5_R_20.png","13_Ratio_250_L_2_R_8.png","4_Ratio_250_L_3_R_12.png","6_Ratio_250_L_6_R_24.png","8_Ratio_250_L_1_R_4.png","9_Ratio_250_L_3_R_12.png"]],"Rat500":[["10_Ratio_500_L_4_R_2.png","11_Ratio_500_L_12_R_6.png","13_Ratio_500_L_12_R_6.png","4_Ratio_500_L_18_R_9.png","5_Ratio_500_L_4_R_2.png","7_Ratio_500_L_10_R_5.png","8_Ratio_500_L_8_R_4.png"],["1_Ratio_500_L_9_R_18.png","12_Ratio_500_L_1_R_2.png","14_Ratio_500_L_5_R_10.png","15_Ratio_500_L_1_R_2.png","2_Ratio_500_L_3_R_6.png","3_Ratio_500_L_10_R_20.png","6_Ratio_500_L_9_R_18.png","9_Ratio_500_L_2_R_4.png"]],"Rat750":[["1_Ratio_750_L_20_R_15.png","10_Ratio_750_L_4_R_3.png","13_Ratio_750_L_8_R_6.png","14_Ratio_750_L_8_R_6.png","6_Ratio_750_L_24_R_18.png","8_Ratio_750_L_4_R_3.png","9_Ratio_750_L_4_R_3.png"],["11_Ratio_750_L_12_R_16.png","12_Ratio_750_L_3_R_4.png","15_Ratio_750_L_9_R_12.png","2_Ratio_750_L_6_R_8.png","3_Ratio_750_L_15_R_20.png","4_Ratio_750_L_15_R_20.png","5_Ratio_750_L_15_R_20.png","7_Ratio_750_L_3_R_4.png"]],"Rat900":[["1_Ratio_900_L_10_R_9.png","10_Ratio_900_L_20_R_18.png","2_Ratio_900_L_20_R_18.png","4_Ratio_900_L_20_R_18.png","8_Ratio_900_L_20_R_18.png"],["11_Ratio_900_L_18_R_20.png","12_Ratio_900_L_18_R_20.png","13_Ratio_900_L_18_R_20.png","14_Ratio_900_L_18_R_20.png","15_Ratio_900_L_9_R_10.png","3_Ratio_900_L_9_R_10.png","5_Ratio_900_L_9_R_10.png","6_Ratio_900_L_9_R_10.png","7_Ratio_900_L_9_R_10.png","9_Ratio_900_L_18_R_20.png"]],"Rat1000":[["10_Ratio_1000_L_16_R_16.png","11_Ratio_1000_L_6_R_6.png","12_Ratio_1000_L_14_R_14.png","13_Ratio_1000_L_20_R_20.png","15_Ratio_1000_L_15_R_15.png","2_Ratio_1000_L_17_R_17.png","4_Ratio_1000_L_9_R_9.png","5_Ratio_1000_L_6_R_6.png","6_Ratio_1000_L_19_R_19.png","8_Ratio_1000_L_14_R_14.png","9_Ratio_1000_L_25_R_25.png"],["1_Ratio_1000_L_1_R_1.png","14_Ratio_1000_L_17_R_17.png","3_Ratio_1000_L_17_R_17.png","7_Ratio_1000_L_6_R_6.png"]]}},{"start_time":1552313794606,"click_time":1552313795899,"finger_time":1552313795398,"fix_duration":804.58399106121,"trial":1,"RT":792,"MT":501,"sideResp":2,"stimulus":"img/250/equaldotsize/R/11_Ratio_250_L_3_R_12.png","xmouse":[782,780,780,780,780,780,779,779,779,779,779,779,779,779,779,779,779,779,779,779,779,779,779,779,779,779,779,779,779,779,779,779,779,779,779,778,778,781,791,803,824,850,861,870,886,897,922,932,940,944,950,964,971,983,989,994,1001,1004,1008,1015,1023,1042,1049,1058,1062],"ymouse":[543,541,541,540,540,540,539,539,539,539,539,539,539,539,539,539,539,539,539,539,539,539,539,539,539,539,539,539,539,539,539,539,539,539,539,538,530,516,493,463,429,388,369,350,330,321,309,307,305,303,298,282,269,247,233,219,193,181,167,152,137,107,98,87,83],"timestamp_mouse":[13,45,52,74,93,112,133,152,174,194,213,232,252,272,292,313,334,352,374,392,413,433,453,473,492,513,532,552,572,592,613,632,652,674,693,712,732,754,773,792,812,833,853,874,893,913,933,952,973,993,1013,1034,1052,1072,1094,1113,1133,1152,1174,1193,1213,1232,1252,1272,1292],"xSR":741.5,"ySR":469.95,"xT1":424.9,"yT1":0,"xT2":1058.1,"yT2":0,"toosoon":0,"cond_shown":"equaldotsize","ratio_trial":250,"smaller_num":"3","larger_num":"12","correct_side":2,"subjID":"mariaalejandraoledo22","gender":"1","age":"9","school":"4"},{"start_time":1552313799217,"click_time":1552313800638,"finger_time":1552313800018,"fix_duration":316.3497953599509,"trial":2,"RT":801,"MT":620,"sideResp":2,"stimulus":"img/500/equaldotsize/R/9_Ratio_500_L_2_R_4.png","xmouse":[782,782,782,782,782,782,782,782,782,783,784,784,784,784,784,784,784,784,784,784,784,784,784,784,784,784,784,784,784,784,784,784,784,784,784,784,787,796,809,823,841,857,895,914,938,960,982,1005,1009,1013,1015,1017,1021,1023,1024,1024,1024,1025,1027,1032,1039,1045,1052,1053,1055,1055,1057,1057,1057,1058,1058,1060],"ymouse":[541,539,539,539,539,539,539,539,539,537,535,535,535,535,535,535,535,535,535,535,535,535,535,535,535,535,535,535,535,535,535,535,535,535,535,535,531,520,505,487,466,443,380,344,308,275,238,182,159,140,124,107,92,88,86,85,85,85,85,85,85,85,85,85,85,84,79,79,79,78,78,78],"timestamp_mouse":[1,21,45,63,82,102,121,141,163,182,202,222,241,263,283,301,321,342,363,381,401,422,441,463,482,503,522,542,561,581,603,621,642,661,681,701,722,743,762,783,801,821,841,862,881,902,922,941,961,983,1002,1022,1042,1062,1081,1102,1122,1142,1162,1183,1201,1221,1241,1262,1282,1302,1323,1341,1362,1381,1402,1421],"xSR":741.5,"ySR":469.95,"xT1":424.9,"yT1":0,"xT2":1058.1,"yT2":0,"toosoon":0,"cond_shown":"equaldotsize","ratio_trial":500,"smaller_num":"2","larger_num":"4","correct_side":2,"subjID":"mariaalejandraoledo22","gender":"1","age":"9","school":"4"},{"start_time":1552313805279,"click_time":1552313806780,"finger_time":1552313806179,"fix_duration":1298.3767525312146,"trial":3,"RT":900,"MT":601,"sideResp":1,"stimulus":"img/250/equaldotanddens/L/15_Ratio_250_L_12_R_3.png","xmouse":[799,799,799,799,799,799,799,799,799,799,799,799,799,799,799,799,799,799,799,799,799,799,799,799,799,799,799,799,799,799,799,799,799,799,799,799,799,799,799,799,799,797,793,785,762,746,726,715,706,695,694,690,687,683,670,662,648,640,627,614,577,553,531,512,496,488,487,486,486,486,483,481,478,473,467,448],"ymouse":[552,552,552,552,552,552,552,552,552,552,552,552,552,552,552,552,552,552,552,552,552,552,552,552,552,552,552,552,552,552,552,552,552,552,552,552,552,552,552,552,551,545,534,523,486,465,437,419,404,379,372,366,358,350,331,320,305,295,283,276,264,257,247,239,231,223,217,211,205,197,175,162,146,129,112,84],"timestamp_mouse":[1,20,49,59,79,99,119,139,160,179,200,220,239,259,279,301,319,339,359,379,400,419,440,461,480,500,519,541,559,579,600,619,639,659,681,700,720,740,759,780,801,820,841,860,880,900,920,940,959,981,999,1020,1040,1061,1080,1100,1121,1139,1159,1181,1200,1221,1240,1261,1280,1300,1321,1339,1359,1379,1400,1419,1439,1459,1479,1501],"xSR":741.5,"ySR":469.95,"xT1":424.9,"yT1":0,"xT2":1058.1,"yT2":0,"toosoon":0,"cond_shown":"equaldotanddens","ratio_trial":250,"smaller_num":"3","larger_num":"12","correct_side":1,"subjID":"mariaalejandraoledo22","gender":"1","age":"9","school":"4"},{"start_time":1552313808361,"click_time":1552313809998,"finger_time":1552313808520,"fix_duration":400.8508418406287,"trial":4,"RT":159,"MT":1478,"sideResp":2,"stimulus":"img/900/equaldotanddens/L/2_Ratio_900_L_20_R_18.png","xmouse":[790,790,787,787,782,781,779,779,779,779,779,780,781,783,785,786,786,786,787,787,787,788,789,790,791,793,794,794,796,797,799,799,800,800,800,800,800,800,800,800,800,800,800,800,800,800,800,800,800,800,800,800,800,800,800,800,800,800,800,800,800,800,800,800,800,800,800,800,800,800,800,801,808,823,855,956,1010,1058,1099,1105,1110,1109],"ymouse":[524,528,535,542,562,567,569,570,570,570,566,561,558,554,551,550,550,550,549,549,549,547,546,544,543,542,541,540,539,538,536,536,535,535,534,534,534,534,534,534,534,534,534,534,534,534,534,534,534,534,534,534,534,534,534,534,534,534,534,534,534,534,534,534,534,534,534,534,534,534,534,534,525,507,470,357,297,241,174,157,101,87],"timestamp_mouse":[18,37,58,78,98,117,137,159,177,198,217,239,258,278,297,317,338,357,377,397,419,438,458,479,498,519,538,557,578,598,619,638,657,677,697,718,737,757,778,798,819,838,857,877,898,919,938,959,977,998,1019,1038,1058,1078,1099,1117,1139,1159,1178,1198,1218,1238,1259,1277,1298,1319,1338,1358,1377,1398,1419,1439,1458,1477,1499,1518,1538,1558,1578,1598,1617,1637],"xSR":741.5,"ySR":469.95,"xT1":424.9,"yT1":0,"xT2":1058.1,"yT2":0,"toosoon":0,"cond_shown":"equaldotanddens","ratio_trial":900,"smaller_num":"18","larger_num":"20","correct_side":1,"subjID":"mariaalejandraoledo22","gender":"1","age":"9","school":"4"},{"start_time":1552313811611,"click_time":1552313813119,"finger_time":1552313812499,"fix_duration":250,"trial":5,"RT":888,"MT":620,"sideResp":1,"stimulus":"img/750/equaldotsize/R/3_Ratio_750_L_15_R_20.png","xmouse":[799,799,799,799,799,799,799,799,799,799,799,799,799,799,799,799,799,799,799,799,799,799,799,799,799,799,799,799,799,799,799,799,799,799,799,799,799,799,799,799,799,799,799,787,780,769,751,739,729,712,702,689,676,646,634,623,607,595,568,558,549,548,547,545,542,537,530,529,529,529,529,528,527,521,518,517],"ymouse":[515,515,515,515,515,515,515,515,515,515,515,515,515,515,515,515,515,515,515,515,515,515,515,515,515,515,515,515,515,515,515,515,515,515,515,515,515,515,515,515,515,513,508,479,460,441,409,388,366,324,306,286,270,242,231,216,194,174,140,127,118,115,114,109,107,105,105,104,104,104,104,104,103,102,100,99],"timestamp_mouse":[13,36,48,67,87,109,128,147,168,188,209,227,249,268,287,308,329,348,368,388,407,429,448,467,488,508,527,549,568,587,608,627,649,668,689,708,729,747,768,788,808,828,848,869,888,907,927,949,968,988,1007,1028,1047,1068,1089,1108,1129,1148,1168,1188,1207,1227,1247,1268,1288,1309,1327,1348,1368,1388,1408,1427,1448,1468,1488,1508],"xSR":741.5,"ySR":469.95,"xT1":424.9,"yT1":0,"xT2":1058.1,"yT2":0,"toosoon":0,"cond_shown":"equaldotsize","ratio_trial":750,"smaller_num":"15","larger_num":"20","correct_side":2,"subjID":"mariaalejandraoledo22","gender":"1","age":"9","school":"4"},{"start_time":1552313816521,"click_time":1552313820399,"finger_time":1552313819098,"fix_duration":420.52314975987804,"trial":6,"RT":2577,"MT":1301,"sideResp":1,"stimulus":"img/750/randomdotsizeEA/L/6_Ratio_750_L_24_R_18.png","xmouse":[761,761,761,761,761,761,761,761,761,761,761,761,761,761,761,761,761,761,761,761,761,761,761,761,761,761,761,761,761,761,761,761,761,761,761,761,761,761,761,761,761,761,761,761,761,761,761,761,761,761,761,761,761,761,761,761,761,761,761,761,761,761,761,761,761,761,761,761,761,761,761,761,761,761,761,761,761,761,761,761,761,761,761,761,761,761,761,761,761,761,761,761,761,761,761,761,761,761,761,761,761,761,761,761,761,761,761,761,761,761,761,761,761,761,761,761,761,761,761,761,761,761,761,761,761,761,761,761,816,862,888,896,900,951,1003,1040,1054,1035,972,972,972,972,972,972,972,972,972,460,465,476,483,483,483,483,483,483,493,494,441,398,366,340,340,340,340,340,340,340,340,340,340,340,340,340,340,340,340,340,340,340,340,340,340,340,340,340,340,340,340,340,340,340,429,459],"ymouse":[527,527,527,527,527,527,527,527,527,527,527,527,527,527,527,527,527,527,527,527,527,527,527,527,527,527,527,527,527,527,527,527,527,527,527,527,527,527,527,527,527,527,527,527,527,527,527,527,527,527,527,527,527,527,527,527,527,527,527,527,527,527,527,527,527,527,527,527,527,527,527,527,527,527,527,527,527,527,527,527,527,527,527,527,527,527,527,527,527,527,527,527,527,527,527,527,527,527,527,527,527,527,527,527,527,527,527,527,527,527,527,527,527,527,527,527,527,527,527,527,527,527,527,527,527,527,527,525,446,363,287,259,257,315,375,417,454,553,665,665,665,665,665,665,665,665,665,711,706,712,720,720,720,720,720,720,722,694,341,216,113,13,13,13,13,13,13,13,13,13,13,13,13,13,13,13,13,13,13,13,13,13,13,13,13,13,13,13,13,13,13,13,0,10],"timestamp_mouse":[17,47,59,77,97,118,137,158,178,199,218,238,259,279,298,318,337,358,379,397,418,438,457,477,497,517,537,558,578,599,618,637,657,678,698,719,738,757,777,799,818,838,859,879,898,918,938,958,977,999,1018,1037,1057,1077,1097,1118,1139,1157,1178,1198,1219,1238,1259,1279,1298,1318,1338,1357,1378,1397,1417,1437,1459,1479,1498,1518,1538,1559,1577,1597,1618,1637,1657,1679,1698,1717,1737,1759,1778,1797,1818,1837,1858,1879,1897,1918,1938,1958,1979,1997,2018,2037,2059,2078,2099,2117,2137,2157,2179,2197,2219,2239,2258,2278,2298,2318,2337,2358,2377,2398,2418,2438,2458,2479,2497,2518,2538,2558,2577,2598,2618,2638,2659,2677,2697,2717,2737,2758,2778,2797,2817,2838,2859,2879,2897,2917,2938,2958,2977,2998,3018,3038,3058,3077,3098,3118,3138,3158,3177,3199,3219,3238,3257,3277,3299,3319,3338,3359,3377,3398,3418,3437,3457,3477,3497,3517,3537,3558,3577,3598,3618,3637,3657,3678,3698,3717,3738,3757,3777,3798,3817,3838,3858,3877],"xSR":741.5,"ySR":469.95,"xT1":424.9,"yT1":0,"xT2":1058.1,"yT2":0,"toosoon":0,"cond_shown":"randomdotsizeEA","ratio_trial":750,"smaller_num":"18","larger_num":"24","correct_side":1,"subjID":"mariaalejandraoledo22","gender":"1","age":"9","school":"4"},{"start_time":1552313824478,"click_time":1552313825798,"finger_time":1552313825359,"fix_duration":718.2632608176092,"trial":7,"RT":881,"MT":439,"sideResp":2,"stimulus":"img/750/equaldotanddens/R/3_Ratio_750_L_15_R_20.png","xmouse":[808,808,808,808,808,807,807,807,806,806,805,803,802,801,799,798,798,798,798,798,798,798,798,798,798,798,798,798,798,798,798,798,798,798,798,798,798,798,798,798,800,804,806,810,814,823,832,850,868,876,882,891,896,903,916,931,949,988,998,1004,1007,1013,1021,1032,1045,1058,1073],"ymouse":[538,538,538,538,538,538,538,538,538,538,538,538,538,538,538,538,538,538,538,538,538,538,538,538,538,538,538,538,538,538,538,538,538,538,538,538,538,538,538,531,524,502,491,477,463,447,430,398,378,368,359,346,336,325,307,289,265,209,193,179,169,144,130,112,93,76,58],"timestamp_mouse":[11,20,40,61,81,101,120,140,161,180,201,221,240,261,281,301,320,341,360,381,402,420,440,460,481,501,520,540,562,580,600,620,640,661,682,700,720,742,760,781,800,822,842,861,881,900,923,940,961,982,1000,1022,1041,1060,1081,1102,1121,1140,1162,1181,1201,1222,1240,1262,1282,1300,1320],"xSR":741.5,"ySR":469.95,"xT1":424.9,"yT1":0,"xT2":1058.1,"yT2":0,"toosoon":0,"cond_shown":"equaldotanddens","ratio_trial":750,"smaller_num":"15","larger_num":"20","correct_side":2,"subjID":"mariaalejandraoledo22","gender":"1","age":"9","school":"4"},{"start_time":1552313827997,"click_time":1552313829238,"finger_time":1552313828839,"fix_duration":897.6775253415398,"trial":8,"RT":842,"MT":399,"sideResp":2,"stimulus":"img/500/equaldotanddens/R/14_Ratio_500_L_5_R_10.png","xmouse":[820,820,820,820,820,820,820,820,820,820,820,820,820,820,820,820,820,820,820,820,821,821,822,824,824,825,825,825,825,825,825,825,825,825,825,825,825,825,825,825,825,829,836,849,864,883,925,941,951,964,989,1006,1019,1020,1020,1020,1020,1021,1024,1026,1038,1057,1065],"ymouse":[503,503,503,503,503,503,503,503,503,503,503,503,502,500,500,498,497,497,497,497,495,492,489,485,482,479,478,478,478,478,478,478,478,478,478,478,478,478,478,478,478,473,464,448,428,400,332,292,247,191,126,99,75,74,74,74,74,74,74,74,74,83,86],"timestamp_mouse":[10,23,53,62,81,102,122,143,162,181,201,222,242,261,282,301,321,343,362,381,401,421,441,462,483,501,521,541,562,581,603,623,642,661,682,701,721,741,762,783,803,821,842,862,883,901,922,941,961,983,1003,1021,1043,1062,1082,1102,1122,1141,1162,1182,1202,1221,1241],"xSR":741.5,"ySR":469.95,"xT1":424.9,"yT1":0,"xT2":1058.1,"yT2":0,"toosoon":0,"cond_shown":"equaldotanddens","ratio_trial":500,"smaller_num":"5","larger_num":"10","correct_side":2,"subjID":"mariaalejandraoledo22","gender":"1","age":"9","school":"4"},{"start_time":1552313831193,"click_time":1552313832800,"finger_time":1552313832060,"fix_duration":872.1300005893933,"trial":9,"RT":867,"MT":740,"sideResp":1,"stimulus":"img/500/randomdotsizeEA/L/13_Ratio_500_L_12_R_6.png","xmouse":[819,819,819,819,819,819,819,819,819,819,819,819,819,819,819,819,819,819,819,819,819,819,819,819,819,819,819,819,819,819,819,819,819,819,819,819,819,819,819,819,819,810,798,789,776,765,737,723,706,700,693,678,626,579,536,490,402,378,354,345,337,330,323,322,322,322,329,339,349,363,386,452,497,531,550,555,555,548,538,524,508],"ymouse":[511,511,511,511,511,511,511,511,511,511,511,511,511,511,511,511,511,511,511,511,511,511,511,511,511,511,511,511,511,511,511,511,511,511,511,511,511,511,511,511,510,489,472,456,443,432,415,406,396,393,388,382,365,358,346,334,302,288,271,261,251,237,216,207,199,194,186,181,178,176,172,163,156,151,145,143,142,126,115,107,97],"timestamp_mouse":[12,39,46,66,85,107,126,146,165,185,205,226,246,266,286,305,326,345,367,386,405,425,446,467,485,506,526,546,567,586,606,626,646,666,687,705,726,746,765,787,807,826,846,867,885,905,927,945,966,986,1005,1026,1045,1065,1086,1106,1126,1145,1166,1187,1207,1226,1246,1267,1285,1305,1327,1345,1366,1386,1406,1427,1445,1466,1487,1505,1525,1545,1566,1586,1607],"xSR":741.5,"ySR":469.95,"xT1":424.9,"yT1":0,"xT2":1058.1,"yT2":0,"toosoon":0,"cond_shown":"randomdotsizeEA","ratio_trial":500,"smaller_num":"6","larger_num":"12","correct_side":1,"subjID":"mariaalejandraoledo22","gender":"1","age":"9","school":"4"},{"start_time":1552313835480,"click_time":1552313836480,"finger_time":1552313836359,"fix_duration":839.0084822831348,"trial":10,"RT":879,"MT":121,"sideResp":1,"stimulus":"img/250/randomdotsizeEA/L/15_Ratio_250_L_12_R_3.png","xmouse":[804,804,804,804,804,804,804,804,804,804,804,804,804,804,804,804,804,804,804,804,804,804,804,804,804,804,804,804,804,804,804,804,804,804,804,804,804,804,804,804,800,795,764,734,699,660,621,559,536,522],"ymouse":[545,545,545,545,545,545,545,545,545,545,545,545,545,545,545,545,545,545,545,545,545,545,544,542,542,542,542,542,542,542,542,542,542,542,542,542,542,542,541,539,534,526,491,454,411,366,313,192,136,94],"timestamp_mouse":[20,39,59,80,98,119,140,159,179,200,220,239,259,279,299,320,340,360,380,398,418,438,459,478,500,520,538,560,580,599,618,640,660,680,700,719,739,758,780,800,820,838,859,879,899,920,939,958,979,1000],"xSR":741.5,"ySR":469.95,"xT1":424.9,"yT1":0,"xT2":1058.1,"yT2":0,"toosoon":0,"cond_shown":"randomdotsizeEA","ratio_trial":250,"smaller_num":"3","larger_num":"12","correct_side":1,"subjID":"mariaalejandraoledo22","gender":"1","age":"9","school":"4"},{"start_time":1552313866897,"click_time":1552313868301,"finger_time":1552313867700,"fix_duration":456.1150676040302,"trial":11,"RT":803,"MT":601,"sideResp":2,"stimulus":"img/900/equaldotanddens/R/15_Ratio_900_L_9_R_10.png","xmouse":[786,786,786,786,788,789,789,789,789,789,789,789,789,789,789,789,789,789,789,789,789,789,789,789,789,789,789,789,789,789,789,789,789,789,789,789,789,793,799,804,811,810,788,755,732,703,693,690,688,687,687,687,691,700,718,740,800,831,862,891,918,968,989,989,989,989,989,989,1024,1032,1082],"ymouse":[505,505,505,505,506,506,506,506,506,506,506,506,506,506,506,506,506,506,506,506,506,506,506,506,506,506,506,506,506,506,506,506,506,506,506,506,506,506,503,497,457,405,344,286,230,131,69,46,31,24,19,18,18,18,18,18,14,14,14,14,11,3,0,0,0,0,0,0,2,5,18],"timestamp_mouse":[10,22,41,62,83,103,123,142,163,183,201,222,242,263,283,302,322,342,361,383,402,421,442,463,481,502,523,541,561,583,602,622,641,661,683,701,723,742,762,783,803,822,843,861,882,903,922,942,962,983,1004,1021,1043,1062,1082,1104,1122,1142,1162,1181,1201,1222,1242,1262,1282,1303,1322,1341,1362,1381,1403],"xSR":741.5,"ySR":469.95,"xT1":424.9,"yT1":0,"xT2":1058.1,"yT2":0,"toosoon":0,"cond_shown":"equaldotanddens","ratio_trial":900,"smaller_num":"9","larger_num":"10","correct_side":2,"subjID":"mariaalejandraoledo22","gender":"1","age":"9","school":"4"},{"start_time":1552313882017,"click_time":1552313883520,"finger_time":1552313882859,"fix_duration":1356.394975026896,"trial":12,"RT":842,"MT":661,"sideResp":2,"stimulus":"img/250/equaldotsize/R/8_Ratio_250_L_1_R_4.png","xmouse":[809,809,809,809,809,809,809,809,809,809,809,809,809,809,809,809,809,809,809,809,809,809,809,809,809,809,809,809,809,809,809,809,809,809,809,809,809,809,809,809,809,814,837,855,885,911,944,955,966,977,983,996,1004,1015,1025,1032,1040,1049,1051,1051,1051,1051,1051,1051,1051,1051,1051,1051,1051,1051,1051,1051,1051,1052,1058,1069],"ymouse":[523,523,523,523,523,523,523,523,523,523,523,523,523,523,523,523,523,523,523,523,523,523,523,523,523,523,523,523,523,523,523,523,523,523,523,523,523,523,523,521,518,506,461,429,385,356,310,289,270,252,239,214,201,179,163,148,132,109,102,101,100,100,100,100,100,100,100,100,100,100,100,100,100,98,95,93],"timestamp_mouse":[20,21,41,62,81,101,121,141,161,182,201,222,242,261,283,302,322,342,362,382,403,422,441,463,483,502,522,542,562,583,602,622,642,663,681,701,722,741,762,783,802,822,842,861,883,903,922,942,962,983,1002,1022,1041,1061,1082,1103,1122,1142,1162,1183,1203,1222,1242,1262,1281,1301,1323,1342,1362,1383,1402,1423,1443,1461,1483,1503],"xSR":741.5,"ySR":469.95,"xT1":424.9,"yT1":0,"xT2":1058.1,"yT2":0,"toosoon":0,"cond_shown":"equaldotsize","ratio_trial":250,"smaller_num":"1","larger_num":"4","correct_side":2,"subjID":"mariaalejandraoledo22","gender":"1","age":"9","school":"4"},{"start_time":1552313887739,"click_time":1552313932719,"finger_time":1552313931799,"fix_duration":938.4164036718734,"trial":13,"RT":44060,"MT":920,"sideResp":2,"stimulus":"img/900/randomdotsizeEA/L/1_Ratio_900_L_10_R_9.png","xmouse":[770,770,770,770,770,770,770,770,770,770,770,770,770,770,770,770,770,770,770,770,770,770,770,770,770,770,770,770,770,770,770,770,770,770,770,770,770,770,770,770,770,770,770,770,770,770,770,770,770,770,770,770,770,770,770,770,770,770,770,770,770,770,770,770,770,770,770,770,770,770,770,770,770,770,770,770,770,770,770,770,770,770,770,770,770,770,770,770,770,770,770,770,770,770,770,770,770,770,770,770,770,770,770,770,770,770,770,770,770,770,770,770,770,770,770,770,770,770,770,770,770,770,770,770,770,770,770,770,770,770,770,770,770,770,770,770,770,770,770,770,770,770,770,770,770,770,770,770,770,770,770,770,770,770,770,770,770,770,770,770,770,770,770,770,770,770,770,770,770,770,770,770,770,770,770,770,770,770,770,770,770,770,770,770,770,770,770,770,770,770,770,770,770,770,770,770,770,770,770,770,770,770,770,770,770,770,770,770,770,770,770,770,770,770,770,770,770,770,770,770,770,770,770,770,770,770,770,770,770,770,770,770,770,770,770,770,770,770,770,770,770,770,770,770,770,770,770,770,770,770,770,770,770,770,770,770,770,770,770,770,770,770,770,770,770,770,770,770,770,770,770,770,770,770,770,770,770,770,770,770,770,770,770,770,770,770,770,770,770,770,770,770,770,770,770,770,770,770,770,770,770,770,770,770,770,770,770,770,770,770,770,770,770,770,770,770,770,770,770,770,770,770,770,770,770,770,770,770,770,770,770,770,770,770,770,770,770,770,770,770,770,770,770,770,770,770,770,770,770,770,770,770,770,770,770,770,770,770,770,770,770,770,770,770,770,770,770,770,770,770,770,770,770,770,770,770,770,770,770,770,770,770,770,770,770,770,770,770,770,770,770,770,770,770,770,770,770,770,770,770,770,770,770,770,770,770,770,770,770,770,770,770,770,770,770,770,770,770,770,770,770,770,770,770,770,770,770,770,770,770,770,770,770,770,770,770,770,770,770,770,770,770,770,770,770,770,770,770,770,770,770,770,770,770,770,770,770,770,770,770,770,770,770,770,770,770,770,770,770,770,770,770,770,770,770,770,770,770,770,770,770,770,770,770,770,770,770,770,770,770,770,770,770,770,770,770,770,770,770,770,770,770,770,770,770,770,770,770,770,770,770,770,770,770,770,770,770,770,770,770,770,770,770,770,770,770,770,770,770,770,770,770,770,770,770,770,770,770,770,770,770,770,770,770,770,770,770,770,770,770,770,770,770,770,770,770,770,770,770,770,770,770,770,770,770,770,770,770,770,770,770,770,770,770,770,770,770,770,770,770,770,770,770,770,770,770,770,770,770,770,770,770,770,770,770,770,770,770,770,770,770,770,770,770,770,770,770,770,770,770,770,770,770,770,770,770,770,770,770,770,770,770,770,770,770,770,770,770,770,770,770,770,770,770,770,770,770,770,770,770,770,770,770,770,770,770,770,770,770,770,770,770,770,770,770,770,770,770,770,770,770,770,770,770,770,770,770,770,770,770,770,770,770,770,770,770,770,770,770,770,770,770,770,770,770,770,770,770,770,770,770,770,770,770,770,770,770,770,770,770,770,770,770,770,770,770,770,770,770,770,770,770,770,770,770,770,770,770,770,770,770,770,770,770,770,770,770,770,770,770,770,770,770,770,770,770,770,770,770,770,770,770,770,770,770,770,770,770,770,770,770,770,770,770,770,770,770,770,770,770,770,770,770,770,770,770,770,770,770,770,770,770,770,770,770,770,770,770,770,770,770,770,770,770,770,770,770,770,770,770,770,770,770,770,770,770,770,770,770,770,770,770,770,770,770,770,770,770,770,770,770,770,770,770,770,770,770,770,770,770,770,770,770,770,770,770,770,770,770,770,770,770,770,770,770,770,770,770,770,770,770,770,770,770,770,770,770,770,770,770,770,770,770,770,770,770,770,770,770,770,770,770,770,770,770,770,770,770,770,770,770,770,770,770,770,770,770,770,770,770,770,770,770,770,770,770,770,770,770,770,770,770,770,770,770,770,770,770,770,770,770,770,770,770,770,770,770,770,770,770,770,770,770,770,770,770,770,770,770,770,770,770,770,770,770,770,770,770,770,770,770,770,770,770,770,770,770,770,770,770,770,770,770,770,770,770,770,770,770,770,770,770,770,770,770,770,770,770,770,770,770,770,770,770,770,770,770,770,770,770,770,770,770,770,770,770,770,770,770,770,770,770,770,770,770,770,770,770,770,770,770,770,770,770,770,770,770,770,770,770,770,770,770,770,770,770,770,770,770,770,770,770,770,770,770,770,770,770,770,770,770,770,770,770,770,770,770,770,770,770,770,770,770,770,770,770,770,770,770,770,770,770,770,770,770,770,770,770,770,770,770,770,770,770,770,770,770,770,770,770,770,770,770,770,770,770,770,770,770,770,770,770,770,770,770,770,770,770,770,770,770,770,770,770,770,770,770,770,770,770,770,770,770,770,770,770,770,770,770,770,770,770,770,770,770,770,770,770,770,770,770,770,770,770,770,770,770,770,770,770,770,770,770,770,770,770,770,770,770,770,770,770,770,770,770,770,770,770,770,770,770,770,770,770,770,770,770,770,770,770,770,770,770,770,770,770,770,770,770,770,770,770,770,770,770,770,770,770,770,770,770,770,770,770,770,770,770,770,770,770,770,770,770,770,770,770,770,770,770,770,770,770,770,770,770,770,770,770,770,770,770,770,770,770,770,770,770,770,770,770,770,770,770,770,770,770,770,770,770,770,770,770,770,770,770,770,770,770,770,770,770,770,770,770,770,770,770,770,770,770,770,770,770,770,770,770,770,770,770,770,770,770,770,770,770,770,770,770,770,770,770,770,770,770,770,770,770,770,770,770,770,770,770,770,770,770,770,770,770,770,770,770,770,770,770,770,770,770,770,770,770,770,770,770,770,770,770,770,770,770,770,770,770,770,770,770,770,770,770,770,770,770,770,770,770,770,770,770,770,770,770,770,770,770,770,770,770,770,770,770,770,770,770,770,770,770,770,770,770,770,770,770,770,770,770,770,770,770,770,770,770,770,770,770,770,770,770,770,770,770,770,770,770,770,770,770,770,770,770,770,770,770,770,770,770,770,770,770,770,770,770,770,770,770,770,770,770,770,770,770,770,770,770,770,770,770,770,770,770,770,770,770,770,770,770,770,770,770,770,770,770,770,770,770,770,770,770,770,770,770,770,770,770,770,770,770,770,770,770,770,770,770,770,770,770,770,770,770,770,770,770,770,770,770,770,770,770,770,770,770,770,770,770,770,770,770,770,770,770,770,770,770,770,770,770,770,770,770,770,770,770,770,770,770,770,770,770,770,770,770,770,770,770,770,770,770,770,770,770,770,770,770,770,770,770,770,770,770,770,770,770,770,770,770,770,770,770,770,770,770,770,770,770,770,770,770,770,770,770,770,770,770,770,770,770,770,770,770,770,770,770,770,770,770,770,770,770,770,770,770,770,770,770,770,770,770,770,770,770,770,770,770,770,770,770,770,770,770,770,770,770,770,770,770,770,770,770,770,770,770,770,770,770,770,770,770,770,770,770,770,770,770,770,770,770,770,770,770,770,770,770,770,770,770,770,770,770,770,770,770,770,770,770,770,770,770,770,770,770,770,770,770,770,770,770,770,770,770,770,770,770,770,770,770,770,770,770,770,770,770,770,770,770,770,770,770,770,770,770,770,770,770,770,770,770,770,770,770,770,770,770,770,770,770,770,770,770,770,770,770,770,770,770,770,770,770,770,770,770,770,770,770,770,770,770,770,770,770,770,770,770,770,770,770,770,770,770,770,770,770,770,770,770,770,770,770,770,770,770,770,770,770,770,770,770,770,770,770,770,770,770,770,770,770,770,770,770,770,770,770,770,770,770,770,770,770,770,770,770,770,770,770,770,770,770,770,770,770,770,770,770,770,770,770,770,770,770,770,770,770,770,770,770,770,770,770,770,770,770,770,770,770,770,770,770,770,770,770,770,770,770,770,770,770,770,770,770,770,770,770,770,770,770,770,770,770,770,770,770,770,770,770,770,770,770,770,770,770,770,770,770,770,770,770,770,770,770,770,770,770,770,770,770,770,770,770,770,770,770,770,770,770,770,770,770,770,770,770,770,770,770,770,770,770,770,770,770,770,770,770,770,770,770,770,770,770,770,770,770,770,770,770,770,770,770,770,770,770,770,770,770,770,770,770,770,770,770,770,770,770,770,770,770,770,770,770,770,770,770,770,770,770,770,770,770,770,770,770,770,770,770,770,770,770,770,770,770,770,770,770,770,770,770,770,770,770,770,770,770,770,770,770,770,770,770,770,770,770,770,770,770,770,770,770,770,770,770,770,770,770,770,770,770,770,770,770,770,770,770,770,770,770,770,770,770,770,770,770,770,770,770,770,770,770,770,770,770,770,770,770,770,770,770,770,770,770,770,770,770,770,770,770,770,770,770,770,770,770,770,770,770,770,770,770,770,770,770,770,770,770,770,770,770,770,770,770,770,770,770,770,770,770,770,770,770,770,770,770,770,770,770,770,770,770,770,770,770,770,770,770,770,770,770,770,770,770,770,770,770,770,770,770,770,770,770,770,770,770,770,770,770,770,770,770,770,770,770,770,770,770,770,770,770,770,770,770,770,770,770,770,770,770,770,770,770,770,770,770,770,770,770,770,770,770,770,770,770,770,770,770,770,770,770,770,770,770,770,770,770,770,770,770,770,770,770,770,770,770,770,770,770,770,770,770,770,770,770,770,770,770,770,770,770,770,770,770,770,770,770,770,770,770,770,770,770,770,770,770,770,770,770,770,770,770,770,770,770,770,770,770,770,770,770,770,770,770,770,770,770,770,770,770,770,770,770,770,770,770,770,770,770,770,770,770,770,770,770,770,770,770,770,770,770,770,770,770,770,770,770,770,770,770,770,770,770,770,770,770,770,770,770,770,770,770,770,770,770,770,770,770,770,770,758,731,691,686,686,686,686,686,921,1213,1311,1340,1342,1342,1342,1342,1342,1342,1342,1342,1342,1342,1341,1333,1328,1327,1327,1327,1327,1326,1326,1326,1325,1318,1288,1275,1271,1268,1267,1263,1260,1255,1253,1244,1217,1198,1176,1153],"ymouse":[529,529,529,529,529,529,529,529,530,530,530,530,530,530,530,530,530,530,530,530,530,530,530,530,530,530,530,530,530,530,530,530,530,530,530,530,530,530,530,530,530,530,530,530,530,530,530,530,530,530,530,530,530,530,530,530,530,530,530,530,530,530,530,530,530,530,530,530,530,530,530,530,530,530,530,530,530,530,530,530,530,530,530,530,530,530,530,530,530,530,530,530,530,530,530,530,530,530,530,530,530,530,530,530,530,530,530,530,530,530,530,530,530,530,530,530,530,530,530,530,530,530,530,530,530,530,530,530,530,530,530,530,530,530,530,530,530,530,530,530,530,530,530,530,530,530,530,530,530,530,530,530,530,530,530,530,530,530,530,530,530,530,530,530,530,530,530,530,530,530,530,530,530,530,530,530,530,530,530,530,530,530,530,530,530,530,530,530,530,530,530,530,530,530,530,530,530,530,530,530,530,530,530,530,530,530,530,530,530,530,530,530,530,530,530,530,530,530,530,530,530,530,530,530,530,530,530,530,530,530,530,530,530,530,530,530,530,530,530,530,530,530,530,530,530,530,530,530,530,530,530,530,530,530,530,530,530,530,530,530,530,530,530,530,530,530,530,530,530,530,530,530,530,530,530,530,530,530,530,530,530,530,530,530,530,530,530,530,530,530,530,530,530,530,530,530,530,530,530,530,530,530,530,530,530,530,530,530,530,530,530,530,530,530,530,530,530,530,530,530,530,530,530,530,530,530,530,530,530,530,530,530,530,530,530,530,530,530,530,530,530,530,530,530,530,530,530,530,530,530,530,530,530,530,530,530,530,530,530,530,530,530,530,530,530,530,530,530,530,530,530,530,530,530,530,530,530,530,530,530,530,530,530,530,530,530,530,530,530,530,530,530,530,530,530,530,530,530,530,530,530,530,530,530,530,530,530,530,530,530,530,530,530,530,530,530,530,530,530,530,530,530,530,530,530,530,530,530,530,530,530,530,530,530,530,530,530,530,530,530,530,530,530,530,530,530,530,530,530,530,531,531,531,531,531,531,531,531,531,531,531,531,531,531,531,531,531,531,531,531,531,531,531,531,531,531,531,531,531,531,531,531,531,531,531,531,531,531,531,531,531,531,531,531,531,531,531,531,531,531,531,531,531,531,531,531,531,531,531,531,531,531,531,531,531,531,531,531,531,531,531,531,531,531,531,531,531,531,531,531,531,531,531,531,531,531,531,531,531,531,531,531,531,531,531,531,531,531,531,531,531,531,531,531,531,531,531,531,531,531,531,531,531,531,531,531,531,531,531,531,531,531,531,531,531,531,531,531,531,531,531,531,531,531,531,531,531,531,531,531,531,531,531,531,531,531,531,531,531,531,531,531,531,531,531,531,531,531,531,531,531,531,531,531,531,531,531,531,531,531,531,531,531,531,531,531,531,531,531,531,531,531,531,531,531,531,531,531,531,531,531,531,531,531,531,531,531,531,531,531,531,531,531,531,531,531,531,531,531,531,531,531,531,531,531,531,531,531,531,531,531,531,531,531,531,531,531,531,531,531,531,531,531,531,531,531,531,531,531,531,531,531,531,531,531,531,531,531,531,531,531,531,531,531,531,531,531,531,531,531,531,531,531,531,531,531,531,531,531,531,531,531,531,531,531,531,531,531,531,531,531,531,531,531,531,531,531,531,531,531,531,531,531,531,531,531,531,531,531,531,531,531,531,531,531,531,531,531,531,531,531,531,531,531,531,531,531,531,531,531,531,531,531,531,531,531,531,531,531,531,531,531,531,531,531,531,531,531,531,531,531,531,531,531,531,531,531,531,531,531,531,531,531,531,531,531,531,531,531,531,531,531,531,531,531,531,531,531,531,531,531,531,531,531,531,531,531,531,531,531,531,531,531,531,531,531,531,531,531,531,531,531,531,531,531,531,531,531,531,531,531,531,531,531,531,531,531,531,531,531,531,531,531,531,531,531,531,531,531,531,531,531,531,531,531,531,531,531,531,531,531,531,531,531,531,531,531,531,531,531,531,531,531,531,531,531,531,531,531,531,531,531,531,531,531,531,531,531,531,531,531,531,531,531,531,531,531,531,531,531,531,531,531,531,531,531,531,531,531,531,531,531,531,531,531,531,531,531,531,531,531,531,531,531,531,531,531,531,531,531,531,531,531,531,531,531,531,531,531,531,531,531,531,531,531,531,531,531,531,531,531,531,531,531,531,531,531,531,531,531,531,531,531,531,531,531,531,531,531,531,531,531,531,531,531,531,531,531,531,531,531,531,531,531,531,531,531,531,531,531,531,531,531,531,531,531,531,531,531,531,531,531,531,531,531,531,531,531,531,531,531,531,531,531,531,531,531,531,531,531,531,531,531,531,531,531,531,531,531,531,531,531,531,531,531,531,531,531,531,531,531,531,531,531,531,531,531,531,531,531,531,531,531,531,531,531,531,531,531,531,531,531,531,531,531,531,531,531,531,531,531,531,531,531,531,531,531,531,531,531,531,531,531,531,531,531,531,531,531,531,531,531,531,531,531,531,531,531,531,531,531,531,531,531,531,531,531,531,531,531,531,531,531,531,531,531,531,531,531,531,531,531,531,531,531,531,531,531,531,531,531,531,531,531,531,531,531,531,531,531,531,531,531,531,531,531,531,531,531,531,531,531,531,531,531,531,531,531,531,531,531,531,531,531,531,531,531,531,531,531,531,531,531,531,531,531,531,531,531,531,531,531,531,531,531,531,531,531,531,531,531,531,531,531,531,531,531,531,531,531,531,531,531,531,531,531,531,531,531,531,531,531,531,531,531,531,531,531,531,531,531,531,531,531,531,531,531,531,531,531,531,531,531,531,531,531,531,531,531,531,531,531,531,531,531,531,531,531,531,531,531,531,531,531,531,531,531,531,531,531,531,531,531,531,531,531,531,531,531,531,531,531,531,531,531,531,531,531,531,531,531,531,531,531,531,531,531,531,531,531,531,531,531,531,531,531,531,531,531,531,531,531,531,531,531,531,531,531,531,531,531,531,531,531,531,531,531,531,531,531,531,531,531,531,531,531,531,531,531,531,531,531,531,531,531,531,531,531,531,531,531,531,531,531,531,531,531,531,531,531,531,531,531,531,531,531,531,531,531,531,531,531,531,531,531,531,531,531,531,531,531,531,531,531,531,531,531,531,531,531,531,531,531,531,531,531,531,531,531,531,531,531,531,531,531,531,531,531,531,531,531,531,531,531,531,531,531,531,531,531,531,531,531,531,531,531,531,531,531,531,531,531,531,531,531,531,531,531,531,531,531,531,531,531,531,531,531,531,531,531,531,531,531,531,531,531,531,531,531,531,531,531,531,531,531,531,531,531,531,531,531,531,531,531,531,531,531,531,531,531,531,531,531,531,531,531,531,531,531,531,531,531,531,531,531,531,531,531,531,531,531,531,531,531,531,531,531,531,531,531,531,531,531,531,531,531,531,531,531,531,531,531,531,531,531,531,531,531,531,531,531,531,531,531,531,531,531,531,531,531,531,531,531,531,531,531,531,531,531,531,531,531,531,531,531,531,531,531,531,531,531,531,531,531,531,531,531,531,531,531,531,531,531,531,531,531,531,531,531,531,531,531,531,531,531,531,531,531,531,531,531,531,531,531,531,531,531,531,531,531,531,531,531,531,531,531,531,531,531,531,531,531,531,531,531,531,531,531,531,531,531,531,531,531,531,531,531,531,531,531,531,531,531,531,531,531,531,531,531,531,531,531,531,531,531,531,531,531,531,531,531,531,531,531,531,531,531,531,531,531,531,531,531,531,531,531,531,531,531,531,531,531,531,531,531,531,531,531,531,531,531,531,531,531,531,531,531,531,531,531,531,531,531,531,531,531,531,531,531,531,531,531,531,531,531,531,531,531,531,531,531,531,531,531,531,531,531,531,531,531,531,531,531,531,531,531,531,531,531,531,531,531,531,531,531,531,531,531,531,531,531,531,531,531,531,531,531,531,531,531,531,531,531,531,531,531,531,531,531,531,531,531,531,531,531,531,531,531,531,531,531,531,531,531,531,531,531,531,531,531,531,531,531,531,531,531,531,531,531,531,531,531,531,531,531,531,531,531,531,531,531,531,531,531,531,531,531,531,531,531,531,531,531,531,531,531,531,531,531,531,531,531,531,531,531,531,531,531,531,531,531,531,531,531,531,531,531,531,531,531,531,531,531,531,531,531,531,531,531,531,531,531,531,531,531,531,531,531,531,531,531,531,531,531,531,531,531,531,531,531,531,531,531,531,531,531,531,531,531,531,531,531,531,531,531,531,531,531,531,531,531,531,531,531,531,531,531,531,531,531,531,531,531,531,531,531,531,531,531,531,531,531,531,531,531,531,531,531,531,531,531,531,531,531,531,531,531,531,531,531,531,531,531,531,531,531,531,531,531,531,531,531,531,531,531,531,531,531,531,531,531,531,531,531,531,531,531,531,531,531,531,531,531,531,531,531,531,531,531,531,531,531,531,531,531,531,531,531,531,531,531,531,531,531,531,531,531,531,531,531,531,531,531,531,531,531,531,531,531,531,531,531,531,531,531,531,531,531,531,531,531,531,531,531,531,531,531,531,531,531,531,531,531,531,531,531,531,531,531,531,531,531,531,531,531,531,531,531,531,531,531,531,531,531,531,531,531,531,531,531,531,531,531,531,531,531,531,531,531,531,531,531,531,531,531,531,531,531,531,531,531,531,531,531,531,531,531,531,531,531,531,531,531,531,531,531,531,531,531,531,531,531,531,531,531,531,531,531,531,531,531,531,531,531,531,531,531,531,531,531,531,531,531,531,531,531,531,531,531,531,531,531,531,531,531,531,531,531,531,531,531,531,531,531,531,531,531,531,531,531,531,531,531,531,531,531,531,531,531,531,531,531,531,531,531,531,531,531,531,531,531,531,531,531,531,531,531,531,531,531,531,531,531,531,531,531,531,531,531,531,531,531,531,531,531,531,531,531,531,531,531,531,484,403,218,57,57,57,57,57,23,192,263,292,298,298,299,299,299,299,299,299,299,290,267,190,125,117,116,116,116,116,116,116,114,104,86,84,83,83,83,83,82,79,79,74,72,70,70,70],"timestamp_mouse":[2,32,40,59,80,100,120,139,160,180,199,221,240,259,280,300,319,340,359,379,400,421,440,461,480,500,521,539,561,581,601,619,640,661,681,700,719,739,761,780,799,819,840,859,879,899,919,940,960,979,1001,1021,1041,1060,1080,1100,1120,1141,1159,1179,1201,1221,1241,1260,1280,1299,1321,1340,1361,1381,1401,1419,1440,1459,1481,1500,1520,1541,1560,1581,1600,1621,1640,1659,1679,1700,1721,1740,1760,1781,1799,1820,1841,1861,1880,1899,1919,1939,1959,1981,2001,2020,2040,2059,2079,2099,2119,2140,2159,2179,2199,2220,2240,2261,2279,2301,2320,2340,2361,2379,2400,2420,2440,2460,2479,2500,2519,2540,2561,2579,2599,2620,2641,2659,2679,2701,2720,2741,2760,2780,2800,2820,2840,2861,2879,2899,2920,2940,2960,2981,3000,3019,3040,3061,3081,3101,3120,3140,3161,3180,3200,3220,3240,3260,3281,3300,3319,3339,3361,3380,3401,3420,3439,3461,3479,3501,3520,3539,3559,3581,3600,3620,3640,3660,3679,3700,3720,3740,3760,3781,3801,3820,3840,3859,3881,3900,3920,3940,3960,3981,4000,4019,4041,4059,4081,4099,4120,4141,4160,4179,4199,4220,4241,4259,4279,4300,4320,4341,4360,4381,4399,4420,4441,4460,4480,4500,4520,4540,4560,4580,4601,4620,4641,4660,4679,4701,4720,4740,4760,4781,4800,4820,4840,4859,4881,4901,4920,4940,4959,4980,5001,5020,5041,5060,5081,5100,5120,5140,5161,5180,5200,5219,5240,5260,5281,5300,5319,5340,5359,5380,5399,5420,5439,5459,5481,5499,5520,5541,5561,5581,5600,5620,5640,5660,5680,5699,5719,5740,5761,5780,5800,5820,5840,5861,5880,5900,5921,5939,5959,5980,5999,6021,6040,6061,6079,6100,6120,6141,6161,6180,6200,6221,6239,6259,6280,6301,6319,6340,6359,6380,6399,6421,6440,6459,6480,6501,6521,6540,6559,6580,6601,6621,6640,6660,6679,6699,6720,6739,6759,6779,6799,6820,6840,6860,6879,6901,6921,6940,6959,6980,7000,7021,7040,7060,7080,7099,7120,7139,7159,7179,7201,7220,7240,7260,7279,7301,7319,7339,7360,7381,7401,7419,7440,7460,7480,7500,7521,7539,7560,7579,7601,7620,7640,7659,7680,7699,7719,7739,7760,7780,7799,7820,7839,7860,7881,7899,7920,7941,7959,7981,8000,8019,8041,8059,8080,8100,8120,8140,8159,8180,8200,8220,8239,8260,8280,8300,8320,8340,8359,8379,8400,8421,8440,8461,8479,8500,8519,8541,8560,8580,8600,8620,8641,8660,8679,8700,8721,8741,8759,8781,8800,8820,8841,8859,8880,8899,8920,8941,8959,8980,8999,9021,9039,9060,9079,9099,9119,9140,9160,9179,9201,9219,9239,9261,9279,9300,9320,9340,9359,9379,9399,9420,9440,9459,9480,9499,9520,9541,9559,9580,9600,9619,9641,9660,9679,9700,9719,9739,9760,9781,9801,9820,9839,9860,9881,9901,9919,9939,9959,9980,9999,10021,10039,10059,10080,10099,10121,10141,10159,10180,10200,10219,10239,10261,10280,10300,10320,10339,10360,10379,10399,10419,10439,10459,10480,10501,10520,10539,10559,10580,10600,10621,10641,10659,10679,10699,10720,10739,10760,10780,10800,10819,10839,10859,10880,10900,10921,10939,10960,10980,10999,11020,11040,11060,11080,11101,11119,11139,11159,11180,11199,11220,11239,11259,11281,11299,11319,11339,11359,11379,11400,11420,11439,11459,11480,11499,11520,11541,11559,11580,11601,11619,11639,11659,11681,11699,11720,11739,11760,11780,11799,11820,11840,11859,11880,11899,11921,11939,11960,11979,12001,12020,12040,12059,12080,12100,12119,12139,12161,12181,12201,12220,12239,12260,12279,12300,12320,12339,12361,12381,12399,12421,12439,12459,12480,12500,12519,12540,12559,12580,12599,12619,12641,12659,12679,12699,12719,12739,12760,12780,12800,12819,12839,12859,12881,12900,12920,12939,12960,12980,12999,13020,13040,13060,13081,13099,13119,13141,13159,13181,13200,13220,13240,13259,13280,13301,13320,13341,13359,13379,13400,13419,13439,13459,13479,13500,13520,13539,13560,13580,13599,13619,13640,13660,13680,13700,13719,13740,13761,13780,13799,13821,13840,13859,13879,13900,13921,13940,13959,13979,14000,14020,14040,14059,14079,14099,14120,14140,14161,14180,14199,14220,14240,14260,14281,14299,14320,14340,14360,14380,14400,14421,14440,14460,14479,14499,14521,14540,14560,14581,14600,14620,14640,14660,14679,14699,14720,14741,14759,14779,14800,14819,14841,14859,14879,14899,14921,14939,14959,14980,14999,15020,15041,15059,15080,15099,15121,15141,15160,15179,15200,15220,15241,15260,15279,15299,15319,15339,15360,15379,15400,15419,15439,15460,15479,15499,15521,15540,15559,15580,15600,15620,15641,15660,15680,15699,15720,15741,15761,15780,15800,15819,15840,15859,15879,15899,15919,15941,15959,15980,16000,16020,16040,16060,16080,16100,16120,16141,16159,16179,16201,16220,16240,16260,16279,16299,16319,16339,16360,16379,16399,16421,16439,16459,16480,16501,16519,16539,16559,16579,16600,16619,16639,16660,16679,16701,16720,16740,16760,16781,16800,16819,16839,16860,16879,16900,16921,16939,16960,16981,17001,17021,17040,17060,17080,17099,17120,17140,17161,17180,17199,17220,17240,17261,17279,17299,17321,17341,17360,17380,17399,17421,17440,17459,17479,17500,17520,17541,17559,17580,17600,17619,17641,17659,17680,17699,17720,17740,17760,17780,17801,17819,17840,17859,17880,17901,17921,17940,17961,17980,17999,18020,18040,18061,18079,18100,18119,18140,18161,18180,18200,18220,18239,18261,18281,18300,18320,18339,18360,18381,18400,18420,18440,18459,18479,18501,18519,18541,18561,18579,18599,18620,18640,18661,18681,18700,18720,18739,18759,18779,18800,18820,18841,18859,18879,18899,18920,18940,18961,18979,18999,19020,19041,19061,19079,19100,19120,19141,19159,19179,19200,19221,19239,19259,19279,19299,19321,19340,19360,19379,19399,19420,19441,19460,19480,19500,19520,19540,19559,19581,19600,19619,19640,19659,19681,19699,19719,19740,19759,19780,19799,19819,19840,19859,19879,19900,19919,19940,19959,19980,20000,20019,20040,20060,20079,20099,20119,20139,20159,20179,20199,20220,20240,20260,20279,20300,20320,20340,20359,20381,20400,20419,20439,20459,20480,20500,20520,20539,20559,20580,20599,20619,20641,20660,20681,20700,20720,20739,20760,20780,20800,20820,20839,20860,20880,20900,20919,20940,20959,20981,21001,21020,21040,21059,21080,21101,21120,21140,21159,21181,21199,21220,21241,21259,21281,21300,21320,21339,21359,21381,21401,21420,21439,21459,21481,21500,21520,21540,21559,21580,21599,21619,21639,21660,21680,21700,21719,21741,21759,21780,21800,21819,21840,21859,21879,21899,21921,21939,21960,21980,21999,22019,22039,22059,22080,22100,22120,22141,22160,22180,22199,22219,22239,22259,22279,22300,22319,22341,22360,22380,22401,22421,22440,22459,22480,22499,22519,22541,22560,22580,22600,22619,22639,22660,22680,22701,22720,22740,22760,22780,22800,22821,22841,22860,22880,22901,22921,22940,22960,22980,22999,23020,23041,23060,23079,23100,23120,23140,23160,23181,23200,23220,23239,23260,23281,23300,23319,23340,23361,23379,23399,23420,23439,23461,23481,23499,23520,23540,23560,23581,23601,23620,23640,23660,23679,23700,23720,23739,23761,23780,23800,23819,23840,23859,23879,23899,23920,23940,23961,23980,24000,24019,24040,24060,24081,24100,24120,24139,24159,24179,24200,24221,24241,24260,24279,24299,24321,24339,24359,24380,24400,24421,24441,24460,24480,24501,24520,24540,24559,24579,24600,24621,24641,24660,24680,24701,24720,24739,24760,24779,24800,24820,24841,24859,24880,24899,24921,24940,24960,24980,25000,25019,25041,25060,25081,25101,25120,25140,25159,25179,25201,25221,25241,25259,25280,25299,25321,25339,25360,25380,25399,25421,25439,25459,25480,25501,25519,25540,25559,25581,25600,25621,25641,25659,25679,25700,25719,25739,25759,25781,25801,25821,25841,25859,25881,25900,25920,25939,25959,25980,26000,26020,26040,26060,26080,26100,26119,26141,26159,26179,26200,26220,26240,26260,26281,26300,26319,26340,26359,26380,26401,26420,26440,26459,26479,26499,26519,26540,26560,26580,26600,26621,26640,26659,26679,26700,26719,26739,26759,26779,26800,26820,26839,26860,26881,26901,26920,26940,26959,26980,27001,27020,27040,27060,27079,27101,27120,27140,27160,27179,27200,27220,27240,27260,27280,27300,27320,27341,27360,27379,27399,27420,27440,27459,27479,27499,27519,27540,27561,27579,27600,27619,27640,27660,27681,27700,27721,27740,27760,27779,27800,27820,27839,27861,27881,27901,27919,27940,27960,27979,27999,28020,28041,28060,28080,28100,28120,28140,28160,28181,28200,28219,28239,28260,28279,28300,28320,28340,28359,28379,28399,28420,28439,28460,28481,28499,28519,28541,28559,28579,28599,28620,28640,28661,28680,28701,28719,28740,28760,28780,28800,28819,28839,28861,28879,28899,28920,28941,28961,28979,29000,29019,29041,29060,29079,29099,29119,29141,29159,29179,29201,29219,29240,29261,29279,29301,29319,29340,29359,29379,29400,29420,29440,29460,29480,29500,29520,29539,29560,29579,29601,29620,29640,29659,29679,29700,29719,29739,29760,29780,29800,29820,29839,29860,29880,29900,29920,29940,29961,29980,29999,30019,30040,30059,30079,30100,30119,30140,30159,30179,30201,30220,30240,30260,30280,30301,30319,30340,30359,30379,30400,30420,30439,30460,30479,30500,30519,30540,30560,30580,30600,30620,30640,30661,30679,30699,30720,30740,30759,30779,30800,30819,30840,30860,30879,30900,30920,30940,30959,30980,31000,31020,31040,31061,31079,31100,31120,31141,31159,31180,31200,31220,31240,31260,31281,31300,31319,31339,31360,31380,31399,31421,31439,31459,31480,31499,31520,31541,31559,31579,31599,31619,31639,31659,31680,31699,31721,31740,31759,31780,31801,31819,31840,31859,31880,31899,31921,31940,31960,31980,32000,32021,32040,32059,32081,32099,32120,32140,32159,32180,32201,32219,32240,32261,32279,32299,32319,32340,32359,32380,32401,32419,32439,32460,32481,32500,32519,32540,32559,32581,32600,32620,32640,32661,32681,32700,32721,32740,32760,32780,32800,32820,32840,32859,32879,32899,32921,32939,32959,32979,32999,33019,33041,33061,33081,33099,33119,33141,33159,33180,33200,33220,33239,33259,33279,33301,33320,33340,33359,33379,33400,33419,33440,33459,33480,33499,33521,33539,33560,33581,33600,33619,33641,33659,33680,33700,33719,33740,33759,33780,33801,33819,33840,33859,33879,33900,33921,33940,33961,33979,34000,34021,34039,34060,34080,34100,34120,34139,34160,34179,34201,34219,34240,34260,34280,34301,34319,34340,34360,34380,34401,34420,34440,34460,34479,34500,34521,34539,34559,34580,34599,34619,34641,34659,34680,34701,34719,34739,34759,34779,34799,34819,34840,34861,34881,34900,34920,34939,34960,34980,35000,35020,35040,35060,35080,35101,35119,35140,35160,35179,35199,35219,35240,35261,35279,35300,35321,35339,35360,35380,35400,35421,35441,35460,35479,35499,35520,35540,35561,35580,35599,35619,35640,35661,35680,35699,35721,35741,35760,35779,35800,35819,35839,35860,35879,35899,35920,35941,35960,35979,35999,36019,36040,36060,36079,36101,36121,36139,36159,36180,36199,36219,36240,36260,36280,36299,36319,36341,36359,36381,36399,36419,36440,36459,36480,36499,36521,36540,36560,36580,36599,36619,36640,36660,36679,36699,36719,36739,36759,36779,36800,36819,36839,36860,36881,36899,36920,36939,36959,36980,37000,37019,37040,37059,37081,37100,37121,37139,37159,37181,37199,37219,37241,37260,37280,37300,37320,37339,37361,37380,37399,37420,37439,37459,37481,37500,37520,37539,37559,37579,37600,37619,37640,37659,37679,37699,37720,37741,37760,37780,37799,37821,37840,37859,37879,37900,37920,37940,37959,37981,37999,38020,38040,38059,38079,38099,38120,38139,38159,38180,38199,38220,38240,38260,38280,38299,38321,38339,38360,38379,38399,38420,38439,38459,38480,38500,38521,38540,38560,38579,38600,38621,38640,38660,38679,38700,38720,38739,38759,38780,38800,38819,38839,38860,38881,38900,38920,38939,38960,38980,39000,39019,39041,39060,39079,39099,39120,39140,39160,39181,39199,39220,39239,39260,39281,39299,39320,39339,39360,39381,39400,39420,39439,39461,39479,39500,39521,39539,39560,39579,39600,39621,39640,39659,39680,39700,39720,39739,39759,39780,39800,39820,39839,39859,39881,39900,39920,39939,39959,39979,39999,40021,40041,40060,40080,40100,40121,40140,40161,40180,40200,40220,40240,40260,40281,40300,40320,40339,40359,40380,40400,40419,40441,40460,40481,40500,40520,40539,40560,40579,40601,40619,40639,40661,40681,40701,40719,40739,40760,40780,40800,40821,40841,40860,40879,40900,40920,40940,40960,40979,41000,41021,41039,41060,41079,41101,41121,41140,41160,41180,41201,41220,41240,41261,41280,41300,41319,41340,41359,41379,41399,41421,41440,41459,41479,41500,41520,41540,41560,41581,41601,41620,41641,41659,41680,41701,41719,41740,41760,41781,41799,41821,41840,41860,41879,41901,41921,41940,41960,41980,41999,42019,42039,42059,42080,42099,42119,42140,42160,42180,42200,42220,42239,42260,42279,42299,42320,42339,42361,42380,42401,42420,42440,42459,42480,42499,42520,42540,42560,42579,42600,42620,42640,42660,42680,42699,42720,42741,42760,42779,42800,42819,42840,42861,42879,42900,42920,42941,42961,42980,43000,43021,43039,43060,43080,43099,43120,43140,43161,43180,43200,43220,43240,43259,43280,43299,43321,43340,43361,43380,43399,43420,43439,43460,43480,43501,43520,43540,43560,43579,43600,43619,43640,43660,43679,43700,43721,43741,43760,43780,43800,43821,43839,43860,43880,43899,43921,43940,43960,43979,44000,44019,44041,44060,44080,44100,44119,44140,44159,44180,44200,44220,44239,44260,44279,44299,44320,44340,44359,44380,44400,44420,44440,44460,44480,44500,44519,44540,44560,44579,44599,44619,44640,44659,44680,44700,44719,44740,44759,44780,44800,44819,44840,44860,44880,44900,44919,44940,44959,44980],"xSR":741.5,"ySR":469.95,"xT1":424.9,"yT1":0,"xT2":1058.1,"yT2":0,"toosoon":0,"cond_shown":"randomdotsizeEA","ratio_trial":900,"smaller_num":"9","larger_num":"10","correct_side":1,"subjID":"mariaalejandraoledo22","gender":"1","age":"9","school":"4"},{"start_time":1552313936639,"click_time":1552313937878,"finger_time":1552313937479,"fix_duration":1099.3567589431354,"trial":14,"RT":840,"MT":399,"sideResp":2,"stimulus":"img/500/equaldotanddens/R/15_Ratio_500_L_1_R_2.png","xmouse":[817,817,817,817,817,817,817,817,817,817,817,817,817,817,817,817,817,817,817,817,817,817,817,817,817,817,817,817,817,817,817,817,817,817,817,817,817,817,817,817,819,835,845,856,872,889,910,915,916,917,920,921,930,942,958,975,1007,1030,1042,1052,1061,1066,1077],"ymouse":[526,526,526,526,526,526,526,526,526,525,525,524,524,524,524,524,524,524,524,524,524,524,524,524,524,524,524,524,524,524,524,524,524,524,524,524,524,524,524,522,515,487,465,440,411,382,332,311,304,300,297,295,288,281,272,258,224,190,166,143,121,103,76],"timestamp_mouse":[10,20,39,59,80,100,121,139,159,179,199,219,240,259,280,300,320,340,360,380,400,419,440,459,479,501,519,539,560,579,599,621,639,660,680,700,719,740,759,780,799,821,840,859,880,899,921,939,959,980,1000,1019,1039,1060,1080,1101,1121,1139,1160,1179,1200,1219,1239],"xSR":741.5,"ySR":469.95,"xT1":424.9,"yT1":0,"xT2":1058.1,"yT2":0,"toosoon":0,"cond_shown":"equaldotanddens","ratio_trial":500,"smaller_num":"1","larger_num":"2","correct_side":2,"subjID":"mariaalejandraoledo22","gender":"1","age":"9","school":"4"},{"start_time":1552313940719,"click_time":1552313941639,"finger_time":1552313941458,"fix_duration":398.0446960189521,"trial":15,"RT":739,"MT":181,"sideResp":1,"stimulus":"img/500/randomdotsizeEA/L/8_Ratio_500_L_8_R_4.png","xmouse":[807,807,807,807,807,807,807,807,807,807,807,807,807,807,807,807,807,807,807,807,807,807,807,807,807,807,807,807,807,807,807,807,807,807,807,805,802,792,753,716,678,626,556,511,509,508,508],"ymouse":[501,501,501,501,501,501,501,501,501,501,501,501,501,501,501,501,501,501,501,501,501,501,501,501,501,501,501,501,501,501,501,501,501,501,501,493,485,468,396,337,277,220,151,112,105,100,97],"timestamp_mouse":[1,30,39,60,80,101,119,139,161,181,199,220,239,261,280,299,319,341,359,379,400,421,439,459,480,501,520,539,561,579,600,620,641,659,680,700,719,739,759,779,800,821,840,860,880,899,920],"xSR":741.5,"ySR":469.95,"xT1":424.9,"yT1":0,"xT2":1058.1,"yT2":0,"toosoon":0,"cond_shown":"randomdotsizeEA","ratio_trial":500,"smaller_num":"4","larger_num":"8","correct_side":1,"subjID":"mariaalejandraoledo22","gender":"1","age":"9","school":"4"},{"start_time":1552313948750,"click_time":1552313949760,"finger_time":1552313949500,"fix_duration":250,"trial":16,"RT":750,"MT":260,"sideResp":1,"stimulus":"img/500/equaldotsize/L/4_Ratio_500_L_18_R_9.png","xmouse":[817,817,817,817,817,817,817,817,817,817,817,817,817,817,816,816,816,816,816,816,816,816,816,816,816,816,816,816,816,816,816,816,816,815,813,804,791,736,692,646,600,555,490,477,464,446,436,427,423,423,425],"ymouse":[513,513,513,513,513,513,513,513,513,513,513,513,513,513,513,513,513,513,513,513,513,513,513,513,513,513,513,513,513,513,513,513,513,510,508,494,480,433,394,351,299,246,164,147,136,125,118,110,98,95,93],"timestamp_mouse":[10,41,48,69,88,110,128,149,168,189,209,229,250,268,288,308,329,348,370,390,408,429,449,469,490,509,528,549,568,590,609,629,648,668,690,709,728,750,769,788,808,829,849,869,889,908,928,948,969,989,1009],"xSR":741.5,"ySR":469.95,"xT1":424.9,"yT1":0,"xT2":1058.1,"yT2":0,"toosoon":0,"cond_shown":"equaldotsize","ratio_trial":500,"smaller_num":"9","larger_num":"18","correct_side":1,"subjID":"mariaalejandraoledo22","gender":"1","age":"9","school":"4"},{"start_time":1552313952253,"click_time":1552313953577,"finger_time":1552313952999,"fix_duration":572.7984703006227,"trial":17,"RT":746,"MT":578,"sideResp":1,"stimulus":"img/250/equaldotanddens/L/7_Ratio_250_L_8_R_2.png","xmouse":[798,798,798,798,798,798,798,798,798,798,798,798,798,798,798,798,798,798,798,798,798,799,799,799,799,799,799,799,799,799,799,800,801,802,802,802,802,802,800,795,788,782,769,760,750,737,724,706,648,621,592,565,546,515,507,504,504,504,504,504,504,504,504,504,504,504,502],"ymouse":[515,515,515,515,515,515,515,514,514,514,514,513,513,513,513,513,513,512,512,512,512,511,511,511,511,511,511,511,511,511,509,508,504,501,499,496,489,469,455,447,429,420,399,381,366,343,319,288,216,197,180,165,150,129,127,125,125,124,124,124,124,123,119,114,108,100,87],"timestamp_mouse":[12,25,45,66,86,105,125,145,166,185,205,226,246,266,285,305,327,346,365,385,405,425,445,466,485,506,527,546,567,585,606,626,645,666,686,706,725,746,765,786,805,826,845,864,884,905,924,946,965,985,1004,1024,1045,1064,1084,1105,1124,1145,1165,1184,1206,1224,1246,1264,1284,1304,1324],"xSR":741.5,"ySR":469.95,"xT1":424.9,"yT1":0,"xT2":1058.1,"yT2":0,"toosoon":0,"cond_shown":"equaldotanddens","ratio_trial":250,"smaller_num":"2","larger_num":"8","correct_side":1,"subjID":"mariaalejandraoledo22","gender":"1","age":"9","school":"4"},{"start_time":1552313956532,"click_time":1552313957677,"finger_time":1552313957337,"fix_duration":673.8543526271898,"trial":18,"RT":805,"MT":340,"sideResp":2,"stimulus":"img/900/equaldotsize/R/7_Ratio_900_L_9_R_10.png","xmouse":[793,793,793,793,793,793,793,793,793,793,793,793,793,793,793,793,793,793,793,793,793,793,793,793,793,793,793,793,793,793,793,793,793,793,793,793,794,796,802,823,843,865,884,916,950,962,972,980,988,1004,1011,1014,1021,1030,1041,1047,1055,1061],"ymouse":[533,533,532,532,532,532,532,532,532,532,532,532,532,532,532,532,532,532,532,532,532,532,532,532,532,532,532,532,532,532,532,532,532,532,532,532,528,527,520,493,469,449,435,422,410,402,392,381,365,327,302,274,246,208,157,132,104,80],"timestamp_mouse":[10,25,51,65,86,105,127,145,166,185,205,225,246,267,286,306,325,345,365,387,405,425,446,465,487,505,526,545,565,585,607,625,645,666,685,705,725,745,765,785,805,826,847,867,885,905,925,945,965,985,1005,1026,1046,1065,1085,1105,1125,1145],"xSR":741.5,"ySR":469.95,"xT1":424.9,"yT1":0,"xT2":1058.1,"yT2":0,"toosoon":0,"cond_shown":"equaldotsize","ratio_trial":900,"smaller_num":"9","larger_num":"10","correct_side":2,"subjID":"mariaalejandraoledo22","gender":"1","age":"9","school":"4"},{"start_time":1552313962522,"click_time":1552313963837,"finger_time":1552313963018,"fix_duration":961.5465633509626,"trial":19,"RT":496,"MT":819,"sideResp":1,"stimulus":"img/250/equaldotanddens/L/7_Ratio_250_L_8_R_2.png","xmouse":[763,763,763,763,763,763,763,763,763,763,763,763,763,763,763,763,763,763,763,763,759,757,752,746,738,710,695,682,672,665,645,627,616,610,606,606,606,606,606,606,604,603,601,599,592,579,570,557,545,516,498,491,489,489,487,484,482,481,481,481,481,481,481,481,479,479],"ymouse":[536,536,536,536,536,536,536,536,536,536,536,536,536,536,536,536,536,532,530,528,513,506,493,476,453,373,338,309,283,261,224,203,194,190,188,188,188,188,188,188,186,184,181,179,177,171,168,163,158,142,132,128,126,124,115,109,107,105,105,105,105,105,105,105,102,99],"timestamp_mouse":[16,35,56,76,95,116,137,155,177,196,217,236,256,277,295,315,337,359,376,395,416,435,457,476,496,515,536,556,575,597,615,636,655,676,697,716,735,756,777,797,816,836,855,875,895,915,936,955,975,997,1015,1036,1055,1075,1096,1115,1135,1157,1176,1197,1216,1236,1255,1276,1298,1315],"xSR":741.5,"ySR":469.95,"xT1":424.9,"yT1":0,"xT2":1058.1,"yT2":0,"toosoon":0,"cond_shown":"equaldotanddens","ratio_trial":250,"smaller_num":"2","larger_num":"8","correct_side":1,"subjID":"mariaalejandraoledo22","gender":"1","age":"9","school":"4"},{"start_time":1552313976215,"click_time":1552313979818,"finger_time":1552313979179,"fix_duration":1056.7776381489666,"trial":20,"RT":2964,"MT":639,"sideResp":2,"stimulus":"img/750/randomdotsizeEA/L/6_Ratio_750_L_24_R_18.png","xmouse":[779,779,779,779,779,779,779,779,779,779,779,779,779,779,779,779,779,779,779,779,779,779,779,779,779,779,779,779,779,779,779,779,779,779,779,779,779,779,779,779,779,779,779,779,779,779,779,779,779,779,779,779,779,779,779,779,779,779,779,779,779,779,779,779,779,779,779,779,779,779,779,779,779,779,779,779,779,779,779,779,779,779,779,779,779,779,779,779,779,779,779,779,779,779,779,779,779,779,779,779,779,779,779,779,779,779,779,779,779,779,779,779,779,779,779,779,779,779,779,779,779,779,779,779,779,779,779,779,779,779,779,779,779,779,779,779,779,779,779,779,779,779,779,779,779,779,779,784,868,955,1047,1138,1266,1291,1305,1306,1307,1307,1307,1308,1308,1308,1308,1308,1307,1303,1300,1295,1278,1260,1248,1236,1226,1212,1207,1204,1197,1181,1171,1164,1156],"ymouse":[556,556,556,556,556,556,556,556,556,556,556,556,556,556,556,556,556,556,556,556,556,556,556,556,556,556,556,556,556,556,556,556,556,556,556,556,556,556,556,556,556,556,556,556,556,556,556,556,556,556,556,556,556,556,556,556,556,556,556,556,556,556,556,556,556,556,556,556,556,556,556,556,556,556,556,556,556,556,556,556,556,556,556,556,556,556,556,556,556,556,556,556,556,556,556,556,556,556,556,556,556,556,556,556,556,556,556,556,556,556,556,556,556,556,556,556,556,556,556,556,556,556,556,556,556,556,556,556,556,556,556,556,556,556,556,556,556,556,556,556,556,556,556,556,556,556,556,555,454,371,311,270,249,249,251,251,251,251,251,251,246,240,234,215,203,191,177,163,129,104,86,67,55,43,41,40,43,52,59,64,71],"timestamp_mouse":[13,22,43,64,82,103,122,142,164,184,203,222,242,262,282,302,324,344,362,384,402,422,443,462,482,502,524,542,563,582,602,624,643,662,682,702,724,743,762,784,802,824,843,863,882,902,923,942,962,983,1003,1022,1042,1062,1082,1103,1122,1142,1162,1183,1203,1222,1242,1263,1283,1303,1324,1342,1362,1384,1403,1422,1442,1463,1483,1504,1523,1542,1563,1583,1603,1622,1643,1664,1682,1702,1723,1742,1762,1782,1803,1822,1843,1863,1882,1902,1922,1942,1963,1982,2003,2023,2043,2062,2082,2102,2122,2144,2164,2182,2204,2223,2243,2263,2282,2304,2323,2342,2362,2382,2403,2424,2444,2462,2482,2503,2524,2543,2563,2583,2602,2622,2643,2663,2682,2703,2723,2743,2762,2782,2804,2823,2843,2864,2883,2904,2922,2943,2964,2983,3003,3022,3044,3062,3083,3103,3123,3143,3164,3183,3202,3223,3243,3263,3282,3303,3323,3344,3363,3383,3403,3423,3443,3463,3482,3502,3523,3543,3562,3583,3603],"xSR":741.5,"ySR":469.95,"xT1":424.9,"yT1":0,"xT2":1058.1,"yT2":0,"toosoon":0,"cond_shown":"randomdotsizeEA","ratio_trial":750,"smaller_num":"18","larger_num":"24","correct_side":1,"subjID":"mariaalejandraoledo22","gender":"1","age":"9","school":"4"},{"start_time":1552313981549,"click_time":1552313982777,"finger_time":1552313982377,"fix_duration":250,"trial":21,"RT":828,"MT":400,"sideResp":2,"stimulus":"img/250/equaldotanddens/R/9_Ratio_250_L_3_R_12.png","xmouse":[804,803,803,803,803,803,803,803,803,803,803,803,803,803,803,803,803,803,803,803,803,803,803,803,803,803,803,803,803,803,803,803,803,803,803,803,803,804,805,815,821,876,898,913,922,936,941,948,957,968,980,1015,1028,1041,1052,1061,1076,1082,1089,1095,1103,1115],"ymouse":[551,547,547,546,546,546,546,546,546,546,546,546,546,546,546,546,546,546,546,546,546,546,546,546,546,546,546,546,546,546,546,546,546,546,546,546,546,541,538,516,503,409,376,353,338,318,311,302,291,279,265,229,215,201,190,179,159,150,141,133,122,99],"timestamp_mouse":[9,44,49,68,88,110,128,149,168,190,208,230,249,269,288,308,330,348,369,388,408,429,450,468,489,509,530,550,569,589,609,628,649,670,689,708,730,750,768,789,808,828,849,870,889,910,928,949,969,988,1008,1029,1049,1068,1088,1108,1128,1150,1169,1189,1209,1228],"xSR":741.5,"ySR":469.95,"xT1":424.9,"yT1":0,"xT2":1058.1,"yT2":0,"toosoon":0,"cond_shown":"equaldotanddens","ratio_trial":250,"smaller_num":"3","larger_num":"12","correct_side":2,"subjID":"mariaalejandraoledo22","gender":"1","age":"9","school":"4"},{"start_time":1552313985019,"click_time":1552313985978,"finger_time":1552313985777,"fix_duration":1380.6863107108236,"trial":22,"RT":758,"MT":201,"sideResp":1,"stimulus":"img/750/equaldotsize/L/1_Ratio_750_L_20_R_15.png","xmouse":[785,785,785,785,785,785,785,785,785,785,785,785,785,785,785,785,785,785,785,785,785,785,785,785,785,785,785,785,785,785,785,785,785,785,782,778,764,742,657,607,566,532,479,463,448,436,434,445],"ymouse":[505,505,505,505,505,505,505,505,505,505,505,505,505,505,505,505,505,505,505,505,505,505,505,505,505,505,505,505,505,505,505,505,505,505,503,498,486,466,409,380,355,326,270,245,215,173,148,95],"timestamp_mouse":[18,40,58,80,99,119,138,158,178,198,218,239,260,278,299,318,339,360,380,398,419,438,458,478,500,519,539,558,578,598,620,639,659,679,699,718,738,758,778,799,819,838,859,878,898,918,939,959],"xSR":741.5,"ySR":469.95,"xT1":424.9,"yT1":0,"xT2":1058.1,"yT2":0,"toosoon":0,"cond_shown":"equaldotsize","ratio_trial":750,"smaller_num":"15","larger_num":"20","correct_side":1,"subjID":"mariaalejandraoledo22","gender":"1","age":"9","school":"4"},{"start_time":1552313988350,"click_time":1552313989318,"finger_time":1552313988958,"fix_duration":250,"trial":23,"RT":608,"MT":360,"sideResp":2,"stimulus":"img/250/equaldotanddens/R/11_Ratio_250_L_3_R_12.png","xmouse":[802,802,802,802,802,802,802,802,802,802,802,802,802,802,802,802,802,802,802,802,802,802,802,802,802,802,804,811,817,826,843,868,979,1046,1106,1159,1214,1218,1218,1218,1218,1218,1218,1218,1218,1218,1218,1171,1152],"ymouse":[523,523,523,523,523,523,522,522,522,522,521,520,519,519,519,518,518,518,518,518,518,518,518,518,518,518,516,508,503,493,475,447,304,224,154,92,13,3,3,3,3,3,3,3,3,3,3,14,31],"timestamp_mouse":[8,29,49,68,88,108,129,148,168,188,207,229,248,268,287,309,328,348,369,388,407,427,448,467,489,508,529,547,567,587,608,627,647,667,688,708,729,747,768,787,807,828,848,868,888,909,929,947,968],"xSR":741.5,"ySR":469.95,"xT1":424.9,"yT1":0,"xT2":1058.1,"yT2":0,"toosoon":0,"cond_shown":"equaldotanddens","ratio_trial":250,"smaller_num":"3","larger_num":"12","correct_side":2,"subjID":"mariaalejandraoledo22","gender":"1","age":"9","school":"4"},{"start_time":1552313991690,"click_time":1552313992757,"finger_time":1552313992418,"fix_duration":990.5520125833795,"trial":24,"RT":728,"MT":339,"sideResp":1,"stimulus":"img/750/equaldotsize/L/1_Ratio_750_L_20_R_15.png","xmouse":[803,803,803,803,803,803,803,803,803,803,803,803,803,803,803,803,803,803,803,803,803,803,803,803,803,803,803,803,803,803,803,803,802,800,795,772,747,707,658,577,478,445,428,418,413,409,407,405,403,402,402,408,419,429],"ymouse":[530,530,530,530,530,530,530,530,530,530,530,530,530,530,530,530,530,530,530,530,530,530,530,530,530,530,530,530,530,530,529,529,525,519,510,476,446,395,339,253,171,147,131,116,104,88,82,76,70,68,66,66,66,66],"timestamp_mouse":[7,32,47,69,87,108,127,148,168,188,209,227,248,268,288,308,329,349,369,389,408,427,449,469,487,508,528,547,568,589,607,628,647,668,687,708,728,748,768,789,808,828,847,867,888,907,927,948,967,989,1009,1028,1048,1067],"xSR":741.5,"ySR":469.95,"xT1":424.9,"yT1":0,"xT2":1058.1,"yT2":0,"toosoon":0,"cond_shown":"equaldotsize","ratio_trial":750,"smaller_num":"15","larger_num":"20","correct_side":1,"subjID":"mariaalejandraoledo22","gender":"1","age":"9","school":"4"},{"start_time":1552313995407,"click_time":1552313996699,"finger_time":1552313995938,"fix_duration":1488.4091564778105,"trial":25,"RT":531,"MT":761,"sideResp":2,"stimulus":"img/900/equaldotanddens/L/4_Ratio_900_L_20_R_18.png","xmouse":[802,802,802,797,793,780,773,766,762,759,759,759,759,759,759,759,759,759,759,759,759,760,763,766,773,774,775,776,776,780,787,806,825,848,883,956,981,997,1006,1016,1024,1034,1037,1038,1039,1040,1041,1042,1043,1043,1043,1043,1043,1043,1043,1043,1043,1043,1043,1043,1043,1044,1047,1052,1059],"ymouse":[503,503,503,509,514,531,541,551,559,563,563,563,563,563,563,563,563,563,563,557,542,535,512,499,476,471,469,466,462,448,435,404,378,354,326,260,226,193,160,99,76,50,39,32,25,22,19,17,16,16,16,16,16,16,18,19,20,22,26,28,32,33,35,37,39],"timestamp_mouse":[13,40,50,71,90,111,131,151,172,190,211,232,251,272,290,311,330,352,372,390,411,432,450,471,490,511,530,550,571,590,610,631,651,671,690,711,730,750,770,791,810,831,851,872,891,911,930,951,970,991,1011,1032,1051,1070,1091,1110,1130,1151,1170,1190,1210,1231,1251,1272,1291],"xSR":741.5,"ySR":469.95,"xT1":424.9,"yT1":0,"xT2":1058.1,"yT2":0,"toosoon":0,"cond_shown":"equaldotanddens","ratio_trial":900,"smaller_num":"18","larger_num":"20","correct_side":1,"subjID":"mariaalejandraoledo22","gender":"1","age":"9","school":"4"},{"start_time":1552314005274,"click_time":1552314006437,"finger_time":1552314005838,"fix_duration":594.7929377727654,"trial":26,"RT":564,"MT":599,"sideResp":2,"stimulus":"img/750/equaldotanddens/R/4_Ratio_750_L_15_R_20.png","xmouse":[799,799,799,797,797,796,796,796,796,796,796,796,796,796,796,796,796,796,796,796,795,795,792,792,792,792,793,797,801,808,814,823,831,852,864,878,896,921,932,943,955,969,981,1002,1008,1011,1012,1016,1021,1024,1027,1029,1034,1038,1042,1047,1050,1055,1060],"ymouse":[523,523,523,524,525,525,526,526,526,526,526,526,526,526,526,526,526,526,519,511,502,494,486,485,485,482,479,471,466,457,446,433,417,358,323,293,263,229,215,205,197,191,186,177,176,175,174,174,172,170,167,163,147,131,121,110,101,93,80],"timestamp_mouse":[14,24,44,64,83,104,123,144,163,184,205,225,244,264,284,303,324,344,364,383,404,423,444,463,484,504,523,544,564,584,603,623,643,663,683,703,724,745,764,784,804,823,845,865,883,904,924,945,964,984,1004,1025,1044,1063,1083,1104,1125,1143,1163],"xSR":741.5,"ySR":469.95,"xT1":424.9,"yT1":0,"xT2":1058.1,"yT2":0,"toosoon":0,"cond_shown":"equaldotanddens","ratio_trial":750,"smaller_num":"15","larger_num":"20","correct_side":2,"subjID":"mariaalejandraoledo22","gender":"1","age":"9","school":"4"},{"start_time":1552314021595,"click_time":1552314022759,"finger_time":1552314021638,"fix_duration":556.0424538833075,"trial":27,"RT":43,"MT":1121,"sideResp":1,"stimulus":"img/900/equaldotsize/L/8_Ratio_900_L_20_R_18.png","xmouse":[798,791,786,779,778,777,777,777,777,777,777,778,778,778,780,780,781,782,784,784,784,784,784,784,784,784,784,781,767,744,693,647,612,595,595,594,594,594,594,579,571,565,560,556,555,555,555,555,555,554,553,551,548,545,544,541,536,529,523],"ymouse":[501,478,458,433,425,418,409,401,381,371,360,355,349,345,339,337,336,333,324,319,314,312,311,311,311,311,311,309,308,307,307,303,301,300,300,299,297,290,276,219,189,165,147,133,118,115,114,112,109,107,104,99,96,93,93,93,92,91,91],"timestamp_mouse":[4,23,43,63,84,103,124,142,163,183,203,223,244,262,283,303,324,343,364,383,403,423,442,464,484,503,524,543,564,582,603,624,643,663,683,703,723,744,764,782,803,824,843,862,883,903,924,943,965,982,1004,1023,1044,1064,1083,1104,1124,1142,1164],"xSR":741.5,"ySR":469.95,"xT1":424.9,"yT1":0,"xT2":1058.1,"yT2":0,"toosoon":0,"cond_shown":"equaldotsize","ratio_trial":900,"smaller_num":"18","larger_num":"20","correct_side":1,"subjID":"mariaalejandraoledo22","gender":"1","age":"9","school":"4"},{"start_time":1552314024811,"click_time":1552314026559,"finger_time":1552314025679,"fix_duration":531.5987461256883,"trial":28,"RT":868,"MT":880,"sideResp":2,"stimulus":"img/900/equaldotsize/L/8_Ratio_900_L_20_R_18.png","xmouse":[787,787,787,787,787,787,787,787,787,787,787,787,787,787,787,787,787,787,787,787,787,787,787,787,787,787,787,787,787,787,787,787,787,787,787,787,787,787,787,787,793,804,820,870,887,898,904,905,906,907,910,916,929,956,971,989,1003,1024,1046,1055,1063,1071,1076,1089,1093,1096,1099,1101,1103,1103,1104,1104,1104,1104,1104,1104,1104,1104,1104,1104,1104,1104,1104,1104,1104,1104,1104,1105],"ymouse":[532,532,532,531,531,530,530,528,527,527,527,527,527,527,527,527,527,527,527,527,527,527,527,527,527,527,527,527,527,527,527,527,527,527,527,527,527,527,527,525,514,496,471,406,390,381,375,374,372,371,369,365,358,338,323,306,289,260,215,196,177,164,154,131,124,119,114,112,107,107,105,105,105,104,103,102,101,101,101,101,101,101,101,101,101,100,100,98],"timestamp_mouse":[9,27,48,68,87,107,128,148,167,186,207,228,248,267,287,307,327,346,368,388,408,427,448,468,488,508,527,548,567,588,608,628,648,667,687,707,727,748,767,787,806,828,847,868,887,908,927,947,967,987,1008,1027,1048,1067,1088,1108,1128,1147,1167,1187,1208,1227,1247,1267,1288,1308,1327,1348,1367,1387,1407,1428,1447,1467,1487,1508,1527,1548,1568,1588,1607,1628,1647,1668,1687,1707,1727,1747],"xSR":741.5,"ySR":469.95,"xT1":424.9,"yT1":0,"xT2":1058.1,"yT2":0,"toosoon":0,"cond_shown":"equaldotsize","ratio_trial":900,"smaller_num":"18","larger_num":"20","correct_side":1,"subjID":"mariaalejandraoledo22","gender":"1","age":"9","school":"4"},{"start_time":1552314030018,"click_time":1552314031318,"finger_time":1552314030857,"fix_duration":917.2584167732163,"trial":29,"RT":839,"MT":461,"sideResp":1,"stimulus":"img/500/equaldotanddens/L/10_Ratio_500_L_4_R_2.png","xmouse":[800,800,800,800,797,796,796,795,795,795,795,794,794,794,793,792,791,791,791,791,791,791,791,791,791,791,791,791,791,791,791,790,790,789,788,787,786,785,783,775,769,765,757,736,723,710,703,698,688,656,637,619,602,588,568,545,526,509,493,478,477,476,476,479,480,481],"ymouse":[506,506,506,506,506,506,506,506,506,506,506,506,506,506,506,506,506,506,506,506,506,506,506,506,506,506,506,506,506,506,506,506,506,506,504,501,500,498,495,485,478,472,466,457,454,449,446,443,435,407,391,374,357,338,295,257,232,211,192,162,151,139,129,112,101,92],"timestamp_mouse":[10,21,42,61,81,99,121,140,160,180,201,221,240,260,281,301,320,340,361,380,400,420,440,460,480,500,520,540,560,580,601,620,641,660,681,701,719,741,759,781,800,821,839,861,879,901,921,940,959,980,1000,1021,1039,1061,1080,1100,1121,1139,1159,1180,1200,1220,1240,1261,1280,1300],"xSR":741.5,"ySR":469.95,"xT1":424.9,"yT1":0,"xT2":1058.1,"yT2":0,"toosoon":0,"cond_shown":"equaldotanddens","ratio_trial":500,"smaller_num":"2","larger_num":"4","correct_side":1,"subjID":"mariaalejandraoledo22","gender":"1","age":"9","school":"4"},{"start_time":1552314034604,"click_time":1552314036417,"finger_time":1552314035799,"fix_duration":623.8324772820043,"trial":30,"RT":1195,"MT":618,"sideResp":1,"stimulus":"img/750/randomdotsizeEA/L/14_Ratio_750_L_8_R_6.png","xmouse":[786,786,786,786,786,786,786,786,786,786,786,786,786,786,786,786,786,786,786,786,786,786,786,786,786,786,786,786,786,786,786,786,786,786,786,786,786,786,786,786,786,786,786,786,786,786,786,786,786,786,786,786,786,786,786,786,784,777,767,740,725,701,675,635,565,541,532,525,520,516,516,514,514,510,498,485,466,449,432,423,423,419,416,403,395,395,399,403,410,424,431],"ymouse":[504,504,504,503,503,503,503,503,503,503,503,503,503,503,503,503,503,503,503,503,503,503,503,503,503,503,503,503,503,503,503,503,503,503,503,503,503,503,503,503,503,503,503,503,503,503,503,503,503,503,503,503,503,503,503,503,501,499,494,485,479,468,458,442,407,392,386,380,374,368,365,357,355,344,323,309,293,276,259,229,217,196,188,160,131,121,110,98,84,50,34],"timestamp_mouse":[14,41,54,74,94,113,134,155,175,194,215,235,255,274,295,314,334,354,373,395,415,434,455,474,495,515,533,555,573,593,615,635,655,675,693,715,735,755,775,795,815,835,855,873,895,915,934,955,975,994,1013,1034,1054,1075,1093,1115,1134,1155,1173,1195,1215,1235,1255,1274,1294,1315,1335,1353,1373,1394,1415,1434,1454,1474,1493,1515,1534,1555,1573,1594,1614,1634,1655,1675,1694,1715,1735,1755,1774,1795,1813],"xSR":741.5,"ySR":469.95,"xT1":424.9,"yT1":0,"xT2":1058.1,"yT2":0,"toosoon":0,"cond_shown":"randomdotsizeEA","ratio_trial":750,"smaller_num":"6","larger_num":"8","correct_side":1,"subjID":"mariaalejandraoledo22","gender":"1","age":"9","school":"4"},{"start_time":1552314058302,"click_time":1552314059779,"finger_time":1552314059098,"fix_duration":960.6362305066126,"trial":31,"RT":796,"MT":681,"sideResp":1,"stimulus":"img/750/equaldotsize/L/14_Ratio_750_L_8_R_6.png","xmouse":[788,788,788,787,786,786,786,786,786,786,786,786,786,786,786,786,786,786,786,786,786,786,786,786,786,786,786,786,786,786,786,786,786,786,786,785,781,761,749,736,716,699,653,639,623,609,590,574,568,560,553,549,547,547,547,547,547,547,547,547,547,546,544,539,534,528,524,524,524,524,524,523,522,521],"ymouse":[527,527,527,530,536,541,543,544,544,544,544,544,544,544,544,544,544,544,544,544,544,544,544,544,544,544,544,544,544,544,544,544,544,544,541,539,530,498,475,443,400,357,271,242,218,200,178,156,147,138,131,127,126,126,126,126,126,126,126,126,126,126,125,124,122,119,115,112,111,108,106,102,100,97],"timestamp_mouse":[16,44,57,76,97,117,137,157,176,196,216,236,257,277,297,317,337,357,377,395,417,437,455,476,495,517,537,556,576,597,616,637,657,675,696,716,737,756,777,796,817,835,856,876,897,915,936,956,977,996,1015,1037,1056,1077,1096,1117,1136,1157,1176,1197,1217,1236,1256,1277,1295,1316,1337,1356,1377,1397,1416,1438,1456,1476],"xSR":741.5,"ySR":469.95,"xT1":424.9,"yT1":0,"xT2":1058.1,"yT2":0,"toosoon":0,"cond_shown":"equaldotsize","ratio_trial":750,"smaller_num":"6","larger_num":"8","correct_side":1,"subjID":"mariaalejandraoledo22","gender":"1","age":"9","school":"4"},{"start_time":1552314061550,"click_time":1552314063119,"finger_time":1552314062298,"fix_duration":250,"trial":32,"RT":748,"MT":821,"sideResp":1,"stimulus":"img/900/randomdotsizeEA/R/11_Ratio_900_L_18_R_20.png","xmouse":[766,766,766,766,766,766,766,767,768,768,768,768,768,768,768,768,768,768,768,768,768,768,768,768,768,768,768,768,768,768,768,768,769,771,778,809,830,851,867,877,894,901,910,926,933,939,939,939,939,939,941,943,947,952,955,951,939,911,854,782,608,526,472,427,415,405,402,399,399,399,399,399,399,399,399,399,399,399,445],"ymouse":[518,518,518,518,518,517,514,512,511,511,511,511,511,511,511,511,511,511,511,511,511,511,511,511,511,511,511,511,511,511,511,511,509,508,503,486,475,462,450,440,412,399,386,370,362,354,353,353,353,353,347,343,335,328,322,317,314,308,293,276,223,183,145,103,78,31,14,0,0,0,0,0,0,0,0,0,0,0,7],"timestamp_mouse":[12,38,48,69,88,108,129,147,167,189,209,229,248,268,288,308,329,347,369,388,409,428,448,468,487,509,528,548,569,588,608,628,648,667,689,708,729,748,769,788,808,828,848,868,889,908,929,948,969,988,1008,1028,1049,1068,1089,1108,1129,1147,1168,1189,1208,1228,1248,1268,1289,1308,1329,1349,1368,1388,1408,1428,1449,1469,1488,1508,1528,1548,1569],"xSR":741.5,"ySR":469.95,"xT1":424.9,"yT1":0,"xT2":1058.1,"yT2":0,"toosoon":0,"cond_shown":"randomdotsizeEA","ratio_trial":900,"smaller_num":"18","larger_num":"20","correct_side":2,"subjID":"mariaalejandraoledo22","gender":"1","age":"9","school":"4"},{"start_time":1552314066730,"click_time":1552314068198,"finger_time":1552314067678,"fix_duration":308.52430402446396,"trial":33,"RT":948,"MT":520,"sideResp":2,"stimulus":"img/900/equaldotsize/R/14_Ratio_900_L_18_R_20.png","xmouse":[798,798,798,798,798,798,798,798,798,798,798,798,798,798,798,798,798,798,798,798,798,799,799,799,799,799,799,799,799,799,799,800,800,800,800,800,800,800,800,800,801,803,807,811,815,821,834,896,930,956,969,977,1000,1018,1039,1058,1072,1086,1088,1091,1092,1092,1092,1092,1092,1092,1092,1091,1091,1091,1091,1091,1091,1091],"ymouse":[531,531,531,531,531,531,531,531,531,531,531,531,531,531,531,531,531,531,531,531,531,530,530,530,530,530,530,530,530,529,529,528,528,528,528,528,528,528,528,528,526,525,523,519,514,508,494,421,381,351,332,318,277,261,246,228,212,183,172,163,156,145,132,129,126,124,121,119,118,116,113,109,101,98],"timestamp_mouse":[11,38,48,67,89,109,128,149,167,188,209,228,249,268,287,307,329,347,368,389,407,428,449,469,487,509,527,548,568,588,609,629,647,668,689,709,729,748,768,788,808,829,848,867,888,907,929,948,967,988,1009,1028,1048,1069,1088,1108,1128,1148,1169,1189,1207,1229,1248,1268,1288,1309,1328,1348,1369,1387,1407,1429,1448,1468],"xSR":741.5,"ySR":469.95,"xT1":424.9,"yT1":0,"xT2":1058.1,"yT2":0,"toosoon":0,"cond_shown":"equaldotsize","ratio_trial":900,"smaller_num":"18","larger_num":"20","correct_side":2,"subjID":"mariaalejandraoledo22","gender":"1","age":"9","school":"4"},{"start_time":1552314070093,"click_time":1552314071558,"finger_time":1552314070958,"fix_duration":553.3172795193304,"trial":34,"RT":865,"MT":600,"sideResp":1,"stimulus":"img/500/randomdotsizeEA/L/8_Ratio_500_L_8_R_4.png","xmouse":[785,786,786,787,787,787,787,787,787,787,787,787,787,787,787,787,787,787,787,787,787,787,787,787,787,787,788,788,788,788,788,788,788,788,788,788,788,788,789,790,793,801,806,827,867,892,920,943,954,953,950,943,933,916,844,792,752,717,685,627,609,597,591,588,588,588,587,586,582,566,555,537,530,505],"ymouse":[504,503,503,501,500,500,500,500,500,500,500,500,500,500,500,500,500,500,500,500,500,500,500,500,500,500,500,500,500,500,500,500,500,500,500,500,500,500,499,497,493,480,474,448,410,389,361,330,309,272,256,232,215,196,151,125,108,94,87,79,78,78,78,78,78,78,78,78,78,77,76,74,72,71],"timestamp_mouse":[12,37,45,65,86,106,125,145,166,185,205,226,245,266,286,305,324,345,366,386,406,426,445,466,486,506,524,545,566,586,605,626,645,665,685,706,726,745,765,786,804,826,845,865,885,905,925,946,964,985,1006,1025,1046,1066,1086,1106,1126,1146,1164,1185,1205,1226,1245,1265,1285,1306,1326,1345,1364,1386,1405,1426,1445,1465],"xSR":741.5,"ySR":469.95,"xT1":424.9,"yT1":0,"xT2":1058.1,"yT2":0,"toosoon":0,"cond_shown":"randomdotsizeEA","ratio_trial":500,"smaller_num":"4","larger_num":"8","correct_side":1,"subjID":"mariaalejandraoledo22","gender":"1","age":"9","school":"4"},{"start_time":1552314091169,"click_time":1552314093038,"finger_time":1552314091178,"fix_duration":250,"trial":35,"RT":9,"MT":1860,"sideResp":2,"stimulus":"img/250/equaldotsize/L/3_Ratio_250_L_8_R_2.png","xmouse":[736,730,730,730,730,730,730,730,730,730,729,728,726,726,726,726,726,726,726,726,725,724,724,722,718,713,705,701,698,698,698,698,698,698,698,698,698,699,700,701,701,701,701,705,710,721,731,745,747,748,750,758,770,783,785,779,768,762,771,788,806,830,880,897,911,930,996,996,996,996,996,996,996,996,996,996,996,996,996,996,996,996,996,996,996,996,996,1245,1244,1242,1239,1224,1165,1143],"ymouse":[533,536,536,536,536,536,536,536,536,536,535,525,507,502,500,500,499,492,480,468,467,466,460,450,435,417,402,396,394,394,394,394,394,394,394,394,394,397,401,403,403,403,403,407,410,415,419,424,424,424,423,404,368,267,207,148,89,43,12,7,7,15,24,25,25,21,6,6,6,6,6,6,6,6,6,6,6,6,6,6,6,6,6,6,6,6,6,2,5,7,8,10,29,39],"timestamp_mouse":[9,29,49,69,89,110,130,150,169,189,209,229,250,269,290,309,328,349,368,390,409,429,449,469,490,508,528,549,569,590,609,629,649,669,690,709,729,750,768,788,809,828,849,869,889,909,929,950,968,989,1009,1029,1050,1069,1088,1109,1128,1150,1168,1189,1209,1230,1250,1268,1289,1309,1329,1350,1370,1388,1409,1429,1450,1469,1488,1508,1529,1550,1569,1589,1609,1628,1650,1668,1689,1709,1730,1751,1768,1788,1809,1829,1851,1869],"xSR":741.5,"ySR":469.95,"xT1":424.9,"yT1":0,"xT2":1058.1,"yT2":0,"toosoon":0,"cond_shown":"equaldotsize","ratio_trial":250,"smaller_num":"2","larger_num":"8","correct_side":1,"subjID":"mariaalejandraoledo22","gender":"1","age":"9","school":"4"},{"start_time":1552314095151,"click_time":1552314096438,"finger_time":1552314095838,"fix_duration":1050.7018168863801,"trial":36,"RT":687,"MT":600,"sideResp":2,"stimulus":"img/500/randomdotsizeEA/R/9_Ratio_500_L_2_R_4.png","xmouse":[802,802,802,802,802,802,802,802,802,802,802,802,802,802,802,802,802,802,802,802,802,802,802,802,802,802,802,802,802,802,802,802,799,786,731,688,635,589,553,534,534,534,534,534,552,591,654,752,908,1064,1091,1100,1102,1102,1093,1085,1077,1075,1075,1083,1091,1102,1114,1125,1134],"ymouse":[552,552,552,552,552,552,552,552,552,552,552,552,552,552,552,552,552,552,552,552,552,552,552,552,552,552,552,552,552,551,549,543,530,503,434,387,349,316,290,277,277,277,277,277,277,280,290,303,327,334,334,332,328,322,300,282,257,248,227,200,186,170,151,130,93],"timestamp_mouse":[10,39,47,67,88,107,127,146,167,188,208,226,247,267,286,306,326,346,367,386,407,427,447,467,487,508,527,546,566,587,607,626,647,667,687,706,727,748,768,787,807,827,848,868,887,908,926,947,967,987,1007,1028,1047,1067,1086,1107,1127,1147,1168,1187,1207,1228,1247,1268,1287],"xSR":741.5,"ySR":469.95,"xT1":424.9,"yT1":0,"xT2":1058.1,"yT2":0,"toosoon":0,"cond_shown":"randomdotsizeEA","ratio_trial":500,"smaller_num":"2","larger_num":"4","correct_side":2,"subjID":"mariaalejandraoledo22","gender":"1","age":"9","school":"4"},{"start_time":1552314098677,"click_time":1552314099817,"finger_time":1552314099378,"fix_duration":1157.993394104173,"trial":37,"RT":701,"MT":439,"sideResp":1,"stimulus":"img/900/equaldotsize/L/4_Ratio_900_L_20_R_18.png","xmouse":[809,809,809,809,809,809,809,809,809,809,809,809,809,809,809,809,809,809,809,809,809,809,809,809,809,809,809,809,809,809,809,809,809,809,798,780,749,710,614,569,559,555,553,553,553,552,552,552,551,549,547,544,541,533,529,526,525,524],"ymouse":[507,507,507,507,507,507,507,507,507,507,507,507,507,507,507,507,507,507,507,507,507,507,507,507,507,507,507,507,507,507,507,507,507,502,487,465,438,406,330,278,258,244,233,221,217,213,211,206,201,182,160,143,126,95,84,75,66,62],"timestamp_mouse":[11,20,42,60,81,102,121,141,160,181,201,220,242,261,281,301,322,341,361,381,402,421,442,461,482,501,520,541,561,581,602,621,642,661,681,701,721,741,761,781,801,821,841,862,880,901,921,942,961,980,1001,1021,1040,1060,1081,1101,1120,1140],"xSR":741.5,"ySR":469.95,"xT1":424.9,"yT1":0,"xT2":1058.1,"yT2":0,"toosoon":0,"cond_shown":"equaldotsize","ratio_trial":900,"smaller_num":"18","larger_num":"20","correct_side":1,"subjID":"mariaalejandraoledo22","gender":"1","age":"9","school":"4"},{"start_time":1552314103915,"click_time":1552314105019,"finger_time":1552314104597,"fix_duration":856.8462959329438,"trial":38,"RT":682,"MT":422,"sideResp":1,"stimulus":"img/250/equaldotanddens/L/15_Ratio_250_L_12_R_3.png","xmouse":[802,802,802,802,802,802,802,802,802,802,802,802,802,802,802,802,802,802,802,802,802,802,802,802,802,802,802,802,802,802,802,802,774,764,736,696,657,566,546,533,525,521,519,518,517,513,509,507,507,509,509,509,507,503,498,491],"ymouse":[516,516,516,516,516,516,516,516,516,516,516,516,516,516,516,516,516,516,516,516,516,516,516,516,516,516,516,516,516,516,514,510,480,473,457,434,410,350,333,322,315,309,301,294,281,264,234,185,165,152,142,135,125,117,109,98],"timestamp_mouse":[12,23,43,62,84,103,123,143,163,184,204,223,243,263,282,302,323,342,362,383,404,423,444,464,482,503,523,544,563,584,603,622,651,663,682,703,724,743,763,783,803,822,842,864,884,903,923,943,964,983,1002,1024,1043,1062,1083,1104],"xSR":741.5,"ySR":469.95,"xT1":424.9,"yT1":0,"xT2":1058.1,"yT2":0,"toosoon":0,"cond_shown":"equaldotanddens","ratio_trial":250,"smaller_num":"3","larger_num":"12","correct_side":1,"subjID":"mariaalejandraoledo22","gender":"1","age":"9","school":"4"},{"start_time":1552314107335,"click_time":1552314108718,"finger_time":1552314108038,"fix_duration":1156.1656226797252,"trial":39,"RT":703,"MT":680,"sideResp":1,"stimulus":"img/750/randomdotsizeEA/R/7_Ratio_750_L_3_R_4.png","xmouse":[772,769,768,768,768,768,768,768,768,768,768,768,768,768,768,768,768,768,768,768,768,768,768,768,768,768,768,768,768,768,768,768,768,768,764,760,756,756,755,755,755,755,753,748,742,738,725,714,703,690,676,659,624,603,589,576,566,556,554,552,551,550,549,547,544,541,530,523,513,507],"ymouse":[489,482,481,481,481,481,481,481,481,481,481,481,481,481,481,481,481,481,481,481,481,481,481,481,481,481,481,481,481,481,481,481,481,476,472,466,462,462,461,461,461,461,459,441,424,410,382,362,342,325,309,297,283,274,267,260,254,247,243,235,227,201,178,166,153,142,117,107,101,97],"timestamp_mouse":[4,24,53,63,83,102,123,143,164,182,203,222,244,263,284,302,324,344,363,383,403,423,443,463,48