[{"start_time":1552312689219,"click_time":1552312693242,"finger_time":1552312691683,"fix_duration":832.4209824034656,"trial":0,"RT":2464,"MT":1559,"sideResp":2,"stimulus":[],"xmouse":[792,792,792,792,792,792,792,792,792,792,792,792,792,792,792,792,792,792,792,792,792,792,792,792,792,792,792,792,792,792,792,792,792,792,792,792,792,792,792,792,792,792,792,792,792,792,792,792,792,792,792,792,792,792,792,792,792,792,792,792,792,792,792,792,792,792,792,792,792,792,792,792,792,792,792,792,792,792,792,792,792,792,792,792,792,792,792,792,792,792,792,792,792,792,792,798,811,819,822,824,825,827,829,829,829,829,829,829,829,829,829,829,830,830,830,830,830,830,830,831,832,836,839,842,842,842,842,842,842,842,842,842,842,842,842,842,842,842,842,842,842,842,842,842,841,837,836,834,834,834,834,834,834,832,832,832,832,832,832,832,832,832,832,832,832,832,836,859,887,928,984,1041,1095,1192,1227,1252,1260,1263,1269,1275,1283,1289,1292,1292,1286,1274,1262,1257,1256,1256,1253,1249,1246,1237,1236,1236,1236,1236,1221,1196,1166,1139],"ymouse":[528,528,528,528,528,528,528,528,528,528,528,528,528,528,528,528,528,528,528,528,528,528,528,528,528,528,528,528,528,528,528,528,528,528,528,528,528,528,528,528,528,528,528,528,528,528,528,528,528,528,528,528,528,528,528,528,528,528,528,528,528,528,528,528,528,528,528,528,528,528,528,528,528,528,528,528,528,528,528,528,528,528,528,528,528,528,528,528,528,528,528,528,528,528,528,534,543,547,549,554,562,565,565,565,565,565,565,565,565,565,565,565,565,565,565,565,565,565,565,565,565,565,565,567,567,567,567,567,567,567,567,567,567,567,567,567,567,567,567,567,567,567,567,567,567,567,568,568,568,568,568,569,569,571,572,573,573,573,573,573,573,573,573,573,566,556,548,523,504,485,462,437,414,361,341,319,307,297,281,273,263,255,235,227,208,192,174,157,128,115,104,95,90,81,80,80,80,80,78,71,61,53],"timestamp_mouse":[9,23,44,62,84,103,123,142,162,183,204,224,242,263,284,303,323,343,362,382,403,423,443,463,484,504,522,543,563,583,604,623,643,663,683,703,722,742,764,784,803,823,842,862,882,904,923,942,964,983,1003,1023,1043,1062,1082,1104,1122,1143,1164,1183,1204,1223,1243,1263,1283,1304,1323,1343,1364,1383,1403,1423,1443,1464,1483,1502,1522,1543,1562,1584,1604,1624,1643,1662,1682,1702,1724,1743,1763,1784,1803,1822,1842,1863,1883,1903,1923,1943,1963,1983,2003,2023,2043,2064,2082,2104,2124,2143,2162,2182,2202,2223,2244,2264,2282,2302,2324,2344,2363,2382,2403,2423,2444,2464,2483,2502,2523,2543,2562,2583,2603,2623,2644,2663,2683,2702,2722,2744,2763,2784,2803,2823,2842,2862,2882,2904,2924,2942,2962,2983,3003,3023,3042,3062,3083,3103,3123,3142,3164,3184,3203,3224,3243,3264,3282,3303,3323,3344,3363,3382,3403,3423,3444,3462,3484,3503,3522,3543,3562,3582,3603,3624,3645,3662,3684,3703,3723,3742,3763,3782,3804,3822,3843,3863,3884,3903,3922,3943,3963,3982,4003,4023],"xSR":741.5,"ySR":469.95,"xT1":424.9,"yT1":0,"xT2":1058.1,"yT2":0,"toosoon":0,"cond_shown":"Congruent","ratio_trial":100,"L_num":15,"L_den":25,"R_num":13,"R_den":26,"correct_side":1,"subjID":"mariaalejandratoledo2","gender":"1","age":"9","school":"4","test":{"fix_dur":[250,1500],"timestim":1000,"targets_dim":[100,100],"targets_relative_coord":[0.3,0.7],"size_stim":[880,420],"start_dim":[100,100],"size_start":[300,300],"size_fix":60,"samplingrate":20,"img_types":["Congruent","Incongruent"],"ratios":[100,200,300],"rep_conds":19,"nTrials":120,"trials_to_rest":500,"Trials_order":[72,27,16,21,92,22,107,110,101,80,91,84,25,33,1,55,24,10,109,77,4,100,53,88,96,81,69,57,8,34,20,67,76,51,18,82,70,54,32,98,17,11,90,83,79,38,106,12,26,61,102,5,19,14,111,0,93,45,105,56,60,7,36,35,94,99,64,48,58,47,114,118,95,85,74,44,108,62,15,42,13,78,104,119,75,46,52,66,89,112,39,116,59,28,9,23,31,63,30,65,97,49,50,113,71,87,41,40,37,2,68,3,73,43,115,86,6,103,29,117],"cond_shown":["Congruent","Incongruent","Congruent","Incongruent","Congruent","Congruent","Incongruent","Congruent","Incongruent","Congruent","Incongruent","Congruent","Incongruent","Incongruent","Incongruent","Incongruent","Congruent","Congruent","Incongruent","Incongruent","Congruent","Congruent","Incongruent","Congruent","Congruent","Incongruent","Incongruent","Incongruent","Congruent","Congruent","Congruent","Incongruent","Congruent","Incongruent","Congruent","Congruent","Congruent","Congruent","Congruent","Congruent","Incongruent","Incongruent","Congruent","Incongruent","Incongruent","Congruent","Congruent","Congruent","Congruent","Incongruent","Congruent","Incongruent","Incongruent","Congruent","Incongruent","Congruent","Incongruent","Incongruent","Incongruent","Congruent","Congruent","Incongruent","Congruent","Incongruent","Congruent","Incongruent","Congruent","Congruent","Congruent","Incongruent","Congruent","Congruent","Incongruent","Incongruent","Congruent","Congruent","Congruent","Congruent","Incongruent","Congruent","Incongruent","Congruent","Congruent","Incongruent","Incongruent","Congruent","Congruent","Congruent","Incongruent","Congruent","Incongruent","Congruent","Incongruent","Congruent","Incongruent","Incongruent","Incongruent","Incongruent","Congruent","Incongruent","Incongruent","Incongruent","Congruent","Incongruent","Incongruent","Incongruent","Incongruent","Congruent","Incongruent","Congruent","Congruent","Incongruent","Incongruent","Incongruent","Incongruent","Congruent","Congruent","Incongruent","Incongruent","Incongruent"],"ratio_trial":[100,200,300,200,200,300,300,200,300,200,100,100,100,200,100,100,100,300,100,300,300,300,300,300,100,200,200,200,200,300,200,100,300,200,100,300,300,100,200,200,300,300,100,300,100,200,300,100,200,100,100,300,100,200,200,100,200,200,200,200,100,100,100,300,300,200,300,100,300,300,100,300,300,100,200,200,100,200,200,100,100,100,200,300,200,300,300,100,300,300,200,200,300,300,200,300,100,200,100,300,100,100,200,300,300,200,300,300,100,200,200,200,100,100,100,200,100,100,300,200],"left_num":[15,7,20,14,12,11,13,20,8,3,9,4,8,7,1,10,3,20,3,7,4,20,4,8,4,9,14,6,13,20,3,10,24,6,1,1,18,7,9,16,4,13,2,4,17,15,1,15,15,3,11,4,8,8,3,2,1,4,9,7,7,13,3,2,20,4,1,8,20,1,7,8,4,9,5,3,6,4,7,2,8,8,3,8,1,5,5,7,4,8,3,6,1,2,7,4,6,14,11,4,13,2,3,7,13,14,4,20,8,20,3,11,6,13,17,4,11,3,8,1],"right_num":[13,6,14,12,6,4,12,9,9,9,13,15,6,6,8,8,2,14,4,8,2,14,2,1,6,8,6,3,14,14,7,8,8,3,3,19,9,9,13,12,2,12,11,2,10,4,6,13,4,7,4,8,6,3,1,11,2,14,8,18,9,12,4,6,13,14,6,2,8,2,15,10,6,14,14,14,5,3,14,11,6,2,14,9,2,6,7,15,2,10,1,11,2,12,14,2,11,12,6,8,12,6,14,8,12,6,8,13,6,9,14,3,3,6,10,3,4,8,14,3],"left_den":[25,15,25,30,20,22,26,25,10,12,15,10,16,15,2,25,6,25,6,10,5,25,20,16,8,15,30,20,26,25,10,25,30,20,2,3,20,14,30,20,20,26,5,20,30,25,5,25,25,9,22,5,16,15,10,5,3,6,15,15,14,26,20,4,25,6,5,16,25,2,14,15,5,15,10,6,20,8,10,5,16,16,10,10,3,25,25,14,20,15,10,20,2,10,10,20,10,30,22,5,26,4,10,10,26,30,5,25,16,25,10,20,12,26,30,10,22,5,10,2],"right_den":[26,9,28,18,15,20,15,15,18,20,26,30,10,9,20,16,5,28,10,20,4,28,4,5,10,10,9,6,20,28,14,16,16,6,5,30,15,15,26,20,4,15,22,4,15,10,12,26,10,30,10,16,10,9,2,22,15,30,10,27,15,20,16,30,26,30,12,5,16,10,25,12,12,28,20,20,25,10,28,22,10,5,28,18,15,12,14,25,4,12,2,22,10,24,28,4,22,18,15,16,20,15,28,20,15,9,16,26,10,15,28,4,5,10,15,15,10,16,28,10],"correct_side":[1,2,1,2,1,1,2,1,1,2,1,2,2,2,1,2,1,1,1,1,1,1,2,1,2,2,2,2,2,1,2,2,1,2,2,2,1,2,2,1,2,2,2,2,2,1,2,1,1,1,1,1,2,1,2,2,1,1,2,2,2,2,2,1,1,1,2,1,1,1,2,2,1,1,2,2,1,1,1,2,2,1,2,1,1,2,2,2,2,2,2,2,1,2,1,2,1,2,1,1,2,1,2,1,2,2,1,1,2,1,2,2,2,2,2,1,1,1,1,1],"img_shown":["img2/100/Congruent/L/C_Dist_100_LN_15_LD_25_RN_13_RD_26_0.png","img2/200/Incongruent/R/I_Dist_200_LN_7_LD_15_RN_6_RD_9_1.png","img2/300/Congruent/L/C_Dist_300_LN_20_LD_25_RN_14_RD_28_0.png","img2/200/Incongruent/R/I_Dist_200_LN_14_LD_30_RN_12_RD_18_1.png","img2/200/Congruent/L/C_Dist_200_LN_12_LD_20_RN_6_RD_15_0.png","img2/300/Congruent/L/C_Dist_300_LN_11_LD_22_RN_4_RD_20_0.png","img2/300/Incongruent/R/I_Dist_300_LN_13_LD_26_RN_12_RD_15_1.png","img2/200/Congruent/L/C_Dist_200_LN_20_LD_25_RN_9_RD_15_0.png","img2/300/Incongruent/L/I_Dist_300_LN_8_LD_10_RN_9_RD_18_0.png","img2/200/Congruent/R/C_Dist_200_LN_3_LD_12_RN_9_RD_20_1.png","img2/100/Incongruent/L/I_Dist_100_LN_9_LD_15_RN_13_RD_26_0.png","img2/100/Congruent/R/C_Dist_100_LN_4_LD_10_RN_15_RD_30_1.png","img2/100/Incongruent/R/I_Dist_100_LN_8_LD_16_RN_6_RD_10_1.png","img2/200/Incongruent/R/I_Dist_200_LN_7_LD_15_RN_6_RD_9_1.png","img2/100/Incongruent/L/I_Dist_100_LN_1_LD_2_RN_8_RD_20_0.png","img2/100/Incongruent/R/I_Dist_100_LN_10_LD_25_RN_8_RD_16_1.png","img2/100/Congruent/L/C_Dist_100_LN_3_LD_6_RN_2_RD_5_0.png","img2/300/Congruent/L/C_Dist_300_LN_20_LD_25_RN_14_RD_28_0.png","img2/100/Incongruent/L/I_Dist_100_LN_3_LD_6_RN_4_RD_10_0.png","img2/300/Incongruent/L/I_Dist_300_LN_7_LD_10_RN_8_RD_20_0.png","img2/300/Congruent/L/C_Dist_300_LN_4_LD_5_RN_2_RD_4_0.png","img2/300/Congruent/L/C_Dist_300_LN_20_LD_25_RN_14_RD_28_0.png","img2/300/Incongruent/R/I_Dist_300_LN_4_LD_20_RN_2_RD_4_1.png","img2/300/Congruent/L/C_Dist_300_LN_8_LD_16_RN_1_RD_5_0.png","img2/100/Congruent/R/C_Dist_100_LN_4_LD_8_RN_6_RD_10_1.png","img2/200/Incongruent/R/I_Dist_200_LN_9_LD_15_RN_8_RD_10_1.png","img2/200/Incongruent/R/I_Dist_200_LN_14_LD_30_RN_6_RD_9_1.png","img2/200/Incongruent/R/I_Dist_200_LN_6_LD_20_RN_3_RD_6_1.png","img2/200/Congruent/R/C_Dist_200_LN_13_LD_26_RN_14_RD_20_1.png","img2/300/Congruent/L/C_Dist_300_LN_20_LD_25_RN_14_RD_28_0.png","img2/200/Congruent/R/C_Dist_200_LN_3_LD_10_RN_7_RD_14_1.png","img2/100/Incongruent/R/I_Dist_100_LN_10_LD_25_RN_8_RD_16_1.png","img2/300/Congruent/L/C_Dist_300_LN_24_LD_30_RN_8_RD_16_0.png","img2/200/Incongruent/R/I_Dist_200_LN_6_LD_20_RN_3_RD_6_1.png","img2/100/Congruent/R/C_Dist_100_LN_1_LD_2_RN_3_RD_5_1.png","img2/300/Congruent/R/C_Dist_300_LN_1_LD_3_RN_19_RD_30_1.png","img2/300/Congruent/L/C_Dist_300_LN_18_LD_20_RN_9_RD_15_0.png","img2/100/Congruent/R/C_Dist_100_LN_7_LD_14_RN_9_RD_15_1.png","img2/200/Congruent/R/C_Dist_200_LN_9_LD_30_RN_13_RD_26_1.png","img2/200/Congruent/L/C_Dist_200_LN_16_LD_20_RN_12_RD_20_0.png","img2/300/Incongruent/R/I_Dist_300_LN_4_LD_20_RN_2_RD_4_1.png","img2/300/Incongruent/R/I_Dist_300_LN_13_LD_26_RN_12_RD_15_1.png","img2/100/Congruent/R/C_Dist_100_LN_2_LD_5_RN_11_RD_22_1.png","img2/300/Incongruent/R/I_Dist_300_LN_4_LD_20_RN_2_RD_4_1.png","img2/100/Incongruent/R/I_Dist_100_LN_17_LD_30_RN_10_RD_15_1.png","img2/200/Congruent/L/C_Dist_200_LN_15_LD_25_RN_4_RD_10_0.png","img2/300/Congruent/R/C_Dist_300_LN_1_LD_5_RN_6_RD_12_1.png","img2/100/Congruent/L/C_Dist_100_LN_15_LD_25_RN_13_RD_26_0.png","img2/200/Congruent/L/C_Dist_200_LN_15_LD_25_RN_4_RD_10_0.png","img2/100/Incongruent/L/I_Dist_100_LN_3_LD_9_RN_7_RD_30_0.png","img2/100/Congruent/L/C_Dist_100_LN_11_LD_22_RN_4_RD_10_0.png","img2/300/Incongruent/L/I_Dist_300_LN_4_LD_5_RN_8_RD_16_0.png","img2/100/Incongruent/R/I_Dist_100_LN_8_LD_16_RN_6_RD_10_1.png","img2/200/Congruent/L/C_Dist_200_LN_8_LD_15_RN_3_RD_9_0.png","img2/200/Incongruent/R/I_Dist_200_LN_3_LD_10_RN_1_RD_2_1.png","img2/100/Congruent/R/C_Dist_100_LN_2_LD_5_RN_11_RD_22_1.png","img2/200/Incongruent/L/I_Dist_200_LN_1_LD_3_RN_2_RD_15_0.png","img2/200/Incongruent/L/I_Dist_200_LN_4_LD_6_RN_14_RD_30_0.png","img2/200/Incongruent/R/I_Dist_200_LN_9_LD_15_RN_8_RD_10_1.png","img2/200/Congruent/R/C_Dist_200_LN_7_LD_15_RN_18_RD_27_1.png","img2/100/Congruent/R/C_Dist_100_LN_7_LD_14_RN_9_RD_15_1.png","img2/100/Incongruent/R/I_Dist_100_LN_13_LD_26_RN_12_RD_20_1.png","img2/100/Congruent/R/C_Dist_100_LN_3_LD_20_RN_4_RD_16_1.png","img2/300/Incongruent/L/I_Dist_300_LN_2_LD_4_RN_6_RD_30_0.png","img2/300/Congruent/L/C_Dist_300_LN_20_LD_25_RN_13_RD_26_0.png","img2/200/Incongruent/L/I_Dist_200_LN_4_LD_6_RN_14_RD_30_0.png","img2/300/Congruent/R/C_Dist_300_LN_1_LD_5_RN_6_RD_12_1.png","img2/100/Congruent/L/C_Dist_100_LN_8_LD_16_RN_2_RD_5_0.png","img2/300/Congruent/L/C_Dist_300_LN_20_LD_25_RN_8_RD_16_0.png","img2/300/Incongruent/L/I_Dist_300_LN_1_LD_2_RN_2_RD_10_0.png","img2/100/Congruent/R/C_Dist_100_LN_7_LD_14_RN_15_RD_25_1.png","img2/300/Congruent/R/C_Dist_300_LN_8_LD_15_RN_10_RD_12_1.png","img2/300/Incongruent/L/I_Dist_300_LN_4_LD_5_RN_6_RD_12_0.png","img2/100/Incongruent/L/I_Dist_100_LN_9_LD_15_RN_14_RD_28_0.png","img2/200/Congruent/R/C_Dist_200_LN_5_LD_10_RN_14_RD_20_1.png","img2/200/Congruent/R/C_Dist_200_LN_3_LD_6_RN_14_RD_20_1.png","img2/100/Congruent/L/C_Dist_100_LN_6_LD_20_RN_5_RD_25_0.png","img2/200/Congruent/L/C_Dist_200_LN_4_LD_8_RN_3_RD_10_0.png","img2/200/Incongruent/L/I_Dist_200_LN_7_LD_10_RN_14_RD_28_0.png","img2/100/Congruent/R/C_Dist_100_LN_2_LD_5_RN_11_RD_22_1.png","img2/100/Incongruent/R/I_Dist_100_LN_8_LD_16_RN_6_RD_10_1.png","img2/100/Congruent/L/C_Dist_100_LN_8_LD_16_RN_2_RD_5_0.png","img2/200/Congruent/R/C_Dist_200_LN_3_LD_10_RN_14_RD_28_1.png","img2/300/Incongruent/L/I_Dist_300_LN_8_LD_10_RN_9_RD_18_0.png","img2/200/Incongruent/L/I_Dist_200_LN_1_LD_3_RN_2_RD_15_0.png","img2/300/Congruent/R/C_Dist_300_LN_5_LD_25_RN_6_RD_12_1.png","img2/300/Congruent/R/C_Dist_300_LN_5_LD_25_RN_7_RD_14_1.png","img2/100/Congruent/R/C_Dist_100_LN_7_LD_14_RN_15_RD_25_1.png","img2/300/Incongruent/R/I_Dist_300_LN_4_LD_20_RN_2_RD_4_1.png","img2/300/Congruent/R/C_Dist_300_LN_8_LD_15_RN_10_RD_12_1.png","img2/200/Incongruent/R/I_Dist_200_LN_3_LD_10_RN_1_RD_2_1.png","img2/200/Congruent/R/C_Dist_200_LN_6_LD_20_RN_11_RD_22_1.png","img2/300/Incongruent/L/I_Dist_300_LN_1_LD_2_RN_2_RD_10_0.png","img2/300/Congruent/R/C_Dist_300_LN_2_LD_10_RN_12_RD_24_1.png","img2/200/Incongruent/L/I_Dist_200_LN_7_LD_10_RN_14_RD_28_0.png","img2/300/Incongruent/R/I_Dist_300_LN_4_LD_20_RN_2_RD_4_1.png","img2/100/Incongruent/L/I_Dist_100_LN_6_LD_10_RN_11_RD_22_0.png","img2/200/Incongruent/R/I_Dist_200_LN_14_LD_30_RN_12_RD_18_1.png","img2/100/Congruent/L/C_Dist_100_LN_11_LD_22_RN_6_RD_15_0.png","img2/300/Incongruent/L/I_Dist_300_LN_4_LD_5_RN_8_RD_16_0.png","img2/100/Incongruent/R/I_Dist_100_LN_13_LD_26_RN_12_RD_20_1.png","img2/100/Incongruent/L/I_Dist_100_LN_2_LD_4_RN_6_RD_15_0.png","img2/200/Congruent/R/C_Dist_200_LN_3_LD_10_RN_14_RD_28_1.png","img2/300/Incongruent/L/I_Dist_300_LN_7_LD_10_RN_8_RD_20_0.png","img2/300/Incongruent/R/I_Dist_300_LN_13_LD_26_RN_12_RD_15_1.png","img2/200/Incongruent/R/I_Dist_200_LN_14_LD_30_RN_6_RD_9_1.png","img2/300/Incongruent/L/I_Dist_300_LN_4_LD_5_RN_8_RD_16_0.png","img2/300/Congruent/L/C_Dist_300_LN_20_LD_25_RN_13_RD_26_0.png","img2/100/Incongruent/R/I_Dist_100_LN_8_LD_16_RN_6_RD_10_1.png","img2/200/Congruent/L/C_Dist_200_LN_20_LD_25_RN_9_RD_15_0.png","img2/200/Congruent/R/C_Dist_200_LN_3_LD_10_RN_14_RD_28_1.png","img2/200/Incongruent/R/I_Dist_200_LN_11_LD_20_RN_3_RD_4_1.png","img2/100/Incongruent/R/I_Dist_100_LN_6_LD_12_RN_3_RD_5_1.png","img2/100/Incongruent/R/I_Dist_100_LN_13_LD_26_RN_6_RD_10_1.png","img2/100/Incongruent/R/I_Dist_100_LN_17_LD_30_RN_10_RD_15_1.png","img2/200/Congruent/L/C_Dist_200_LN_4_LD_10_RN_3_RD_15_0.png","img2/100/Congruent/L/C_Dist_100_LN_11_LD_22_RN_4_RD_10_0.png","img2/100/Incongruent/L/I_Dist_100_LN_3_LD_5_RN_8_RD_16_0.png","img2/300/Incongruent/L/I_Dist_300_LN_8_LD_10_RN_14_RD_28_0.png","img2/200/Incongruent/L/I_Dist_200_LN_1_LD_2_RN_3_RD_10_0.png"],"dist100_C":[["C_Dist_100_LN_10_LD_25_RN_3_RD_10_0.png","C_Dist_100_LN_11_LD_22_RN_4_RD_10_0.png","C_Dist_100_LN_11_LD_22_RN_6_RD_15_0.png","C_Dist_100_LN_15_LD_25_RN_13_RD_26_0.png","C_Dist_100_LN_3_LD_6_RN_2_RD_5_0.png","C_Dist_100_LN_6_LD_20_RN_5_RD_25_0.png","C_Dist_100_LN_8_LD_16_RN_2_RD_5_0.png","C_Dist_100_LN_9_LD_15_RN_8_RD_16_0.png"],["C_Dist_100_LN_1_LD_2_RN_18_RD_30_1.png","C_Dist_100_LN_1_LD_2_RN_3_RD_5_1.png","C_Dist_100_LN_12_LD_30_RN_13_RD_26_1.png","C_Dist_100_LN_2_LD_5_RN_11_RD_22_1.png","C_Dist_100_LN_2_LD_5_RN_6_RD_12_1.png","C_Dist_100_LN_3_LD_20_RN_4_RD_16_1.png","C_Dist_100_LN_4_LD_10_RN_15_RD_30_1.png","C_Dist_100_LN_4_LD_8_RN_6_RD_10_1.png","C_Dist_100_LN_6_LD_12_RN_15_RD_25_1.png","C_Dist_100_LN_7_LD_14_RN_15_RD_25_1.png","C_Dist_100_LN_7_LD_14_RN_9_RD_15_1.png"]],"dist100_I":[["I_Dist_100_LN_1_LD_2_RN_8_RD_20_0.png","I_Dist_100_LN_2_LD_4_RN_6_RD_15_0.png","I_Dist_100_LN_2_LD_4_RN_8_RD_20_0.png","I_Dist_100_LN_3_LD_5_RN_11_RD_22_0.png","I_Dist_100_LN_3_LD_5_RN_8_RD_16_0.png","I_Dist_100_LN_3_LD_6_RN_4_RD_10_0.png","I_Dist_100_LN_3_LD_9_RN_7_RD_30_0.png","I_Dist_100_LN_4_LD_8_RN_8_RD_20_0.png","I_Dist_100_LN_6_LD_10_RN_11_RD_22_0.png","I_Dist_100_LN_6_LD_10_RN_13_RD_26_0.png","I_Dist_100_LN_6_LD_10_RN_7_RD_14_0.png","I_Dist_100_LN_9_LD_10_RN_20_RD_25_0.png","I_Dist_100_LN_9_LD_15_RN_13_RD_26_0.png","I_Dist_100_LN_9_LD_15_RN_14_RD_28_0.png"],["I_Dist_100_LN_10_LD_25_RN_8_RD_16_1.png","I_Dist_100_LN_10_LD_25_RN_9_RD_18_1.png","I_Dist_100_LN_11_LD_22_RN_9_RD_15_1.png","I_Dist_100_LN_12_LD_24_RN_9_RD_15_1.png","I_Dist_100_LN_12_LD_30_RN_2_RD_4_1.png","I_Dist_100_LN_13_LD_26_RN_12_RD_20_1.png","I_Dist_100_LN_13_LD_26_RN_6_RD_10_1.png","I_Dist_100_LN_17_LD_30_RN_10_RD_15_1.png","I_Dist_100_LN_6_LD_12_RN_3_RD_5_1.png","I_Dist_100_LN_8_LD_16_RN_6_RD_10_1.png","I_Dist_100_LN_8_LD_20_RN_1_RD_2_1.png","I_Dist_100_LN_9_LD_18_RN_6_RD_10_1.png"]],"dist100_S":[["E_Dist_100_LN_2_LD_12_RN_2_RD_30_0.png","E_Dist_100_LN_6_LD_10_RN_6_RD_12_0.png"],["E_Dist_100_LN_6_LD_12_RN_6_RD_10_1.png"]],"dist200_C":[["C_Dist_200_LN_11_LD_22_RN_3_RD_10_0.png","C_Dist_200_LN_12_LD_15_RN_6_RD_10_0.png","C_Dist_200_LN_12_LD_20_RN_6_RD_15_0.png","C_Dist_200_LN_14_LD_28_RN_6_RD_20_0.png","C_Dist_200_LN_15_LD_25_RN_4_RD_10_0.png","C_Dist_200_LN_16_LD_20_RN_12_RD_20_0.png","C_Dist_200_LN_16_LD_30_RN_9_RD_27_0.png","C_Dist_200_LN_20_LD_25_RN_9_RD_15_0.png","C_Dist_200_LN_21_LD_30_RN_2_RD_4_0.png","C_Dist_200_LN_4_LD_10_RN_3_RD_15_0.png","C_Dist_200_LN_4_LD_8_RN_3_RD_10_0.png","C_Dist_200_LN_6_LD_15_RN_3_RD_15_0.png","C_Dist_200_LN_7_LD_21_RN_2_RD_15_0.png","C_Dist_200_LN_8_LD_15_RN_2_RD_6_0.png","C_Dist_200_LN_8_LD_15_RN_3_RD_9_0.png","C_Dist_200_LN_8_LD_15_RN_7_RD_21_0.png","C_Dist_200_LN_9_LD_20_RN_4_RD_16_0.png"],["C_Dist_200_LN_1_LD_2_RN_21_RD_30_1.png","C_Dist_200_LN_13_LD_26_RN_14_RD_20_1.png","C_Dist_200_LN_3_LD_10_RN_11_RD_22_1.png","C_Dist_200_LN_3_LD_10_RN_14_RD_28_1.png","C_Dist_200_LN_3_LD_10_RN_7_RD_14_1.png","C_Dist_200_LN_3_LD_12_RN_9_RD_20_1.png","C_Dist_200_LN_3_LD_6_RN_14_RD_20_1.png","C_Dist_200_LN_5_LD_10_RN_14_RD_20_1.png","C_Dist_200_LN_6_LD_12_RN_7_RD_10_1.png","C_Dist_200_LN_6_LD_20_RN_11_RD_22_1.png","C_Dist_200_LN_7_LD_15_RN_18_RD_27_1.png","C_Dist_200_LN_9_LD_30_RN_13_RD_26_1.png"]],"dist200_I":[["I_Dist_200_LN_1_LD_2_RN_3_RD_10_0.png","I_Dist_200_LN_1_LD_3_RN_2_RD_15_0.png","I_Dist_200_LN_3_LD_4_RN_11_RD_20_0.png","I_Dist_200_LN_4_LD_5_RN_6_RD_10_0.png","I_Dist_200_LN_4_LD_6_RN_14_RD_30_0.png","I_Dist_200_LN_7_LD_10_RN_12_RD_24_0.png","I_Dist_200_LN_7_LD_10_RN_14_RD_28_0.png","I_Dist_200_LN_7_LD_10_RN_8_RD_16_0.png"],["I_Dist_200_LN_11_LD_20_RN_3_RD_4_1.png","I_Dist_200_LN_14_LD_30_RN_12_RD_18_1.png","I_Dist_200_LN_14_LD_30_RN_6_RD_9_1.png","I_Dist_200_LN_3_LD_10_RN_1_RD_2_1.png","I_Dist_200_LN_4_LD_30_RN_1_RD_3_1.png","I_Dist_200_LN_6_LD_20_RN_3_RD_6_1.png","I_Dist_200_LN_7_LD_15_RN_4_RD_6_1.png","I_Dist_200_LN_7_LD_15_RN_6_RD_9_1.png","I_Dist_200_LN_9_LD_15_RN_8_RD_10_1.png"]],"dist200_S":[["E_Dist_200_LN_3_LD_6_RN_3_RD_10_0.png"],["E_Dist_200_LN_3_LD_10_RN_3_RD_6_1.png"]],"dist300_C":[["C_Dist_300_LN_11_LD_22_RN_1_RD_5_0.png","C_Dist_300_LN_11_LD_22_RN_2_RD_10_0.png","C_Dist_300_LN_11_LD_22_RN_4_RD_20_0.png","C_Dist_300_LN_12_LD_24_RN_2_RD_10_0.png","C_Dist_300_LN_18_LD_20_RN_9_RD_15_0.png","C_Dist_300_LN_20_LD_25_RN_13_RD_26_0.png","C_Dist_300_LN_20_LD_25_RN_14_RD_28_0.png","C_Dist_300_LN_20_LD_25_RN_5_RD_10_0.png","C_Dist_300_LN_20_LD_25_RN_8_RD_16_0.png","C_Dist_300_LN_20_LD_25_RN_9_RD_18_0.png","C_Dist_300_LN_24_LD_30_RN_2_RD_4_0.png","C_Dist_300_LN_24_LD_30_RN_8_RD_16_0.png","C_Dist_300_LN_3_LD_6_RN_2_RD_10_0.png","C_Dist_300_LN_4_LD_10_RN_1_RD_10_0.png","C_Dist_300_LN_4_LD_5_RN_2_RD_4_0.png","C_Dist_300_LN_8_LD_16_RN_1_RD_5_0.png","C_Dist_300_LN_9_LD_10_RN_3_RD_5_0.png"],["C_Dist_300_LN_1_LD_20_RN_7_RD_20_1.png","C_Dist_300_LN_1_LD_3_RN_19_RD_30_1.png","C_Dist_300_LN_1_LD_30_RN_8_RD_24_1.png","C_Dist_300_LN_1_LD_5_RN_11_RD_22_1.png","C_Dist_300_LN_1_LD_5_RN_3_RD_6_1.png","C_Dist_300_LN_1_LD_5_RN_6_RD_12_1.png","C_Dist_300_LN_2_LD_10_RN_12_RD_24_1.png","C_Dist_300_LN_2_LD_20_RN_10_RD_25_1.png","C_Dist_300_LN_3_LD_12_RN_11_RD_20_1.png","C_Dist_300_LN_3_LD_6_RN_4_RD_5_1.png","C_Dist_300_LN_4_LD_20_RN_13_RD_26_1.png","C_Dist_300_LN_5_LD_25_RN_6_RD_12_1.png","C_Dist_300_LN_5_LD_25_RN_7_RD_14_1.png","C_Dist_300_LN_7_LD_14_RN_20_RD_25_1.png","C_Dist_300_LN_8_LD_15_RN_10_RD_12_1.png"]],"dist300_I":[["I_Dist_300_LN_1_LD_2_RN_2_RD_10_0.png","I_Dist_300_LN_1_LD_2_RN_3_RD_15_0.png","I_Dist_300_LN_2_LD_4_RN_6_RD_30_0.png","I_Dist_300_LN_3_LD_6_RN_4_RD_20_0.png","I_Dist_300_LN_4_LD_5_RN_6_RD_12_0.png","I_Dist_300_LN_4_LD_5_RN_8_RD_16_0.png","I_Dist_300_LN_7_LD_10_RN_8_RD_20_0.png","I_Dist_300_LN_8_LD_10_RN_14_RD_28_0.png","I_Dist_300_LN_8_LD_10_RN_9_RD_18_0.png"],["I_Dist_300_LN_13_LD_26_RN_12_RD_15_1.png","I_Dist_300_LN_4_LD_20_RN_2_RD_4_1.png"]],"dist300_S":[["E_Dist_300_LN_9_LD_12_RN_9_RD_20_0.png"],["E_Dist_300_LN_18_LD_30_RN_18_RD_20_1.png","E_Dist_300_LN_3_LD_10_RN_3_RD_5_1.png","E_Dist_300_LN_9_LD_20_RN_9_RD_12_1.png"]],"dist500_C":[["C_Dist_500_LN_10_LD_13_RN_7_RD_26_0.png","C_Dist_500_LN_10_LD_15_RN_4_RD_24_0.png","C_Dist_500_LN_12_LD_16_RN_3_RD_12_0.png","C_Dist_500_LN_12_LD_18_RN_4_RD_24_0.png","C_Dist_500_LN_15_LD_18_RN_5_RD_15_0.png","C_Dist_500_LN_15_LD_20_RN_1_RD_4_0.png","C_Dist_500_LN_18_LD_27_RN_1_RD_6_0.png","C_Dist_500_LN_20_LD_24_RN_1_RD_3_0.png","C_Dist_500_LN_20_LD_24_RN_3_RD_9_0.png","C_Dist_500_LN_20_LD_24_RN_7_RD_21_0.png","C_Dist_500_LN_20_LD_28_RN_3_RD_14_0.png","C_Dist_500_LN_21_LD_28_RN_6_RD_24_0.png","C_Dist_500_LN_22_LD_28_RN_2_RD_7_0.png","C_Dist_500_LN_25_LD_30_RN_9_RD_27_0.png","C_Dist_500_LN_4_LD_6_RN_1_RD_6_0.png","C_Dist_500_LN_5_LD_6_RN_2_RD_6_0.png","C_Dist_500_LN_6_LD_9_RN_1_RD_6_0.png","C_Dist_500_LN_7_LD_10_RN_1_RD_5_0.png","C_Dist_500_LN_8_LD_12_RN_1_RD_6_0.png","C_Dist_500_LN_8_LD_12_RN_4_RD_24_0.png"],["C_Dist_500_LN_1_LD_4_RN_12_RD_16_1.png","C_Dist_500_LN_1_LD_4_RN_9_RD_12_1.png","C_Dist_500_LN_1_LD_9_RN_11_RD_18_1.png","C_Dist_500_LN_10_LD_24_RN_22_RD_24_1.png","C_Dist_500_LN_2_LD_12_RN_10_RD_15_1.png","C_Dist_500_LN_2_LD_12_RN_12_RD_18_1.png","C_Dist_500_LN_2_LD_12_RN_4_RD_6_1.png","C_Dist_500_LN_2_LD_24_RN_7_RD_12_1.png","C_Dist_500_LN_2_LD_5_RN_18_RD_20_1.png","C_Dist_500_LN_2_LD_5_RN_9_RD_10_1.png","C_Dist_500_LN_2_LD_8_RN_12_RD_16_1.png","C_Dist_500_LN_2_LD_8_RN_21_RD_28_1.png","C_Dist_500_LN_3_LD_10_RN_4_RD_5_1.png","C_Dist_500_LN_3_LD_12_RN_15_RD_20_1.png","C_Dist_500_LN_3_LD_30_RN_6_RD_10_1.png","C_Dist_500_LN_3_LD_8_RN_14_RD_16_1.png","C_Dist_500_LN_4_LD_16_RN_15_RD_20_1.png","C_Dist_500_LN_4_LD_24_RN_12_RD_18_1.png","C_Dist_500_LN_5_LD_14_RN_6_RD_7_1.png","C_Dist_500_LN_7_LD_21_RN_20_RD_24_1.png","C_Dist_500_LN_7_LD_28_RN_12_RD_16_1.png","C_Dist_500_LN_7_LD_28_RN_9_RD_12_1.png","C_Dist_500_LN_9_LD_27_RN_20_RD_24_1.png"]],"dist500_I":[["I_Dist_500_LN_2_LD_3_RN_4_RD_24_0.png","I_Dist_500_LN_5_LD_6_RN_6_RD_18_0.png","I_Dist_500_LN_7_LD_8_RN_9_RD_24_0.png"],["I_Dist_500_LN_7_LD_21_RN_5_RD_6_1.png"]],"dist500_S":[["E_Dist_500_LN_6_LD_8_RN_6_RD_24_0.png"],["E_Dist_500_LN_2_LD_12_RN_2_RD_3_1.png","E_Dist_500_LN_6_LD_24_RN_6_RD_8_1.png"]]}},{"start_time":1552312696895,"click_time":1552312699142,"finger_time":1552312698542,"fix_duration":250,"trial":1,"RT":1647,"MT":600,"sideResp":1,"stimulus":[],"xmouse":[767,767,767,767,767,767,767,767,767,767,767,767,767,767,767,767,767,767,767,767,767,767,767,767,767,767,767,767,767,767,767,767,767,767,767,767,767,767,767,767,767,767,767,767,767,767,767,767,767,767,767,767,767,767,767,767,767,767,767,767,767,767,767,767,767,767,767,767,767,767,767,767,767,767,767,767,767,767,767,767,767,754,731,696,603,558,525,525,525,525,525,525,525,525,525,525,525,525,525,525,525,525,525,525,525,525,525,525,462,462,462,462,461],"ymouse":[557,557,557,557,557,557,557,557,557,557,557,557,557,557,557,557,557,557,557,557,557,557,557,557,557,557,557,557,557,557,557,557,557,557,557,557,557,557,557,557,557,557,557,557,557,557,557,557,557,557,557,557,557,557,557,557,557,557,557,557,557,557,557,557,557,557,557,557,557,557,557,557,557,557,557,557,557,557,557,557,547,515,456,383,193,101,15,15,15,15,15,15,15,15,15,15,15,15,15,15,15,15,15,15,15,15,15,15,0,0,0,0,1],"timestamp_mouse":[14,37,47,67,88,106,128,148,168,188,207,226,247,268,287,307,328,346,368,387,406,427,448,467,487,507,526,546,567,587,606,627,647,666,686,706,728,748,768,787,807,827,847,867,887,908,928,946,966,987,1007,1026,1048,1067,1087,1107,1127,1147,1168,1187,1206,1226,1246,1267,1287,1308,1327,1347,1366,1386,1407,1427,1446,1467,1487,1507,1526,1547,1568,1587,1607,1628,1647,1666,1687,1707,1727,1747,1768,1787,1807,1826,1846,1866,1887,1906,1927,1946,1966,1988,2006,2027,2048,2066,2088,2106,2127,2146,2166,2187,2208,2226,2247],"xSR":741.5,"ySR":501.8,"xT1":424.9,"yT1":0,"xT2":1058.1,"yT2":0,"toosoon":0,"cond_shown":"Incongruent","ratio_trial":200,"L_num":7,"L_den":15,"R_num":6,"R_den":9,"correct_side":2,"subjID":"mariaalejandratoledo2","gender":"1","school":"4","age":"9"},{"start_time":1552312702906,"click_time":1552312703982,"finger_time":1552312703501,"fix_duration":1042.6809534241129,"trial":2,"RT":595,"MT":481,"sideResp":1,"stimulus":[],"xmouse":[784,784,784,784,784,784,784,784,784,784,784,784,784,784,784,784,784,784,784,784,784,784,784,784,783,781,778,773,764,737,720,708,704,700,697,697,698,699,699,676,656,646,646,646,646,646,646,646,646,646,646,646,646,518],"ymouse":[554,554,554,554,554,554,554,554,554,554,554,554,554,554,554,554,554,554,554,554,553,552,548,544,537,532,527,520,510,483,469,459,452,441,393,334,287,226,190,80,32,11,11,11,11,11,11,11,11,11,11,11,11,14],"timestamp_mouse":[15,42,55,75,95,117,135,156,176,197,216,236,257,275,296,316,336,357,375,397,416,436,456,476,496,516,536,556,577,595,615,635,655,677,696,716,736,756,776,796,815,835,855,876,895,915,935,956,976,995,1015,1035,1056,1076],"xSR":741.5,"ySR":501.8,"xT1":424.9,"yT1":0,"xT2":1058.1,"yT2":0,"toosoon":0,"cond_shown":"Congruent","ratio_trial":300,"L_num":20,"L_den":25,"R_num":14,"R_den":28,"correct_side":1,"subjID":"mariaalejandratoledo2","gender":"1","school":"4","age":"9"},{"start_time":1552312713175,"click_time":1552312714203,"finger_time":1552312713822,"fix_duration":792.3351306416797,"trial":3,"RT":647,"MT":381,"sideResp":1,"stimulus":[],"xmouse":[824,824,824,824,824,824,824,824,824,824,824,824,824,824,824,824,824,824,824,824,824,824,824,824,824,824,824,824,817,794,768,744,679,638,601,579,567,562,559,554,542,527,496,491,491,492,497,505,508,512,514,515],"ymouse":[542,542,542,542,542,542,542,542,542,542,542,542,542,542,542,542,542,542,542,542,542,542,542,542,542,542,542,542,545,553,560,565,555,519,467,418,372,302,279,256,236,216,185,177,172,165,155,137,129,118,107,93],"timestamp_mouse":[13,27,46,67,86,107,126,146,167,188,208,227,248,267,286,307,326,348,368,387,408,426,446,468,488,508,526,546,567,586,607,628,647,667,687,706,726,747,768,786,807,828,847,867,888,907,928,946,966,986,1007,1028],"xSR":741.5,"ySR":501.8,"xT1":424.9,"yT1":0,"xT2":1058.1,"yT2":0,"toosoon":0,"cond_shown":"Incongruent","ratio_trial":200,"L_num":14,"L_den":30,"R_num":12,"R_den":18,"correct_side":2,"subjID":"mariaalejandratoledo2","gender":"1","school":"4","age":"9"},{"start_time":1552312723635,"click_time":1552312733343,"finger_time":1552312725622,"fix_duration":1011.7489634272149,"trial":4,"RT":1987,"MT":7721,"sideResp":2,"stimulus":[],"xmouse":[785,785,785,785,785,785,785,785,785,785,785,785,785,785,785,785,783,782,780,779,777,777,777,777,777,777,776,776,776,776,776,775,775,775,775,775,775,775,775,775,775,775,775,775,775,775,775,775,775,775,775,775,775,775,775,775,775,775,775,775,775,775,775,775,775,775,775,775,775,775,775,775,775,775,775,775,775,775,775,775,775,775,775,775,775,775,775,775,775,775,775,775,775,775,775,775,776,788,800,877,982,1005,1014,1015,1015,1018,1020,1023,1028,1031,1033,1039,1043,1044,1044,1044,1044,1044,1044,1044,1044,1044,1044,1044,1042,1028,1011,997,973,958,940,938,936,936,936,936,936,936,936,936,935,932,930,928,925,924,919,915,914,913,913,912,911,911,911,911,911,911,910,910,908,895,885,873,860,845,825,820,820,820,820,820,819,817,816,813,802,798,797,797,797,797,797,797,797,797,797,797,797,797,797,797,797,797,797,797,797,797,797,797,797,797,797,797,797,797,797,797,797,797,797,797,797,797,797,797,797,797,797,797,797,797,797,797,797,797,797,797,797,797,797,797,797,797,797,797,797,797,797,797,797,797,797,797,797,797,797,797,797,797,797,797,797,797,797,797,797,797,797,797,797,797,797,797,797,797,797,797,797,797,797,797,797,797,797,797,797,797,797,797,797,797,797,797,797,797,797,797,797,797,797,797,797,797,797,797,797,797,797,797,797,797,797,797,797,797,797,797,797,797,797,797,797,797,797,797,797,797,797,797,797,797,797,797,797,797,797,797,797,797,797,797,797,797,797,797,797,797,797,797,797,797,797,797,797,797,797,797,797,797,797,797,797,797,797,797,797,797,797,797,797,797,797,797,797,797,797,797,797,797,797,797,797,797,797,797,797,797,797,797,797,797,797,797,797,797,797,797,797,797,797,797,797,797,797,797,797,797,797,797,797,797,797,797,797,797,797,797,797,797,797,797,797,797,797,796,800,805,805,805,805,805,805,805,805,805,805,805,805,806,810,850,1089,1265,1265,1265,1265,1265,1265,1265,1265,1265,1433,1383,1334,1299,1214,1173,1129,1084,1053,992,976,968,967,967,958,948,936,924,912,903,898,898,898,892,862,840,819,807,805,804,804,804,802,801,801,805,825,850,892,992,1033,1086,1114,1150],"ymouse":[556,556,556,556,556,556,556,556,556,556,556,556,556,556,556,556,557,558,560,561,563,563,564,564,564,564,564,564,565,565,565,565,565,565,565,565,565,565,565,565,565,565,565,565,565,565,565,565,565,565,565,565,565,565,565,565,566,566,566,566,566,566,566,566,566,566,566,566,566,566,566,566,566,566,566,566,566,566,566,566,566,566,566,566,566,566,566,566,566,566,566,566,566,566,566,566,567,568,572,593,627,636,643,644,644,652,666,685,706,709,709,710,710,710,710,710,710,710,710,710,710,710,710,710,710,707,701,697,691,686,679,678,677,677,677,677,677,677,677,677,675,672,670,668,667,666,665,663,661,660,660,659,657,657,657,657,657,657,656,655,653,639,629,617,606,595,582,580,580,580,580,580,580,579,579,578,574,573,573,573,573,573,573,573,573,573,573,573,573,573,573,573,573,573,573,573,573,573,573,573,573,573,573,573,573,573,573,573,573,573,573,573,573,573,573,573,573,573,573,573,573,573,573,573,573,573,573,573,573,573,573,573,573,573,573,573,573,573,573,573,573,573,573,573,573,573,573,573,573,573,573,573,573,573,573,573,573,573,573,573,573,573,573,573,573,573,573,573,573,573,573,573,573,573,573,573,573,573,573,573,573,573,573,573,573,573,573,573,573,573,573,573,573,573,573,573,573,573,573,573,573,573,573,573,573,573,573,573,573,573,573,573,573,573,573,573,573,573,573,573,573,573,573,573,573,573,573,573,573,573,573,573,573,573,573,573,573,573,573,573,573,573,573,573,573,573,573,573,573,573,573,573,573,573,573,573,573,573,573,573,573,573,573,573,573,573,573,573,573,573,573,573,573,573,573,573,573,573,573,573,573,573,573,573,573,573,573,573,573,573,573,573,573,573,573,573,573,573,573,573,573,573,573,573,573,573,573,573,573,573,573,573,573,573,573,572,570,568,568,568,568,568,568,568,568,568,568,568,568,567,566,571,669,729,729,729,729,729,729,729,729,729,752,731,709,694,666,655,646,639,634,626,623,623,623,623,624,624,624,623,617,612,608,608,608,603,589,579,570,562,560,560,560,560,560,559,558,556,550,543,522,422,348,215,136,70],"timestamp_mouse":[15,41,47,66,87,106,127,147,166,186,207,227,248,268,287,306,326,347,368,387,406,427,448,467,487,507,526,548,568,586,606,628,648,668,687,707,728,747,767,788,806,828,848,867,887,907,926,948,968,986,1007,1026,1046,1067,1087,1107,1127,1147,1167,1188,1206,1227,1247,1267,1287,1307,1326,1348,1366,1386,1407,1428,1447,1468,1487,1506,1528,1548,1567,1587,1608,1627,1646,1668,1688,1706,1727,1748,1767,1786,1807,1826,1847,1868,1886,1907,1927,1948,1968,1987,2008,2026,2046,2066,2088,2107,2127,2146,2166,2187,2208,2228,2247,2268,2288,2307,2327,2347,2366,2388,2407,2427,2446,2466,2487,2508,2526,2546,2566,2587,2608,2626,2647,2667,2687,2707,2728,2748,2766,2786,2808,2826,2847,2867,2888,2907,2928,2947,2966,2986,3008,3027,3046,3067,3087,3108,3128,3147,3166,3186,3207,3227,3247,3268,3287,3308,3326,3347,3367,3387,3408,3426,3447,3466,3488,3508,3527,3547,3568,3587,3608,3626,3646,3667,3686,3708,3727,3747,3768,3786,3808,3828,3846,3866,3888,3908,3928,3947,3968,3988,4007,4027,4046,4068,4087,4108,4127,4146,4168,4188,4208,4227,4248,4266,4288,4307,4328,4346,4367,4387,4407,4427,4447,4467,4487,4507,4527,4547,4566,4588,4608,4627,4648,4667,4686,4706,4726,4748,4767,4788,4806,4828,4847,4867,4887,4907,4928,4947,4966,4988,5008,5026,5047,5067,5086,5108,5127,5147,5166,5187,5208,5227,5246,5268,5288,5306,5328,5348,5368,5387,5407,5428,5446,5467,5488,5506,5527,5547,5566,5586,5606,5626,5647,5667,5688,5707,5728,5748,5767,5788,5807,5828,5848,5868,5886,5907,5926,5948,5967,5988,6007,6028,6047,6066,6088,6106,6128,6146,6166,6188,6206,6228,6248,6268,6287,6307,6328,6347,6367,6388,6407,6428,6447,6468,6488,6507,6526,6546,6568,6588,6607,6628,6648,6668,6686,6706,6726,6746,6768,6788,6806,6826,6848,6867,6888,6908,6928,6947,6967,6987,7007,7026,7047,7068,7087,7108,7126,7147,7166,7188,7208,7226,7246,7267,7288,7306,7327,7348,7368,7388,7407,7426,7448,7467,7488,7508,7527,7548,7566,7587,7607,7628,7646,7667,7688,7708,7727,7748,7767,7788,7808,7826,7847,7868,7888,7908,7927,7948,7967,7988,8007,8026,8046,8066,8086,8107,8127,8148,8168,8187,8207,8226,8247,8268,8288,8309,8326,8347,8368,8386,8408,8427,8448,8468,8486,8507,8527,8547,8567,8588,8606,8626,8646,8666,8686,8707,8726,8746,8767,8788,8806,8827,8848,8866,8886,8906,8927,8946,8967,8987,9007,9028,9048,9067,9087,9107,9127,9147,9167,9186,9207,9227,9246,9267,9286,9306,9327,9346,9367,9388,9407,9427,9448,9468,9487,9507,9527,9546,9567,9588,9606,9627,9646,9666,9686,9708],"xSR":741.5,"ySR":501.8,"xT1":424.9,"yT1":0,"xT2":1058.1,"yT2":0,"toosoon":0,"cond_shown":"Congruent","ratio_trial":200,"L_num":12,"L_den":20,"R_num":6,"R_den":15,"correct_side":1,"subjID":"mariaalejandratoledo2","gender":"1","school":"4","age":"9"},{"start_time":1552312735646,"click_time":1552312736943,"finger_time":1552312736281,"fix_duration":681.7477493938051,"trial":5,"RT":635,"MT":662,"sideResp":2,"stimulus":[],"xmouse":[783,783,783,783,783,783,783,783,783,783,783,783,783,783,783,783,783,783,783,783,783,783,783,783,783,783,783,784,791,796,798,801,811,829,856,944,986,1025,1051,1072,1084,1098,1114,1131,1147,1166,1202,1216,1226,1233,1236,1234,1224,1212,1203,1201,1201,1200,1196,1187,1173,1143,1136,1133,1132],"ymouse":[563,563,563,563,563,563,563,563,563,563,563,563,563,563,563,563,563,563,563,563,563,563,563,563,563,563,563,558,542,523,503,474,460,448,432,383,359,341,327,315,308,295,283,274,264,250,218,204,191,179,170,166,164,162,161,161,161,161,161,159,156,141,129,111,91],"timestamp_mouse":[15,35,56,76,95,115,135,157,176,195,217,237,256,276,296,317,337,355,377,397,417,437,455,476,497,517,535,555,575,596,615,635,655,675,695,717,735,756,775,796,816,835,855,875,897,915,935,955,976,996,1017,1037,1055,1075,1097,1116,1135,1156,1176,1195,1216,1235,1255,1275,1296],"xSR":741.5,"ySR":501.8,"xT1":424.9,"yT1":0,"xT2":1058.1,"yT2":0,"toosoon":0,"cond_shown":"Congruent","ratio_trial":300,"L_num":11,"L_den":22,"R_num":4,"R_den":20,"correct_side":1,"subjID":"mariaalejandratoledo2","gender":"1","school":"4","age":"9"},{"start_time":1552312738725,"click_time":1552312739823,"finger_time":1552312739261,"fix_duration":341.8296370563807,"trial":6,"RT":536,"MT":562,"sideResp":1,"stimulus":[],"xmouse":[809,809,809,809,809,809,809,809,809,809,808,808,808,808,808,808,808,808,808,808,808,808,808,802,789,770,747,672,645,618,600,584,570,567,564,561,557,537,529,523,523,523,523,521,518,515,508,501,499,499,499,499,496,490,481],"ymouse":[533,533,533,533,533,533,533,533,533,533,533,533,533,533,533,533,533,533,533,533,533,533,533,530,520,503,483,414,380,348,327,311,281,265,249,235,220,181,170,161,156,152,144,142,137,132,123,110,107,106,106,106,103,100,93],"timestamp_mouse":[20,44,56,76,96,117,137,158,176,196,217,236,258,278,296,316,337,356,377,398,416,436,457,478,498,517,536,557,576,597,617,637,656,678,697,716,736,757,777,797,817,837,858,877,898,917,937,957,977,997,1016,1037,1057,1077,1098],"xSR":741.5,"ySR":501.8,"xT1":424.9,"yT1":0,"xT2":1058.1,"yT2":0,"toosoon":0,"cond_shown":"Incongruent","ratio_trial":300,"L_num":13,"L_den":26,"R_num":12,"R_den":15,"correct_side":2,"subjID":"mariaalejandratoledo2","gender":"1","school":"4","age":"9"},{"start_time":1552312742653,"click_time":1552312755082,"finger_time":1552312754922,"fix_duration":269.9247077921652,"trial":7,"RT":12269,"MT":160,"sideResp":2,"stimulus":[],"xmouse":[772,772,772,772,772,772,772,772,772,773,774,780,784,785,785,785,785,785,785,786,788,792,796,800,801,802,802,803,803,803,803,803,803,803,803,803,803,803,803,803,803,803,803,803,803,803,803,803,803,803,803,803,803,803,803,803,803,803,803,803,803,803,803,803,803,803,803,803,803,803,803,803,803,803,803,803,803,803,803,803,803,803,803,803,803,803,803,804,804,804,804,804,804,804,805,805,805,805,805,805,807,808,810,810,810,810,810,810,810,810,810,810,810,810,810,810,810,810,811,811,811,812,812,812,812,812,812,812,812,812,812,812,812,812,812,812,812,812,812,812,812,812,812,812,812,812,812,812,812,812,812,812,812,812,812,812,812,812,812,812,812,812,812,812,812,812,812,812,812,812,812,812,812,812,812,812,812,812,812,812,812,812,812,812,812,812,812,812,812,812,812,812,812,812,812,812,812,812,812,812,812,812,812,812,812,812,812,812,812,812,812,812,812,812,812,812,812,812,812,812,812,812,812,812,812,812,812,812,812,812,812,812,812,812,812,812,812,812,812,812,812,812,812,812,812,812,812,812,812,812,812,812,812,812,812,812,812,812,812,812,812,812,812,812,812,812,812,812,812,812,812,812,812,812,812,812,812,812,812,812,812,812,812,812,812,812,812,812,812,812,812,812,812,812,812,812,812,812,812,812,812,812,812,812,812,812,812,812,812,812,812,812,812,812,812,812,812,812,812,812,812,812,812,812,812,812,812,812,812,812,812,812,812,812,812,812,812,812,812,812,812,812,812,812,812,812,812,812,812,812,812,812,812,812,812,812,812,812,812,812,812,812,812,812,812,812,812,812,812,812,812,812,812,812,812,812,812,812,812,812,812,812,812,812,812,812,812,812,812,812,812,812,812,812,812,812,812,812,812,812,812,812,812,812,812,812,812,812,812,812,812,812,812,812,812,812,812,812,812,812,812,812,812,812,812,812,812,812,812,812,812,812,812,812,812,812,812,812,812,812,812,812,812,812,812,812,812,812,812,812,812,812,812,812,812,812,812,812,812,812,812,812,812,812,812,812,812,812,812,812,812,812,812,812,812,812,812,812,812,812,812,812,812,812,812,812,812,812,812,812,812,812,812,812,812,812,812,812,812,812,812,812,812,812,812,812,812,812,812,812,812,812,812,812,812,812,812,812,812,812,812,812,812,812,812,812,812,812,812,812,812,812,812,812,812,812,812,812,812,812,812,812,812,812,812,812,812,812,812,812,812,812,812,812,812,812,812,812,812,812,812,812,812,812,812,812,812,812,812,812,812,812,812,812,812,812,812,812,812,812,812,812,812,812,812,812,812,812,812,812,812,812,812,812,812,812,812,812,812,812,812,812,812,812,812,812,812,812,812,812,812,812,812,886,911,914,907,911,974,1008,1046,1111],"ymouse":[570,570,570,570,570,570,570,570,570,572,573,576,577,578,578,578,578,578,578,578,578,580,581,581,582,582,582,582,582,582,582,582,582,582,582,582,582,582,582,582,582,582,582,582,582,582,582,582,582,582,582,582,582,582,582,582,582,582,582,582,582,582,582,582,582,582,582,582,582,582,582,582,582,582,582,582,582,582,582,582,582,582,582,582,582,582,582,583,583,583,583,583,583,583,583,583,583,583,583,583,584,584,584,584,584,584,584,584,584,584,584,584,584,584,584,584,584,584,584,584,584,584,584,584,584,584,584,584,584,584,584,584,584,584,584,584,584,584,584,584,584,584,584,584,584,584,584,584,584,584,584,584,584,584,584,584,584,584,584,584,584,584,584,584,584,584,584,584,584,584,584,584,584,584,584,584,584,584,584,584,584,584,584,584,584,584,584,584,584,584,584,584,584,584,584,584,584,584,584,584,584,584,584,584,584,584,584,584,584,584,584,584,584,584,584,584,584,584,584,584,584,584,584,584,584,584,584,584,584,584,584,584,584,584,584,584,584,584,584,584,584,584,584,584,584,584,584,584,584,584,584,584,584,584,584,584,584,584,584,584,584,584,584,584,584,584,584,584,584,584,584,584,584,584,584,584,584,584,584,584,584,584,584,584,584,584,584,584,584,584,584,584,584,584,584,584,584,584,584,584,584,584,584,584,584,584,584,584,584,584,584,584,584,584,584,584,584,584,584,584,584,584,584,584,584,584,584,584,584,584,584,584,584,584,584,584,584,584,584,584,584,584,584,584,584,584,584,584,584,584,584,584,584,584,584,584,584,584,584,584,584,584,584,584,584,584,584,584,584,584,584,584,584,584,584,584,584,584,584,584,584,584,584,584,584,584,584,584,584,584,584,584,584,584,584,584,584,584,584,584,584,584,584,584,584,584,584,584,584,584,584,584,584,584,584,584,584,584,584,584,584,584,584,584,584,584,584,584,584,584,584,584,584,584,584,584,584,584,584,584,584,584,584,584,584,584,584,584,584,584,584,584,584,584,584,584,584,584,584,584,584,584,584,584,584,584,584,584,584,584,584,584,584,584,584,584,584,584,584,584,584,584,584,584,584,584,584,584,584,584,584,584,584,584,584,584,584,584,584,584,584,584,584,584,584,584,584,584,584,584,584,584,584,584,584,584,584,584,584,584,584,584,584,584,584,584,584,584,584,584,584,584,584,584,584,584,584,584,584,584,584,584,584,584,584,584,584,584,584,584,584,584,584,584,584,584,584,584,584,584,584,584,584,584,584,584,584,584,584,584,584,584,584,584,584,584,584,584,584,584,584,584,584,584,584,584,584,584,584,584,584,584,584,584,584,584,584,584,584,584,584,584,584,584,584,584,584,584,584,584,584,584,584,503,441,417,402,377,248,180,113,32],"timestamp_mouse":[10,42,53,69,90,110,130,150,169,190,208,229,249,269,289,308,328,349,370,389,408,429,449,470,489,508,528,549,569,588,608,630,649,669,690,710,728,749,768,790,810,829,848,870,888,910,928,950,969,988,1010,1030,1050,1068,1089,1110,1130,1149,1168,1189,1209,1230,1249,1269,1288,1308,1329,1350,1369,1389,1409,1429,1449,1470,1490,1510,1530,1549,1569,1588,1609,1629,1648,1670,1690,1708,1730,1749,1768,1788,1808,1830,1849,1870,1889,1909,1930,1950,1968,1989,2008,2028,2049,2069,2090,2109,2129,2149,2170,2189,2210,2228,2250,2270,2289,2309,2329,2348,2369,2390,2409,2428,2449,2470,2488,2509,2529,2548,2570,2589,2608,2628,2649,2670,2690,2709,2729,2749,2770,2789,2810,2830,2849,2870,2888,2909,2930,2949,2968,2989,3008,3028,3049,3070,3088,3109,3130,3148,3169,3189,3210,3229,3249,3269,3290,3309,3329,3349,3370,3389,3410,3429,3449,3468,3489,3510,3530,3548,3569,3590,3609,3629,3650,3670,3690,3708,3729,3749,3769,3789,3808,3829,3849,3870,3890,3909,3929,3948,3968,3988,4009,4029,4050,4069,4088,4108,4129,4150,4169,4188,4214,4229,4250,4268,4290,4308,4328,4350,4368,4388,4410,4429,4450,4469,4489,4509,4529,4549,4569,4589,4609,4628,4649,4669,4690,4709,4728,4750,4769,4789,4808,4829,4848,4870,4890,4909,4929,4950,4969,4989,5010,5029,5048,5070,5088,5109,5129,5150,5169,5189,5210,5228,5250,5268,5288,5308,5328,5348,5368,5390,5409,5429,5448,5470,5490,5510,5530,5550,5568,5589,5608,5630,5649,5669,5690,5710,5730,5748,5768,5789,5810,5828,5848,5869,5889,5909,5930,5948,5969,5988,6010,6030,6049,6069,6090,6109,6128,6148,6168,6189,6209,6230,6249,6269,6289,6310,6330,6348,6369,6389,6410,6428,6448,6470,6488,6510,6528,6549,6570,6590,6609,6629,6649,6670,6688,6708,6728,6749,6769,6788,6808,6830,6849,6869,6889,6910,6929,6949,6968,6988,7010,7029,7049,7069,7088,7108,7129,7149,7169,7188,7208,7229,7248,7269,7290,7309,7328,7348,7369,7389,7408,7430,7449,7469,7489,7509,7529,7548,7569,7588,7608,7630,7649,7669,7689,7709,7729,7748,7770,7789,7809,7828,7848,7870,7890,7909,7930,7949,7969,7990,8010,8030,8049,8068,8089,8108,8130,8149,8169,8190,8209,8228,8249,8268,8290,8310,8328,8349,8369,8390,8410,8428,8449,8469,8489,8510,8529,8549,8569,8590,8609,8629,8649,8668,8689,8709,8730,8749,8769,8789,8810,8829,8849,8869,8890,8910,8929,8949,8969,8990,9010,9029,9049,9070,9090,9109,9129,9149,9170,9188,9208,9228,9249,9269,9290,9309,9328,9350,9369,9389,9408,9428,9450,9470,9489,9508,9530,9550,9570,9589,9609,9629,9648,9669,9690,9709,9730,9750,9770,9789,9808,9828,9850,9870,9889,9909,9929,9948,9968,9989,10010,10030,10049,10069,10090,10108,10129,10149,10170,10189,10209,10230,10250,10269,10289,10309,10329,10350,10368,10389,10408,10428,10450,10469,10488,10510,10530,10550,10568,10589,10610,10628,10650,10669,10690,10708,10728,10750,10768,10789,10808,10828,10850,10868,10888,10910,10929,10949,10968,10990,11010,11029,11049,11068,11088,11109,11128,11150,11169,11188,11209,11228,11249,11269,11290,11308,11329,11349,11369,11388,11410,11429,11448,11469,11489,11509,11529,11548,11570,11590,11609,11628,11648,11669,11690,11709,11730,11750,11769,11788,11808,11829,11848,11869,11890,11910,11928,11949,11969,11989,12009,12029,12048,12070,12089,12109,12128,12148,12169,12190,12210,12229,12249,12269,12289,12309,12329,12349,12368,12390,12409,12429],"xSR":741.5,"ySR":501.8,"xT1":424.9,"yT1":0,"xT2":1058.1,"yT2":0,"toosoon":0,"cond_shown":"Congruent","ratio_trial":200,"L_num":20,"L_den":25,"R_num":9,"R_den":15,"correct_side":1,"subjID":"mariaalejandratoledo2","gender":"1","school":"4","age":"9"},{"start_time":1552312760486,"click_time":1552312762723,"finger_time":1552312761261,"fix_duration":401.1503342683927,"trial":8,"RT":775,"MT":1462,"sideResp":2,"stimulus":[],"xmouse":[781,781,781,781,781,781,781,781,781,781,781,781,782,783,783,783,783,783,783,783,783,783,783,783,783,783,783,783,783,783,783,785,787,787,787,787,788,788,788,784,775,761,725,711,699,692,688,688,688,688,688,688,702,710,719,727,759,777,802,805,801,781,781,781,781,781,781,781,781,781,687,782,968,1001,1008,1008,1008,1009,1009,1007,1005,1005,1005,1005,1005,1005,1005,1005,1018,1021,1023,1030,1033,1035,1036,1039,1043,1044,1044,1044,1044,1044,1044,1044,1044,1044,1044,1044,1044,1046,1052,1070],"ymouse":[515,515,515,515,515,515,515,515,515,515,515,515,515,515,515,515,515,515,515,515,515,515,515,515,515,515,515,515,515,515,515,515,513,511,510,509,508,506,500,491,479,463,426,410,395,380,362,359,358,358,358,358,357,357,355,351,314,275,188,127,68,8,8,8,8,8,8,8,8,8,25,54,86,90,91,91,91,89,81,75,66,60,56,56,56,56,56,55,53,53,52,51,50,48,46,43,41,39,39,39,39,39,39,39,39,39,39,39,39,37,37,33],"timestamp_mouse":[16,39,56,77,95,117,137,155,176,195,217,236,255,276,297,316,336,356,377,396,416,436,457,476,495,516,536,555,576,595,616,636,655,675,696,717,736,757,775,795,815,835,855,876,895,916,937,955,975,996,1015,1035,1056,1077,1097,1116,1137,1156,1176,1197,1217,1236,1255,1276,1295,1315,1337,1355,1376,1396,1416,1437,1455,1476,1495,1515,1537,1555,1576,1595,1616,1635,1655,1676,1697,1717,1736,1756,1776,1797,1815,1837,1856,1877,1896,1916,1936,1955,1977,1997,2016,2036,2055,2075,2095,2116,2136,2156,2176,2196,2217,2237],"xSR":741.5,"ySR":501.8,"xT1":424.9,"yT1":0,"xT2":1058.1,"yT2":0,"toosoon":0,"cond_shown":"Incongruent","ratio_trial":300,"L_num":8,"L_den":10,"R_num":9,"R_den":18,"correct_side":1,"subjID":"mariaalejandratoledo2","gender":"1","school":"4","age":"9"},{"start_time":1552312769460,"click_time":1552312770543,"finger_time":1552312770381,"fix_duration":1076.1078489106658,"trial":9,"RT":921,"MT":162,"sideResp":2,"stimulus":[],"xmouse":[758,758,758,758,758,758,758,758,758,762,764,764,764,764,764,764,764,764,764,764,764,764,764,764,763,763,763,763,763,763,763,763,763,763,763,763,763,763,763,763,763,763,763,763,766,779,807,839,875,921,1014,1050,1072,1099,1147],"ymouse":[532,532,532,532,532,532,532,532,532,533,533,533,533,533,534,539,542,542,542,542,542,542,542,542,542,542,542,542,542,542,542,542,542,542,542,542,542,542,542,542,542,542,540,538,531,509,481,447,400,351,236,189,158,121,39],"timestamp_mouse":[11,32,41,62,81,102,123,142,161,183,201,221,243,263,282,302,321,342,363,382,402,423,441,462,483,501,522,543,563,582,602,621,643,663,683,701,721,742,761,783,803,822,841,862,881,901,921,941,962,983,1002,1022,1041,1061,1083],"xSR":741.5,"ySR":501.8,"xT1":424.9,"yT1":0,"xT2":1058.1,"yT2":0,"toosoon":0,"cond_shown":"Congruent","ratio_trial":200,"L_num":3,"L_den":12,"R_num":9,"R_den":20,"correct_side":2,"subjID":"mariaalejandratoledo2","gender":"1","school":"4","age":"9"},{"start_time":1552312775824,"click_time":1552312777721,"finger_time":1552312777342,"fix_duration":521.6555426052793,"trial":10,"RT":1518,"MT":379,"sideResp":1,"stimulus":[],"xmouse":[775,775,775,775,775,775,775,775,775,775,775,775,775,775,775,775,775,775,775,775,775,775,775,775,775,775,775,775,775,775,775,775,775,775,775,775,775,775,775,775,775,775,775,775,775,775,775,775,775,775,775,775,775,775,775,775,775,775,775,775,775,775,775,775,775,775,775,775,775,775,775,776,776,779,781,781,774,755,718,677,646,626,625,625,625,623,617,591,578,570,568,567,559,536,514],"ymouse":[547,547,547,547,547,547,547,547,547,547,547,547,547,547,547,547,547,547,547,547,547,547,547,547,547,547,547,547,547,547,547,547,547,547,547,547,547,547,547,547,547,547,547,547,547,547,547,547,547,547,547,547,547,547,547,547,547,547,547,547,547,547,547,547,547,547,547,547,547,547,547,546,535,521,510,495,461,425,382,336,305,281,279,279,279,278,273,252,236,216,202,190,157,121,99],"timestamp_mouse":[17,39,57,78,99,118,138,158,178,197,217,237,258,278,299,319,338,358,377,397,419,438,458,479,498,517,537,559,578,598,617,638,658,679,697,717,738,758,779,797,817,837,857,877,899,918,938,959,979,999,1019,1038,1057,1078,1098,1119,1138,1159,1179,1198,1218,1237,1259,1279,1298,1318,1338,1358,1379,1398,1418,1438,1457,1478,1499,1518,1538,1557,1578,1597,1617,1639,1657,1678,1697,1717,1739,1758,1777,1798,1817,1839,1857,1877,1897],"xSR":741.5,"ySR":501.8,"xT1":424.9,"yT1":0,"xT2":1058.1,"yT2":0,"toosoon":0,"cond_shown":"Incongruent","ratio_trial":100,"L_num":9,"L_den":15,"R_num":13,"R_den":26,"correct_side":1,"subjID":"mariaalejandratoledo2","gender":"1","school":"4","age":"9"},{"start_time":1552312779174,"click_time":1552312780962,"finger_time":1552312780603,"fix_duration":250,"trial":11,"RT":1429,"MT":359,"sideResp":2,"stimulus":[],"xmouse":[774,774,774,774,774,774,774,774,774,774,774,774,774,774,774,774,774,774,774,774,774,774,774,774,774,774,774,774,774,774,774,774,774,774,774,774,774,774,774,774,775,777,778,779,779,779,779,780,780,780,780,780,780,780,780,780,780,780,780,780,780,780,780,780,780,780,780,781,784,795,836,850,870,888,903,935,950,965,980,990,1009,1019,1028,1038,1048,1071,1080,1090,1105,1119],"ymouse":[566,566,566,566,566,566,566,566,566,566,566,566,566,566,566,566,566,566,566,566,566,566,566,566,566,566,566,566,566,566,566,566,566,566,566,566,566,566,566,566,566,565,565,565,565,565,565,565,565,565,565,565,565,565,565,565,565,565,565,565,565,565,565,565,565,565,565,565,565,560,540,534,524,513,500,458,436,410,381,359,314,292,271,247,224,172,154,134,116,99],"timestamp_mouse":[20,36,47,68,88,108,128,147,167,187,208,228,248,267,288,308,328,347,367,388,408,428,448,467,487,507,527,547,569,589,607,627,647,668,688,708,728,748,767,789,808,829,848,868,889,907,927,949,969,987,1008,1029,1049,1069,1087,1108,1128,1148,1167,1188,1208,1227,1248,1268,1288,1309,1328,1347,1368,1388,1408,1429,1448,1468,1487,1507,1529,1548,1568,1588,1608,1628,1648,1669,1687,1708,1727,1747,1768,1788],"xSR":741.5,"ySR":501.8,"xT1":424.9,"yT1":0,"xT2":1058.1,"yT2":0,"toosoon":0,"cond_shown":"Congruent","ratio_trial":100,"L_num":4,"L_den":10,"R_num":15,"R_den":30,"correct_side":2,"subjID":"mariaalejandratoledo2","gender":"1","school":"4","age":"9"},{"start_time":1552312784256,"click_time":1552312786122,"finger_time":1552312785361,"fix_duration":430.46748593419716,"trial":12,"RT":1105,"MT":761,"sideResp":1,"stimulus":[],"xmouse":[772,772,772,772,772,772,772,772,772,772,772,772,772,772,772,772,772,772,772,772,772,772,772,772,772,772,772,772,772,772,772,772,772,772,772,772,772,772,772,772,772,772,772,772,772,772,772,772,772,772,772,772,772,764,756,734,656,586,509,433,359,324,320,320,320,320,320,312,307,307,307,309,311,311,311,311,313,319,322,337,347,353,365,372,381,390,398,402,402,402,402,402,417,431],"ymouse":[583,583,583,583,583,583,583,583,583,583,583,583,583,583,583,583,583,583,583,583,583,583,583,583,583,583,583,583,583,583,583,583,583,583,583,583,583,583,583,583,583,583,583,583,583,583,583,583,583,583,583,583,583,574,569,556,509,465,412,361,306,272,258,243,224,203,177,117,71,46,29,18,13,12,12,12,11,10,10,10,10,10,10,12,14,16,19,21,21,21,21,21,29,35],"timestamp_mouse":[10,43,45,67,86,107,126,146,165,186,205,226,247,267,285,307,326,347,366,386,407,426,447,466,486,507,526,545,567,587,605,625,647,666,687,706,726,747,766,785,805,826,845,866,886,907,926,947,967,986,1007,1027,1047,1066,1086,1105,1126,1145,1166,1186,1206,1227,1245,1265,1285,1305,1327,1345,1366,1387,1406,1426,1447,1466,1486,1507,1526,1546,1567,1587,1606,1626,1647,1665,1685,1705,1725,1745,1765,1786,1805,1827,1846,1866],"xSR":741.5,"ySR":501.8,"xT1":424.9,"yT1":0,"xT2":1058.1,"yT2":0,"toosoon":0,"cond_shown":"Incongruent","ratio_trial":100,"L_num":8,"L_den":16,"R_num":6,"R_den":10,"correct_side":2,"subjID":"mariaalejandratoledo2","gender":"1","school":"4","age":"9"},{"start_time":1552312788014,"click_time":1552312790982,"finger_time":1552312788901,"fix_duration":250,"trial":13,"RT":887,"MT":2081,"sideResp":1,"stimulus":[],"xmouse":[763,763,763,763,763,763,763,763,763,763,763,763,763,763,763,763,763,763,763,763,763,763,763,763,763,763,763,763,763,762,761,761,761,761,761,761,761,761,761,761,761,760,759,757,732,717,704,694,687,686,686,686,686,686,686,686,686,686,686,686,686,696,721,755,812,816,818,818,818,817,813,806,799,796,795,795,795,795,794,794,793,793,793,793,793,793,793,793,793,793,793,793,793,793,793,793,793,793,793,793,793,793,793,791,786,779,766,744,680,564,534,519,517,517,517,517,517,517,521,537,546,557,567,573,575,570,565,560,557,557,557,557,557,557,557,557,557,557,557,557,557,557,557,547,542,537,531,526,523],"ymouse":[547,547,547,547,547,547,547,547,547,547,547,547,547,547,547,547,547,547,547,547,547,547,547,547,547,547,547,547,547,547,548,549,550,550,550,550,550,550,550,550,550,551,551,552,555,556,556,556,556,556,556,556,556,556,556,556,556,556,556,556,556,556,555,553,550,550,549,549,549,549,549,550,551,551,551,551,551,552,552,552,552,552,552,552,552,552,552,552,552,552,552,552,552,552,552,552,552,552,552,552,552,552,552,549,539,528,510,486,442,391,377,370,368,368,365,362,356,347,332,276,243,205,165,128,70,49,31,20,14,12,12,12,12,12,12,12,12,12,12,12,12,12,12,24,29,35,39,41,42],"timestamp_mouse":[14,39,48,68,87,107,127,148,167,187,208,228,247,268,287,308,328,349,367,387,408,428,447,467,488,507,527,549,568,587,607,628,648,667,688,707,728,747,769,788,808,827,848,867,887,907,928,947,967,988,1009,1028,1048,1067,1087,1107,1127,1147,1167,1187,1208,1227,1247,1268,1288,1308,1327,1347,1367,1387,1408,1428,1448,1467,1489,1508,1527,1547,1568,1587,1607,1628,1648,1667,1688,1707,1728,1747,1767,1787,1808,1828,1848,1867,1889,1907,1927,1948,1967,1987,2008,2027,2048,2067,2087,2108,2127,2148,2167,2188,2208,2227,2248,2268,2287,2307,2327,2348,2367,2387,2407,2427,2447,2468,2489,2507,2527,2547,2568,2587,2608,2629,2647,2668,2687,2708,2728,2747,2768,2787,2807,2828,2848,2868,2887,2907,2927,2947,2968],"xSR":741.5,"ySR":501.8,"xT1":424.9,"yT1":0,"xT2":1058.1,"yT2":0,"toosoon":0,"cond_shown":"Incongruent","ratio_trial":200,"L_num":7,"L_den":15,"R_num":6,"R_den":9,"correct_side":2,"subjID":"mariaalejandratoledo2","gender":"1","school":"4","age":"9"},{"start_time":1552312796094,"click_time":1552312798002,"finger_time":1552312796941,"fix_duration":790.6461775958822,"trial":14,"RT":847,"MT":1061,"sideResp":2,"stimulus":[],"xmouse":[786,786,786,786,786,786,786,786,786,786,786,786,786,786,786,786,786,786,786,786,786,786,786,786,786,786,786,786,786,786,786,786,786,786,786,786,786,786,786,786,787,796,811,838,872,924,934,934,937,947,956,964,962,945,922,903,896,896,896,896,898,948,973,992,1000,1004,1007,1009,1010,1012,1012,1013,1015,1016,1018,1020,1027,1031,1033,1036,1039,1043,1045,1047,1048,1050,1055,1056,1056,1056,1056,1057,1057,1057,1058,1059],"ymouse":[514,514,514,514,514,514,514,514,514,514,514,514,514,514,514,514,514,514,514,514,514,514,514,514,514,514,514,514,514,514,514,514,514,514,514,514,514,514,514,514,515,504,484,453,413,341,310,285,259,238,223,206,202,197,191,188,187,187,187,186,183,167,160,152,146,141,133,131,128,125,120,112,104,101,99,97,96,95,95,95,94,93,93,92,91,91,91,90,90,90,90,90,90,90,90,90],"timestamp_mouse":[13,37,48,67,87,108,128,148,169,188,207,227,247,268,287,308,329,347,368,388,408,427,447,468,488,508,529,549,568,587,608,628,647,668,688,708,729,748,768,787,809,827,847,867,888,909,928,949,968,987,1007,1027,1048,1068,1088,1108,1127,1148,1167,1188,1207,1227,1248,1269,1288,1308,1328,1347,1367,1388,1407,1427,1448,1468,1488,1508,1527,1547,1568,1588,1607,1627,1648,1669,1688,1708,1727,1747,1768,1787,1809,1827,1848,1869,1888,1908],"xSR":741.5,"ySR":501.8,"xT1":424.9,"yT1":0,"xT2":1058.1,"yT2":0,"toosoon":0,"cond_shown":"Incongruent","ratio_trial":100,"L_num":1,"L_den":2,"R_num":8,"R_den":20,"correct_side":1,"subjID":"mariaalejandratoledo2","gender":"1","school":"4","age":"9"},{"start_time":1552312799922,"click_time":1552312800921,"finger_time":1552312800661,"fix_duration":799.2904678157606,"trial":15,"RT":739,"MT":260,"sideResp":1,"stimulus":[],"xmouse":[777,777,777,777,777,777,777,777,777,777,777,777,777,777,777,777,777,777,777,777,777,777,777,777,777,775,773,773,773,773,773,773,773,773,773,773,771,767,754,741,702,661,611,564,524,475,462,450,433,429,426],"ymouse":[527,527,527,527,527,527,527,527,527,527,527,527,527,527,527,527,527,527,527,527,527,527,527,524,521,517,513,512,511,511,511,511,511,511,511,511,508,501,484,467,429,400,366,332,298,235,208,178,138,115,79],"timestamp_mouse":[1,19,40,59,80,100,121,141,159,179,200,221,239,259,280,300,319,339,359,379,400,420,440,459,480,499,520,540,559,580,599,619,639,659,679,699,719,739,759,779,799,819,840,859,879,899,919,939,959,979,999],"xSR":741.5,"ySR":501.8,"xT1":424.9,"yT1":0,"xT2":1058.1,"yT2":0,"toosoon":0,"cond_shown":"Incongruent","ratio_trial":100,"L_num":10,"L_den":25,"R_num":8,"R_den":16,"correct_side":2,"subjID":"mariaalejandratoledo2","gender":"1","school":"4","age":"9"},{"start_time":1552312809609,"click_time":1552312811142,"finger_time":1552312811002,"fix_duration":1467.9715881370762,"trial":16,"RT":1393,"MT":140,"sideResp":1,"stimulus":[],"xmouse":[758,758,758,758,758,758,758,758,758,758,758,758,760,763,763,763,763,763,763,763,763,763,763,763,763,763,763,763,763,763,763,763,763,763,763,763,763,763,763,763,763,763,763,763,763,763,763,763,763,763,763,763,763,763,763,763,763,763,763,763,763,763,763,763,763,763,764,764,759,737,709,627,579,534,507,492,481],"ymouse":[542,542,542,542,542,542,542,542,542,542,542,542,541,540,540,540,540,540,540,540,540,540,540,540,540,540,540,540,540,540,540,540,540,540,540,540,540,540,540,540,540,540,540,540,540,540,540,540,540,540,540,540,540,540,540,540,540,540,540,540,540,540,540,540,540,540,540,534,516,467,417,290,231,175,137,111,88],"timestamp_mouse":[12,33,54,72,93,112,133,152,172,193,212,233,253,272,292,312,333,353,372,392,412,432,453,473,493,513,533,552,572,593,613,632,653,672,694,713,734,752,773,793,812,833,853,872,893,913,932,952,973,993,1014,1032,1053,1073,1092,1112,1132,1153,1173,1192,1212,1232,1252,1272,1293,1312,1333,1352,1373,1393,1412,1433,1453,1472,1492,1512,1533],"xSR":741.5,"ySR":501.8,"xT1":424.9,"yT1":0,"xT2":1058.1,"yT2":0,"toosoon":0,"cond_shown":"Congruent","ratio_trial":100,"L_num":3,"L_den":6,"R_num":2,"R_den":5,"correct_side":1,"subjID":"mariaalejandratoledo2","gender":"1","school":"4","age":"9"},{"start_time":1552312813456,"click_time":1552312814982,"finger_time":1552312814422,"fix_duration":1014.041842143496,"trial":17,"RT":966,"MT":560,"sideResp":1,"stimulus":[],"xmouse":[791,791,791,791,791,791,791,791,791,791,791,791,791,791,791,791,791,791,791,791,791,791,791,791,791,791,791,791,791,791,791,791,791,791,791,791,791,791,791,791,791,791,791,791,791,791,791,782,768,721,687,656,637,627,622,622,622,618,612,604,591,590,590,590,589,579,568,552,539,531,513,504,493,487,483,483,484],"ymouse":[539,539,539,539,539,539,539,539,539,539,539,539,539,539,539,539,539,539,539,539,539,539,539,538,538,538,538,538,538,538,538,538,538,538,538,538,538,538,538,538,538,538,538,538,538,532,522,505,486,443,416,393,378,367,342,327,304,290,277,265,241,236,232,230,229,216,207,195,183,168,138,126,113,106,103,100,98],"timestamp_mouse":[5,26,45,66,86,105,125,146,165,185,206,225,245,266,286,306,326,346,365,385,406,425,446,466,487,505,526,545,566,586,606,626,645,665,685,705,725,745,765,786,806,826,845,865,885,906,925,945,966,987,1005,1026,1045,1065,1086,1105,1126,1145,1166,1185,1205,1226,1245,1267,1285,1305,1325,1345,1365,1385,1405,1426,1446,1466,1485,1505,1526],"xSR":741.5,"ySR":501.8,"xT1":424.9,"yT1":0,"xT2":1058.1,"yT2":0,"toosoon":0,"cond_shown":"Congruent","ratio_trial":300,"L_num":20,"L_den":25,"R_num":14,"R_den":28,"correct_side":1,"subjID":"mariaalejandratoledo2","gender":"1","school":"4","age":"9"},{"start_time":1552312817476,"click_time":1552312819621,"finger_time":1552312818242,"fix_duration":1133.297966056857,"trial":18,"RT":766,"MT":1379,"sideResp":2,"stimulus":[],"xmouse":[796,796,796,796,796,796,796,796,796,796,796,796,796,796,796,796,796,796,796,796,796,796,796,796,796,796,796,796,796,796,796,796,796,795,795,796,799,799,801,807,811,815,818,822,825,825,825,825,825,832,833,833,831,826,810,801,790,778,763,740,734,733,733,733,733,733,733,733,733,736,750,785,819,870,929,1062,1119,1153,1169,1188,1193,1193,1193,1193,1193,1193,1193,1193,1193,1193,1193,1193,1193,1193,1193,1193,1193,1193,1193,1193,1193,1193,1193,1193,1193,1193,1193,1121],"ymouse":[570,570,570,570,570,570,570,570,570,570,570,570,570,570,570,570,570,570,570,570,570,570,570,570,570,570,570,570,570,570,570,570,570,571,575,580,588,599,614,645,660,673,684,693,696,696,696,696,696,683,674,668,661,653,630,613,595,576,556,522,510,507,506,505,505,505,505,505,505,505,499,484,465,437,401,309,256,200,142,43,21,21,21,21,21,21,21,21,21,21,21,21,21,21,21,21,21,21,21,21,21,21,21,21,21,21,21,1],"timestamp_mouse":[6,25,45,65,86,105,125,145,166,186,205,226,245,266,285,306,325,345,366,387,406,425,446,465,485,505,526,545,566,585,606,626,646,666,685,705,725,746,766,786,806,825,845,866,885,905,925,945,965,985,1006,1026,1045,1066,1085,1105,1125,1147,1166,1185,1205,1225,1246,1266,1285,1305,1325,1346,1365,1385,1406,1426,1445,1465,1485,1506,1525,1546,1565,1585,1605,1626,1646,1665,1685,1705,1725,1746,1767,1787,1806,1826,1847,1866,1885,1905,1925,1946,1965,1985,2005,2026,2046,2065,2085,2106,2126,2145],"xSR":741.5,"ySR":501.8,"xT1":424.9,"yT1":0,"xT2":1058.1,"yT2":0,"toosoon":0,"cond_shown":"Incongruent","ratio_trial":100,"L_num":3,"L_den":6,"R_num":4,"R_den":10,"correct_side":1,"subjID":"mariaalejandratoledo2","gender":"1","school":"4","age":"9"},{"start_time":1552312823414,"click_time":1552312824842,"finger_time":1552312824481,"fix_duration":1092.6238134141722,"trial":19,"RT":1067,"MT":361,"sideResp":2,"stimulus":[],"xmouse":[770,770,770,770,770,770,770,770,770,770,770,770,770,770,770,770,770,770,770,770,770,770,770,770,770,770,770,770,770,770,770,770,770,770,770,770,770,770,770,770,770,770,770,770,769,772,776,781,787,789,792,794,799,809,814,821,830,842,868,882,896,910,923,958,971,983,995,1006,1031,1045,1057,1066],"ymouse":[571,571,571,571,571,571,571,571,571,571,571,571,571,571,571,571,571,571,571,571,571,571,571,571,571,571,571,571,571,571,571,571,571,571,571,571,571,571,571,571,571,571,571,571,570,563,555,547,533,529,523,517,506,483,466,449,430,409,368,349,333,319,311,287,276,261,242,223,168,138,117,99],"timestamp_mouse":[8,28,47,67,87,107,129,148,169,187,208,228,247,267,289,307,327,348,368,388,407,427,448,468,488,507,528,547,568,588,607,629,647,668,688,707,728,747,767,788,807,828,849,868,888,907,927,947,967,988,1008,1029,1048,1067,1088,1107,1128,1149,1168,1189,1208,1229,1249,1267,1288,1309,1327,1348,1367,1388,1407,1428],"xSR":741.5,"ySR":501.8,"xT1":424.9,"yT1":0,"xT2":1058.1,"yT2":0,"toosoon":0,"cond_shown":"Incongruent","ratio_trial":300,"L_num":7,"L_den":10,"R_num":8,"R_den":20,"correct_side":1,"subjID":"mariaalejandratoledo2","gender":"1","school":"4","age":"9"},{"start_time":1552312827247,"click_time":1552312828302,"finger_time":1552312828201,"fix_duration":1165.5230333425964,"trial":20,"RT":954,"MT":101,"sideResp":1,"stimulus":[],"xmouse":[809,809,809,809,809,809,809,809,809,809,809,809,809,809,809,809,809,809,809,809,809,809,809,809,809,809,809,809,809,809,810,811,811,811,811,811,811,811,811,811,811,811,811,811,810,807,799,782,765,714,656,534,509],"ymouse":[559,559,559,559,559,559,559,559,559,559,559,559,559,559,559,559,559,559,559,559,559,559,559,559,559,559,559,559,559,555,554,552,552,552,552,552,552,552,552,552,552,552,552,552,548,542,523,458,399,291,212,53,15],"timestamp_mouse":[14,34,54,74,95,114,134,155,175,195,214,235,254,274,294,315,334,355,374,396,416,435,454,474,494,514,535,554,574,594,614,635,655,675,695,715,734,754,774,796,815,834,854,875,894,914,934,954,974,994,1015,1034,1055],"xSR":741.5,"ySR":501.8,"xT1":424.9,"yT1":0,"xT2":1058.1,"yT2":0,"toosoon":0,"cond_shown":"Congruent","ratio_trial":300,"L_num":4,"L_den":5,"R_num":2,"R_den":4,"correct_side":1,"subjID":"mariaalejandratoledo2","gender":"1","school":"4","age":"9"},{"start_time":1552312831682,"click_time":1552312833122,"finger_time":1552312832701,"fix_duration":678.466926806192,"trial":21,"RT":1019,"MT":421,"sideResp":1,"stimulus":[],"xmouse":[786,786,786,786,786,786,786,786,786,786,786,786,786,786,786,786,786,786,786,786,786,786,786,786,786,786,786,786,786,786,786,786,786,786,786,786,786,786,786,786,786,786,786,786,786,786,778,774,773,772,772,765,752,725,680,631,562,556,552,550,545,539,538,538,538,538,534,527,516,503,494,489,489],"ymouse":[544,544,544,544,544,544,544,544,544,544,544,544,544,544,544,544,544,544,544,544,544,544,544,544,544,544,544,544,544,544,544,544,544,544,544,544,544,544,544,544,544,544,544,544,544,544,539,536,531,522,508,466,431,397,356,321,272,266,263,262,261,260,259,259,259,259,251,237,217,190,163,111,91],"timestamp_mouse":[0,21,40,60,80,99,120,139,160,180,200,221,239,259,280,299,320,339,360,379,400,420,439,461,480,500,520,539,559,580,599,620,640,659,680,699,719,740,760,779,799,820,840,861,879,900,920,939,961,980,1000,1019,1040,1059,1079,1100,1119,1139,1159,1180,1200,1220,1240,1259,1279,1299,1319,1339,1361,1381,1400,1420,1440],"xSR":741.5,"ySR":501.8,"xT1":424.9,"yT1":0,"xT2":1058.1,"yT2":0,"toosoon":0,"cond_shown":"Congruent","ratio_trial":300,"L_num":20,"L_den":25,"R_num":14,"R_den":28,"correct_side":1,"subjID":"mariaalejandratoledo2","gender":"1","school":"4","age":"9"},{"start_time":1552312836572,"click_time":1552312839043,"finger_time":1552312838481,"fix_duration":250,"trial":22,"RT":1909,"MT":562,"sideResp":2,"stimulus":[],"xmouse":[801,801,801,801,801,801,802,802,803,803,803,803,805,805,805,805,806,806,806,806,806,806,806,806,806,806,806,806,806,806,806,806,806,806,806,806,804,802,801,800,799,798,798,798,798,798,798,798,798,798,798,798,798,798,798,798,798,798,798,798,798,798,798,798,798,798,798,798,798,798,798,798,798,798,798,798,798,798,798,798,798,798,798,798,798,798,798,798,798,798,798,798,798,802,809,822,866,891,920,930,944,958,958,958,958,958,958,958,958,958,958,1029,1035,1035,1035,1035,1035,1036,1040,1045,1050,1051,1058,1065],"ymouse":[543,543,543,543,543,543,541,539,538,537,536,535,532,530,528,526,524,524,524,524,524,524,524,524,524,524,524,524,524,524,524,524,524,524,525,528,532,536,539,542,544,546,546,546,546,546,546,546,546,546,546,546,546,546,546,546,546,546,546,546,546,546,546,546,546,546,546,546,546,546,546,546,546,546,546,546,546,546,546,546,546,546,546,546,546,546,546,546,546,546,546,546,541,528,508,477,358,281,171,105,48,4,4,4,4,4,4,4,4,4,4,11,14,14,14,14,14,14,14,14,14,15,17,19],"timestamp_mouse":[10,29,50,70,89,111,129,149,170,191,210,229,249,269,290,309,330,349,369,389,410,430,449,469,490,510,529,550,570,590,609,629,650,669,690,710,729,749,770,790,810,829,850,869,890,909,929,950,969,989,1009,1029,1050,1070,1089,1109,1130,1149,1171,1191,1210,1230,1249,1270,1289,1310,1330,1350,1370,1389,1410,1429,1449,1469,1490,1509,1529,1549,1570,1590,1609,1629,1651,1669,1690,1709,1729,1751,1769,1790,1809,1830,1849,1870,1891,1909,1930,1949,1969,1990,2009,2030,2049,2069,2089,2110,2129,2149,2169,2190,2210,2230,2249,2270,2289,2309,2330,2349,2369,2389,2410,2429,2450,2471],"xSR":741.5,"ySR":501.8,"xT1":424.9,"yT1":0,"xT2":1058.1,"yT2":0,"toosoon":0,"cond_shown":"Incongruent","ratio_trial":300,"L_num":4,"L_den":20,"R_num":2,"R_den":4,"correct_side":2,"subjID":"mariaalejandratoledo2","gender":"1","school":"4","age":"9"},{"start_time":1552312842408,"click_time":1552312843903,"finger_time":1552312843301,"fix_duration":846.1578150708325,"trial":23,"RT":893,"MT":602,"sideResp":1,"stimulus":[],"xmouse":[772,772,772,772,772,772,772,772,772,772,772,772,772,772,772,772,772,772,772,772,772,772,772,772,772,769,764,760,759,759,759,759,759,759,759,759,759,759,759,758,756,755,753,752,749,746,745,744,743,733,674,637,591,548,508,469,451,446,440,438,436,436,436,438,441,442,444,447,451,455,463,465,465,464,458],"ymouse":[530,530,529,529,529,529,529,529,529,529,529,529,529,529,529,529,529,529,529,529,529,529,529,529,529,529,529,529,529,529,529,529,529,529,529,529,529,529,529,526,521,517,513,507,496,484,480,478,476,475,462,450,437,420,402,381,350,332,312,292,245,226,210,197,192,189,187,184,178,169,144,130,118,108,96],"timestamp_mouse":[13,34,54,73,94,113,133,153,173,194,213,233,254,273,293,313,334,355,374,394,413,434,454,473,493,513,534,554,574,594,614,634,653,675,693,714,733,754,774,794,813,834,853,873,893,913,934,954,973,993,1013,1033,1054,1073,1094,1113,1134,1155,1173,1194,1213,1235,1253,1275,1294,1313,1334,1354,1373,1394,1413,1434,1453,1473,1495],"xSR":741.5,"ySR":501.8,"xT1":424.9,"yT1":0,"xT2":1058.1,"yT2":0,"toosoon":0,"cond_shown":"Congruent","ratio_trial":300,"L_num":8,"L_den":16,"R_num":1,"R_den":5,"correct_side":1,"subjID":"mariaalejandratoledo2","gender":"1","school":"4","age":"9"},{"start_time":1552312845496,"click_time":1552312849006,"finger_time":1552312848545,"fix_duration":713.5775989313327,"trial":24,"RT":3049,"MT":461,"sideResp":2,"stimulus":[],"xmouse":[787,787,787,787,787,787,787,787,787,787,787,787,787,787,787,787,787,787,787,787,787,787,787,787,787,787,787,787,787,787,787,787,787,787,787,787,787,787,787,787,787,787,787,787,787,787,787,787,787,787,787,787,787,787,787,787,787,787,787,787,787,787,787,787,787,787,787,787,787,787,787,788,794,798,799,801,801,801,801,801,801,801,801,801,801,801,801,801,801,801,801,801,801,801,801,801,801,801,801,801,801,801,801,801,801,801,801,801,801,801,801,801,801,801,801,801,801,801,801,801,801,801,801,801,801,801,801,801,801,801,801,801,801,801,801,801,801,801,801,801,801,801,801,801,801,801,801,801,801,801,810,817,857,872,883,889,898,906,912,918,924,940,949,957,964,970,976,988,1003,1016,1027,1064,1081,1097,1114,1126],"ymouse":[555,555,555,555,555,555,555,555,555,555,555,555,555,555,555,555,555,555,555,555,555,555,555,555,555,555,555,555,555,555,555,555,555,555,555,555,555,555,555,555,555,555,555,555,555,555,555,555,555,555,555,555,555,555,555,555,555,555,555,555,555,555,555,555,555,555,555,555,555,555,555,555,554,551,551,550,550,550,550,550,550,550,550,550,550,550,550,550,550,550,550,550,550,550,550,550,550,550,550,550,550,550,550,550,550,550,550,550,550,550,550,550,550,550,550,550,550,550,550,550,550,550,550,550,550,550,550,550,550,550,550,550,550,550,550,550,550,550,550,550,550,550,550,550,550,550,550,550,550,550,539,533,499,478,453,428,387,362,348,335,323,298,287,277,269,262,256,243,232,221,210,174,156,138,115,95],"timestamp_mouse":[6,25,46,65,85,105,127,146,165,186,206,227,245,266,286,305,326,345,366,386,406,425,447,465,485,505,525,546,565,585,607,626,646,665,686,705,726,745,766,785,805,825,845,865,885,905,925,945,965,985,1006,1025,1045,1065,1085,1105,1125,1145,1165,1185,1205,1225,1245,1265,1285,1305,1325,1345,1365,1385,1405,1425,1445,1465,1485,1505,1525,1545,1565,1585,1605,1625,1645,1665,1685,1705,1725,1745,1765,1785,1805,1825,1845,1865,1887,1907,1927,1947,1966,1987,2006,2027,2047,2066,2086,2105,2125,2145,2165,2185,2205,2225,2245,2265,2285,2305,2325,2345,2365,2385,2405,2426,2445,2465,2486,2505,2529,2549,2569,2589,2609,2629,2649,2669,2689,2709,2729,2749,2769,2789,2809,2829,2849,2869,2889,2909,2929,2949,2969,2989,3009,3029,3049,3069,3089,3108,3130,3149,3170,3189,3209,3229,3249,3269,3289,3309,3330,3350,3370,3389,3409,3429,3449,3470,3489,3510],"xSR":741.5,"ySR":501.8,"xT1":424.9,"yT1":0,"xT2":1058.1,"yT2":0,"toosoon":0,"cond_shown":"Congruent","ratio_trial":100,"L_num":4,"L_den":8,"R_num":6,"R_den":10,"correct_side":2,"subjID":"mariaalejandratoledo2","gender":"1","school":"4","age":"9"},{"start_time":1552312856033,"click_time":1552312857645,"finger_time":1552312856986,"fix_duration":848.3633790674511,"trial":25,"RT":953,"MT":659,"sideResp":1,"stimulus":[],"xmouse":[825,825,825,825,825,825,825,825,825,824,823,809,796,781,769,762,760,760,759,759,759,759,759,759,759,759,759,759,759,759,759,759,759,759,759,759,759,759,759,759,759,759,759,759,759,759,750,704,615,473,165,66,27,22,25,43,45,45,45,45,51,57,68,82,98,110,121,123,130,144,169,181,196,216,237,257,278,281,296,324,425],"ymouse":[545,545,545,545,545,545,545,545,545,545,545,545,545,545,545,545,545,545,545,545,545,545,545,545,545,545,545,545,545,545,545,545,545,545,545,545,545,545,545,545,545,545,545,545,539,533,504,448,395,337,194,134,92,69,51,23,20,20,20,20,20,20,20,20,20,20,20,20,20,20,20,20,20,20,20,20,20,20,20,20,20],"timestamp_mouse":[12,33,52,72,92,112,133,151,172,192,212,231,252,272,293,312,333,353,373,393,412,432,453,473,493,512,533,553,572,593,612,633,653,672,692,713,732,753,773,792,813,832,853,873,892,913,933,953,972,992,1013,1033,1052,1073,1093,1113,1133,1152,1172,1192,1213,1232,1252,1273,1292,1312,1332,1352,1372,1392,1413,1432,1453,1473,1493,1512,1532,1552,1572,1592,1612],"xSR":741.5,"ySR":501.8,"xT1":424.9,"yT1":0,"xT2":1058.1,"yT2":0,"toosoon":0,"cond_shown":"Incongruent","ratio_trial":200,"L_num":9,"L_den":15,"R_num":8,"R_den":10,"correct_side":2,"subjID":"mariaalejandratoledo2","gender":"1","school":"4","age":"9"},{"start_time":1552312859549,"click_time":1552312861465,"finger_time":1552312860605,"fix_duration":361.019012687352,"trial":26,"RT":1056,"MT":860,"sideResp":1,"stimulus":[],"xmouse":[809,809,809,809,809,809,809,809,809,809,809,809,809,809,809,809,809,809,808,808,807,807,807,807,807,807,807,807,807,807,807,807,807,807,807,807,807,807,807,807,807,805,804,804,804,804,804,804,804,803,794,778,755,724,698,649,633,621,613,608,606,606,606,606,606,606,605,604,602,601,591,585,581,578,577,570,563,557,551,546,533,531,530,529,528,526,525,525,524,520,512,511,511,508,505,500],"ymouse":[539,539,539,539,539,539,539,539,539,539,539,539,539,539,539,539,539,540,541,542,544,544,545,545,545,545,545,545,545,545,545,545,545,545,545,545,545,545,543,541,531,527,525,525,525,525,525,525,525,524,516,504,488,467,445,400,379,362,346,332,328,328,328,328,328,328,326,322,315,308,278,267,258,253,248,234,222,209,193,180,150,144,137,132,127,118,114,112,111,111,109,108,108,106,102,96],"timestamp_mouse":[20,36,56,76,97,116,136,156,176,196,216,236,256,276,296,317,336,356,377,396,416,436,456,476,496,516,536,557,576,596,616,636,656,676,697,716,737,757,776,797,817,837,856,877,896,916,936,957,976,997,1016,1036,1056,1076,1097,1116,1136,1156,1176,1196,1217,1237,1255,1277,1296,1316,1336,1356,1377,1396,1416,1437,1457,1477,1497,1517,1538,1557,1576,1596,1616,1637,1657,1676,1697,1717,1736,1756,1777,1796,1816,1836,1856,1876,1895,1916],"xSR":741.5,"ySR":501.8,"xT1":424.9,"yT1":0,"xT2":1058.1,"yT2":0,"toosoon":0,"cond_shown":"Incongruent","ratio_trial":200,"L_num":14,"L_den":30,"R_num":6,"R_den":9,"correct_side":2,"subjID":"mariaalejandratoledo2","gender":"1","school":"4","age":"9"},{"start_time":1552312864902,"click_time":1552312865985,"finger_time":1552312865905,"fix_duration":316.3759074718626,"trial":27,"RT":1003,"MT":80,"sideResp":1,"stimulus":[],"xmouse":[799,799,799,799,799,799,799,799,799,799,799,799,799,799,799,799,799,799,799,799,799,799,799,799,799,799,799,799,799,799,799,799,799,799,799,799,799,799,799,799,799,799,799,799,799,799,799,799,799,798,787,753,695,560,513],"ymouse":[542,542,542,542,542,542,542,542,542,542,542,542,542,542,542,542,542,542,542,542,542,542,542,542,542,542,542,542,542,542,542,542,542,542,542,542,542,542,542,542,542,542,542,542,542,542,542,542,542,537,488,402,308,150,98],"timestamp_mouse":[9,23,44,64,84,104,123,144,164,184,204,224,244,264,284,304,324,343,364,384,404,424,444,463,483,503,524,543,564,583,604,622,643,664,684,703,723,743,763,783,803,824,842,864,883,904,923,943,964,983,1003,1023,1044,1065,1083],"xSR":741.5,"ySR":501.8,"xT1":424.9,"yT1":0,"xT2":1058.1,"yT2":0,"toosoon":0,"cond_shown":"Incongruent","ratio_trial":200,"L_num":6,"L_den":20,"R_num":3,"R_den":6,"correct_side":2,"subjID":"mariaalejandratoledo2","gender":"1","school":"4","age":"9"},{"start_time":1552312869127,"click_time":1552312870907,"finger_time":1552312870785,"fix_duration":1279.7979098024946,"trial":28,"RT":1658,"MT":122,"sideResp":2,"stimulus":[],"xmouse":[782,782,782,782,782,782,782,782,782,782,782,782,782,782,782,782,782,782,782,782,782,782,782,782,782,782,782,782,782,781,775,771,769,767,767,767,767,767,767,767,767,767,767,767,767,767,767,767,767,767,767,767,767,767,767,767,767,767,767,767,767,767,767,767,767,767,767,767,767,767,767,767,767,767,767,767,767,767,767,767,779,783,803,968,1052,1099,1119,1129,1129,1129],"ymouse":[521,521,521,521,521,521,521,521,521,521,521,521,521,521,521,521,521,521,521,521,521,521,521,521,521,521,521,521,521,527,535,538,540,541,541,541,541,541,541,541,541,541,541,541,541,541,541,541,541,541,541,541,541,541,541,541,541,541,541,541,541,541,541,541,541,541,541,541,541,541,541,541,541,541,541,541,541,541,541,542,533,525,505,371,299,252,199,155,113,97],"timestamp_mouse":[1,18,48,58,78,99,118,139,159,179,199,219,238,259,279,298,319,339,359,378,398,419,439,459,479,498,519,539,558,578,599,618,637,658,679,698,718,738,758,779,798,818,839,858,878,898,918,939,958,978,999,1019,1039,1058,1078,1099,1119,1139,1158,1178,1199,1219,1239,1258,1278,1298,1319,1338,1358,1379,1398,1419,1439,1458,1478,1499,1519,1539,1558,1578,1598,1618,1639,1658,1678,1699,1719,1738,1758,1779],"xSR":741.5,"ySR":501.8,"xT1":424.9,"yT1":0,"xT2":1058.1,"yT2":0,"toosoon":0,"cond_shown":"Congruent","ratio_trial":200,"L_num":13,"L_den":26,"R_num":14,"R_den":20,"correct_side":2,"subjID":"mariaalejandratoledo2","gender":"1","school":"4","age":"9"},{"start_time":1552312874058,"click_time":1552312874926,"finger_time":1552312874786,"fix_duration":250,"trial":29,"RT":728,"MT":140,"sideResp":1,"stimulus":[],"xmouse":[800,800,801,801,801,801,801,801,801,801,801,801,801,801,801,801,801,801,801,801,801,801,801,801,801,801,801,801,801,801,801,801,801,801,801,802,799,794,774,742,700,646,531,498],"ymouse":[523,523,524,524,524,524,524,524,524,524,524,524,524,524,524,524,524,524,524,524,524,524,524,524,524,524,524,524,524,524,524,524,524,524,524,516,494,471,419,368,308,238,109,64],"timestamp_mouse":[15,27,47,67,88,108,128,148,167,187,207,228,247,268,287,307,327,347,368,387,407,427,447,468,488,507,528,547,568,588,608,628,648,668,687,706,728,747,768,787,807,827,848,868],"xSR":741.5,"ySR":501.8,"xT1":424.9,"yT1":0,"xT2":1058.1,"yT2":0,"toosoon":0,"cond_shown":"Congruent","ratio_trial":300,"L_num":20,"L_den":25,"R_num":14,"R_den":28,"correct_side":1,"subjID":"mariaalejandratoledo2","gender":"1","school":"4","age":"9"},{"start_time":1552312876769,"click_time":1552312878505,"finger_time":1552312877665,"fix_duration":482.2725086037417,"trial":30,"RT":896,"MT":840,"sideResp":2,"stimulus":[],"xmouse":[781,781,781,781,781,781,781,781,781,781,781,781,781,781,781,781,781,781,781,781,781,780,780,780,780,780,780,780,780,780,780,780,780,780,780,780,780,780,780,780,780,780,789,810,850,905,1043,1110,1179,1238,1285,1304,1306,1306,1306,1305,1305,1304,1302,1296,1288,1261,1246,1232,1216,1204,1190,1188,1188,1188,1188,1188,1188,1186,1185,1182,1180,1180,1180,1180,1180,1180,1180,1180,1180,1173,1155],"ymouse":[547,547,547,547,547,547,547,547,547,547,547,547,547,547,547,547,547,547,549,550,552,553,553,553,553,553,553,553,553,553,553,553,553,553,553,553,553,553,553,553,553,553,545,528,494,439,301,243,193,157,126,98,79,62,47,41,39,39,38,38,38,44,53,61,68,72,73,73,73,73,73,73,73,73,73,71,69,69,69,69,69,69,69,69,69,68,62],"timestamp_mouse":[17,36,57,76,97,116,137,156,176,197,216,237,256,277,297,316,336,356,377,396,417,437,456,477,497,516,536,556,576,596,616,637,656,677,696,716,737,756,777,797,817,836,857,877,896,916,936,956,977,996,1016,1035,1056,1076,1096,1116,1137,1157,1176,1196,1216,1236,1255,1277,1296,1316,1336,1357,1376,1397,1416,1437,1457,1476,1496,1516,1536,1557,1577,1597,1617,1636,1656,1676,1696,1716,1736],"xSR":741.5,"ySR":501.8,"xT1":424.9,"yT1":0,"xT2":1058.1,"yT2":0,"toosoon":0,"cond_shown":"Congruent","ratio_trial":200,"L_num":3,"L_den":10,"R_num":7,"R_den":14,"correct_side":2,"subjID":"mariaalejandratoledo2","gender":"1","school":"4","age":"9"},{"start_time":1552312880213,"click_time":1552312882206,"finger_time":1552312881725,"fix_duration":906.4153043377538,"trial":31,"RT":1512,"MT":481,"sideResp":1,"stimulus":[],"xmouse":[804,804,804,804,804,804,804,804,804,804,804,804,804,804,804,804,804,804,804,804,804,804,804,804,804,804,804,804,804,804,804,804,804,804,804,804,804,804,804,804,804,804,804,804,804,804,804,804,804,804,804,804,804,804,804,804,804,804,804,804,804,804,804,804,804,804,804,804,804,804,804,804,802,799,789,742,708,648,611,578,572,569,565,561,556,555,555,555,555,555,555,555,553,552,547,544,542,537,533,524],"ymouse":[536,536,536,536,536,536,536,536,536,536,536,536,536,536,536,536,536,536,536,536,536,536,536,536,536,536,536,536,536,536,536,536,536,536,536,536,536,536,536,536,536,536,536,536,536,536,536,536,536,536,536,536,536,536,536,536,536,536,536,536,536,536,536,536,536,536,536,536,536,536,536,536,534,526,502,430,390,323,287,239,226,217,210,205,196,194,189,180,174,168,152,144,135,126,111,104,101,94,88,77],"timestamp_mouse":[15,38,52,72,92,112,133,152,172,192,213,233,253,273,292,313,333,353,373,393,413,433,452,472,492,513,532,553,572,592,612,633,652,672,692,712,732,751,773,792,813,833,853,872,892,912,933,952,973,992,1012,1032,1052,1073,1092,1113,1132,1152,1173,1192,1212,1232,1252,1273,1291,1313,1332,1353,1374,1393,1412,1432,1453,1471,1493,1512,1532,1553,1572,1593,1612,1632,1653,1673,1693,1712,1732,1753,1772,1793,1813,1832,1852,1872,1893,1912,1933,1953,1972,1993],"xSR":741.5,"ySR":501.8,"xT1":424.9,"yT1":0,"xT2":1058.1,"yT2":0,"toosoon":0,"cond_shown":"Incongruent","ratio_trial":100,"L_num":10,"L_den":25,"R_num":8,"R_den":16,"correct_side":2,"subjID":"mariaalejandratoledo2","gender":"1","school":"4","age":"9"},{"start_time":1552312884091,"click_time":1552312885366,"finger_time":1552312884965,"fix_duration":684.9798085834777,"trial":32,"RT":874,"MT":401,"sideResp":1,"stimulus":[],"xmouse":[755,755,755,755,755,755,755,757,757,757,758,763,769,771,773,776,782,787,790,794,796,796,796,796,796,796,796,796,796,796,796,796,796,796,796,796,796,796,796,796,795,783,758,736,710,680,634,620,607,594,585,562,553,547,538,517,508,502,498,495,490,469,464,462],"ymouse":[583,583,583,583,583,583,583,584,584,586,586,585,583,581,580,578,572,568,564,559,557,557,557,557,557,557,557,557,557,557,557,557,557,557,557,557,557,557,557,557,555,550,541,536,529,520,503,491,477,459,441,391,372,354,336,293,270,249,228,206,183,132,110,90],"timestamp_mouse":[15,35,53,75,94,114,134,155,175,194,214,235,255,274,294,314,334,355,374,394,413,435,454,475,495,515,534,554,575,595,614,634,654,674,695,714,734,754,774,794,815,834,855,874,895,915,934,954,974,994,1014,1034,1054,1074,1094,1116,1134,1155,1175,1194,1214,1235,1254,1275],"xSR":741.5,"ySR":501.8,"xT1":424.9,"yT1":0,"xT2":1058.1,"yT2":0,"toosoon":0,"cond_shown":"Congruent","ratio_trial":300,"L_num":24,"L_den":30,"R_num":8,"R_den":16,"correct_side":1,"subjID":"mariaalejandratoledo2","gender":"1","school":"4","age":"9"},{"start_time":1552312888342,"click_time":1552312890345,"finger_time":1552312889525,"fix_duration":1094.618677527799,"trial":33,"RT":1183,"MT":820,"sideResp":1,"stimulus":[],"xmouse":[808,808,808,807,807,806,806,806,806,806,806,806,806,806,806,806,806,806,806,806,806,806,806,806,806,806,806,806,806,806,806,806,806,806,806,806,806,806,806,806,806,806,806,806,806,806,806,806,806,806,806,806,806,806,806,806,804,800,778,694,632,559,487,423,303,276,276,276,276,276,276,276,276,276,276,276,276,276,276,276,276,276,276,276,276,314,323,336,342,356,366,381,395,400,402,402,402,403,408,416,443],"ymouse":[546,546,546,545,543,541,541,541,541,541,541,541,541,541,541,541,541,541,541,541,541,541,541,541,541,541,541,541,541,541,541,541,541,541,541,541,541,541,541,541,541,541,541,541,541,541,541,541,541,541,541,541,541,541,541,541,536,532,512,445,388,325,251,181,39,8,8,8,8,8,8,8,8,8,8,8,8,8,8,8,8,8,8,8,8,3,6,9,11,14,16,18,20,20,20,20,20,20,20,21,34],"timestamp_mouse":[12,36,43,64,84,104,124,144,163,183,204,224,243,264,283,304,324,344,364,383,404,424,444,463,483,503,524,544,562,583,604,623,643,663,683,704,724,743,764,783,804,823,844,863,883,903,924,944,964,983,1003,1024,1044,1063,1083,1104,1123,1143,1163,1183,1204,1224,1244,1264,1284,1303,1323,1344,1364,1384,1404,1423,1443,1464,1484,1503,1523,1543,1562,1584,1603,1624,1644,1664,1684,1703,1724,1743,1763,1784,1802,1823,1844,1864,1883,1903,1924,1944,1963,1984,2002],"xSR":741.5,"ySR":501.8,"xT1":424.9,"yT1":0,"xT2":1058.1,"yT2":0,"toosoon":0,"cond_shown":"Incongruent","ratio_trial":200,"L_num":6,"L_den":20,"R_num":3,"R_den":6,"correct_side":2,"subjID":"mariaalejandratoledo2","gender":"1","school":"4","age":"9"},{"start_time":1552312892141,"click_time":1552312894246,"finger_time":1552312893565,"fix_duration":573.3813084134352,"trial":34,"RT":1424,"MT":681,"sideResp":2,"stimulus":[],"xmouse":[779,779,779,779,779,779,779,779,779,779,779,779,779,779,779,779,779,779,779,779,779,779,779,779,779,779,779,779,779,779,779,779,779,780,780,780,780,780,781,781,782,782,782,782,782,782,782,782,782,782,782,782,782,782,782,782,782,782,782,782,782,782,782,782,782,782,782,782,782,792,807,829,851,885,961,981,991,993,992,989,988,988,988,990,994,995,996,997,1001,1025,1038,1047,1050,1050,1050,1051,1051,1051,1051,1051,1051,1051,1052,1053,1063],"ymouse":[529,529,529,529,529,529,529,529,529,529,529,529,529,529,529,529,529,529,529,529,529,529,529,529,529,529,529,529,529,529,529,529,530,531,533,533,533,533,533,534,534,534,534,534,534,534,534,534,534,534,534,534,534,534,534,534,534,534,534,534,534,534,534,534,534,534,534,534,534,525,498,459,419,363,225,177,139,114,94,74,70,65,60,50,44,42,41,41,41,41,41,42,42,42,42,42,42,41,41,41,41,41,42,42,44],"timestamp_mouse":[13,45,64,85,104,125,144,164,185,205,224,244,265,285,305,324,344,364,384,405,424,445,465,485,505,525,545,565,585,605,625,645,663,684,705,724,744,765,785,804,825,844,865,885,905,924,945,965,984,1005,1025,1044,1064,1085,1104,1123,1145,1164,1184,1204,1224,1245,1265,1284,1304,1325,1345,1365,1385,1405,1424,1444,1464,1484,1504,1525,1544,1564,1585,1604,1624,1644,1665,1687,1704,1726,1744,1764,1785,1804,1824,1844,1865,1884,1904,1924,1945,1964,1985,2004,2024,2045,2064,2085,2105],"xSR":741.5,"ySR":501.8,"xT1":424.9,"yT1":0,"xT2":1058.1,"yT2":0,"toosoon":0,"cond_shown":"Congruent","ratio_trial":100,"L_num":1,"L_den":2,"R_num":3,"R_den":5,"correct_side":2,"subjID":"mariaalejandratoledo2","gender":"1","school":"4","age":"9"},{"start_time":1552312896107,"click_time":1552312898905,"finger_time":1552312898146,"fix_duration":661.1701854492638,"trial":35,"RT":2039,"MT":759,"sideResp":2,"stimulus":[],"xmouse":[771,771,771,771,771,771,771,771,771,771,771,771,771,771,771,771,771,771,771,771,771,771,771,771,771,771,771,771,771,772,773,777,777,777,777,777,777,777,777,777,777,777,777,777,777,777,777,777,777,777,777,777,777,777,777,777,777,777,777,777,777,777,777,777,777,777,777,777,777,777,777,777,777,777,777,777,777,777,777,777,777,777,777,777,777,777,777,777,777,777,777,777,777,777,777,777,777,777,783,788,803,849,877,899,920,931,940,942,942,942,944,949,952,956,958,958,964,970,978,993,1008,1025,1026,1027,1028,1028,1028,1030,1030,1032,1035,1040,1042,1044,1045,1047,1053,1054,1058,1060],"ymouse":[554,554,554,554,554,554,554,554,554,554,554,554,554,554,554,554,554,554,554,554,554,554,554,554,554,554,554,554,554,551,549,544,544,544,544,544,544,544,544,544,544,544,544,544,544,544,544,544,544,544,544,544,544,544,544,544,544,544,544,544,544,544,544,544,544,544,544,544,544,544,544,544,544,544,544,544,544,544,544,544,544,544,544,544,544,544,544,544,544,544,544,544,544,544,544,544,544,544,536,529,511,460,434,412,386,371,351,344,336,321,305,266,243,217,171,143,108,101,98,96,93,88,87,85,83,82,82,78,77,74,70,66,65,64,63,63,61,61,59,58],"timestamp_mouse":[19,38,58,78,99,119,138,158,178,199,219,238,259,279,298,319,338,358,378,399,419,438,459,480,499,519,538,559,578,599,619,638,659,678,699,718,738,759,778,798,819,838,858,879,898,919,938,957,979,999,1019,1038,1058,1078,1099,1119,1138,1158,1179,1198,1218,1238,1258,1279,1298,1319,1338,1358,1379,1398,1418,1438,1459,1478,1498,1519,1538,1558,1579,1598,1619,1639,1658,1679,1698,1718,1738,1759,1778,1799,1818,1838,1859,1879,1899,1918,1939,1959,1978,1999,2019,2039,2058,2079,2098,2118,2138,2157,2178,2199,2218,2239,2257,2278,2298,2319,2339,2359,2378,2399,2419,2438,2458,2478,2498,2518,2539,2559,2578,2598,2618,2639,2657,2679,2699,2719,2739,2758,2779,2797],"xSR":741.5,"ySR":501.8,"xT1":424.9,"yT1":0,"xT2":1058.1,"yT2":0,"toosoon":0,"cond_shown":"Congruent","ratio_trial":300,"L_num":1,"L_den":3,"R_num":19,"R_den":30,"correct_side":2,"subjID":"mariaalejandratoledo2","gender":"1","school":"4","age":"9"},{"start_time":1552312901285,"click_time":1552312902225,"finger_time":1552312901966,"fix_duration":358.28951105348614,"trial":36,"RT":681,"MT":259,"sideResp":1,"stimulus":[],"xmouse":[784,784,784,784,784,784,784,784,784,784,784,784,784,784,784,784,784,784,784,784,784,784,784,784,784,784,784,784,784,784,784,784,783,781,750,733,728,725,719,694,679,662,646,626,564,543,530,523],"ymouse":[552,552,552,552,552,552,552,552,552,552,552,552,552,552,552,552,552,552,552,552,552,552,552,552,552,552,552,552,552,552,552,552,543,530,478,467,463,461,452,418,400,379,350,304,160,111,70,40],"timestamp_mouse":[11,20,46,61,80,101,121,141,160,180,201,220,240,261,281,300,321,340,360,381,400,420,440,461,481,500,521,540,561,580,601,621,640,661,681,700,720,741,760,780,800,820,840,861,880,900,920,940],"xSR":741.5,"ySR":501.8,"xT1":424.9,"yT1":0,"xT2":1058.1,"yT2":0,"toosoon":0,"cond_shown":"Congruent","ratio_trial":300,"L_num":18,"L_den":20,"R_num":9,"R_den":15,"correct_side":1,"subjID":"mariaalejandratoledo2","gender":"1","school":"4","age":"9"},{"start_time":1552312907642,"click_time":1552312909131,"finger_time":1552312908630,"fix_duration":1294.0188715624247,"trial":37,"RT":988,"MT":501,"sideResp":2,"stimulus":[],"xmouse":[795,795,795,795,795,795,795,795,795,795,795,795,795,795,795,795,795,795,795,795,795,795,795,795,795,795,795,795,795,795,795,795,795,795,795,795,795,795,795,795,795,795,795,795,795,795,798,801,804,808,812,831,846,861,874,900,931,983,997,1006,1014,1028,1038,1044,1044,1044,1044,1044,1044,1044,1044,1044,1044,1058,1062],"ymouse":[536,536,536,536,536,536,536,536,536,536,536,536,536,536,536,536,536,536,536,536,536,536,536,536,536,536,536,536,536,536,536,536,536,536,536,536,536,536,536,536,536,536,536,536,536,536,529,516,504,489,474,434,408,372,342,301,260,172,130,95,68,31,12,1,1,1,1,1,1,1,1,1,1,1,27],"timestamp_mouse":[14,38,43,63,84,104,123,143,164,184,204,224,244,263,283,304,323,344,364,383,407,428,448,469,487,507,528,549,568,588,608,628,648,668,688,708,728,747,767,788,807,828,847,868,888,908,928,948,968,988,1008,1028,1047,1069,1087,1108,1127,1147,1168,1188,1207,1228,1247,1268,1287,1307,1327,1347,1368,1388,1408,1428,1447,1467,1488],"xSR":741.5,"ySR":501.8,"xT1":424.9,"yT1":0,"xT2":1058.1,"yT2":0,"toosoon":0,"cond_shown":"Congruent","ratio_trial":100,"L_num":7,"L_den":14,"R_num":9,"R_den":15,"correct_side":2,"subjID":"mariaalejandratoledo2","gender":"1","school":"4","age":"9"},{"start_time":1552312911246,"click_time":1552312913289,"finger_time":1552312912589,"fix_duration":795.5156027232321,"trial":38,"RT":1343,"MT":700,"sideResp":1,"stimulus":[],"xmouse":[793,793,793,793,793,793,793,793,793,793,793,793,793,793,793,793,793,793,793,793,793,793,793,793,793,793,793,793,793,793,793,793,793,793,793,793,793,793,793,793,793,793,793,793,793,793,793,793,793,793,793,793,793,793,794,794,794,794,794,794,794,794,794,794,794,794,794,782,768,754,740,725,700,695,688,683,679,671,664,658,652,647,624,603,578,552,527,480,462,449,434,431,430,428,428,429,429,430,430,430,430,431,434],"ymouse":[541,541,541,541,541,541,541,541,541,541,541,541,541,541,541,541,541,541,541,541,541,541,541,541,541,541,541,541,541,541,541,541,541,541,541,541,541,541,541,541,541,541,541,541,541,541,541,541,541,541,541,541,540,538,535,533,532,531,531,531,531,531,531,531,530,528,522,496,476,456,436,416,367,346,327,307,287,256,241,230,212,203,185,176,167,159,151,138,135,133,131,130,130,130,129,127,126,120,116,113,107,105,92],"timestamp_mouse":[10,23,45,64,84,103,124,144,163,184,204,224,244,263,285,304,324,344,363,383,404,423,443,463,484,504,524,544,563,584,603,624,643,664,683,704,723,745,763,783,804,823,844,863,884,904,923,944,964,984,1003,1025,1044,1063,1083,1103,1123,1144,1163,1184,1203,1224,1244,1263,1283,1305,1324,1343,1363,1384,1403,1425,1443,1465,1483,1504,1524,1543,1564,1583,1603,1624,1643,1663,1685,1703,1724,1743,1764,1783,1804,1824,1844,1863,1883,1905,1924,1944,1963,1983,2004,2023,2043],"xSR":741.5,"ySR":501.8,"xT1":424.9,"yT1":0,"xT2":1058.1,"yT2":0,"toosoon":0,"cond_shown":"Congruent","ratio_trial":200,"L_num":9,"L_den":30,"R_num":13,"R_den":26,"correct_side":2,"subjID":"mariaalejandratoledo2","gender":"1","school":"4","age":"9"},{"start_time":1552312936313,"click_time":1552312937950,"finger_time":1552312937269,"fix_duration":761.2359785393635,"trial":39,"RT":956,"MT":681,"sideResp":1,"stimulus":[],"xmouse":[812,812,812,812,812,812,812,812,812,812,812,812,812,812,812,812,812,812,812,812,812,812,812,812,812,812,812,812,812,812,812,812,812,812,812,812,812,812,812,812,812,812,812,812,812,812,807,804,804,804,789,709,709,709,709,709,709,709,709,709,709,709,709,709,709,709,553,554,554,554,555,555,555,555,550,546,541,541,541,541,537,515],"ymouse":[558,558,558,558,558,558,558,558,558,558,558,558,558,558,558,558,558,558,558,558,558,558,558,558,558,558,558,558,558,558,558,558,558,558,558,558,558,558,558,558,558,558,558,558,558,539,502,465,397,321,236,38,38,38,38,38,38,38,38,38,38,38,38,38,38,38,19,21,21,21,22,22,22,22,23,26,32,32,32,32,34,42],"timestamp_mouse":[16,37,57,77,97,116,136,157,176,196,216,237,256,277,297,316,336,356,376,396,416,436,456,477,496,516,537,556,576,597,616,636,656,677,697,717,737,757,776,798,818,837,857,876,897,918,936,956,976,996,1016,1036,1056,1076,1096,1118,1137,1157,1177,1198,1217,1237,1256,1277,1297,1317,1336,1357,1376,1396,1417,1436,1456,1476,1496,1516,1537,1556,1576,1596,1616,1637],"xSR":741.5,"ySR":501.8,"xT1":424.9,"yT1":0,"xT2":1058.1,"yT2":0,"toosoon":0,"cond_shown":"Congruent","ratio_trial":200,"L_num":16,"L_den":20,"R_num":12,"R_den":20,"correct_side":1,"subjID":"mariaalejandratoledo2","gender":"1","school":"4","age":"9"},{"start_time":1552312940231,"click_time":1552312941909,"finger_time":1552312941470,"fix_duration":480.5964124683526,"trial":40,"RT":1239,"MT":439,"sideResp":1,"stimulus":[],"xmouse":[805,805,805,805,805,805,805,805,804,804,804,804,804,804,804,804,804,804,804,804,804,804,804,804,804,804,804,804,804,804,804,804,804,804,804,804,804,804,804,804,804,804,804,804,804,804,804,804,804,804,804,804,804,804,804,804,804,804,800,797,787,785,781,780,775,759,749,734,701,679,628,605,589,573,562,562,562,562,562,562,562,562,562,504],"ymouse":[556,556,556,556,556,556,556,556,556,554,554,554,554,554,554,554,554,554,554,554,554,554,554,554,554,554,554,554,554,554,554,554,554,554,554,554,554,554,554,554,554,554,554,554,554,554,554,554,554,554,554,554,554,554,554,554,554,547,538,528,507,500,493,487,478,440,415,376,286,223,107,63,34,15,3,3,3,3,3,3,3,3,3,6],"timestamp_mouse":[18,39,58,79,99,118,139,158,179,199,218,238,259,278,299,318,340,359,378,398,418,439,459,480,499,518,539,559,578,598,618,638,658,679,698,719,739,758,779,799,818,839,859,878,898,918,939,959,979,998,1019,1039,1059,1078,1098,1118,1138,1158,1178,1198,1218,1239,1258,1279,1298,1320,1338,1359,1378,1399,1418,1438,1459,1478,1498,1519,1539,1558,1578,1598,1618,1638,1658,1678],"xSR":741.5,"ySR":501.8,"xT1":424.9,"yT1":0,"xT2":1058.1,"yT2":0,"toosoon":0,"cond_shown":"Incongruent","ratio_trial":300,"L_num":4,"L_den":20,"R_num":2,"R_den":4,"correct_side":2,"subjID":"mariaalejandratoledo2","gender":"1","school":"4","age":"9"},{"start_time":1552312943082,"click_time":1552312944350,"finger_time":1552312944230,"fix_duration":250,"trial":41,"RT":1148,"MT":120,"sideResp":1,"stimulus":[],"xmouse":[801,801,801,801,801,801,801,801,801,801,801,801,801,801,801,801,801,801,801,801,801,801,801,801,801,801,801,801,801,801,801,801,801,801,801,801,801,801,801,801,801,801,801,801,801,801,801,801,801,801,801,801,801,802,802,802,794,776,715,671,620,573,532,508],"ymouse":[581,581,581,581,581,581,581,581,581,581,581,581,581,581,581,581,581,581,581,581,581,581,581,581,581,581,581,581,581,581,581,581,581,581,581,581,581,581,581,581,581,581,581,581,581,581,581,581,581,581,581,581,581,576,570,547,526,485,350,270,197,131,85,56],"timestamp_mouse":[13,37,48,68,88,109,128,148,167,188,208,228,247,268,288,308,328,347,367,388,408,428,448,467,488,507,528,548,568,588,608,628,647,668,687,708,728,748,768,787,808,828,848,868,888,907,928,948,968,988,1007,1027,1048,1068,1088,1108,1128,1148,1169,1187,1208,1227,1248,1268],"xSR":741.5,"ySR":501.8,"xT1":424.9,"yT1":0,"xT2":1058.1,"yT2":0,"toosoon":0,"cond_shown":"Incongruent","ratio_trial":300,"L_num":13,"L_den":26,"R_num":12,"R_den":15,"correct_side":2,"subjID":"mariaalejandratoledo2","gender":"1","school":"4","age":"9"},{"start_time":1552312947667,"click_time":1552312948830,"finger_time":1552312948709,"fix_duration":575.8974920850482,"trial":42,"RT":1042,"MT":121,"sideResp":2,"stimulus":[],"xmouse":[782,782,782,782,782,782,782,782,782,782,782,782,782,782,782,782,782,782,782,782,782,782,782,782,782,782,782,782,782,782,782,782,782,782,782,782,782,782,782,782,782,782,782,782,782,782,782,782,782,783,786,803,847,869,959,1073,1094,1097,1097],"ymouse":[532,532,532,532,532,532,532,532,532,532,532,532,532,532,532,532,532,532,532,532,532,532,532,532,532,532,532,532,532,532,532,532,532,532,532,532,532,532,532,532,532,532,532,532,532,532,532,532,532,532,529,502,438,405,295,160,130,107,91],"timestamp_mouse":[10,22,45,63,82,102,123,143,163,183,202,222,242,263,283,302,322,344,362,383,402,424,442,462,483,502,523,544,563,582,602,622,643,662,682,702,723,743,763,782,802,822,843,863,883,902,922,942,963,983,1002,1023,1042,1062,1083,1102,1122,1142,1163],"xSR":741.5,"ySR":501.8,"xT1":424.9,"yT1":0,"xT2":1058.1,"yT2":0,"toosoon":0,"cond_shown":"Congruent","ratio_trial":100,"L_num":2,"L_den":5,"R_num":11,"R_den":22,"correct_side":2,"subjID":"mariaalejandratoledo2","gender":"1","school":"4","age":"9"},{"start_time":1552312951173,"click_time":1552312952010,"finger_time":1552312951850,"fix_duration":1240.7145575497489,"trial":43,"RT":677,"MT":160,"sideResp":1,"stimulus":[],"xmouse":[774,774,774,774,774,774,774,774,774,774,774,774,774,774,774,774,774,775,775,775,775,775,776,776,776,776,776,777,777,778,774,766,748,712,597,546,519,500,491,484,476,472],"ymouse":[559,559,559,559,559,559,559,559,559,559,559,559,559,559,559,560,560,559,559,558,558,558,558,557,556,556,556,554,553,550,538,525,503,469,377,331,290,237,201,173,109,82],"timestamp_mouse":[17,36,57,76,96,117,137,156,176,196,216,238,256,277,297,317,337,356,377,397,417,437,456,477,497,517,536,557,576,596,617,637,656,677,699,716,736,756,776,797,817,836],"xSR":741.5,"ySR":501.8,"xT1":424.9,"yT1":0,"xT2":1058.1,"yT2":0,"toosoon":0,"cond_shown":"Incongruent","ratio_trial":300,"L_num":4,"L_den":20,"R_num":2,"R_den":4,"correct_side":2,"subjID":"mariaalejandratoledo2","gender":"1","school":"4","age":"9"},{"start_time":1552312960589,"click_time":1552312962230,"finger_time":1552312961609,"fix_duration":1138.1103609157728,"trial":44,"RT":1020,"MT":621,"sideResp":1,"stimulus":[],"xmouse":[771,771,771,771,771,771,771,771,771,771,771,771,771,771,771,771,771,771,771,771,771,771,771,771,771,771,771,771,771,771,771,771,771,771,771,771,771,771,771,771,771,77