[{"start_time":1552055006109,"click_time":1552055011549,"finger_time":1552055010690,"fix_duration":478.3358790443049,"trial":0,"RT":4581,"MT":859,"sideResp":1,"stimulus":"img/250/equaldotanddens/L/14_Ratio_250_L_12_R_3.png","xmouse":[783,783,783,783,783,783,783,783,783,783,783,783,783,783,783,783,783,783,783,783,783,783,783,783,783,783,783,783,783,783,783,783,783,783,783,783,783,783,783,783,783,783,783,783,783,783,783,783,783,783,783,783,783,783,783,783,783,783,783,783,783,783,783,783,783,783,783,783,783,783,783,783,783,783,783,783,783,783,783,783,783,783,783,783,783,783,783,783,783,783,783,783,783,783,783,783,783,783,783,783,783,783,783,783,783,783,783,783,783,783,783,783,783,783,783,783,783,783,783,783,783,783,783,783,783,783,783,783,783,783,783,783,783,783,783,783,783,783,783,783,783,783,783,783,783,783,783,783,783,783,783,783,783,783,783,783,783,783,783,783,783,783,783,783,783,783,783,783,783,783,783,783,783,783,783,783,783,783,783,783,783,783,783,783,783,783,783,783,783,783,783,783,783,783,783,783,783,783,783,783,783,783,783,783,783,783,783,783,783,783,783,783,783,783,783,783,783,783,783,781,779,773,769,768,766,764,757,752,745,737,732,729,729,729,729,728,721,715,711,707,699,691,681,679,677,672,663,658,655,653,652,652,652,652,650,647,644,637,630,623,616,609,608,608,606,604,591,587,583,575,564,534,521],"ymouse":[535,535,535,535,535,535,535,535,535,535,535,535,535,535,535,535,535,535,535,535,535,535,535,535,535,535,535,535,535,535,535,535,535,535,535,535,535,535,535,535,535,535,535,535,535,535,535,535,535,535,535,535,535,535,535,535,535,535,535,535,535,535,535,535,535,535,535,535,535,535,535,535,535,535,535,535,535,535,535,535,535,535,535,535,535,535,535,535,535,535,535,535,535,535,535,535,535,535,535,535,535,535,535,535,535,535,535,535,535,535,535,535,535,535,535,535,535,535,535,535,535,535,535,535,535,535,535,535,535,535,535,535,535,535,535,535,535,535,535,535,535,535,535,535,535,535,535,535,535,535,535,535,535,535,535,535,535,535,535,535,535,535,535,535,535,535,535,535,535,535,535,535,535,535,535,535,535,535,535,535,535,535,535,535,535,535,535,535,535,535,535,535,535,535,535,535,535,535,535,535,535,535,535,535,535,535,535,535,535,535,535,535,535,535,535,535,535,534,531,527,524,520,518,517,517,515,511,503,491,479,471,461,458,453,444,433,406,392,386,380,372,363,341,326,310,291,259,234,216,199,184,157,149,144,139,134,129,121,118,115,112,109,108,108,108,107,99,98,96,91,88,70,65],"timestamp_mouse":[3,28,41,60,80,100,120,140,160,180,200,221,242,261,281,300,320,340,360,380,400,421,440,460,480,501,520,540,560,580,600,620,640,660,680,700,720,741,760,781,800,820,840,860,880,900,920,940,961,981,1000,1020,1041,1061,1081,1101,1121,1141,1162,1181,1201,1221,1241,1261,1281,1301,1321,1341,1361,1382,1401,1421,1441,1461,1480,1500,1520,1540,1560,1580,1600,1620,1640,1660,1680,1700,1720,1740,1760,1780,1800,1820,1840,1861,1881,1901,1921,1941,1961,1981,2001,2021,2041,2061,2080,2100,2120,2140,2160,2180,2200,2220,2240,2260,2280,2300,2320,2340,2360,2381,2400,2420,2441,2462,2481,2501,2521,2541,2561,2581,2601,2621,2641,2661,2682,2701,2721,2741,2761,2781,2801,2821,2841,2862,2881,2901,2921,2942,2961,2981,3001,3021,3041,3061,3081,3100,3120,3140,3160,3180,3200,3220,3240,3262,3281,3301,3321,3341,3361,3381,3401,3421,3441,3461,3481,3501,3521,3541,3561,3581,3601,3621,3641,3661,3681,3701,3721,3741,3761,3781,3801,3821,3841,3861,3881,3900,3920,3940,3960,3981,4000,4020,4040,4060,4080,4100,4120,4140,4160,4180,4200,4220,4240,4260,4280,4300,4320,4340,4360,4380,4400,4420,4440,4461,4482,4501,4520,4541,4561,4581,4601,4621,4640,4660,4680,4700,4721,4741,4760,4781,4800,4820,4840,4860,4881,4900,4921,4941,4960,4980,5000,5021,5041,5060,5080,5101,5121,5141,5161,5181,5201,5221,5241,5261,5282,5301,5321,5341,5362,5380,5400,5420,5440],"xSR":741.5,"ySR":481,"xT1":424.9,"yT1":0,"xT2":1058.1,"yT2":0,"toosoon":0,"cond_shown":"equaldotanddens","ratio_trial":250,"smaller_num":"3","larger_num":"12","correct_side":1,"subjID":"mariacamilaromerovasquez17","gender":"1","age":"9","school":"4","test":{"fix_dur":[250,1500],"timestim":300,"targets_dim":[100,100],"targets_relative_coord":[0.3,0.7],"size_stim":[880,420],"start_dim":[100,100],"size_start":[300,300],"size_fix":60,"samplingrate":20,"img_types":["equaldotsize","equaldotanddens","randomdotsizeEA"],"ratios":[250,500,750,900],"rep_conds":9,"nTrials":120,"trials_to_rest":500,"Trials_order":[13,32,10,84,110,88,109,108,38,112,114,81,60,54,73,64,105,103,47,69,99,15,8,1,44,72,42,78,2,75,35,3,26,5,18,52,87,83,113,79,118,74,4,23,41,34,119,66,50,63,102,45,104,36,98,62,11,80,16,20,86,94,17,68,51,55,97,107,57,7,22,29,24,30,9,31,12,82,90,101,43,19,67,59,96,49,33,92,89,61,95,53,77,91,116,56,46,25,39,93,28,65,37,0,6,85,71,100,76,27,111,58,117,48,21,14,106,70,40,115],"cond_shown":["equaldotanddens","randomdotsizeEA","equaldotanddens","equaldotsize","randomdotsizeEA","equaldotanddens","equaldotanddens","equaldotsize","randomdotsizeEA","equaldotanddens","equaldotsize","equaldotsize","equaldotsize","equaldotsize","equaldotanddens","equaldotanddens","equaldotsize","equaldotanddens","randomdotsizeEA","equaldotsize","equaldotsize","equaldotsize","randomdotsizeEA","equaldotanddens","randomdotsizeEA","equaldotsize","equaldotsize","equaldotsize","randomdotsizeEA","equaldotsize","randomdotsizeEA","equaldotsize","randomdotsizeEA","randomdotsizeEA","equaldotsize","equaldotanddens","equaldotsize","randomdotsizeEA","randomdotsizeEA","equaldotanddens","equaldotanddens","randomdotsizeEA","equaldotanddens","randomdotsizeEA","randomdotsizeEA","equaldotanddens","randomdotsizeEA","equaldotsize","randomdotsizeEA","equaldotsize","equaldotsize","equaldotsize","randomdotsizeEA","equaldotsize","randomdotsizeEA","randomdotsizeEA","randomdotsizeEA","randomdotsizeEA","equaldotanddens","randomdotsizeEA","randomdotsizeEA","equaldotanddens","randomdotsizeEA","randomdotsizeEA","equaldotsize","equaldotanddens","equaldotanddens","randomdotsizeEA","equaldotsize","equaldotanddens","equaldotanddens","randomdotsizeEA","equaldotsize","equaldotsize","equaldotsize","equaldotanddens","equaldotsize","equaldotanddens","equaldotsize","randomdotsizeEA","equaldotanddens","equaldotanddens","equaldotanddens","randomdotsizeEA","equaldotsize","equaldotanddens","equaldotsize","randomdotsizeEA","randomdotsizeEA","equaldotanddens","randomdotsizeEA","randomdotsizeEA","randomdotsizeEA","equaldotanddens","randomdotsizeEA","randomdotsizeEA","equaldotanddens","equaldotanddens","equaldotsize","equaldotsize","equaldotanddens","randomdotsizeEA","equaldotanddens","equaldotsize","equaldotsize","equaldotanddens","randomdotsizeEA","equaldotanddens","equaldotanddens","equaldotsize","equaldotsize","equaldotanddens","equaldotsize","equaldotsize","equaldotsize","randomdotsizeEA","equaldotanddens","equaldotanddens","equaldotanddens","equaldotanddens"],"ratio_trial":[250,750,900,250,250,500,250,250,250,500,750,900,250,750,250,500,900,750,900,900,500,500,750,250,750,250,750,750,250,500,900,500,250,500,750,500,500,900,500,750,900,250,500,900,500,900,900,750,250,500,750,900,750,250,250,250,900,750,500,750,250,900,500,750,500,750,250,900,900,750,900,500,250,750,900,750,250,900,750,500,750,750,750,900,250,250,900,750,500,250,900,500,500,750,750,750,900,250,500,900,500,500,250,250,750,250,900,500,500,500,500,900,900,250,900,250,900,900,500,750],"smaller_num":["3","6","18","2","6","4","3","3","3","4","3","18","2","3","4","2","9","12","18","18","9","6","6","4","6","6","6","15","5","6","9","1","2","2","15","6","4","18","9","15","18","2","6","9","5","18","9","6","6","5","3","18","15","3","1","3","18","3","5","3","2","9","5","15","2","6","4","18","18","3","18","6","3","15","18","3","3","9","6","3","12","3","3","9","6","4","18","15","2","3","18","1","6","6","15","15","9","2","9","9","2","10","6","2","18","3","18","9","2","6","1","18","18","3","18","3","18","18","4","15"],"larger_num":["12","8","20","8","24","8","12","12","12","8","4","20","8","4","16","4","10","16","20","20","18","12","8","16","8","24","8","20","20","12","10","2","8","4","20","12","8","20","18","20","20","8","12","10","10","20","10","8","24","10","4","20","20","12","4","12","20","4","10","4","8","10","10","20","4","8","16","20","20","4","20","12","12","20","20","4","12","10","8","6","16","4","4","10","24","16","20","20","4","12","20","2","12","8","20","20","10","8","18","10","4","20","24","8","24","12","20","18","4","12","2","20","20","12","20","12","20","20","8","20"],"correct_side":[1,1,2,1,2,1,1,2,2,1,1,2,2,2,2,2,2,2,2,2,2,1,1,2,2,2,2,1,2,1,2,2,2,1,2,1,1,1,2,2,1,2,1,1,1,1,2,1,2,2,1,1,2,1,2,2,1,1,1,1,1,2,2,1,1,1,2,2,1,1,2,1,2,1,1,1,1,2,1,2,2,1,1,1,1,2,1,2,2,1,1,2,1,1,2,2,1,1,2,2,1,2,2,1,1,1,2,2,1,1,2,1,2,1,2,1,2,1,1,1],"img_shown":["img/250/equaldotanddens/L/14_Ratio_250_L_12_R_3.png","img/750/randomdotsizeEA/L/13_Ratio_750_L_8_R_6.png","img/900/equaldotanddens/R/11_Ratio_900_L_18_R_20.png","img/250/equaldotsize/L/1_Ratio_250_L_8_R_2.png","img/250/randomdotsizeEA/R/6_Ratio_250_L_6_R_24.png","img/500/equaldotanddens/L/8_Ratio_500_L_8_R_4.png","img/250/equaldotanddens/L/15_Ratio_250_L_12_R_3.png","img/250/equaldotsize/R/4_Ratio_250_L_3_R_12.png","img/250/randomdotsizeEA/R/4_Ratio_250_L_3_R_12.png","img/500/equaldotanddens/L/8_Ratio_500_L_8_R_4.png","img/750/equaldotsize/L/8_Ratio_750_L_4_R_3.png","img/900/equaldotsize/R/9_Ratio_900_L_18_R_20.png","img/250/equaldotsize/R/13_Ratio_250_L_2_R_8.png","img/750/equaldotsize/R/7_Ratio_750_L_3_R_4.png","img/250/equaldotanddens/R/10_Ratio_250_L_4_R_16.png","img/500/equaldotanddens/R/9_Ratio_500_L_2_R_4.png","img/900/equaldotsize/R/7_Ratio_900_L_9_R_10.png","img/750/equaldotanddens/R/11_Ratio_750_L_12_R_16.png","img/900/randomdotsizeEA/R/12_Ratio_900_L_18_R_20.png","img/900/equaldotsize/R/13_Ratio_900_L_18_R_20.png","img/500/equaldotsize/R/1_Ratio_500_L_9_R_18.png","img/500/equaldotsize/L/11_Ratio_500_L_12_R_6.png","img/750/randomdotsizeEA/L/13_Ratio_750_L_8_R_6.png","img/250/equaldotanddens/R/10_Ratio_250_L_4_R_16.png","img/750/randomdotsizeEA/R/2_Ratio_750_L_6_R_8.png","img/250/equaldotsize/R/6_Ratio_250_L_6_R_24.png","img/750/equaldotsize/R/2_Ratio_750_L_6_R_8.png","img/750/equaldotsize/L/1_Ratio_750_L_20_R_15.png","img/250/randomdotsizeEA/R/12_Ratio_250_L_5_R_20.png","img/500/equaldotsize/L/13_Ratio_500_L_12_R_6.png","img/900/randomdotsizeEA/R/3_Ratio_900_L_9_R_10.png","img/500/equaldotsize/R/15_Ratio_500_L_1_R_2.png","img/250/randomdotsizeEA/R/13_Ratio_250_L_2_R_8.png","img/500/randomdotsizeEA/L/10_Ratio_500_L_4_R_2.png","img/750/equaldotsize/R/5_Ratio_750_L_15_R_20.png","img/500/equaldotanddens/L/13_Ratio_500_L_12_R_6.png","img/500/equaldotsize/L/8_Ratio_500_L_8_R_4.png","img/900/randomdotsizeEA/L/2_Ratio_900_L_20_R_18.png","img/500/randomdotsizeEA/R/1_Ratio_500_L_9_R_18.png","img/750/equaldotanddens/R/4_Ratio_750_L_15_R_20.png","img/900/equaldotanddens/L/4_Ratio_900_L_20_R_18.png","img/250/randomdotsizeEA/R/13_Ratio_250_L_2_R_8.png","img/500/equaldotanddens/L/13_Ratio_500_L_12_R_6.png","img/900/randomdotsizeEA/L/1_Ratio_900_L_10_R_9.png","img/500/randomdotsizeEA/L/7_Ratio_500_L_10_R_5.png","img/900/equaldotanddens/L/2_Ratio_900_L_20_R_18.png","img/900/randomdotsizeEA/R/5_Ratio_900_L_9_R_10.png","img/750/equaldotsize/L/13_Ratio_750_L_8_R_6.png","img/250/randomdotsizeEA/R/6_Ratio_250_L_6_R_24.png","img/500/equaldotsize/R/14_Ratio_500_L_5_R_10.png","img/750/equaldotsize/L/10_Ratio_750_L_4_R_3.png","img/900/equaldotsize/L/8_Ratio_900_L_20_R_18.png","img/750/randomdotsizeEA/R/5_Ratio_750_L_15_R_20.png","img/250/equaldotsize/L/15_Ratio_250_L_12_R_3.png","img/250/randomdotsizeEA/R/8_Ratio_250_L_1_R_4.png","img/250/randomdotsizeEA/R/4_Ratio_250_L_3_R_12.png","img/900/randomdotsizeEA/L/4_Ratio_900_L_20_R_18.png","img/750/randomdotsizeEA/L/8_Ratio_750_L_4_R_3.png","img/500/equaldotanddens/L/7_Ratio_500_L_10_R_5.png","img/750/randomdotsizeEA/L/10_Ratio_750_L_4_R_3.png","img/250/randomdotsizeEA/L/7_Ratio_250_L_8_R_2.png","img/900/equaldotanddens/R/3_Ratio_900_L_9_R_10.png","img/500/randomdotsizeEA/R/14_Ratio_500_L_5_R_10.png","img/750/randomdotsizeEA/L/1_Ratio_750_L_20_R_15.png","img/500/equaldotsize/L/10_Ratio_500_L_4_R_2.png","img/750/equaldotanddens/L/14_Ratio_750_L_8_R_6.png","img/250/equaldotanddens/R/10_Ratio_250_L_4_R_16.png","img/900/randomdotsizeEA/R/13_Ratio_900_L_18_R_20.png","img/900/equaldotsize/L/4_Ratio_900_L_20_R_18.png","img/750/equaldotanddens/L/8_Ratio_750_L_4_R_3.png","img/900/equaldotanddens/R/11_Ratio_900_L_18_R_20.png","img/500/randomdotsizeEA/L/11_Ratio_500_L_12_R_6.png","img/250/equaldotsize/R/4_Ratio_250_L_3_R_12.png","img/750/equaldotsize/L/1_Ratio_750_L_20_R_15.png","img/900/equaldotsize/L/4_Ratio_900_L_20_R_18.png","img/750/equaldotanddens/L/8_Ratio_750_L_4_R_3.png","img/250/equaldotsize/L/14_Ratio_250_L_12_R_3.png","img/900/equaldotanddens/R/7_Ratio_900_L_9_R_10.png","img/750/equaldotsize/L/13_Ratio_750_L_8_R_6.png","img/500/randomdotsizeEA/R/2_Ratio_500_L_3_R_6.png","img/750/equaldotanddens/R/11_Ratio_750_L_12_R_16.png","img/750/equaldotanddens/L/8_Ratio_750_L_4_R_3.png","img/750/equaldotanddens/L/10_Ratio_750_L_4_R_3.png","img/900/randomdotsizeEA/L/1_Ratio_900_L_10_R_9.png","img/250/equaldotsize/L/5_Ratio_250_L_24_R_6.png","img/250/equaldotanddens/R/10_Ratio_250_L_4_R_16.png","img/900/equaldotsize/L/10_Ratio_900_L_20_R_18.png","img/750/randomdotsizeEA/R/4_Ratio_750_L_15_R_20.png","img/500/randomdotsizeEA/R/9_Ratio_500_L_2_R_4.png","img/250/equaldotanddens/L/15_Ratio_250_L_12_R_3.png","img/900/randomdotsizeEA/L/10_Ratio_900_L_20_R_18.png","img/500/randomdotsizeEA/R/12_Ratio_500_L_1_R_2.png","img/500/randomdotsizeEA/L/11_Ratio_500_L_12_R_6.png","img/750/equaldotanddens/L/14_Ratio_750_L_8_R_6.png","img/750/randomdotsizeEA/R/5_Ratio_750_L_15_R_20.png","img/750/randomdotsizeEA/R/4_Ratio_750_L_15_R_20.png","img/900/equaldotanddens/L/1_Ratio_900_L_10_R_9.png","img/250/equaldotanddens/L/7_Ratio_250_L_8_R_2.png","img/500/equaldotsize/R/6_Ratio_500_L_9_R_18.png","img/900/equaldotsize/R/15_Ratio_900_L_9_R_10.png","img/500/equaldotanddens/L/5_Ratio_500_L_4_R_2.png","img/500/randomdotsizeEA/R/3_Ratio_500_L_10_R_20.png","img/250/equaldotanddens/R/6_Ratio_250_L_6_R_24.png","img/250/equaldotsize/L/7_Ratio_250_L_8_R_2.png","img/750/equaldotsize/L/6_Ratio_750_L_24_R_18.png","img/250/equaldotanddens/L/15_Ratio_250_L_12_R_3.png","img/900/randomdotsizeEA/R/11_Ratio_900_L_18_R_20.png","img/500/equaldotanddens/R/1_Ratio_500_L_9_R_18.png","img/500/equaldotanddens/L/10_Ratio_500_L_4_R_2.png","img/500/equaldotsize/L/11_Ratio_500_L_12_R_6.png","img/500/equaldotsize/R/12_Ratio_500_L_1_R_2.png","img/900/equaldotanddens/L/8_Ratio_900_L_20_R_18.png","img/900/equaldotsize/R/11_Ratio_900_L_18_R_20.png","img/250/equaldotsize/L/14_Ratio_250_L_12_R_3.png","img/900/equaldotsize/R/12_Ratio_900_L_18_R_20.png","img/250/randomdotsizeEA/L/14_Ratio_250_L_12_R_3.png","img/900/equaldotanddens/R/14_Ratio_900_L_18_R_20.png","img/900/equaldotanddens/L/2_Ratio_900_L_20_R_18.png","img/500/equaldotanddens/L/8_Ratio_500_L_8_R_4.png","img/750/equaldotanddens/L/1_Ratio_750_L_20_R_15.png"],"Rat0":[["12_Ratio_0_L_9_R_0.png","13_Ratio_0_L_6_R_0.png","5_Ratio_0_L_2_R_0.png","6_Ratio_0_L_4_R_0.png","8_Ratio_0_L_6_R_0.png"],["1_Ratio_0_L_0_R_17.png","10_Ratio_0_L_0_R_22.png","11_Ratio_0_L_0_R_1.png","14_Ratio_0_L_0_R_24.png","15_Ratio_0_L_0_R_4.png","2_Ratio_0_L_0_R_5.png","3_Ratio_0_L_0_R_17.png","4_Ratio_0_L_0_R_7.png","7_Ratio_0_L_0_R_19.png","9_Ratio_0_L_0_R_15.png"]],"Rat250":[["1_Ratio_250_L_8_R_2.png","14_Ratio_250_L_12_R_3.png","15_Ratio_250_L_12_R_3.png","2_Ratio_250_L_16_R_4.png","3_Ratio_250_L_8_R_2.png","5_Ratio_250_L_24_R_6.png","7_Ratio_250_L_8_R_2.png"],["10_Ratio_250_L_4_R_16.png","11_Ratio_250_L_3_R_12.png","12_Ratio_250_L_5_R_20.png","13_Ratio_250_L_2_R_8.png","4_Ratio_250_L_3_R_12.png","6_Ratio_250_L_6_R_24.png","8_Ratio_250_L_1_R_4.png","9_Ratio_250_L_3_R_12.png"]],"Rat500":[["10_Ratio_500_L_4_R_2.png","11_Ratio_500_L_12_R_6.png","13_Ratio_500_L_12_R_6.png","4_Ratio_500_L_18_R_9.png","5_Ratio_500_L_4_R_2.png","7_Ratio_500_L_10_R_5.png","8_Ratio_500_L_8_R_4.png"],["1_Ratio_500_L_9_R_18.png","12_Ratio_500_L_1_R_2.png","14_Ratio_500_L_5_R_10.png","15_Ratio_500_L_1_R_2.png","2_Ratio_500_L_3_R_6.png","3_Ratio_500_L_10_R_20.png","6_Ratio_500_L_9_R_18.png","9_Ratio_500_L_2_R_4.png"]],"Rat750":[["1_Ratio_750_L_20_R_15.png","10_Ratio_750_L_4_R_3.png","13_Ratio_750_L_8_R_6.png","14_Ratio_750_L_8_R_6.png","6_Ratio_750_L_24_R_18.png","8_Ratio_750_L_4_R_3.png","9_Ratio_750_L_4_R_3.png"],["11_Ratio_750_L_12_R_16.png","12_Ratio_750_L_3_R_4.png","15_Ratio_750_L_9_R_12.png","2_Ratio_750_L_6_R_8.png","3_Ratio_750_L_15_R_20.png","4_Ratio_750_L_15_R_20.png","5_Ratio_750_L_15_R_20.png","7_Ratio_750_L_3_R_4.png"]],"Rat900":[["1_Ratio_900_L_10_R_9.png","10_Ratio_900_L_20_R_18.png","2_Ratio_900_L_20_R_18.png","4_Ratio_900_L_20_R_18.png","8_Ratio_900_L_20_R_18.png"],["11_Ratio_900_L_18_R_20.png","12_Ratio_900_L_18_R_20.png","13_Ratio_900_L_18_R_20.png","14_Ratio_900_L_18_R_20.png","15_Ratio_900_L_9_R_10.png","3_Ratio_900_L_9_R_10.png","5_Ratio_900_L_9_R_10.png","6_Ratio_900_L_9_R_10.png","7_Ratio_900_L_9_R_10.png","9_Ratio_900_L_18_R_20.png"]],"Rat1000":[["10_Ratio_1000_L_16_R_16.png","11_Ratio_1000_L_6_R_6.png","12_Ratio_1000_L_14_R_14.png","13_Ratio_1000_L_20_R_20.png","15_Ratio_1000_L_15_R_15.png","2_Ratio_1000_L_17_R_17.png","4_Ratio_1000_L_9_R_9.png","5_Ratio_1000_L_6_R_6.png","6_Ratio_1000_L_19_R_19.png","8_Ratio_1000_L_14_R_14.png","9_Ratio_1000_L_25_R_25.png"],["1_Ratio_1000_L_1_R_1.png","14_Ratio_1000_L_17_R_17.png","3_Ratio_1000_L_17_R_17.png","7_Ratio_1000_L_6_R_6.png"]]}},{"start_time":1552055015330,"click_time":1552055018990,"finger_time":1552055018510,"fix_duration":780.1392595360614,"trial":1,"RT":3180,"MT":480,"sideResp":1,"stimulus":"img/750/randomdotsizeEA/L/13_Ratio_750_L_8_R_6.png","xmouse":[780,780,780,780,780,780,780,780,780,780,780,780,780,780,780,780,780,780,780,780,780,780,780,780,780,780,780,780,780,780,780,780,780,780,780,780,780,780,780,780,780,780,780,780,780,780,780,780,780,780,780,780,780,780,780,780,779,778,777,776,775,775,775,774,774,774,774,774,774,774,774,774,774,774,774,774,774,774,774,774,774,774,774,774,774,774,774,774,774,774,774,774,774,774,774,774,774,774,774,774,774,774,774,774,774,773,773,773,773,773,773,770,770,770,770,770,769,769,769,769,769,769,769,769,769,769,769,769,769,769,769,769,769,769,769,769,769,769,769,769,769,769,769,768,767,767,767,767,767,767,765,764,762,761,754,754,754,756,759,748,728,700,678,661,641,629,615,600,589,571,559,549,540,538,537,537,537,536,535,531,528,525,522],"ymouse":[511,511,511,511,511,511,511,511,511,511,511,511,511,511,511,511,511,511,511,511,511,511,511,511,511,511,511,511,511,511,511,511,511,511,511,511,511,511,511,511,511,511,511,511,511,511,511,511,511,511,511,511,511,511,511,511,512,512,512,512,511,511,511,511,511,511,511,511,511,511,511,511,511,511,511,511,511,511,511,511,511,511,511,511,511,511,511,511,511,511,511,511,511,511,511,511,511,511,511,511,510,509,504,498,492,491,491,491,491,491,491,489,489,489,489,489,489,489,489,489,489,489,489,489,489,489,489,489,489,489,489,489,489,489,489,489,489,489,489,489,489,489,489,489,488,488,488,488,488,488,488,487,486,486,473,468,464,454,439,394,365,333,308,292,278,273,266,257,247,207,182,158,139,129,124,122,119,115,111,100,95,89,84],"timestamp_mouse":[20,39,59,79,99,120,139,160,180,201,219,239,259,279,300,319,339,360,380,399,419,439,460,481,500,520,539,559,579,600,621,639,659,680,700,719,739,760,779,801,820,839,859,880,901,920,940,959,980,1000,1020,1040,1060,1080,1099,1119,1139,1159,1180,1200,1219,1239,1259,1279,1299,1319,1339,1359,1379,1399,1419,1439,1460,1480,1500,1520,1540,1560,1580,1600,1620,1640,1660,1680,1700,1720,1740,1760,1780,1800,1819,1840,1859,1879,1899,1919,1939,1959,1979,1999,2019,2039,2059,2079,2099,2119,2139,2159,2179,2199,2220,2239,2259,2280,2300,2319,2339,2359,2379,2399,2419,2439,2459,2479,2500,2519,2539,2559,2580,2600,2620,2640,2660,2680,2700,2720,2740,2760,2780,2800,2820,2840,2860,2880,2900,2919,2940,2960,2979,2999,3019,3039,3059,3079,3099,3120,3140,3160,3180,3200,3219,3240,3260,3280,3300,3321,3340,3360,3380,3400,3419,3440,3460,3480,3500,3520,3541,3560,3580,3601,3620,3639,3659],"xSR":741.5,"ySR":449.15000000000003,"xT1":424.9,"yT1":0,"xT2":1058.1,"yT2":0,"toosoon":0,"cond_shown":"randomdotsizeEA","ratio_trial":750,"smaller_num":"6","larger_num":"8","correct_side":1,"subjID":"mariacamilaromerovasquez17","gender":"1","age":"9","school":"4"},{"start_time":1552055021854,"click_time":1552055023851,"finger_time":1552055023169,"fix_duration":1324.3300103422496,"trial":2,"RT":1315,"MT":682,"sideResp":2,"stimulus":"img/900/equaldotanddens/R/11_Ratio_900_L_18_R_20.png","xmouse":[773,773,773,773,773,773,773,773,773,773,773,773,773,773,773,773,773,773,773,773,773,773,773,773,773,773,773,773,773,773,773,773,773,773,773,773,773,773,773,773,773,773,773,773,773,773,773,773,773,773,773,773,773,773,773,773,773,773,773,773,773,773,773,772,807,848,877,898,932,958,980,1000,1015,1029,1044,1054,1062,1067,1079,1088,1095,1101,1106,1109,1115,1122,1130,1137,1146,1160,1164,1166,1168,1168,1168,1166,1165,1163,1159,1154],"ymouse":[504,504,504,504,504,504,504,504,504,504,504,504,504,504,504,504,504,504,504,504,504,504,504,504,504,504,504,504,504,504,504,504,504,504,504,504,504,504,504,504,504,504,504,504,504,504,504,504,504,504,504,504,504,504,504,504,504,504,504,504,504,504,504,503,491,480,470,463,447,435,428,423,418,417,415,413,409,404,388,369,352,336,320,303,270,256,239,221,200,150,127,104,84,65,42,34,29,27,24,24],"timestamp_mouse":[17,35,55,75,95,115,135,155,175,195,215,235,255,275,295,315,335,355,376,397,416,436,456,476,496,516,536,556,576,596,616,636,656,676,696,716,736,756,776,796,816,836,856,876,896,916,937,956,976,997,1016,1035,1055,1075,1095,1115,1135,1155,1176,1195,1215,1235,1255,1275,1295,1315,1335,1355,1376,1396,1415,1435,1455,1476,1495,1515,1536,1555,1576,1596,1616,1635,1655,1676,1695,1715,1735,1755,1776,1795,1816,1836,1856,1876,1896,1916,1936,1956,1976,1997],"xSR":741.5,"ySR":449.15000000000003,"xT1":424.9,"yT1":0,"xT2":1058.1,"yT2":0,"toosoon":0,"cond_shown":"equaldotanddens","ratio_trial":900,"smaller_num":"18","larger_num":"20","correct_side":2,"subjID":"mariacamilaromerovasquez17","gender":"1","age":"9","school":"4"},{"start_time":1552055026735,"click_time":1552055028189,"finger_time":1552055027610,"fix_duration":1463.0217467646005,"trial":3,"RT":875,"MT":579,"sideResp":1,"stimulus":"img/250/equaldotsize/L/1_Ratio_250_L_8_R_2.png","xmouse":[805,805,805,805,805,805,805,805,805,805,805,805,805,805,805,805,805,805,805,805,805,805,805,805,805,805,805,805,805,805,805,805,805,805,805,805,805,805,805,805,805,798,790,773,729,688,664,645,625,596,584,572,560,546,546,546,546,546,546,546,546,546,546,546,546,546,546,546,546,546,546,420,439],"ymouse":[489,489,489,489,489,489,489,489,489,489,489,489,489,489,489,489,489,489,489,489,489,489,489,489,489,489,489,489,489,489,489,489,489,489,489,489,489,489,489,489,489,478,450,400,290,219,179,144,112,71,52,37,21,7,7,7,7,7,7,7,7,7,7,7,7,7,7,7,7,7,7,1,22],"timestamp_mouse":[15,40,54,74,94,115,134,155,175,195,215,234,255,275,295,314,334,354,374,394,414,434,454,475,495,515,535,555,575,594,615,635,654,674,694,715,735,756,775,794,815,834,854,875,895,915,935,955,975,994,1014,1035,1055,1075,1095,1114,1134,1155,1174,1194,1214,1235,1255,1274,1294,1315,1334,1354,1375,1394,1414,1434,1454],"xSR":741.5,"ySR":449.15000000000003,"xT1":424.9,"yT1":0,"xT2":1058.1,"yT2":0,"toosoon":0,"cond_shown":"equaldotsize","ratio_trial":250,"smaller_num":"2","larger_num":"8","correct_side":1,"subjID":"mariacamilaromerovasquez17","gender":"1","age":"9","school":"4"},{"start_time":1552055031726,"click_time":1552055033229,"finger_time":1552055032729,"fix_duration":1435.6149910335325,"trial":4,"RT":1003,"MT":500,"sideResp":2,"stimulus":"img/250/randomdotsizeEA/R/6_Ratio_250_L_6_R_24.png","xmouse":[772,772,772,772,772,772,772,772,772,772,772,772,772,772,772,772,772,772,772,772,772,772,772,772,772,772,772,772,772,772,772,772,772,772,772,772,772,772,772,772,772,772,772,772,772,772,772,772,779,809,888,926,962,984,1001,1037,1047,1055,1062,1069,1083,1086,1092,1096,1097,1100,1101,1101,1101,1101,1101,1101,1103,1105,1105,1105],"ymouse":[504,504,504,504,504,504,504,504,504,504,504,504,504,504,504,504,504,504,504,504,504,504,504,504,504,504,504,504,504,504,504,504,504,504,504,504,504,504,504,504,504,504,504,504,504,504,504,503,495,473,419,394,370,354,340,299,282,266,253,243,228,223,214,204,198,188,181,176,170,162,149,141,129,115,108,90],"timestamp_mouse":[4,25,44,64,84,103,124,143,163,183,203,223,243,263,283,304,323,343,363,383,403,423,443,463,483,503,523,543,563,583,603,623,643,663,684,703,723,743,763,783,804,824,844,864,884,904,925,943,964,984,1003,1024,1044,1064,1084,1104,1124,1144,1164,1184,1204,1223,1244,1264,1285,1304,1324,1344,1364,1385,1405,1423,1444,1464,1483,1503],"xSR":741.5,"ySR":449.15000000000003,"xT1":424.9,"yT1":0,"xT2":1058.1,"yT2":0,"toosoon":0,"cond_shown":"randomdotsizeEA","ratio_trial":250,"smaller_num":"6","larger_num":"24","correct_side":2,"subjID":"mariacamilaromerovasquez17","gender":"1","age":"9","school":"4"},{"start_time":1552055035214,"click_time":1552055036689,"finger_time":1552055036209,"fix_duration":604.6527779050057,"trial":5,"RT":995,"MT":480,"sideResp":1,"stimulus":"img/500/equaldotanddens/L/8_Ratio_500_L_8_R_4.png","xmouse":[801,801,801,801,801,801,801,801,801,801,801,801,801,801,801,801,801,801,801,801,801,801,801,801,801,801,801,801,801,801,801,801,801,801,801,801,801,801,801,801,801,801,801,801,801,801,801,799,797,787,765,744,731,715,702,681,673,665,655,644,623,611,604,599,596,590,588,584,580,573,558,543,531,519],"ymouse":[488,488,488,488,488,488,488,488,488,488,488,488,488,488,488,488,488,488,488,488,488,488,488,488,488,488,488,488,488,488,488,488,488,488,488,488,488,488,488,488,488,488,488,488,488,488,488,478,463,423,344,294,268,240,218,187,179,171,161,151,133,123,118,116,116,113,113,111,109,107,100,93,89,84],"timestamp_mouse":[19,35,55,75,95,115,135,155,175,195,215,235,255,275,295,316,335,355,375,395,415,436,455,475,495,516,535,556,576,596,616,636,656,676,696,716,736,756,776,795,815,835,855,875,895,915,935,955,975,995,1016,1036,1056,1075,1095,1116,1135,1155,1175,1195,1216,1235,1256,1275,1295,1315,1335,1355,1375,1395,1416,1436,1456,1475],"xSR":741.5,"ySR":449.15000000000003,"xT1":424.9,"yT1":0,"xT2":1058.1,"yT2":0,"toosoon":0,"cond_shown":"equaldotanddens","ratio_trial":500,"smaller_num":"4","larger_num":"8","correct_side":1,"subjID":"mariacamilaromerovasquez17","gender":"1","age":"9","school":"4"},{"start_time":1552055051201,"click_time":1552055052650,"finger_time":1552055051890,"fix_duration":951.9725183217078,"trial":6,"RT":689,"MT":760,"sideResp":1,"stimulus":"img/250/equaldotanddens/L/15_Ratio_250_L_12_R_3.png","xmouse":[803,803,803,803,803,803,803,803,803,803,803,803,803,803,803,803,803,803,803,803,803,803,803,803,803,803,803,803,803,802,801,798,794,789,783,776,757,752,746,737,727,692,665,648,636,627,619,606,598,589,577,562,539,532,530,528,521,518,513,507,499,474,466,463,460,460,460,463,464,466,467,468,472],"ymouse":[475,475,475,475,475,475,475,475,475,475,475,475,475,475,475,475,475,475,475,475,475,475,475,475,475,475,475,475,475,475,475,472,463,453,437,419,381,364,345,330,317,287,272,264,258,252,247,239,234,228,220,208,193,188,186,182,174,170,167,165,162,152,149,147,145,142,131,124,117,114,110,108,93],"timestamp_mouse":[10,30,49,68,88,110,128,149,169,189,208,228,249,268,288,309,329,349,368,389,410,429,449,468,488,508,529,549,569,588,609,628,649,669,689,708,729,749,768,788,808,829,850,869,889,909,929,948,968,989,1009,1029,1050,1069,1090,1109,1129,1148,1170,1190,1209,1229,1249,1270,1290,1309,1329,1348,1369,1389,1409,1429,1449],"xSR":741.5,"ySR":449.15000000000003,"xT1":424.9,"yT1":0,"xT2":1058.1,"yT2":0,"toosoon":0,"cond_shown":"equaldotanddens","ratio_trial":250,"smaller_num":"3","larger_num":"12","correct_side":1,"subjID":"mariacamilaromerovasquez17","gender":"1","age":"9","school":"4"},{"start_time":1552055055321,"click_time":1552055056631,"finger_time":1552055055929,"fix_duration":1091.3861089220384,"trial":7,"RT":608,"MT":702,"sideResp":2,"stimulus":"img/250/equaldotsize/R/4_Ratio_250_L_3_R_12.png","xmouse":[799,799,799,799,799,799,799,799,799,799,799,799,799,799,799,799,799,799,799,799,799,799,799,799,799,799,799,799,801,805,834,848,860,873,889,919,935,942,948,954,959,968,974,977,981,985,989,989,990,992,997,1000,1002,1003,1008,1022,1027,1033,1039,1045,1052,1054,1054,1056,1057,1061],"ymouse":[479,479,479,479,479,479,479,479,479,479,479,479,479,479,479,479,479,479,479,479,479,479,479,479,479,479,479,479,475,471,436,417,397,376,353,309,279,261,243,225,207,173,157,146,137,130,125,124,124,122,119,117,115,114,111,105,104,101,98,96,93,92,92,91,91,89],"timestamp_mouse":[12,29,49,69,89,109,129,149,169,189,209,229,249,270,289,308,328,348,368,388,408,428,448,468,488,508,528,548,568,588,608,628,648,668,688,709,729,748,768,788,809,828,848,868,889,909,929,950,970,989,1009,1028,1049,1069,1089,1109,1129,1149,1169,1189,1209,1230,1249,1269,1290,1310],"xSR":741.5,"ySR":449.15000000000003,"xT1":424.9,"yT1":0,"xT2":1058.1,"yT2":0,"toosoon":0,"cond_shown":"equaldotsize","ratio_trial":250,"smaller_num":"3","larger_num":"12","correct_side":2,"subjID":"mariacamilaromerovasquez17","gender":"1","age":"9","school":"4"},{"start_time":1552055059103,"click_time":1552055060730,"finger_time":1552055060349,"fix_duration":792.2238030440905,"trial":8,"RT":1246,"MT":381,"sideResp":2,"stimulus":"img/250/randomdotsizeEA/R/4_Ratio_250_L_3_R_12.png","xmouse":[789,789,789,789,789,789,789,789,789,789,789,789,789,789,789,789,789,789,789,789,789,789,789,789,789,789,789,789,789,789,789,789,789,789,789,789,789,789,789,789,789,789,789,789,789,789,789,789,789,789,789,789,789,789,789,789,789,789,792,795,804,832,849,869,889,909,948,968,978,986,993,1001,1016,1023,1034,1046,1058,1086,1093,1099,1103,1107],"ymouse":[497,497,497,497,497,497,497,497,497,497,497,497,497,497,497,497,497,497,497,497,497,497,497,497,497,497,497,497,497,497,497,497,497,497,497,497,497,497,497,497,497,497,497,497,497,497,497,497,497,497,497,497,497,497,497,497,497,497,497,497,494,481,472,459,444,427,393,373,362,351,338,324,290,273,254,236,216,167,150,133,119,97],"timestamp_mouse":[6,26,46,66,86,106,126,146,166,186,206,226,246,266,286,306,326,346,366,386,407,427,446,466,486,506,526,547,567,587,607,627,647,667,687,707,727,747,767,787,807,827,847,867,887,907,927,947,967,988,1007,1027,1047,1067,1087,1107,1127,1147,1167,1187,1206,1226,1246,1266,1286,1306,1326,1347,1366,1386,1406,1426,1446,1467,1487,1506,1526,1547,1566,1586,1606,1627],"xSR":741.5,"ySR":449.15000000000003,"xT1":424.9,"yT1":0,"xT2":1058.1,"yT2":0,"toosoon":0,"cond_shown":"randomdotsizeEA","ratio_trial":250,"smaller_num":"3","larger_num":"12","correct_side":2,"subjID":"mariacamilaromerovasquez17","gender":"1","age":"9","school":"4"},{"start_time":1552055063348,"click_time":1552055064730,"finger_time":1552055064229,"fix_duration":1377.1866270040675,"trial":9,"RT":881,"MT":501,"sideResp":1,"stimulus":"img/500/equaldotanddens/L/8_Ratio_500_L_8_R_4.png","xmouse":[785,785,785,785,785,785,785,785,785,785,785,785,785,785,785,785,785,785,785,785,785,785,785,785,785,785,785,785,785,785,785,785,785,785,785,785,785,785,785,785,779,770,762,754,728,712,696,682,669,646,635,624,614,603,594,586,585,584,581,576,570,565,560,555,552,542,538,533,528,521],"ymouse":[513,513,513,513,513,513,513,513,513,513,513,513,513,513,513,513,513,513,513,513,513,513,513,513,513,513,513,513,513,513,513,513,513,513,513,513,513,513,513,511,504,491,477,462,415,393,372,352,332,297,282,270,257,246,239,232,230,228,225,214,206,196,187,176,166,140,127,116,104,86],"timestamp_mouse":[4,22,42,62,82,101,121,141,161,181,201,221,241,261,282,302,321,341,362,382,401,422,441,462,483,501,521,542,562,582,601,623,642,661,681,701,721,742,761,781,801,821,842,861,881,902,921,942,961,981,1002,1022,1043,1062,1081,1102,1122,1143,1163,1181,1201,1222,1242,1261,1281,1301,1321,1341,1362,1382],"xSR":741.5,"ySR":449.15000000000003,"xT1":424.9,"yT1":0,"xT2":1058.1,"yT2":0,"toosoon":0,"cond_shown":"equaldotanddens","ratio_trial":500,"smaller_num":"4","larger_num":"8","correct_side":1,"subjID":"mariacamilaromerovasquez17","gender":"1","age":"9","school":"4"},{"start_time":1552055066807,"click_time":1552055068850,"finger_time":1552055068489,"fix_duration":515.1921332540619,"trial":10,"RT":1682,"MT":361,"sideResp":2,"stimulus":"img/750/equaldotsize/L/8_Ratio_750_L_4_R_3.png","xmouse":[779,779,779,779,779,779,779,779,779,779,779,779,779,779,779,779,779,779,779,779,779,779,779,779,779,779,779,779,779,779,779,779,779,779,779,779,779,779,779,779,779,779,779,779,779,779,779,779,779,779,779,779,779,779,779,779,779,779,779,779,779,779,779,779,779,779,779,779,779,779,779,779,779,779,779,779,779,779,779,779,779,779,781,803,844,875,917,930,944,960,979,1022,1038,1052,1065,1076,1093,1099,1104,1108,1111,1116,1118],"ymouse":[523,523,523,523,523,523,523,523,523,523,523,523,523,523,523,523,523,523,523,523,523,523,523,523,523,523,523,523,523,523,523,523,523,523,523,523,523,523,523,523,523,523,523,523,523,523,523,523,523,523,523,523,523,523,523,523,523,523,523,523,523,523,523,523,523,523,523,523,523,523,523,523,523,523,523,523,523,523,523,523,523,523,523,513,502,491,466,455,443,432,420,387,367,342,315,288,235,212,191,169,146,107,81],"timestamp_mouse":[4,22,42,62,82,102,123,142,162,182,202,222,242,262,282,303,322,342,362,383,403,424,443,463,482,503,523,542,563,582,602,622,642,663,683,703,723,743,763,782,803,822,842,862,882,902,922,942,962,982,1002,1022,1042,1062,1082,1102,1122,1143,1162,1182,1202,1222,1242,1262,1282,1302,1322,1342,1362,1382,1402,1422,1442,1462,1482,1502,1522,1542,1562,1582,1602,1622,1642,1662,1682,1702,1722,1742,1762,1782,1802,1822,1842,1862,1882,1902,1923,1942,1963,1982,2003,2024,2043],"xSR":741.5,"ySR":449.15000000000003,"xT1":424.9,"yT1":0,"xT2":1058.1,"yT2":0,"toosoon":0,"cond_shown":"equaldotsize","ratio_trial":750,"smaller_num":"3","larger_num":"4","correct_side":1,"subjID":"mariacamilaromerovasquez17","gender":"1","age":"9","school":"4"},{"start_time":1552055071379,"click_time":1552055072829,"finger_time":1552055072409,"fix_duration":1109.365404840635,"trial":11,"RT":1030,"MT":420,"sideResp":1,"stimulus":"img/900/equaldotsize/R/9_Ratio_900_L_18_R_20.png","xmouse":[797,797,797,797,797,797,797,797,797,797,797,797,797,797,797,797,797,797,797,797,797,797,797,797,797,797,797,797,797,797,797,797,797,797,797,797,797,797,797,797,797,797,797,797,797,797,797,797,797,797,795,790,776,767,758,749,742,733,731,725,714,695,641,593,575,560,550,542,538,527,506,481,442],"ymouse":[471,471,471,471,471,471,471,471,471,471,471,471,471,471,471,471,471,471,471,471,471,471,471,471,471,471,471,471,471,471,471,471,471,471,471,471,471,471,471,471,471,471,471,471,471,471,471,471,471,467,454,429,363,339,324,312,305,296,293,286,279,261,221,187,175,164,156,145,137,126,115,106,97],"timestamp_mouse":[10,30,50,70,90,110,130,150,170,191,210,230,250,270,290,310,330,350,370,391,410,430,450,470,490,510,530,550,571,590,610,630,650,670,690,710,730,750,770,790,810,830,850,870,891,910,930,950,970,990,1010,1030,1051,1070,1091,1110,1130,1150,1170,1191,1211,1230,1250,1271,1290,1310,1330,1350,1370,1390,1410,1430,1450],"xSR":741.5,"ySR":449.15000000000003,"xT1":424.9,"yT1":0,"xT2":1058.1,"yT2":0,"toosoon":0,"cond_shown":"equaldotsize","ratio_trial":900,"smaller_num":"18","larger_num":"20","correct_side":2,"subjID":"mariacamilaromerovasquez17","gender":"1","age":"9","school":"4"},{"start_time":1552055077345,"click_time":1552055078810,"finger_time":1552055078249,"fix_duration":915.8905979448083,"trial":12,"RT":904,"MT":561,"sideResp":2,"stimulus":"img/250/equaldotsize/R/13_Ratio_250_L_2_R_8.png","xmouse":[770,770,770,770,770,770,770,770,770,770,770,770,770,770,770,770,770,770,770,770,770,770,770,770,770,770,770,770,770,770,770,770,770,770,770,770,770,770,770,774,780,785,790,796,820,840,852,863,870,885,895,902,910,916,932,941,953,965,973,976,977,978,979,982,994,998,1003,1008,1014,1028,1037,1044,1055,1068],"ymouse":[506,506,506,506,506,506,506,506,506,506,506,506,506,506,506,506,506,506,506,506,506,506,506,506,506,506,506,506,506,506,506,506,506,506,506,506,506,506,506,506,504,502,498,492,463,429,408,387,371,340,324,311,296,282,239,222,203,185,170,155,152,150,148,144,134,129,123,116,109,95,88,84,78,72],"timestamp_mouse":[4,24,44,64,84,104,124,144,164,184,204,224,244,264,284,304,324,344,364,384,404,424,444,464,484,504,524,544,564,584,604,624,644,664,684,704,725,744,764,785,804,824,844,864,884,904,924,944,964,984,1004,1024,1044,1064,1084,1105,1124,1144,1164,1184,1204,1224,1244,1265,1284,1304,1324,1344,1365,1384,1404,1425,1444,1465],"xSR":741.5,"ySR":449.15000000000003,"xT1":424.9,"yT1":0,"xT2":1058.1,"yT2":0,"toosoon":0,"cond_shown":"equaldotsize","ratio_trial":250,"smaller_num":"2","larger_num":"8","correct_side":2,"subjID":"mariacamilaromerovasquez17","gender":"1","age":"9","school":"4"},{"start_time":1552055081932,"click_time":1552055084229,"finger_time":1552055083529,"fix_duration":582.656751733986,"trial":13,"RT":1597,"MT":700,"sideResp":2,"stimulus":"img/750/equaldotsize/R/7_Ratio_750_L_3_R_4.png","xmouse":[813,813,813,813,813,813,813,813,813,813,813,813,813,813,813,813,813,813,813,813,813,813,813,813,813,813,813,813,813,813,813,813,813,813,813,813,813,813,813,813,813,813,813,813,813,813,813,813,813,813,813,813,813,813,813,813,813,813,813,813,813,813,813,813,813,813,813,813,813,813,813,813,813,813,813,813,813,824,840,888,901,917,936,969,1153,1237,1298,1329,1347,1357,1358,1358,1358,1358,1355,1348,1342,1332,1318,1275,1252,1233,1217,1206,1190,1187,1185,1183,1182,1179,1177,1174,1168,1159,1111],"ymouse":[485,485,485,485,485,485,485,485,485,485,485,485,485,485,485,485,485,485,485,485,485,485,485,485,485,485,485,485,485,485,485,485,485,485,485,485,485,485,485,485,485,485,485,485,485,485,485,485,485,485,485,485,485,485,485,485,485,485,485,485,485,485,485,485,485,485,485,485,485,485,485,485,485,485,485,485,485,476,465,435,424,410,393,367,275,251,231,216,203,184,178,170,164,158,138,124,115,102,91,76,70,68,68,68,69,70,71,71,72,73,74,75,77,81,95],"timestamp_mouse":[19,37,57,77,98,117,137,157,177,197,217,237,257,277,297,317,338,358,378,398,418,437,457,477,497,517,537,557,577,597,617,637,657,677,697,717,737,757,777,797,817,837,857,877,897,917,938,957,978,998,1018,1037,1057,1077,1098,1117,1137,1157,1177,1197,1217,1237,1257,1277,1297,1317,1337,1357,1377,1397,1418,1437,1457,1477,1497,1517,1537,1557,1578,1597,1617,1637,1657,1677,1697,1718,1738,1757,1777,1797,1817,1837,1857,1877,1897,1917,1937,1957,1977,1997,2017,2037,2057,2077,2097,2117,2137,2157,2177,2198,2217,2237,2257,2277,2297],"xSR":741.5,"ySR":449.15000000000003,"xT1":424.9,"yT1":0,"xT2":1058.1,"yT2":0,"toosoon":0,"cond_shown":"equaldotsize","ratio_trial":750,"smaller_num":"3","larger_num":"4","correct_side":2,"subjID":"mariacamilaromerovasquez17","gender":"1","age":"9","school":"4"},{"start_time":1552055087341,"click_time":1552055088849,"finger_time":1552055088270,"fix_duration":390.96688478036947,"trial":14,"RT":929,"MT":579,"sideResp":2,"stimulus":"img/250/equaldotanddens/R/10_Ratio_250_L_4_R_16.png","xmouse":[787,784,783,783,783,783,783,783,783,783,783,783,783,783,783,783,783,783,783,783,783,783,783,783,783,783,783,783,783,783,783,783,783,783,783,783,783,783,783,783,783,783,783,785,788,809,826,837,849,874,885,895,902,907,917,923,926,929,932,939,941,946,950,956,967,1013,1026,1038,1045,1059,1065,1070,1077,1082,1088,1096],"ymouse":[485,486,486,486,486,486,486,486,486,486,486,486,486,486,486,486,486,486,486,486,486,486,486,486,486,486,486,486,486,486,486,486,486,486,486,486,486,486,486,486,486,486,484,480,474,451,439,429,419,397,384,372,364,356,338,326,318,308,299,281,275,267,259,252,244,228,220,210,199,174,163,152,137,124,110,78],"timestamp_mouse":[12,29,48,69,89,109,129,148,168,189,208,229,248,268,288,308,329,348,368,388,408,429,448,468,488,509,529,548,568,588,608,628,648,669,688,709,728,748,769,789,809,828,848,869,888,908,929,949,968,989,1008,1028,1048,1068,1088,1109,1128,1148,1168,1188,1208,1229,1248,1269,1288,1309,1329,1348,1368,1388,1408,1429,1449,1469,1488,1508],"xSR":741.5,"ySR":449.15000000000003,"xT1":424.9,"yT1":0,"xT2":1058.1,"yT2":0,"toosoon":0,"cond_shown":"equaldotanddens","ratio_trial":250,"smaller_num":"4","larger_num":"16","correct_side":2,"subjID":"mariacamilaromerovasquez17","gender":"1","age":"9","school":"4"},{"start_time":1552055091406,"click_time":1552055092989,"finger_time":1552055092229,"fix_duration":1276.3545401450117,"trial":15,"RT":823,"MT":760,"sideResp":2,"stimulus":"img/500/equaldotanddens/R/9_Ratio_500_L_2_R_4.png","xmouse":[783,783,783,783,783,783,783,783,783,783,783,783,783,783,783,783,783,783,783,783,783,783,783,783,783,783,783,783,783,783,783,783,783,783,783,783,783,783,783,798,809,854,864,871,878,886,909,920,933,944,956,974,982,984,984,985,986,988,990,992,995,1003,1011,1018,1026,1035,1050,1054,1058,1059,1063,1068,1070,1073,1073,1073,1074,1075,1075,1077],"ymouse":[493,493,493,493,493,493,493,493,493,493,493,493,493,493,493,493,493,493,493,493,493,493,493,493,493,493,493,493,493,493,493,493,493,493,493,493,493,493,493,477,465,419,409,399,388,377,350,338,324,309,293,262,240,232,227,222,219,217,214,211,206,193,182,173,164,157,143,139,135,133,128,120,115,111,111,110,107,105,103,99],"timestamp_mouse":[5,23,44,63,84,103,123,143,163,184,203,223,243,263,284,304,323,343,363,383,403,423,443,463,483,503,523,543,563,583,603,623,643,663,683,703,723,743,763,783,803,823,844,863,884,903,923,943,963,983,1003,1025,1044,1064,1085,1104,1123,1143,1164,1183,1203,1223,1244,1264,1283,1303,1323,1343,1363,1383,1403,1423,1443,1463,1483,1503,1523,1543,1563,1583],"xSR":741.5,"ySR":449.15000000000003,"xT1":424.9,"yT1":0,"xT2":1058.1,"yT2":0,"toosoon":0,"cond_shown":"equaldotanddens","ratio_trial":500,"smaller_num":"2","larger_num":"4","correct_side":2,"subjID":"mariacamilaromerovasquez17","gender":"1","age":"9","school":"4"},{"start_time":1552055094320,"click_time":1552055095650,"finger_time":1552055095430,"fix_duration":250,"trial":16,"RT":1110,"MT":220,"sideResp":2,"stimulus":"img/900/equaldotsize/R/7_Ratio_900_L_9_R_10.png","xmouse":[800,800,800,800,800,799,799,798,797,797,797,797,797,797,797,797,797,797,797,797,797,797,797,797,797,797,797,797,797,797,797,797,797,797,797,797,797,797,797,797,797,797,797,797,797,797,797,797,797,797,797,797,797,810,834,946,981,1012,1028,1038,1042,1047,1052,1061,1075,1117,1129],"ymouse":[521,521,521,521,521,521,521,520,520,520,520,520,520,520,520,520,520,520,520,520,520,520,520,520,520,520,520,520,520,520,520,520,520,520,520,520,520,520,520,520,520,520,520,520,520,520,520,520,520,520,520,519,517,504,485,388,356,316,292,274,261,230,214,195,174,115,93],"timestamp_mouse":[12,30,50,69,89,109,129,149,169,189,209,229,249,269,289,309,329,349,369,389,409,429,449,469,490,509,529,549,569,589,609,629,649,669,689,709,729,749,769,789,809,829,849,869,889,909,929,949,969,989,1009,1029,1049,1069,1089,1110,1129,1149,1169,1189,1209,1229,1250,1269,1289,1309,1330],"xSR":741.5,"ySR":449.15000000000003,"xT1":424.9,"yT1":0,"xT2":1058.1,"yT2":0,"toosoon":0,"cond_shown":"equaldotsize","ratio_trial":900,"smaller_num":"9","larger_num":"10","correct_side":2,"subjID":"mariacamilaromerovasquez17","gender":"1","age":"9","school":"4"},{"start_time":1552055097470,"click_time":1552055098809,"finger_time":1552055098330,"fix_duration":720.9995464589056,"trial":17,"RT":860,"MT":479,"sideResp":2,"stimulus":"img/750/equaldotanddens/R/11_Ratio_750_L_12_R_16.png","xmouse":[779,779,779,779,779,779,779,779,779,779,779,779,779,779,779,779,779,779,779,779,779,779,779,779,779,779,779,779,779,779,779,779,779,779,779,779,779,781,785,795,810,832,886,902,916,926,934,953,966,974,982,989,1004,1013,1021,1028,1033,1039,1041,1042,1043,1046,1049,1057,1061,1066,1071],"ymouse":[509,509,509,509,509,509,509,509,509,509,509,509,509,509,509,509,509,509,509,509,509,509,509,509,509,509,509,509,509,509,509,509,509,509,509,509,509,509,509,507,497,484,448,431,408,387,366,328,306,295,285,275,257,247,234,221,210,195,183,176,168,159,149,125,114,105,93],"timestamp_mouse":[20,39,59,80,99,119,139,159,179,199,219,239,259,279,299,319,339,359,379,399,419,439,459,479,499,519,540,559,579,599,620,640,660,679,699,719,739,760,779,799,819,840,860,879,899,919,939,959,979,999,1019,1039,1059,1079,1099,1119,1139,1159,1180,1199,1220,1239,1259,1279,1300,1319,1339],"xSR":741.5,"ySR":449.15000000000003,"xT1":424.9,"yT1":0,"xT2":1058.1,"yT2":0,"toosoon":0,"cond_shown":"equaldotanddens","ratio_trial":750,"smaller_num":"12","larger_num":"16","correct_side":2,"subjID":"mariacamilaromerovasquez17","gender":"1","age":"9","school":"4"},{"start_time":1552055100949,"click_time":1552055101909,"finger_time":1552055101769,"fix_duration":1138.5066538834753,"trial":18,"RT":820,"MT":140,"sideResp":2,"stimulus":"img/900/randomdotsizeEA/R/12_Ratio_900_L_18_R_20.png","xmouse":[810,810,810,810,810,810,810,810,810,810,810,810,810,810,810,810,810,810,810,810,810,810,810,810,810,810,810,810,810,810,810,810,810,810,810,810,810,810,810,813,826,846,874,907,977,1008,1035,1055,1072],"ymouse":[513,513,513,513,513,513,513,513,513,513,513,513,513,513,513,513,513,513,513,513,513,513,513,513,513,513,513,513,513,513,513,513,513,513,513,513,513,513,513,503,486,462,432,390,277,214,169,130,98],"timestamp_mouse":[3,22,40,60,80,100,121,140,160,180,200,220,240,260,280,300,320,340,361,380,400,420,440,460,480,500,520,540,560,580,600,620,640,660,680,700,720,740,760,780,800,820,840,860,881,900,920,941,960],"xSR":741.5,"ySR":449.15000000000003,"xT1":424.9,"yT1":0,"xT2":1058.1,"yT2":0,"toosoon":0,"cond_shown":"randomdotsizeEA","ratio_trial":900,"smaller_num":"18","larger_num":"20","correct_side":2,"subjID":"mariacamilaromerovasquez17","gender":"1","age":"9","school":"4"},{"start_time":1552055103401,"click_time":1552055104289,"finger_time":1552055104109,"fix_duration":250,"trial":19,"RT":708,"MT":180,"sideResp":2,"stimulus":"img/900/equaldotsize/R/13_Ratio_900_L_18_R_20.png","xmouse":[778,778,778,778,778,778,778,778,778,778,778,778,778,778,778,778,778,778,778,778,778,778,778,778,778,778,778,778,778,778,778,778,778,784,803,828,893,919,942,965,983,1028,1048,1068,1094],"ymouse":[490,490,490,490,490,490,490,490,490,490,490,490,490,490,490,490,490,490,490,490,490,490,490,490,490,490,490,490,490,490,490,490,490,484,464,437,355,321,288,257,232,165,138,110,76],"timestamp_mouse":[9,29,48,69,88,108,128,148,168,188,209,228,248,268,288,308,328,348,368,388,409,429,448,468,488,508,528,548,568,588,608,628,648,668,688,708,728,748,768,788,808,828,849,868,888],"xSR":741.5,"ySR":449.15000000000003,"xT1":424.9,"yT1":0,"xT2":1058.1,"yT2":0,"toosoon":0,"cond_shown":"equaldotsize","ratio_trial":900,"smaller_num":"18","larger_num":"20","correct_side":2,"subjID":"mariacamilaromerovasquez17","gender":"1","age":"9","school":"4"},{"start_time":1552055105920,"click_time":1552055106851,"finger_time":1552055106549,"fix_duration":250,"trial":20,"RT":629,"MT":302,"sideResp":2,"stimulus":"img/500/equaldotsize/R/1_Ratio_500_L_9_R_18.png","xmouse":[787,787,787,787,787,787,787,787,787,787,787,787,787,787,787,787,787,787,787,787,787,787,787,787,787,787,787,787,793,798,827,850,876,906,938,1024,1050,1068,1079,1084,1096,1103,1109,1117,1123,1136,1143],"ymouse":[495,495,495,495,495,495,495,495,495,495,495,495,495,495,495,495,495,495,495,495,495,495,495,495,495,495,495,495,492,486,452,426,394,361,323,244,225,209,199,192,173,159,146,134,123,100,83],"timestamp_mouse":[9,29,49,69,89,109,129,149,169,189,210,229,249,269,289,310,329,349,369,389,409,429,450,471,490,510,531,549,569,589,609,629,649,669,689,709,729,749,769,789,809,829,849,869,889,910,931],"xSR":741.5,"ySR":449.15000000000003,"xT1":424.9,"yT1":0,"xT2":1058.1,"yT2":0,"toosoon":0,"cond_shown":"equaldotsize","ratio_trial":500,"smaller_num":"9","larger_num":"18","correct_side":2,"subjID":"mariacamilaromerovasquez17","gender":"1","age":"9","school":"4"},{"start_time":1552055108545,"click_time":1552055110029,"finger_time":1552055109549,"fix_duration":416.4050299411287,"trial":21,"RT":1004,"MT":480,"sideResp":1,"stimulus":"img/500/equaldotsize/L/11_Ratio_500_L_12_R_6.png","xmouse":[760,760,761,763,763,763,764,766,767,770,771,772,772,772,772,772,772,772,772,772,772,772,772,772,772,774,775,775,775,775,775,775,775,775,775,775,775,775,775,775,775,775,775,775,775,775,775,775,776,776,768,752,731,703,641,615,591,577,577,577,577,577,577,577,577,577,577,577,577,577,577,577,577,577,467],"ymouse":[479,481,482,483,483,483,484,484,485,486,486,487,487,487,487,487,487,487,487,487,487,487,487,487,487,486,486,486,486,486,486,486,486,486,486,486,486,486,486,486,486,486,486,486,486,486,486,486,485,475,437,380,326,262,120,68,28,1,1,1,1,1,1,1,1,1,1,1,1,1,1,1,1,1,3],"timestamp_mouse":[4,24,44,64,84,104,125,144,165,185,205,225,244,264,284,305,324,344,364,384,404,424,444,464,484,504,524,544,565,584,604,624,644,664,685,704,724,744,764,784,804,824,844,864,884,905,925,944,965,984,1004,1024,1044,1065,1084,1105,1124,1144,1165,1184,1205,1224,1244,1264,1284,1305,1324,1344,1364,1384,1404,1424,1444,1464,1484],"xSR":741.5,"ySR":449.15000000000003,"xT1":424.9,"yT1":0,"xT2":1058.1,"yT2":0,"toosoon":0,"cond_shown":"equaldotsize","ratio_trial":500,"smaller_num":"6","larger_num":"12","correct_side":1,"subjID":"mariacamilaromerovasquez17","gender":"1","age":"9","school":"4"},{"start_time":1552055112066,"click_time":1552055113710,"finger_time":1552055113009,"fix_duration":695.7538153283842,"trial":22,"RT":943,"MT":701,"sideResp":1,"stimulus":"img/750/randomdotsizeEA/L/13_Ratio_750_L_8_R_6.png","xmouse":[780,780,780,780,780,780,780,780,780,780,780,780,780,780,780,780,780,780,780,780,780,780,780,780,780,780,780,780,780,780,780,780,780,780,780,780,780,780,780,780,780,780,780,780,780,776,769,757,727,701,684,667,652,633,630,628,628,627,619,611,607,603,599,588,582,578,571,563,553,546,542,539,535,528,521,519,517,517,516,515,514,513,511],"ymouse":[499,499,499,499,499,499,499,499,499,499,499,499,499,499,499,499,499,499,499,499,499,499,499,499,499,499,499,499,499,499,499,499,499,499,499,499,499,499,499,499,499,499,499,499,493,480,458,423,336,289,260,232,217,205,203,202,202,202,198,195,194,192,190,186,183,180,176,171,158,147,140,136,129,122,113,110,108,107,106,105,103,100,97],"timestamp_mouse":[4,23,43,63,83,103,123,144,165,184,203,223,243,264,283,303,323,343,363,384,403,423,444,464,483,504,525,543,563,585,603,624,643,663,684,704,724,744,763,785,804,824,843,863,883,903,923,943,964,983,1003,1024,1043,1065,1084,1104,1124,1144,1163,1183,1203,1223,1243,1263,1283,1303,1323,1343,1363,1383,1404,1423,1443,1463,1483,1503,1523,1543,1563,1584,1603,1623,1644],"xSR":741.5,"ySR":449.15000000000003,"xT1":424.9,"yT1":0,"xT2":1058.1,"yT2":0,"toosoon":0,"cond_shown":"randomdotsizeEA","ratio_trial":750,"smaller_num":"6","larger_num":"8","correct_side":1,"subjID":"mariacamilaromerovasquez17","gender":"1","age":"9","school":"4"},{"start_time":1552055115302,"click_time":1552055116529,"finger_time":1552055116029,"fix_duration":250,"trial":23,"RT":727,"MT":500,"sideResp":2,"stimulus":"img/250/equaldotanddens/R/10_Ratio_250_L_4_R_16.png","xmouse":[782,782,782,782,782,782,782,782,782,782,782,782,782,782,782,782,782,782,782,782,782,782,782,782,782,782,782,782,782,782,782,782,782,782,784,795,872,915,957,986,1009,1032,1054,1059,1064,1069,1081,1089,1093,1097,1100,1103,1104,1106,1109,1110,1114,1117,1119,1123,1127,1133],"ymouse":[505,505,505,505,505,505,505,505,505,505,505,505,505,505,505,505,505,505,505,505,505,505,505,505,505,505,505,505,505,505,505,505,505,505,505,502,477,455,435,417,400,367,336,326,314,304,278,264,253,243,234,221,216,211,203,198,174,156,145,132,117,91],"timestamp_mouse":[8,28,47,67,87,107,127,147,167,187,209,228,248,268,288,308,327,347,367,387,407,427,447,467,487,507,527,547,567,587,607,627,647,667,687,707,727,747,767,787,807,827,847,868,887,907,927,948,967,987,1007,1027,1047,1067,1087,1107,1127,1148,1167,1187,1207,1227],"xSR":741.5,"ySR":449.15000000000003,"xT1":424.9,"yT1":0,"xT2":1058.1,"yT2":0,"toosoon":0,"cond_shown":"equaldotanddens","ratio_trial":250,"smaller_num":"4","larger_num":"16","correct_side":2,"subjID":"mariacamilaromerovasquez17","gender":"1","age":"9","school":"4"},{"start_time":1552055118940,"click_time":1552055120129,"finger_time":1552055119689,"fix_duration":1049.7480902938535,"trial":24,"RT":749,"MT":440,"sideResp":1,"stimulus":"img/750/randomdotsizeEA/R/2_Ratio_750_L_6_R_8.png","xmouse":[801,801,801,801,801,801,801,801,801,801,801,801,801,801,801,801,801,801,801,801,801,801,801,801,801,801,801,801,801,801,801,801,801,801,801,800,782,752,716,602,535,487,454,433,418,417,417,416,415,413,413,412,412,412,415,424,430,436,442,449],"ymouse":[485,485,485,485,485,485,485,485,485,485,485,485,485,485,485,485,485,485,485,485,485,485,485,485,485,485,485,485,485,485,485,485,485,485,485,485,463,431,396,309,265,238,222,214,204,199,196,191,185,177,173,171,168,165,154,139,129,118,108,93],"timestamp_mouse":[12,30,50,69,89,109,129,149,169,189,209,229,249,269,289,309,329,349,369,389,409,429,449,469,489,509,529,549,569,589,610,630,650,670,690,710,729,749,769,789,809,830,849,869,889,910,929,949,969,989,1009,1029,1049,1069,1089,1109,1129,1149,1169,1189],"xSR":741.5,"ySR":449.15000000000003,"xT1":424.9,"yT1":0,"xT2":1058.1,"yT2":0,"toosoon":0,"cond_shown":"randomdotsizeEA","ratio_trial":750,"smaller_num":"6","larger_num":"8","correct_side":2,"subjID":"mariacamilaromerovasquez17","gender":"1","age":"9","school":"4"},{"start_time":1552055122482,"click_time":1552055123609,"finger_time":1552055123249,"fix_duration":993.9124089454226,"trial":25,"RT":767,"MT":360,"sideResp":2,"stimulus":"img/250/equaldotsize/R/6_Ratio_250_L_6_R_24.png","xmouse":[786,786,786,786,786,786,786,786,786,786,786,786,786,786,786,786,786,786,786,786,786,786,786,786,786,786,786,786,786,786,786,786,786,786,786,786,789,806,939,983,998,1001,1002,1005,1009,1017,1026,1050,1062,1069,1080,1090,1107,1116,1123,1124,1124],"ymouse":[483,483,483,483,483,483,483,483,483,483,483,483,483,483,483,483,483,483,483,483,483,483,483,483,483,483,483,483,483,483,483,483,483,483,483,483,480,474,429,418,412,410,408,404,396,385,373,348,331,315,296,274,218,186,149,122,98],"timestamp_mouse":[7,27,48,67,88,107,129,148,168,187,207,227,248,267,287,308,329,348,368,388,408,428,448,468,487,507,527,547,567,587,607,628,648,668,688,707,727,747,767,787,807,828,847,867,888,908,927,947,967,987,1007,1027,1047,1067,1087,1107,1127],"xSR":741.5,"ySR":449.15000000000003,"xT1":424.9,"yT1":0,"xT2":1058.1,"yT2":0,"toosoon":0,"cond_shown":"equaldotsize","ratio_trial":250,"smaller_num":"6","larger_num":"24","correct_side":2,"subjID":"mariacamilaromerovasquez17","gender":"1","age":"9","school":"4"},{"start_time":1552055126789,"click_time":1552055128331,"finger_time":1552055127769,"fix_duration":339.4483744252748,"trial":26,"RT":980,"MT":562,"sideResp":1,"stimulus":"img/750/equaldotsize/R/2_Ratio_750_L_6_R_8.png","xmouse":[822,821,820,818,817,817,817,817,815,813,810,809,807,807,807,807,807,807,807,807,807,807,807,807,807,807,807,807,807,807,807,807,807,807,807,807,807,807,807,807,807,807,807,806,803,799,797,786,781,773,762,748,682,669,664,655,645,621,609,597,583,569,527,513,501,493,489,487,487,486,486,483,482,479,479,479,479,486],"ymouse":[489,489,488,488,487,487,487,487,487,487,487,487,487,487,487,487,487,487,487,487,487,487,487,487,487,487,487,487,487,487,487,487,487,487,487,487,487,487,487,487,487,487,487,487,485,483,482,471,462,449,435,416,335,320,310,295,282,256,246,236,223,206,167,157,149,143,141,140,140,140,140,138,136,121,116,113,108,97],"timestamp_mouse":[1,20,40,60,80,101,120,140,160,180,200,220,240,260,280,300,320,341,360,380,400,420,440,460,480,500,520,540,560,580,600,624,640,660,680,700,720,740,760,780,800,820,840,860,880,900,920,940,960,980,1000,1020,1041,1060,1080,1100,1120,1141,1160,1180,1200,1220,1241,1261,1280,1300,1320,1340,1360,1380,1400,1420,1441,1460,1481,1501,1521,1542],"xSR":741.5,"ySR":449.15000000000003,"xT1":424.9,"yT1":0,"xT2":1058.1,"yT2":0,"toosoon":0,"cond_shown":"equaldotsize","ratio_trial":750,"smaller_num":"6","larger_num":"8","correct_side":2,"subjID":"mariacamilaromerovasquez17","gender":"1","age":"9","school":"4"},{"start_time":1552055130521,"click_time":1552055131890,"finger_time":1552055131349,"fix_duration":1151.5809675441628,"trial":27,"RT":828,"MT":541,"sideResp":1,"stimulus":"img/750/equaldotsize/L/1_Ratio_750_L_20_R_15.png","xmouse":[787,787,787,787,787,787,787,787,787,787,787,787,787,787,787,787,787,787,787,787,787,787,787,787,787,787,787,787,787,787,787,787,787,787,787,787,787,787,783,780,767,758,752,746,741,733,724,718,711,702,685,674,665,658,651,633,624,612,600,588,566,557,554,553,552,548,542,536,524],"ymouse":[507,507,507,507,507,507,507,507,507,507,507,507,507,507,507,507,507,507,507,507,507,507,507,507,507,507,507,507,507,507,507,507,507,507,507,507,507,503,490,480,455,443,435,426,418,396,366,342,320,298,256,235,218,208,196,168,156,144,136,129,118,115,113,112,112,110,106,103,96],"timestamp_mouse":[12,29,49,69,89,110,129,150,169,189,208,228,248,268,288,308,328,348,368,388,408,428,448,468,488,508,528,548,568,588,608,628,648,668,688,709,728,748,768,788,809,828,848,868,888,909,928,948,969,988,1008,1028,1048,1068,1088,1109,1129,1148,1168,1188,1209,1228,1248,1268,1288,1309,1329,1348,1369],"xSR":741.5,"ySR":449.15000000000003,"xT1":424.9,"yT1":0,"xT2":1058.1,"yT2":0,"toosoon":0,"cond_shown":"equaldotsize","ratio_trial":750,"smaller_num":"15","larger_num":"20","correct_side":1,"subjID":"mariacamilaromerovasquez17","gender":"1","age":"9","school":"4"},{"start_time":1552055133700,"click_time":1552055135430,"finger_time":1552055134609,"fix_duration":250,"trial":28,"RT":909,"MT":821,"sideResp":2,"stimulus":"img/250/randomdotsizeEA/R/12_Ratio_250_L_5_R_20.png","xmouse":[767,767,767,767,767,767,767,767,767,767,767,767,767,767,767,767,767,767,767,767,767,767,767,767,767,767,767,767,767,767,767,767,767,767,767,767,767,767,767,767,767,767,775,788,822,854,879,905,912,924,936,958,968,976,983,989,997,1003,1007,1010,1015,1021,1036,1043,1049,1055,1062,1070,1071,1072,1072,1072,1072,1072,1073,1073,1073,1073,1073,1073,1073,1074,1074,1075,1077,1078,1081],"ymouse":[495,495,495,495,495,495,495,495,495,495,495,495,495,495,495,495,495,495,495,495,495,495,495,495,495,495,495,495,495,495,495,495,495,495,495,495,495,495,495,495,495,495,495,492,487,478,470,459,456,451,446,429,419,408,396,386,366,351,340,328,316,302,269,254,239,224,212,199,196,193,191,189,184,178,172,166,158,149,147,145,144,141,138,135,128,117,88],"timestamp_mouse":[10,29,49,69,89,109,129,149,169,189,209,229,249,269,289,309,329,349,369,389,409,429,450,469,489,509,529,549,569,589,610,629,649,670,689,709,729,749,770,789,810,829,849,870,889,909,929,950,970,990,1009,1029,1049,1069,1089,1109,1130,1150,1170,1190,1209,1229,1249,1269,1289,1309,1329,1350,1369,1389,1411,1429,1449,1469,1490,1509,1529,1550,1569,1589,1609,1629,1649,1669,1689,1710,1730],"xSR":741.5,"ySR":449.15000000000003,"xT1":424.9,"yT1":0,"xT2":1058.1,"yT2":0,"toosoon":0,"cond_shown":"randomdotsizeEA","ratio_trial":250,"smaller_num":"5","larger_num":"20","correct_side":2,"subjID":"mariacamilaromerovasquez17","gender":"1","age":"9","school":"4"},{"start_time":1552055137684,"click_time":1552055139109,"finger_time":1552055138529,"fix_duration":1254.0840319081174,"trial":29,"RT":845,"MT":580,"sideResp":1,"stimulus":"img/500/equaldotsize/L/13_Ratio_500_L_12_R_6.png","xmouse":[799,799,799,799,799,799,799,799,799,799,799,799,799,799,799,799,799,799,799,799,799,799,799,799,799,799,799,799,799,799,799,799,799,799,799,799,799,799,799,794,787,771,728,710,695,685,675,663,652,643,632,618,595,588,583,581,578,576,576,576,576,576,576,576,576,576,576,576,576,576,576,437],"ymouse":[496,496,496,496,496,496,496,496,496,496,496,496,496,496,496,496,496,496,496,496,496,496,496,496,496,496,496,496,496,496,496,496,496,496,496,496,496,496,496,487,476,452,386,350,317,290,259,200,142,111,87,67,35,23,15,11,4,0,0,0,0,0,0,0,0,0,0,0,0,0,0,2],"timestamp_mouse":[5,25,45,66,85,105,126,145,165,185,205,225,245,265,285,305,325,345,366,385,405,425,445,465,485,506,526,546,566,586,606,626,646,666,686,706,726,746,766,786,805,825,845,865,885,905,925,945,966,986,1005,1025,1045,1065,1085,1105,1125,1145,1166,1185,1205,1225,1245,1265,1285,1305,1325,1345,1365,1385,1406,1425],"xSR":741.5,"ySR":449.15000000000003,"xT1":424.9,"yT1":0,"xT2":1058.1,"yT2":0,"toosoon":0,"cond_shown":"equaldotsize","ratio_trial":500,"smaller_num":"6","larger_num":"12","correct_side":1,"subjID":"mariacamilaromerovasquez17","gender":"1","age":"9","school":"4"},{"start_time":1552055140931,"click_time":1552055145029,"finger_time":1552055144329,"fix_duration":461.0498587226097,"trial":30,"RT":3398,"MT":700,"sideResp":2,"stimulus":"img/900/randomdotsizeEA/R/3_Ratio_900_L_9_R_10.png","xmouse":[807,807,807,807,807,807,807,807,807,807,807,807,807,807,807,807,807,807,807,807,807,807,807,807,807,807,807,807,807,807,807,807,807,807,807,807,807,807,807,807,807,807,807,807,807,807,807,807,807,807,807,807,807,807,807,807,807,807,807,807,807,807,805,805,805,803,803,803,803,803,803,803,803,803,803,803,803,803,803,803,803,803,803,803,803,803,803,803,803,803,803,803,803,803,803,803,803,803,803,803,803,803,803,803,803,803,803,803,803,803,803,803,803,803,803,803,803,803,803,803,803,803,802,802,798,796,795,793,792,788,787,785,783,782,781,780,780,780,780,780,780,780,780,780,780,780,780,780,780,780,780,780,779,779,779,779,779,779,779,779,779,779,779,779,779,779,785,787,792,801,808,818,827,839,866,885,898,911,926,962,983,1004,1025,1042,1053,1077,1081,1086,1088,1089,1089,1089,1088,1087,1085,1085,1085,1085,1085,1085,1085,1085,1085,1085,1082],"ymouse":[492,492,492,492,492,492,492,492,492,492,492,492,492,492,492,492,492,492,492,492,492,492,492,492,492,492,492,492,492,492,492,492,492,492,492,492,492,492,492,492,492,492,492,492,492,492,492,492,492,492,492,492,492,492,492,492,492,492,492,492,492,492,492,492,492,492,492,492,492,492,492,492,492,492,492,492,492,492,492,492,492,492,492,492,492,492,492,492,492,492,492,492,492,492,492,492,492,492,492,492,492,492,492,492,492,492,492,492,492,492,492,492,492,492,492,492,492,492,492,492,492,492,491,490,485,482,480,477,476,472,470,469,467,466,464,463,463,463,463,463,463,463,463,463,463,463,463,463,463,463,463,463,462,462,462,462,462,462,462,462,462,462,462,462,462,462,458,456,453,446,442,436,429,421,406,395,387,379,371,347,332,315,294,275,253,200,183,168,156,144,140,136,135,133,130,130,130,130,130,130,129,124,118,110,91],"timestamp_mouse":[19,38,58,79,98,118,138,158,179,198,218,238,258,278,298,319,339,358,378,398,419,439,459,479,499,519,539,559,579,599,619,639,659,679,699,719,738,758,778,798,818,839,858,878,898,918,938,958,978,998,1018,1038,1058,1078,1098,1118,1138,1158,1178,1198,1218,1238,1258,1278,1298,1318,1339,1358,1378,1398,1418,1438,1458,1479,1498,1518,1538,1558,1578,1599,1618,1638,1658,1678,1698,1718,1738,1758,1778,1798,1818,1838,1858,1878,1898,1918,1938,1958,1978,1998,2018,2038,2059,2079,2098,2118,2138,2158,2178,2198,2218,2238,2258,2278,2298,2318,2338,2358,2378,2398,2418,2438,2458,2478,2498,2518,2539,2559,2579,2599,2619,2639,2658,2678,2698,2718,2738,2758,2778,2798,2818,2839,2858,2878,2898,2918,2938,2958,2979,2999,3019,3039,3059,3079,3099,3120,3139,3159,3179,3199,3219,3239,3259,3278,3298,3318,3338,3359,3378,3398,3418,3439,3460,3479,3500,3519,3539,3559,3579,3600,3618,3639,3659,3679,3698,3719,3739,3758,3778,3798,3818,3838,3858,3878,3898,3918,3938,3958,3978,3998,4018,4038,4058,4078,4098],"xSR":741.5,"ySR":449.15000000000003,"xT1":424.9,"yT1":0,"xT2":1058.1,"yT2":0,"toosoon":0,"cond_shown":"randomdotsizeEA","ratio_trial":900,"smaller_num":"9","larger_num":"10","correct_side":2,"subjID":"mariacamilaromerovasquez17","gender":"1","age":"9","school":"4"},{"start_time":1552055147875,"click_time":1552055149469,"finger_time":1552055148649,"fix_duration":1484.6692796259147,"trial":31,"RT":774,"MT":820,"sideResp":2,"stimulus":"img/500/equaldotsize/R/15_Ratio_500_L_1_R_2.png","xmouse":[792,792,792,792,792,792,792,792,792,792,792,792,792,792,792,792,792,792,792,792,792,792,792,792,792,792,792,792,792,792,792,792,792,792,792,790,788,784,777,774,772,772,771,768,767,767,766,764,764,764,764,764,764,764,764,764,764,764,773,787,797,802,815,831,853,880,902,939,969,992,1011,1037,1086,1108,1121,1128,1132,1133,1135,1136],"ymouse":[475,475,475,475,475,475,475,475,475,475,475,475,475,475,475,475,475,475,475,475,475,475,475,475,475,475,475,475,475,475,475,475,475,475,475,471,466,451,436,429,425,424,424,423,423,422,421,421,421,421,421,421,421,421,421,421,421,421,426,430,431,431,431,427,418,407,394,356,317,290,268,240,193,175,160,147,134,116,103,95],"timestamp_mouse":[14,34,54,75,95,114,134,154,174,195,215,236,255,276,296,315,335,354,375,394,415,435,455,475,494,515,535,554,574,594,615,634,655,674,695,714,735,754,774,794,814,836,855,875,894,914,934,955,975,994,1014,1034,1054,1074,1094,1114,1134,1154,1174,1194,1214,1234,1254,1274,1294,1315,1334,1354,1374,1394,1414,1434,1454,1474,1495,1514,1535,1555,1574,1594],"xSR":741.5,"ySR":449.15000000000003,"xT1":424.9,"yT1":0,"xT2":1058.1,"yT2":0,"toosoon":0,"cond_shown":"equaldotsize","ratio_trial":500,"smaller_num":"1","larger_num":"2","correct_side":2,"subjID":"mariacamilaromerovasquez17","gender":"1","age":"9","school":"4"},{"start_time":1552055152219,"click_time":1552055154429,"finger_time":1552055153609,"fix_duration":1327.9411765525226,"trial":32,"RT":1390,"MT":820,"sideResp":2,"stimulus":"img/250/randomdotsizeEA/R/13_Ratio_250_L_2_R_8.png","xmouse":[787,787,787,787,787,787,787,787,787,787,787,787,787,787,787,787,787,787,787,787,787,787,787,787,787,787,787,787,787,787,787,787,787,787,787,787,787,787,787,787,787,787,787,787,787,787,787,787,787,787,787,787,787,787,787,787,787,787,787,787,787,787,787,787,787,787,804,812,823,836,864,882,893,901,908,922,928,933,939,943,952,960,966,972,978,987,991,996,1000,1005,1019,1034,1042,1051,1056,1059,1059,1059,1059,1059,1062,1064,1067,1072,1076,1083,1087,1091,1094,1099,1107],"ymouse":[497,497,497,497,497,497,497,497,497,497,497,497,497,497,497,497,497,497,497,497,497,497,497,497,497,497,497,497,497,497,497,497,497,497,497,497,497,497,497,497,497,497,497,497,497,497,497,497,497,497,497,497,497,497,497,497,497,497,497,497,497,497,497,497,497,497,476,467,451,435,401,380,368,356,345,325,315,305,295,287,270,258,250,244,236,226,222,219,217,213,201,189,180,172,166,161,161,161,161,161,157,155,151,143,138,128,122,118,113,106,97],"timestamp_mouse":[14,30,50,70,90,111,130,150,170,190,210,231,250,270,290,311,330,350,370,390,410,430,450,470,491,511,531,551,571,591,611,631,651,671,691,711,731,751,770,790,810,830,850,870,890,910,930,950,970,990,1010,1030,1050,1070,1090,1110,1130,1150,1170,1190,1210,1230,1251,1270,1290,1310,1330,1351,1370,1390,1411,1430,1450,1471,1491,1511,1530,1551,1571,1591,1612,1632,1651,1671,1691,1712,1730,1750,1770,1790,1810,1831,1851,1870,1890,1911,1931,1950,1970,1991,2010,2030,2050,2070,2090,2110,2130,2150,2170,2190,2210],"xSR":741.5,"ySR":449.15000000000003,"xT1":424.9,"yT1":0,"xT2":1058.1,"yT2":0,"toosoon":0,"cond_shown":"randomdotsizeEA","ratio_trial":250,"smaller_num":"2","larger_num":"8","correct_side":2,"subjID":"mariacamilaromerovasquez17","gender":"1","age":"9","school":"4"},{"start_time":1552055156400,"click_time":1552055158110,"finger_time":1552055157349,"fix_duration":730.7988504004552,"trial":33,"RT":949,"MT":761,"sideResp":1,"stimulus":"img/500/randomdotsizeEA/L/10_Ratio_500_L_4_R_2.png","xmouse":[810,810,810,810,810,810,810,810,810,810,810,810,810,810,810,810,810,810,810,810,810,810,810,810,810,810,810,810,810,810,810,810,810,810,810,810,810,810,810,810,810,810,810,810,810,810,803,793,780,765,749,714,691,676,667,659,653,642,635,628,623,617,598,588,578,568,548,541,535,532,529,526,525,525,525,525,525,525,525,525,525,525,525,525,525,523],"ymouse":[472,472,472,472,472,472,472,472,472,472,472,472,472,472,472,472,472,472,472,472,472,472,472,472,472,472,472,472,472,472,472,472,472,472,472,472,472,472,472,472,472,472,472,472,472,473,461,443,423,402,379,330,300,280,267,256,244,220,208,196,185,176,145,133,120,109,86,75,66,60,55,47,46,46,46,46,46,46,46,46,46,46,46,46,46,45],"timestamp_mouse":[10,29,49,69,89,110,129,149,169,189,209,229,249,269,289,310,330,349,369,389,409,429,449,469,489,509,529,549,569,589,609,629,650,670,690,710,730,750,770,790,810,830,850,870,890,910,929,949,969,989,1009,1029,1050,1069,1089,1109,1129,1149,1169,1189,1209,1229,1249,1269,1290,1309,1330,1349,1369,1389,1409,1430,1449,1469,1490,1509,1529,1549,1569,1589,1609,1630,1650,1670,1689,1709],"xSR":741.5,"ySR":449.15000000000003,"xT1":424.9,"yT1":0,"xT2":1058.1,"yT2":0,"toosoon":0,"cond_shown":"randomdotsizeEA","ratio_trial":500,"smaller_num":"2","larger_num":"4","correct_side":1,"subjID":"mariacamilaromerovasquez17","gender":"1","age":"9","school":"4"},{"start_time":1552055159655,"click_time":1552055161729,"finger_time":1552055161029,"fix_duration":405.76383892382586,"trial":34,"RT":1374,"MT":700,"sideResp":2,"stimulus":"img/750/equaldotsize/R/5_Ratio_750_L_15_R_20.png","xmouse":[796,796,796,796,796,796,796,796,796,796,796,796,796,796,796,796,796,796,796,796,796,796,796,796,796,796,796,796,796,796,796,796,796,796,796,796,796,796,796,796,796,796,796,796,796,796,796,796,796,796,796,796,796,796,796,796,796,796,796,796,796,796,796,796,796,796,796,798,816,826,836,845,857,883,894,905,915,929,957,977,985,992,997,1007,1012,1017,1020,1025,1031,1037,1039,1043,1046,1055,1061,1066,1074,1080,1086,1101,1106,1113,1118,1130],"ymouse":[486,486,486,486,486,486,486,486,486,486,486,486,486,486,486,486,486,486,486,486,486,486,486,486,486,486,486,486,486,486,486,486,486,486,486,486,486,486,486,486,486,486,486,486,486,486,486,486,486,486,486,486,486,486,486,486,486,486,486,486,486,486,486,486,486,486,486,478,447,429,415,403,388,361,353,345,339,330,322,314,310,305,301,294,291,287,283,279,274,262,256,247,239,221,210,200,189,178,168,144,135,125,117,97],"timestamp_mouse":[14,34,54,75,94,114,134,154,174,194,214,234,254,274,294,314,334,355,375,395,416,435,455,475,494,514,534,554,574,595,614,634,654,675,694,714,734,754,774,794,814,834,854,874,894,914,934,954,974,994,1014,1034,1054,1074,1094,1114,1134,1154,1174,1194,1214,1234,1255,1275,1295,1314,1335,1354,1374,1395,1415,1435,1454,1474,1494,1514,1535,1556,1574,1595,1615,1635,1654,1674,1694,1714,1734,1754,1774,1795,1814,1835,1854,1874,1894,1914,1934,1954,1974,1994,2014,2034,2055,2074],"xSR":741.5,"ySR":449.15000000000003,"xT1":424.9,"yT1":0,"xT2":1058.1,"yT2":0,"toosoon":0,"cond_shown":"equaldotsize","ratio_trial":750,"smaller_num":"15","larger_num":"20","correct_side":2,"subjID":"mariacamilaromerovasquez17","gender":"1","age":"9","school":"4"},{"start_time":1552055164450,"click_time":1552055165830,"finger_time":1552055165429,"fix_duration":1339.3449541847758,"trial":35,"RT":979,"MT":401,"sideResp":1,"stimulus":"img/500/equaldotanddens/L/13_Ratio_500_L_12_R_6.png","xmouse":[766,766,766,766,766,766,766,766,766,766,766,766,766,766,766,766,766,766,766,766,766,766,766,766,766,766,766,766,766,766,766,766,766,766,766,766,766,766,766,766,766,766,766,766,766,766,766,760,754,720,702,689,677,666,634,617,602,587,574,540,527,513,502,491,478,475,473,470,468,457],"ymouse":[492,492,492,492,492,492,492,492,492,492,492,492,492,492,492,492,492,492,492,492,492,492,492,492,492,492,492,492,492,492,492,492,492,492,492,492,492,492,492,492,492,492,492,492,492,492,492,476,464,397,367,344,326,309,267,251,238,226,215,187,176,164,153,145,134,131,128,122,116,93],"timestamp_mouse":[2,20,40,60,79,99,119,139,159,179,200,219,239,259,279,299,320,339,359,380,399,419,439,459,479,499,519,539,559,579,599,619,639,659,679,699,719,739,759,779,799,819,839,859,879,899,919,939,959,979,1000,1020,1039,1059,1079,1099,1120,1139,1159,1180,1200,1220,1239,1259,1279,1300,1319,1340,1359,1380],"xSR":741.5,"ySR":449.15000000000003,"xT1":424.9,"yT1":0,"xT2":1058.1,"yT2":0,"toosoon":0,"cond_shown":"equaldotanddens","ratio_trial":500,"smaller_num":"6","larger_num":"12","correct_side":1,"subjID":"mariacamilaromerovasquez17","gender":"1","age":"9","school":"4"},{"start_time":1552055168388,"click_time":1552055169689,"finger_time":1552055169350,"fix_duration":977.7626444434036,"trial":36,"RT":962,"MT":339,"sideResp":1,"stimulus":"img/500/equaldotsize/L/8_Ratio_500_L_8_R_4.png","xmouse":[766,766,766,766,766,766,766,766,766,766,766,766,766,766,766,766,766,766,766,766,766,766,766,766,766,766,766,766,766,766,766,766,766,766,766,766,766,766,766,766,766,766,766,766,762,760,758,747,740,732,726,720,704,688,677,666,658,641,629,613,597,583,558,543,533,522],"ymouse":[480,480,480,480,480,480,480,480,480,480,480,480,480,480,480,480,480,480,480,480,480,480,480,480,480,480,480,480,480,480,480,480,480,480,480,480,480,480,480,480,480,480,480,480,480,479,476,461,447,431,416,400,367,340,323,303,285,248,226,202,181,164,134,117,104,92],"timestamp_mouse":[4,21,41,61,81,101,121,141,162,181,201,221,241,261,281,302,321,341,361,381,402,422,441,461,481,501,521,541,561,581,601,621,641,661,682,701,721,741,762,782,802,822,842,862,882,902,922,942,962,982,1002,1022,1041,1061,1081,1102,1121,1141,1161,1182,1201,1221,1241,1261,1281,1301],"xSR":741.5,"ySR":449.15000000000003,"xT1":424.9,"yT1":0,"xT2":1058.1,"yT2":0,"toosoon":0,"cond_shown":"equaldotsize","ratio_trial":500,"smaller_num":"4","larger_num":"8","correct_side":1,"subjID":"mariacamilaromerovasquez17","gender":"1","age":"9","school":"4"},{"start_time":1552055172117,"click_time":1552055173949,"finger_time":1552055173229,"fix_duration":1247.4211314819595,"trial":37,"RT":1112,"MT":720,"sideResp":2,"stimulus":"img/900/randomdotsizeEA/L/2_Ratio_900_L_20_R_18.png","xmouse":[792,792,792,792,792,792,792,792,792,792,792,792,792,792,792,792,792,792,792,792,792,792,792,792,792,792,792,792,792,792,792,792,792,792,792,792,792,792,792,792,792,792,792,792,792,792,792,792,792,792,792,792,792,795,804,883,908,932,951,965,982,990,999,1009,1020,1039,1045,1051,1058,1066,1083,1091,1097,1099,1105,1113,1119,1125,1129,1133,1139,1141,1143,1144,1146,1151,1151,1152,1154,1154,1154,1154],"ymouse":[518,518,518,518,518,518,518,518,518,518,518,518,518,518,518,518,518,518,518,518,518,518,518,518,518,518,518,518,518,518,518,518,518,518,518,518,518,518,518,518,518,518,518,518,518,518,518,518,518,518,518,518,518,518,516,508,504,499,497,495,492,490,485,480,473,462,458,454,449,443,427,416,404,397,385,363,342,324,306,287,255,241,230,222,213,184,174,163,153,144,118,98],"timestamp_mouse":[16,32,52,72,93,112,132,152,172,192,212,232,252,272,292,312,332,352,373,392,412,432,453,472,493,512,533,552,572,594,613,633,653,673,692,712,732,754,773,792,813,832,852,872,893,913,933,953,972,992,1013,1032,1052,1072,1094,1112,1133,1152,1173,1192,1212,1232,1253,1274,1293,1312,1333,1353,1372,1392,1412,1432,1452,1472,1492,1513,1532,1552,1572,1593,1612,1632,1652,1672,1692,1713,1732,1752,1772,1792,1812,1832],"xSR":741.5,"ySR":449.15000000000003,"xT1":424.9,"yT1":0,"xT2":1058.1,"yT2":0,"toosoon":0,"cond_shown":"randomdotsizeEA","ratio_trial":900,"smaller_num":"18","larger_num":"20","correct_side":1,"subjID":"mariacamilaromerovasquez17","gender":"1","age":"9","school":"4"},{"start_time":1552055175862,"click_time":1552055177250,"finger_time":1552055176909,"fix_duration":292.2437068951126,"trial":38,"RT":1047,"MT":341,"sideResp":1,"stimulus":"img/500/randomdotsizeEA/R/1_Ratio_500_L_9_R_18.png","xmouse":[785,785,785,785,785,785,785,785,785,785,785,785,785,785,785,785,785,785,785,785,785,785,785,785,785,785,785,785,785,785,785,785,785,785,785,785,785,785,785,785,785,785,785,785,785,785,785,785,785,784,769,747,726,696,688,681,675,667,631,608,582,564,555,551,549,549,548,547,528,518],"ymouse":[512,512,512,512,512,512,512,512,512,512,512,512,512,512,512,512,512,512,512,512,512,512,512,512,512,512,512,512,512,512,512,512,512,512,512,512,512,512,512,512,512,512,512,512,512,512,512,512,512,511,504,491,475,445,434,422,411,394,306,248,188,140,110,89,69,66,64,60,36,24],"timestamp_mouse":[9,29,48,68,89,108,128,148,168,188,208,227,247,267,287,307,327,347,367,387,407,427,447,467,487,507,527,547,567,587,607,627,647,667,687,707,727,747,767,787,807,827,847,868,887,907,927,947,967,987,1007,1027,1047,1068,1087,1107,1127,1147,1167,1187,1207,1227,1248,1267,1287,1307,1327,1348,1367,1388],"xSR":741.5,"ySR":449.15000000000003,"xT1":424.9,"yT1":0,"xT2":1058.1,"yT2":0,"toosoon":0,"cond_shown":"randomdotsizeEA","ratio_trial":500,"smaller_num":"9","larger_num":"18","correct_side":2,"subjID":"mariacamilaromerovasquez17","gender":"1","age":"9","school":"4"},{"start_time":1552055179180,"click_time":1552055180729,"finger_time":1552055180169,"fix_duration":429.43662519657056,"trial":39,"RT":989,"MT":560,"sideResp":2,"stimulus":"img/750/equaldotanddens/R/4_Ratio_750_L_15_R_20.png","xmouse":[782,782,782,782,782,782,782,782,782,782,782,782,782,782,782,782,782,782,782,782,782,782,782,782,782,782,782,782,782,782,782,782,782,782,782,782,782,782,782,782,782,782,782,782,782,782,782,783,809,823,835,843,850,872,882,892,900,916,923,929,934,939,954,969,979,988,996,1019,1033,1052,1071,1086,1097,1111,1115,1118,1121,1127],"ymouse":[498,498,498,498,498,498,498,498,498,498,498,498,498,498,498,498,498,498,498,498,498,498,498,498,498,498,498,498,498,498,498,498,498,498,498,498,498,498,498,498,498,498,498,498,498,498,499,497,463,443,423,407,392,347,326,307,290,257,246,236,228,221,207,199,193,188,184,174,168,163,154,148,141,129,123,118,112,99],"timestamp_mouse":[10,30,50,70,90,110,130,150,169,189,209,229,249,269,289,309,329,349,369,389,409,429,449,469,489,509,529,549,569,590,609,629,649,669,689,709,729,749,769,789,809,829,849,869,889,910,929,949,969,989,1009,1029,1049,1069,1089,1110,1129,1149,1169,1189,1209,1229,1249,1270,1289,1309,1329,1349,1369,1389,1409,1429,1449,1469,1489,1509,1529,1549],"xSR":741.5,"ySR":449.15000000000003,"xT1":424.9,"yT1":0,"xT2":1058.1,"yT2":0,"toosoon":0,"cond_shown":"equaldotanddens","ratio_trial":750,"smaller_num":"15","larger_num":"20","correct_side":2,"subjID":"mariacamilaromerovasquez17","gender":"1","age":"9","school":"4"},{"start_time":1552055182021,"click_time":1552055183189,"finger_time":1552055182949,"fix_duration":311.9676058962888,"trial":40,"RT":928,"MT":240,"sideResp":1,"stimulus":"img/900/equaldotanddens/L/4_Ratio_900_L_20_R_18.png","xmouse":[795,795,795,795,795,795,795,795,795,795,795,795,795,795,795,795,795,795,795,795,795,795,795,795,795,795,795,795,795,795,795,795,795,795,795,795,795,795,795,795,795,795,795,795,788,774,757,736,712,684,630,596,577,564,554,538,531,525,519],"ymouse":[495,495,495,495,495,495,495,495,495,495,495,495,495,495,495,495,495,495,495,495,495,495,495,495,495,495,495,495,495,495,495,495,495,495,495,495,495,495,495,495,495,495,495,495,481,451,422,385,345,302,227,183,160,142,127,99,87,75,66],"timestamp_mouse":[16,28,48,68,88,108,129,148,168,188,208,229,249,269,290,310,328,348,368,388,408,428,448,468,488,508,528,549,568,589,608,628,648,668,689,708,728,749,769,788,809,829,849,868,888,908,928,948,968,988,1008,1029,1049,1068,1088,1108,1128,1148,1168],"xSR":741.5,"ySR":449.15000000000003,"xT1":424.9,"yT1":0,"xT2":1058.1,"yT2":0,"toosoon":0,"cond_shown":"equaldotanddens","ratio_trial":900,"smaller_num":"18","larger_num":"20","correct_side":1,"subjID":"mariacamilaromerovasquez17","gender":"1","age":"9","school":"4"},{"start_time":1552055185068,"click_time":1552055186750,"finger_time":1552055185929,"fix_duration":798.8371170116518,"trial":41,"RT":861,"MT":821,"sideResp":2,"stimulus":"img/250/randomdotsizeEA/R/13_Ratio_250_L_2_R_8.png","xmouse":[779,779,779,779,779,779,779,779,779,779,779,779,779,779,779,779,779,779,779,779,779,779,779,779,779,779,779,779,779,779,779,779,779,779,779,779,779,779,779,779,784,800,834,857,886,895,903,910,924,932,935,939,942,946,956,964,972,982,1009,1021,1032,1042,1050,1067,1074,1083,1088,1092,1098,1099,1099,1099,1099,1099,1099,1100,1101,1102,1104,1106,1107,1108,1108,1109,1109],"ymouse":[508,508,508,508,508,508,508,508,508,508,508,508,508,508,508,508,508,508,508,508,508,508,508,508,508,508,508,508,508,508,508,508,508,508,508,508,508,508,508,508,500,495,482,471,445,434,425,413,398,388,383,378,372,367,348,334,318,300,256,241,225,209,197,172,162,152,144,137,127,126,126,126,126,126,125,123,120,118,111,106,105,102,101,100,99],"timestamp_mouse":[1,21,42,61,81,101,121,142,161,181,201,222,241,261,281,301,321,341,362,381,401,422,441,461,481,501,521,543,562,581,601,621,642,662,681,702,721,742,761,781,801,821,841,861,881,901,921,941,961,981,1001,1021,1041,1061,1081,1101,1121,1141,1162,1181,1201,1222,1241,1261,1281,1302,1322,1341,1362,1382,1401,1421,1441,1462,1481,1502,1522,1543,1562,1582,1602,1622,1642,1662,1681],"xSR":741.5,"ySR":449.15000000000003,"xT1":424.9,"yT1":0,"xT2":1058.1,"yT2":0,"toosoon":0,"cond_shown":"randomdotsizeEA","ratio_trial":250,"smaller_num":"2","larger_num":"8","correct_side":2,"subjID":"mariacamilaromerovasquez17","gender":"1","age":"9","school":"4"},{"start_time":1552055189202,"click_time":1552055190531,"finger_time":1552055190129,"fix_duration":1211.4274713710138,"trial":42,"RT":927,"MT":402,"sideResp":1,"stimulus":"img/500/equaldotanddens/L/13_Ratio_500_L_12_R_6.png","xmouse":[790,790,790,790,790,790,790,790,790,790,790,790,790,790,790,790,790,790,790,790,790,790,790,790,790,790,790,790,790,790,790,790,790,790,790,790,790,790,790,790,790,790,790,786,780,766,733,711,692,666,638,569,550,531,512,497,481,476,472,467,463,458,456,454,452,451,450],"ymouse":[489,489,489,489,489,489,489,489,489,489,489,489,489,489,489,489,489,489,489,489,489,489,489,489,489,489,489,489,489,489,489,489,489,489,489,489,489,489,489,489,489,489,489,486,479,460,419,395,367,338,306,244,226,209,193,179,164,157,149,143,136,126,120,114,109,104,95],"timestamp_mouse":[7,27,47,67,87,107,127,147,167,187,207,227,247,267,287,307,327,347,367,387,407,427,447,467,487,507,527,547,567,588,607,627,647,667,687,708,727,747,767,787,807,827,847,867,887,907,927,947,968,989,1008,1028,1049,1068,1089,1108,1128,1148,1168,1188,1208,1229,1248,1268,1288,1308,1329],"xSR":741.5,"ySR":449.15000000000003,"xT1":424.9,"yT1":0,"xT2":1058.1,"yT2":0,"toosoon":0,"cond_shown":"equaldotanddens","ratio_trial":500,"smaller_num":"6","larger_num":"12","correct_side":1,"subjID":"mariacamilaromerovasquez17","gender":"1","age":"9","school":"4"},{"start_time":1552055191960,"click_time":1552055193149,"finger_time":1552055192929,"fix_duration":250,"trial":43,"RT":969,"MT":220,"sideResp":1,"stimulus":"img/900/randomdotsizeEA/L/1_Ratio_900_L_10_R_9.png","xmouse":[775,775,775,775,775,775,775,775,775,775,775,775,775,775,775,775,775,775,775,775,775,775,775,775,775,775,775,775,775,775,775,775,775,775,775,775,775,775,775,775,775,775,775,775,775,774,771,769,761,757,754,749,742,728,676,652,628,598,512,467],"ymouse":[484,484,484,484,484,484,484,484,484,484,484,484,484,484,484,484,484,484,484,484,484,484,484,484,484,484,484,484,484,484,484,484,484,484,484,484,484,484,484,484,484,484,484,484,484,476,469,463,448,442,434,423,406,382,303,270,234,195,104,57],"timestamp_mouse":[10,30,50,70,90,110,130,150,170,191,210,229,249,270,289,309,329,349,369,389,409,429,449,469,489,510,529,549,569,589,609,629,649,669,690,709,729,749,770,789,809,829,849,869,889,909,929,949,969,989,1009,1029,1050,1070,1090,1110,1130,1150,1170,1189],"xSR":741.5,"ySR":449.15000000000003,"xT1":424.9,"yT1":0,"xT2":1058.1,"yT2":0,"toosoon":0,"cond_shown":"randomdotsizeEA","ratio_trial":900,"smaller_num":"9","larger_num":"10","correct_side":1,"subjID":"mariacamilaromerovasquez17","gender":"1","age":"9","school":"4"},{"start_time":1552055195543,"click_time":1552055196890,"finger_time":1552055196490,"fix_duration":933.4116442859919,"trial":44,"RT":947,"MT":400,"sideResp":1,"stimulus":"img/500/randomdotsizeEA/L/7_Ratio_500_L_10_R_5.png","xmouse":[796,796,796,796,796,796,796,796,796,796,796,796,796,796,796,796,796,796,796,796,796,796,796,796,796,796,796,796,796,796,796,796,796,796,796,796,796,796,796,796,796,796,796,796,796,794,779,764,751,725,715,699,683,672,658,649,645,641,638,633,631,629,622,615,584,562,539,520],"ymouse":[512,512,512,512,512,512,512,512,512,512,512,512,512,512,512,512,512,512,512,512,512,512,512,512,512,512,512,512,512,512,512,512,512,512,512,512,512,512,512,512,512,512,512,512,512,509,471,436,402,335,315,290,269,252,228,215,208,204,200,194,192,189,182,174,140,116,103,94],"timestamp_mouse":[6,26,46,66,86,106,126,146,166,186,206,226,246,266,286,306,326,346,366,386,406,426,446,466,486,506,526,546,566,587,606,626,646,666,687,707,726,746,767,787,807,826,847,866,887,907,927,947,968,987,1006,1026,1046,1068,1086,1108,1127,1147,1166,1186,1206,1226,1248,1266,1287,1307,1328,1347],"xSR":741.5,"ySR":449.15000000000003,"xT1":424.9,"yT1":0,"xT2":1058.1,"yT2":0,"toosoon":0,"cond_shown":"randomdotsizeEA","ratio_trial":500,"smaller_num":"5","larger_num":"10","correct_side":1,"subjID":"mariacamilaromerovasquez17","gender":"1","age":"9","school":"4"},{"start_time":1552055198582,"click_time":1552055199909,"finger_time":1552055199470,"fix_duration":552.8584989143204,"trial":45,"RT":888,"MT":439,"sideResp":1,"stimulus":"img/900/equaldotanddens/L/2_Ratio_900_L_20_R_18.png","xmouse":[778,778,778,778,778,778,778,778,778,778,778,778,778,778,778,778,778,778,778,778,778,778,778,778,778,778,778,778,778,778,778,778,778,778,778,778,778,778,778,778,778,779,774,753,729,704,680,646,635,628,623,622,619,617,615,612,610,597,588,579,569,561,554,536,531,526,521],"ymouse":[511,511,511,511,511,511,511,511,511,511,511,511,511,511,511,511,511,511,511,511,511,511,511,511,511,511,511,511,511,511,511,511,511,511,511,511,511,511,511,511,511,510,502,470,432,390,347,281,260,244,235,228,218,210,201,188,173,136,115,97,79,65,52,24,17,12,7],"timestamp_mouse":[7,28,48,68,89,108,129,148,168,188,208,228,248,268,288,308,328,347,367,387,407,427,447,467,487,507,527,547,567,587,607,629,648,668,688,708,728,748,768,788,808,828,848,868,888,908,928,948,967,988,1008,1027,1047,1067,1087,1107,1127,1147,1167,1187,1207,1227,1247,1267,1288,1307,1327],"xSR":741.5,"ySR":449.15000000000003,"xT1":424.9,"yT1":0,"xT2":1058.1,"yT2":0,"toosoon":0,"cond_shown":"equaldotanddens","ratio_trial":900,"smaller_num":"18","larger_num":"20","correct_side":1,"subjID":"mariacamilaromerovasquez17","gender":"1","age":"9","school":"4"},{"start_time":1552055201665,"click_time":1552055203130,"finger_time":1552055202630,"fix_duration":735.7475882341981,"trial":46,"RT":965,"MT":500,"sideResp":1,"stimulus":"img/900/randomdotsizeEA/R/5_Ratio_900_L_9_R_10.png","xmouse":[773,773,773,773,773,773,773,773,773,773,773,773,773,773,773,773,773,773,773,773,773,773,773,773,773,773,773,773,773,773,773,773,773,773,773,773,773,773,773,773,773,773,773,773,773,773,770,760,744,736,723,711,698,676,667,661,656,653,650,648,645,640,635,629,618,613,608,599,569,556,545,537,530,516],"ymouse":[485,485,485,485,485,485,485,485,485,485,485,485,485,485,485,485,485,485,485,485,485,485,485,485,485,485,485,485,485,485,485,485,485,485,485,485,485,485,485,485,485,485,485,485,485,486,481,452,397,370,340,316,294,252,236,227,219,215,211,208,205,200,193,185,171,165,157,149,122,112,102,95,88,76],"timestamp_mouse":[4,25,44,65,84,104,124,144,164,184,204,224,244,265,285,306,325,345,365,385,405,425,445,465,485,505,525,545,565,585,605,625,645,665,684,704,724,744,764,784,804,824,844,864,884,904,924,944,965,985,1004,1024,1044,1065,1084,1104,1125,1144,1165,1185,1204,1224,1245,1264,1284,1304,1324,1344,1365,1384,1404,1424,1445,1465],"xSR":741.5,"ySR":449.15000000000003,"xT1":424.9,"yT1":0,"xT2":1058.1,"yT2":0,"toosoon":0,"cond_shown":"randomdotsizeEA","ratio_trial":900,"smaller_num":"9","larger_num":"10","correct_side":2,"subjID":"mariacamilaromerovasquez17","gender":"1","age":"9","school":"4"},{"start_time":1552055204778,"click_time":1552055206169,"finger_time":1552055205910,"fix_duration":287.61114007950187,"trial":47,"RT":1132,"MT":259,"sideResp":1,"stimulus":"img/750/equaldotsize/L/13_Ratio_750_L_8_R_6.png","xmouse":[795,795,795,795,795,795,795,795,795,795,795,795,795,795,795,795,795,795,795,795,795,795,795,795,795,795,795,795,795,795,795,795,795,795,795,795,795,795,795,795,795,795,795,795,795,795,795,795,795,795,795,795,796,794,789,782,776,764,755,747,738,729,703,692,679,661,644,588,550,512],"ymouse":[518,518,518,518,518,518,518,518,518,518,518,518,518,518,518,518,518,518,518,518,518,518,518,518,518,518,518,518,518,518,518,518,518,518,518,518,518,518,518,518,518,518,518,518,518,518,518,518,518,518,518,518,504,491,475,455,440,412,399,385,372,357,311,292,269,245,221,155,118,86],"timestamp_mouse":[12,32,52,73,92,112,132,152,172,192,212,232,253,272,293,312,332,353,372,392,412,432,452,472,492,512,532,552,572,592,612,632,652,672,692,712,732,752,771,791,811,831,851,871,891,911,931,951,971,991,1011,1031,1052,1071,1091,1111,1132,1152,1171,1191,1211,1231,1252,1272,1291,1311,1331,1352,1372,1391],"xSR":741.5,"ySR":449.15000000000003,"xT1":424.9,"yT1":0,"xT2":1058.1,"yT2":0,"toosoon":0,"cond_shown":"equaldotsize","ratio_trial":750,"smaller_num":"6","larger_num":"8","correct_side":1,"subjID":"mariacamilaromerovasquez17","gender":"1","age":"9","school":"4"},{"start_time":1552055208309,"click_time":1552055210030,"finger_time":1552055209330,"fix_duration":1038.1454213032225,"trial":48,"RT":1021,"MT":700,"sideResp":2,"stimulus":"img/250/randomdotsizeEA/R/6_Ratio_250_L_6_R_24.png","xmouse":[806,806,806,806,806,806,806,806,806,806,806,806,806,806,806,806,806,806,806,806,806,806,806,806,806,806,806,806,806,806,806,806,806,806,806,806,806,806,806,806,806,806,806,806,806,806,806,806,806,806,817,856,876,889,896,902,924,945,958,975,991,1024,1036,1047,1056,1062,1069,1083,1089,1093,1095,1101,1103,1104,1104,1105,1105,1105,1106,1107,1107,1110,1112,1115,1120,1124,1129],"ymouse":[504,504,504,504,504,504,504,504,504,504,504,504,504,504,504,504,504,504,504,504,504,504,504,504,504,504,504,504,504,504,504,504,504,504,504,504,504,504,504,504,504,504,504,504,504,504,504,504,504,504,504,504,504,501,497,489,461,436,420,403,390,364,352,341,331,324,315,292,282,273,264,246,238,229,222,215,200,196,192,188,184,167,155,138,120,105,74],"timestamp_mouse":[3,25,40,60,81,101,121,141,161,181,201,221,241,260,280,302,320,340,360,380,400,420,440,460,480,502,521,541,562,581,601,621,640,661,681,702,720,740,760,782,801,821,841,862,881,901,922,942,960,982,1001,1021,1040,1060,1081,1101,1121,1140,1161,1182,1202,1221,1240,1261,1282,1302,1321,1341,1361,1381,1401,1421,1440,1461,1480,1500,1521,1541,1560,1581,1601,1621,1640,1660,1680,1701,1721],"xSR":741.5,"ySR":449.15000000000003,"xT1":424.9,"yT1":0,"xT2":1058.1,"yT2":0,"toosoon":0,"cond_shown":"randomdotsizeEA","ratio_trial":250,"smaller_num":"6","larger_num":"24","correct_side":2,"subjID":"mariacamilaromerovasquez17","gender":"1","age":"9","school":"4"},{"start_time":1552055212136,"click_time":1552055213470,"finger_time":1552055212909,"fix_duration":585.9383746671454,"trial":49,"RT":773,"MT":561,"sideResp":2,"stimulus":"img/500/equaldotsize/R/14_Ratio_500_L_5_R_10.png","xmouse":[813,813,813,813,813,813,813,813,813,813,813,813,813,813,813,813,813,813,813,813,813,813,813,813,813,813,813,813,813,813,813,813,813,813,817,826,831,836,842,854,861,868,877,885,903,912,923,933,943,962,972,981,990,1001,1021,1034,1042,1050,1056,1066,1070,1073,1078,1081,1085,1088,1090],"ymouse":[478,478,478,478,478,478,478,478,478,478,478,478,478,478,478,478,478,478,478,478,478,478,478,478,478,478,478,478,478,478,478,478,478,478,477,474,470,467,464,454,449,444,437,432,419,412,402,393,382,360,348,338,325,312,276,249,232,215,197,167,155,146,134,128,113,103,97],"timestamp_mouse":[14,33,53,73,93,113,133,153,173,193,213,233,253,273,293,314,334,354,373,393,414,433,453,473,493,513,533,553,573,593,613,633,653,673,693,713,733,753,773,794,814,834,853,873,894,914,933,953,974,995,1013,1034,1055,1075,1095,1114,1134,1154,1174,1194,1213,1234,1254,1275,1293,1314,1334],"xSR":741.5,"ySR":449.15000000000003,"xT1":424.9,"yT1":0,"xT2":1058.1,"yT2":0,"toosoon":0,"cond_shown":"equaldotsize","ratio_trial":500,"smaller_num":"5","larger_num":"10","correct_side":2,"subjID":"mariacamilaromerovasquez17","gender":"1","age":"9","school":"4"},{"start_time":1552055218117,"click_time":1552055219650,"finger_time":1552055219070,"fix_duration":1067.6712161922624,"trial":50,"RT":953,"MT":580,"sideResp":1,"stimulus":"img/750/equaldotsize/L/10_Ratio_750_L_4_R_3.png","xmouse":[786,786,786,786,786,786,786,786,786,786,786,786,786,786,786,786,786,786,786,786,786,786,786,786,786,786,786,786,786,786,786,786,786,786,786,786,786,786,786,786,786,786,786,786,786,762,747,733,720,711,701,700,699,699,699,690,685,674,664,652,626,613,602,591,579,559,543,536,530,525,520,519,517,516,515,510,509],"ymouse":[523,523,523,523,523,523,523,523,523,523,523,523,523,523,523,523,523,523,523,523,523,523,523,523,523,523,523,523,523,523,523,523,523,523,523,523,523,523,523,523,523,523,523,523,519,491,476,459,445,434,422,420,419,419,418,407,399,385,370,354,322,306,291,275,258,223,187,167,153,140,125,122,118,115,111,101,97],"timestamp_mouse":[17,33,53,73,93,113,133,153,173,193,213,234,252,272,292,312,332,352,372,392,412,432,452,472,492,512,532,552,572,592,612,632,652,672,692,712,732,752,772,792,813,834,853,873,892,912,933,953,973,993,1013,1033,1053,1073,1093,1113,1133,1153,1173,1193,1213,1232,1253,1273,1293,1314,1334,1354,1373,1393,1414,1432,1453,1473,1493,1513,1533],"xSR":741.5,"ySR":449.15000000000003,"xT1":424.9,"yT1":0,"xT2":1058.1,"yT2":0,"toosoon":0,"cond_shown":"equaldotsize","ratio_trial":750,"smaller_num":"3","larger_num":"4","correct_side":1,"subjID":"mariacamilaromerovasquez17","gender":"1","age":"9","school":"4"},{"start_time":1552055221146,"click_time":1552055222430,"finger_time":1552055222090,"fix_duration":275.40287315569265,"trial":51,"RT":944,"MT":340,"sideResp":2,"stimulus":"img/900/equaldotsize/L/8_Ratio_900_L_20_R_18.png","xmouse":[796,796,796,796,796,796,796,796,796,796,796,796,796,796,796,796,796,796,796,796,796,795,795,795,795,795,795,795,795,795,795,795,795,795,795,795,795,795,795,795,795,795,795,795,811,824,838,852,864,883,896,910,924,934,949,960,967,978,991,1018,1030,1042,1051,1058,1067],"ymouse":[505,505,505,505,505,505,505,505,505,505,505,505,505,505,504,504,504,504,504,504,504,503,503,503,503,503,503,503,503,503,503,503,503,503,503,503,503,503,503,503,503,503,503,501,490,481,470,458,447,424,409,395,382,368,334,294,263,230,186,119,91,72,57,49,39],"timestamp_mouse":[4,24,43,65,84,104,124,143,165,184,204,223,243,264,283,303,324,344,364,384,404,423,444,464,484,504,523,544,565,584,604,623,643,664,683,703,723,745,765,784,804,824,844,864,883,904,924,944,965,984,1003,1023,1043,1063,1084,1105,1124,1144,1164,1183,1203,1224,1243,1263,1284],"xSR":741.5,"ySR":449.15000000000003,"xT1":424.9,"yT1":0,"xT2":1058.1,"yT2":0,"toosoon":0,"cond_shown":"equaldotsize","ratio_trial":900,"smaller_num":"18","larger_num":"20","correct_side":1,"subjID":"mariacamilaromerovasquez17","gender":"1","age":"9","school":"4"},{"start_time":1552055224909,"click_time":1552055226230,"finger_time":1552055225809,"fix_duration":1179.1127287171216,"trial":52,"RT":900,"MT":421,"sideResp":1,"stimulus":"img/750/randomdotsizeEA/R/5_Ratio_750_L_15_R_20.png","xmouse":[786,786,786,786,786,786,786,786,786,786,786,786,786,786,786,786,786,786,786,786,786,786,786,786,786,786,786,786,786,786,786,786,786,786,786,786,786,786,786,786,786,786,787,784,779,771,748,723,713,704,699,690,685,681,675,669,656,643,633,622,612,585,570,557,547,535,482],"ymouse":[488,488,488,488,488,488,488,488,488,488,488,488,488,488,488,488,488,488,488,488,488,488,488,488,488,488,488,488,488,488,488,488,488,488,488,488,488,488,488,488,488,488,487,480,463,437,362,309,285,265,252,231,222,215,206,198,180,164,152,139,128,109,99,93,89,84,63],"timestamp_mouse":[1,25,40,62,80,101,120,140,161,181,201,221,241,261,281,300,322,341,361,381,402,421,441,461,481,501,522,541,561,582,601,621,641,661,681,701,721,741,761,781,801,822,840,860,880,900,921,941,960,980,1000,1020,1040,1060,1080,1100,1120,1140,1160,1180,1200,1221,1240,1260,1280,1300,1321],"xSR":741.5,"ySR":449.15000000000003,"xT1":424.9,"yT1":0,"xT2":1058.1,"yT2":0,"toosoon":0,"cond_shown":"randomdotsizeEA","ratio_trial":750,"smaller_num":"15","larger_num":"20","correct_side":2,"subjID":"mariacamilaromerovasquez17","gender":"1","age":"9","school":"4"},{"start_time":1552055228460,"click_time":1552055229909,"finger_time":1552055229229,"fix_duration":1030.7958641667612,"trial":53,"RT":769,"MT":680,"sideResp":1,"stimulus":"img/250/equaldotsize/L/15_Ratio_250_L_12_R_3.png","xmouse":[759,759,759,759,759,759,759,759,759,759,759,759,759,759,759,759,759,759,759,759,759,759,759,759,759,759,759,759,759,759,759,759,759,757,755,754,750,745,729,721,711,702,690,670,662,655,647,642,627,624,621,618,614,611,609,609,609,608,606,603,600,597,594,589,584,579,575,571,559,546,539,529,523],"ymouse":[497,497,497,497,497,497,497,497,497,497,497,497,497,497,497,497,497,497,497,497,497,497,497,497,497,497,497,497,497,497,497,497,497,497,497,496,494,491,480,471,458,441,421,387,372,359,345,332,291,275,257,237,219,204,180,176,174,173,170,162,155,147,135,121,114,106,102,98,91,84,79,72,69],"timestamp_mouse":[10,30,50,71,90,110,130,150,170,190,210,230,250,270,290,310,330,350,370,390,410,430,450,470,490,510,529,549,569,589,609,629,649,669,689,709,729,749,769,790,810,829,849,870,889,909,929,949,970,990,1009,1029,1049,1069,1089,1109,1129,1149,1170,1191,1210,1230,1249,1270,1289,1310,1329,1349,1369,1390,1409,1429,1449],"xSR":741.5,"ySR":449.15000000000003,"xT1":424.9,"yT1":0,"xT2":1058.1,"yT2":0,"toosoon":0,"cond_shown":"equaldotsize","ratio_trial":250,"smaller_num":"3","larger_num":"12","correct_side":1,"subjID":"mariacamilaromerovasquez17","gender":"1","age":"9","school":"4"},{"start_time":1552055233627,"click_time":1552055235430,"finger_time":1552055234870,"fix_duration":1497.926580806843,"trial":54,"RT":1243,"MT":560,"sideResp":2,"stimulus":"img/250/randomdotsizeEA/R/8_Ratio_250_L_1_R_4.png","xmouse":[778,778,778,778,778,778,778,778,778,778,778,778,778,778,778,778,778,778,778,778,778,778,778,778,778,778,778,778,778,778,778,778,778,778,778,778,778,778,778,778,777,777,777,777,777,777,777,777,777,777,777,777,777,777,777,777,776,790,803,818,828,837,850,866,883,914,927,940,953,965,1002,1027,1038,1046,1053,1067,1069,1071,1072,1072,1074,1075,1076,1078,1078,1078,1080,1082,1087,1090,1099],"ymouse":[492,492,492,492,492,492,492,492,492,492,492,492,492,492,492,492,492,492,492,492,492,492,492,492,492,492,492,492,492,492,492,492,492,492,492,492,492,492,492,492,491,491,491,491,491,491,491,491,491,491,491,491,491,491,491,491,487,481,475,469,461,454,444,433,418,381,361,344,327,314,294,279,268,253,237,210,202,196,189,183,167,158,151,145,142,138,134,128,123,114,96],"timestamp_mouse":[5,24,43,63,84,103,123,142,163,182,202,223,242,262,282,302,322,343,364,383,402,422,442,463,482,502,522,542,562,582,603,622,644,663,682,703,723,742,762,783,803,822,842,862,883,902,923,943,962,982,1003,1024,1043,1064,1083,1103,1123,1143,1163,1183,1203,1223,1243,1263,1283,1304,1322,1343,1363,1383,1404,1423,1443,1463,1483,1504,1522,1542,1562,1582,1602,1623,1642,1662,1683,1704,1722,1742,1763,1782,1802],"xSR":741.5,"ySR":449.15000000000003,"xT1":424.9,"yT1":0,"xT2":1058.1,"yT2":0,"toosoon":0,"cond_shown":"randomdotsizeEA","ratio_trial":250,"smaller_num":"1","larger_num":"4","correct_side":2,"subjID":"mariacamilaromerovasquez17","gender":"1","age":"9","school":"4"},{"start_time":1552055238561,"click_time":1552055240630,"finger_time":1552055240151,"fix_duration":529.265313136701,"trial":55,"RT":1590,"MT":479,"sideResp":2,"stimulus":"img/250/randomdotsizeEA/R/4_Ratio_250_L_3_R_12.png","xmouse":[807,807,807,807,807,807,807,807,807,807,807,807,807,807,807,807,807,807,807,807,807,807,807,807,807,807,807,807,807,807,807,807,807,807,807,807,807,807,807,807,807,807,807,807,807,807,807,807,807,807,807,807,807,807,807,807,807,807,807,807,807,807,807,807,807,807,807,807,807,807,807,807,807,807,807,807,812,818,834,871,888,903,919,986,1020,1063,1091,1115,1136,1143,1147,1151,1153,1156,1157,1159,1159,1159,1159,1159,1158,1155,1151,1147],"ymouse":[510,510,510,510,510,510,510,510,510,510,510,510,510,510,510,510,510,510,510,510,510,510,510,510,510,510,510,510,510,510,510,510,510,510,510,510,510,510,510,510,510,510,510,510,510,510,510,510,510,510,510,510,510,510,510,510,510,510,510,510,510,510,510,510,510,510,510,510,510,510,510,510,510,510,510,510,504,499,488,457,440,422,406,363,344,318,298,279,254,243,237,231,227,220,213,204,196,185,162,149,135,119,106,93],"timestamp_mouse":[10,29,49,69,90,109,129,149,169,189,209,229,249,269,289,309,329,349,370,389,408,428,448,46