[{"start_time":1552053966860,"click_time":1552053967597,"finger_time":1552053966876,"fix_duration":1199.9658650189992,"trial":0,"RT":16,"MT":721,"sideResp":2,"stimulus":[],"xmouse":[783,783,783,783,783,783,783,783,783,783,783,809,831,837,852,870,935,1006,1075,1126,1150,1183,1194,1203,1208,1211,1212,1212,1212,1210,1206,1193,1190,1190,1188,1172,1113],"ymouse":[547,547,547,547,547,547,547,547,547,547,547,537,523,518,497,474,425,389,353,322,303,262,243,225,206,183,137,110,82,51,25,0,0,0,0,3,10],"timestamp_mouse":[16,36,56,78,98,117,137,157,178,197,217,237,257,276,296,316,336,357,376,397,416,437,457,476,496,516,536,556,576,596,617,637,657,677,697,718,737],"xSR":741.5,"ySR":481,"xT1":424.9,"yT1":0,"xT2":1058.1,"yT2":0,"toosoon":0,"cond_shown":"Congruent","ratio_trial":300,"L_num":3,"L_den":6,"R_num":4,"R_den":5,"correct_side":2,"subjID":"mariacamilaromerovasquez9","gender":"1","age":"9","school":"4","test":{"fix_dur":[250,1500],"timestim":1000,"targets_dim":[100,100],"targets_relative_coord":[0.3,0.7],"size_stim":[880,420],"start_dim":[100,100],"size_start":[300,300],"size_fix":60,"samplingrate":20,"img_types":["Congruent","Incongruent"],"ratios":[100,200,300],"rep_conds":19,"nTrials":120,"trials_to_rest":500,"Trials_order":[58,0,49,103,116,55,97,20,3,102,65,23,73,54,83,28,108,6,60,98,93,77,99,36,66,57,95,68,94,100,115,40,70,74,111,17,15,9,119,91,7,106,25,71,85,24,47,61,46,42,45,53,4,113,44,92,87,26,18,81,30,16,19,101,51,50,78,8,59,37,114,72,64,34,5,33,96,107,79,29,56,12,21,2,10,62,105,52,63,109,39,35,32,14,67,13,69,22,1,38,43,75,90,11,86,110,76,82,88,48,112,84,117,31,41,27,89,104,118,80],"cond_shown":["Congruent","Congruent","Incongruent","Incongruent","Congruent","Incongruent","Incongruent","Congruent","Incongruent","Congruent","Incongruent","Incongruent","Incongruent","Congruent","Incongruent","Congruent","Congruent","Congruent","Congruent","Congruent","Incongruent","Incongruent","Incongruent","Congruent","Congruent","Incongruent","Incongruent","Congruent","Congruent","Congruent","Incongruent","Congruent","Congruent","Congruent","Incongruent","Incongruent","Incongruent","Incongruent","Incongruent","Incongruent","Incongruent","Congruent","Incongruent","Incongruent","Incongruent","Congruent","Incongruent","Incongruent","Congruent","Congruent","Incongruent","Incongruent","Congruent","Incongruent","Congruent","Congruent","Incongruent","Congruent","Congruent","Incongruent","Congruent","Congruent","Incongruent","Incongruent","Incongruent","Congruent","Congruent","Congruent","Incongruent","Incongruent","Congruent","Congruent","Congruent","Congruent","Incongruent","Incongruent","Congruent","Incongruent","Incongruent","Incongruent","Congruent","Congruent","Incongruent","Congruent","Congruent","Congruent","Incongruent","Congruent","Incongruent","Incongruent","Incongruent","Incongruent","Congruent","Congruent","Incongruent","Incongruent","Incongruent","Congruent","Incongruent","Congruent","Incongruent","Incongruent","Congruent","Incongruent","Congruent","Congruent","Congruent","Congruent","Congruent","Congruent","Congruent","Congruent","Incongruent","Incongruent","Incongruent","Incongruent","Incongruent","Congruent","Congruent","Congruent"],"ratio_trial":[300,100,100,100,200,100,100,200,200,100,300,300,100,100,300,300,100,100,100,200,200,300,200,100,100,200,300,200,300,300,100,300,300,200,200,300,200,200,300,100,100,300,100,300,100,100,300,100,300,100,200,300,300,300,200,200,200,200,100,200,100,300,100,300,200,200,100,200,300,100,100,100,300,300,300,200,100,300,100,300,200,100,200,200,300,200,200,300,200,100,200,300,200,200,100,100,200,300,100,200,100,200,100,300,200,200,300,300,300,100,300,100,200,100,300,200,300,200,300,200],"left_num":[3,12,11,2,7,17,11,6,14,12,4,4,13,4,13,1,7,3,2,13,7,3,14,6,3,14,4,6,4,24,11,1,3,16,4,13,7,7,4,10,10,12,9,4,6,6,8,8,1,10,7,4,8,4,5,11,4,6,3,7,4,20,1,7,7,20,4,9,13,3,3,1,2,11,7,3,3,4,6,13,15,7,7,3,20,11,3,2,7,12,4,4,11,3,3,10,7,2,1,12,13,3,11,4,7,6,20,12,5,3,12,3,6,17,13,7,13,20,3,12],"right_num":[4,13,9,6,18,10,9,11,6,13,2,2,6,15,12,7,15,2,11,14,8,4,6,5,4,12,2,7,13,2,9,8,11,9,14,12,12,4,2,9,9,2,14,2,11,15,9,1,11,3,6,8,1,2,14,3,1,3,4,4,15,13,8,8,8,9,6,13,12,8,2,18,10,4,8,1,4,2,13,12,4,9,12,7,13,3,1,12,8,2,6,8,3,11,8,8,8,12,8,6,6,11,4,6,2,7,5,2,7,2,2,4,3,10,12,8,12,9,11,6],"left_den":[6,30,22,4,15,30,22,20,30,30,20,20,26,10,26,20,14,6,5,26,10,6,30,20,20,30,20,12,20,30,22,30,12,30,6,26,10,15,20,25,25,24,15,20,10,12,10,20,5,25,15,5,16,20,10,22,30,15,20,15,10,25,2,10,10,25,8,30,26,5,6,2,20,22,10,10,20,20,10,26,25,14,10,10,25,22,10,10,10,30,5,5,22,10,5,25,10,10,2,20,26,4,22,5,21,12,25,24,25,6,24,20,20,30,26,10,26,25,12,15],"right_den":[5,26,15,15,27,15,15,22,9,26,4,4,10,30,15,20,25,5,22,20,16,20,9,25,16,18,4,10,26,4,15,24,20,27,30,15,24,6,4,18,18,10,28,4,22,25,18,2,22,10,9,16,5,4,20,10,3,15,16,6,30,26,20,20,16,15,10,26,15,16,5,30,25,20,20,2,16,4,26,15,10,15,24,14,26,10,2,24,16,4,10,16,10,22,16,16,16,24,20,15,10,20,10,12,15,10,10,10,14,5,10,16,6,15,15,16,15,15,20,10],"correct_side":[2,2,2,1,2,2,2,2,2,2,2,2,2,2,2,2,2,1,2,2,1,1,2,1,2,2,2,2,2,1,2,2,2,1,1,2,1,2,2,2,2,1,1,2,1,2,1,2,2,1,2,1,1,2,2,1,2,1,2,2,2,1,1,1,1,1,2,2,2,1,1,2,2,1,1,2,2,2,1,2,1,2,1,2,1,1,2,2,1,2,1,1,1,2,1,2,1,2,1,1,2,1,1,1,1,2,1,1,2,1,1,2,2,2,2,1,2,1,2,1],"img_shown":["img2/300/Congruent/R/C_Dist_300_LN_3_LD_6_RN_4_RD_5_1.png","img2/100/Congruent/R/C_Dist_100_LN_12_LD_30_RN_13_RD_26_1.png","img2/100/Incongruent/R/I_Dist_100_LN_11_LD_22_RN_9_RD_15_1.png","img2/100/Incongruent/L/I_Dist_100_LN_2_LD_4_RN_6_RD_15_0.png","img2/200/Congruent/R/C_Dist_200_LN_7_LD_15_RN_18_RD_27_1.png","img2/100/Incongruent/R/I_Dist_100_LN_17_LD_30_RN_10_RD_15_1.png","img2/100/Incongruent/R/I_Dist_100_LN_11_LD_22_RN_9_RD_15_1.png","img2/200/Congruent/R/C_Dist_200_LN_6_LD_20_RN_11_RD_22_1.png","img2/200/Incongruent/R/I_Dist_200_LN_14_LD_30_RN_6_RD_9_1.png","img2/100/Congruent/R/C_Dist_100_LN_12_LD_30_RN_13_RD_26_1.png","img2/300/Incongruent/R/I_Dist_300_LN_4_LD_20_RN_2_RD_4_1.png","img2/300/Incongruent/R/I_Dist_300_LN_4_LD_20_RN_2_RD_4_1.png","img2/100/Incongruent/R/I_Dist_100_LN_13_LD_26_RN_6_RD_10_1.png","img2/100/Congruent/R/C_Dist_100_LN_4_LD_10_RN_15_RD_30_1.png","img2/300/Incongruent/R/I_Dist_300_LN_13_LD_26_RN_12_RD_15_1.png","img2/300/Congruent/R/C_Dist_300_LN_1_LD_20_RN_7_RD_20_1.png","img2/100/Congruent/R/C_Dist_100_LN_7_LD_14_RN_15_RD_25_1.png","img2/100/Congruent/L/C_Dist_100_LN_3_LD_6_RN_2_RD_5_0.png","img2/100/Congruent/R/C_Dist_100_LN_2_LD_5_RN_11_RD_22_1.png","img2/200/Congruent/R/C_Dist_200_LN_13_LD_26_RN_14_RD_20_1.png","img2/200/Incongruent/L/I_Dist_200_LN_7_LD_10_RN_8_RD_16_0.png","img2/300/Incongruent/L/I_Dist_300_LN_3_LD_6_RN_4_RD_20_0.png","img2/200/Incongruent/R/I_Dist_200_LN_14_LD_30_RN_6_RD_9_1.png","img2/100/Congruent/L/C_Dist_100_LN_6_LD_20_RN_5_RD_25_0.png","img2/100/Congruent/R/C_Dist_100_LN_3_LD_20_RN_4_RD_16_1.png","img2/200/Incongruent/R/I_Dist_200_LN_14_LD_30_RN_12_RD_18_1.png","img2/300/Incongruent/R/I_Dist_300_LN_4_LD_20_RN_2_RD_4_1.png","img2/200/Congruent/R/C_Dist_200_LN_6_LD_12_RN_7_RD_10_1.png","img2/300/Congruent/R/C_Dist_300_LN_4_LD_20_RN_13_RD_26_1.png","img2/300/Congruent/L/C_Dist_300_LN_24_LD_30_RN_2_RD_4_0.png","img2/100/Incongruent/R/I_Dist_100_LN_11_LD_22_RN_9_RD_15_1.png","img2/300/Congruent/R/C_Dist_300_LN_1_LD_30_RN_8_RD_24_1.png","img2/300/Congruent/R/C_Dist_300_LN_3_LD_12_RN_11_RD_20_1.png","img2/200/Congruent/L/C_Dist_200_LN_16_LD_30_RN_9_RD_27_0.png","img2/200/Incongruent/L/I_Dist_200_LN_4_LD_6_RN_14_RD_30_0.png","img2/300/Incongruent/R/I_Dist_300_LN_13_LD_26_RN_12_RD_15_1.png","img2/200/Incongruent/L/I_Dist_200_LN_7_LD_10_RN_12_RD_24_0.png","img2/200/Incongruent/R/I_Dist_200_LN_7_LD_15_RN_4_RD_6_1.png","img2/300/Incongruent/R/I_Dist_300_LN_4_LD_20_RN_2_RD_4_1.png","img2/100/Incongruent/R/I_Dist_100_LN_10_LD_25_RN_9_RD_18_1.png","img2/100/Incongruent/R/I_Dist_100_LN_10_LD_25_RN_9_RD_18_1.png","img2/300/Congruent/L/C_Dist_300_LN_12_LD_24_RN_2_RD_10_0.png","img2/100/Incongruent/L/I_Dist_100_LN_9_LD_15_RN_14_RD_28_0.png","img2/300/Incongruent/R/I_Dist_300_LN_4_LD_20_RN_2_RD_4_1.png","img2/100/Incongruent/L/I_Dist_100_LN_6_LD_10_RN_11_RD_22_0.png","img2/100/Congruent/R/C_Dist_100_LN_6_LD_12_RN_15_RD_25_1.png","img2/300/Incongruent/L/I_Dist_300_LN_8_LD_10_RN_9_RD_18_0.png","img2/100/Incongruent/R/I_Dist_100_LN_8_LD_20_RN_1_RD_2_1.png","img2/300/Congruent/R/C_Dist_300_LN_1_LD_5_RN_11_RD_22_1.png","img2/100/Congruent/L/C_Dist_100_LN_10_LD_25_RN_3_RD_10_0.png","img2/200/Incongruent/R/I_Dist_200_LN_7_LD_15_RN_6_RD_9_1.png","img2/300/Incongruent/L/I_Dist_300_LN_4_LD_5_RN_8_RD_16_0.png","img2/300/Congruent/L/C_Dist_300_LN_8_LD_16_RN_1_RD_5_0.png","img2/300/Incongruent/R/I_Dist_300_LN_4_LD_20_RN_2_RD_4_1.png","img2/200/Congruent/R/C_Dist_200_LN_5_LD_10_RN_14_RD_20_1.png","img2/200/Congruent/L/C_Dist_200_LN_11_LD_22_RN_3_RD_10_0.png","img2/200/Incongruent/R/I_Dist_200_LN_4_LD_30_RN_1_RD_3_1.png","img2/200/Congruent/L/C_Dist_200_LN_6_LD_15_RN_3_RD_15_0.png","img2/100/Congruent/R/C_Dist_100_LN_3_LD_20_RN_4_RD_16_1.png","img2/200/Incongruent/R/I_Dist_200_LN_7_LD_15_RN_4_RD_6_1.png","img2/100/Congruent/R/C_Dist_100_LN_4_LD_10_RN_15_RD_30_1.png","img2/300/Congruent/L/C_Dist_300_LN_20_LD_25_RN_13_RD_26_0.png","img2/100/Incongruent/L/I_Dist_100_LN_1_LD_2_RN_8_RD_20_0.png","img2/300/Incongruent/L/I_Dist_300_LN_7_LD_10_RN_8_RD_20_0.png","img2/200/Incongruent/L/I_Dist_200_LN_7_LD_10_RN_8_RD_16_0.png","img2/200/Congruent/L/C_Dist_200_LN_20_LD_25_RN_9_RD_15_0.png","img2/100/Congruent/R/C_Dist_100_LN_4_LD_8_RN_6_RD_10_1.png","img2/200/Congruent/R/C_Dist_200_LN_9_LD_30_RN_13_RD_26_1.png","img2/300/Incongruent/R/I_Dist_300_LN_13_LD_26_RN_12_RD_15_1.png","img2/100/Incongruent/L/I_Dist_100_LN_3_LD_5_RN_8_RD_16_0.png","img2/100/Congruent/L/C_Dist_100_LN_3_LD_6_RN_2_RD_5_0.png","img2/100/Congruent/R/C_Dist_100_LN_1_LD_2_RN_18_RD_30_1.png","img2/300/Congruent/R/C_Dist_300_LN_2_LD_20_RN_10_RD_25_1.png","img2/300/Congruent/L/C_Dist_300_LN_11_LD_22_RN_4_RD_20_0.png","img2/300/Incongruent/L/I_Dist_300_LN_7_LD_10_RN_8_RD_20_0.png","img2/200/Incongruent/R/I_Dist_200_LN_3_LD_10_RN_1_RD_2_1.png","img2/100/Congruent/R/C_Dist_100_LN_3_LD_20_RN_4_RD_16_1.png","img2/300/Incongruent/R/I_Dist_300_LN_4_LD_20_RN_2_RD_4_1.png","img2/100/Incongruent/L/I_Dist_100_LN_6_LD_10_RN_13_RD_26_0.png","img2/300/Incongruent/R/I_Dist_300_LN_13_LD_26_RN_12_RD_15_1.png","img2/200/Congruent/L/C_Dist_200_LN_15_LD_25_RN_4_RD_10_0.png","img2/100/Congruent/R/C_Dist_100_LN_7_LD_14_RN_9_RD_15_1.png","img2/200/Incongruent/L/I_Dist_200_LN_7_LD_10_RN_12_RD_24_0.png","img2/200/Congruent/R/C_Dist_200_LN_3_LD_10_RN_7_RD_14_1.png","img2/300/Congruent/L/C_Dist_300_LN_20_LD_25_RN_13_RD_26_0.png","img2/200/Congruent/L/C_Dist_200_LN_11_LD_22_RN_3_RD_10_0.png","img2/200/Incongruent/R/I_Dist_200_LN_3_LD_10_RN_1_RD_2_1.png","img2/300/Congruent/R/C_Dist_300_LN_2_LD_10_RN_12_RD_24_1.png","img2/200/Incongruent/L/I_Dist_200_LN_7_LD_10_RN_8_RD_16_0.png","img2/100/Incongruent/R/I_Dist_100_LN_12_LD_30_RN_2_RD_4_1.png","img2/200/Incongruent/L/I_Dist_200_LN_4_LD_5_RN_6_RD_10_0.png","img2/300/Incongruent/L/I_Dist_300_LN_4_LD_5_RN_8_RD_16_0.png","img2/200/Congruent/L/C_Dist_200_LN_11_LD_22_RN_3_RD_10_0.png","img2/200/Congruent/R/C_Dist_200_LN_3_LD_10_RN_11_RD_22_1.png","img2/100/Incongruent/L/I_Dist_100_LN_3_LD_5_RN_8_RD_16_0.png","img2/100/Incongruent/R/I_Dist_100_LN_10_LD_25_RN_8_RD_16_1.png","img2/200/Incongruent/L/I_Dist_200_LN_7_LD_10_RN_8_RD_16_0.png","img2/300/Congruent/R/C_Dist_300_LN_2_LD_10_RN_12_RD_24_1.png","img2/100/Incongruent/L/I_Dist_100_LN_1_LD_2_RN_8_RD_20_0.png","img2/200/Congruent/L/C_Dist_200_LN_12_LD_20_RN_6_RD_15_0.png","img2/100/Incongruent/R/I_Dist_100_LN_13_LD_26_RN_6_RD_10_1.png","img2/200/Incongruent/L/I_Dist_200_LN_3_LD_4_RN_11_RD_20_0.png","img2/100/Congruent/L/C_Dist_100_LN_11_LD_22_RN_4_RD_10_0.png","img2/300/Incongruent/L/I_Dist_300_LN_4_LD_5_RN_6_RD_12_0.png","img2/200/Congruent/L/C_Dist_200_LN_7_LD_21_RN_2_RD_15_0.png","img2/200/Congruent/R/C_Dist_200_LN_6_LD_12_RN_7_RD_10_1.png","img2/300/Congruent/L/C_Dist_300_LN_20_LD_25_RN_5_RD_10_0.png","img2/300/Congruent/L/C_Dist_300_LN_12_LD_24_RN_2_RD_10_0.png","img2/300/Congruent/R/C_Dist_300_LN_5_LD_25_RN_7_RD_14_1.png","img2/100/Congruent/L/C_Dist_100_LN_3_LD_6_RN_2_RD_5_0.png","img2/300/Congruent/L/C_Dist_300_LN_12_LD_24_RN_2_RD_10_0.png","img2/100/Congruent/R/C_Dist_100_LN_3_LD_20_RN_4_RD_16_1.png","img2/200/Incongruent/R/I_Dist_200_LN_6_LD_20_RN_3_RD_6_1.png","img2/100/Incongruent/R/I_Dist_100_LN_17_LD_30_RN_10_RD_15_1.png","img2/300/Incongruent/R/I_Dist_300_LN_13_LD_26_RN_12_RD_15_1.png","img2/200/Incongruent/L/I_Dist_200_LN_7_LD_10_RN_8_RD_16_0.png","img2/300/Incongruent/R/I_Dist_300_LN_13_LD_26_RN_12_RD_15_1.png","img2/200/Congruent/L/C_Dist_200_LN_20_LD_25_RN_9_RD_15_0.png","img2/300/Congruent/R/C_Dist_300_LN_3_LD_12_RN_11_RD_20_1.png","img2/200/Congruent/L/C_Dist_200_LN_12_LD_15_RN_6_RD_10_0.png"],"dist100_C":[["C_Dist_100_LN_10_LD_25_RN_3_RD_10_0.png","C_Dist_100_LN_11_LD_22_RN_4_RD_10_0.png","C_Dist_100_LN_11_LD_22_RN_6_RD_15_0.png","C_Dist_100_LN_15_LD_25_RN_13_RD_26_0.png","C_Dist_100_LN_3_LD_6_RN_2_RD_5_0.png","C_Dist_100_LN_6_LD_20_RN_5_RD_25_0.png","C_Dist_100_LN_8_LD_16_RN_2_RD_5_0.png","C_Dist_100_LN_9_LD_15_RN_8_RD_16_0.png"],["C_Dist_100_LN_1_LD_2_RN_18_RD_30_1.png","C_Dist_100_LN_1_LD_2_RN_3_RD_5_1.png","C_Dist_100_LN_12_LD_30_RN_13_RD_26_1.png","C_Dist_100_LN_2_LD_5_RN_11_RD_22_1.png","C_Dist_100_LN_2_LD_5_RN_6_RD_12_1.png","C_Dist_100_LN_3_LD_20_RN_4_RD_16_1.png","C_Dist_100_LN_4_LD_10_RN_15_RD_30_1.png","C_Dist_100_LN_4_LD_8_RN_6_RD_10_1.png","C_Dist_100_LN_6_LD_12_RN_15_RD_25_1.png","C_Dist_100_LN_7_LD_14_RN_15_RD_25_1.png","C_Dist_100_LN_7_LD_14_RN_9_RD_15_1.png"]],"dist100_I":[["I_Dist_100_LN_1_LD_2_RN_8_RD_20_0.png","I_Dist_100_LN_2_LD_4_RN_6_RD_15_0.png","I_Dist_100_LN_2_LD_4_RN_8_RD_20_0.png","I_Dist_100_LN_3_LD_5_RN_11_RD_22_0.png","I_Dist_100_LN_3_LD_5_RN_8_RD_16_0.png","I_Dist_100_LN_3_LD_6_RN_4_RD_10_0.png","I_Dist_100_LN_3_LD_9_RN_7_RD_30_0.png","I_Dist_100_LN_4_LD_8_RN_8_RD_20_0.png","I_Dist_100_LN_6_LD_10_RN_11_RD_22_0.png","I_Dist_100_LN_6_LD_10_RN_13_RD_26_0.png","I_Dist_100_LN_6_LD_10_RN_7_RD_14_0.png","I_Dist_100_LN_9_LD_10_RN_20_RD_25_0.png","I_Dist_100_LN_9_LD_15_RN_13_RD_26_0.png","I_Dist_100_LN_9_LD_15_RN_14_RD_28_0.png"],["I_Dist_100_LN_10_LD_25_RN_8_RD_16_1.png","I_Dist_100_LN_10_LD_25_RN_9_RD_18_1.png","I_Dist_100_LN_11_LD_22_RN_9_RD_15_1.png","I_Dist_100_LN_12_LD_24_RN_9_RD_15_1.png","I_Dist_100_LN_12_LD_30_RN_2_RD_4_1.png","I_Dist_100_LN_13_LD_26_RN_12_RD_20_1.png","I_Dist_100_LN_13_LD_26_RN_6_RD_10_1.png","I_Dist_100_LN_17_LD_30_RN_10_RD_15_1.png","I_Dist_100_LN_6_LD_12_RN_3_RD_5_1.png","I_Dist_100_LN_8_LD_16_RN_6_RD_10_1.png","I_Dist_100_LN_8_LD_20_RN_1_RD_2_1.png","I_Dist_100_LN_9_LD_18_RN_6_RD_10_1.png"]],"dist100_S":[["E_Dist_100_LN_2_LD_12_RN_2_RD_30_0.png","E_Dist_100_LN_6_LD_10_RN_6_RD_12_0.png"],["E_Dist_100_LN_6_LD_12_RN_6_RD_10_1.png"]],"dist200_C":[["C_Dist_200_LN_11_LD_22_RN_3_RD_10_0.png","C_Dist_200_LN_12_LD_15_RN_6_RD_10_0.png","C_Dist_200_LN_12_LD_20_RN_6_RD_15_0.png","C_Dist_200_LN_14_LD_28_RN_6_RD_20_0.png","C_Dist_200_LN_15_LD_25_RN_4_RD_10_0.png","C_Dist_200_LN_16_LD_20_RN_12_RD_20_0.png","C_Dist_200_LN_16_LD_30_RN_9_RD_27_0.png","C_Dist_200_LN_20_LD_25_RN_9_RD_15_0.png","C_Dist_200_LN_21_LD_30_RN_2_RD_4_0.png","C_Dist_200_LN_4_LD_10_RN_3_RD_15_0.png","C_Dist_200_LN_4_LD_8_RN_3_RD_10_0.png","C_Dist_200_LN_6_LD_15_RN_3_RD_15_0.png","C_Dist_200_LN_7_LD_21_RN_2_RD_15_0.png","C_Dist_200_LN_8_LD_15_RN_2_RD_6_0.png","C_Dist_200_LN_8_LD_15_RN_3_RD_9_0.png","C_Dist_200_LN_8_LD_15_RN_7_RD_21_0.png","C_Dist_200_LN_9_LD_20_RN_4_RD_16_0.png"],["C_Dist_200_LN_1_LD_2_RN_21_RD_30_1.png","C_Dist_200_LN_13_LD_26_RN_14_RD_20_1.png","C_Dist_200_LN_3_LD_10_RN_11_RD_22_1.png","C_Dist_200_LN_3_LD_10_RN_14_RD_28_1.png","C_Dist_200_LN_3_LD_10_RN_7_RD_14_1.png","C_Dist_200_LN_3_LD_12_RN_9_RD_20_1.png","C_Dist_200_LN_3_LD_6_RN_14_RD_20_1.png","C_Dist_200_LN_5_LD_10_RN_14_RD_20_1.png","C_Dist_200_LN_6_LD_12_RN_7_RD_10_1.png","C_Dist_200_LN_6_LD_20_RN_11_RD_22_1.png","C_Dist_200_LN_7_LD_15_RN_18_RD_27_1.png","C_Dist_200_LN_9_LD_30_RN_13_RD_26_1.png"]],"dist200_I":[["I_Dist_200_LN_1_LD_2_RN_3_RD_10_0.png","I_Dist_200_LN_1_LD_3_RN_2_RD_15_0.png","I_Dist_200_LN_3_LD_4_RN_11_RD_20_0.png","I_Dist_200_LN_4_LD_5_RN_6_RD_10_0.png","I_Dist_200_LN_4_LD_6_RN_14_RD_30_0.png","I_Dist_200_LN_7_LD_10_RN_12_RD_24_0.png","I_Dist_200_LN_7_LD_10_RN_14_RD_28_0.png","I_Dist_200_LN_7_LD_10_RN_8_RD_16_0.png"],["I_Dist_200_LN_11_LD_20_RN_3_RD_4_1.png","I_Dist_200_LN_14_LD_30_RN_12_RD_18_1.png","I_Dist_200_LN_14_LD_30_RN_6_RD_9_1.png","I_Dist_200_LN_3_LD_10_RN_1_RD_2_1.png","I_Dist_200_LN_4_LD_30_RN_1_RD_3_1.png","I_Dist_200_LN_6_LD_20_RN_3_RD_6_1.png","I_Dist_200_LN_7_LD_15_RN_4_RD_6_1.png","I_Dist_200_LN_7_LD_15_RN_6_RD_9_1.png","I_Dist_200_LN_9_LD_15_RN_8_RD_10_1.png"]],"dist200_S":[["E_Dist_200_LN_3_LD_6_RN_3_RD_10_0.png"],["E_Dist_200_LN_3_LD_10_RN_3_RD_6_1.png"]],"dist300_C":[["C_Dist_300_LN_11_LD_22_RN_1_RD_5_0.png","C_Dist_300_LN_11_LD_22_RN_2_RD_10_0.png","C_Dist_300_LN_11_LD_22_RN_4_RD_20_0.png","C_Dist_300_LN_12_LD_24_RN_2_RD_10_0.png","C_Dist_300_LN_18_LD_20_RN_9_RD_15_0.png","C_Dist_300_LN_20_LD_25_RN_13_RD_26_0.png","C_Dist_300_LN_20_LD_25_RN_14_RD_28_0.png","C_Dist_300_LN_20_LD_25_RN_5_RD_10_0.png","C_Dist_300_LN_20_LD_25_RN_8_RD_16_0.png","C_Dist_300_LN_20_LD_25_RN_9_RD_18_0.png","C_Dist_300_LN_24_LD_30_RN_2_RD_4_0.png","C_Dist_300_LN_24_LD_30_RN_8_RD_16_0.png","C_Dist_300_LN_3_LD_6_RN_2_RD_10_0.png","C_Dist_300_LN_4_LD_10_RN_1_RD_10_0.png","C_Dist_300_LN_4_LD_5_RN_2_RD_4_0.png","C_Dist_300_LN_8_LD_16_RN_1_RD_5_0.png","C_Dist_300_LN_9_LD_10_RN_3_RD_5_0.png"],["C_Dist_300_LN_1_LD_20_RN_7_RD_20_1.png","C_Dist_300_LN_1_LD_3_RN_19_RD_30_1.png","C_Dist_300_LN_1_LD_30_RN_8_RD_24_1.png","C_Dist_300_LN_1_LD_5_RN_11_RD_22_1.png","C_Dist_300_LN_1_LD_5_RN_3_RD_6_1.png","C_Dist_300_LN_1_LD_5_RN_6_RD_12_1.png","C_Dist_300_LN_2_LD_10_RN_12_RD_24_1.png","C_Dist_300_LN_2_LD_20_RN_10_RD_25_1.png","C_Dist_300_LN_3_LD_12_RN_11_RD_20_1.png","C_Dist_300_LN_3_LD_6_RN_4_RD_5_1.png","C_Dist_300_LN_4_LD_20_RN_13_RD_26_1.png","C_Dist_300_LN_5_LD_25_RN_6_RD_12_1.png","C_Dist_300_LN_5_LD_25_RN_7_RD_14_1.png","C_Dist_300_LN_7_LD_14_RN_20_RD_25_1.png","C_Dist_300_LN_8_LD_15_RN_10_RD_12_1.png"]],"dist300_I":[["I_Dist_300_LN_1_LD_2_RN_2_RD_10_0.png","I_Dist_300_LN_1_LD_2_RN_3_RD_15_0.png","I_Dist_300_LN_2_LD_4_RN_6_RD_30_0.png","I_Dist_300_LN_3_LD_6_RN_4_RD_20_0.png","I_Dist_300_LN_4_LD_5_RN_6_RD_12_0.png","I_Dist_300_LN_4_LD_5_RN_8_RD_16_0.png","I_Dist_300_LN_7_LD_10_RN_8_RD_20_0.png","I_Dist_300_LN_8_LD_10_RN_14_RD_28_0.png","I_Dist_300_LN_8_LD_10_RN_9_RD_18_0.png"],["I_Dist_300_LN_13_LD_26_RN_12_RD_15_1.png","I_Dist_300_LN_4_LD_20_RN_2_RD_4_1.png"]],"dist300_S":[["E_Dist_300_LN_9_LD_12_RN_9_RD_20_0.png"],["E_Dist_300_LN_18_LD_30_RN_18_RD_20_1.png","E_Dist_300_LN_3_LD_10_RN_3_RD_5_1.png","E_Dist_300_LN_9_LD_20_RN_9_RD_12_1.png"]],"dist500_C":[["C_Dist_500_LN_10_LD_13_RN_7_RD_26_0.png","C_Dist_500_LN_10_LD_15_RN_4_RD_24_0.png","C_Dist_500_LN_12_LD_16_RN_3_RD_12_0.png","C_Dist_500_LN_12_LD_18_RN_4_RD_24_0.png","C_Dist_500_LN_15_LD_18_RN_5_RD_15_0.png","C_Dist_500_LN_15_LD_20_RN_1_RD_4_0.png","C_Dist_500_LN_18_LD_27_RN_1_RD_6_0.png","C_Dist_500_LN_20_LD_24_RN_1_RD_3_0.png","C_Dist_500_LN_20_LD_24_RN_3_RD_9_0.png","C_Dist_500_LN_20_LD_24_RN_7_RD_21_0.png","C_Dist_500_LN_20_LD_28_RN_3_RD_14_0.png","C_Dist_500_LN_21_LD_28_RN_6_RD_24_0.png","C_Dist_500_LN_22_LD_28_RN_2_RD_7_0.png","C_Dist_500_LN_25_LD_30_RN_9_RD_27_0.png","C_Dist_500_LN_4_LD_6_RN_1_RD_6_0.png","C_Dist_500_LN_5_LD_6_RN_2_RD_6_0.png","C_Dist_500_LN_6_LD_9_RN_1_RD_6_0.png","C_Dist_500_LN_7_LD_10_RN_1_RD_5_0.png","C_Dist_500_LN_8_LD_12_RN_1_RD_6_0.png","C_Dist_500_LN_8_LD_12_RN_4_RD_24_0.png"],["C_Dist_500_LN_1_LD_4_RN_12_RD_16_1.png","C_Dist_500_LN_1_LD_4_RN_9_RD_12_1.png","C_Dist_500_LN_1_LD_9_RN_11_RD_18_1.png","C_Dist_500_LN_10_LD_24_RN_22_RD_24_1.png","C_Dist_500_LN_2_LD_12_RN_10_RD_15_1.png","C_Dist_500_LN_2_LD_12_RN_12_RD_18_1.png","C_Dist_500_LN_2_LD_12_RN_4_RD_6_1.png","C_Dist_500_LN_2_LD_24_RN_7_RD_12_1.png","C_Dist_500_LN_2_LD_5_RN_18_RD_20_1.png","C_Dist_500_LN_2_LD_5_RN_9_RD_10_1.png","C_Dist_500_LN_2_LD_8_RN_12_RD_16_1.png","C_Dist_500_LN_2_LD_8_RN_21_RD_28_1.png","C_Dist_500_LN_3_LD_10_RN_4_RD_5_1.png","C_Dist_500_LN_3_LD_12_RN_15_RD_20_1.png","C_Dist_500_LN_3_LD_30_RN_6_RD_10_1.png","C_Dist_500_LN_3_LD_8_RN_14_RD_16_1.png","C_Dist_500_LN_4_LD_16_RN_15_RD_20_1.png","C_Dist_500_LN_4_LD_24_RN_12_RD_18_1.png","C_Dist_500_LN_5_LD_14_RN_6_RD_7_1.png","C_Dist_500_LN_7_LD_21_RN_20_RD_24_1.png","C_Dist_500_LN_7_LD_28_RN_12_RD_16_1.png","C_Dist_500_LN_7_LD_28_RN_9_RD_12_1.png","C_Dist_500_LN_9_LD_27_RN_20_RD_24_1.png"]],"dist500_I":[["I_Dist_500_LN_2_LD_3_RN_4_RD_24_0.png","I_Dist_500_LN_5_LD_6_RN_6_RD_18_0.png","I_Dist_500_LN_7_LD_8_RN_9_RD_24_0.png"],["I_Dist_500_LN_7_LD_21_RN_5_RD_6_1.png"]],"dist500_S":[["E_Dist_500_LN_6_LD_8_RN_6_RD_24_0.png"],["E_Dist_500_LN_2_LD_12_RN_2_RD_3_1.png","E_Dist_500_LN_6_LD_24_RN_6_RD_8_1.png"]]}},{"start_time":1552053969360,"click_time":1552053969756,"finger_time":1552053969537,"fix_duration":303.923339842296,"trial":1,"RT":177,"MT":219,"sideResp":2,"stimulus":[],"xmouse":[769,769,769,769,769,769,787,794,814,840,862,875,887,901,911,924,967,997,1032,1065],"ymouse":[613,613,613,613,613,613,595,587,560,517,476,455,430,402,379,347,234,172,111,52],"timestamp_mouse":[16,36,58,77,97,117,138,157,177,197,217,236,257,277,297,317,336,357,376,396],"xSR":741.5,"ySR":573.95,"xT1":424.9,"yT1":0,"xT2":1058.1,"yT2":0,"toosoon":0,"cond_shown":"Congruent","ratio_trial":100,"L_num":12,"L_den":30,"R_num":13,"R_den":26,"correct_side":2,"subjID":"mariacamilaromerovasquez9","gender":"1","school":"4","age":"9"},{"start_time":1552053971373,"click_time":1552053973217,"finger_time":1552053971696,"fix_duration":255.4335290705242,"trial":2,"RT":323,"MT":1521,"sideResp":1,"stimulus":[],"xmouse":[786,786,786,786,786,786,786,786,786,786,786,786,786,786,786,786,779,751,719,657,593,424,348,295,261,258,258,258,258,258,258,258,258,258,258,250,219,198,182,171,167,161,156,148,139,115,91,78,63,50,41,28,24,23,23,23,23,23,31,48,71,127,153,178,198,219,244,260,277,298,321,361,370,374,375,375,375,377,378,382,389,405,411,416,420,420,420,420,420,420,420,423,426],"ymouse":[643,643,643,643,643,643,643,643,643,643,643,643,643,643,641,633,432,264,67,0,0,0,0,0,0,0,0,0,0,0,0,0,0,0,0,13,90,146,200,253,279,315,329,341,352,376,398,410,424,437,450,473,481,485,485,485,485,486,483,479,472,456,446,439,432,423,414,408,401,387,370,299,254,216,177,132,100,95,93,93,93,91,88,84,81,80,80,80,80,80,80,79,79],"timestamp_mouse":[4,24,44,64,84,104,124,144,164,184,204,223,243,263,283,303,323,344,363,383,403,424,444,463,483,503,523,543,563,583,603,623,644,663,684,705,724,744,764,783,803,824,844,863,883,904,923,944,963,984,1004,1024,1045,1064,1084,1104,1124,1144,1164,1184,1204,1224,1244,1264,1284,1304,1325,1344,1364,1384,1404,1424,1444,1465,1484,1504,1524,1544,1564,1584,1604,1624,1645,1664,1684,1704,1723,1743,1763,1783,1803,1823,1844],"xSR":741.5,"ySR":573.95,"xT1":424.9,"yT1":0,"xT2":1058.1,"yT2":0,"toosoon":0,"cond_shown":"Incongruent","ratio_trial":100,"L_num":11,"L_den":22,"R_num":9,"R_den":15,"correct_side":2,"subjID":"mariacamilaromerovasquez9","gender":"1","school":"4","age":"9"},{"start_time":1552053974649,"click_time":1552053975736,"finger_time":1552053974876,"fix_duration":250,"trial":3,"RT":227,"MT":860,"sideResp":2,"stimulus":[],"xmouse":[821,821,824,826,827,828,829,829,830,830,830,830,830,830,830,830,830,832,836,840,845,858,874,882,889,895,902,920,930,938,948,958,966,968,968,970,972,976,976,976,976,979,990,997,1006,1015,1022,1038,1045,1052,1055,1058,1058,1058,1059],"ymouse":[622,622,616,607,598,591,586,579,577,576,575,573,561,548,533,512,490,448,426,406,386,362,333,319,306,293,276,234,212,194,175,161,155,154,154,154,154,154,154,154,154,152,145,138,129,117,106,90,84,80,77,75,75,75,74],"timestamp_mouse":[7,27,47,67,87,107,128,147,167,188,207,227,247,268,287,307,327,347,368,387,407,427,447,468,487,508,528,548,569,588,608,628,648,669,688,708,728,748,769,788,808,828,849,868,888,909,927,947,967,987,1008,1027,1047,1067,1087],"xSR":741.5,"ySR":573.95,"xT1":424.9,"yT1":0,"xT2":1058.1,"yT2":0,"toosoon":0,"cond_shown":"Incongruent","ratio_trial":100,"L_num":2,"L_den":4,"R_num":6,"R_den":15,"correct_side":1,"subjID":"mariacamilaromerovasquez9","gender":"1","school":"4","age":"9"},{"start_time":1552053981510,"click_time":1552053982318,"finger_time":1552053981836,"fix_duration":731.3902787874331,"trial":4,"RT":326,"MT":482,"sideResp":2,"stimulus":[],"xmouse":[776,776,776,776,776,776,776,776,776,776,776,776,776,776,778,798,850,904,959,1053,1089,1115,1132,1150,1169,1172,1174,1177,1180,1181,1181,1181,1181,1181,1181,1181,1181,1181,1181,1172,1158],"ymouse":[629,629,629,629,629,629,629,629,629,629,629,629,629,629,622,594,529,465,401,290,243,200,169,126,36,0,0,0,0,0,0,0,0,0,0,0,0,0,0,6,15],"timestamp_mouse":[7,26,46,66,86,106,126,146,166,186,206,226,246,266,286,306,326,346,366,387,407,426,446,467,487,507,527,547,567,588,607,627,647,667,686,707,727,748,767,787,807],"xSR":741.5,"ySR":573.95,"xT1":424.9,"yT1":0,"xT2":1058.1,"yT2":0,"toosoon":0,"cond_shown":"Congruent","ratio_trial":200,"L_num":7,"L_den":15,"R_num":18,"R_den":27,"correct_side":2,"subjID":"mariacamilaromerovasquez9","gender":"1","school":"4","age":"9"},{"start_time":1552053983927,"click_time":1552053984918,"finger_time":1552053984277,"fix_duration":250,"trial":5,"RT":350,"MT":641,"sideResp":1,"stimulus":[],"xmouse":[787,787,788,789,789,789,789,789,789,789,789,789,789,789,789,787,783,772,745,735,721,697,676,638,623,609,595,592,586,584,583,582,582,580,579,578,576,570,554,546,536,527,520,514,514,514,514,514,514,511],"ymouse":[611,611,611,611,611,612,612,612,612,612,612,612,612,612,612,597,585,549,460,442,413,371,336,283,263,246,223,215,188,176,166,158,152,144,138,128,114,90,56,40,24,10,0,0,0,0,0,0,0,1],"timestamp_mouse":[11,31,49,69,89,109,129,149,169,189,209,229,249,270,289,309,330,350,371,390,410,430,450,470,491,510,530,550,570,590,610,630,651,670,691,710,730,750,770,790,810,830,850,870,890,910,930,950,969,991],"xSR":741.5,"ySR":573.95,"xT1":424.9,"yT1":0,"xT2":1058.1,"yT2":0,"toosoon":0,"cond_shown":"Incongruent","ratio_trial":100,"L_num":17,"L_den":30,"R_num":10,"R_den":15,"correct_side":2,"subjID":"mariacamilaromerovasquez9","gender":"1","school":"4","age":"9"},{"start_time":1552053986928,"click_time":1552053987877,"finger_time":1552053987298,"fix_duration":250,"trial":6,"RT":370,"MT":579,"sideResp":2,"stimulus":[],"xmouse":[785,785,785,785,785,785,785,785,785,785,785,784,784,784,784,784,784,786,790,794,801,810,823,868,899,910,933,960,981,988,996,1003,1008,1016,1020,1022,1025,1029,1035,1038,1042,1045,1047,1051,1054,1057,1058,1059],"ymouse":[590,590,590,590,590,590,590,590,590,590,590,590,589,585,584,582,581,576,562,549,532,512,485,406,357,336,298,253,212,198,185,173,162,147,136,128,119,108,92,87,78,72,67,56,48,45,42,41],"timestamp_mouse":[10,30,49,69,89,109,129,149,169,189,209,229,249,270,289,309,329,349,370,390,408,428,448,468,489,509,529,549,569,589,609,629,649,669,689,709,729,749,769,789,809,829,849,869,890,909,929,949],"xSR":741.5,"ySR":573.95,"xT1":424.9,"yT1":0,"xT2":1058.1,"yT2":0,"toosoon":0,"cond_shown":"Incongruent","ratio_trial":100,"L_num":11,"L_den":22,"R_num":9,"R_den":15,"correct_side":2,"subjID":"mariacamilaromerovasquez9","gender":"1","school":"4","age":"9"},{"start_time":1552053989689,"click_time":1552053990077,"finger_time":1552053989977,"fix_duration":672.1859495833754,"trial":7,"RT":288,"MT":100,"sideResp":1,"stimulus":[],"xmouse":[762,762,762,762,762,762,762,762,762,762,762,762,761,758,748,689,653,604,560,521],"ymouse":[593,593,593,593,593,593,593,593,593,593,593,593,589,579,557,441,372,285,182,93],"timestamp_mouse":[8,28,48,68,88,108,128,148,168,187,207,228,248,268,288,308,329,349,368,388],"xSR":741.5,"ySR":573.95,"xT1":424.9,"yT1":0,"xT2":1058.1,"yT2":0,"toosoon":0,"cond_shown":"Congruent","ratio_trial":200,"L_num":6,"L_den":20,"R_num":11,"R_den":22,"correct_side":2,"subjID":"mariacamilaromerovasquez9","gender":"1","school":"4","age":"9"},{"start_time":1552054007527,"click_time":1552054008218,"finger_time":1552054007777,"fix_duration":1308.1117101973593,"trial":8,"RT":250,"MT":441,"sideResp":2,"stimulus":[],"xmouse":[805,805,805,805,805,805,805,805,805,805,805,806,814,830,837,848,859,874,902,925,945,964,980,1004,1013,1019,1023,1027,1032,1036,1042,1048,1056,1082,1093],"ymouse":[633,633,633,633,633,633,633,633,633,633,612,598,571,515,489,449,423,397,361,338,315,294,275,246,237,228,220,213,197,190,179,167,154,117,99],"timestamp_mouse":[11,30,50,70,90,110,130,150,170,190,210,230,250,270,290,310,330,350,370,391,410,430,450,470,490,510,531,550,570,591,610,630,651,671,691],"xSR":741.5,"ySR":573.95,"xT1":424.9,"yT1":0,"xT2":1058.1,"yT2":0,"toosoon":0,"cond_shown":"Incongruent","ratio_trial":200,"L_num":14,"L_den":30,"R_num":6,"R_den":9,"correct_side":2,"subjID":"mariacamilaromerovasquez9","gender":"1","school":"4","age":"9"},{"start_time":1552054015158,"click_time":1552054016077,"finger_time":1552054015497,"fix_duration":940.6055701643644,"trial":9,"RT":339,"MT":580,"sideResp":1,"stimulus":[],"xmouse":[787,787,787,787,787,787,787,787,787,787,787,787,787,786,782,766,727,707,686,666,646,613,596,582,572,565,559,557,555,554,552,551,551,550,546,545,541,541,540,538,536,511,495,479,468,463],"ymouse":[618,618,618,618,618,618,618,618,618,618,618,618,618,614,607,578,505,459,408,362,321,261,232,210,195,180,162,152,140,126,107,58,33,10,0,0,0,0,0,0,0,0,0,0,0,2],"timestamp_mouse":[19,39,59,79,100,119,139,159,180,200,219,239,259,279,299,319,339,360,379,399,419,439,460,479,499,519,539,560,579,599,619,639,660,679,700,720,740,760,779,799,819,840,860,879,899,919],"xSR":741.5,"ySR":573.95,"xT1":424.9,"yT1":0,"xT2":1058.1,"yT2":0,"toosoon":0,"cond_shown":"Congruent","ratio_trial":100,"L_num":12,"L_den":30,"R_num":13,"R_den":26,"correct_side":2,"subjID":"mariacamilaromerovasquez9","gender":"1","school":"4","age":"9"},{"start_time":1552054019467,"click_time":1552054020117,"finger_time":1552054019917,"fix_duration":1269.5647379216439,"trial":10,"RT":450,"MT":200,"sideResp":2,"stimulus":[],"xmouse":[787,787,787,787,787,787,787,787,787,787,787,787,787,787,787,787,787,787,787,786,786,797,828,860,897,928,986,1012,1030,1041,1049,1055,1059],"ymouse":[629,629,629,629,629,629,629,629,629,629,629,629,629,629,629,629,629,629,629,623,612,578,508,418,332,259,148,112,87,70,50,33,24],"timestamp_mouse":[10,30,50,70,90,110,129,149,171,190,210,230,250,270,290,310,331,350,370,390,410,430,450,470,490,511,530,550,570,590,611,630,650],"xSR":741.5,"ySR":573.95,"xT1":424.9,"yT1":0,"xT2":1058.1,"yT2":0,"toosoon":0,"cond_shown":"Incongruent","ratio_trial":300,"L_num":4,"L_den":20,"R_num":2,"R_den":4,"correct_side":2,"subjID":"mariacamilaromerovasquez9","gender":"1","school":"4","age":"9"},{"start_time":1552054022196,"click_time":1552054023037,"finger_time":1552054022577,"fix_duration":718.2288784906507,"trial":11,"RT":381,"MT":460,"sideResp":1,"stimulus":[],"xmouse":[766,766,766,766,766,766,766,766,766,766,766,766,766,766,766,766,766,768,768,768,768,768,755,736,713,658,646,637,630,625,619,615,606,593,564,548,534,534,533,533,532,525,522],"ymouse":[625,625,625,625,625,625,625,625,625,625,625,625,625,625,625,625,622,610,586,553,419,333,233,145,68,0,0,0,0,0,0,0,0,0,0,0,0,0,0,0,0,3,6],"timestamp_mouse":[3,21,41,61,81,101,121,141,161,181,201,221,241,261,282,301,321,341,361,381,401,422,442,461,483,502,521,541,561,581,601,621,642,660,680,701,722,741,761,781,801,821,841],"xSR":741.5,"ySR":573.95,"xT1":424.9,"yT1":0,"xT2":1058.1,"yT2":0,"toosoon":0,"cond_shown":"Incongruent","ratio_trial":300,"L_num":4,"L_den":20,"R_num":2,"R_den":4,"correct_side":2,"subjID":"mariacamilaromerovasquez9","gender":"1","school":"4","age":"9"},{"start_time":1552054025684,"click_time":1552054026277,"finger_time":1552054025918,"fix_duration":967.0336296852986,"trial":12,"RT":234,"MT":359,"sideResp":2,"stimulus":[],"xmouse":[788,788,788,788,788,788,788,788,788,788,789,797,800,802,806,820,829,845,863,889,934,949,962,976,990,1016,1028,1046,1052,1072],"ymouse":[607,607,607,607,607,607,607,607,602,593,578,528,501,476,453,417,396,364,330,291,238,217,201,185,170,142,125,104,97,73],"timestamp_mouse":[15,33,53,72,94,113,134,153,173,194,213,234,253,273,293,313,333,353,373,394,413,434,453,472,493,513,534,553,574,593],"xSR":741.5,"ySR":573.95,"xT1":424.9,"yT1":0,"xT2":1058.1,"yT2":0,"toosoon":0,"cond_shown":"Incongruent","ratio_trial":100,"L_num":13,"L_den":26,"R_num":6,"R_den":10,"correct_side":2,"subjID":"mariacamilaromerovasquez9","gender":"1","school":"4","age":"9"},{"start_time":1552054028653,"click_time":1552054029157,"finger_time":1552054028737,"fix_duration":674.3884695506497,"trial":13,"RT":84,"MT":420,"sideResp":1,"stimulus":[],"xmouse":[784,784,784,784,784,781,777,755,734,714,699,692,684,676,663,654,646,632,624,615,606,588,560,550,539,522],"ymouse":[577,577,577,577,573,562,535,426,346,257,137,59,0,0,0,0,0,0,0,0,0,0,0,0,1,12],"timestamp_mouse":[4,24,44,64,84,104,124,144,165,184,205,225,244,264,284,304,324,345,364,384,404,425,445,465,484,504],"xSR":741.5,"ySR":573.95,"xT1":424.9,"yT1":0,"xT2":1058.1,"yT2":0,"toosoon":0,"cond_shown":"Congruent","ratio_trial":100,"L_num":4,"L_den":10,"R_num":15,"R_den":30,"correct_side":2,"subjID":"mariacamilaromerovasquez9","gender":"1","school":"4","age":"9"},{"start_time":1552054030958,"click_time":1552054031697,"finger_time":1552054031077,"fix_duration":480.3073759541755,"trial":14,"RT":119,"MT":620,"sideResp":2,"stimulus":[],"xmouse":[774,774,775,777,783,796,828,845,859,870,881,898,907,917,927,939,967,976,986,994,1003,1017,1023,1026,1032,1033,1034,1034,1034,1034,1034,1034,1034,1034,1041,1055,1101],"ymouse":[615,615,614,609,592,560,490,454,424,397,371,328,308,286,263,242,201,188,172,158,142,111,96,88,77,74,72,72,72,72,72,72,72,72,69,66,61],"timestamp_mouse":[19,39,59,79,99,119,139,160,179,200,219,240,259,280,299,319,339,359,378,399,418,439,460,479,499,519,539,560,579,599,619,639,659,679,699,720,739],"xSR":741.5,"ySR":573.95,"xT1":424.9,"yT1":0,"xT2":1058.1,"yT2":0,"toosoon":0,"cond_shown":"Incongruent","ratio_trial":300,"L_num":13,"L_den":26,"R_num":12,"R_den":15,"correct_side":2,"subjID":"mariacamilaromerovasquez9","gender":"1","school":"4","age":"9"},{"start_time":1552054051348,"click_time":1552054051857,"finger_time":1552054051737,"fix_duration":250,"trial":15,"RT":389,"MT":120,"sideResp":1,"stimulus":[],"xmouse":[786,786,786,786,786,786,786,786,786,786,786,786,786,786,786,786,786,786,780,770,753,725,660,612,561,512],"ymouse":[620,620,620,620,620,620,620,620,620,620,620,620,620,620,620,620,620,620,599,565,515,447,297,214,128,48],"timestamp_mouse":[10,29,49,69,89,109,129,149,169,189,209,229,249,269,289,309,329,349,369,389,409,429,449,469,489,509],"xSR":741.5,"ySR":573.95,"xT1":424.9,"yT1":0,"xT2":1058.1,"yT2":0,"toosoon":0,"cond_shown":"Congruent","ratio_trial":300,"L_num":1,"L_den":20,"R_num":7,"R_den":20,"correct_side":2,"subjID":"mariacamilaromerovasquez9","gender":"1","school":"4","age":"9"},{"start_time":1552054054322,"click_time":1552054054697,"finger_time":1552054054459,"fix_duration":904.4880031734189,"trial":16,"RT":137,"MT":238,"sideResp":2,"stimulus":[],"xmouse":[784,784,784,784,794,798,822,837,880,910,945,978,1006,1028,1035,1046,1064,1081,1125],"ymouse":[624,624,624,624,611,602,570,549,473,420,356,296,245,187,164,146,118,100,54],"timestamp_mouse":[17,36,56,77,97,117,137,156,176,195,216,235,255,275,296,316,335,355,375],"xSR":741.5,"ySR":573.95,"xT1":424.9,"yT1":0,"xT2":1058.1,"yT2":0,"toosoon":0,"cond_shown":"Congruent","ratio_trial":100,"L_num":7,"L_den":14,"R_num":15,"R_den":25,"correct_side":2,"subjID":"mariacamilaromerovasquez9","gender":"1","school":"4","age":"9"},{"start_time":1552054057769,"click_time":1552054058397,"finger_time":1552054058058,"fix_duration":1250.1216727811793,"trial":17,"RT":289,"MT":339,"sideResp":2,"stimulus":[],"xmouse":[773,773,773,773,773,773,773,773,773,773,773,776,786,802,858,916,963,967,968,969,975,997,1005,1009,1012,1013,1016,1018,1028,1041,1055,1082],"ymouse":[615,615,615,615,615,615,615,615,615,615,615,611,598,582,513,407,305,294,293,292,285,255,243,230,222,220,208,202,186,167,147,90],"timestamp_mouse":[9,28,48,68,88,108,128,148,169,190,209,229,249,269,289,309,329,350,369,390,409,429,449,470,489,510,528,549,569,589,609,628],"xSR":741.5,"ySR":573.95,"xT1":424.9,"yT1":0,"xT2":1058.1,"yT2":0,"toosoon":0,"cond_shown":"Congruent","ratio_trial":100,"L_num":3,"L_den":6,"R_num":2,"R_den":5,"correct_side":1,"subjID":"mariacamilaromerovasquez9","gender":"1","school":"4","age":"9"},{"start_time":1552054060583,"click_time":1552054060997,"finger_time":1552054060798,"fix_duration":683.7451875064343,"trial":18,"RT":215,"MT":199,"sideResp":1,"stimulus":[],"xmouse":[778,778,778,778,778,778,778,774,770,763,738,720,705,691,681,650,630,603,569,538,514],"ymouse":[618,618,618,618,618,618,618,609,604,593,557,532,506,474,441,337,276,219,161,100,53],"timestamp_mouse":[18,34,54,75,94,114,135,154,174,194,215,234,255,276,295,314,334,354,374,394,414],"xSR":741.5,"ySR":573.95,"xT1":424.9,"yT1":0,"xT2":1058.1,"yT2":0,"toosoon":0,"cond_shown":"Congruent","ratio_trial":100,"L_num":2,"L_den":5,"R_num":11,"R_den":22,"correct_side":2,"subjID":"mariacamilaromerovasquez9","gender":"1","school":"4","age":"9"},{"start_time":1552054069029,"click_time":1552054070118,"finger_time":1552054069559,"fix_duration":250,"trial":19,"RT":530,"MT":559,"sideResp":2,"stimulus":[],"xmouse":[805,805,805,805,805,805,805,805,805,805,805,805,805,805,805,805,805,805,805,805,805,806,807,820,831,841,853,862,888,912,943,964,985,997,1001,1005,1009,1010,1013,1014,1014,1015,1016,1019,1021,1023,1026,1029,1035,1039,1044,1048,1056,1063,1067],"ymouse":[636,636,636,636,636,636,636,636,636,636,636,636,636,636,636,636,636,636,636,636,636,635,633,613,600,584,567,552,511,481,441,411,375,335,319,306,293,286,272,264,257,248,238,224,217,211,204,197,183,174,164,152,133,107,93],"timestamp_mouse":[9,29,48,68,88,108,128,148,169,189,209,229,249,269,289,309,329,349,369,389,409,429,449,468,489,509,530,548,568,589,608,628,648,668,689,709,728,748,768,789,808,828,848,868,889,908,928,948,968,990,1009,1029,1049,1070,1089],"xSR":741.5,"ySR":573.95,"xT1":424.9,"yT1":0,"xT2":1058.1,"yT2":0,"toosoon":0,"cond_shown":"Congruent","ratio_trial":200,"L_num":13,"L_den":26,"R_num":14,"R_den":20,"correct_side":2,"subjID":"mariacamilaromerovasquez9","gender":"1","school":"4","age":"9"},{"start_time":1552054071930,"click_time":1552054072438,"finger_time":1552054072238,"fix_duration":391.79308747320886,"trial":20,"RT":308,"MT":200,"sideResp":1,"stimulus":[],"xmouse":[758,758,758,758,758,758,758,758,758,758,758,758,758,757,749,738,717,687,641,616,592,568,552,533,528,524],"ymouse":[612,612,612,612,612,612,612,612,612,612,612,612,612,612,593,569,530,461,360,303,247,195,160,114,99,86],"timestamp_mouse":[8,28,47,67,88,107,127,148,167,187,207,228,247,267,288,308,328,347,367,388,408,427,448,468,488,507],"xSR":741.5,"ySR":573.95,"xT1":424.9,"yT1":0,"xT2":1058.1,"yT2":0,"toosoon":0,"cond_shown":"Incongruent","ratio_trial":200,"L_num":7,"L_den":10,"R_num":8,"R_den":16,"correct_side":1,"subjID":"mariacamilaromerovasquez9","gender":"1","school":"4","age":"9"},{"start_time":1552054074353,"click_time":1552054075097,"finger_time":1552054074677,"fix_duration":695.2200051341113,"trial":21,"RT":324,"MT":420,"sideResp":2,"stimulus":[],"xmouse":[765,765,765,765,765,765,765,765,765,765,765,765,765,767,772,807,845,1020,1117,1206,1262,1292,1315,1319,1321,1323,1328,1331,1331,1331,1331,1331,1330,1322,1301,1245,1206,1154],"ymouse":[611,611,611,611,611,611,611,611,611,611,611,611,611,611,609,580,545,397,310,229,162,116,58,38,21,10,0,0,0,0,0,0,0,0,5,21,33,51],"timestamp_mouse":[11,25,46,66,85,105,125,145,165,185,205,225,245,265,285,305,324,344,365,384,404,424,445,465,484,504,524,545,565,585,605,625,644,665,685,705,725,744],"xSR":741.5,"ySR":573.95,"xT1":424.9,"yT1":0,"xT2":1058.1,"yT2":0,"toosoon":0,"cond_shown":"Incongruent","ratio_trial":300,"L_num":3,"L_den":6,"R_num":4,"R_den":20,"correct_side":1,"subjID":"mariacamilaromerovasquez9","gender":"1","school":"4","age":"9"},{"start_time":1552054081130,"click_time":1552054081497,"finger_time":1552054081298,"fix_duration":612.5670004883862,"trial":22,"RT":168,"MT":199,"sideResp":1,"stimulus":[],"xmouse":[797,797,797,797,797,797,797,796,779,759,729,690,655,600,580,558,545,533,514],"ymouse":[618,618,618,618,618,618,618,613,544,481,414,342,281,190,154,114,89,71,41],"timestamp_mouse":[8,28,48,68,88,108,128,148,168,188,208,228,248,268,288,308,328,347,367],"xSR":741.5,"ySR":573.95,"xT1":424.9,"yT1":0,"xT2":1058.1,"yT2":0,"toosoon":0,"cond_shown":"Incongruent","ratio_trial":200,"L_num":14,"L_den":30,"R_num":6,"R_den":9,"correct_side":2,"subjID":"mariacamilaromerovasquez9","gender":"1","school":"4","age":"9"},{"start_time":1552054083340,"click_time":1552054084037,"finger_time":1552054083677,"fix_duration":920.5307576488317,"trial":23,"RT":337,"MT":360,"sideResp":2,"stimulus":[],"xmouse":[757,757,757,757,757,757,757,757,757,757,757,757,757,757,762,771,810,915,988,1057,1119,1161,1197,1203,1206,1207,1208,1209,1209,1209,1209,1209,1197,1176,1151],"ymouse":[623,623,623,623,623,623,623,623,623,623,623,623,623,623,617,607,559,431,350,277,213,163,108,95,88,81,78,73,67,64,60,55,45,34,23],"timestamp_mouse":[17,39,58,78,98,118,138,158,178,198,218,239,258,277,297,317,337,357,377,398,417,437,457,478,497,517,537,557,577,598,617,637,657,678,697],"xSR":741.5,"ySR":573.95,"xT1":424.9,"yT1":0,"xT2":1058.1,"yT2":0,"toosoon":0,"cond_shown":"Congruent","ratio_trial":100,"L_num":6,"L_den":20,"R_num":5,"R_den":25,"correct_side":1,"subjID":"mariacamilaromerovasquez9","gender":"1","school":"4","age":"9"},{"start_time":1552054085682,"click_time":1552054086398,"finger_time":1552054086278,"fix_duration":383.262403058527,"trial":24,"RT":596,"MT":120,"sideResp":1,"stimulus":[],"xmouse":[818,818,818,818,818,818,818,818,818,818,818,818,818,818,818,818,818,818,818,818,818,818,818,818,818,818,818,818,818,802,728,677,618,571,544,522],"ymouse":[606,606,606,606,606,606,606,606,606,606,606,606,606,606,606,606,606,606,606,606,606,606,606,606,606,606,606,606,605,571,419,316,212,127,64,4],"timestamp_mouse":[19,36,57,76,96,116,137,156,175,195,215,235,255,275,295,315,335,355,375,395,416,436,456,476,496,516,536,556,576,596,616,636,656,676,696,716],"xSR":741.5,"ySR":573.95,"xT1":424.9,"yT1":0,"xT2":1058.1,"yT2":0,"toosoon":0,"cond_shown":"Congruent","ratio_trial":100,"L_num":3,"L_den":20,"R_num":4,"R_den":16,"correct_side":2,"subjID":"mariacamilaromerovasquez9","gender":"1","school":"4","age":"9"},{"start_time":1552054094294,"click_time":1552054094677,"finger_time":1552054094597,"fix_duration":1376.2760460908405,"trial":25,"RT":303,"MT":80,"sideResp":1,"stimulus":[],"xmouse":[777,777,777,777,777,777,777,777,777,777,777,777,777,777,772,738,692,588,547,481],"ymouse":[615,615,615,615,615,615,615,615,615,615,615,615,615,615,602,517,414,212,145,35],"timestamp_mouse":[4,23,43,63,83,103,123,143,163,183,203,223,243,263,283,303,324,343,364,383],"xSR":741.5,"ySR":573.95,"xT1":424.9,"yT1":0,"xT2":1058.1,"yT2":0,"toosoon":0,"cond_shown":"Incongruent","ratio_trial":200,"L_num":14,"L_den":30,"R_num":12,"R_den":18,"correct_side":2,"subjID":"mariacamilaromerovasquez9","gender":"1","school":"4","age":"9"},{"start_time":1552054096129,"click_time":1552054097139,"finger_time":1552054096598,"fix_duration":250,"trial":26,"RT":469,"MT":541,"sideResp":2,"stimulus":[],"xmouse":[789,789,790,790,790,790,790,790,790,790,790,790,790,790,790,789,787,787,787,787,787,791,802,838,859,876,899,940,992,1013,1026,1035,1042,1051,1053,1054,1055,1056,1057,1058,1059,1060,1060,1061,1061,1062,1062,1063,1063,1063,1063],"ymouse":[637,637,638,638,638,638,638,638,638,638,638,638,638,638,637,637,636,636,636,636,621,600,576,520,498,481,461,428,384,364,350,335,323,305,297,292,288,284,275,270,263,253,242,212,199,184,165,153,126,109,90],"timestamp_mouse":[9,29,50,68,89,109,129,148,168,189,208,229,250,269,290,309,328,349,368,389,409,428,448,469,489,508,528,548,569,589,609,630,649,668,689,709,729,749,768,789,808,828,848,869,889,908,928,948,968,989,1009],"xSR":741.5,"ySR":573.95,"xT1":424.9,"yT1":0,"xT2":1058.1,"yT2":0,"toosoon":0,"cond_shown":"Incongruent","ratio_trial":300,"L_num":4,"L_den":20,"R_num":2,"R_den":4,"correct_side":2,"subjID":"mariacamilaromerovasquez9","gender":"1","school":"4","age":"9"},{"start_time":1552054098568,"click_time":1552054099697,"finger_time":1552054099077,"fix_duration":250,"trial":27,"RT":509,"MT":620,"sideResp":2,"stimulus":[],"xmouse":[757,755,754,753,752,752,752,752,752,752,752,752,752,752,752,752,752,752,752,752,758,767,778,792,810,854,944,980,1009,1030,1048,1079,1092,1106,1119,1129,1138,1141,1145,1145,1145,1140,1131,1121,1110,1103,1097,1095,1094,1094,1094,1094,1095,1095,1097,1100,1107],"ymouse":[610,612,613,616,617,617,617,617,617,617,617,617,617,617,617,617,617,617,617,617,608,597,589,582,575,558,515,490,467,449,433,409,398,387,376,359,328,313,295,278,259,220,200,184,170,158,145,140,134,130,126,122,119,117,115,105,85],"timestamp_mouse":[10,29,49,69,89,109,129,149,169,189,209,229,249,269,289,310,329,349,369,389,410,429,449,469,489,509,529,550,570,590,611,630,651,670,690,710,730,750,770,790,810,830,851,871,889,909,929,950,969,989,1009,1029,1050,1069,1089,1109,1129],"xSR":741.5,"ySR":573.95,"xT1":424.9,"yT1":0,"xT2":1058.1,"yT2":0,"toosoon":0,"cond_shown":"Congruent","ratio_trial":200,"L_num":6,"L_den":12,"R_num":7,"R_den":10,"correct_side":2,"subjID":"mariacamilaromerovasquez9","gender":"1","school":"4","age":"9"},{"start_time":1552054112416,"click_time":1552054113019,"finger_time":1552054112797,"fix_duration":1218.6444293298262,"trial":28,"RT":381,"MT":222,"sideResp":1,"stimulus":[],"xmouse":[807,807,807,807,807,807,807,807,807,807,807,807,807,807,807,807,808,808,799,758,724,690,657,625,592,575,553,525,492,442,425],"ymouse":[603,603,603,603,603,603,603,603,603,603,603,603,603,603,603,603,603,599,582,520,473,426,377,324,270,247,221,193,163,102,71],"timestamp_mouse":[4,22,42,63,82,102,122,142,161,181,201,221,242,261,281,301,322,341,361,381,402,421,441,461,481,502,523,542,562,582,603],"xSR":741.5,"ySR":573.95,"xT1":424.9,"yT1":0,"xT2":1058.1,"yT2":0,"toosoon":0,"cond_shown":"Congruent","ratio_trial":300,"L_num":4,"L_den":20,"R_num":13,"R_den":26,"correct_side":2,"subjID":"mariacamilaromerovasquez9","gender":"1","school":"4","age":"9"},{"start_time":1552054115551,"click_time":1552054116777,"finger_time":1552054115837,"fix_duration":853.2878831436853,"trial":29,"RT":286,"MT":940,"sideResp":2,"stimulus":[],"xmouse":[771,771,774,775,775,775,775,775,775,775,776,776,782,794,813,844,911,1014,1088,1155,1205,1248,1318,1348,1372,1391,1408,1421,1425,1426,1427,1427,1427,1427,1423,1419,1405,1391,1387,1385,1381,1373,1336,1306,1265,1236,1216,1215,1215,1215,1215,1215,1212,1209,1206,1205,1204,1197,1185,1174,1160,1148],"ymouse":[604,604,601,600,600,600,600,600,600,600,599,599,595,582,563,532,470,367,291,220,161,108,11,0,0,0,0,0,0,0,0,0,0,0,0,2,8,14,16,17,18,19,22,22,22,22,22,21,21,21,21,21,21,21,21,21,21,23,27,34,41,49],"timestamp_mouse":[6,26,46,66,86,106,126,146,166,186,206,226,246,266,286,306,326,346,367,386,407,427,447,468,486,507,526,547,567,586,606,626,647,666,686,706,726,746,768,786,806,826,847,868,887,907,927,948,967,987,1007,1027,1046,1068,1087,1107,1127,1146,1167,1187,1206,1226],"xSR":741.5,"ySR":573.95,"xT1":424.9,"yT1":0,"xT2":1058.1,"yT2":0,"toosoon":0,"cond_shown":"Congruent","ratio_trial":300,"L_num":24,"L_den":30,"R_num":2,"R_den":4,"correct_side":1,"subjID":"mariacamilaromerovasquez9","gender":"1","school":"4","age":"9"},{"start_time":1552054118683,"click_time":1552054119597,"finger_time":1552054119038,"fix_duration":264.87948612855325,"trial":30,"RT":355,"MT":559,"sideResp":1,"stimulus":[],"xmouse":[791,791,791,791,791,791,791,791,791,791,791,791,791,791,791,788,782,771,756,727,692,678,662,650,635,599,582,571,563,559,556,556,555,554,554,550,548,546,546,546,546,546,543,536,528,516],"ymouse":[643,643,643,643,643,643,643,643,643,643,643,643,643,643,638,620,597,564,529,477,427,401,372,345,315,250,223,200,179,167,156,154,151,148,142,129,125,121,119,119,119,118,109,96,79,50],"timestamp_mouse":[17,35,56,75,94,114,134,154,174,196,214,236,255,275,295,314,335,355,374,394,416,434,455,474,495,515,534,555,574,595,614,635,654,674,694,715,735,756,775,795,816,835,855,875,894,914],"xSR":741.5,"ySR":573.95,"xT1":424.9,"yT1":0,"xT2":1058.1,"yT2":0,"toosoon":0,"cond_shown":"Incongruent","ratio_trial":100,"L_num":11,"L_den":22,"R_num":9,"R_den":15,"correct_side":2,"subjID":"mariacamilaromerovasquez9","gender":"1","school":"4","age":"9"},{"start_time":1552054128250,"click_time":1552054129298,"finger_time":1552054128477,"fix_duration":652.3731493393715,"trial":31,"RT":227,"MT":821,"sideResp":1,"stimulus":[],"xmouse":[785,785,785,785,785,785,785,785,781,771,760,735,687,653,613,567,512,365,287,214,158,120,110,111,114,117,118,118,118,118,118,118,118,122,138,164,198,276,323,373,437,457,472,472,472,474,477,483,485,487,487,487,487],"ymouse":[641,641,641,641,641,641,641,639,632,619,600,564,479,416,347,262,163,0,0,0,0,0,0,0,0,0,0,0,0,0,0,0,0,6,24,52,79,134,157,178,196,198,199,199,199,198,195,182,172,159,135,119,93],"timestamp_mouse":[7,27,48,68,88,108,127,147,167,187,207,227,247,268,288,309,328,348,368,389,408,428,447,468,489,508,528,549,568,588,608,628,649,668,688,708,728,747,768,787,807,827,847,868,887,907,928,947,968,987,1007,1027,1048],"xSR":741.5,"ySR":573.95,"xT1":424.9,"yT1":0,"xT2":1058.1,"yT2":0,"toosoon":0,"cond_shown":"Congruent","ratio_trial":300,"L_num":1,"L_den":30,"R_num":8,"R_den":24,"correct_side":2,"subjID":"mariacamilaromerovasquez9","gender":"1","school":"4","age":"9"},{"start_time":1552054133072,"click_time":1552054134077,"finger_time":1552054133337,"fix_duration":894.211964204442,"trial":32,"RT":265,"MT":740,"sideResp":2,"stimulus":[],"xmouse":[794,794,794,794,794,794,794,794,794,794,796,802,808,817,832,848,886,903,917,929,947,967,976,985,994,1002,1014,1019,1023,1030,1034,1040,1042,1042,1042,1042,1043,1044,1045,1047,1048,1049,1050,1050,1050,1050,1050,1052,1056,1058,1059],"ymouse":[616,616,616,616,616,616,616,616,616,616,614,600,584,560,525,485,392,354,324,300,270,235,217,201,185,170,146,134,122,109,102,91,87,86,86,86,85,85,84,83,81,81,80,80,80,80,79,78,76,75,74],"timestamp_mouse":[5,25,46,65,85,105,125,145,165,185,205,225,245,265,285,305,325,346,365,386,407,426,446,466,487,506,526,546,566,586,606,627,646,667,688,706,726,746,765,785,805,825,845,865,885,905,925,946,965,985,1005],"xSR":741.5,"ySR":573.95,"xT1":424.9,"yT1":0,"xT2":1058.1,"yT2":0,"toosoon":0,"cond_shown":"Congruent","ratio_trial":300,"L_num":3,"L_den":12,"R_num":11,"R_den":20,"correct_side":2,"subjID":"mariacamilaromerovasquez9","gender":"1","school":"4","age":"9"},{"start_time":1552054136912,"click_time":1552054137777,"finger_time":1552054137298,"fix_duration":1333.9140953324465,"trial":33,"RT":386,"MT":479,"sideResp":2,"stimulus":[],"xmouse":[810,810,810,810,810,810,810,810,810,810,810,810,810,810,810,810,810,812,826,875,914,954,991,1024,1075,1088,1099,1113,1122,1139,1145,1147,1149,1149,1149,1149,1149,1149,1148,1145,1143,1142,1137,1128],"ymouse":[623,623,623,623,623,623,623,623,623,623,623,623,623,623,623,623,623,620,599,510,448,393,347,310,244,223,205,178,164,139,130,126,123,120,120,120,120,118,117,115,114,112,103,92],"timestamp_mouse":[5,25,45,65,85,105,125,145,165,185,205,225,245,265,285,305,325,346,365,386,406,425,445,467,486,506,527,546,565,585,606,625,645,665,685,705,725,745,765,785,806,825,845,865],"xSR":741.5,"ySR":573.95,"xT1":424.9,"yT1":0,"xT2":1058.1,"yT2":0,"toosoon":0,"cond_shown":"Congruent","ratio_trial":200,"L_num":16,"L_den":30,"R_num":9,"R_den":27,"correct_side":1,"subjID":"mariacamilaromerovasquez9","gender":"1","school":"4","age":"9"},{"start_time":1552054139965,"click_time":1552054141038,"finger_time":1552054140437,"fix_duration":766.0835936120657,"trial":34,"RT":472,"MT":601,"sideResp":1,"stimulus":[],"xmouse":[800,800,800,800,800,800,800,800,800,800,800,800,800,800,800,800,800,800,800,800,800,800,795,789,778,760,730,714,698,683,668,641,627,616,605,594,579,574,568,563,558,551,548,546,544,544,544,544,544,543,541,533,528,523],"ymouse":[590,590,590,590,590,590,590,590,590,590,590,590,590,590,590,590,590,590,590,590,590,590,582,570,550,516,468,439,406,371,333,260,223,191,158,115,67,44,24,4,0,0,0,0,0,0,0,0,0,0,0,4,6,9],"timestamp_mouse":[13,33,53,72,92,112,132,152,172,192,212,232,252,272,292,312,332,352,372,392,412,432,453,472,492,512,533,553,572,592,612,632,653,672,692,712,733,753,772,793,814,832,853,874,893,913,934,952,973,992,1012,1033,1052,1073],"xSR":741.5,"ySR":573.95,"xT1":424.9,"yT1":0,"xT2":1058.1,"yT2":0,"toosoon":0,"cond_shown":"Incongruent","ratio_trial":200,"L_num":4,"L_den":6,"R_num":14,"R_den":30,"correct_side":1,"subjID":"mariacamilaromerovasquez9","gender":"1","school":"4","age":"9"},{"start_time":1552054143805,"click_time":1552054144297,"finger_time":1552054144138,"fix_duration":1325.9320580357405,"trial":35,"RT":333,"MT":159,"sideResp":2,"stimulus":[],"xmouse":[785,785,785,785,785,785,785,785,785,785,785,785,785,785,792,800,811,827,847,909,955,1014,1070,1119,1145],"ymouse":[602,602,602,602,602,602,602,602,602,602,602,602,602,602,591,574,549,511,465,359,308,260,212,155,98],"timestamp_mouse":[14,32,52,73,93,112,133,152,172,193,212,234,253,272,292,312,333,352,373,392,412,434,452,473,492],"xSR":741.5,"ySR":573.95,"xT1":424.9,"yT1":0,"xT2":1058.1,"yT2":0,"toosoon":0,"cond_shown":"Incongruent","ratio_trial":300,"L_num":13,"L_den":26,"R_num":12,"R_den":15,"correct_side":2,"subjID":"mariacamilaromerovasquez9","gender":"1","school":"4","age":"9"},{"start_time":1552054148130,"click_time":1552054148618,"finger_time":1552054148498,"fix_duration":250,"trial":36,"RT":368,"MT":120,"sideResp":2,"stimulus":[],"xmouse":[764,764,764,764,764,764,764,764,765,765,765,765,765,765,765,765,766,776,810,838,883,935,985,1060,1082],"ymouse":[613,613,613,613,613,613,611,610,609,609,609,609,609,609,609,609,607,595,560,528,474,415,344,177,91],"timestamp_mouse":[8,28,48,68,88,108,128,148,168,188,208,228,248,268,289,308,328,348,368,388,407,427,447,467,488],"xSR":741.5,"ySR":573.95,"xT1":424.9,"yT1":0,"xT2":1058.1,"yT2":0,"toosoon":0,"cond_shown":"Incongruent","ratio_trial":200,"L_num":7,"L_den":10,"R_num":12,"R_den":24,"correct_side":1,"subjID":"mariacamilaromerovasquez9","gender":"1","school":"4","age":"9"},{"start_time":1552054152781,"click_time":1552054153997,"finger_time":1552054153298,"fix_duration":1123.2996916853183,"trial":37,"RT":517,"MT":699,"sideResp":1,"stimulus":[],"xmouse":[785,785,785,785,785,785,785,785,785,785,785,785,785,785,785,785,785,785,785,785,785,785,785,780,772,728,717,695,667,642,618,591,584,579,574,564,561,557,555,554,554,554,554,554,554,552,549,544,538,529,506,494,487,477,476,476,476,475,475,475,474],"ymouse":[631,631,631,631,631,631,631,631,631,631,631,631,631,631,631,631,631,631,631,631,631,631,631,630,621,566,551,529,492,458,423,361,329,300,258,203,182,166,154,147,140,136,131,123,101,62,45,27,10,0,0,0,0,0,0,0,0,0,0,0,2],"timestamp_mouse":[18,36,56,76,96,116,137,157,176,196,217,237,257,277,297,318,337,357,377,397,417,437,456,476,496,517,537,556,576,596,616,636,656,676,696,716,737,756,776,796,816,836,856,876,896,917,937,956,978,998,1017,1037,1058,1077,1097,1117,1137,1157,1178,1197,1216],"xSR":741.5,"ySR":573.95,"xT1":424.9,"yT1":0,"xT2":1058.1,"yT2":0,"toosoon":0,"cond_shown":"Incongruent","ratio_trial":200,"L_num":7,"L_den":15,"R_num":4,"R_den":6,"correct_side":2,"subjID":"mariacamilaromerovasquez9","gender":"1","school":"4","age":"9"},{"start_time":1552054156239,"click_time":1552054157318,"finger_time":1552054156979,"fix_duration":461.41637941756073,"trial":38,"RT":740,"MT":339,"sideResp":2,"stimulus":[],"xmouse":[797,795,795,795,795,795,795,795,795,795,795,795,795,795,795,795,795,795,795,795,795,795,795,795,795,795,795,795,795,795,795,795,795,795,806,817,844,947,1007,1060,1116,1138,1166,1171,1175,1176,1177,1178,1179,1179,1177,1174,1164,1157],"ymouse":[598,600,600,600,600,600,600,600,600,600,600,600,600,600,600,600,600,600,600,600,600,600,600,600,600,600,600,600,600,600,600,600,600,600,589,579,551,459,403,350,280,247,200,186,177,171,165,159,157,151,135,123,95,82],"timestamp_mouse":[18,38,59,79,98,118,138,158,178,198,218,238,258,278,298,318,338,358,378,398,418,439,458,479,499,519,539,560,579,599,619,639,659,680,699,720,740,759,780,800,819,840,859,879,899,918,939,958,979,998,1018,1038,1058,1079],"xSR":741.5,"ySR":573.95,"xT1":424.9,"yT1":0,"xT2":1058.1,"yT2":0,"toosoon":0,"cond_shown":"Incongruent","ratio_trial":300,"L_num":4,"L_den":20,"R_num":2,"R_den":4,"correct_side":2,"subjID":"mariacamilaromerovasquez9","gender":"1","school":"4","age":"9"},{"start_time":1552054159208,"click_time":1552054160077,"finger_time":1552054159598,"fix_duration":250,"trial":39,"RT":390,"MT":479,"sideResp":2,"stimulus":[],"xmouse":[771,770,768,767,767,766,766,766,766,766,766,766,766,766,766,766,766,779,789,847,889,954,989,1021,1043,1067,1071,1073,1075,1076,1076,1076,1076,1077,1078,1079,1082,1083,1086,1091,1093,1097,1098,1101],"ymouse":[608,613,618,619,620,620,620,620,620,620,620,620,620,620,620,620,620,609,600,549,509,437,392,345,306,247,226,214,204,196,195,194,193,191,182,175,166,157,146,126,117,109,103,94],"timestamp_mouse":[10,31,50,70,90,110,130,150,170,189,209,229,250,270,290,310,330,350,370,390,410,429,449,469,489,509,529,549,569,589,610,629,649,669,689,710,729,749,769,789,809,829,849,869],"xSR":741.5,"ySR":573.95,"xT1":424.9,"yT1":0,"xT2":1058.1,"yT2":0,"toosoon":0,"cond_shown":"Incongruent","ratio_trial":100,"L_num":10,"L_den":25,"R_num":9,"R_den":18,"correct_side":2,"subjID":"mariacamilaromerovasquez9","gender":"1","school":"4","age":"9"},{"start_time":1552054161608,"click_time":1552054162538,"finger_time":1552054162079,"fix_duration":250,"trial":40,"RT":471,"MT":459,"sideResp":1,"stimulus":[],"xmouse":[788,788,788,788,788,788,788,788,788,788,788,788,788,788,788,788,788,788,788,788,789,792,795,795,785,780,771,754,734,680,648,605,558,529,489,472,462,454,447,438,438,438,438,438,438,437,436],"ymouse":[630,630,630,630,630,630,630,630,630,630,630,630,630,630,630,630,630,630,630,630,622,613,581,558,498,457,413,356,295,144,68,0,0,0,0,0,0,0,0,0,0,0,0,0,0,0,5],"timestamp_mouse":[9,29,49,71,89,109,129,149,170,190,210,230,250,270,290,310,330,350,370,391,410,430,450,471,489,510,531,550,570,590,610,630,651,670,689,710,730,751,770,789,811,830,850,870,890,909,930],"xSR":741.5,"ySR":573.95,"xT1":424.9,"yT1":0,"xT2":1058.1,"yT2":0,"toosoon":0,"cond_shown":"Incongruent","ratio_trial":100,"L_num":10,"L_den":25,"R_num":9,"R_den":18,"correct_side":2,"subjID":"mariacamilaromerovasquez9","gender":"1","school":"4","age":"9"},{"start_time":1552054169747,"click_time":1552054173857,"finger_time":1552054170137,"fix_duration":428.65409044535585,"trial":41,"RT":390,"MT":3720,"sideResp":2,"stimulus":[],"xmouse":[776,776,776,776,776,776,776,776,776,776,776,776,776,776,776,776,776,781,796,811,834,860,892,901,909,915,919,923,925,926,928,932,943,947,952,955,958,963,965,968,968,968,972,973,973,973,973,977,975,976,976,976,976,976,976,976,976,976,976,976,976,976,976,976,976,976,976,976,976,976,976,976,976,976,976,976,976,976,976,976,976,976,976,976,976,976,976,976,976,985,1022,1072,1133,1136,1136,1136,1136,1144,1174,1236,1294,1326,1339,1341,1341,1344,1347,1353,1353,1353,1352,1347,1336,1331,1327,1326,1326,1326,1322,1318,1316,1313,1305,1305,1304,1304,1304,1304,1304,1304,1304,1304,1304,1304,1304,1304,1304,1304,1304,1304,1304,1304,1304,1304,1304,1304,1304,1304,1304,1304,1304,1304,1304,1304,1304,1312,1333,1352,1356,1357,1357,1357,1357,1357,1357,1357,1357,1357,1356,1355,1355,1353,1347,1344,1340,1336,1333,1326,1324,1322,1319,1316,1309,1305,1301,1293,1286,1270,1265,1261,1259,1257,1256,1255,1253,1250,1249,1244,1243,1241,1241,1240,1234,1218,1195,1155],"ymouse":[611,611,611,611,611,611,611,611,611,611,611,611,611,611,611,611,611,607,586,559,524,488,437,419,404,391,384,378,375,372,368,363,348,340,332,327,317,300,294,287,287,287,272,272,272,272,272,256,245,238,238,238,238,238,238,238,238,238,238,238,238,238,238,238,238,238,238,238,238,238,238,238,238,238,238,238,238,238,238,238,238,238,238,238,238,238,238,238,238,256,305,358,401,403,403,403,406,412,418,427,436,440,442,442,440,433,419,397,385,375,364,352,327,312,295,278,251,218,198,181,167,156,130,123,121,121,121,121,121,121,121,121,121,121,121,121,121,121,121,121,121,121,121,121,121,121,121,121,121,121,121,121,121,121,121,149,217,287,303,306,306,306,306,306,306,305,305,301,298,293,287,280,258,246,234,216,203,183,172,155,139,117,65,38,15,0,0,0,0,0,0,0,0,0,1,3,4,8,9,10,11,12,14,16,16,16],"timestamp_mouse":[10,30,50,70,90,110,130,150,170,190,210,230,250,271,290,310,330,350,370,390,410,430,450,471,491,511,530,550,571,591,610,630,651,671,690,710,730,751,771,790,810,830,850,872,891,912,931,951,971,991,1011,1031,1051,1071,1091,1111,1131,1151,1171,1191,1211,1230,1250,1270,1290,1310,1330,1350,1371,1390,1410,1431,1451,1470,1490,1511,1530,1550,1572,1591,1611,1631,1651,1671,1691,1711,1731,1751,1771,1791,1811,1831,1851,1871,1891,1911,1931,1951,1971,1991,2010,2030,2051,2070,2090,2110,2130,2150,2170,2190,2210,2230,2250,2271,2290,2310,2330,2350,2371,2390,2410,2430,2450,2471,2490,2510,2530,2550,2570,2590,2610,2630,2651,2672,2691,2711,2731,2750,2770,2790,2810,2830,2850,2871,2891,2910,2930,2950,2970,2990,3010,3031,3051,3071,3091,3111,3131,3151,3171,3191,3211,3231,3252,3271,3292,3311,3332,3351,3371,3392,3411,3431,3451,3471,3490,3510,3531,3550,3571,3591,3611,3631,3651,3672,3691,3711,3731,3750,3771,3791,3811,3831,3850,3872,3891,3911,3931,3950,3971,3991,4011,4031,4050,4071,4091,4110],"xSR":741.5,"ySR":573.95,"xT1":424.9,"yT1":0,"xT2":1058.1,"yT2":0,"toosoon":0,"cond_shown":"Congruent","ratio_trial":300,"L_num":12,"L_den":24,"R_num":2,"R_den":10,"correct_side":1,"subjID":"mariacamilaromerovasquez9","gender":"1","school":"4","age":"9"},{"start_time":1552054184933,"click_time":1552054186178,"finger_time":1552054185257,"fix_duration":975.70777031855,"trial":42,"RT":324,"MT":921,"sideResp":2,"stimulus":[],"xmouse":[803,803,803,803,803,803,803,803,803,803,803,803,803,803,803,803,806,825,845,854,862,871,880,903,914,921,928,932,937,939,941,946,952,962,966,969,974,975,977,977,977,977,977,977,980,985,996,1005,1008,1009,1010,1012,1016,1031,1038,1043,1044,1044,1045,1046,1048,1054,1059],"ymouse":[595,595,595,595,595,595,595,595,595,595,595,595,595,595,595,585,571,520,463,440,419,398,378,331,304,283,253,234,200,184,166,147,127,91,74,62,50,48,45,45,45,45,45,45,44,43,43,43,44,44,44,44,44,38,32,29,28,28,28,28,28,30,33],"timestamp_mouse":[4,24,44,65,84,104,124,144,164,184,204,225,244,264,284,304,324,344,364,385,404,425,444,465,486,506,525,546,564,585,605,625,646,665,686,705,725,745,764,785,804,824,844,864,885,905,925,945,965,986,1005,1025,1045,1065,1085,1105,1126,1145,1165,1185,1205,1225,1245],"xSR":741.5,"ySR":573.95,"xT1":424.9,"yT1":0,"xT2":1058.1,"yT2":0,"toosoon":0,"cond_shown":"Incongruent","ratio_trial":100,"L_num":9,"L_den":15,"R_num":14,"R_den":28,"correct_side":1,"subjID":"mariacamilaromerovasquez9","gender":"1","school":"4","age":"9"},{"start_time":1552054188670,"click_time":1552054189398,"finger_time":1552054188978,"fix_duration":1052.5716590159948,"trial":43,"RT":308,"MT":420,"sideResp":1,"stimulus":[],"xmouse":[782,782,782,782,782,782,782,780,780,778,776,775,772,768,760,745,691,659,633,605,592,577,572,568,564,556,547,543,540,538,538,535,534,532,530,526,517],"ymouse":[630,630,630,630,630,630,630,626,624,621,616,610,606,596,581,559,478,427,384,331,310,278,267,256,241,222,193,179,166,151,144,133,128,122,113,101,82],"timestamp_mouse":[16,28,47,67,87,107,128,148,168,188,208,228,248,268,288,308,327,347,368,389,409,427,448,468,488,508,527,548,568,587,607,627,648,669,688,707,728],"xSR":741.5,"ySR":573.95,"xT1":424.9,"yT1":0,"xT2":1058.1,"yT2":0,"toosoon":0,"cond_shown":"Incongruent","ratio_trial":300,"L_num":4,"L_den":20,"R_num":2,"R_den":4,"correct_side":2,"subjID":"mariacamilaromerovasquez9","gender":"1","school":"4","age":"9"},{"start_time":1552054191010,"click_time":1552054192098,"finger_time":1552054191497,"fix_duration":351.0473697524319,"trial":44,"RT":487,"MT":601,"sideResp":2,"stimulus":[],"xmouse":[819,819,819,819,819,819,819,819,819,819,819,819,819,819,819,819,819,819,819,819,819,819,819,824,877,904,923,940,952,975,986,994,1007,1015,1032,1041,1048,1053,1055,1057,1057,1056,1055,1055,1055,1055,1055,1055,1055,1055,1055,1055,1055,1058,1062],"ymouse":[635,635,635,635,635,635,635,635,635,635,635,635,635,635,635,635,635,635,635,635,635,635,635,630,563,528,505,483,464,425,404,385,356,339,306,289,275,261,245,218,205,192,180,161,136,122,110,99,90,74,67,60,55,45,39],"timestamp_mouse":[8,28,47,67,87,107,127,148,167,188,207,227,247,267,287,307,327,347,369,388,408,427,447,468,487,507,528,548,567,587,608,627,648,667,687,708,727,747,767,787,808,827,847,867,887,908,927,947,968,987,1008,1027,1047,1067,1088],"xSR":741.5,"ySR":573.95,"xT1":424.9,"yT1":0,"xT2":1058.1,"yT2":0,"toosoon":0,"cond_shown":"Incongruent","ratio_trial":100,"L_num":6,"L_den":10,"R_num":11,"R_den":22,"correct_side":1,"subjID":"mariacamilaromerovasquez9","gender":"1","school":"4","age":"9"},{"start_time":1552054213427,"click_time":1552054217878,"finger_time":1552054216617,"fix_duration":549.6501914997242,"trial":45,"RT":3190,"MT":1261,"sideResp":1,"stimulus":[],"xmouse":[787,787,787,787,787,787,787,787,787,787,787,787,787,787,787,787,787,787,787,787,787,787,787,787,787,787,787,787,787,787,787,787,787,787,787,787,787,787,787,787,787,787,787,787,787,787,787,787,787,787,787,787,787,787,787,787,787,787,787,787,787,787,787,787,787,787,787,787,787,787,787,787,787,787,787,787,787,787,787,787,787,787,787,787,787,787,787,787,787,787,787,787,787,787,787,787,787,787,787,787,787,787,787,787,787,787,787,787,787,787,787,787,787,787,787,787,787,787,787,787,787,787,787,787,787,787,787,787,787,787,787,787,787,787,787,787,787,787,787,787,787,787,787,787,787,787,787,787,787,787,787,787,787,787,787,793,806,813,833,840,849,856,868,880,888,893,899,904,916,923,930,938,949,959,963,966,968,971,973,975,977,979,983,983,983,983,983,981,971,966,961,954,943,932,928,925,923,919,897,884,870,858,842,828,821,809,793,775,738,721,702,683,662,644,632,620,608,597,576,563,547,527,492],"ymouse":[631,631,631,631,631,631,631,631,631,631,631,631,631,631,631,631,631,631,631,631,631,631,631,631,631,631,631,631,631,631,631,631,631,631,631,631,631,631,631,631,631,631,631,631,631,631,631,631,631,631,631,631,631,631,631,631,631,631,631,631,631,631,631,631,631,631,631,631,631,631,631,631,631,631,631,631,631,631,631,631,631,631,631,631,631,631,631,631,631,631,631,631,631,631,631,631,631,631,631,631,631,631,631,631,631,631,631,631,631,631,631,631,631,631,631,631,631,631,631,631,631,631,631,631,631,631,631,631,631,631,631,631,631,631,631,631,631,631,631,631,631,631,631,631,631,631,631,631,631,631,631,631,631,631,631,623,607,601,580,571,562,553,540,525,516,511,503,498,480,469,456,442,420,394,384,374,366,356,337,323,308,293,267,235,218,200,180,161,119,101,83,66,47,33,30,30,30,30,30,30,30,27,25,23,23,23,23,23,23,23,20,17,15,13,13,12,12,12,15,19,27,39,61],"timestamp_mouse":[10,31,51,70,90,110,130,150,170,190,210,230,250,270,290,310,330,351,371,391,411,431,451,471,491,511,531,551,571,591,611,631,652,671,691,711,731,751,771,791,811,832,851,870,891,910,930,950,970,991,1010,1030,1050,1070,1090,1110,1131,1150,1170,1190,1210,1230,1250,1270,1290,1310,1330,1351,1370,1390,1410,1430,1450,1471,1490,1510,1530,1550,1570,1590,1610,1630,1650,1670,1690,1711,1730,1750,1770,1790,1810,1830,1850,1870,1890,1910,1930,1950,1970,1990,2010,2030,2050,2070,2090,2110,2130,2150,2171,2191,2211,2231,2252,2271,2290,2310,2330,2351,2370,2390,2410,2430,2451,2470,2490,2510,2532,2552,2570,2590,2610,2631,2651,2670,2690,2711,2730,2750,2770,2790,2810,2830,2851,2872,2891,2910,2930,2952,2970,2990,3010,3030,3050,3070,3090,3110,3130,3150,3171,3190,3211,3230,3251,3272,3291,3310,3330,3350,3371,3390,3410,3430,3452,3471,3491,3511,3530,3550,3571,3590,3610,3631,3650,3671,3691,3710,3732,3750,3770,3792,3811,3831,3850,3871,3891,3910,3932,3950,3970,3991,4010,4030,4050,4071,4091,4111,4131,4150,4171,4191,4210,4230,4251,4271,4291,4310,4331,4351,4371,4391,4410,4430,4451],"xSR":741.5,"ySR":573.95,"xT1":424.9,"yT1":0,"xT2":1058.1,"yT2":0,"toosoon":0,"cond_shown":"Congruent","ratio_trial":100,"L_num":6,"L_den":12,"R_num":15,"R_den":25,"correct_side":2,"subjID":"mariacamilaromerovasquez9","gender":"1","school":"4","age":"9"},{"start_time":1552054222108,"click_time":1552054229378,"finger_time":1552054229117,"fix_duration":1410.3321767839002,"trial":46,"RT":7009,"MT":261,"sideResp":2,"stimulus":[],"xmouse":[780,780,780,780,780,780,780,780,780,780,780,780,780,780,780,780,780,780,780,780,780,780,780,780,780,780,780,780,780,780,780,780,780,780,780,780,780,780,780,780,780,780,780,780,780,780,780,780,780,780,780,780,780,780,780,780,780,780,780,780,780,780,780,780,780,780,780,780,780,780,780,780,780,780,780,780,780,780,780,780,780,780,780,780,780,780,780,780,780,780,780,780,780,780,780,780,780,780,780,780,780,780,780,780,780,780,780,780,780,780,780,780,780,780,780,780,780,780,780,780,780,780,780,780,780,780,780,780,780,780,780,780,780,780,780,780,780,780,780,780,780,780,780,780,780,780,780,780,780,780,780,780,780,780,780,780,780,780,780,780,780,780,780,780,780,780,780,780,780,780,780,780,780,780,780,780,780,780,780,780,780,780,780,780,780,780,780,780,780,780,780,780,780,780,780,780,780,780,780,780,780,780,780,780,780,780,780,780,780,780,780,780,780,780,780,780,780,780,780,780,780,780,780,780,780,780,780,780,780,780,780,780,780,780,780,780,780,780,780,780,780,780,780,780,780,780,780,780,780,780,780,780,780,780,780,780,780,780,780,780,780,780,780,780,780,780,780,780,780,780,780,780,780,780,780,780,780,780,780,780,780,780,780,780,780,780,780,780,780,780,780,780,780,780,780,780,780,780,780,780,780,780,780,780,780,780,780,780,780,780,780,780,780,780,780,780,780,780,780,780,780,780,780,780,780,780,780,780,780,780,780,780,780,780,780,780,780,780,780,780,780,780,780,780,780,780,780,781,799,835,857,883,914,947,1000,1017,1030,1037,1042,1049,1056,1068,1087,1101],"ymouse":[623,623,623,623,623,623,623,623,623,623,623,623,623,623,623,623,623,623,623,623,623,623,623,623,623,623,623,623,623,623,623,623,623,623,623,623,623,623,623,623,623,623,623,623,623,623,623,623,623,623,623,623,623,623,623,623,623,623,623,623,623,623,623,623,623,623,623,623,623,623,623,623,623,623,623,623,623,623,623,623,623,623,623,623,623,623,623,623,623,623,623,623,623,623,623,623,623,623,623,623,623,623,623,623,623,623,623,623,623,623,623,623,623,623,623,623,623,623,623,623,623,623,623,623,623,623,623,623,623,623,623,623,623,623,623,623,623,623,623,623,623,623,623,623,623,623,623,623,623,623,623,623,623,623,623,623,623,623,623,623,623,623,623,623,623,623,623,623,623,623,623,623,623,623,623,623,623,623,623,623,623,623,623,623,623,623,623,623,623,623,623,623,623,623,623,623,623,623,623,623,623,623,623,623,623,623,623,623,623,623,623,623,623,623,623,623,623,623,623,623,623,623,623,623,623,623,623,623,623,623,623,623,623,623,623,623,623,623,623,623,623,623,623,623,623,623,623,623,623,623,623,623,623,623,623,623,623,623,623,623,623,623,623,623,623,623,623,623,623,623,623,623,623,623,623,623,623,623,623,623,623,623,623,623,623,623,623,623,623,623,623,623,623,623,623,623,623,623,623,623,623,623,623,623,623,623,623,623,623,623,623,623,623,623,623,623,623,623,623,623,623,623,623,623,623,623,623,623,623,623,623,623,623,623,623,623,623,623,623,623,623,623,623,623,623,623,623,623,615,590,569,539,495,446,346,299,255,218,178,140,125,114,105,97],"timestamp_mouse":[9,30,49,69,89,109,129,149,169,189,210,229,249,269,289,309,329,349,369,389,409,429,449,469,489,509,530,549,569,589,610,631,650,670,690,710,729,749,769,789,809,829,849,869,889,909,929,949,970,989,1009,1029,1049,1069,1089,1109,1129,1149,1169,1189,1209,1229,1249,1269,1290,1310,1331,1349,1369,1389,1409,1429,1449,1469,1490,1509,1529,1549,1569,1589,1609,1629,1649,1669,1689,1709,1729,1749,1769,1789,1809,1829,1850,1870,1890,1910,1930,1950,1970,1990,2010,2031,2050,2069,2089,2109,2129,2149,2169,2189,2209,2229,2249,2269,2289,2309,2329,2349,2369,2389,2409,2429,2449,2470,2489,2509,2529,2549,2570,2590,2611,2630,2650,2670,2690,2710,2730,2750,2770,2790,2810,2830,2850,2870,2889,2909,2929,2949,2969,2989,3009,3029,3049,3069,3089,3109,3129,3149,3170,3190,3209,3229,3249,3269,3289,3309,3329,3349,3370,3389,3409,3429,3449,3469,3489,3509,3529,3549,3569,3589,3609,3629,3649,3669,3689,3709,3729,3749,3769,3789,3809,3829,3849,3869,3889,3909,3929,3949,3969,3989,4009,4029,4049,4069,4089,4109,4130,4150,4170,4190,4210,4230,4250,4270,4290,4310,4330,4350,4370,4390,4411,4430,4450,4471,4490,4510,4530,4550,4570,4590,4610,4629,4649,4669,4689,4709,4729,4749,4769,4789,4809,4829,4849,4869,4889,4910,4929,4949,4969,4989,5010,5029,5049,5069,5089,5110,5130,5150,5170,5190,5210,5230,5250,5269,5289,5309,5329,5350,5369,5389,5409,5430,5451,5470,5490,5511,5529,5551,5571,5590,5611,5629,5649,5670,5691,5710,5729,5749,5769,5790,5809,5830,5851,5871,5890,5909,5930,5949,5969,5989,6009,6030,6049,6069,6090,6109,6129,6150,6170,6189,6209,6230,6250,6269,6290,6309,6329,6349,6370,6389,6410,6431,6449,6469,6489,6509,6529,6549,6571,6590,6610,6630,6649,6670,6690,6710,6729,6749,6769,6789,6809,6830,6849,6870,6889,6909,6931,6950,6969,6990,7009,7029,7050,7070,7089,7109,7129,7149,7169,7189,7209,7231,7251,7270],"xSR":741.5,"ySR":573.95,"xT1":424.9,"yT1":0,"xT2":1058.1,"yT2":0,"toosoon":0,"cond_shown":"Incongruent","ratio_trial":300,"L_num":8,"L_den":10,"R_num":9,"R_den":18,"correct_side":1,"subjID":"mariacamilaromerovasquez9","gender":"1","school":"4","age":"9"},{"start_time":1552054232333,"click_time":1552054232938,"finger_time":1552054232578,"fix_duration":834.5248348062005,"trial":47,"RT":245,"MT":360,"sideResp":1,"stimulus":[],"xmouse":[798,798,798,798,798,798,798,798,800,803,805,805,805,790,784,780,777,774,764,757,748,736,720,693,677,657,635,596,548,531,517],"ymouse":[623,623,623,623,623,623,623,623,624,614,601,583,564,524,510,497,482,472,444,427,407,388,363,320,297,270,241,192,128,102,85],"timestamp_mouse":[5,24,44,64,84,104,125,145,164,185,205,226,245,265,286,305,325,346,365,385,405,425,444,465,485,505,524,545,564,585,604],"xSR":741.5,"ySR":573.95,"xT1":424.9,"yT1":0,"xT2":1058.1,"yT2":0,"toosoon":0,"cond_shown":"Incongruent","ratio_trial":100,"L_num":8,"L_den":20,"R_num":1,"R_den":2,"correct_side":2,"subjID":"mariacamilaromerovasquez9","gender":"1","school":"4","age":"9"},{"start_time":1552054234767,"click_time":1552054235837,"finger_time":1552054235258,"fix_duration":309.3213360395284,"trial":48,"RT":491,"MT":579,"sideResp":2,"stimulus":[],"xmouse":[755,755,755,755,755,755,755,755,755,755,755,755,755,755,755,755,755,755,755,761,767,787,801,815,842,865,948,992,1041,1078,1115,1144,1181,1197,1204,1213,1225,1231,1234,1234,1234,1234,1234,1234,1234,1234,1232,1228,1222,1209,1197,1173,1162,1149],"ymouse":[627,627,627,627,627,627,627,627,627,627,627,627,627,627,627,627,627,627,627,625,623,611,599,586,563,542,462,413,359,307,246,188,63,0,0,0,0,0,0,0,0,0,0,0,0,0,0,3,6,12,18,33,41,50],"timestamp_mouse":[11,30,50,70,90,110,130,150,170,191,211,231,251,271,291,311,331,351,371,391,412,431,451,471,491,511,531,551,571,591,612,630,650,670,690,711,730,750,770,790,810,830,850,870,890,910,931,951,971,990,1010,1030,1051,1070],"xSR":741.5,"ySR":573.95,"xT1":424.9,"yT1":0,"xT2":1058.1,"yT2":0,"toosoon":0,"cond_shown":"Congruent","ratio_trial":300,"L_num":1,"L_den":5,"R_num":11,"R_den":22,"correct_side":2,"subjID":"mariacamilaromerovasquez9","gender":"1","school":"4","age":"9"},{"start_time":1552054243005,"click_time":1552054253777,"finger_time":1552054247118,"fix_duration":586.7782588242673,"trial":49,"RT":4113,"MT":6659,"sideResp":2,"stimulus":[],"xmouse":[793,793,793,793,793,793,793,793,793,793,793,793,793,793,793,793,793,793,793,793,793,793,793,793,793,793,793,793,793,793,793,793,793,793,793,793,793,793,793,793,793,793,793,793,793,793,793,793,793,793,793,793,793,793,793,793,793,793,793,793,793,793,793,793,798,801,802,804,805,806,806,806,806,806,806,806,806,806,806,806,806,806,806,806,806,806,806,806,806,806,806,806,806,806,806,806,806,806,806,806,806,806,806,806,806,806,806,806,806,806,806,806,806,806,806,806,806,806,806,806,806,806,806,806,806,806,806,806,806,806,806,806,806,806,806,806,806,806,806,806,806,806,806,806,806,806,806,806,806,806,806,806,806,806,806,806,806,806,806,806,806,806,806,806,806,806,806,806,806,806,806,806,806,806,806,806,806,806,806,806,806,806,806,806,806,806,806,806,806,806,806,806,806,806,806,806,806,809,812,815,818,821,824,828,828,825,817,812,810,810,810,810,810,808,786,766,738,715,685,642,630,621,615,614,614,614,614,614,613,608,606,602,596,592,589,589,589,589,589,589,589,589,589,589,589,589,589,589,589,589,589,589,589,589,589,589,589,589,589,588,588,586,585,583,581,581,581,581,580,579,578,577,576,572,568,566,564,562,561,558,558,558,558,558,558,558,558,558,558,558,558,558,558,558,558,558,558,558,558,558,558,558,558,558,557,550,548,545,544,542,542,542,542,542,542,542,542,542,542,542,542,542,542,542,542,542,542,542,542,547,548,549,549,549,549,549,549,549,549,549,549,549,549,549,550,550,550,550,550,550,550,550,550,550,550,549,549,548,547,546,546,546,546,546,545,545,545,545,545,545,545,545,545,545,545,544,544,544,544,542,542,541,541,541,541,541,540,540,539,538,537,536,534,533,530,530,530,530,530,530,530,530,530,530,530,530,530,530,530,530,530,530,530,530,531,531,531,531,531,531,531,531,531,531,531,531,531,531,532,532,532,532,532,532,532,532,532,532,532,532,532,532,532,532,532,532,532,532,532,532,532,532,532,534,538,539,540,541,543,547,549,551,553,558,563,568,570,574,577,585,589,594,606,614,629,635,641,646,652,658,670,674,678,687,697,702,707,713,719,733,739,747,758,765,780,790,805,826,854,895,917,936,955,963,975,978,981,983,985,986,986,986,986,986,986,986,986,986,986,987,996,1009,1024,1043,1052,1052,1052,1052,1052,1052,1052,1052,1052,1052,1052,1052,1052,1054,1059],"ymouse":[660,660,660,660,660,660,660,660,660,660,660,660,660,660,660,660,660,660,660,660,660,660,660,660,660,660,660,660,660,660,660,660,660,660,660,660,660,660,660,660,660,660,660,660,660,660,660,660,660,660,660,660,660,660,660,660,660,660,660,660,661,661,661,661,656,652,649,645,642,641,641,641,641,641,641,641,641,641,641,641,641,641,641,641,641,641,641,641,641,641,641,641,641,641,641,641,641,641,641,641,641,641,641,641,641,641,641,641,641,641,641,641,641,641,641,641,641,641,641,641,641,641,641,641,641,641,641,641,641,641,641,641,641,641,641,641,641,641,641,641,641,641,641,641,641,641,641,641,641,641,641,641,641,641,641,641,641,641,641,641,641,641,641,641,641,641,641,641,641,641,641,641,641,641,641,641,641,641,641,641,641,641,641,641,641,641,641,641,641,641,641,641,641,641,641,641,641,637,635,632,629,622,612,596,575,563,552,547,544,543,543,543,542,536,506,483,450,426,391,329,303,284,268,262,260,260,260,260,259,253,249,240,228,224,218,217,217,217,217,217,217,217,217,217,217,217,217,217,217,217,217,217,217,217,217,217,217,217,217,215,212,208,204,199,196,196,196,196,196,196,196,196,195,194,192,191,188,186,184,181,181,181,181,181,181,181,181,181,181,181,181,181,181,181,181,181,181,181,181,181,181,181,181,181,180,174,171,169,167,166,166,166,166,166,166,166,166,166,166,166,166,166,166,166,166,166,166,166,165,159,157,156,156,155,155,155,155,155,155,155,155,155,155,155,151,149,148,148,148,148,148,148,146,145,142,139,137,134,130,120,112,103,94,90,89,89,89,89,89,88,88,87,87,86,84,83,83,83,82,79,79,78,78,78,78,78,76,74,72,67,62,59,53,48,41,41,40,40,40,40,40,40,40,40,40,40,40,40,40,40,40,40,40,40,36,36,35,35,35,35,35,35,33,33,31,30,29,25,21,11,6,2,0,0,0,0,0,0,0,0,0,0,0,0,0,0,0,0,0,0,0,0,0,0,2,2,3,3,4,5,6,6,7,8,9,10,10,10,11,13,14,14,16,16,19,20,20,21,22,23,25,26,26,27,29,30,30,31,32,34,34,35,37,38,38,38,36,31,20,4,0,0,0,0,0,0,0,0,0,0,0,0,0,0,0,0,0,0,0,0,1,3,5,11,13,13,13,13,13,13,13,13,13,13,13,13,13,13,13],"timestamp_mouse":[14,33,53,73,93,113,133,153,173,193,213,233,253,273,293,313,334,353,373,393,414,433,452,472,492,512,532,552,572,592,612,633,652,672,692,712,732,752,772,792,812,832,852,872,892,912,932,952,972,992,1012,1032,1052,1073,1093,1113,1133,1153,1173,1193,1213,1233,1253,1273,1293,1313,1333,1354,1374,1393,1413,1433,1452,1472,1492,1512,1532,1552,1572,1592,1612,1632,1652,1672,1692,1712,1732,1752,1772,1792,1812,1832,1852,1872,1892,1912,1932,1953,1972,1993,2012,2032,2052,2072,2092,2112,2132,2152,2172,2192,2212,2232,2252,2272,2292,2312,2332,2352,2372,2392,2413,2432,2452,2472,2492,2512,2533,2553,2573,2593,2613,2632,2652,2672,2692,2712,2732,2752,2772,2792,2812,2832,2852,2873,2892,2913,2932,2952,2972,2992,3012,3032,3052,3072,3092,3113,3132,3153,3172,3193,3212,3233,3252,3272,3292,3312,3332,3352,3372,3392,3412,3432,3453,3472,3492,3512,3532,3552,3572,3592,3612,3632,3652,3673,3693,3713,3733,3754,3773,3794,3813,3833,3853,3872,3892,3912,3932,3952,3972,3992,4012,4032,4052,4072,4093,4113,4133,4153,4174,4194,4213,4233,4253,4273,4293,4313,4334,4353,4373,4393,4413,4433,4453,4473,4493,4513,4533,4552,4572,4592,4613,4632,4652,4672,4692,4712,4732,4752,4772,4792,4812,4832,4852,4873,4892,4912,4932,4952,4973,4992,5012,5032,5053,5072,5092,5113,5133,5152,5172,5192,5213,5232,5252,5272,5292,5313,5332,5353,5372,5393,5413,5432,5452,5472,5492,5513,5533,5553,5573,5593,5614,5633,5653,5673,5693,5713,5733,5754,5773,5793,5813,5833,5853,5873,5893,5913,5933,5954,5973,5993,6014,6033,6053,6073,6093,6113,6133,6153,6173,6193,6213,6233,6254,6273,6292,6312,6333,6352,6372,6393,6413,6433,6452,6472,6493,6512,6532,6552,6572,6592,6613,6632,6653,6672,6693,6712,6732,6752,6772,6792,6814,6833,6853,6873,6893,6913,6933,6953,6973,6993,7013,7033,7053,7073,7093,7113,7134,7153,7173,7193,7212,7233,7252,7272,7292,7312,7332,7352,7372,7393,7412,7432,7453,7472,7492,7513,7533,7553,7573,7593,7613,7634,7653,7673,7692,7713,7733,7752,7773,7792,7812,7833,7853,7872,7892,7913,7934,7952,7972,7992,8013,8033,8052,8073,8093,8113,8133,8152,8172,8192,8213,8233,8253,8272,8293,8313,8333,8353,8373,8393,8414,8433,8453,8473,8493,8513,8532,8552,8572,8593,8612,8633,8653,8673,8694,8713,8733,8753,8773,8792,8813,8833,8853,8873,8894,8913,8933,8953,8974,8993,9013,9033,9053,9072,9092,9113,9132,9152,9172,9192,9213,9232,9252,9272,9293,9313,9332,9352,9372,9393,9413,9433,9453,9474,9492,9513,9533,9554,9574,9592,9612,9633,9652,9672,9692,9713,9733,9754,9774,9792,9814,9834,9853,9874,9892,9913,9933,9953,9974,9992,10014,10033,10053,10073,10092,10113,10132,10152,10174,10193,10212,10232,10252,10272,10293,10312,10333,10352,10372,10392,10413,10432,10452,10472,10492,10513,10532,10553,10572,10593,10612,10632,10652,10672,10693,10713,10732,10752,10772],"xSR":741.5,"ySR":573.95,"xT1":424.9,"yT1":0,"xT2":1058.1,"yT2":0,"toosoon":0,"cond_shown":"Congruent","ratio_trial":100,"L_num":10,"L_den":25,"R_num":3,"R_den":10,"correct_side":1,"subjID":"mariacamilaromerovasquez9","gender":"1","school":"4","age":"9"},{"start_time":1552054269715,"click_time":1552054273958,"finger_time":1552054273738,"fix_duration":497.5001404645731,"trial":50,"RT":4023,"MT":220,"sideResp":1,"stimulus":[],"xmouse":[811,811,811,811,811,811,811,811,811,811,811,811,811,811,811,811,811,811,811,811,811,811,811,811,811,811,811,811,811,811,811,811,811,811,811,811,811,811,811,811,811,811,811,811,811,811,811,811,811,811,811,811,811,811,811,811,811,811,811,811,811,811,811,811,811,811,811,811,811,811,811,811,811,811,811,811,811,811,811,811,811,811,811,811,811,811,811,811,811,811,811,811,811,811,811,811,811,811,811,811,811,811,811,811,811,811,811,811,811,811,811,811,811,811,811,811,811,811,811,811,811,811,811,811,811,811,811,811,811,811,811,811,811,811,811,811,811,811,811,811,811,811,811,811,811,811,811,811,811,811,811,811,811,811,811,811,811,811,811,811,811,811,811,811,811,811,811,811,811,811,811,811,811,811,811,811,811,811,811,811,811,811,811,811,811,811,811,811,811,811,811,811,811,811,811,811,811,811,811,811,807,787,753,708,604,552,506,471,468,448,443,437,433],"ymouse":[596,596,596,596,596,596,596,596,596,596,596,596,596,596,596,596,596,596,596,596,596,596,596,596,596,596,596,596,596,596,596,596,596,596,596,596,596,596,596,596,596,596,596,596,596,596,596,596,596,596,596,596,596,596,596,596,596,596,596,596,596,596,596,596,596,596,596,596,596,596,596,596,596,596,596,596,596,596,596,596,596,596,596,596,596,596,596,596,596,596,596,596,596,596,596,596,596,596,596,596,596,596,596,596,596,596,596,596,596,596,596,596,596,596,596,596,596,596,596,596,596,596,596,596,596,596,596,596,596,596,596,596,596,596,596,596,596,596,596,596,596,596,596,596,596,596,596,596,596,596,596,596,596,596,596,596,596,596,596,596,596,596,596,596,596,596,596,596,596,596,596,596,596,596,596,596,596,596,596,596,596,596,596,596,596,596,596,596,596,596,596,596,596,596,596,596,596,596,596,596,593,569,532,479,339,272,204,152,148,119,111,102,98],"timestamp_mouse":[4,22,43,63,84,103,123,143,163,183,203,223,243,263,283,303,323,343,364,383,403,423,443,463,482,503,522,542,562,582,602,622,642,662,682,702,722,742,762,782,803,822,842,862,882,902,922,942,962,982,1003,1023,1043,1063,1083,1103,1123,1143,1163,1183,1203,1223,1243,1263,1283,1303,1322,1342,1362,1382,1402,1422,1442,1462,1482,1502,1522,1542,1562,1582,1602,1622,1642,1662,1682,1702,1722,1742,1762,1782,1802,1822,1842,1862,1882,1903,1922,1942,1963,1983,2004,2023,2043,2064,2083,2103,2123,2143,2163,2183,2204,2223,2244,2263,2283,2304,2323,2343,2363,2384,2403,2423,2443,2463,2483,2503,2523,2543,2563,2583,2603,2623,2643,2662,2682,2702,2722,2742,2762,2782,2802,2822,2842,2862,2882,2902,2922,2942,2962,2982,3003,3022,3043,3062,3082,3102,3122,3142,3162,3182,3202,3222,3242,3262,3282,3302,3322,3342,3362,3382,3402,3422,3443,3462,3482,3503,3522,3542,3562,3582,3602,3623,3643,3663,3683,3703,3723,3743,3763,3783,3804,3823,3843,3863,3883,3903,3923,3944,3963,3983,4003,4023,4043,4063,4083,4103,4122,4142,4163,4183,4203,4223,4243],"xSR":741.5,"ySR":573.95,"xT1":424.9,"yT1":0,"xT2":1058.1,"yT2":0,"toosoon":0,"cond_shown":"Incongruent","ratio_trial":200,"L_num":7,"L_den":15,"R_num":6,"R_den":9,"correct_side":2,"subjID":"mariacamilaromerovasquez9","gender":"1","school":"4","age":"9"},{"start_time":1552054279169,"click_time":1552054282817,"finger_time":1552054282438,"fix_duration":571.5700733230921,"trial":51,"RT":3269,"MT":379,"sideResp":1,"stimulus":[],"xmouse":[760,760,760,760,760,760,760,760,760,760,760,760,760,760,760,760,760,760,760,760,760,760,760,760,760,760,760,761,762,763,764,764,764,764,764,764,764,764,764,764,764,764,764,764,764,764,764,764,764,764,764,764,764,764,764,764,764,764,764,764,764,764,764,764,765,765,765,765,765,765,765,765,765,765,765,765,765,765,765,765,765,764,762,761,761,760,760,760,760,760,760,760,757,756,756,756,756,756,756,756,756,756,754,753,752,752,751,751,751,751,751,751,751,751,751,751,751,751,751,751,751,751,751,751,751,751,751,751,751,751,751,751,751,751,751,751,751,751,751,751,751,751,751,751,751,751,751,751,751,751,751,751,751,751,751,751,751,751,751,751,751,751,748,741,732,717,695,685,675,665,654,631,617,606,593,573,554,542,529,511,485,441,426],"ymouse":[620,620,620,620,620,620,620,620,620,620,620,620,620,620,620,620,620,620,620,620,620,620,620,620,620,620,620,621,621,622,622,622,622,622,622,622,622,622,622,622,622,622,622,622,622,622,622,622,622,622,622,622,622,622,622,622,622,622,622,622,622,622,622,622,622,622,622,622,622,622,622,622,622,622,623,623,623,623,623,623,623,626,628,630,631,632,632,632,632,632,632,632,636,637,638,638,638,638,638,638,638,638,642,643,644,646,647,647,647,647,647,647,647,647,647,647,647,647,647,647,647,647,647,647,647,647,647,647,647,647,647,647,647,647,647,647,647,647,647,647,647,647,647,647,647,647,647,647,647,647,647,647,647,647,647,647,647,647,647,647,647,647,638,621,604,577,538,519,503,489,471,432,413,396,381,358,337,320,303,273,231,133,99],"timestamp_mouse":[8,29,48,68,88,108,128,148,168,188,208,228,248,268,288,308,328,348,370,389,409,429,448,468,488,508,528,549,568,588,608,628,648,668,688,708,728,748,769,788,808,829,849,869,889,909,929,949,969,989,1009,1030,1049,1069,1089,1109,1129,1149,1169,1189,1209,1229,1249,1269,1289,1309,1328,1348,1368,1388,1408,1428,1448,1468,1488,1508,1528,1548,1568,1588,1608,1629,1648,1669,1688,1709,1729,1749,1769,1789,1809,1830,1848,1868,1888,1908,1928,1948,1968,1988,2008,2028,2048,2068,2088,2108,2128,2149,2168,2189,2208,2228,2248,2269,2288,2308,2329,2348,2368,2389,2408,2428,2448,2468,2488,2508,2528,2548,2568,2588,2608,2628,2648,2668,2688,2708,2728,2748,2769,2789,2809,2829,2849,2870,2890,2909,2929,2949,2969,2989,3009,3029,3049,3069,3089,3109,3129,3149,3169,3189,3209,3229,3249,3269,3288,3309,3328,3349,3368,3388,3408,3428,3449,3468,3488,3508,3528,3549,3570,3590,3609,3629,3648],"xSR":741.5,"ySR":573.95,"xT1":424.9,"yT1":0,"xT2":1058.1,"yT2":0,"toosoon":0,"cond_shown":"Incongruent","ratio_trial":300,"L_num":4,"L_den":5,"R_num":8,"R_den":16,"correct_side":1,"subjID":"mariacamilaromerovasquez9","gender":"1","school":"4","age":"9"},{"start_time":1552054285002,"click_time":1552054287597,"finger_time":1552054286877,"fix_duration":583.8336992740533,"trial":52,"RT":1875,"MT":720,"sideResp":2,"stimulus":[],"xmouse":[765,765,765,765,765,765,766,766,766,766,766,766,767,767,767,767,767,767,767,767,767,767,767,767,767,767,767,767,767,767,767,767,767,767,767,767,767,767,767,767,767,767,767,767,767,767,767,767,767,767,767,767,767,767,767,767,767,767,767,767,767,767,767,767,767,767,767,767,767,767,767,767,767,767,767,767,767,767,767,767,767,767,769,770,773,776,778,780,784,798,808,819,839,851,875,882,890,897,904,916,923,930,940,947,962,968,975,980,987,1005,1014,1024,1041,1052,1073,1081,1087,1093,1098,1110,1116,1119,1121,1122,1125,1125,1126,1128,1129,1129],"ymouse":[611,611,611,611,611,611,611,612,612,612,612,612,612,612,612,612,612,612,612,612,612,612,612,612,612,612,612,612,612,612,612,612,612,612,612,612,612,612,612,612,612,612,612,612,612,612,612,612,612,612,612,612,612,612,612,612,612,612,612,612,612,612,612,612,612,612,612,612,612,612,612,612,612,612,612,612,612,612,612,612,612,612,614,614,615,616,617,617,617,617,615,611,601,594,577,572,567,561,555,542,532,520,504,492,466,455,441,428,412,374,352,330,298,280,250,237,224,211,198,171,159,152,145,142,131,124,117,110,104,95],"timestamp_mouse":[15,35,56,75,95,116,135,156,175,195,215,235,256,275,295,315,335,355,376,396,417,436,456,476,496,516,536,556,576,596,616,636,656,676,696,716,736,756,776,796,815,835,855,875,895,915,935,955,975,995,1015,1036,1055,1075,1095,1115,1135,1155,1175,1195,1215,1235,1255,1275,1295,1315,1335,1355,1375,1395,1415,1435,1455,1475,1495,1515,1535,1555,1575,1596,1615,1635,1655,1675,1695,1716,1735,1755,1775,1795,1815,1835,1855,1875,1895,1916,1936,1956,1977,1996,2017,2036,2056,2076,2096,2116,2136,2156,2176,2196,2216,2236,2256,2276,2297,2316,2335,2356,2376,2396,2416,2436,2456,2475,2495,2516,2535,2555,2575,2595],"xSR":741.5,"ySR":573.95,"xT1":424.9,"yT1":0,"xT2":1058.1,"yT2":0,"toosoon":0,"cond_shown":"Congruent","ratio_trial":300,"L_num":8,"L_den":16,"R_num":1,"R_den":5,"correct_side":1,"subjID":"mariacamilaromerovasquez9","gender":"1","school":"4","age":"9"},{"start_time":1552054289740,"click_time":1552054291637,"finger_time":1552054290818,"fix_duration":561.8255769435038,"trial":53,"RT":1078,"MT":819,"sideResp":1,"stimulus":[],"xmouse":[797,797,797,797,797,797,797,797,797,797,797,797,797,797,797,797,797,797,797,797,797,797,797,797,797,797,797,798,799,799,799,799,799,799,799,799,799,799,799,799,799,799,799,799,799,799,799,799,799,800,801,801,800,798,795,793,793,793,793,793,793,793,793,793,793,793,788,774,763,750,737,725,708,700,694,685,673,647,632,616,601,586,556,546,536,526,510,494,489,487,486,486,486,486,486],"ymouse":[613,613,613,613,613,613,613,613,613,613,613,613,613,613,613,613,613,613,613,613,613,613,613,613,613,613,613,614,615,615,615,615,615,615,615,615,615,615,615,615,615,615,615,615,615,615,615,615,615,612,606,598,574,560,549,542,541,541,541,541,541,541,541,541,541,541,530,504,488,473,458,444,424,417,408,397,379,346,328,311,292,274,235,220,204,187,157,128,118,113,111,110,105,102,96],"timestamp_mouse":[19,38,57,77,97,117,137,158,177,197,218,237,258,278,298,318,339,357,377,398,419,438,458,478,498,517,538,559,578,597,617,638,657,678,698,718,738,758,778,798,818,838,858,878,898,918,938,958,978,999,1018,1038,1058,1078,1098,1118,1137,1158,1177,1197,1217,1237,1257,1278,1297,1317,1337,1358,1377,1397,1418,1437,1457,1478,1497,1517,1537,1557,1577,1597,1618,1637,1657,1677,1697,1717,1737,1757,1777,1797,1817,1837,1857,1878,1897],"xSR":741.5,"ySR":573.95,"xT1":424.9,"yT1":0,"xT2":1058.1,"yT2":0,"toosoon":0,"cond_shown":"Incongruent","ratio_trial":300,"L_num":4,"L_den":20,"R_num":2,"R_den":4,"correct_side":2,"subjID":"mariacamilaromerovasquez9","gender":"1","school":"4","age":"9"},{"start_time":1552054298221,"click_time":1552054301496,"finger_time":1552054300997,"fix_duration":504.3868061782949,"trial":54,"RT":2776,"MT":499,"sideResp":1,"stimulus":[],"xmouse":[781,781,781,781,783,784,785,785,786,786,786,786,786,786,786,786,786,786,786,786,786,786,786,786,786,786,786,786,786,786,786,786,786,786,786,786,786,786,786,786,786,786,786,786,786,786,786,786,786,786,786,786,786,786,786,786,786,786,786,786,786,786,786,782,778,775,772,769,768,767,767,767,767,767,767,767,767,767,767,767,767,767,767,767,767,767,767,767,767,767,767,767,767,767,767,767,767,767,767,767,767,767,767,767,767,767,767,767,767,767,767,767,767,767,767,767,767,767,767,767,767,767,767,767,767,767,767,767,767,767,767,767,767,767,767,766,761,748,720,712,706,700,693,687,683,682,680,679,673,668,661,647,634,596,581,568,561,558,551,546,536,532,525,520],"ymouse":[639,639,639,639,644,651,656,658,659,659,659,659,659,659,659,659,659,659,659,659,659,659,659,659,659,659,659,659,659,659,659,659,659,659,659,659,659,659,659,659,659,659,659,659,659,659,659,659,659,659,659,659,659,659,659,659,659,659,659,659,659,656,651,639,633,627,623,620,616,615,614,614,614,614,614,614,614,614,614,614,614,614,614,614,614,614,614,614,614,614,614,614,614,614,614,614,614,614,614,614,614,614,614,614,614,614,614,614,614,614,614,614,614,614,614,614,614,614,614,614,614,614,614,614,614,614,614,614,614,614,614,614,614,614,614,610,600,579,535,515,495,477,452,425,414,406,399,392,367,348,326,292,265,214,194,174,161,150,124,105,72,61,33,17],"timestamp_mouse":[17,37,56,76,96,116,136,156,176,196,216,237,256,276,296,316,336,356,376,396,416,436,456,476,496,516,537,556,576,597,616,636,656,676,696,716,736,756,775,795,815,835,855,875,895,916,936,955,975,995,1015,1036,1055,1075,1095,1115,1135,1156,1176,1196,1216,1236,1256,1277,1296,1316,1336,1357,1376,1396,1416,1435,1456,1475,1495,1515,1535,1557,1576,1596,1616,1636,1656,1676,1696,1716,1736,1756,1776,1796,1816,1837,1856,1876,1895,1916,1937,1956,1975,1995,2015,2036,2056,2075,2097,2115,2135,2156,2175,2195,2215,2235,2255,2275,2296,2316,2335,2356,2376,2396,2416,2437,2456,2475,2495,2517,2537,2556,2576,2596,2617,2635,2655,2676,2696,2716,2736,2756,2776,2797,2816,2835,2855,2876,2896,2915,2936,2956,2975,2996,3015,3035,3055,3076,3096,3115,3135,3155,3176,3196,3216,3235,3256,3275],"xSR":741.5,"ySR":573.95,"xT1":424.9,"yT1":0,"xT2":1058.1,"yT2":0,"toosoon":0,"cond_shown":"Congruent","ratio_trial":200,"L_num":5,"L_den":10,"R_num":14,"R_den":20,"correct_side":2,"subjID":"mariacamilaromerovasquez9","gender":"1","school":"4","age":"9"},{"start_time":1552054304685,"click_time":1552054305997,"finger_time":1552054305277,"fix_duration":1468.1448000216346,"trial":55,"RT":592,"MT":720,"sideResp":2,"stimulus":[],"xmouse":[798,798,798,798,798,798,798,798,798,798,798,798,798,798,798,798,798,798,798,798,798,798,798,798,798,800,809,818,827,842,870,877,890,906,921,953,965,973,978,981,991,995,1002,1007,1014,1025,1028,1033,1038,1038,1039,1039,1039,1039,1039,1039,1039,1039,1039,1039,1039,1039,1040,1047,1056,1072],"ymouse":[620,620,620,620,620,620,620,620,620,620,620,620,620,620,620,620,620,620,620,620,620,620,620,620,620,618,611,604,595,578,549,536,513,487,462,418,403,389,375,368,337,320,298,278,258,217,195,172,138,114,74,62,56,56,56,56,56,56,56,56,56,56,55,55,52,45],"timestamp_mouse":[15,32,52,73,92,112,132,152,172,192,212,232,252,271,291,311,331,351,371,391,411,431,451,471,491,511,531,553,572,592,613,632,652,672,692,712,732,752,772,793,812,832,852,872,892,912,933,952,972,992,1011,1032,1052,1072,1092,1112,1132,1152,1172,1192,1212,1232,1252,1272,1292,1312],"xSR":741.5,"ySR":573.95,"xT1":424.9,"yT1":0,"xT2":1058.1,"yT2":0,"toosoon":0,"cond_shown":"Congruent","ratio_trial":200,"L_num":11,"L_den":22,"R_num":3,"R_den":10,"correct_side":1,"subjID":"mariacamilaromerovasquez9","gender":"1","school":"4","age":"9"},{"start_time":1552054333033,"click_time":1552054335297,"finger_time":1552054334637,"fix_duration":295.4245159178146,"trial":56,"RT":1604,"MT":660,"sideResp":1,"stimulus":[],"xmouse":[790,790,790,790,790,790,790,790,790,790,790,790,790,789,788,786,785,784,784,784,784,784,784,784,784,784,784,784,784,784,784,784,784,784,784,784,784,784,784,784,784,784,784,784,784,784,784,784,784,784,784,784,784,784,784,784,784,784,784,784,784,784,784,784,784,784,784,784,784,784,784,784,784,784,784,784,784,783,766,753,738,721,697,682,678,676,674,672,659,649,637,626,607,585,576,564,553,544,528,523,519,515,510,500,498,492,488,484,475,469,464,460,451,438],"ymouse":[664,664,664,664,664,664,664,664,664,664,664,664,663,656,651,647,645,644,644,644,644,643,643,643,643,643,643,643,643,643,643,643,643,643,643,643,643,643,643,643,643,643,643,643,643,643,643,643,643,643,643,643,643,643,643,643,643,643,643,643,643,643,643,643,643,643,643,643,643,643,643,643,643,643,643,643,643,643,631,622,611,601,587,578,576,575,573,570,555,545,533,521,500,466,449,430,411,391,351,337,324,313,295,262,248,232,218,204,175,160,142,127,100,68],"timestamp_mouse":[5,24,44,64,84,104,124,144,164,184,204,224,244,263,284,304,324,344,364,384,405,424,443,463,483,503,523,543,565,585,604,624,645,664,684,705,724,744,764,784,804,824,844,864,884,904,924,944,964,984,1005,1024,1044,1064,1084,1104,1124,1144,1164,1184,1204,1224,1244,1264,1285,1305,1324,1345,1364,1385,1404,1424,1443,1465,1484,1505,1524,1545,1564,1585,1604,1624,1644,1664,1684,1703,1723,1743,1764,1785,1803,1823,1844,1863,1884,1904,1923,1944,1964,1985,2005,2024,2044,2064,2084,2104,2124,2145,2164,2184,2205,2224,2244,2263],"xSR":741.5,"ySR":573.95,"xT1":424.9,"yT1":0,"xT2":1058.1,"yT2":0,"toosoon":0,"cond_shown":"Incongruent","ratio_trial":200,"L_num":4,"L_den":30,"R_num":1,"R_den":3,"correct_side":2,"subjID":"mariacamilaromerovasquez9","gender":"1","school":"4","age":"9"},{"start_time":1552054338888,"click_time":1552054340396,"finger_time":1552054339517,"fix_duration":250,"trial":57,"RT":629,"MT":879,"sideResp":2,"stimulus":[],"xmouse":[795,795,795,795,795,795,795,795,795,795,795,795,795,795,795,795,795,795,795,795,795,795,795,795,795,795,795,797,797,795,794,794,797,804,812,831,834,834,834,834,837,837,838,842,845,852,856,864,872,888,903,909,914,918,922,924,925,925,928,930,940,946,949,956,963,983,993,997,998,998,1003,1009,1020,1032,1046,1090],"ymouse":[603,603,603,603,603,603,603,603,603,603,603,603,603,603,603,603,603,603,603,603,603,603,603,603,603,603,603,598,592,586,574,567,552,531,502,428,400,378,350,335,295,274,254,233,210,162,137,109,80,28,0,0,0,0,0,0,0,0,0,0,2,7,12,19,24,32,33,33,33,33,33,32,32,32,33,41],"timestamp_mouse":[13,29,49,69,89,109,129,149,169,189,209,229,249,270,289,309,329,350,369,389,409,429,449,469,489,509,529,549,569,589,609,629,649,669,689,708,729,749,769,789,809,829,849,869,889,909,928,948,968,988,1008,1029,1048,1068,1088,1109,1129,1149,1169,1190,1208,1229,1249,1269,1289,1308,1329,1349,1369,1389,1408,1429,1449,1469,1489,1508],"xSR":741.5,"ySR":573.95,"xT1":424.9,"yT1":0,"xT2":1058.1,"yT2":0,"toosoon":0,"cond_shown":"Congruent","ratio_trial":200,"L_num":6,"L_den":15,"R_num":3,"R_den":15,"correct_side":1,"subjID":"mariacamilaromerovasquez9","gender":"1","school":"4","age":"9"},{"start_time":1552054342868,"click_time":1552054344758,"finger_time":1552054343557,"fix_duration":250,"trial":58,"RT":689,"MT":1201,"sideResp":1,"stimulus":[],"xmouse":[796,796,796,796,796,796,796,796,796,796,796,796,796,796,796,796,796,796,796,796,796,796,796,796,796,794,783,776,773,769,765,761,760,759,757,754,744,738,730,715,686,630,595,560,520,488,403,348,303,257,239,216,210,204,201,200,200,200,200,200,200,206,216,230,249,265,279,280,282,284,285,287,289,292,298,30