[{"start_time":1552308892866,"click_time":1552308895798,"finger_time":1552308894497,"fix_duration":945.3602792987114,"trial":0,"RT":1631,"MT":1301,"sideResp":1,"stimulus":"img/900/randomdotsizeEA/L/1_Ratio_900_L_10_R_9.png","xmouse":[805,805,805,805,805,805,805,805,805,805,805,805,805,805,805,805,805,805,805,805,805,805,805,805,805,805,805,805,805,805,805,805,805,805,805,805,805,805,805,805,805,805,805,805,805,805,805,805,805,805,805,805,805,805,805,805,805,805,805,805,805,805,805,805,805,805,805,805,805,805,805,805,805,805,805,805,805,805,805,820,832,834,834,834,834,830,821,807,768,738,721,710,702,690,685,678,674,670,666,663,662,660,658,655,648,644,638,630,609,591,579,569,558,542,533,527,523,520,510,499,488,482,477,473,473,473,473,473,473,473,473,473,473,473,473,473,473,473,473,473,473,473,473,473,473,476,479],"ymouse":[554,554,554,554,554,554,554,554,554,554,554,554,554,554,554,554,554,554,554,554,554,554,554,554,554,554,554,554,554,554,554,554,554,554,554,554,554,554,554,554,554,554,554,554,554,554,554,554,554,554,554,554,554,554,554,554,554,554,554,554,554,554,554,554,554,554,554,554,554,554,554,554,554,554,554,554,554,554,554,520,474,456,445,426,420,414,408,399,374,358,346,339,330,312,303,293,283,273,263,241,236,230,228,225,221,219,216,212,198,188,183,180,176,169,166,165,162,162,153,137,123,117,113,108,108,108,108,108,108,108,108,108,108,108,108,108,108,108,108,108,108,108,108,108,106,103,96],"timestamp_mouse":[11,48,50,72,92,111,132,151,172,192,212,231,252,272,291,311,331,351,371,392,412,431,452,470,491,511,532,552,570,591,612,631,652,671,692,712,731,752,771,792,812,831,851,872,892,912,932,951,972,992,1011,1031,1052,1072,1091,1112,1132,1151,1172,1192,1210,1232,1252,1272,1292,1312,1332,1351,1370,1392,1412,1431,1451,1472,1490,1512,1532,1551,1571,1592,1611,1631,1651,1671,1691,1711,1731,1752,1771,1791,1810,1831,1851,1871,1891,1912,1932,1951,1971,1992,2011,2032,2051,2071,2091,2112,2131,2152,2171,2191,2211,2232,2251,2271,2292,2312,2332,2351,2371,2391,2410,2431,2451,2471,2491,2512,2531,2551,2572,2592,2612,2631,2651,2671,2692,2711,2731,2752,2771,2792,2812,2832,2851,2871,2892,2911,2931],"xSR":741.5,"ySR":501.8,"xT1":424.9,"yT1":0,"xT2":1058.1,"yT2":0,"toosoon":0,"cond_shown":"randomdotsizeEA","ratio_trial":900,"smaller_num":"9","larger_num":"10","correct_side":1,"subjID":"anaisabellamuñosrojas10","gender":"1","age":"9","school":"4","test":{"fix_dur":[250,1500],"timestim":300,"targets_dim":[100,100],"targets_relative_coord":[0.3,0.7],"size_stim":[880,420],"start_dim":[100,100],"size_start":[300,300],"size_fix":60,"samplingrate":20,"img_types":["equaldotsize","equaldotanddens","randomdotsizeEA"],"ratios":[250,500,750,900],"rep_conds":9,"nTrials":120,"trials_to_rest":500,"Trials_order":[71,46,114,66,86,50,25,61,18,28,97,89,85,113,70,98,49,31,7,51,3,76,79,118,41,103,57,81,75,19,94,14,69,119,115,77,73,59,23,96,60,106,33,35,104,54,11,30,105,110,44,45,64,13,5,116,82,108,58,53,6,34,12,68,26,92,8,2,10,55,74,43,52,107,17,62,112,48,84,40,72,21,36,47,83,20,37,1,27,91,9,16,111,63,22,100,24,87,101,95,109,39,65,0,93,102,42,38,99,67,90,80,117,15,32,88,56,78,29,4],"cond_shown":["randomdotsizeEA","equaldotanddens","equaldotsize","equaldotsize","randomdotsizeEA","randomdotsizeEA","equaldotanddens","equaldotanddens","equaldotsize","equaldotanddens","equaldotanddens","randomdotsizeEA","equaldotanddens","randomdotsizeEA","equaldotanddens","randomdotsizeEA","equaldotanddens","equaldotanddens","equaldotanddens","equaldotsize","equaldotsize","equaldotanddens","equaldotanddens","equaldotanddens","randomdotsizeEA","equaldotanddens","equaldotsize","equaldotsize","equaldotsize","equaldotanddens","equaldotanddens","randomdotsizeEA","equaldotsize","randomdotsizeEA","equaldotanddens","randomdotsizeEA","equaldotanddens","randomdotsizeEA","randomdotsizeEA","equaldotsize","equaldotsize","equaldotanddens","equaldotsize","randomdotsizeEA","randomdotsizeEA","equaldotsize","randomdotsizeEA","equaldotsize","equaldotsize","randomdotsizeEA","randomdotsizeEA","equaldotsize","equaldotanddens","equaldotanddens","randomdotsizeEA","randomdotsizeEA","equaldotanddens","equaldotsize","equaldotanddens","randomdotsizeEA","equaldotsize","equaldotanddens","equaldotsize","randomdotsizeEA","randomdotsizeEA","randomdotsizeEA","randomdotsizeEA","randomdotsizeEA","equaldotanddens","equaldotanddens","randomdotsizeEA","equaldotanddens","equaldotanddens","randomdotsizeEA","randomdotsizeEA","randomdotsizeEA","equaldotanddens","equaldotsize","equaldotsize","equaldotanddens","equaldotsize","equaldotsize","equaldotsize","randomdotsizeEA","randomdotsizeEA","randomdotsizeEA","equaldotanddens","equaldotanddens","equaldotsize","equaldotanddens","equaldotsize","equaldotanddens","equaldotsize","equaldotsize","equaldotanddens","equaldotanddens","equaldotsize","equaldotsize","randomdotsizeEA","randomdotsizeEA","equaldotanddens","equaldotsize","randomdotsizeEA","equaldotsize","equaldotsize","equaldotsize","equaldotsize","randomdotsizeEA","equaldotsize","equaldotanddens","equaldotsize","randomdotsizeEA","equaldotsize","equaldotsize","randomdotsizeEA","equaldotanddens","randomdotsizeEA","equaldotsize","randomdotsizeEA","equaldotanddens"],"ratio_trial":[900,900,750,750,250,250,250,250,750,500,250,500,250,500,900,250,250,750,750,500,500,500,750,900,500,750,900,900,500,750,900,250,900,900,750,500,250,900,900,250,250,900,900,900,750,750,900,750,900,250,750,900,500,250,500,750,900,250,900,500,750,900,250,750,250,750,750,250,900,750,250,750,500,900,500,250,500,250,250,500,250,900,250,900,900,750,250,250,500,750,900,500,500,500,900,500,250,500,500,900,250,500,500,250,900,750,750,250,500,750,750,750,900,500,750,500,750,750,500,500],"smaller_num":["9","18","3","15","5","3","3","1","6","5","2","2","3","2","18","2","6","6","18","5","2","3","9","18","9","9","9","18","4","6","9","2","18","9","15","2","4","9","18","3","2","18","9","9","9","15","18","3","18","5","3","18","1","4","9","3","18","1","9","6","6","18","4","15","2","9","3","1","18","15","4","3","5","18","5","2","2","3","5","4","3","18","2","18","18","9","3","2","6","12","18","5","1","1","18","9","1","1","5","9","2","2","2","3","18","3","6","5","10","3","9","12","18","5","3","2","15","6","6","10"],"larger_num":["10","20","4","20","20","12","12","4","8","10","8","4","12","4","20","8","24","8","24","10","4","6","12","20","18","12","10","20","8","8","10","8","20","10","20","4","16","10","20","12","8","20","10","10","12","20","20","4","20","20","4","20","2","16","18","4","20","4","10","12","8","20","16","20","8","12","4","4","20","20","16","4","10","20","10","8","4","12","20","8","12","20","8","20","20","12","12","8","12","16","20","10","2","2","20","18","4","2","10","10","8","4","4","12","20","4","8","20","20","4","12","16","20","10","4","4","20","8","12","20"],"correct_side":[1,1,1,2,2,1,1,2,1,1,1,1,2,2,1,1,2,2,1,1,1,2,2,2,2,2,1,1,1,1,2,1,2,2,2,1,1,2,1,2,1,1,2,2,2,2,2,2,1,2,2,1,2,1,2,1,1,2,2,1,2,2,1,2,2,2,1,2,2,1,1,1,1,1,2,1,1,1,2,1,1,1,2,2,2,2,2,1,1,2,2,2,2,2,1,1,2,2,2,2,1,1,1,1,1,1,1,2,2,2,2,2,2,2,1,1,2,1,1,2],"img_shown":["img/900/randomdotsizeEA/L/1_Ratio_900_L_10_R_9.png","img/900/equaldotanddens/L/2_Ratio_900_L_20_R_18.png","img/750/equaldotsize/L/8_Ratio_750_L_4_R_3.png","img/750/equaldotsize/R/5_Ratio_750_L_15_R_20.png","img/250/randomdotsizeEA/R/12_Ratio_250_L_5_R_20.png","img/250/randomdotsizeEA/L/14_Ratio_250_L_12_R_3.png","img/250/equaldotanddens/L/14_Ratio_250_L_12_R_3.png","img/250/equaldotanddens/R/8_Ratio_250_L_1_R_4.png","img/750/equaldotsize/L/13_Ratio_750_L_8_R_6.png","img/500/equaldotanddens/L/7_Ratio_500_L_10_R_5.png","img/250/equaldotanddens/L/3_Ratio_250_L_8_R_2.png","img/500/randomdotsizeEA/L/5_Ratio_500_L_4_R_2.png","img/250/equaldotanddens/R/11_Ratio_250_L_3_R_12.png","img/500/randomdotsizeEA/R/9_Ratio_500_L_2_R_4.png","img/900/equaldotanddens/L/10_Ratio_900_L_20_R_18.png","img/250/randomdotsizeEA/L/7_Ratio_250_L_8_R_2.png","img/250/equaldotanddens/R/6_Ratio_250_L_6_R_24.png","img/750/equaldotanddens/R/2_Ratio_750_L_6_R_8.png","img/750/equaldotanddens/L/6_Ratio_750_L_24_R_18.png","img/500/equaldotsize/L/7_Ratio_500_L_10_R_5.png","img/500/equaldotsize/L/10_Ratio_500_L_4_R_2.png","img/500/equaldotanddens/R/2_Ratio_500_L_3_R_6.png","img/750/equaldotanddens/R/15_Ratio_750_L_9_R_12.png","img/900/equaldotanddens/R/11_Ratio_900_L_18_R_20.png","img/500/randomdotsizeEA/R/6_Ratio_500_L_9_R_18.png","img/750/equaldotanddens/R/15_Ratio_750_L_9_R_12.png","img/900/equaldotsize/L/1_Ratio_900_L_10_R_9.png","img/900/equaldotsize/L/2_Ratio_900_L_20_R_18.png","img/500/equaldotsize/L/8_Ratio_500_L_8_R_4.png","img/750/equaldotanddens/L/14_Ratio_750_L_8_R_6.png","img/900/equaldotanddens/R/7_Ratio_900_L_9_R_10.png","img/250/randomdotsizeEA/L/3_Ratio_250_L_8_R_2.png","img/900/equaldotsize/R/9_Ratio_900_L_18_R_20.png","img/900/randomdotsizeEA/R/6_Ratio_900_L_9_R_10.png","img/750/equaldotanddens/R/4_Ratio_750_L_15_R_20.png","img/500/randomdotsizeEA/L/10_Ratio_500_L_4_R_2.png","img/250/equaldotanddens/L/2_Ratio_250_L_16_R_4.png","img/900/randomdotsizeEA/R/15_Ratio_900_L_9_R_10.png","img/900/randomdotsizeEA/L/8_Ratio_900_L_20_R_18.png","img/250/equaldotsize/R/9_Ratio_250_L_3_R_12.png","img/250/equaldotsize/L/7_Ratio_250_L_8_R_2.png","img/900/equaldotanddens/L/2_Ratio_900_L_20_R_18.png","img/900/equaldotsize/R/3_Ratio_900_L_9_R_10.png","img/900/randomdotsizeEA/R/15_Ratio_900_L_9_R_10.png","img/750/randomdotsizeEA/R/15_Ratio_750_L_9_R_12.png","img/750/equaldotsize/R/5_Ratio_750_L_15_R_20.png","img/900/randomdotsizeEA/R/14_Ratio_900_L_18_R_20.png","img/750/equaldotsize/R/7_Ratio_750_L_3_R_4.png","img/900/equaldotsize/L/2_Ratio_900_L_20_R_18.png","img/250/randomdotsizeEA/R/12_Ratio_250_L_5_R_20.png","img/750/randomdotsizeEA/R/7_Ratio_750_L_3_R_4.png","img/900/equaldotsize/L/2_Ratio_900_L_20_R_18.png","img/500/equaldotanddens/R/15_Ratio_500_L_1_R_2.png","img/250/equaldotanddens/L/2_Ratio_250_L_16_R_4.png","img/500/randomdotsizeEA/R/1_Ratio_500_L_9_R_18.png","img/750/randomdotsizeEA/L/9_Ratio_750_L_4_R_3.png","img/900/equaldotanddens/L/10_Ratio_900_L_20_R_18.png","img/250/equaldotsize/R/8_Ratio_250_L_1_R_4.png","img/900/equaldotanddens/R/15_Ratio_900_L_9_R_10.png","img/500/randomdotsizeEA/L/11_Ratio_500_L_12_R_6.png","img/750/equaldotsize/R/2_Ratio_750_L_6_R_8.png","img/900/equaldotanddens/R/13_Ratio_900_L_18_R_20.png","img/250/equaldotsize/L/2_Ratio_250_L_16_R_4.png","img/750/randomdotsizeEA/R/5_Ratio_750_L_15_R_20.png","img/250/randomdotsizeEA/R/13_Ratio_250_L_2_R_8.png","img/750/randomdotsizeEA/R/15_Ratio_750_L_9_R_12.png","img/750/randomdotsizeEA/L/10_Ratio_750_L_4_R_3.png","img/250/randomdotsizeEA/R/8_Ratio_250_L_1_R_4.png","img/900/equaldotanddens/R/14_Ratio_900_L_18_R_20.png","img/750/equaldotanddens/L/1_Ratio_750_L_20_R_15.png","img/250/randomdotsizeEA/L/2_Ratio_250_L_16_R_4.png","img/750/equaldotanddens/L/8_Ratio_750_L_4_R_3.png","img/500/equaldotanddens/L/7_Ratio_500_L_10_R_5.png","img/900/randomdotsizeEA/L/8_Ratio_900_L_20_R_18.png","img/500/randomdotsizeEA/R/14_Ratio_500_L_5_R_10.png","img/250/randomdotsizeEA/L/7_Ratio_250_L_8_R_2.png","img/500/equaldotanddens/L/5_Ratio_500_L_4_R_2.png","img/250/equaldotsize/L/14_Ratio_250_L_12_R_3.png","img/250/equaldotsize/R/12_Ratio_250_L_5_R_20.png","img/500/equaldotanddens/L/8_Ratio_500_L_8_R_4.png","img/250/equaldotsize/L/15_Ratio_250_L_12_R_3.png","img/900/equaldotsize/L/4_Ratio_900_L_20_R_18.png","img/250/equaldotsize/R/13_Ratio_250_L_2_R_8.png","img/900/randomdotsizeEA/R/9_Ratio_900_L_18_R_20.png","img/900/randomdotsizeEA/R/9_Ratio_900_L_18_R_20.png","img/750/randomdotsizeEA/R/15_Ratio_750_L_9_R_12.png","img/250/equaldotanddens/R/4_Ratio_250_L_3_R_12.png","img/250/equaldotanddens/L/3_Ratio_250_L_8_R_2.png","img/500/equaldotsize/L/13_Ratio_500_L_12_R_6.png","img/750/equaldotanddens/R/11_Ratio_750_L_12_R_16.png","img/900/equaldotsize/R/9_Ratio_900_L_18_R_20.png","img/500/equaldotanddens/R/14_Ratio_500_L_5_R_10.png","img/500/equaldotsize/R/12_Ratio_500_L_1_R_2.png","img/500/equaldotsize/R/15_Ratio_500_L_1_R_2.png","img/900/equaldotanddens/L/8_Ratio_900_L_20_R_18.png","img/500/equaldotanddens/L/4_Ratio_500_L_18_R_9.png","img/250/equaldotsize/R/8_Ratio_250_L_1_R_4.png","img/500/equaldotsize/R/15_Ratio_500_L_1_R_2.png","img/500/randomdotsizeEA/R/14_Ratio_500_L_5_R_10.png","img/900/randomdotsizeEA/R/15_Ratio_900_L_9_R_10.png","img/250/equaldotanddens/L/7_Ratio_250_L_8_R_2.png","img/500/equaldotsize/L/10_Ratio_500_L_4_R_2.png","img/500/randomdotsizeEA/L/5_Ratio_500_L_4_R_2.png","img/250/equaldotsize/L/15_Ratio_250_L_12_R_3.png","img/900/equaldotsize/L/2_Ratio_900_L_20_R_18.png","img/750/equaldotsize/L/9_Ratio_750_L_4_R_3.png","img/750/equaldotsize/L/14_Ratio_750_L_8_R_6.png","img/250/randomdotsizeEA/R/12_Ratio_250_L_5_R_20.png","img/500/equaldotsize/R/3_Ratio_500_L_10_R_20.png","img/750/equaldotanddens/R/7_Ratio_750_L_3_R_4.png","img/750/equaldotsize/R/15_Ratio_750_L_9_R_12.png","img/750/randomdotsizeEA/R/11_Ratio_750_L_12_R_16.png","img/900/equaldotsize/R/11_Ratio_900_L_18_R_20.png","img/500/equaldotsize/R/14_Ratio_500_L_5_R_10.png","img/750/randomdotsizeEA/L/9_Ratio_750_L_4_R_3.png","img/500/equaldotanddens/L/5_Ratio_500_L_4_R_2.png","img/750/randomdotsizeEA/R/5_Ratio_750_L_15_R_20.png","img/750/equaldotsize/L/13_Ratio_750_L_8_R_6.png","img/500/randomdotsizeEA/L/13_Ratio_500_L_12_R_6.png","img/500/equaldotanddens/R/3_Ratio_500_L_10_R_20.png"],"Rat0":[["12_Ratio_0_L_9_R_0.png","13_Ratio_0_L_6_R_0.png","5_Ratio_0_L_2_R_0.png","6_Ratio_0_L_4_R_0.png","8_Ratio_0_L_6_R_0.png"],["1_Ratio_0_L_0_R_17.png","10_Ratio_0_L_0_R_22.png","11_Ratio_0_L_0_R_1.png","14_Ratio_0_L_0_R_24.png","15_Ratio_0_L_0_R_4.png","2_Ratio_0_L_0_R_5.png","3_Ratio_0_L_0_R_17.png","4_Ratio_0_L_0_R_7.png","7_Ratio_0_L_0_R_19.png","9_Ratio_0_L_0_R_15.png"]],"Rat250":[["1_Ratio_250_L_8_R_2.png","14_Ratio_250_L_12_R_3.png","15_Ratio_250_L_12_R_3.png","2_Ratio_250_L_16_R_4.png","3_Ratio_250_L_8_R_2.png","5_Ratio_250_L_24_R_6.png","7_Ratio_250_L_8_R_2.png"],["10_Ratio_250_L_4_R_16.png","11_Ratio_250_L_3_R_12.png","12_Ratio_250_L_5_R_20.png","13_Ratio_250_L_2_R_8.png","4_Ratio_250_L_3_R_12.png","6_Ratio_250_L_6_R_24.png","8_Ratio_250_L_1_R_4.png","9_Ratio_250_L_3_R_12.png"]],"Rat500":[["10_Ratio_500_L_4_R_2.png","11_Ratio_500_L_12_R_6.png","13_Ratio_500_L_12_R_6.png","4_Ratio_500_L_18_R_9.png","5_Ratio_500_L_4_R_2.png","7_Ratio_500_L_10_R_5.png","8_Ratio_500_L_8_R_4.png"],["1_Ratio_500_L_9_R_18.png","12_Ratio_500_L_1_R_2.png","14_Ratio_500_L_5_R_10.png","15_Ratio_500_L_1_R_2.png","2_Ratio_500_L_3_R_6.png","3_Ratio_500_L_10_R_20.png","6_Ratio_500_L_9_R_18.png","9_Ratio_500_L_2_R_4.png"]],"Rat750":[["1_Ratio_750_L_20_R_15.png","10_Ratio_750_L_4_R_3.png","13_Ratio_750_L_8_R_6.png","14_Ratio_750_L_8_R_6.png","6_Ratio_750_L_24_R_18.png","8_Ratio_750_L_4_R_3.png","9_Ratio_750_L_4_R_3.png"],["11_Ratio_750_L_12_R_16.png","12_Ratio_750_L_3_R_4.png","15_Ratio_750_L_9_R_12.png","2_Ratio_750_L_6_R_8.png","3_Ratio_750_L_15_R_20.png","4_Ratio_750_L_15_R_20.png","5_Ratio_750_L_15_R_20.png","7_Ratio_750_L_3_R_4.png"]],"Rat900":[["1_Ratio_900_L_10_R_9.png","10_Ratio_900_L_20_R_18.png","2_Ratio_900_L_20_R_18.png","4_Ratio_900_L_20_R_18.png","8_Ratio_900_L_20_R_18.png"],["11_Ratio_900_L_18_R_20.png","12_Ratio_900_L_18_R_20.png","13_Ratio_900_L_18_R_20.png","14_Ratio_900_L_18_R_20.png","15_Ratio_900_L_9_R_10.png","3_Ratio_900_L_9_R_10.png","5_Ratio_900_L_9_R_10.png","6_Ratio_900_L_9_R_10.png","7_Ratio_900_L_9_R_10.png","9_Ratio_900_L_18_R_20.png"]],"Rat1000":[["10_Ratio_1000_L_16_R_16.png","11_Ratio_1000_L_6_R_6.png","12_Ratio_1000_L_14_R_14.png","13_Ratio_1000_L_20_R_20.png","15_Ratio_1000_L_15_R_15.png","2_Ratio_1000_L_17_R_17.png","4_Ratio_1000_L_9_R_9.png","5_Ratio_1000_L_6_R_6.png","6_Ratio_1000_L_19_R_19.png","8_Ratio_1000_L_14_R_14.png","9_Ratio_1000_L_25_R_25.png"],["1_Ratio_1000_L_1_R_1.png","14_Ratio_1000_L_17_R_17.png","3_Ratio_1000_L_17_R_17.png","7_Ratio_1000_L_6_R_6.png"]]}},{"start_time":1552308900393,"click_time":1552308902138,"finger_time":1552308901197,"fix_duration":752.8019210189436,"trial":1,"RT":804,"MT":941,"sideResp":2,"stimulus":"img/900/equaldotanddens/L/2_Ratio_900_L_20_R_18.png","xmouse":[778,778,778,778,778,778,778,778,778,778,778,778,778,778,778,778,778,778,778,778,778,778,778,778,778,778,778,778,778,778,778,778,778,778,778,778,779,783,797,803,821,850,879,906,908,908,908,908,908,908,908,908,909,910,911,915,920,927,951,973,986,996,1006,1022,1028,1032,1036,1039,1048,1052,1054,1056,1058,1061,1063,1064,1064,1065,1065,1065,1066,1066,1066,1068,1069,1069,1070,1070],"ymouse":[511,511,511,511,511,511,511,511,511,511,511,511,511,511,511,511,511,511,511,511,511,511,511,511,511,511,511,511,511,511,511,511,511,511,511,511,511,506,488,477,445,404,373,354,352,351,351,351,351,351,351,351,351,349,348,342,338,331,311,290,274,255,241,212,202,194,189,184,174,166,162,157,155,144,140,135,131,129,128,128,126,124,120,111,107,103,100,98],"timestamp_mouse":[9,25,59,64,85,105,124,145,165,184,205,225,245,264,284,304,324,345,364,385,405,425,444,465,484,505,525,545,565,584,604,625,644,665,684,704,724,744,763,784,804,825,845,864,884,903,924,945,964,984,1005,1025,1044,1064,1085,1104,1124,1144,1164,1184,1205,1225,1244,1264,1285,1304,1324,1344,1364,1384,1405,1424,1445,1464,1484,1505,1524,1544,1563,1585,1604,1625,1644,1664,1685,1705,1724,1745],"xSR":741.5,"ySR":469.95,"xT1":424.9,"yT1":0,"xT2":1058.1,"yT2":0,"toosoon":0,"cond_shown":"equaldotanddens","ratio_trial":900,"smaller_num":"18","larger_num":"20","correct_side":1,"subjID":"anaisabellamuñosrojas10","gender":"1","age":"9","school":"4"},{"start_time":1552308905928,"click_time":1552308907777,"finger_time":1552308907417,"fix_duration":829.3464117450964,"trial":2,"RT":1489,"MT":360,"sideResp":1,"stimulus":"img/750/equaldotsize/L/8_Ratio_750_L_4_R_3.png","xmouse":[758,758,758,758,758,758,758,758,758,758,758,758,758,758,758,758,758,758,758,758,758,758,758,758,758,758,758,758,758,758,758,758,758,758,758,758,758,758,758,758,758,758,758,758,758,758,758,758,758,758,758,758,758,758,758,764,767,770,770,770,770,770,770,770,770,770,770,770,770,770,770,769,761,753,744,734,693,664,628,600,580,550,548,546,544,540,529,526,523,522,521,520,519],"ymouse":[513,513,513,513,513,513,513,513,513,513,513,513,513,513,513,513,513,513,513,513,513,513,513,513,513,513,513,513,513,513,513,513,513,513,513,513,513,513,513,513,513,513,513,513,513,513,513,513,513,513,513,513,513,513,513,507,504,503,503,503,503,503,503,503,503,503,503,503,503,503,502,501,496,487,468,446,363,315,266,233,218,193,189,185,182,175,159,150,141,135,125,117,97],"timestamp_mouse":[10,30,58,69,90,109,129,149,170,190,209,230,250,269,290,310,329,349,370,390,410,429,450,469,489,510,530,551,570,590,609,630,650,669,689,709,730,750,769,789,810,830,850,870,889,909,929,950,970,990,1009,1029,1049,1070,1089,1109,1129,1150,1169,1190,1210,1229,1250,1269,1289,1310,1329,1349,1370,1390,1409,1429,1449,1469,1489,1509,1530,1549,1570,1589,1610,1630,1649,1669,1689,1709,1731,1749,1769,1789,1809,1830,1849],"xSR":741.5,"ySR":469.95,"xT1":424.9,"yT1":0,"xT2":1058.1,"yT2":0,"toosoon":0,"cond_shown":"equaldotsize","ratio_trial":750,"smaller_num":"3","larger_num":"4","correct_side":1,"subjID":"anaisabellamuñosrojas10","gender":"1","age":"9","school":"4"},{"start_time":1552308909603,"click_time":1552308911377,"finger_time":1552308910597,"fix_duration":944.184675726943,"trial":3,"RT":994,"MT":780,"sideResp":2,"stimulus":"img/750/equaldotsize/R/5_Ratio_750_L_15_R_20.png","xmouse":[789,789,789,789,789,789,789,789,789,789,789,789,789,789,789,789,789,789,789,789,789,789,789,789,789,789,789,789,789,789,789,789,789,789,789,789,789,789,789,789,789,789,789,789,789,789,789,789,789,804,832,859,878,887,891,893,899,907,934,947,955,958,958,959,970,986,1005,1020,1037,1037,1037,1038,1041,1045,1046,1046,1046,1046,1046,1046,1048,1049,1050,1053,1054,1054,1054,1054,1060],"ymouse":[490,490,490,490,490,490,490,490,490,490,490,490,490,490,490,490,490,490,490,490,490,490,490,490,490,490,490,490,490,490,490,490,490,490,490,490,490,490,490,490,490,490,490,490,490,490,490,490,490,449,377,305,247,207,187,174,155,133,74,52,42,38,38,38,38,39,41,41,42,42,42,42,43,43,43,43,43,43,43,43,43,43,43,43,43,44,44,44,54],"timestamp_mouse":[14,34,54,75,95,115,134,155,174,195,215,235,255,274,295,315,334,354,375,395,414,434,455,475,494,515,534,554,575,594,615,634,654,674,694,714,735,755,775,794,814,834,854,875,895,915,934,955,974,994,1014,1034,1054,1074,1094,1113,1135,1154,1175,1195,1214,1235,1254,1274,1294,1314,1335,1355,1374,1395,1414,1435,1455,1474,1494,1514,1535,1554,1574,1594,1615,1634,1654,1674,1694,1713,1734,1754,1774],"xSR":741.5,"ySR":469.95,"xT1":424.9,"yT1":0,"xT2":1058.1,"yT2":0,"toosoon":0,"cond_shown":"equaldotsize","ratio_trial":750,"smaller_num":"15","larger_num":"20","correct_side":2,"subjID":"anaisabellamuñosrojas10","gender":"1","age":"9","school":"4"},{"start_time":1552308912509,"click_time":1552308914378,"finger_time":1552308913498,"fix_duration":250,"trial":4,"RT":989,"MT":880,"sideResp":2,"stimulus":"img/250/randomdotsizeEA/R/12_Ratio_250_L_5_R_20.png","xmouse":[780,780,780,780,780,780,780,780,780,780,780,780,780,780,780,780,780,780,780,780,780,780,780,780,780,780,780,780,780,780,780,780,780,780,780,780,780,780,780,780,780,780,780,780,780,780,778,775,753,734,707,681,657,630,624,622,622,622,622,622,622,622,622,622,622,622,622,622,612,608,605,604,604,604,604,604,604,604,604,604,611,635,667,749,779,844,907,984,1032,1038,1039,1041,1053,1099],"ymouse":[526,526,526,526,526,526,527,527,527,527,527,527,527,527,527,527,527,527,527,527,527,527,527,527,527,527,527,527,527,527,527,527,527,527,527,527,527,527,527,527,527,527,527,527,527,527,526,521,476,439,388,346,312,276,269,267,267,267,267,267,267,267,267,267,267,267,266,266,246,240,236,236,236,236,236,236,236,236,236,236,230,216,202,166,153,127,105,89,81,81,80,78,69,54],"timestamp_mouse":[8,27,48,68,88,108,128,148,168,189,208,229,249,268,289,308,329,348,368,388,409,429,448,468,489,508,529,548,569,589,609,628,648,668,689,709,728,749,769,789,809,828,848,868,888,908,928,948,968,989,1008,1027,1048,1068,1089,1108,1128,1148,1168,1188,1208,1228,1248,1268,1289,1309,1328,1348,1368,1388,1407,1428,1449,1469,1488,1508,1529,1548,1568,1588,1607,1628,1649,1668,1687,1708,1729,1749,1769,1788,1809,1830,1847,1869],"xSR":741.5,"ySR":469.95,"xT1":424.9,"yT1":0,"xT2":1058.1,"yT2":0,"toosoon":0,"cond_shown":"randomdotsizeEA","ratio_trial":250,"smaller_num":"5","larger_num":"20","correct_side":2,"subjID":"anaisabellamuñosrojas10","gender":"1","age":"9","school":"4"},{"start_time":1552308915557,"click_time":1552308916497,"finger_time":1552308916417,"fix_duration":478.39270773041443,"trial":5,"RT":860,"MT":80,"sideResp":1,"stimulus":"img/250/randomdotsizeEA/L/14_Ratio_250_L_12_R_3.png","xmouse":[806,806,806,806,806,806,806,806,806,806,806,806,806,806,806,806,806,806,806,806,806,806,806,806,806,806,806,806,806,806,806,806,806,806,806,806,806,806,806,806,804,799,766,725,647,611,531,495],"ymouse":[549,549,549,549,549,549,549,549,549,549,549,549,549,549,549,549,549,549,549,549,549,549,549,549,549,549,549,549,549,549,549,549,549,549,549,549,549,549,549,549,547,537,472,393,254,205,112,80],"timestamp_mouse":[9,20,49,60,81,101,121,140,160,181,201,220,241,261,281,300,321,341,361,381,401,420,440,460,481,500,521,540,560,580,600,620,639,659,680,700,720,741,761,780,800,820,840,860,879,900,920,940],"xSR":741.5,"ySR":469.95,"xT1":424.9,"yT1":0,"xT2":1058.1,"yT2":0,"toosoon":0,"cond_shown":"randomdotsizeEA","ratio_trial":250,"smaller_num":"3","larger_num":"12","correct_side":1,"subjID":"anaisabellamuñosrojas10","gender":"1","age":"9","school":"4"},{"start_time":1552308918300,"click_time":1552308919317,"finger_time":1552308918937,"fix_duration":781.4540488684573,"trial":6,"RT":637,"MT":380,"sideResp":1,"stimulus":"img/250/equaldotanddens/L/14_Ratio_250_L_12_R_3.png","xmouse":[790,790,790,790,790,790,790,790,790,790,790,790,790,790,790,790,790,790,790,790,790,790,790,790,790,790,790,790,790,790,783,775,765,752,701,673,634,607,590,563,563,563,563,563,563,563,563,563,563,563,476],"ymouse":[524,517,516,515,515,515,515,515,515,515,515,515,515,515,515,515,515,515,515,515,515,515,515,515,515,515,515,515,515,503,480,458,434,405,289,224,143,98,58,10,10,10,10,10,10,10,10,10,10,10,6],"timestamp_mouse":[18,37,63,78,98,118,138,158,178,197,218,237,258,278,297,317,337,357,377,398,417,437,458,478,497,518,537,558,578,597,617,637,657,678,697,718,737,757,777,797,817,837,857,877,897,918,938,958,978,997,1017],"xSR":741.5,"ySR":469.95,"xT1":424.9,"yT1":0,"xT2":1058.1,"yT2":0,"toosoon":0,"cond_shown":"equaldotanddens","ratio_trial":250,"smaller_num":"3","larger_num":"12","correct_side":1,"subjID":"anaisabellamuñosrojas10","gender":"1","age":"9","school":"4"},{"start_time":1552308922791,"click_time":1552308923917,"finger_time":1552308923517,"fix_duration":1233.8232076748259,"trial":7,"RT":726,"MT":400,"sideResp":2,"stimulus":"img/250/equaldotanddens/R/8_Ratio_250_L_1_R_4.png","xmouse":[779,779,779,779,779,779,779,779,779,779,779,779,779,779,779,779,779,779,779,779,779,779,779,779,779,779,779,779,779,779,779,779,779,779,779,791,813,832,848,864,887,909,936,957,968,974,980,982,982,983,985,1010,1026,1032,1035,1049,1061],"ymouse":[527,527,527,527,527,527,527,527,527,527,527,527,527,527,527,527,527,527,527,527,527,527,527,527,527,527,527,527,527,527,527,527,527,527,526,498,453,405,367,334,297,265,231,204,187,175,148,142,141,140,138,118,110,108,106,93,82],"timestamp_mouse":[9,26,46,69,87,106,126,147,166,188,206,226,247,267,286,307,327,347,367,386,406,426,448,467,488,508,526,547,566,588,607,627,648,667,686,707,726,748,768,788,807,827,847,867,886,907,926,947,966,987,1006,1026,1046,1066,1087,1108,1126],"xSR":741.5,"ySR":469.95,"xT1":424.9,"yT1":0,"xT2":1058.1,"yT2":0,"toosoon":0,"cond_shown":"equaldotanddens","ratio_trial":250,"smaller_num":"1","larger_num":"4","correct_side":2,"subjID":"anaisabellamuñosrojas10","gender":"1","age":"9","school":"4"},{"start_time":1552308925905,"click_time":1552308926997,"finger_time":1552308926799,"fix_duration":1186.6089465079986,"trial":8,"RT":894,"MT":198,"sideResp":1,"stimulus":"img/750/equaldotsize/L/13_Ratio_750_L_8_R_6.png","xmouse":[774,774,774,774,774,774,774,774,774,774,774,774,774,774,774,774,774,774,774,774,774,774,774,774,774,774,774,774,774,774,774,774,774,774,774,774,774,774,774,774,774,774,772,760,696,656,618,589,568,555,534,526,520,520,519],"ymouse":[494,494,494,494,494,494,494,494,494,494,494,494,494,494,494,494,494,494,494,494,494,494,494,494,494,494,494,494,494,494,494,494,494,494,494,494,494,494,494,494,494,494,494,474,369,314,267,225,195,173,138,124,109,102,96],"timestamp_mouse":[12,42,52,74,93,112,132,152,174,193,214,233,253,273,293,313,333,353,372,393,412,433,453,474,492,514,534,552,573,593,612,632,654,673,692,713,732,752,773,794,814,832,852,874,894,912,932,952,972,993,1013,1033,1052,1072,1092],"xSR":741.5,"ySR":469.95,"xT1":424.9,"yT1":0,"xT2":1058.1,"yT2":0,"toosoon":0,"cond_shown":"equaldotsize","ratio_trial":750,"smaller_num":"6","larger_num":"8","correct_side":1,"subjID":"anaisabellamuñosrojas10","gender":"1","age":"9","school":"4"},{"start_time":1552308928011,"click_time":1552308928918,"finger_time":1552308928717,"fix_duration":250,"trial":9,"RT":706,"MT":201,"sideResp":1,"stimulus":"img/500/equaldotanddens/L/7_Ratio_500_L_10_R_5.png","xmouse":[771,771,771,771,771,771,771,771,771,771,771,771,771,771,771,771,771,771,771,771,771,771,771,771,771,771,771,771,771,771,771,771,771,763,758,699,609,563,536,524,518,518,518,518,517,510],"ymouse":[521,521,521,521,521,521,521,521,521,521,521,521,521,521,521,521,521,521,521,521,521,521,521,521,521,521,521,521,521,521,521,521,521,509,500,395,257,187,148,130,118,118,118,118,116,99],"timestamp_mouse":[9,28,47,69,87,106,128,147,167,187,207,227,246,268,286,307,327,348,367,387,407,426,446,466,486,507,528,548,567,586,606,628,647,666,687,706,727,746,767,787,806,827,847,867,886,907],"xSR":741.5,"ySR":469.95,"xT1":424.9,"yT1":0,"xT2":1058.1,"yT2":0,"toosoon":0,"cond_shown":"equaldotanddens","ratio_trial":500,"smaller_num":"5","larger_num":"10","correct_side":1,"subjID":"anaisabellamuñosrojas10","gender":"1","age":"9","school":"4"},{"start_time":1552308930255,"click_time":1552308931097,"finger_time":1552308930777,"fix_duration":435.2702493014803,"trial":10,"RT":522,"MT":320,"sideResp":1,"stimulus":"img/250/equaldotanddens/L/3_Ratio_250_L_8_R_2.png","xmouse":[781,781,781,781,781,781,781,781,781,781,781,781,781,781,781,781,781,781,781,781,781,781,781,774,760,744,721,699,643,622,608,592,576,559,555,553,552,552,550,547,541,532,512],"ymouse":[507,507,507,507,507,507,507,507,507,507,507,507,507,507,507,507,507,507,507,507,507,507,507,501,490,473,449,425,345,301,269,236,202,150,143,139,138,137,133,128,116,100,77],"timestamp_mouse":[11,24,44,78,82,103,123,142,163,183,204,222,243,263,283,303,322,343,364,382,402,423,444,462,482,502,522,542,563,582,602,623,643,662,682,704,724,743,763,782,802,822,842],"xSR":741.5,"ySR":469.95,"xT1":424.9,"yT1":0,"xT2":1058.1,"yT2":0,"toosoon":0,"cond_shown":"equaldotanddens","ratio_trial":250,"smaller_num":"2","larger_num":"8","correct_side":1,"subjID":"anaisabellamuñosrojas10","gender":"1","age":"9","school":"4"},{"start_time":1552308933613,"click_time":1552308934779,"finger_time":1552308934378,"fix_duration":393.9314934043193,"trial":11,"RT":765,"MT":401,"sideResp":1,"stimulus":"img/500/randomdotsizeEA/L/5_Ratio_500_L_4_R_2.png","xmouse":[787,787,787,787,787,787,787,787,787,787,787,787,787,787,787,787,787,787,787,787,787,787,787,787,787,787,787,787,787,787,787,787,787,787,786,785,774,759,743,732,717,712,707,702,699,697,692,689,682,671,640,608,572,521,503,493,486,485,483],"ymouse":[509,509,509,509,509,509,509,509,509,509,509,509,509,509,509,509,509,509,509,509,509,509,509,509,509,509,509,509,509,509,509,509,509,509,509,509,500,482,461,449,424,410,397,383,378,373,357,350,338,324,286,248,205,151,134,122,110,103,96],"timestamp_mouse":[12,25,44,69,85,105,124,146,164,185,206,224,245,265,285,304,325,346,365,385,406,425,445,466,485,505,525,545,566,585,606,625,646,664,685,704,725,744,765,784,806,825,846,864,884,904,925,944,964,985,1007,1025,1045,1066,1084,1106,1124,1144,1166],"xSR":741.5,"ySR":469.95,"xT1":424.9,"yT1":0,"xT2":1058.1,"yT2":0,"toosoon":0,"cond_shown":"randomdotsizeEA","ratio_trial":500,"smaller_num":"2","larger_num":"4","correct_side":1,"subjID":"anaisabellamuñosrojas10","gender":"1","age":"9","school":"4"},{"start_time":1552308936079,"click_time":1552308936838,"finger_time":1552308936737,"fix_duration":379.8262992959781,"trial":12,"RT":658,"MT":101,"sideResp":2,"stimulus":"img/250/equaldotanddens/R/11_Ratio_250_L_3_R_12.png","xmouse":[777,777,777,777,777,777,777,777,777,777,777,777,777,777,777,777,777,777,777,777,777,777,777,777,777,777,777,777,777,783,797,815,898,932,953,980,1023,1087],"ymouse":[525,525,525,525,525,525,525,525,525,525,525,525,525,525,525,525,525,525,525,525,525,525,525,525,525,525,525,525,525,518,504,480,377,332,295,250,173,61],"timestamp_mouse":[19,39,58,78,99,118,138,160,179,198,219,240,259,279,299,320,339,359,379,400,420,439,458,479,499,518,538,558,580,599,619,640,658,678,698,718,739,759],"xSR":741.5,"ySR":469.95,"xT1":424.9,"yT1":0,"xT2":1058.1,"yT2":0,"toosoon":0,"cond_shown":"equaldotanddens","ratio_trial":250,"smaller_num":"3","larger_num":"12","correct_side":2,"subjID":"anaisabellamuñosrojas10","gender":"1","age":"9","school":"4"},{"start_time":1552308938282,"click_time":1552308939238,"finger_time":1552308938737,"fix_duration":603.109072682186,"trial":13,"RT":455,"MT":501,"sideResp":1,"stimulus":"img/500/randomdotsizeEA/R/9_Ratio_500_L_2_R_4.png","xmouse":[799,799,799,799,799,799,799,799,799,799,799,799,799,799,799,799,799,799,799,799,800,801,801,801,801,800,793,759,739,717,695,676,635,609,586,567,556,548,547,545,542,540,537,534,532,529,526,521],"ymouse":[500,500,500,500,500,500,500,500,500,500,500,500,500,500,500,500,500,495,488,485,481,477,469,465,460,454,442,409,395,381,363,342,278,239,212,193,179,170,169,165,161,158,150,143,132,120,112,92],"timestamp_mouse":[16,44,56,76,96,115,136,155,177,197,216,236,255,276,296,316,336,356,376,395,416,436,455,475,495,516,537,556,575,595,615,637,656,677,696,717,735,756,775,796,817,835,856,875,896,916,935,956],"xSR":741.5,"ySR":469.95,"xT1":424.9,"yT1":0,"xT2":1058.1,"yT2":0,"toosoon":0,"cond_shown":"randomdotsizeEA","ratio_trial":500,"smaller_num":"2","larger_num":"4","correct_side":2,"subjID":"anaisabellamuñosrojas10","gender":"1","age":"9","school":"4"},{"start_time":1552308944828,"click_time":1552308946478,"finger_time":1552308945717,"fix_duration":608.0575330651483,"trial":14,"RT":889,"MT":761,"sideResp":1,"stimulus":"img/900/equaldotanddens/L/10_Ratio_900_L_20_R_18.png","xmouse":[792,792,792,792,792,792,792,792,792,792,792,792,792,792,792,792,792,792,792,792,792,792,792,791,791,791,791,791,791,791,791,791,791,791,791,791,791,791,791,791,791,793,797,801,804,807,814,816,817,817,817,817,817,817,817,816,808,802,794,782,768,708,662,601,542,479,387,365,365,365,365,365,365,365,365,365,365,365,365,394,400,415,425],"ymouse":[493,493,493,494,494,494,494,494,494,494,494,494,494,494,494,494,494,494,494,494,494,494,494,495,495,495,497,497,497,497,497,497,497,497,497,497,497,497,497,497,497,489,480,471,465,456,441,435,434,432,432,432,432,432,432,433,434,434,432,426,418,375,330,269,207,137,27,0,0,0,0,0,0,0,0,0,0,0,0,6,10,17,22],"timestamp_mouse":[9,43,51,69,89,111,130,150,171,190,209,230,249,270,291,310,329,350,371,390,410,429,450,470,490,509,529,550,570,591,609,631,651,669,689,709,731,751,770,790,810,829,850,870,889,911,929,950,970,990,1011,1029,1050,1069,1090,1110,1130,1149,1169,1189,1209,1230,1249,1270,1290,1311,1330,1351,1371,1390,1410,1430,1451,1470,1490,1510,1529,1550,1569,1590,1610,1630,1650],"xSR":741.5,"ySR":469.95,"xT1":424.9,"yT1":0,"xT2":1058.1,"yT2":0,"toosoon":0,"cond_shown":"equaldotanddens","ratio_trial":900,"smaller_num":"18","larger_num":"20","correct_side":1,"subjID":"anaisabellamuñosrojas10","gender":"1","age":"9","school":"4"},{"start_time":1552308948009,"click_time":1552308949017,"finger_time":1552308948698,"fix_duration":250,"trial":15,"RT":689,"MT":319,"sideResp":1,"stimulus":"img/250/randomdotsizeEA/L/7_Ratio_250_L_8_R_2.png","xmouse":[756,757,757,759,759,759,759,759,759,759,759,759,759,759,759,759,759,759,759,759,759,759,759,759,759,759,759,759,759,759,759,759,759,755,742,720,697,646,624,600,578,564,550,548,546,545,543,537,531,523,514],"ymouse":[520,520,520,520,520,520,520,520,520,520,520,520,520,520,520,520,520,520,520,520,520,520,520,520,520,520,520,520,520,520,520,520,519,501,467,418,364,247,198,158,129,113,106,106,106,106,106,106,105,101,95],"timestamp_mouse":[9,29,48,69,88,110,130,148,169,189,209,229,249,268,290,308,328,348,370,389,408,428,448,470,489,508,530,550,570,589,608,628,650,669,689,710,729,749,768,789,808,828,849,868,888,908,929,949,969,988,1008],"xSR":741.5,"ySR":469.95,"xT1":424.9,"yT1":0,"xT2":1058.1,"yT2":0,"toosoon":0,"cond_shown":"randomdotsizeEA","ratio_trial":250,"smaller_num":"2","larger_num":"8","correct_side":1,"subjID":"anaisabellamuñosrojas10","gender":"1","age":"9","school":"4"},{"start_time":1552308950898,"click_time":1552308951917,"finger_time":1552308951558,"fix_duration":899.4108328127796,"trial":16,"RT":660,"MT":359,"sideResp":2,"stimulus":"img/250/equaldotanddens/R/6_Ratio_250_L_6_R_24.png","xmouse":[801,801,801,801,801,801,801,801,801,801,801,801,801,801,801,801,801,801,801,801,801,801,801,801,801,801,801,801,801,801,803,805,818,869,914,959,1002,1027,1035,1035,1035,1035,1035,1035,1037,1038,1038,1038,1041,1051,1057,1061],"ymouse":[520,520,520,520,520,520,520,520,520,520,520,520,520,520,520,520,520,520,520,520,520,520,520,520,520,520,520,520,520,520,517,512,479,387,324,268,217,177,141,134,132,132,131,129,118,115,112,110,104,89,82,76],"timestamp_mouse":[11,20,39,61,79,99,120,141,160,180,200,221,240,260,281,301,320,339,360,379,399,419,440,459,480,500,520,539,560,581,600,619,641,660,680,700,719,740,760,779,799,820,841,861,880,900,919,941,960,979,999,1019],"xSR":741.5,"ySR":469.95,"xT1":424.9,"yT1":0,"xT2":1058.1,"yT2":0,"toosoon":0,"cond_shown":"equaldotanddens","ratio_trial":250,"smaller_num":"6","larger_num":"24","correct_side":2,"subjID":"anaisabellamuñosrojas10","gender":"1","age":"9","school":"4"},{"start_time":1552308953956,"click_time":1552308955897,"finger_time":1552308955458,"fix_duration":1316.570787339019,"trial":17,"RT":1502,"MT":439,"sideResp":1,"stimulus":"img/750/equaldotanddens/R/2_Ratio_750_L_6_R_8.png","xmouse":[776,776,776,776,776,778,783,786,788,788,789,789,789,789,789,789,789,789,789,789,789,789,789,789,789,789,789,789,789,789,789,789,789,789,789,789,789,789,789,789,789,789,789,789,789,789,789,789,789,789,789,789,789,789,789,789,789,789,789,789,789,789,789,789,789,789,789,789,789,789,789,789,787,783,778,772,746,734,717,697,678,644,631,623,618,615,606,591,582,571,555,555,555,555,555,555,555,496],"ymouse":[498,498,498,498,498,501,504,507,514,517,520,520,520,520,520,520,520,520,520,520,520,520,520,520,520,520,520,520,520,520,520,520,520,520,520,520,520,520,520,520,520,520,520,520,520,520,520,520,520,520,520,520,520,520,520,520,520,520,520,520,520,520,520,520,520,520,520,520,520,520,520,514,498,487,476,466,440,429,416,403,383,312,280,257,235,213,156,94,61,32,1,1,1,1,1,1,1,2],"timestamp_mouse":[9,22,41,73,82,102,123,141,161,181,203,223,243,262,281,301,321,342,363,381,401,422,443,462,482,503,522,543,561,581,602,622,642,663,683,702,722,742,762,782,803,823,842,861,882,902,923,943,962,982,1002,1023,1042,1061,1081,1101,1123,1142,1162,1183,1202,1221,1241,1261,1283,1301,1321,1342,1361,1382,1401,1422,1442,1462,1483,1502,1522,1541,1561,1581,1601,1621,1642,1661,1683,1702,1722,1741,1761,1783,1802,1822,1842,1862,1881,1902,1921,1941],"xSR":741.5,"ySR":469.95,"xT1":424.9,"yT1":0,"xT2":1058.1,"yT2":0,"toosoon":0,"cond_shown":"equaldotanddens","ratio_trial":750,"smaller_num":"6","larger_num":"8","correct_side":2,"subjID":"anaisabellamuñosrojas10","gender":"1","age":"9","school":"4"},{"start_time":1552308957942,"click_time":1552308959118,"finger_time":1552308958837,"fix_duration":1121.244172213962,"trial":18,"RT":895,"MT":281,"sideResp":1,"stimulus":"img/750/equaldotanddens/L/6_Ratio_750_L_24_R_18.png","xmouse":[805,805,805,805,805,805,805,805,805,802,798,789,784,784,784,784,784,784,784,784,784,784,784,784,784,784,784,784,784,784,784,784,784,784,784,784,784,784,784,784,784,779,769,754,725,705,661,643,630,630,630,630,630,630,630,630,630,544,504],"ymouse":[531,531,531,531,531,531,531,531,531,531,531,531,531,531,531,531,531,531,531,531,531,531,531,531,531,531,531,531,531,531,531,531,531,531,531,531,531,531,531,531,531,531,524,507,431,343,132,57,8,8,8,8,8,8,8,8,8,7,41],"timestamp_mouse":[17,42,57,76,96,115,137,155,175,196,217,236,255,275,296,317,336,356,375,395,417,437,456,475,497,515,537,557,576,597,617,635,656,676,696,715,735,757,775,795,816,836,856,875,895,916,937,955,975,997,1016,1036,1055,1076,1095,1116,1137,1156,1176],"xSR":741.5,"ySR":469.95,"xT1":424.9,"yT1":0,"xT2":1058.1,"yT2":0,"toosoon":0,"cond_shown":"equaldotanddens","ratio_trial":750,"smaller_num":"18","larger_num":"24","correct_side":1,"subjID":"anaisabellamuñosrojas10","gender":"1","age":"9","school":"4"},{"start_time":1552308962828,"click_time":1552308963958,"finger_time":1552308963517,"fix_duration":1107.1803117220886,"trial":19,"RT":689,"MT":441,"sideResp":1,"stimulus":"img/500/equaldotsize/L/7_Ratio_500_L_10_R_5.png","xmouse":[797,797,797,797,797,797,797,797,797,797,797,797,797,797,797,797,797,797,797,797,797,797,797,797,797,796,793,793,791,791,790,788,787,781,772,757,735,710,683,636,612,605,599,590,581,575,567,557,547,539,530,523,516,509,507,507,506],"ymouse":[509,509,509,509,509,509,509,509,509,509,509,509,509,509,509,509,509,509,509,509,509,509,509,509,507,506,506,506,505,505,504,503,501,485,466,436,396,347,301,236,215,210,208,206,203,200,195,187,176,158,139,126,115,104,102,100,98],"timestamp_mouse":[10,30,50,71,90,111,130,149,170,190,211,230,251,269,291,311,330,349,370,391,410,430,450,471,489,509,531,549,570,589,610,629,651,669,689,709,731,750,769,790,810,831,851,870,889,909,931,951,970,991,1011,1031,1051,1069,1090,1110,1130],"xSR":741.5,"ySR":469.95,"xT1":424.9,"yT1":0,"xT2":1058.1,"yT2":0,"toosoon":0,"cond_shown":"equaldotsize","ratio_trial":500,"smaller_num":"5","larger_num":"10","correct_side":1,"subjID":"anaisabellamuñosrojas10","gender":"1","age":"9","school":"4"},{"start_time":1552308965282,"click_time":1552308966158,"finger_time":1552308965798,"fix_duration":382.320806568856,"trial":20,"RT":516,"MT":360,"sideResp":1,"stimulus":"img/500/equaldotsize/L/10_Ratio_500_L_4_R_2.png","xmouse":[786,786,786,786,786,786,786,786,786,786,786,786,786,786,786,786,786,786,788,788,788,788,786,781,770,724,698,673,647,627,600,591,584,580,577,563,557,552,548,542,523,515,507,498],"ymouse":[552,552,552,552,552,552,552,552,552,552,552,552,552,552,552,552,552,552,551,548,537,527,516,501,477,407,370,343,311,285,249,237,225,219,213,194,187,181,175,167,134,119,107,94],"timestamp_mouse":[16,36,64,76,96,116,135,156,177,196,216,236,256,277,297,316,336,356,376,397,416,435,456,475,496,516,537,556,576,597,616,636,656,675,695,716,735,756,776,797,815,835,855,876],"xSR":741.5,"ySR":469.95,"xT1":424.9,"yT1":0,"xT2":1058.1,"yT2":0,"toosoon":0,"cond_shown":"equaldotsize","ratio_trial":500,"smaller_num":"2","larger_num":"4","correct_side":1,"subjID":"anaisabellamuñosrojas10","gender":"1","age":"9","school":"4"},{"start_time":1552308967211,"click_time":1552308968117,"finger_time":1552308967737,"fix_duration":272.7888510103894,"trial":21,"RT":526,"MT":380,"sideResp":2,"stimulus":"img/500/equaldotanddens/R/2_Ratio_500_L_3_R_6.png","xmouse":[804,804,804,804,804,804,804,804,804,804,804,804,804,804,804,804,804,804,804,804,804,804,804,804,806,822,843,879,888,922,935,956,972,986,996,1008,1013,1014,1019,1024,1035,1039,1043,1049,1079,1092],"ymouse":[532,532,532,532,532,532,532,532,532,532,532,532,532,532,532,532,532,532,532,532,532,532,532,532,530,515,497,468,459,405,367,314,262,223,198,170,163,160,155,149,140,137,132,126,104,94],"timestamp_mouse":[6,27,53,67,86,107,127,148,167,188,207,227,247,268,287,308,326,348,368,387,407,427,446,466,487,506,526,546,568,587,607,627,648,666,686,706,727,746,767,788,807,827,848,868,888,906],"xSR":741.5,"ySR":469.95,"xT1":424.9,"yT1":0,"xT2":1058.1,"yT2":0,"toosoon":0,"cond_shown":"equaldotanddens","ratio_trial":500,"smaller_num":"3","larger_num":"6","correct_side":2,"subjID":"anaisabellamuñosrojas10","gender":"1","age":"9","school":"4"},{"start_time":1552308971149,"click_time":1552308972117,"finger_time":1552308971777,"fix_duration":709.7333969573717,"trial":22,"RT":628,"MT":340,"sideResp":2,"stimulus":"img/750/equaldotanddens/R/15_Ratio_750_L_9_R_12.png","xmouse":[789,789,789,789,789,789,789,789,789,789,789,789,789,789,789,789,789,789,789,789,789,789,789,789,789,789,789,789,795,808,825,841,860,907,925,942,961,982,1004,1010,1011,1011,1011,1011,1015,1036,1069,1102,1118],"ymouse":[534,534,534,534,534,534,534,534,534,534,534,534,534,534,534,534,534,534,534,534,534,534,534,534,534,534,534,534,526,508,489,467,433,358,317,277,236,201,160,149,147,147,147,147,145,135,117,101,92],"timestamp_mouse":[10,37,49,70,89,109,129,149,170,188,208,229,248,268,289,309,328,349,370,388,408,429,448,469,488,510,529,549,569,589,610,628,648,668,688,709,730,749,768,789,808,828,850,870,888,909,929,948,968],"xSR":741.5,"ySR":469.95,"xT1":424.9,"yT1":0,"xT2":1058.1,"yT2":0,"toosoon":0,"cond_shown":"equaldotanddens","ratio_trial":750,"smaller_num":"9","larger_num":"12","correct_side":2,"subjID":"anaisabellamuñosrojas10","gender":"1","age":"9","school":"4"},{"start_time":1552308974208,"click_time":1552308975220,"finger_time":1552308974858,"fix_duration":1468.4100161953766,"trial":23,"RT":650,"MT":362,"sideResp":2,"stimulus":"img/900/equaldotanddens/R/11_Ratio_900_L_18_R_20.png","xmouse":[769,769,769,769,769,769,769,769,769,769,769,769,769,769,769,769,769,769,769,769,769,769,769,769,769,769,769,769,769,769,769,806,862,917,926,942,945,948,954,960,968,985,990,990,992,1005,1018,1033,1048,1058,1066],"ymouse":[539,539,539,539,539,539,539,539,539,539,539,539,539,539,539,539,539,539,539,539,539,539,539,539,539,539,539,539,539,539,534,480,401,331,319,285,263,244,222,202,180,142,131,129,128,115,106,96,90,85,82],"timestamp_mouse":[9,29,50,73,90,109,129,150,170,191,209,230,249,269,290,310,330,349,371,391,411,429,450,469,490,511,530,551,570,590,610,629,649,670,690,710,730,749,769,791,810,831,850,871,890,909,930,949,969,990,1011],"xSR":741.5,"ySR":469.95,"xT1":424.9,"yT1":0,"xT2":1058.1,"yT2":0,"toosoon":0,"cond_shown":"equaldotanddens","ratio_trial":900,"smaller_num":"18","larger_num":"20","correct_side":2,"subjID":"anaisabellamuñosrojas10","gender":"1","age":"9","school":"4"},{"start_time":1552308977451,"click_time":1552308978537,"finger_time":1552308978218,"fix_duration":1331.16323541322,"trial":24,"RT":767,"MT":319,"sideResp":1,"stimulus":"img/500/randomdotsizeEA/R/6_Ratio_500_L_9_R_18.png","xmouse":[762,762,762,762,762,762,762,762,762,762,762,762,762,762,762,762,762,762,762,762,762,762,762,762,762,762,762,762,762,762,762,762,762,762,763,763,763,763,763,757,742,716,673,601,576,565,560,555,545,541,537,534,530,526,524],"ymouse":[528,528,528,528,528,528,528,528,528,528,528,528,528,528,528,528,528,528,528,528,528,528,528,528,528,528,528,528,528,528,528,528,528,528,526,514,496,481,467,417,380,339,295,249,239,234,231,226,190,163,139,120,103,83,73],"timestamp_mouse":[8,28,47,77,87,108,126,147,168,188,206,228,247,268,287,307,327,346,368,387,407,427,448,468,487,507,528,547,567,587,607,646,646,667,687,708,728,748,767,786,806,826,847,869,886,906,926,947,968,986,1006,1028,1048,1069,1086],"xSR":741.5,"ySR":469.95,"xT1":424.9,"yT1":0,"xT2":1058.1,"yT2":0,"toosoon":0,"cond_shown":"randomdotsizeEA","ratio_trial":500,"smaller_num":"9","larger_num":"18","correct_side":2,"subjID":"anaisabellamuñosrojas10","gender":"1","age":"9","school":"4"},{"start_time":1552308979570,"click_time":1552308980577,"finger_time":1552308980439,"fix_duration":250,"trial":25,"RT":869,"MT":138,"sideResp":2,"stimulus":"img/750/equaldotanddens/R/15_Ratio_750_L_9_R_12.png","xmouse":[794,794,794,793,793,793,793,793,793,793,793,793,793,793,793,793,793,793,793,793,793,793,793,793,793,793,793,793,793,793,793,793,793,793,793,793,793,793,793,793,798,807,832,894,931,941,949,956,988,1021,1072],"ymouse":[533,533,533,532,532,532,532,532,532,532,532,532,532,532,532,532,532,532,532,532,532,532,532,532,532,532,532,532,532,532,532,532,532,532,532,532,532,532,532,532,525,515,478,357,275,248,227,209,165,133,89],"timestamp_mouse":[18,42,48,68,89,107,128,147,169,188,208,227,247,267,287,308,327,349,367,387,408,428,449,467,487,509,527,547,568,588,608,627,649,667,688,709,728,747,769,788,808,828,848,869,888,907,927,949,967,987,1007],"xSR":741.5,"ySR":469.95,"xT1":424.9,"yT1":0,"xT2":1058.1,"yT2":0,"toosoon":0,"cond_shown":"equaldotanddens","ratio_trial":750,"smaller_num":"9","larger_num":"12","correct_side":2,"subjID":"anaisabellamuñosrojas10","gender":"1","age":"9","school":"4"},{"start_time":1552308981672,"click_time":1552308982879,"finger_time":1552308982538,"fix_duration":250,"trial":26,"RT":866,"MT":341,"sideResp":1,"stimulus":"img/900/equaldotsize/L/1_Ratio_900_L_10_R_9.png","xmouse":[778,778,778,778,778,778,778,778,778,778,778,778,778,778,780,780,780,781,782,782,782,782,782,782,782,782,782,782,782,782,782,781,779,776,775,775,775,775,775,775,773,766,753,711,678,654,631,615,605,604,603,601,598,591,588,585,583,580,559,535,514],"ymouse":[555,555,555,555,555,555,555,555,555,555,555,555,555,553,550,549,547,544,541,541,540,540,540,540,540,540,540,540,540,538,535,532,528,520,518,517,517,517,517,517,514,503,487,426,382,342,302,276,250,238,228,218,206,188,183,179,175,171,132,75,31],"timestamp_mouse":[6,26,60,66,87,106,126,146,166,185,207,226,245,267,286,305,325,347,366,386,406,425,446,466,485,505,527,546,565,587,605,626,647,666,685,706,727,746,765,786,807,826,847,866,886,905,925,945,965,987,1006,1026,1047,1065,1086,1107,1126,1146,1166,1186,1207],"xSR":741.5,"ySR":469.95,"xT1":424.9,"yT1":0,"xT2":1058.1,"yT2":0,"toosoon":0,"cond_shown":"equaldotsize","ratio_trial":900,"smaller_num":"9","larger_num":"10","correct_side":1,"subjID":"anaisabellamuñosrojas10","gender":"1","age":"9","school":"4"},{"start_time":1552308984029,"click_time":1552308985180,"finger_time":1552308985019,"fix_duration":250,"trial":27,"RT":990,"MT":161,"sideResp":1,"stimulus":"img/900/equaldotsize/L/2_Ratio_900_L_20_R_18.png","xmouse":[794,793,793,793,793,793,793,793,793,793,793,793,793,793,793,793,793,793,793,793,793,793,793,793,793,793,793,793,793,793,793,793,793,793,793,793,793,793,793,793,793,793,793,791,787,766,755,749,744,735,686,654,622,590,564,548,523,515],"ymouse":[514,514,514,515,515,515,515,515,515,515,515,515,515,515,515,515,515,515,515,515,515,515,515,515,515,515,515,515,515,515,515,515,515,515,515,515,515,515,515,515,513,503,496,492,486,476,473,472,470,459,354,296,245,199,162,138,106,93],"timestamp_mouse":[17,45,49,70,90,109,130,149,169,191,209,230,251,269,290,309,330,349,371,390,409,430,450,470,489,510,530,549,570,590,610,631,650,669,689,709,730,750,771,791,809,830,850,870,889,910,930,949,969,990,1011,1029,1049,1070,1090,1110,1129,1151],"xSR":741.5,"ySR":469.95,"xT1":424.9,"yT1":0,"xT2":1058.1,"yT2":0,"toosoon":0,"cond_shown":"equaldotsize","ratio_trial":900,"smaller_num":"18","larger_num":"20","correct_side":1,"subjID":"anaisabellamuñosrojas10","gender":"1","age":"9","school":"4"},{"start_time":1552308986720,"click_time":1552308987958,"finger_time":1552308987540,"fix_duration":400.62747927156374,"trial":28,"RT":820,"MT":418,"sideResp":1,"stimulus":"img/500/equaldotsize/L/8_Ratio_500_L_8_R_4.png","xmouse":[791,791,791,792,792,792,792,792,792,792,792,792,792,792,792,792,792,792,792,792,792,792,792,792,792,792,792,792,792,792,792,792,792,792,792,792,792,792,790,782,758,661,619,602,601,601,601,601,598,593,580,571,567,563,561,556,550,545,538,532,525,516],"ymouse":[502,502,502,503,503,503,503,503,503,503,503,503,503,503,503,503,503,503,503,503,503,503,503,503,503,503,503,503,503,503,503,503,503,503,503,503,503,503,501,491,450,325,285,267,267,267,267,266,255,236,189,174,162,153,147,128,114,105,95,86,79,69],"timestamp_mouse":[18,46,59,78,99,118,138,159,178,200,220,238,259,280,300,318,338,359,380,399,418,438,460,479,498,518,539,558,579,599,619,639,659,678,700,720,740,759,778,798,819,839,859,879,898,919,938,958,978,999,1020,1038,1059,1078,1098,1120,1138,1159,1179,1199,1219,1238],"xSR":741.5,"ySR":469.95,"xT1":424.9,"yT1":0,"xT2":1058.1,"yT2":0,"toosoon":0,"cond_shown":"equaldotsize","ratio_trial":500,"smaller_num":"4","larger_num":"8","correct_side":1,"subjID":"anaisabellamuñosrojas10","gender":"1","age":"9","school":"4"},{"start_time":1552308990000,"click_time":1552308990979,"finger_time":1552308990698,"fix_duration":1079.3502125334583,"trial":29,"RT":698,"MT":281,"sideResp":1,"stimulus":"img/750/equaldotanddens/L/14_Ratio_750_L_8_R_6.png","xmouse":[773,770,768,768,768,768,768,770,772,775,778,781,783,783,783,783,783,783,783,783,783,783,783,783,783,783,783,783,783,781,777,774,762,747,727,698,659,626,566,555,544,537,532,531,530,527,522,512,509],"ymouse":[531,535,541,541,541,542,543,545,546,547,548,548,549,549,549,549,549,549,549,549,549,549,549,549,549,549,549,549,549,549,547,546,539,522,500,465,413,354,235,206,186,174,165,164,159,148,134,106,94],"timestamp_mouse":[20,43,58,78,98,118,139,158,179,199,218,240,258,279,298,319,338,358,378,400,418,438,459,479,498,519,538,558,578,599,619,639,659,678,698,720,739,758,778,799,820,838,858,878,898,919,940,958,979],"xSR":741.5,"ySR":469.95,"xT1":424.9,"yT1":0,"xT2":1058.1,"yT2":0,"toosoon":0,"cond_shown":"equaldotanddens","ratio_trial":750,"smaller_num":"6","larger_num":"8","correct_side":1,"subjID":"anaisabellamuñosrojas10","gender":"1","age":"9","school":"4"},{"start_time":1552308993619,"click_time":1552308994959,"finger_time":1552308994479,"fix_duration":357.66486330583234,"trial":30,"RT":860,"MT":480,"sideResp":1,"stimulus":"img/900/equaldotanddens/R/7_Ratio_900_L_9_R_10.png","xmouse":[774,774,774,774,774,774,774,774,774,774,774,774,774,774,774,774,774,774,774,774,774,774,774,774,774,774,774,774,774,774,774,774,774,774,774,774,774,774,774,774,774,771,758,725,709,676,657,645,627,617,611,608,603,597,594,588,579,547,539,534,532,527,513,508,504,500,499,498],"ymouse":[544,544,544,544,544,544,544,544,544,544,544,544,544,544,544,544,544,544,544,544,544,544,544,544,544,544,544,544,544,544,544,544,544,544,544,544,544,544,544,544,543,539,521,479,453,399,363,338,295,278,269,261,251,242,233,219,205,158,148,141,136,131,119,115,109,104,101,99],"timestamp_mouse":[1,19,39,60,79,100,121,141,159,180,200,219,241,259,280,299,319,339,359,379,399,419,439,461,480,499,520,540,560,579,599,619,639,660,679,699,721,739,760,780,800,819,840,860,879,899,920,940,961,980,1001,1020,1040,1060,1079,1101,1120,1141,1159,1180,1200,1220,1240,1260,1279,1299,1319,1339],"xSR":741.5,"ySR":469.95,"xT1":424.9,"yT1":0,"xT2":1058.1,"yT2":0,"toosoon":0,"cond_shown":"equaldotanddens","ratio_trial":900,"smaller_num":"9","larger_num":"10","correct_side":2,"subjID":"anaisabellamuñosrojas10","gender":"1","age":"9","school":"4"},{"start_time":1552308996323,"click_time":1552308999718,"finger_time":1552308999379,"fix_duration":441.62411681003664,"trial":31,"RT":3056,"MT":339,"sideResp":2,"stimulus":"img/250/randomdotsizeEA/L/3_Ratio_250_L_8_R_2.png","xmouse":[773,774,774,774,774,774,774,774,774,774,774,774,774,774,774,774,774,774,774,774,774,774,774,774,774,774,774,774,774,774,774,774,774,774,774,774,774,774,774,774,774,774,774,774,774,774,774,774,774,774,774,774,774,774,774,774,774,774,774,774,774,774,774,774,774,774,774,774,774,774,774,774,774,774,774,774,774,774,774,774,774,774,774,774,774,774,774,774,774,774,774,774,774,774,774,774,774,774,774,774,774,774,774,774,774,774,774,774,774,774,774,774,774,774,774,774,774,774,774,774,774,774,774,774,774,774,774,774,774,774,774,774,774,774,774,774,774,774,774,774,775,776,776,776,776,776,776,776,776,776,780,783,802,808,816,823,830,858,880,895,916,940,984,998,1010,1027,1047,1088,1098,1107],"ymouse":[497,498,498,498,498,498,498,498,498,498,498,498,498,498,498,498,498,498,498,498,498,498,498,498,498,498,498,498,498,498,498,498,498,498,498,498,498,498,498,498,498,498,498,498,498,498,498,498,498,498,498,498,498,498,498,498,498,498,498,498,498,498,498,498,498,498,498,498,498,498,498,498,498,498,498,498,498,498,498,498,498,498,498,498,498,498,498,498,498,498,498,498,498,498,498,498,498,498,498,498,498,498,498,498,498,498,498,498,498,498,498,498,498,498,498,498,498,498,498,498,498,498,498,498,498,498,498,498,498,498,498,498,498,498,498,498,498,498,498,498,498,498,498,498,498,498,498,498,498,498,495,482,420,400,383,366,349,313,292,274,256,232,198,190,183,175,164,132,118,98],"timestamp_mouse":[16,35,55,76,95,116,137,156,176,196,217,235,256,276,297,316,335,357,376,396,415,435,455,475,495,517,535,556,576,595,616,635,656,677,697,716,737,757,776,795,817,835,856,876,897,917,935,956,977,996,1016,1035,1057,1076,1096,1116,1136,1157,1176,1196,1215,1235,1256,1276,1297,1316,1335,1356,1376,1396,1415,1435,1455,1476,1496,1516,1535,1557,1577,1596,1616,1635,1657,1676,1697,1715,1735,1756,1775,1795,1816,1836,1856,1876,1897,1917,1937,1956,1975,1996,2015,2035,2056,2075,2096,2115,2135,2155,2176,2195,2216,2235,2256,2276,2295,2316,2336,2355,2375,2397,2416,2435,2455,2476,2495,2517,2536,2555,2575,2596,2615,2636,2656,2677,2697,2716,2735,2755,2776,2795,2816,2836,2856,2876,2895,2915,2936,2956,2976,2995,3016,3037,3056,3075,3096,3116,3135,3155,3176,3195,3216,3235,3255,3275,3297,3315,3336,3356,3375,3395],"xSR":741.5,"ySR":469.95,"xT1":424.9,"yT1":0,"xT2":1058.1,"yT2":0,"toosoon":0,"cond_shown":"randomdotsizeEA","ratio_trial":250,"smaller_num":"2","larger_num":"8","correct_side":1,"subjID":"anaisabellamuñosrojas10","gender":"1","age":"9","school":"4"},{"start_time":1552309002025,"click_time":1552309003098,"finger_time":1552309002759,"fix_duration":1186.0670569961758,"trial":32,"RT":734,"MT":339,"sideResp":1,"stimulus":"img/900/equaldotsize/R/9_Ratio_900_L_18_R_20.png","xmouse":[762,762,762,762,762,762,762,762,762,762,762,762,762,762,762,762,762,762,762,762,762,762,762,762,762,762,762,762,762,762,762,762,762,762,762,762,750,701,674,657,644,636,625,610,603,595,590,577,570,561,559,549,542,521],"ymouse":[513,513,513,513,513,513,513,513,513,513,513,513,513,513,513,513,513,513,513,513,513,513,513,513,513,513,513,513,513,513,513,513,513,513,507,487,455,368,329,302,282,266,246,218,206,193,181,153,140,125,122,110,103,85],"timestamp_mouse":[13,34,53,73,93,113,133,155,174,194,213,233,253,274,293,314,334,355,374,393,413,434,455,475,494,513,535,555,574,593,614,635,654,675,693,713,734,755,773,793,813,834,853,874,894,913,933,954,973,995,1015,1033,1054,1073],"xSR":741.5,"ySR":469.95,"xT1":424.9,"yT1":0,"xT2":1058.1,"yT2":0,"toosoon":0,"cond_shown":"equaldotsize","ratio_trial":900,"smaller_num":"18","larger_num":"20","correct_side":2,"subjID":"anaisabellamuñosrojas10","gender":"1","age":"9","school":"4"},{"start_time":1552309006165,"click_time":1552309009239,"finger_time":1552309006998,"fix_duration":666.9972836524693,"trial":33,"RT":833,"MT":2241,"sideResp":1,"stimulus":"img/900/randomdotsizeEA/R/6_Ratio_900_L_9_R_10.png","xmouse":[806,806,806,806,806,806,806,806,806,806,806,806,806,806,806,806,806,806,806,806,806,806,806,806,806,806,806,806,806,806,806,806,806,806,806,806,806,806,800,790,762,613,548,482,423,379,325,321,321,321,323,330,331,333,334,334,334,334,334,335,335,335,336,336,336,336,338,340,342,345,348,353,354,355,356,357,357,358,358,358,358,361,361,362,362,363,365,366,367,367,367,369,369,369,370,371,372,373,373,374,375,375,375,377,377,377,378,379,379,379,380,381,381,382,386,391,404,406,407,407,408,408,411,416,420,422,423,423,424,427,432,441,441,441,441,441,441,441,441,441,441,441,441,441,441,441,441,442,443,443,443,445,445,445],"ymouse":[532,532,532,532,532,532,532,532,532,532,532,532,532,532,532,532,532,532,532,532,532,532,532,532,532,532,532,532,532,532,532,532,532,532,532,532,532,532,531,528,519,443,398,334,262,201,110,96,90,85,80,66,63,61,60,60,60,60,60,60,60,60,60,60,60,60,62,65,67,69,72,77,79,79,80,81,81,82,82,82,82,84,85,85,86,86,86,87,87,87,87,88,88,88,88,89,89,89,89,89,89,90,90,91,91,91,91,92,92,92,93,93,93,94,95,97,100,101,101,101,102,102,102,103,104,105,105,105,105,105,105,105,105,105,105,105,105,105,105,105,105,105,105,105,105,105,105,105,105,105,105,102,101,99],"timestamp_mouse":[13,33,54,81,93,113,134,153,174,193,215,235,253,274,294,314,335,353,374,394,414,433,453,474,495,514,534,554,574,593,614,634,653,674,694,713,733,754,774,793,813,833,853,873,894,914,934,953,973,994,1015,1033,1054,1074,1094,1113,1133,1154,1175,1195,1215,1233,1254,1274,1294,1314,1333,1353,1374,1394,1415,1433,1454,1474,1494,1514,1534,1553,1574,1594,1613,1633,1654,1673,1693,1714,1734,1753,1773,1794,1815,1834,1853,1873,1894,1914,1933,1953,1975,1995,2013,2033,2053,2073,2093,2114,2134,2153,2173,2193,2214,2234,2255,2274,2294,2314,2333,2354,2375,2394,2414,2434,2453,2473,2494,2513,2533,2554,2573,2594,2615,2633,2655,2674,2694,2713,2734,2754,2774,2793,2814,2834,2855,2874,2895,2914,2933,2954,2974,2994,3013,3033,3054,3074],"xSR":741.5,"ySR":469.95,"xT1":424.9,"yT1":0,"xT2":1058.1,"yT2":0,"toosoon":0,"cond_shown":"randomdotsizeEA","ratio_trial":900,"smaller_num":"9","larger_num":"10","correct_side":2,"subjID":"anaisabellamuñosrojas10","gender":"1","age":"9","school":"4"},{"start_time":1552309022142,"click_time":1552309027139,"finger_time":1552309024798,"fix_duration":580.9886439515077,"trial":34,"RT":2656,"MT":2341,"sideResp":2,"stimulus":"img/750/equaldotanddens/R/4_Ratio_750_L_15_R_20.png","xmouse":[787,787,787,787,787,787,787,787,787,787,787,787,787,787,787,787,787,787,787,787,787,787,787,787,787,787,787,787,787,787,787,787,787,787,787,787,787,787,787,787,787,787,787,787,787,787,787,787,787,787,787,787,787,787,787,787,787,787,787,787,787,787,787,787,787,787,787,787,787,787,787,787,787,787,787,787,787,787,787,787,787,787,787,787,787,787,787,787,787,787,787,787,787,787,787,787,787,787,787,787,787,787,787,787,787,787,787,787,787,787,787,787,787,787,787,787,787,787,787,787,787,787,787,787,787,787,787,787,787,787,767,744,719,719,719,719,719,719,719,719,719,719,719,719,719,719,719,719,719,719,719,719,719,719,719,719,719,719,719,719,719,719,719,719,719,719,719,719,719,719,719,719,719,719,719,716,708,702,702,706,713,719,724,730,745,748,749,753,758,799,812,816,816,816,816,816,816,816,814,812,799,792,788,782,780,780,780,780,780,780,780,780,780,780,780,780,780,780,780,780,780,780,780,780,780,783,803,825,847,909,927,931,932,935,971,1003,1035,1060,1079,1095,1098,1101,1102,1106,1112,1115,1117,1117,1117,1113],"ymouse":[505,505,505,505,505,505,505,505,505,505,505,505,505,505,505,505,505,505,505,505,505,505,505,505,505,505,505,505,505,505,505,505,505,505,505,505,505,505,505,505,505,505,505,505,505,505,505,505,505,505,505,505,505,505,505,505,505,505,505,505,505,505,505,505,505,505,505,505,505,505,505,505,505,505,505,505,505,505,505,505,505,505,505,505,505,505,505,505,505,505,505,505,505,505,505,505,505,505,505,505,505,505,505,505,505,505,505,505,505,505,505,505,505,505,505,505,505,505,505,505,505,505,505,505,505,505,505,505,505,505,499,491,482,482,482,482,482,482,482,482,482,482,482,482,482,482,482,482,482,482,482,482,482,482,482,482,482,482,482,482,482,482,482,482,482,482,482,482,482,482,482,482,482,482,482,482,489,494,495,496,496,495,494,493,494,496,496,498,499,501,504,506,506,506,506,506,506,506,506,506,506,506,506,507,508,508,508,508,508,508,508,508,508,508,508,508,508,508,508,508,508,508,508,508,508,504,485,463,447,400,384,380,375,368,310,277,249,232,219,202,193,183,176,169,144,134,123,114,104,97],"timestamp_mouse":[16,37,56,78,97,116,137,167,177,196,217,238,256,277,297,316,338,356,377,396,418,437,457,476,496,518,538,557,576,597,617,637,657,676,697,718,736,757,776,797,816,838,857,876,898,917,938,957,978,996,1016,1037,1056,1078,1096,1116,1136,1158,1177,1196,1216,1236,1256,1276,1297,1316,1338,1357,1378,1396,1416,1437,1457,1476,1497,1518,1537,1557,1576,1596,1616,1636,1656,1677,1698,1716,1736,1758,1777,1797,1818,1837,1856,1877,1898,1917,1936,1956,1977,1997,2017,2038,2057,2076,2098,2117,2137,2156,2176,2196,2217,2236,2257,2276,2297,2316,2338,2357,2376,2396,2416,2437,2458,2478,2497,2517,2536,2556,2576,2597,2616,2636,2656,2676,2696,2716,2736,2757,2776,2796,2817,2838,2856,2877,2896,2917,2936,2958,2978,2998,3017,3037,3056,3077,3097,3117,3136,3157,3178,3197,3217,3237,3256,3277,3296,3316,3338,3357,3376,3397,3417,3438,3457,3476,3496,3516,3536,3556,3576,3596,3616,3637,3657,3677,3696,3717,3736,3757,3777,3797,3816,3837,3856,3876,3896,3916,3936,3958,3976,3996,4016,4037,4057,4077,4097,4116,4137,4157,4177,4196,4216,4236,4257,4276,4297,4317,4336,4357,4376,4396,4417,4437,4457,4476,4497,4516,4537,4558,4577,4597,4617,4637,4658,4676,4697,4718,4737,4756,4778,4796,4816,4837,4858,4876,4897,4916,4936,4958,4977,4997],"xSR":741.5,"ySR":469.95,"xT1":424.9,"yT1":0,"xT2":1058.1,"yT2":0,"toosoon":0,"cond_shown":"equaldotanddens","ratio_trial":750,"smaller_num":"15","larger_num":"20","correct_side":2,"subjID":"anaisabellamuñosrojas10","gender":"1","age":"9","school":"4"},{"start_time":1552309029518,"click_time":1552309031038,"finger_time":1552309030298,"fix_duration":1498.981556644571,"trial":35,"RT":780,"MT":740,"sideResp":1,"stimulus":"img/500/randomdotsizeEA/L/10_Ratio_500_L_4_R_2.png","xmouse":[797,797,797,797,797,797,797,797,797,797,797,797,797,797,797,797,797,797,797,797,797,797,797,797,797,797,797,797,797,797,797,797,797,797,797,797,797,787,763,739,721,704,665,648,632,615,594,533,511,504,503,503,509,525,538,547,551,556,556,559,560,562,564,564,559,557,554,551,546,539,531,529,527,527,526,525,524],"ymouse":[540,540,540,540,540,540,540,540,540,540,540,540,540,540,540,540,540,540,540,540,540,540,540,540,540,540,540,540,540,540,540,540,540,540,540,540,540,536,527,520,512,503,474,463,452,427,402,341,326,318,308,297,276,248,225,202,184,168,165,161,157,152,132,125,110,105,100,93,85,77,67,64,60,60,59,58,58],"timestamp_mouse":[9,35,41,62,81,100,121,141,161,181,201,220,240,260,280,301,322,342,361,380,400,421,441,462,480,501,520,541,561,581,600,621,641,661,681,702,721,741,760,780,800,820,841,860,880,900,922,940,960,980,1001,1020,1042,1060,1080,1102,1121,1140,1160,1180,1201,1220,1240,1261,1282,1301,1321,1340,1361,1381,1401,1421,1440,1460,1480,1501,1520],"xSR":741.5,"ySR":469.95,"xT1":424.9,"yT1":0,"xT2":1058.1,"yT2":0,"toosoon":0,"cond_shown":"randomdotsizeEA","ratio_trial":500,"smaller_num":"2","larger_num":"4","correct_side":1,"subjID":"anaisabellamuñosrojas10","gender":"1","age":"9","school":"4"},{"start_time":1552309033301,"click_time":1552309033958,"finger_time":1552309033919,"fix_duration":1439.956500105739,"trial":36,"RT":618,"MT":39,"sideResp":1,"stimulus":"img/250/equaldotanddens/L/2_Ratio_250_L_16_R_4.png","xmouse":[793,793,793,793,793,793,793,793,793,793,793,793,793,793,793,793,793,793,793,793,793,793,793,793,793,793,793,793,780,763,724,672,504],"ymouse":[526,526,526,526,526,526,526,526,526,526,526,526,526,526,526,526,526,526,526,526,526,526,526,526,526,526,526,526,503,474,397,301,45],"timestamp_mouse":[17,44,57,78,98,117,139,159,178,199,218,237,257,279,298,318,337,358,379,397,418,437,459,477,498,518,538,559,577,597,618,638,657],"xSR":741.5,"ySR":469.95,"xT1":424.9,"yT1":0,"xT2":1058.1,"yT2":0,"toosoon":0,"cond_shown":"equaldotanddens","ratio_trial":250,"smaller_num":"4","larger_num":"16","correct_side":1,"subjID":"anaisabellamuñosrojas10","gender":"1","age":"9","school":"4"},{"start_time":1552309036385,"click_time":1552309037559,"finger_time":1552309037138,"fix_duration":625.6036838771851,"trial":37,"RT":753,"MT":421,"sideResp":2,"stimulus":"img/900/randomdotsizeEA/R/15_Ratio_900_L_9_R_10.png","xmouse":[759,759,759,759,759,759,759,759,759,759,759,759,759,759,759,759,759,759,759,759,759,759,759,759,759,759,759,759,759,759,759,759,759,759,759,764,786,936,1216,1339,1419,1443,1441,1413,1396,1382,1371,1365,1336,1317,1295,1270,1242,1197,1182,1170,1165,1162,1158],"ymouse":[491,491,491,491,491,491,491,491,491,491,491,491,491,491,491,491,491,491,491,491,491,491,491,491,491,491,491,491,491,491,491,491,491,491,491,491,487,463,367,297,235,188,163,117,98,84,74,71,57,51,46,43,40,31,26,21,18,15,11],"timestamp_mouse":[14,34,53,74,99,114,134,153,173,194,214,234,253,273,294,314,333,354,373,393,413,435,453,473,494,515,534,553,573,595,614,633,653,674,693,714,734,753,774,793,814,834,853,874,893,913,933,954,974,993,1014,1033,1054,1074,1093,1113,1133,1153,1174],"xSR":741.5,"ySR":469.95,"xT1":424.9,"yT1":0,"xT2":1058.1,"yT2":0,"toosoon":0,"cond_shown":"randomdotsizeEA","ratio_trial":900,"smaller_num":"9","larger_num":"10","correct_side":2,"subjID":"anaisabellamuñosrojas10","gender":"1","age":"9","school":"4"},{"start_time":1552309039257,"click_time":1552309040340,"finger_time":1552309040160,"fix_duration":957.4277822774271,"trial":38,"RT":903,"MT":180,"sideResp":1,"stimulus":"img/900/randomdotsizeEA/L/8_Ratio_900_L_20_R_18.png","xmouse":[778,778,778,778,778,778,778,778,778,778,778,778,778,778,778,778,778,778,778,778,778,778,778,778,778,778,778,778,778,778,778,778,778,778,778,778,778,778,778,778,778,777,774,768,760,733,719,702,688,663,638,582,558,519,499],"ymouse":[524,524,524,524,524,524,524,524,524,524,524,524,524,524,524,524,524,524,524,524,524,524,524,524,524,524,524,524,524,524,524,524,524,524,524,524,524,524,524,524,524,524,523,520,514,495,475,447,419,377,329,219,170,103,75],"timestamp_mouse":[9,22,42,61,81,101,121,141,162,181,201,221,242,262,283,302,322,341,361,381,402,421,441,462,481,502,523,542,561,581,601,621,642,662,681,701,721,741,763,782,802,823,841,862,881,903,922,941,961,981,1001,1021,1041,1061,1082],"xSR":741.5,"ySR":469.95,"xT1":424.9,"yT1":0,"xT2":1058.1,"yT2":0,"toosoon":0,"cond_shown":"randomdotsizeEA","ratio_trial":900,"smaller_num":"18","larger_num":"20","correct_side":1,"subjID":"anaisabellamuñosrojas10","gender":"1","age":"9","school":"4"},{"start_time":1552309044307,"click_time":1552309045479,"finger_time":1552309045079,"fix_duration":1486.661041608104,"trial":39,"RT":772,"MT":400,"sideResp":2,"stimulus":"img/250/equaldotsize/R/9_Ratio_250_L_3_R_12.png","xmouse":[791,791,791,791,791,791,791,791,791,791,791,791,791,791,791,791,791,791,791,791,791,791,791,791,791,791,791,791,791,791,791,791,791,791,791,801,807,833,894,920,939,956,980,1013,1025,1034,1040,1041,1041,1041,1041,1041,1041,1045,1050,1052,1053,1057,1061],"ymouse":[530,530,530,530,530,530,530,530,530,530,530,530,530,530,530,530,530,530,530,530,530,530,530,530,530,530,530,530,530,530,530,530,530,530,530,518,511,481,409,367,328,285,229,150,128,111,98,93,88,87,86,84,79,74,66,64,63,61,57],"timestamp_mouse":[12,33,52,73,93,112,132,152,172,193,213,232,252,271,292,312,332,353,372,392,412,432,451,471,493,513,533,553,573,593,611,633,653,673,692,712,732,753,772,792,812,832,851,872,892,912,933,953,972,992,1012,1032,1052,1072,1093,1113,1131,1152,1172],"xSR":741.5,"ySR":469.95,"xT1":424.9,"yT1":0,"xT2":1058.1,"yT2":0,"toosoon":0,"cond_shown":"equaldotsize","ratio_trial":250,"smaller_num":"3","larger_num":"12","correct_side":2,"subjID":"anaisabellamuñosrojas10","gender":"1","age":"9","school":"4"},{"start_time":1552309047582,"click_time":1552309048558,"finger_time":1552309048219,"fix_duration":1080.4485476062184,"trial":40,"RT":637,"MT":339,"sideResp":1,"stimulus":"img/250/equaldotsize/L/7_Ratio_250_L_8_R_2.png","xmouse":[785,785,785,785,785,785,785,785,785,785,785,785,785,785,785,785,785,785,785,785,785,785,785,785,785,785,785,785,785,785,777,739,695,642,544,518,508,506,505,504,504,503,502,501,501,501,503,504,504],"ymouse":[501,501,501,501,501,501,501,501,501,501,501,501,501,501,501,501,501,501,501,501,501,501,501,501,501,501,501,501,501,501,493,442,379,310,199,171,160,156,155,154,153,151,148,145,140,133,123,109,96],"timestamp_mouse":[23,38,63,76,98,117,137,158,178,198,218,237,257,277,297,318,337,358,378,397,418,437,457,478,498,518,538,558,578,597,616,637,658,677,698,717,737,757,778,798,817,837,857,877,898,917,938,958,976],"xSR":741.5,"ySR":469.95,"xT1":424.9,"yT1":0,"xT2":1058.1,"yT2":0,"toosoon":0,"cond_shown":"equaldotsize","ratio_trial":250,"smaller_num":"2","larger_num":"8","correct_side":1,"subjID":"anaisabellamuñosrojas10","gender":"1","age":"9","school":"4"},{"start_time":1552309049612,"click_time":1552309050680,"finger_time":1552309050580,"fix_duration":250,"trial":41,"RT":968,"MT":100,"sideResp":1,"stimulus":"img/900/equaldotanddens/L/2_Ratio_900_L_20_R_18.png","xmouse":[798,798,798,798,798,798,798,798,798,798,798,798,798,798,798,798,798,798,798,798,798,798,798,798,796,795,795,795,794,794,794,794,794,794,794,794,794,794,794,794,794,794,794,794,794,790,787,776,756,655,604,557,528,514],"ymouse":[502,502,502,502,502,502,502,502,502,502,504,504,504,505,505,505,505,505,505,505,505,505,505,508,512,514,516,517,517,517,517,517,517,517,517,517,517,517,517,517,517,517,517,517,517,505,496,471,428,264,198,144,109,92],"timestamp_mouse":[13,37,48,68,88,108,128,147,167,188,207,227,247,268,288,307,327,348,368,387,406,427,448,467,487,508,527,548,567,588,607,627,647,666,688,707,726,748,768,788,807,827,847,868,888,907,927,948,968,987,1007,1027,1048,1068],"xSR":741.5,"ySR":469.95,"xT1":424.9,"yT1":0,"xT2":1058.1,"yT2":0,"toosoon":0,"cond_shown":"equaldotanddens","ratio_trial":900,"smaller_num":"18","larger_num":"20","correct_side":1,"subjID":"anaisabellamuñosrojas10","gender":"1","age":"9","school":"4"},{"start_time":1552309052147,"click_time":1552309053279,"finger_time":1552309053059,"fix_duration":504.07540703830136,"trial":42,"RT":912,"MT":220,"sideResp":1,"stimulus":"img/900/equaldotsize/R/3_Ratio_900_L_9_R_10.png","xmouse":[798,798,798,798,798,798,798,798,798,798,798,798,798,798,798,798,798,798,798,798,798,798,798,798,798,798,798,798,798,798,798,798,798,798,798,798,798,798,798,798,798,798,798,797,792,782,756,665,615,577,554,543,524,511,494,468,434],"ymouse":[495,495,495,495,495,495,495,495,495,495,495,495,495,495,495,495,495,495,495,495,495,495,495,495,495,495,495,495,495,495,495,495,495,495,495,495,495,495,495,495,494,493,489,484,475,458,423,325,277,234,198,181,152,140,128,113,94],"timestamp_mouse":[12,32,52,72,91,113,133,152,172,191,213,233,253,273,293,313,334,353,372,392,411,432,453,473,492,513,532,552,572,592,613,632,652,673,693,712,733,752,773,791,813,833,852,873,893,912,933,953,972,992,1011,1033,1053,1072,1092,1113,1132],"xSR":741.5,"ySR":469.95,"xT1":424.9,"yT1":0,"xT2":1058.1,"yT2":0,"toosoon":0,"cond_shown":"equaldotsize","ratio_trial":900,"smaller_num":"9","larger_num":"10","correct_side":2,"subjID":"anaisabellamuñosrojas10","gender":"1","age":"9","school":"4"},{"start_time":1552309056738,"click_time":1552309057940,"finger_time":1552309057599,"fix_duration":1116.7966353933546,"trial":43,"RT":861,"MT":341,"sideResp":1,"stimulus":"img/900/randomdotsizeEA/R/15_Ratio_900_L_9_R_10.png","xmouse":[787,787,788,788,788,788,788,788,788,788,788,788,788,788,788,788,788,788,788,788,788,788,788,788,788,788,788,788,788,788,788,788,788,788,788,788,788,788,788,788,788,788,779,756,670,628,603,594,591,589,589,587,585,581,579,576,571,561,533,508,502],"ymouse":[519,519,520,520,520,520,520,520,520,520,520,520,520,520,520,520,520,520,520,520,520,520,520,520,520,520,520,520,520,520,520,520,520,520,520,520,520,520,520,520,520,507,470,411,266,209,175,162,157,154,154,151,150,146,144,141,138,130,111,100,95],"timestamp_mouse":[10,22,43,61,82,102,121,142,161,182,201,221,242,260,282,301,321,340,361,382,401,422,442,460,482,501,522,542,562,581,600,621,641,661,682,701,720,741,760,782,801,822,842,861,881,902,921,942,961,981,1001,1021,1041,1063,1080,1102,1121,1140,1163,1181,1202],"xSR":741.5,"ySR":469.95,"xT1":424.9,"yT1":0,"xT2":1058.1,"yT2":0,"toosoon":0,"cond_shown":"randomdotsizeEA","ratio_trial":900,"smaller_num":"9","larger_num":"10","correct_side":2,"subjID":"anaisabellamuñosrojas10","gender":"1","age":"9","school":"4"},{"start_time":1552309058911,"click_time":1552309060340,"finger_time":1552309060019,"fix_duration":250,"trial":44,"RT":1108,"MT":321,"sideResp":2,"stimulus":"img/750/randomdotsizeEA/R/15_Ratio_750_L_9_R_12.png","xmouse":[790,790,790,790,790,790,790,790,790,790,790,790,790,790,790,790,789,789,789,789,789,789,789,789,789,789,789,789,789,789,789,789,789,789,789,789,789,789,789,789,789,789,789,789,789,789,789,789,789,789,789,789,788,797,811,859,892,921,934,939,947,951,956,962,971,996,1009,1021,1036,1050,1075,1082],"ymouse":[510,513,513,513,513,513,513,513,513,513,513,513,513,513,513,513,514,514,514,514,514,514,514,514,514,514,514,514,514,514,514,514,514,514,514,514,514,514,514,514,514,514,514,514,514,514,514,514,514,514,514,514,515,508,493,423,362,299,263,241,208,200,193,185,175,158,151,144,136,124,107,99],"timestamp_mouse":[10,27,48,68,89,108,128,149,168,189,208,229,248,267,289,308,328,348,368,389,408,429,449,468,489,508,528,549,568,589,609,627,648,669,688,709,728,749,769,788,808,829,848,869,889,908,928,949,968,988,1008,1028,1049,1068,1088,1108,1128,1148,1168,1188,1208,1228,1248,1269,1288,1307,1328,1348,1368,1389,1408,1429],"xSR":741.5,"ySR":469.95,"xT1":424.9,"yT1":0,"xT2":1058.1,"yT2":0,"toosoon":0,"cond_shown":"randomdotsizeEA","ratio_trial":750,"smaller_num":"9","larger_num":"12","correct_side":2,"subjID":"anaisabellamuñosrojas10","gender":"1","age":"9","school":"4"},{"start_time":1552309063996,"click_time":1552309065720,"finger_time":1552309064740,"fix_duration":1355.0332782734945,"trial":45,"RT":744,"MT":980,"sideResp":2,"stimulus":"img/750/equaldotsize/R/5_Ratio_750_L_15_R_20.png","xmouse":[779,779,779,779,780,780,780,780,780,780,780,780,780,780,781,781,781,781,781,781,781,781,781,781,781,781,781,781,781,781,781,781,781,781,781,782,827,859,888,929,951,967,969,970,973,977,991,999,1007,1016,1024,1040,1056,1063,1071,1079,1087,1089,1090,1091,1091,1091,1091,1091,1091,1091,1091,1091,1091,1091,1091,1091,1091,1091,1090,1090,1090,1090,1090,1090,1090,1090,1090,1090,1090,1090,1090],"ymouse":[520,520,520,520,521,521,521,521,521,521,521,521,521,521,521,521,521,521,521,521,521,521,521,521,521,521,521,521,521,521,521,521,521,521,521,521,514,502,489,460,443,418,406,395,381,354,319,305,290,277,261,225,192,175,159,148,139,135,133,130,127,124,124,124,124,124,124,124,124,123,122,120,115,114,113,113,111,111,110,110,109,108,108,106,105,102,99],"timestamp_mouse":[12,37,44,63,83,103,123,142,164,184,203,223,244,263,283,304,324,343,364,383,402,423,444,464,484,504,524,544,563,582,604,623,643,662,683,703,724,744,763,784,804,825,843,863,882,903,924,942,963,983,1003,1025,1043,1062,1084,1102,1124,1142,1163,1184,1203,1225,1243,1264,1284,1303,1324,1344,1362,1384,1404,1423,1443,1463,1483,1504,1525,1542,1563,1583,1604,1625,1642,1664,1683,1703,1724],"xSR":741.5,"ySR":469.95,"xT1":424.9,"yT1":0,"xT2":1058.1,"yT2":0,"toosoon":0,"cond_shown":"equaldotsize","ratio_trial":750,"smaller_num":"15","larger_num":"20","correct_side":2,"subjID":"anaisabellamuñosrojas10","gender":"1","age":"9","school":"4"},{"start_time":1552309067131,"click_time":1552309069160,"finger_time":1552309068539,"fix_duration":291.64470871963965,"trial":46,"RT":1408,"MT":621,"sideResp":1,"stimulus":"img/900/randomdotsizeEA/R/14_Ratio_900_L_18_R_20.png","xmouse":[803,803,803,803,803,803,803,803,803,803,803,803,803,803,803,803,803,803,803,803,803,803,803,803,803,803,803,803,803,803,803,803,803,803,803,803,803,803,803,803,803,803,803,803,803,803,803,803,803,803,803,803,803,803,803,803,803,803,803,803,803,803,803,803,802,797,795,790,780,761,640,579,536,514,501,492,490,488,488,488,488,488,490,493,493,493,493,493,493,493,493,493,493,493,493,493,493,493,493,494,495,496],"ymouse":[515,515,515,515,515,515,515,515,515,515,515,515,515,515,515,515,515,515,515,515,515,515,515,515,515,515,515,515,515,515,515,515,515,515,515,515,515,515,515,515,515,515,515,515,515,515,515,515,515,515,515,515,515,515,515,515,515,515,515,515,515,515,515,515,515,515,514,511,504,487,386,340,301,266,245,218,207,199,190,180,157,147,141,136,131,120,116,115,113,112,112,111,111,111,111,111,111,108,107,106,101,99],"timestamp_mouse":[10,28,48,69,88,109,129,149,169,187,208,228,249,268,288,308,328,348,368,388,409,428,448,468,488,509,529,548,568,588,608,628,649,667,688,708,728,748,768,788,807,828,847,868,889,909,929,948,968,988,1008,1028,1049,1068,1088,1109,1128,1148,1168,1188,1209,1228,1249,1269,1288,1308,1337,1349,1368,1388,1408,1428,1448,1469,1488,1508,1528,1548,1568,1589,1608,1628,1648,1668,1688,1708,1728,1749,1768,1788,1808,1828,1849,1868,1888,1908,1927,1952,1968,1988,2007,2029],"xSR":741.5,"ySR":469.95,"xT1":424.9,"yT1":0,"xT2":1058.1,"yT2":0,"toosoon":0,"cond_shown":"randomdotsizeEA","ratio_trial":900,"smaller_num":"18","larger_num":"20","correct_side":2,"subjID":"anaisabellamuñosrojas10","gender":"1","age":"9","school":"4"},{"start_time":1552309070452,"click_time":1552309071419,"finger_time":1552309070860,"fix_duration":250,"trial":47,"RT":408,"MT":559,"sideResp":2,"stimulus":"img/750/equaldotsize/R/7_Ratio_750_L_3_R_4.png","xmouse":[774,774,774,774,774,774,774,774,774,774,774,774,774,774,774,779,789,801,806,819,836,870,921,976,1051,1059,1060,1060,1060,1060,1060,1060,1059,1056,1053,1053,1052,1052,1052,1052,1052,1052,1052,1052,1057,1063,1067,1072,1076],"ymouse":[501,501,501,501,501,501,501,501,501,501,501,501,501,501,501,501,501,501,500,479,454,400,339,284,223,216,215,215,215,214,214,213,213,213,213,213,213,213,213,213,213,213,212,208,182,164,142,116,96],"timestamp_mouse":[10,27,47,68,86,107,128,147,168,187,208,228,248,266,286,307,328,348,367,387,408,427,448,468,488,508,527,547,568,587,607,627,647,668,687,707,728,747,767,787,807,828,848,867,888,908,927,948,967],"xSR":741.5,"ySR":469.95,"xT1":424.9,"yT1":0,"xT2":1058.1,"yT2":0,"toosoon":0,"cond_shown":"equaldotsize","ratio_trial":750,"smaller_num":"3","larger_num":"4","correct_side":2,"subjID":"anaisabellamuñosrojas10","gender":"1","age":"9","school":"4"},{"start_time":1552309079512,"click_time":1552309081319,"finger_time":1552309080659,"fix_duration":250,"trial":48,"RT":1147,"MT":660,"sideResp":1,"stimulus":"img/900/equaldotsize/L/2_Ratio_900_L_20_R_18.png","xmouse":[793,793,793,793,793,793,793,793,793,793,793,793,793,793,793,793,793,793,793,793,793,793,793,793,793,793,793,793,793,793,793,793,793,793,793,793,793,793,793,793,793,793,793,793,793,793,793,793,793,793,793,793,793,793,793,786,779,735,717,703,699,696,693,686,676,661,645,623,616,609,599,588,563,550,537,526,512,487,485,484,483,483,483,483,483,483,483,483,483,481,479],"ymouse":[497,497,497,497,497,497,497,497,497,497,497,497,497,497,497,497,497,497,497,497,497,497,497,497,497,497,497,497,497,497,497,497,497,497,497,497,497,497,497,497,497,497,497,497,497,497,497,497,497,497,497,497,497,497,497,493,488,464,453,445,441,437,431,422,406,385,363,322,304,288,270,253,208,186,167,153,138,115,113,113,112,112,112,112,112,112,112,112,111,106,98],"timestamp_mouse":[21,30,48,67,86,107,127,147,168,186,207,227,247,266,287,307,327,347,366,387,408,427,447,468,487,507,528,548,568,587,606,627,648,668,688,707,728,747,768,788,807,827,847,867,887,907,928,947,967,987,1008,1027,1047,1068,1088,1107,1126,1147,1167,1187,1207,1227,1248,1266,1288,1307,1328,1348,1367,1387,1408,1428,1448,1467,1487,1507,1528,1547,1567,1587,1607,1626,1647,1668,1688,1708,1727,1747,1767,1787,1807],"xSR":741.5,"ySR":469.95,"xT1":424.9,"yT1":0,"xT2":1058.1,"yT2":0,"toosoon":0,"cond_shown":"equaldotsize","ratio_trial":900,"smaller_num":"18","larger_num":"20","correct_side":1,"subjID":"anaisabellamuñosrojas10","gender":"1","age":"9","school":"4"},{"start_time":1552309083826,"click_time":1552309085139,"finger_time":1552309084579,"fix_duration":984.4342645388308,"trial":49,"RT":753,"MT":560,"sideResp":2,"stimulus":"img/250/randomdotsizeEA/R/12_Ratio_250_L_5_R_20.png","xmouse":[771,771,771,771,771,771,771,771,771,771,771,771,771,771,771,771,771,771,771,771,771,771,771,771,771,771,771,771,771,771,771,771,771,772,779,794,807,830,841,851,870,893,925,938,960,974,980,988,992,995,1000,1009,1023,1027,1030,1032,1034,1034,1034,1034,1034,1034,1034,1034,1034,1061],"ymouse":[517,517,517,517,517,517,517,517,517,517,517,517,517,517,517,517,517,517,517,517,517,517,517,517,517,517,517,517,517,517,517,517,517,516,509,496,484,450,432,410,376,332,295,283,259,238,217,188,175,164,148,128,73,49,27,14,1,1,1,1,1,1,1,1,1,4],"timestamp_mouse":[13,34,53,73,92,113,133,154,173,193,213,234,253,273,294,312,334,354,373,392,414,433,453,474,494,513,533,554,574,593,614,633,654,673,694,713,732,753,773,793,814,833,853,873,893,914,934,952,974,993,1013,1034,1052,1073,1093,1114,1134,1153,1172,1194,1213,1234,1253,1274,1293,1313],"xSR":741.5,"ySR":469.95,"xT1":424.9,"yT1":0,"xT2":1058.1,"yT2":0,"toosoon":0,"cond_shown":"randomdotsizeEA","ratio_trial":250,"smaller_num":"5","larger_num":"20","correct_side":2,"subjID":"anaisabellamuñosrojas10","gender":"1","age":"9","school":"4"},{"start_time":1552309087113,"click_time":1552309088439,"finger_time":1552309088079,"fix_duration":990.0546856220246,"trial":50,"RT":966,"MT":360,"sideResp":1,"stimulus":"img/750/randomdotsizeEA/R/7_Ratio_750_L_3_R_4.png","xmouse":[819,819,819,819,819,819,819,819,819,819,819,819,819,819,819,819,819,819,819,819,819,819,819,819,819,819,819,819,819,819,819,819,819,819,819,819,819,819,819,819,819,819,818,814,808,797,784,759,618,540,468,400,359,338,325,324,323,328,328,335,341,347,355,382,401,424,452],"ymouse":[536,536,536,536,536,536,536,536,536,536,536,536,536,536,536,536,536,536,536,536,536,536,536,536,536,536,536,536,536,536,536,536,536,536,536,536,536,536,536,536,536,536,536,536,536,535,525,503,381,311,237,171,133,114,93,82,63,42,42,33,31,29,28,28,33,38,46],"timestamp_mouse":[10,26,46,66,86,106,125,146,166,185,206,226,247,266,287,307,327,346,367,386,407,427,446,466,487,506,525,545,566,586,607,625,647,666,685,707,727,746,766,786,807,826,846,865,886,906,927,945,966,987,1007,1026,1046,1066,1086,1106,1127,1157,1166,1186,1206,1227,1247,1267,1285,1306,1326],"xSR":741.5,"ySR":469.95,"xT1":424.9,"yT1":0,"xT2":1058.1,"yT2":0,"toosoon":0,"cond_shown":"randomdotsizeEA","ratio_trial":750,"smaller_num":"3","larger_num":"4","correct_side":2,"subjID":"anaisabellamuñosrojas10","gender":"1","age":"9","school":"4"},{"start_time":1552309090230,"click_time":1552309091339,"finger_time":1552309091000,"fix_duration":250,"trial":51,"RT":770,"MT":339,"sideResp":2,"stimulus":"img/900/equaldotsize/L/2_Ratio_900_L_20_R_18.png","xmouse":[788,788,788,788,788,788,788,788,788,788,788,788,788,788,788,788,788,788,788,788,788,788,788,788,788,788,788,788,788,788,788,788,788,788,788,788,792,835,888,951,999,1045,1071,1071,1070,1070,1073,1080,1094,1100,1102,1102,1096,1095,1095,1095],"ymouse":[508,508,508,508,508,508,508,508,508,508,508,508,508,508,508,508,508,508,508,508,508,508,508,508,508,508,508,508,508,508,508,508,508,508,508,508,508,484,456,423,394,357,300,280,269,256,239,219,177,159,145,131,115,110,102,91],"timestamp_mouse":[12,36,49,70,89,109,130,148,169,190,209,228,250,270,289,310,329,350,370,389,410,430,449,469,490,510,529,549,570,590,610,630,649,670,688,708,730,750,770,789,808,829,850,869,889,909,930,949,969,989,1008,1028,1050,1069,1089,1109],"xSR":741.5,"ySR":469.95,"xT1":424.9,"yT1":0,"xT2":1058.1,"yT2":0,"toosoon":0,"cond_shown":"equaldotsize","ratio_trial":900,"smaller_num":"18","larger_num":"20","correct_side":1,"subjID":"anaisabellamuñosrojas10","gender":"1","age":"9","school":"4"},{"start_time":1552309093561,"click_time":1552309094719,"finger_time":1552309094379,"fix_duration":979.8215075881408,"trial":52,"RT":818,"MT":340,"sideResp":2,"stimulus":"img/500/equaldotanddens/R/15_Ratio_500_L_1_R_2.png","xmouse":[817,817,817,817,817,817,817,817,817,817,817,817,817,817,817,817,817,817,817,817,817,817,817,817,817,817,817,817,817,817,817,817,817,817,817,817,817,817,820,826,853,912,943,954,968,987,1018,1025,1027,1029,1030,1032,1032,1032,1034,1038,1057,1077],"ymouse":[526,526,526,526,526,526,526,526,526,526,526,526,526,526,526,526,526,526,526,526,526,526,526,526,526,526,526,526,526,526,526,526,526,526,526,526,526,526,524,516,477,371,294,251,205,149,101,92,86,81,75,70,70,70,69,69,69,66],"timestamp_mouse":[18,46,59,79,99,118,138,159,179,198,219,238,258,279,298,318,338,359,378,399,418,438,458,477,499,519,537,557,579,599,619,638,659,679,698,717,738,758,779,799,818,838,859,878,897,918,938,958,978,999,1018,1038,1059,1078,1098,1118,1138,1158],"xSR":741.5,"ySR":469.95,"xT1":424.9,"yT1":0,"xT2":1058.1,"yT2":0,"toosoon":0,"cond_shown":"equaldotanddens","ratio_trial":500,"smaller_num":"1","larger_num":"2","correct_side":2,"subjID":"anaisabellamuñosrojas10","gender":"1","age":"9","school":"4"},{"start_time":1552309096921,"click_time":1552309098120,"finger_time":1552309097620,"fix_duration":1420.9755706909473,"trial":53,"RT":699,"MT":500,"sideResp":1,"stimulus":"img/250/equaldotanddens/L/2_Ratio_250_L_16_R_4.png","xmouse":[796,796,796,796,796,796,796,796,796,796,796,796,796,796,796,796,796,796,796,796,796,796,796,796,796,796,796,796,796,796,789,785,775,742,703,662,623,587,581,597,597,597,597,597,597,597,597,597,597,597,597,534,530,528,528,528,528,528,528,523],"ymouse":[523,523,523,523,523,523,523,523,523,523,523,523,523,523,523,523,523,523,523,523,523,523,523,523,523,523,523,523,523,523,524,524,523,482,420,358,303,256,115,27,27,27,27,27,27,27,27,27,27,27,27,23,32,35,35,35,35,35,35,39],"timestamp_mouse":[18,42,59,77,99,118,138,159,179,198,217,238,258,279,299,317,338,359,378,399,418,439,459,478,497,519,538,559,578,599,619,639,658,678,699,718,739,758,779,798,817,838,858,879,899,918,938,958,978,998,1018,1038,1058,1079,1098,1118,1137,1157,1178,1198],"xSR":741.5,"ySR":469.95,"xT1":424.9,"yT1":0,"xT2":1058.1,"yT2":0,"toosoon":0,"cond_shown":"equaldotanddens","ratio_trial":250,"smaller_num":"4","larger_num":"16","correct_side":1,"subjID":"anaisabellamuñosrojas10","gender":"1","age":"9","school":"4"},{"start_time":1552309101657,"click_time":1552309102979,"finger_time":1552309102419,"fix_duration":396.63651661727863,"trial":54,"RT":762,"MT":560,"sideResp":1,"stimulus":"img/500/randomdotsizeEA/R/1_Ratio_500_L_9_R_18.png","xmouse":[778,778,778,778,778,778,778,778,778,778,778,778,778,778,778,778,778,778,778,778,778,778,778,778,778,778,778,778,778,778,778,778,778,778,778,778,778,777,750,723,695,667,638,597,587,578,569,562,558,557,554,553,553,552,552,552,552,552,552,552,552,551,549,544,541,534,524],"ymouse":[531,531,531,531,531,531,531,531,531,531,531,531,531,531,531,531,531,531,531,531,531,531,531,531,531,531,531,531,531,531,531,531,531,531,531,531,531,531,455,393,340,293,240,148,127,110,98,88,78,72,64,60,59,57,57,57,57,57,57,57,57,57,57,55,55,55,55],"timestamp_mouse":[10,22,43,62,82,102,123,142,163,182,202,223,241,263,282,302,322,342,363,383,402,423,443,463,482,503,523,542,562,582,602,623,643,663,681,703,722,743,762,783,803,822,842,862,883,902,923,942,962,982,1002,1022,1043,1062,1082,1103,1122,1143,1163,1188,1202,1222,1243,1261,1283,1302,1322],"xSR":741.5,"ySR":469.95,"xT1":424.9,"yT1":0,"xT2":1058.1,"yT2":0,"toosoon":0,"cond_shown":"randomdotsizeEA","ratio_trial":500,"smaller_num":"9","larger_num":"18","correct_side":2,"subjID":"anaisabellamuñosrojas10","gender":"1","age":"9","school":"4"},{"start_time":1552309103992,"click_time":1552309105120,"finger_time":1552309104860,"fix_duration":250,"trial":55,"RT":868,"MT":260,"sideResp":1,"stimulus":"img/750/randomdotsizeEA/L/9_Ratio_750_L_4_R_3.png","xmouse":[757,757,757,757,756,757,765,767,769,769,769,769,769,769,769,769,769,769,769,769,769,769,769,769,769,769,770,771,771,771,771,771,771,771,771,771,771,771,771,771,771,771,761,740,715,686,619,596,577,561,547,535,534,532,530,528,524],"ymouse":[501,501,501,501,501,503,514,516,518,519,519,519,519,519,519,519,519,519,519,519,519,519,519,519,519,519,519,519,519,519,519,519,519,519,519,519,519,519,519,519,519,513,488,446,402,351,239,192,148,122,102,83,78,72,65,60,50],"timestamp_mouse":[6,28,57,66,87,108,127,148,168,187,207,226,246,268,287,307,327,347,368,388,407,428,448,467,489,508,527,547,569,588,608,627,647,667,688,707,727,747,769,787,807,827,848,868,887,909,927,947,967,987,1007,1027,1047,1067,1087,1107,1128],"xSR":741.5,"ySR":469.95,"xT1":424.9,"yT1":0,"xT2":1058.1,"yT2":0,"toosoon":0,"cond_shown":"randomdotsizeEA","ratio_trial":750,"smaller_num":"3","larger_num":"4","correct_side":1,"subjID":"anaisabellamuñosrojas10","gender":"1","age":"9","school":"4"},{"start_time":1552309110607,"click_time":1552309111880,"finger_time":1552309111499,"fix_duration":1107.4626997735331,"trial":56,"RT":892,"MT":381,"sideResp":1,"stimulus":"img/900/equaldotanddens/L/10_Ratio_900_L_20_R_18.png","xmouse":[777,777,777,777,777,777,777,777,777,777,777,777,777,777,777,777,777,777,777,777,777,777,777,777,777,777,777,777,777,777,777,777,777,777,777,777,777,777,777,777,777,773,766,751,731,700,594,529,463,414,389,378,378,378,378,378,378,378,380,383,388,410,419,425],"ymouse":[540,540,540,540,540,540,540,540,540,540,540,540,540,540,540,540,540,540,540,540,540,540,540,540,540,540,540,540,540,540,540,540,540,540,540,540,540,540,540,540,540,540,538,531,517,491,383,326,272,230,208,194,194,191,187,176,144,136,130,126,121,104,95,87],"timestamp_mouse":[24,48,54,72,92,112,132,153,173,193,213,232,253,273,293,312,332,352,372,392,412,433,452,473,494,512,533,553,573,592,613,632,652,673,693,713,733,752,772,792,813,832,853,873,892,913,933,954,972,993,1013,1032,1052,1073,1093,1113,1132,1153,1172,1192,1213,1232,1253,1273],"xSR":741.5,"ySR":469.95,"xT1":424.9,"yT1":0,"xT2":1058.1,"yT2":0,"toosoon":0,"cond_shown":"equaldotanddens","ratio_trial":900,"smaller_num":"18","larger_num":"20","correct_side":1,"subjID":"anaisabellamuñosrojas10","gender":"1","age":"9","school":"4"},{"start_time":1552309113249,"click_time":1552309114900,"finger_time":1552309114120,"fix_duration":667.5549130549283,"trial":57,"RT":871,"MT":780,"sideResp":2,"stimulus":"img/250/equaldotsize/R/8_Ratio_250_L_1_R_4.png","xmouse":[814,814,814,814,814,814,814,814,814,814,814,814,814,814,814,814,814,814,814,814,814,814,814,814,814,814,814,814,814,814,814,814,814,814,814,814,814,814,814,814,814,820,833,848,872,879,884,887,888,890,890,890,890,885,878,875,874,874,874,874,874,873,873,873,875,877,884,895,913,963,978,989,996,1002,1005,1008,1010,1015,1027,1047,1052,1057,1063],"ymouse":[537,537,537,537,537,537,537,537,537,537,537,537,537,537,537,537,537,537,537,537,537,537,537,537,537,537,537,537,537,537,537,537,537,537,537,537,537,537,537,527,514,498,477,456,422,408,399,391,384,381,381,381,380,380,380,380,380,380,380,380,380,379,373,364,351,346,335,322,303,255,235,212,193,179,170,163,159,151,133,109,99,92,85],"timestamp_mouse":[11,30,51,70,91,110,130,151,171,190,211,232,252,271,290,311,330,351,371,390,411,431,452,471,490,510,531,552,570,591,611,631,651,670,690,710,730,751,772,790,811,831,850,871,890,910,931,950,970,991,1010,1030,1050,1070,1091,1110,1130,1150,1171,1191,1211,1231,1251,1271,1291,1310,1330,1350,1370,1391,1411,1431,1450,1471,1490,1511,1531,1551,1571,1591,1610,1630,1650],"xSR":741.5,"ySR":469.95,"xT1":424.9,"yT1":0,"xT2":1058.1,"yT2":0,"toosoon":0,"cond_shown":"equaldotsize","ratio_trial":250,"smaller_num":"1","larger_num":"4","correct_side":2,"subjID":"anaisabellamuñosrojas10","gender":"1","age":"9","school":"4"},{"start_time":1552309117328,"click_time":1552309118219,"finger_time":1552309118080,"fix_duration":866.2101695473261,"trial":58,"RT":752,"MT":139,"sideResp":2,"stimulus":"img/900/equaldotanddens/R/15_Ratio_900_L_9_R_10.png","xmouse":[763,763,763,763,763,763,763,763,763,763,763,763,763,763,763,763,763,763,763,763,763,763,763,763,763,763,763,763,763,763,763,763,763,763,763,764,775,801,848,905,958,1042,1069,1082,1094],"ymouse":[496,496,496,496,496,496,496,496,496,496,496,496,496,496,496,496,496,496,496,496,496,496,496,496,496,496,496,496,496,496,496,496,496,496,496,496,490,467,422,373,318,209,146,100,49],"timestamp_mouse":[12,31,61,71,91,112,132,153,172,191,212,232,251,272,292,311,333,351,372,391,412,431,452,472,491,511,533,551,572,592,611,632,652,672,693,711,732,752,772,791,812,831,852,871,891],"xSR":741.5,"ySR":469.95,"xT1":424.9,"yT1":0,"xT2":1058.1,"yT2":0,"toosoon":0,"cond_shown":"equaldotanddens","ratio_trial":900,"smaller_num":"9","larger_num":"10","correct_side":2,"subjID":"anaisabellamuñosrojas10","gender":"1","age":"9","school":"4"},{"start_time":1552309125871,"click_time":1552309126760,"finger_time":1552309126660,"fix_duration":250,"trial":59,"RT":789,"MT":100,"sideResp":1,"stimulus":"img/500/randomdotsizeEA/L/11_Ratio_500_L_12_R_6.png","xmouse":[785,785,785,785,785,785,785,785,785,785,785,785,785,785,785,785,785,785,785,785,785,785,785,785,785,785,785,785,785,785,785,785,785,785,785,785,785,783,775,719,659,591,499,463,452],"ymouse":[532,532,532,532,532,532,532,532,532,532,532,532,532,532,532,532,532,532,532,532,532,532,532,532,532,532,532,532,532,532,532,532,532,532,532,532,531,529,518,435,358,270,154,107,94],"timestamp_mouse":[10,29,49,70,89,108,128,148,168,189,208,228,249,269,289,309,328,348,369,389,408,429,448,469,489,508,529,548,569,588,608,629,648,668,689,708,728,749,768,789,808,828,848,868,889],"xSR":741.5,"ySR":469.95,"xT1":424.9,"yT1":0,"xT2":1058.1,"yT2":0,"toosoon":0,"cond_shown":"randomdotsizeEA","ratio_trial":500,"smaller_num":"6","larger_num":"12","correct_side":1,"subjID":"anaisabellamuñosrojas10","gender":"1","age":"9","school":"4"},{"start_time":1552309128368,"click_time":1552309129579,"finger_time":1552309129099,"fix_duration":486.4468586220553,"trial":60,"RT":731,"MT":480,"sideResp":1,"stimulus":"img/750/equaldotsize/R/2_Ratio_750_L_6_R_8.png","xmouse":[765,773,773,776,776,776,776,776,776,776,776,776,776,776,776,776,776,776,776,776,776,776,776,776,776,776,776,776,776,776,776,776,776,776,775,753,719,668,606,537,418,386,376,376,376,376,376,376,376,376,376,376,376,376,376,400,406,411,416,419,425],"ymouse":[518,518,518,518,518,518,518,518,518,518,518,518,518,518,518,518,518,518,518,518,518,518,518,518,518,518,518,518,518,518,518,518,518,518,518,495,455,393,314,230,79,31,5,5,5,5,5,5,5,5,5,5,5,5,5,3,11,16,20,23,35],"timestamp_mouse":[18,46,51,72,92,111,131,152,171,193,211,232,253,272,292,311,332,352,372,392,411,431,451,472,492,511,531,551,572,592,611,631,651,673,692,711,731,751,771,792,811,832,851,872,891,911,931,951,972,991,1011,1031,1051,1072,1091,1111,1131,1151,1171,1191,1211],"xSR":741.5,"ySR":469.95,"xT1":424.9,"yT1":0,"xT2":1058.1,"yT2":0,"toosoon":0,"cond_shown":"equaldotsize","ratio_trial":750,"smaller_num":"6","larger_num":"8","correct_side":2,"subjID":"anaisabellamuñosrojas10","gender":"1","age":"9","school":"4"},{"start_time":1552309133243,"click_time":1552309134339,"finger_time":1552309134000,"fix_duration":1182.6163507208466,"trial":61,"RT":757,"MT":339,"sideResp":2,"stimulus":"img/900/equaldotanddens/R/13_Ratio_900_L_18_R_20.png","xmouse":[789,789,789,789,789,789,789,789,789,789,789,789,789,789,789,789,789,789,789,789,789,789,789,789,789,789,789,789,789,789,789,789,789,798,803,814,826,850,887,898,932,948,967,976,982,989,1004,1014,1020,1029,1033,1042,1048,1054,1060],"ymouse":[545,545,545,545,545,545,545,545,545,545,545,545,545,545,545,545,545,545,545,545,545,545,545,545,545,545,545,545,545,545,545,545,545,534,528,515,501,464,407,388,341,318,279,263,249,232,194,176,162,140,131,109,100,89,79],"timestamp_mouse":[17,42,57,76,97,117,137,156,176,197,216,236,257,278,297,316,337,356,376,396,417,436,457,476,498,517,536,557,576,596,617,636,657,676,697,716,736,757,777,797,816,837,856,877,896,917,938,956,977,997,1016,1037,1056,1076,1096],"xSR":741.5,"ySR":469.95,"xT1":424.9,"yT1":0,"xT2":1058.1,"yT2":0,"toosoon":0,"cond_shown":"equaldotanddens","ratio_trial":900,"smaller_num":"18","larger_num":"20","correct_side":2,"subjID":"anaisabellamuñosrojas10","gender":"1","age":"9","school":"4"},{"start_time":1552309137946,"click_time":1552309141579,"finger_time":1552309140880,"fix_duration":1225.0954030221,"trial":62,"RT":2934,"MT":699,"sideResp":2,"stimulus":"img/250/equaldotsize/L/2_Ratio_250_L_16_R_4.png","xmouse":[766,766,766,766,766,766,766,766,766,766,766,766,766,766,766,766,766,766,766,766,766,766,766,766,766,766,766,766,766,766,766,766,766,766,766,766,766,766,766,766,766,766,766,766,766,766,766,766,766,766,766,766,766,766,766,766,766,766,766,766,766,766,766,766,766,766,766,766,766,766,766,766,766,766,766,766,766,766,766,766,766,766,766,766,766,766,766,766,766,766,766,766,766,766,766,766,766,766,766,765,765,765,765,765,765,765,765,765,765,765,765,765,765,765,767,774,780,785,793,795,795,795,795,795,795,795,795,795,791,790,787,786,784,784,784,784,784,784,784,784,784,784,784,788,800,819,839,883,895,902,909,916,946,973,991,1003,1013,1023,1028,1032,1033,1039,1046,1048,1049,1049,1050,1053,1053,1053,1053,1053,1053,1053,1053,1053,1053,1053,1054,1054,1056,1059],"ymouse":[536,536,536,536,536,536,536,536,536,536,536,536,536,536,536,536,536,536,536,536,536,536,536,536,537,538,540,541,542,542,543,544,544,544,544,544,544,544,544,544,544,544,544,544,544,544,544,544,544,544,544,544,544,544,544,544,544,544,544,544,544,544,544,544,544,544,544,544,544,544,544,544,544,544,544,544,544,544,544,544,544,544,544,544,544,544,544,544,544,544,544,544,544,544,544,544,544,544,545,547,549,549,549,549,549,549,549,549,549,549,549,549,549,549,542,529,515,504,488,485,484,484,484,484,484,484,485,489,506,509,517,522,528,528,529,529,529,529,529,529,529,529,529,528,515,491,467,406,382,362,340,322,255,207,177,161,149,130,120,111,104,90,69,61,58,55,51,45,44,44,44,44,44,44,44,44,44,44,44,44,48,53],"timestamp_mouse":[13,38,53,73,93,113,134,154,174,193,213,235,254,274,294,314,333,354,373,394,414,434,454,474,493,514,533,554,574,593,613,634,654,674,694,713,733,753,773,793,813,834,853,873,894,913,933,953,973,993,1013,1033,1053,1073,1094,1115,1134,1153,1173,1193,1214,1233,1255,1274,1293,1314,1333,1353,1374,1393,1414,1435,1453,1473,1494,1513,1533,1553,1574,1594,1614,1634,1653,1673,1694,1714,1733,1753,1774,1795,1814,1834,1853,1873,1893,1915,1933,1954,1973,1993,2014,2035,2053,2073,2094,2114,2135,2153,2173,2194,2214,2233,2253,2274,2295,2314,2333,2353,2374,2393,2414,2434,2453,2474,2495,2514,2533,2553,2574,2593,2614,2633,2653,2674,2693,2714,2734,2753,2773,2794,2815,2834,2853,2873,2893,2913,2934,2953,2974,2994,3014,3034,3054,3073,3093,3113,3135,3153,3173,3193,3214,3233,3254,3273,3294,3313,3334,3353,3373,3393,3415,3433,3454,3473,3494,3513,3534,3554,3573,3594,3614,3633],"xSR":741.5,"ySR":469.95,"xT1":424.9,"yT1":0,"xT2":1058.1,"yT2":0,"toosoon":0,"cond_shown":"equaldotsize","ratio_trial":250,"smaller_num":"4","larger_num":"16","correct_side":1,"subjID":"anaisabellamuñosrojas10","gender":"1","age":"9","scho