[{"start_time":1552308135906,"click_time":1552308137237,"finger_time":1552308135949,"fix_duration":1204.2145259048852,"trial":0,"RT":43,"MT":1288,"sideResp":2,"stimulus":[],"xmouse":[865,865,901,901,901,901,901,901,901,900,894,879,867,867,867,866,866,866,866,862,851,840,833,831,831,831,829,824,822,817,806,789,764,763,763,768,771,772,776,777,777,777,777,777,777,777,777,777,777,778,778,775,772,764,761,759,757,755,755,755,760,787,842,1013,1112,1158],"ymouse":[570,570,573,573,573,573,573,573,573,573,571,567,566,566,566,566,566,566,566,566,566,566,566,566,566,566,567,572,575,581,591,605,629,629,629,629,629,628,626,626,625,625,625,625,625,625,625,625,625,625,620,608,587,531,515,507,500,497,497,496,489,461,412,230,107,42],"timestamp_mouse":[43,51,72,91,111,131,151,171,191,211,231,251,272,291,311,332,351,371,391,412,431,452,473,491,511,532,551,573,591,611,631,651,672,692,711,731,751,771,792,811,832,851,871,890,912,931,951,972,991,1011,1031,1051,1071,1091,1112,1131,1152,1171,1191,1211,1231,1252,1272,1291,1311,1331],"xSR":741.5,"ySR":500.5,"xT1":424.9,"yT1":0,"xT2":1058.1,"yT2":0,"toosoon":0,"cond_shown":"Congruent","ratio_trial":100,"L_num":4,"L_den":10,"R_num":15,"R_den":30,"correct_side":2,"subjID":"anaisabellamuñozrojas10","gender":"1","age":"9","school":"4","test":{"fix_dur":[250,1500],"timestim":1000,"targets_dim":[100,100],"targets_relative_coord":[0.3,0.7],"size_stim":[880,420],"start_dim":[100,100],"size_start":[300,300],"size_fix":60,"samplingrate":20,"img_types":["Congruent","Incongruent"],"ratios":[100,200,300],"rep_conds":19,"nTrials":120,"trials_to_rest":500,"Trials_order":[72,48,53,67,11,102,69,34,113,89,20,57,90,86,119,51,101,43,98,46,74,82,56,23,38,99,95,85,61,30,62,106,73,117,27,55,93,18,9,44,94,92,26,116,107,14,25,59,35,32,47,118,1,79,64,96,114,22,39,115,81,54,10,24,8,42,58,28,108,4,109,91,21,41,2,70,80,29,0,60,87,7,75,5,100,104,15,3,84,13,112,77,71,88,111,37,97,76,45,17,65,6,36,19,31,103,83,49,52,33,63,68,50,110,40,105,16,66,78,12],"cond_shown":["Congruent","Congruent","Incongruent","Incongruent","Incongruent","Congruent","Incongruent","Congruent","Incongruent","Incongruent","Congruent","Incongruent","Congruent","Congruent","Incongruent","Incongruent","Incongruent","Incongruent","Congruent","Congruent","Congruent","Congruent","Congruent","Incongruent","Congruent","Incongruent","Incongruent","Incongruent","Incongruent","Congruent","Congruent","Congruent","Incongruent","Incongruent","Incongruent","Incongruent","Incongruent","Congruent","Incongruent","Congruent","Congruent","Congruent","Congruent","Congruent","Incongruent","Congruent","Incongruent","Incongruent","Incongruent","Congruent","Incongruent","Congruent","Incongruent","Incongruent","Congruent","Congruent","Congruent","Congruent","Incongruent","Incongruent","Incongruent","Congruent","Congruent","Congruent","Congruent","Congruent","Congruent","Congruent","Congruent","Congruent","Incongruent","Incongruent","Incongruent","Incongruent","Congruent","Congruent","Congruent","Incongruent","Congruent","Congruent","Incongruent","Incongruent","Incongruent","Incongruent","Congruent","Congruent","Incongruent","Incongruent","Congruent","Incongruent","Congruent","Incongruent","Incongruent","Congruent","Incongruent","Incongruent","Incongruent","Congruent","Incongruent","Incongruent","Incongruent","Congruent","Congruent","Incongruent","Incongruent","Incongruent","Incongruent","Incongruent","Congruent","Incongruent","Incongruent","Congruent","Congruent","Congruent","Congruent","Incongruent","Congruent","Congruent","Congruent","Congruent"],"ratio_trial":[100,100,300,100,300,100,200,300,300,300,200,200,100,200,300,200,300,100,200,300,200,300,200,300,200,200,300,100,100,100,200,300,100,200,200,100,200,100,200,200,300,200,200,200,300,200,100,300,300,200,300,300,100,100,300,100,100,300,200,100,200,100,300,100,200,100,300,300,100,300,100,100,200,300,200,300,200,300,100,100,200,100,200,300,300,200,200,200,100,100,300,300,300,300,200,100,100,300,200,300,300,100,100,100,100,100,300,100,300,200,200,200,200,200,300,200,300,100,100,100],"left_num":[4,10,13,13,4,11,7,4,13,1,12,14,2,12,4,7,8,10,6,1,1,3,14,1,15,4,13,8,13,15,8,4,3,3,7,10,1,1,9,21,11,3,1,7,4,12,2,4,13,7,4,4,11,6,1,7,2,8,1,11,3,9,1,1,5,8,1,9,7,1,9,6,3,4,16,1,6,4,7,1,1,6,4,13,3,9,1,4,11,11,5,4,4,1,11,12,4,9,4,1,4,3,11,6,9,12,4,8,11,14,14,9,11,12,1,4,7,10,12,9],"right_num":[15,3,12,12,2,6,4,13,12,3,6,12,6,6,6,14,9,8,3,8,21,2,6,3,4,6,12,6,6,13,2,13,7,1,12,8,2,3,8,2,1,9,21,18,2,6,6,2,12,18,2,1,9,7,8,9,6,1,2,9,11,8,8,3,14,2,3,3,15,11,14,13,11,2,12,19,7,2,15,3,2,7,1,12,4,13,3,1,6,9,6,6,2,7,3,2,8,3,6,2,6,4,6,7,13,9,6,1,1,6,12,13,3,6,3,6,20,3,13,8],"left_den":[10,25,26,26,20,22,15,20,26,2,15,30,5,20,5,10,10,25,15,30,2,6,28,2,25,5,26,16,26,25,15,20,9,10,10,25,3,2,15,30,22,12,2,15,20,20,4,20,26,15,20,10,22,10,30,14,5,16,3,22,4,15,30,2,10,16,5,10,14,5,15,10,4,20,20,3,12,20,14,2,3,10,30,26,6,30,2,30,22,22,25,5,20,20,20,30,8,10,5,2,5,20,22,10,15,24,5,20,22,30,30,30,22,15,5,5,14,25,30,15],"right_den":[30,10,15,20,4,15,6,26,15,15,10,18,12,15,12,28,18,16,15,24,30,10,20,15,10,10,15,10,10,26,6,26,30,2,24,16,15,5,10,4,5,20,30,27,4,15,15,4,15,27,4,10,15,14,24,15,12,5,15,15,20,16,24,5,20,5,6,5,25,22,28,26,20,4,20,30,10,4,25,5,15,14,3,15,5,26,10,3,15,15,12,12,4,20,4,4,20,5,10,10,12,16,15,14,26,15,12,2,5,9,18,26,10,10,6,10,25,10,26,16],"correct_side":[2,1,2,2,2,1,2,2,2,1,1,2,2,1,1,1,1,2,1,2,2,1,1,1,1,1,2,2,2,1,1,2,1,2,1,2,1,2,2,1,1,2,2,2,2,1,1,2,2,2,2,1,2,1,2,2,2,1,1,2,1,1,2,2,2,1,2,1,2,2,1,1,1,2,1,2,2,2,2,2,1,1,2,2,2,2,1,2,1,2,2,1,2,2,2,2,1,1,1,1,1,2,1,1,1,2,1,2,1,2,2,2,1,1,2,1,2,1,2,1],"img_shown":["img2/100/Congruent/R/C_Dist_100_LN_4_LD_10_RN_15_RD_30_1.png","img2/100/Congruent/L/C_Dist_100_LN_10_LD_25_RN_3_RD_10_0.png","img2/300/Incongruent/R/I_Dist_300_LN_13_LD_26_RN_12_RD_15_1.png","img2/100/Incongruent/R/I_Dist_100_LN_13_LD_26_RN_12_RD_20_1.png","img2/300/Incongruent/R/I_Dist_300_LN_4_LD_20_RN_2_RD_4_1.png","img2/100/Congruent/L/C_Dist_100_LN_11_LD_22_RN_6_RD_15_0.png","img2/200/Incongruent/R/I_Dist_200_LN_7_LD_15_RN_4_RD_6_1.png","img2/300/Congruent/R/C_Dist_300_LN_4_LD_20_RN_13_RD_26_1.png","img2/300/Incongruent/R/I_Dist_300_LN_13_LD_26_RN_12_RD_15_1.png","img2/300/Incongruent/L/I_Dist_300_LN_1_LD_2_RN_3_RD_15_0.png","img2/200/Congruent/L/C_Dist_200_LN_12_LD_15_RN_6_RD_10_0.png","img2/200/Incongruent/R/I_Dist_200_LN_14_LD_30_RN_12_RD_18_1.png","img2/100/Congruent/R/C_Dist_100_LN_2_LD_5_RN_6_RD_12_1.png","img2/200/Congruent/L/C_Dist_200_LN_12_LD_20_RN_6_RD_15_0.png","img2/300/Incongruent/L/I_Dist_300_LN_4_LD_5_RN_6_RD_12_0.png","img2/200/Incongruent/L/I_Dist_200_LN_7_LD_10_RN_14_RD_28_0.png","img2/300/Incongruent/L/I_Dist_300_LN_8_LD_10_RN_9_RD_18_0.png","img2/100/Incongruent/R/I_Dist_100_LN_10_LD_25_RN_8_RD_16_1.png","img2/200/Congruent/L/C_Dist_200_LN_6_LD_15_RN_3_RD_15_0.png","img2/300/Congruent/R/C_Dist_300_LN_1_LD_30_RN_8_RD_24_1.png","img2/200/Congruent/R/C_Dist_200_LN_1_LD_2_RN_21_RD_30_1.png","img2/300/Congruent/L/C_Dist_300_LN_3_LD_6_RN_2_RD_10_0.png","img2/200/Congruent/L/C_Dist_200_LN_14_LD_28_RN_6_RD_20_0.png","img2/300/Incongruent/L/I_Dist_300_LN_1_LD_2_RN_3_RD_15_0.png","img2/200/Congruent/L/C_Dist_200_LN_15_LD_25_RN_4_RD_10_0.png","img2/200/Incongruent/L/I_Dist_200_LN_4_LD_5_RN_6_RD_10_0.png","img2/300/Incongruent/R/I_Dist_300_LN_13_LD_26_RN_12_RD_15_1.png","img2/100/Incongruent/R/I_Dist_100_LN_8_LD_16_RN_6_RD_10_1.png","img2/100/Incongruent/R/I_Dist_100_LN_13_LD_26_RN_6_RD_10_1.png","img2/100/Congruent/L/C_Dist_100_LN_15_LD_25_RN_13_RD_26_0.png","img2/200/Congruent/L/C_Dist_200_LN_8_LD_15_RN_2_RD_6_0.png","img2/300/Congruent/R/C_Dist_300_LN_4_LD_20_RN_13_RD_26_1.png","img2/100/Incongruent/L/I_Dist_100_LN_3_LD_9_RN_7_RD_30_0.png","img2/200/Incongruent/R/I_Dist_200_LN_3_LD_10_RN_1_RD_2_1.png","img2/200/Incongruent/L/I_Dist_200_LN_7_LD_10_RN_12_RD_24_0.png","img2/100/Incongruent/R/I_Dist_100_LN_10_LD_25_RN_8_RD_16_1.png","img2/200/Incongruent/L/I_Dist_200_LN_1_LD_3_RN_2_RD_15_0.png","img2/100/Congruent/R/C_Dist_100_LN_1_LD_2_RN_3_RD_5_1.png","img2/200/Incongruent/R/I_Dist_200_LN_9_LD_15_RN_8_RD_10_1.png","img2/200/Congruent/L/C_Dist_200_LN_21_LD_30_RN_2_RD_4_0.png","img2/300/Congruent/L/C_Dist_300_LN_11_LD_22_RN_1_RD_5_0.png","img2/200/Congruent/R/C_Dist_200_LN_3_LD_12_RN_9_RD_20_1.png","img2/200/Congruent/R/C_Dist_200_LN_1_LD_2_RN_21_RD_30_1.png","img2/200/Congruent/R/C_Dist_200_LN_7_LD_15_RN_18_RD_27_1.png","img2/300/Incongruent/R/I_Dist_300_LN_4_LD_20_RN_2_RD_4_1.png","img2/200/Congruent/L/C_Dist_200_LN_12_LD_20_RN_6_RD_15_0.png","img2/100/Incongruent/L/I_Dist_100_LN_2_LD_4_RN_6_RD_15_0.png","img2/300/Incongruent/R/I_Dist_300_LN_4_LD_20_RN_2_RD_4_1.png","img2/300/Incongruent/R/I_Dist_300_LN_13_LD_26_RN_12_RD_15_1.png","img2/200/Congruent/R/C_Dist_200_LN_7_LD_15_RN_18_RD_27_1.png","img2/300/Incongruent/R/I_Dist_300_LN_4_LD_20_RN_2_RD_4_1.png","img2/300/Congruent/L/C_Dist_300_LN_4_LD_10_RN_1_RD_10_0.png","img2/100/Incongruent/R/I_Dist_100_LN_11_LD_22_RN_9_RD_15_1.png","img2/100/Incongruent/L/I_Dist_100_LN_6_LD_10_RN_7_RD_14_0.png","img2/300/Congruent/R/C_Dist_300_LN_1_LD_30_RN_8_RD_24_1.png","img2/100/Congruent/R/C_Dist_100_LN_7_LD_14_RN_9_RD_15_1.png","img2/100/Congruent/R/C_Dist_100_LN_2_LD_5_RN_6_RD_12_1.png","img2/300/Congruent/L/C_Dist_300_LN_8_LD_16_RN_1_RD_5_0.png","img2/200/Incongruent/L/I_Dist_200_LN_1_LD_3_RN_2_RD_15_0.png","img2/100/Incongruent/R/I_Dist_100_LN_11_LD_22_RN_9_RD_15_1.png","img2/200/Incongruent/L/I_Dist_200_LN_3_LD_4_RN_11_RD_20_0.png","img2/100/Congruent/L/C_Dist_100_LN_9_LD_15_RN_8_RD_16_0.png","img2/300/Congruent/R/C_Dist_300_LN_1_LD_30_RN_8_RD_24_1.png","img2/100/Congruent/R/C_Dist_100_LN_1_LD_2_RN_3_RD_5_1.png","img2/200/Congruent/R/C_Dist_200_LN_5_LD_10_RN_14_RD_20_1.png","img2/100/Congruent/L/C_Dist_100_LN_8_LD_16_RN_2_RD_5_0.png","img2/300/Congruent/R/C_Dist_300_LN_1_LD_5_RN_3_RD_6_1.png","img2/300/Congruent/L/C_Dist_300_LN_9_LD_10_RN_3_RD_5_0.png","img2/100/Congruent/R/C_Dist_100_LN_7_LD_14_RN_15_RD_25_1.png","img2/300/Congruent/R/C_Dist_300_LN_1_LD_5_RN_11_RD_22_1.png","img2/100/Incongruent/L/I_Dist_100_LN_9_LD_15_RN_14_RD_28_0.png","img2/100/Incongruent/L/I_Dist_100_LN_6_LD_10_RN_13_RD_26_0.png","img2/200/Incongruent/L/I_Dist_200_LN_3_LD_4_RN_11_RD_20_0.png","img2/300/Incongruent/R/I_Dist_300_LN_4_LD_20_RN_2_RD_4_1.png","img2/200/Congruent/L/C_Dist_200_LN_16_LD_20_RN_12_RD_20_0.png","img2/300/Congruent/R/C_Dist_300_LN_1_LD_3_RN_19_RD_30_1.png","img2/200/Congruent/R/C_Dist_200_LN_6_LD_12_RN_7_RD_10_1.png","img2/300/Incongruent/R/I_Dist_300_LN_4_LD_20_RN_2_RD_4_1.png","img2/100/Congruent/R/C_Dist_100_LN_7_LD_14_RN_15_RD_25_1.png","img2/100/Congruent/R/C_Dist_100_LN_1_LD_2_RN_3_RD_5_1.png","img2/200/Incongruent/L/I_Dist_200_LN_1_LD_3_RN_2_RD_15_0.png","img2/100/Incongruent/L/I_Dist_100_LN_6_LD_10_RN_7_RD_14_0.png","img2/200/Incongruent/R/I_Dist_200_LN_4_LD_30_RN_1_RD_3_1.png","img2/300/Incongruent/R/I_Dist_300_LN_13_LD_26_RN_12_RD_15_1.png","img2/300/Congruent/R/C_Dist_300_LN_3_LD_6_RN_4_RD_5_1.png","img2/200/Congruent/R/C_Dist_200_LN_9_LD_30_RN_13_RD_26_1.png","img2/200/Incongruent/L/I_Dist_200_LN_1_LD_2_RN_3_RD_10_0.png","img2/200/Incongruent/R/I_Dist_200_LN_4_LD_30_RN_1_RD_3_1.png","img2/100/Congruent/L/C_Dist_100_LN_11_LD_22_RN_6_RD_15_0.png","img2/100/Incongruent/R/I_Dist_100_LN_11_LD_22_RN_9_RD_15_1.png","img2/300/Congruent/R/C_Dist_300_LN_5_LD_25_RN_6_RD_12_1.png","img2/300/Incongruent/L/I_Dist_300_LN_4_LD_5_RN_6_RD_12_0.png","img2/300/Incongruent/R/I_Dist_300_LN_4_LD_20_RN_2_RD_4_1.png","img2/300/Congruent/R/C_Dist_300_LN_1_LD_20_RN_7_RD_20_1.png","img2/200/Incongruent/R/I_Dist_200_LN_11_LD_20_RN_3_RD_4_1.png","img2/100/Incongruent/R/I_Dist_100_LN_12_LD_30_RN_2_RD_4_1.png","img2/100/Incongruent/L/I_Dist_100_LN_4_LD_8_RN_8_RD_20_0.png","img2/300/Congruent/L/C_Dist_300_LN_9_LD_10_RN_3_RD_5_0.png","img2/200/Incongruent/L/I_Dist_200_LN_4_LD_5_RN_6_RD_10_0.png","img2/300/Incongruent/L/I_Dist_300_LN_1_LD_2_RN_2_RD_10_0.png","img2/300/Incongruent/L/I_Dist_300_LN_4_LD_5_RN_6_RD_12_0.png","img2/100/Congruent/R/C_Dist_100_LN_3_LD_20_RN_4_RD_16_1.png","img2/100/Congruent/L/C_Dist_100_LN_11_LD_22_RN_6_RD_15_0.png","img2/100/Incongruent/L/I_Dist_100_LN_6_LD_10_RN_7_RD_14_0.png","img2/100/Incongruent/L/I_Dist_100_LN_9_LD_15_RN_13_RD_26_0.png","img2/100/Incongruent/R/I_Dist_100_LN_12_LD_24_RN_9_RD_15_1.png","img2/300/Incongruent/L/I_Dist_300_LN_4_LD_5_RN_6_RD_12_0.png","img2/100/Incongruent/R/I_Dist_100_LN_8_LD_20_RN_1_RD_2_1.png","img2/300/Congruent/L/C_Dist_300_LN_11_LD_22_RN_1_RD_5_0.png","img2/200/Incongruent/R/I_Dist_200_LN_14_LD_30_RN_6_RD_9_1.png","img2/200/Incongruent/R/I_Dist_200_LN_14_LD_30_RN_12_RD_18_1.png","img2/200/Congruent/R/C_Dist_200_LN_9_LD_30_RN_13_RD_26_1.png","img2/200/Congruent/L/C_Dist_200_LN_11_LD_22_RN_3_RD_10_0.png","img2/200/Congruent/L/C_Dist_200_LN_12_LD_15_RN_6_RD_10_0.png","img2/300/Congruent/R/C_Dist_300_LN_1_LD_5_RN_3_RD_6_1.png","img2/200/Incongruent/L/I_Dist_200_LN_4_LD_5_RN_6_RD_10_0.png","img2/300/Congruent/R/C_Dist_300_LN_7_LD_14_RN_20_RD_25_1.png","img2/100/Congruent/L/C_Dist_100_LN_10_LD_25_RN_3_RD_10_0.png","img2/100/Congruent/R/C_Dist_100_LN_12_LD_30_RN_13_RD_26_1.png","img2/100/Congruent/L/C_Dist_100_LN_9_LD_15_RN_8_RD_16_0.png"],"dist100_C":[["C_Dist_100_LN_10_LD_25_RN_3_RD_10_0.png","C_Dist_100_LN_11_LD_22_RN_4_RD_10_0.png","C_Dist_100_LN_11_LD_22_RN_6_RD_15_0.png","C_Dist_100_LN_15_LD_25_RN_13_RD_26_0.png","C_Dist_100_LN_3_LD_6_RN_2_RD_5_0.png","C_Dist_100_LN_6_LD_20_RN_5_RD_25_0.png","C_Dist_100_LN_8_LD_16_RN_2_RD_5_0.png","C_Dist_100_LN_9_LD_15_RN_8_RD_16_0.png"],["C_Dist_100_LN_1_LD_2_RN_18_RD_30_1.png","C_Dist_100_LN_1_LD_2_RN_3_RD_5_1.png","C_Dist_100_LN_12_LD_30_RN_13_RD_26_1.png","C_Dist_100_LN_2_LD_5_RN_11_RD_22_1.png","C_Dist_100_LN_2_LD_5_RN_6_RD_12_1.png","C_Dist_100_LN_3_LD_20_RN_4_RD_16_1.png","C_Dist_100_LN_4_LD_10_RN_15_RD_30_1.png","C_Dist_100_LN_4_LD_8_RN_6_RD_10_1.png","C_Dist_100_LN_6_LD_12_RN_15_RD_25_1.png","C_Dist_100_LN_7_LD_14_RN_15_RD_25_1.png","C_Dist_100_LN_7_LD_14_RN_9_RD_15_1.png"]],"dist100_I":[["I_Dist_100_LN_1_LD_2_RN_8_RD_20_0.png","I_Dist_100_LN_2_LD_4_RN_6_RD_15_0.png","I_Dist_100_LN_2_LD_4_RN_8_RD_20_0.png","I_Dist_100_LN_3_LD_5_RN_11_RD_22_0.png","I_Dist_100_LN_3_LD_5_RN_8_RD_16_0.png","I_Dist_100_LN_3_LD_6_RN_4_RD_10_0.png","I_Dist_100_LN_3_LD_9_RN_7_RD_30_0.png","I_Dist_100_LN_4_LD_8_RN_8_RD_20_0.png","I_Dist_100_LN_6_LD_10_RN_11_RD_22_0.png","I_Dist_100_LN_6_LD_10_RN_13_RD_26_0.png","I_Dist_100_LN_6_LD_10_RN_7_RD_14_0.png","I_Dist_100_LN_9_LD_10_RN_20_RD_25_0.png","I_Dist_100_LN_9_LD_15_RN_13_RD_26_0.png","I_Dist_100_LN_9_LD_15_RN_14_RD_28_0.png"],["I_Dist_100_LN_10_LD_25_RN_8_RD_16_1.png","I_Dist_100_LN_10_LD_25_RN_9_RD_18_1.png","I_Dist_100_LN_11_LD_22_RN_9_RD_15_1.png","I_Dist_100_LN_12_LD_24_RN_9_RD_15_1.png","I_Dist_100_LN_12_LD_30_RN_2_RD_4_1.png","I_Dist_100_LN_13_LD_26_RN_12_RD_20_1.png","I_Dist_100_LN_13_LD_26_RN_6_RD_10_1.png","I_Dist_100_LN_17_LD_30_RN_10_RD_15_1.png","I_Dist_100_LN_6_LD_12_RN_3_RD_5_1.png","I_Dist_100_LN_8_LD_16_RN_6_RD_10_1.png","I_Dist_100_LN_8_LD_20_RN_1_RD_2_1.png","I_Dist_100_LN_9_LD_18_RN_6_RD_10_1.png"]],"dist100_S":[["E_Dist_100_LN_2_LD_12_RN_2_RD_30_0.png","E_Dist_100_LN_6_LD_10_RN_6_RD_12_0.png"],["E_Dist_100_LN_6_LD_12_RN_6_RD_10_1.png"]],"dist200_C":[["C_Dist_200_LN_11_LD_22_RN_3_RD_10_0.png","C_Dist_200_LN_12_LD_15_RN_6_RD_10_0.png","C_Dist_200_LN_12_LD_20_RN_6_RD_15_0.png","C_Dist_200_LN_14_LD_28_RN_6_RD_20_0.png","C_Dist_200_LN_15_LD_25_RN_4_RD_10_0.png","C_Dist_200_LN_16_LD_20_RN_12_RD_20_0.png","C_Dist_200_LN_16_LD_30_RN_9_RD_27_0.png","C_Dist_200_LN_20_LD_25_RN_9_RD_15_0.png","C_Dist_200_LN_21_LD_30_RN_2_RD_4_0.png","C_Dist_200_LN_4_LD_10_RN_3_RD_15_0.png","C_Dist_200_LN_4_LD_8_RN_3_RD_10_0.png","C_Dist_200_LN_6_LD_15_RN_3_RD_15_0.png","C_Dist_200_LN_7_LD_21_RN_2_RD_15_0.png","C_Dist_200_LN_8_LD_15_RN_2_RD_6_0.png","C_Dist_200_LN_8_LD_15_RN_3_RD_9_0.png","C_Dist_200_LN_8_LD_15_RN_7_RD_21_0.png","C_Dist_200_LN_9_LD_20_RN_4_RD_16_0.png"],["C_Dist_200_LN_1_LD_2_RN_21_RD_30_1.png","C_Dist_200_LN_13_LD_26_RN_14_RD_20_1.png","C_Dist_200_LN_3_LD_10_RN_11_RD_22_1.png","C_Dist_200_LN_3_LD_10_RN_14_RD_28_1.png","C_Dist_200_LN_3_LD_10_RN_7_RD_14_1.png","C_Dist_200_LN_3_LD_12_RN_9_RD_20_1.png","C_Dist_200_LN_3_LD_6_RN_14_RD_20_1.png","C_Dist_200_LN_5_LD_10_RN_14_RD_20_1.png","C_Dist_200_LN_6_LD_12_RN_7_RD_10_1.png","C_Dist_200_LN_6_LD_20_RN_11_RD_22_1.png","C_Dist_200_LN_7_LD_15_RN_18_RD_27_1.png","C_Dist_200_LN_9_LD_30_RN_13_RD_26_1.png"]],"dist200_I":[["I_Dist_200_LN_1_LD_2_RN_3_RD_10_0.png","I_Dist_200_LN_1_LD_3_RN_2_RD_15_0.png","I_Dist_200_LN_3_LD_4_RN_11_RD_20_0.png","I_Dist_200_LN_4_LD_5_RN_6_RD_10_0.png","I_Dist_200_LN_4_LD_6_RN_14_RD_30_0.png","I_Dist_200_LN_7_LD_10_RN_12_RD_24_0.png","I_Dist_200_LN_7_LD_10_RN_14_RD_28_0.png","I_Dist_200_LN_7_LD_10_RN_8_RD_16_0.png"],["I_Dist_200_LN_11_LD_20_RN_3_RD_4_1.png","I_Dist_200_LN_14_LD_30_RN_12_RD_18_1.png","I_Dist_200_LN_14_LD_30_RN_6_RD_9_1.png","I_Dist_200_LN_3_LD_10_RN_1_RD_2_1.png","I_Dist_200_LN_4_LD_30_RN_1_RD_3_1.png","I_Dist_200_LN_6_LD_20_RN_3_RD_6_1.png","I_Dist_200_LN_7_LD_15_RN_4_RD_6_1.png","I_Dist_200_LN_7_LD_15_RN_6_RD_9_1.png","I_Dist_200_LN_9_LD_15_RN_8_RD_10_1.png"]],"dist200_S":[["E_Dist_200_LN_3_LD_6_RN_3_RD_10_0.png"],["E_Dist_200_LN_3_LD_10_RN_3_RD_6_1.png"]],"dist300_C":[["C_Dist_300_LN_11_LD_22_RN_1_RD_5_0.png","C_Dist_300_LN_11_LD_22_RN_2_RD_10_0.png","C_Dist_300_LN_11_LD_22_RN_4_RD_20_0.png","C_Dist_300_LN_12_LD_24_RN_2_RD_10_0.png","C_Dist_300_LN_18_LD_20_RN_9_RD_15_0.png","C_Dist_300_LN_20_LD_25_RN_13_RD_26_0.png","C_Dist_300_LN_20_LD_25_RN_14_RD_28_0.png","C_Dist_300_LN_20_LD_25_RN_5_RD_10_0.png","C_Dist_300_LN_20_LD_25_RN_8_RD_16_0.png","C_Dist_300_LN_20_LD_25_RN_9_RD_18_0.png","C_Dist_300_LN_24_LD_30_RN_2_RD_4_0.png","C_Dist_300_LN_24_LD_30_RN_8_RD_16_0.png","C_Dist_300_LN_3_LD_6_RN_2_RD_10_0.png","C_Dist_300_LN_4_LD_10_RN_1_RD_10_0.png","C_Dist_300_LN_4_LD_5_RN_2_RD_4_0.png","C_Dist_300_LN_8_LD_16_RN_1_RD_5_0.png","C_Dist_300_LN_9_LD_10_RN_3_RD_5_0.png"],["C_Dist_300_LN_1_LD_20_RN_7_RD_20_1.png","C_Dist_300_LN_1_LD_3_RN_19_RD_30_1.png","C_Dist_300_LN_1_LD_30_RN_8_RD_24_1.png","C_Dist_300_LN_1_LD_5_RN_11_RD_22_1.png","C_Dist_300_LN_1_LD_5_RN_3_RD_6_1.png","C_Dist_300_LN_1_LD_5_RN_6_RD_12_1.png","C_Dist_300_LN_2_LD_10_RN_12_RD_24_1.png","C_Dist_300_LN_2_LD_20_RN_10_RD_25_1.png","C_Dist_300_LN_3_LD_12_RN_11_RD_20_1.png","C_Dist_300_LN_3_LD_6_RN_4_RD_5_1.png","C_Dist_300_LN_4_LD_20_RN_13_RD_26_1.png","C_Dist_300_LN_5_LD_25_RN_6_RD_12_1.png","C_Dist_300_LN_5_LD_25_RN_7_RD_14_1.png","C_Dist_300_LN_7_LD_14_RN_20_RD_25_1.png","C_Dist_300_LN_8_LD_15_RN_10_RD_12_1.png"]],"dist300_I":[["I_Dist_300_LN_1_LD_2_RN_2_RD_10_0.png","I_Dist_300_LN_1_LD_2_RN_3_RD_15_0.png","I_Dist_300_LN_2_LD_4_RN_6_RD_30_0.png","I_Dist_300_LN_3_LD_6_RN_4_RD_20_0.png","I_Dist_300_LN_4_LD_5_RN_6_RD_12_0.png","I_Dist_300_LN_4_LD_5_RN_8_RD_16_0.png","I_Dist_300_LN_7_LD_10_RN_8_RD_20_0.png","I_Dist_300_LN_8_LD_10_RN_14_RD_28_0.png","I_Dist_300_LN_8_LD_10_RN_9_RD_18_0.png"],["I_Dist_300_LN_13_LD_26_RN_12_RD_15_1.png","I_Dist_300_LN_4_LD_20_RN_2_RD_4_1.png"]],"dist300_S":[["E_Dist_300_LN_9_LD_12_RN_9_RD_20_0.png"],["E_Dist_300_LN_18_LD_30_RN_18_RD_20_1.png","E_Dist_300_LN_3_LD_10_RN_3_RD_5_1.png","E_Dist_300_LN_9_LD_20_RN_9_RD_12_1.png"]],"dist500_C":[["C_Dist_500_LN_10_LD_13_RN_7_RD_26_0.png","C_Dist_500_LN_10_LD_15_RN_4_RD_24_0.png","C_Dist_500_LN_12_LD_16_RN_3_RD_12_0.png","C_Dist_500_LN_12_LD_18_RN_4_RD_24_0.png","C_Dist_500_LN_15_LD_18_RN_5_RD_15_0.png","C_Dist_500_LN_15_LD_20_RN_1_RD_4_0.png","C_Dist_500_LN_18_LD_27_RN_1_RD_6_0.png","C_Dist_500_LN_20_LD_24_RN_1_RD_3_0.png","C_Dist_500_LN_20_LD_24_RN_3_RD_9_0.png","C_Dist_500_LN_20_LD_24_RN_7_RD_21_0.png","C_Dist_500_LN_20_LD_28_RN_3_RD_14_0.png","C_Dist_500_LN_21_LD_28_RN_6_RD_24_0.png","C_Dist_500_LN_22_LD_28_RN_2_RD_7_0.png","C_Dist_500_LN_25_LD_30_RN_9_RD_27_0.png","C_Dist_500_LN_4_LD_6_RN_1_RD_6_0.png","C_Dist_500_LN_5_LD_6_RN_2_RD_6_0.png","C_Dist_500_LN_6_LD_9_RN_1_RD_6_0.png","C_Dist_500_LN_7_LD_10_RN_1_RD_5_0.png","C_Dist_500_LN_8_LD_12_RN_1_RD_6_0.png","C_Dist_500_LN_8_LD_12_RN_4_RD_24_0.png"],["C_Dist_500_LN_1_LD_4_RN_12_RD_16_1.png","C_Dist_500_LN_1_LD_4_RN_9_RD_12_1.png","C_Dist_500_LN_1_LD_9_RN_11_RD_18_1.png","C_Dist_500_LN_10_LD_24_RN_22_RD_24_1.png","C_Dist_500_LN_2_LD_12_RN_10_RD_15_1.png","C_Dist_500_LN_2_LD_12_RN_12_RD_18_1.png","C_Dist_500_LN_2_LD_12_RN_4_RD_6_1.png","C_Dist_500_LN_2_LD_24_RN_7_RD_12_1.png","C_Dist_500_LN_2_LD_5_RN_18_RD_20_1.png","C_Dist_500_LN_2_LD_5_RN_9_RD_10_1.png","C_Dist_500_LN_2_LD_8_RN_12_RD_16_1.png","C_Dist_500_LN_2_LD_8_RN_21_RD_28_1.png","C_Dist_500_LN_3_LD_10_RN_4_RD_5_1.png","C_Dist_500_LN_3_LD_12_RN_15_RD_20_1.png","C_Dist_500_LN_3_LD_30_RN_6_RD_10_1.png","C_Dist_500_LN_3_LD_8_RN_14_RD_16_1.png","C_Dist_500_LN_4_LD_16_RN_15_RD_20_1.png","C_Dist_500_LN_4_LD_24_RN_12_RD_18_1.png","C_Dist_500_LN_5_LD_14_RN_6_RD_7_1.png","C_Dist_500_LN_7_LD_21_RN_20_RD_24_1.png","C_Dist_500_LN_7_LD_28_RN_12_RD_16_1.png","C_Dist_500_LN_7_LD_28_RN_9_RD_12_1.png","C_Dist_500_LN_9_LD_27_RN_20_RD_24_1.png"]],"dist500_I":[["I_Dist_500_LN_2_LD_3_RN_4_RD_24_0.png","I_Dist_500_LN_5_LD_6_RN_6_RD_18_0.png","I_Dist_500_LN_7_LD_8_RN_9_RD_24_0.png"],["I_Dist_500_LN_7_LD_21_RN_5_RD_6_1.png"]],"dist500_S":[["E_Dist_500_LN_6_LD_8_RN_6_RD_24_0.png"],["E_Dist_500_LN_2_LD_12_RN_2_RD_3_1.png","E_Dist_500_LN_6_LD_24_RN_6_RD_8_1.png"]]}},{"start_time":1552308140173,"click_time":1552308142099,"finger_time":1552308141737,"fix_duration":1015.4631572459905,"trial":1,"RT":1564,"MT":362,"sideResp":2,"stimulus":[],"xmouse":[784,784,784,784,784,784,784,784,784,784,784,784,784,784,784,784,784,784,784,784,784,784,784,784,784,784,784,784,784,784,784,784,784,784,784,784,784,784,784,784,784,784,784,784,784,784,784,784,784,784,784,783,782,782,782,782,782,782,782,782,782,782,782,782,782,782,782,782,782,782,782,782,782,782,782,782,796,810,823,834,851,933,1034,1057,1103,1117,1122,1122,1121,1120,1120,1120,1120,1120,1116,1111,1105],"ymouse":[632,632,632,632,632,632,632,632,632,632,632,632,632,632,632,632,632,632,632,632,632,632,632,632,632,632,632,632,632,632,632,632,632,632,632,632,632,632,632,632,632,632,632,632,632,632,632,632,632,632,632,631,621,619,619,619,619,619,619,619,619,619,619,619,619,619,619,619,619,619,619,619,619,619,619,612,588,580,572,564,553,488,416,397,354,332,301,290,278,267,252,220,204,172,147,118,82],"timestamp_mouse":[16,25,43,64,85,104,125,143,164,184,205,225,245,265,284,304,324,344,365,385,403,425,445,463,485,505,524,545,565,585,603,624,645,664,685,704,724,744,764,784,805,824,844,865,884,905,924,944,964,984,1005,1023,1044,1063,1085,1105,1123,1145,1165,1184,1205,1224,1244,1265,1285,1305,1324,1344,1364,1385,1403,1425,1444,1465,1485,1504,1524,1544,1564,1584,1604,1624,1644,1664,1685,1704,1724,1744,1764,1784,1805,1823,1845,1864,1884,1904,1925],"xSR":741.5,"ySR":573.95,"xT1":424.9,"yT1":0,"xT2":1058.1,"yT2":0,"toosoon":0,"cond_shown":"Congruent","ratio_trial":100,"L_num":10,"L_den":25,"R_num":3,"R_den":10,"correct_side":1,"subjID":"anaisabellamuñozrojas10","gender":"1","school":"4","age":"9"},{"start_time":1552308146846,"click_time":1552308148597,"finger_time":1552308148397,"fix_duration":946.0003674007776,"trial":2,"RT":1551,"MT":200,"sideResp":2,"stimulus":[],"xmouse":[791,791,791,791,791,791,791,791,791,791,791,791,791,791,791,791,791,791,791,791,791,791,791,791,791,791,791,791,791,791,791,791,791,791,791,791,791,791,791,791,791,791,791,791,791,791,791,791,791,791,791,791,791,791,791,791,791,791,791,791,791,791,791,791,791,791,791,791,791,791,791,791,791,791,794,797,803,813,839,846,858,877,934,1065,1087,1094,1094,1085],"ymouse":[609,609,609,609,609,609,609,609,609,609,609,609,609,609,609,609,609,609,609,609,609,609,609,609,609,609,609,609,609,609,609,609,609,609,609,609,609,609,609,609,609,609,609,609,609,609,609,609,609,609,609,609,609,609,609,609,609,609,609,609,609,609,609,609,609,609,609,609,609,609,609,609,609,609,602,594,577,560,522,513,501,475,392,192,146,125,108,75],"timestamp_mouse":[10,32,68,71,92,111,132,152,172,191,212,232,252,272,292,311,332,352,372,392,411,431,452,471,490,511,532,552,572,591,612,632,651,672,692,711,732,751,770,792,812,832,851,872,891,911,932,950,970,992,1011,1030,1050,1071,1092,1112,1131,1150,1172,1191,1212,1231,1250,1272,1292,1312,1332,1352,1371,1391,1411,1432,1451,1471,1491,1511,1531,1550,1571,1591,1611,1631,1651,1671,1691,1711,1731,1750],"xSR":741.5,"ySR":573.95,"xT1":424.9,"yT1":0,"xT2":1058.1,"yT2":0,"toosoon":0,"cond_shown":"Incongruent","ratio_trial":300,"L_num":13,"L_den":26,"R_num":12,"R_den":15,"correct_side":2,"subjID":"anaisabellamuñozrojas10","gender":"1","school":"4","age":"9"},{"start_time":1552308152148,"click_time":1552308153939,"finger_time":1552308153459,"fix_duration":769.0821975557368,"trial":3,"RT":1311,"MT":480,"sideResp":2,"stimulus":[],"xmouse":[802,801,801,801,800,800,800,800,800,800,800,800,800,800,800,800,800,800,800,800,800,800,800,800,800,800,800,800,800,800,800,800,800,800,800,800,800,800,800,800,800,800,800,800,800,800,800,800,800,800,800,800,800,800,800,800,800,800,800,800,800,800,800,800,807,823,848,871,891,915,916,917,922,940,948,957,963,966,966,966,966,966,967,969,972,979,993,1014,1050,1061],"ymouse":[625,625,625,625,625,625,625,625,625,625,625,625,625,625,625,625,625,625,625,625,625,625,625,625,625,625,625,625,625,625,625,625,625,625,625,625,625,625,625,625,625,625,625,625,625,625,625,625,625,625,625,625,625,625,625,625,625,625,625,625,625,625,625,624,608,573,523,481,449,401,396,386,366,294,267,245,230,220,207,203,201,200,198,195,192,186,168,143,84,61],"timestamp_mouse":[10,30,60,70,90,111,131,150,170,191,211,230,251,270,290,310,331,350,370,392,411,431,451,471,491,511,531,551,570,590,612,631,651,671,690,710,731,750,770,790,811,831,850,870,891,912,930,951,971,990,1010,1031,1050,1070,1091,1111,1131,1151,1170,1191,1211,1231,1250,1270,1290,1311,1330,1350,1370,1390,1411,1430,1450,1470,1490,1512,1530,1550,1570,1590,1610,1630,1651,1670,1690,1710,1730,1752,1770,1790],"xSR":741.5,"ySR":573.95,"xT1":424.9,"yT1":0,"xT2":1058.1,"yT2":0,"toosoon":0,"cond_shown":"Incongruent","ratio_trial":100,"L_num":13,"L_den":26,"R_num":12,"R_den":20,"correct_side":2,"subjID":"anaisabellamuñozrojas10","gender":"1","school":"4","age":"9"},{"start_time":1552308155470,"click_time":1552308157078,"finger_time":1552308156999,"fix_duration":529.0613647879497,"trial":4,"RT":1529,"MT":79,"sideResp":2,"stimulus":[],"xmouse":[798,798,798,798,798,798,798,798,798,798,798,798,798,798,798,798,798,798,798,798,798,798,798,798,798,798,798,798,798,798,798,798,798,798,798,798,798,798,798,798,798,798,798,798,798,798,798,798,798,798,798,798,798,798,798,798,798,798,798,798,798,798,798,798,798,798,798,798,798,798,797,794,793,796,805,824,862,983,1034,1057,1065],"ymouse":[613,613,613,613,613,613,613,613,613,613,613,613,613,613,613,613,613,613,613,613,613,613,613,613,613,613,613,613,613,613,613,613,613,613,613,613,613,613,613,613,613,613,613,613,613,613,613,613,613,613,613,613,613,613,613,613,613,613,613,613,613,613,613,613,613,613,613,613,613,613,612,612,612,612,602,579,520,300,177,109,80],"timestamp_mouse":[8,28,53,69,89,108,129,149,168,189,208,229,249,269,289,309,328,349,369,388,409,429,449,469,489,509,529,549,568,589,609,629,649,668,689,708,729,748,769,789,808,829,848,869,889,909,929,949,968,989,1009,1029,1050,1069,1088,1109,1130,1149,1168,1189,1209,1229,1249,1270,1288,1309,1329,1348,1368,1389,1408,1428,1448,1469,1488,1508,1529,1549,1568,1588,1608],"xSR":741.5,"ySR":573.95,"xT1":424.9,"yT1":0,"xT2":1058.1,"yT2":0,"toosoon":0,"cond_shown":"Incongruent","ratio_trial":300,"L_num":4,"L_den":20,"R_num":2,"R_den":4,"correct_side":2,"subjID":"anaisabellamuñozrojas10","gender":"1","school":"4","age":"9"},{"start_time":1552308158390,"click_time":1552308160220,"finger_time":1552308159899,"fix_duration":250,"trial":5,"RT":1509,"MT":321,"sideResp":2,"stimulus":[],"xmouse":[794,794,794,794,794,794,794,794,794,794,794,794,794,794,794,794,794,794,794,794,794,794,794,794,794,794,794,794,794,794,794,794,794,794,794,794,794,794,794,794,794,794,794,794,794,794,794,794,794,794,794,794,794,794,794,794,794,794,794,794,794,794,794,793,793,791,791,791,791,791,791,791,791,791,802,878,956,1093,1131,1154,1163,1164,1156,1148,1142,1142,1142,1137,1132,1127,1120,1111],"ymouse":[617,617,617,617,617,617,617,617,617,617,617,617,617,617,617,617,617,617,617,617,617,617,617,617,617,617,617,617,617,617,617,617,617,617,617,617,617,617,617,617,617,617,617,617,617,617,617,617,617,617,617,617,617,617,617,617,617,617,617,617,617,617,617,617,619,623,624,624,624,624,624,624,624,624,614,548,478,361,326,298,273,229,211,199,193,193,192,181,168,147,127,90],"timestamp_mouse":[9,34,49,68,89,109,129,148,169,190,208,229,249,269,289,308,329,349,368,389,409,429,449,469,488,509,528,548,569,588,608,630,648,669,688,708,728,748,768,788,808,829,848,869,889,908,929,949,969,988,1009,1029,1048,1069,1089,1108,1129,1149,1168,1189,1208,1228,1249,1269,1288,1309,1328,1349,1369,1388,1408,1429,1448,1469,1488,1509,1528,1548,1568,1589,1608,1630,1648,1669,1688,1709,1728,1748,1769,1788,1808,1830],"xSR":741.5,"ySR":573.95,"xT1":424.9,"yT1":0,"xT2":1058.1,"yT2":0,"toosoon":0,"cond_shown":"Congruent","ratio_trial":100,"L_num":11,"L_den":22,"R_num":6,"R_den":15,"correct_side":1,"subjID":"anaisabellamuñozrojas10","gender":"1","school":"4","age":"9"},{"start_time":1552308165319,"click_time":1552308167519,"finger_time":1552308166959,"fix_duration":1480.1775107098924,"trial":6,"RT":1640,"MT":560,"sideResp":2,"stimulus":[],"xmouse":[784,784,784,784,784,784,784,784,784,784,784,784,784,784,784,784,784,784,784,784,784,784,784,784,784,784,784,784,784,784,784,784,784,784,784,784,784,784,784,784,784,784,784,784,784,784,784,784,784,784,784,784,784,784,784,784,784,784,784,784,784,784,784,784,784,784,784,784,784,784,784,784,784,784,784,784,784,784,784,794,801,833,864,893,919,959,994,1005,1023,1043,1058,1084,1102,1121,1138,1181,1193,1201,1207,1210,1212,1215,1216,1214,1213,1213,1202,1186,1169,1147],"ymouse":[631,631,631,631,631,631,631,631,631,631,631,631,631,631,631,631,631,631,631,631,631,631,631,631,631,631,631,631,631,631,631,631,631,631,631,631,631,631,631,631,631,631,631,631,631,631,631,631,631,631,631,631,631,631,631,631,631,631,631,631,631,631,631,631,631,631,631,631,631,631,631,631,631,631,631,631,631,631,631,621,610,552,499,451,408,350,297,279,253,227,206,175,154,137,120,68,49,33,19,10,0,0,0,0,0,0,1,7,19,31],"timestamp_mouse":[19,39,69,79,99,119,140,161,180,199,220,239,260,279,300,319,339,360,379,399,419,440,460,480,500,520,540,559,580,600,620,639,660,679,700,719,739,760,779,800,819,839,860,880,900,919,939,959,981,1000,1020,1039,1059,1079,1101,1119,1139,1160,1180,1200,1220,1239,1260,1280,1299,1319,1339,1360,1380,1400,1420,1439,1460,1480,1500,1520,1540,1560,1580,1599,1619,1640,1659,1679,1699,1719,1739,1759,1779,1799,1819,1839,1859,1879,1899,1920,1939,1959,1979,1999,2022,2041,2060,2079,2100,2119,2140,2160,2179,2200],"xSR":741.5,"ySR":573.95,"xT1":424.9,"yT1":0,"xT2":1058.1,"yT2":0,"toosoon":0,"cond_shown":"Incongruent","ratio_trial":200,"L_num":7,"L_den":15,"R_num":4,"R_den":6,"correct_side":2,"subjID":"anaisabellamuñozrojas10","gender":"1","school":"4","age":"9"},{"start_time":1552308169155,"click_time":1552308171259,"finger_time":1552308170659,"fix_duration":494.7033820335037,"trial":7,"RT":1504,"MT":600,"sideResp":2,"stimulus":[],"xmouse":[776,776,777,777,779,779,780,780,780,780,780,780,780,780,781,782,782,783,783,784,785,785,785,785,785,785,785,785,785,785,785,785,785,785,785,785,785,785,785,785,785,785,785,785,785,785,785,785,785,785,785,785,785,785,785,785,785,785,785,785,785,785,785,785,785,785,785,785,785,785,785,785,785,785,785,785,781,779,778,778,778,778,778,778,778,785,807,849,908,968,1074,1116,1160,1198,1220,1234,1238,1239,1242,1243,1244,1236,1220,1200,1162,1127],"ymouse":[625,625,629,632,634,635,636,636,636,636,636,636,636,637,639,642,643,644,645,646,648,648,648,648,648,648,648,648,648,648,648,648,648,648,648,648,648,648,648,648,648,648,648,648,648,648,648,648,648,648,648,648,648,648,648,648,648,648,648,648,648,648,648,648,648,648,648,648,648,648,648,648,648,648,625,546,490,463,451,450,450,450,450,450,448,441,430,413,398,379,336,303,264,227,204,181,171,160,144,128,107,92,73,56,30,9],"timestamp_mouse":[10,23,44,63,85,103,124,144,164,183,204,223,244,264,283,303,323,343,363,383,403,423,444,464,483,504,524,543,564,584,603,624,644,664,685,704,724,745,763,783,804,823,843,864,884,903,924,943,964,983,1003,1024,1043,1063,1084,1103,1123,1144,1165,1184,1204,1224,1244,1263,1283,1304,1323,1344,1363,1383,1404,1423,1444,1464,1483,1504,1523,1543,1563,1584,1604,1624,1644,1663,1683,1703,1723,1744,1763,1783,1803,1825,1843,1864,1883,1903,1923,1943,1963,1984,2003,2023,2043,2063,2083,2104],"xSR":741.5,"ySR":573.95,"xT1":424.9,"yT1":0,"xT2":1058.1,"yT2":0,"toosoon":0,"cond_shown":"Congruent","ratio_trial":300,"L_num":4,"L_den":20,"R_num":13,"R_den":26,"correct_side":2,"subjID":"anaisabellamuñozrojas10","gender":"1","school":"4","age":"9"},{"start_time":1552308173871,"click_time":1552308177118,"finger_time":1552308176820,"fix_duration":250,"trial":8,"RT":2949,"MT":298,"sideResp":2,"stimulus":[],"xmouse":[800,800,800,800,800,800,800,800,800,800,800,800,800,800,800,800,800,800,800,800,800,800,800,800,800,800,800,800,800,800,800,800,800,800,800,800,800,800,800,800,800,800,800,800,800,800,800,800,800,800,800,800,800,800,800,800,800,800,800,800,800,800,800,800,800,800,800,800,800,800,800,800,800,800,800,800,800,800,800,800,800,800,800,800,800,800,800,800,800,800,800,800,800,800,800,800,800,800,800,800,800,800,800,800,800,800,800,800,800,800,800,800,800,800,800,800,800,800,800,800,800,800,800,800,800,800,800,800,800,800,800,800,800,800,800,800,800,800,800,800,800,800,800,800,800,799,811,825,855,884,965,1014,1089,1115,1124,1125,1125,1125,1126,1128,1128,1124,1120],"ymouse":[608,608,608,608,608,608,608,608,608,608,608,608,608,608,608,608,608,608,608,608,608,608,608,608,608,608,608,608,608,608,608,608,608,608,608,608,608,608,608,608,608,608,608,608,608,608,608,608,608,608,608,608,608,608,608,608,608,608,608,608,608,608,608,608,608,608,608,608,608,608,608,608,608,608,608,608,608,608,608,608,608,608,608,608,608,608,608,608,608,608,608,608,608,608,608,608,608,608,608,608,608,608,608,608,608,608,608,608,608,608,608,608,608,608,608,608,608,608,608,608,608,608,608,608,608,608,608,608,608,608,608,608,608,608,608,608,608,608,608,608,608,608,608,608,608,609,592,573,537,498,386,322,242,212,200,198,196,191,181,166,124,100,93],"timestamp_mouse":[13,35,48,68,88,108,127,147,167,187,207,228,247,267,287,307,328,347,367,388,407,427,448,467,488,507,528,547,568,589,608,627,647,668,688,707,728,747,767,788,808,828,847,868,890,908,927,947,967,987,1008,1027,1047,1067,1087,1107,1128,1147,1168,1187,1207,1228,1247,1268,1287,1307,1328,1347,1368,1388,1407,1428,1448,1468,1487,1508,1528,1548,1567,1588,1607,1627,1647,1668,1688,1708,1728,1748,1768,1788,1808,1828,1848,1867,1888,1907,1927,1947,1968,1987,2007,2028,2048,2067,2088,2108,2127,2147,2168,2188,2208,2228,2247,2268,2288,2308,2327,2348,2369,2388,2407,2427,2447,2467,2488,2509,2528,2548,2568,2588,2608,2627,2647,2667,2688,2708,2728,2748,2768,2789,2807,2828,2847,2867,2888,2908,2928,2949,2967,2988,3007,3027,3047,3068,3087,3108,3128,3148,3167,3187,3207,3228,3247],"xSR":741.5,"ySR":573.95,"xT1":424.9,"yT1":0,"xT2":1058.1,"yT2":0,"toosoon":0,"cond_shown":"Incongruent","ratio_trial":300,"L_num":13,"L_den":26,"R_num":12,"R_den":15,"correct_side":2,"subjID":"anaisabellamuñozrojas10","gender":"1","school":"4","age":"9"},{"start_time":1552308178812,"click_time":1552308181598,"finger_time":1552308180278,"fix_duration":670.3469088808478,"trial":9,"RT":1466,"MT":1320,"sideResp":1,"stimulus":[],"xmouse":[811,811,811,811,811,811,811,811,811,811,811,811,811,811,811,811,811,811,811,811,811,811,811,811,811,811,811,811,811,811,811,811,811,811,811,811,811,811,811,811,811,811,811,811,811,811,811,811,811,811,811,811,811,811,811,811,811,811,811,811,811,811,811,811,811,811,811,811,811,811,811,811,810,790,773,754,732,707,675,670,670,670,670,670,669,661,647,629,600,586,576,566,565,562,560,558,555,549,544,537,536,536,536,536,536,536,536,536,536,536,536,536,536,536,536,536,536,536,536,536,536,536,536,536,536,536,536,536,536,536,536,536,536,536,536,536,536,536,529,521],"ymouse":[630,630,630,630,630,630,630,630,630,630,630,630,630,630,630,630,630,630,630,630,630,630,630,630,630,630,630,630,630,630,630,630,630,630,630,630,630,630,630,630,630,630,630,630,630,630,630,630,630,630,630,630,630,630,630,630,630,630,630,630,630,630,630,630,630,630,630,630,630,630,630,630,626,552,446,316,194,99,10,0,0,0,0,0,0,4,13,24,37,43,44,46,46,46,46,46,46,45,44,44,44,44,44,44,44,44,44,44,44,44,44,44,44,44,44,44,44,44,44,44,44,44,44,44,44,44,44,44,44,44,44,44,44,44,44,44,44,44,44,44],"timestamp_mouse":[10,28,46,66,87,107,127,146,167,187,207,227,246,267,287,306,327,347,368,387,407,426,447,466,487,506,527,546,566,586,607,627,646,668,686,707,726,746,767,786,807,826,846,867,887,907,928,947,967,987,1007,1027,1046,1067,1086,1106,1126,1147,1166,1186,1214,1227,1246,1266,1286,1306,1326,1347,1368,1387,1406,1427,1446,1466,1487,1507,1526,1546,1566,1586,1607,1626,1646,1666,1686,1706,1726,1747,1766,1787,1807,1826,1846,1868,1887,1906,1926,1947,1966,1986,2006,2026,2047,2067,2087,2106,2127,2146,2167,2186,2206,2228,2247,2266,2287,2306,2327,2346,2367,2387,2407,2426,2447,2466,2487,2506,2527,2546,2567,2586,2607,2626,2646,2666,2687,2706,2727,2747,2767,2786],"xSR":741.5,"ySR":573.95,"xT1":424.9,"yT1":0,"xT2":1058.1,"yT2":0,"toosoon":0,"cond_shown":"Incongruent","ratio_trial":300,"L_num":1,"L_den":2,"R_num":3,"R_den":15,"correct_side":1,"subjID":"anaisabellamuñozrojas10","gender":"1","school":"4","age":"9"},{"start_time":1552308185920,"click_time":1552308187978,"finger_time":1552308187718,"fix_duration":1239.6940799596096,"trial":10,"RT":1798,"MT":260,"sideResp":2,"stimulus":[],"xmouse":[796,796,796,796,796,796,796,796,796,796,796,796,796,796,796,796,796,796,796,796,796,796,796,796,799,800,800,800,800,800,800,800,800,800,800,800,800,800,800,800,800,800,800,800,800,800,800,800,800,800,800,800,800,800,800,800,800,800,800,800,800,800,800,800,800,800,800,800,800,800,800,800,800,800,800,800,800,800,800,800,799,799,799,799,799,799,799,800,803,823,850,878,919,1024,1068,1076,1079,1079,1079,1079,1079,1079,1079],"ymouse":[601,601,601,601,601,601,601,601,601,601,601,601,601,601,601,601,601,601,601,601,601,601,601,600,595,591,590,590,590,590,590,590,590,590,590,590,590,590,590,590,590,590,590,590,590,590,590,590,590,590,590,590,590,590,590,590,590,590,590,590,590,590,590,590,590,590,590,590,590,590,590,590,590,590,590,590,590,590,590,591,592,592,592,592,592,592,592,592,586,532,437,332,218,16,0,0,0,0,0,0,0,0,2],"timestamp_mouse":[18,39,58,78,99,119,139,159,178,198,219,239,259,280,298,319,338,358,379,399,418,438,458,478,499,519,538,558,578,598,618,639,658,680,698,719,738,759,779,798,818,838,859,878,900,919,940,959,978,998,1019,1038,1058,1079,1098,1119,1139,1159,1178,1199,1219,1239,1259,1280,1299,1318,1338,1359,1379,1398,1419,1438,1459,1479,1499,1518,1539,1558,1579,1598,1618,1639,1659,1679,1699,1718,1738,1758,1778,1798,1818,1838,1858,1878,1898,1919,1938,1958,1980,1998,2019,2039,2058],"xSR":741.5,"ySR":573.95,"xT1":424.9,"yT1":0,"xT2":1058.1,"yT2":0,"toosoon":0,"cond_shown":"Congruent","ratio_trial":200,"L_num":12,"L_den":15,"R_num":6,"R_den":10,"correct_side":1,"subjID":"anaisabellamuñozrojas10","gender":"1","school":"4","age":"9"},{"start_time":1552308193538,"click_time":1552308195258,"finger_time":1552308195020,"fix_duration":657.4038031807395,"trial":11,"RT":1482,"MT":238,"sideResp":2,"stimulus":[],"xmouse":[788,788,788,788,788,788,788,788,788,788,788,788,788,788,788,788,788,788,788,788,788,788,788,788,788,788,788,788,788,788,788,788,788,788,788,788,788,788,788,788,788,788,788,788,788,788,788,788,788,788,788,788,788,788,788,788,788,788,788,788,788,788,788,788,788,788,788,788,788,788,788,788,791,805,861,894,910,920,928,940,945,956,966,993,1046,1070,1082],"ymouse":[612,612,612,612,612,612,612,612,612,612,612,612,612,612,612,612,612,612,612,612,612,612,612,612,612,612,612,612,612,612,612,612,612,612,612,612,612,612,612,612,612,612,612,612,612,612,612,612,612,612,612,612,612,612,612,612,612,612,612,612,612,612,612,612,612,612,612,612,612,612,608,604,596,578,514,482,459,442,425,402,394,378,353,299,175,116,67],"timestamp_mouse":[10,20,42,61,81,101,120,141,161,181,202,220,241,261,281,300,320,341,360,381,400,420,440,460,481,501,521,541,561,581,601,621,641,661,681,701,722,741,760,781,800,821,841,860,881,902,921,941,960,980,1000,1020,1040,1061,1081,1100,1121,1141,1160,1181,1200,1221,1241,1260,1281,1300,1321,1341,1361,1382,1401,1420,1441,1460,1481,1501,1520,1540,1561,1580,1601,1620,1641,1660,1680,1700,1720],"xSR":741.5,"ySR":573.95,"xT1":424.9,"yT1":0,"xT2":1058.1,"yT2":0,"toosoon":0,"cond_shown":"Incongruent","ratio_trial":200,"L_num":14,"L_den":30,"R_num":12,"R_den":18,"correct_side":2,"subjID":"anaisabellamuñozrojas10","gender":"1","school":"4","age":"9"},{"start_time":1552308198598,"click_time":1552308201339,"finger_time":1552308200818,"fix_duration":337.52883952318103,"trial":12,"RT":2220,"MT":521,"sideResp":1,"stimulus":[],"xmouse":[803,803,802,801,800,800,800,799,799,799,799,799,799,799,799,799,799,799,799,799,799,799,799,799,799,799,799,799,799,799,799,797,797,797,797,797,797,797,794,790,786,781,779,779,778,778,778,778,778,778,778,778,778,777,776,774,773,770,770,769,769,769,769,769,769,769,769,769,769,769,769,769,769,769,769,769,769,769,769,769,769,769,769,769,769,769,769,769,769,769,769,769,769,769,769,769,767,766,766,766,766,766,766,766,766,766,766,766,766,766,761,756,725,700,666,608,587,587,586,585,585,580,574,567,558,553,551,550,548,543,538,531,525,523,523,523,523,521],"ymouse":[605,605,605,605,605,605,604,604,604,604,604,604,604,604,604,604,604,604,604,604,604,604,604,604,604,604,604,604,604,604,604,603,603,603,603,603,603,602,601,599,597,594,594,593,593,593,593,593,593,593,593,593,593,591,588,586,583,582,581,581,581,581,581,581,581,581,581,581,581,581,581,581,581,581,581,581,581,581,581,581,581,581,581,581,581,581,581,581,581,581,581,581,581,581,581,581,581,581,581,581,581,581,581,581,581,581,581,581,581,581,577,570,530,492,424,332,306,306,305,301,293,268,252,234,218,209,202,186,168,149,133,119,104,102,101,101,101,99],"timestamp_mouse":[11,20,41,61,80,101,121,141,161,180,200,220,241,260,281,300,321,340,361,381,400,421,440,461,480,501,520,541,560,580,601,620,641,661,681,700,720,740,760,781,800,820,841,861,881,901,920,941,960,981,1000,1020,1041,1062,1080,1100,1120,1141,1160,1182,1201,1220,1240,1261,1281,1300,1321,1340,1361,1380,1400,1420,1441,1460,1480,1501,1520,1541,1561,1581,1600,1621,1641,1661,1681,1701,1721,1741,1761,1782,1801,1821,1841,1861,1881,1900,1920,1940,1960,1981,2001,2020,2040,2061,2080,2102,2120,2141,2161,2181,2200,2220,2240,2260,2280,2300,2321,2340,2360,2380,2400,2421,2440,2460,2480,2501,2520,2540,2560,2580,2600,2620,2640,2660,2680,2701,2721,2741],"xSR":741.5,"ySR":573.95,"xT1":424.9,"yT1":0,"xT2":1058.1,"yT2":0,"toosoon":0,"cond_shown":"Congruent","ratio_trial":100,"L_num":2,"L_den":5,"R_num":6,"R_den":12,"correct_side":2,"subjID":"anaisabellamuñozrojas10","gender":"1","school":"4","age":"9"},{"start_time":1552308205451,"click_time":1552308207259,"finger_time":1552308206938,"fix_duration":250,"trial":13,"RT":1487,"MT":321,"sideResp":2,"stimulus":[],"xmouse":[825,824,822,822,813,811,809,808,808,807,807,807,807,806,806,806,806,806,806,806,806,806,806,806,806,806,806,806,806,806,806,806,806,806,806,806,806,806,806,806,806,806,806,806,806,806,806,806,806,806,806,806,806,806,806,806,806,806,806,806,806,806,806,805,804,804,803,803,803,803,803,803,803,805,831,852,868,880,896,971,993,1005,1014,1022,1032,1033,1036,1038,1043,1068,1096],"ymouse":[603,603,603,603,603,603,603,603,603,603,603,603,603,603,603,603,603,603,603,603,603,603,603,603,603,603,603,603,603,603,603,603,603,603,603,603,603,603,603,603,603,603,603,603,603,603,603,603,603,603,603,603,603,603,603,603,603,603,603,603,603,603,603,603,603,603,603,603,603,603,603,600,594,583,523,482,454,437,418,338,310,289,268,247,218,211,205,198,191,146,92],"timestamp_mouse":[11,27,51,67,87,107,127,147,168,187,207,228,249,267,287,308,328,348,368,388,408,428,448,468,488,507,528,548,568,587,607,627,648,667,688,708,727,748,768,788,807,827,848,868,888,907,927,947,968,988,1007,1028,1048,1068,1087,1107,1128,1148,1167,1187,1208,1227,1248,1268,1288,1308,1328,1347,1368,1388,1408,1427,1448,1467,1487,1507,1528,1547,1567,1587,1608,1627,1648,1667,1687,1707,1727,1748,1767,1787,1808],"xSR":741.5,"ySR":573.95,"xT1":424.9,"yT1":0,"xT2":1058.1,"yT2":0,"toosoon":0,"cond_shown":"Congruent","ratio_trial":200,"L_num":12,"L_den":20,"R_num":6,"R_den":15,"correct_side":1,"subjID":"anaisabellamuñozrojas10","gender":"1","school":"4","age":"9"},{"start_time":1552308210310,"click_time":1552308212960,"finger_time":1552308212559,"fix_duration":410.345633457699,"trial":14,"RT":2249,"MT":401,"sideResp":1,"stimulus":[],"xmouse":[804,803,801,800,800,800,800,800,800,800,800,800,800,800,800,800,800,800,800,800,800,800,800,800,800,800,800,800,800,800,800,800,800,800,800,800,799,796,795,794,794,794,794,794,794,794,794,794,794,794,793,792,790,789,788,788,788,788,788,788,788,788,788,788,788,788,788,788,788,788,788,788,788,788,788,788,788,788,788,788,788,788,786,784,781,781,781,781,781,781,781,781,781,781,781,781,781,781,781,781,781,781,781,781,781,781,781,780,779,777,774,767,716,697,644,621,608,603,603,600,594,589,576,554,540,533,530,525,524,524,524,524,519],"ymouse":[592,596,599,600,600,600,600,600,600,600,600,600,600,600,600,600,600,600,600,600,600,600,600,600,600,600,600,600,600,600,600,600,600,600,600,602,605,615,616,618,618,618,618,618,618,618,618,618,618,618,618,616,610,609,608,606,606,606,606,606,606,606,606,606,606,606,606,606,606,606,606,606,606,606,606,606,606,606,606,606,606,606,607,613,633,643,647,647,647,647,647,647,647,647,647,647,647,647,647,647,647,647,647,647,647,647,647,647,645,643,640,632,566,539,450,401,357,273,234,203,169,134,59,0,0,0,0,0,0,0,0,0,10],"timestamp_mouse":[11,28,49,68,88,109,129,149,168,188,208,228,249,270,289,308,328,349,368,390,409,429,449,469,489,509,529,548,570,589,608,629,648,669,688,709,728,748,768,788,809,829,848,870,889,910,929,949,970,990,1009,1030,1049,1070,1089,1109,1128,1149,1169,1190,1210,1230,1249,1269,1290,1310,1330,1349,1370,1389,1409,1430,1449,1470,1488,1509,1529,1550,1570,1590,1609,1630,1649,1669,1689,1709,1730,1750,1770,1788,1810,1830,1848,1869,1890,1910,1929,1948,1970,1989,2010,2030,2048,2069,2089,2110,2128,2150,2169,2190,2209,2229,2249,2269,2289,2308,2329,2349,2369,2389,2409,2429,2449,2469,2488,2509,2529,2551,2569,2588,2609,2628,2649],"xSR":741.5,"ySR":573.95,"xT1":424.9,"yT1":0,"xT2":1058.1,"yT2":0,"toosoon":0,"cond_shown":"Incongruent","ratio_trial":300,"L_num":4,"L_den":5,"R_num":6,"R_den":12,"correct_side":1,"subjID":"anaisabellamuñozrojas10","gender":"1","school":"4","age":"9"},{"start_time":1552308215482,"click_time":1552308217981,"finger_time":1552308217639,"fix_duration":742.7782877913221,"trial":15,"RT":2157,"MT":342,"sideResp":1,"stimulus":[],"xmouse":[751,751,751,752,752,752,752,752,752,752,752,752,752,752,752,752,752,752,752,752,752,752,752,752,752,752,752,752,752,752,752,752,752,752,752,752,752,752,752,752,753,755,755,755,756,756,756,756,756,756,756,756,756,756,756,756,756,756,756,756,756,756,756,756,756,756,756,756,756,756,756,758,758,761,762,763,766,766,774,777,780,780,780,780,780,780,780,780,780,780,780,780,780,780,780,780,780,780,780,780,780,780,780,780,780,779,772,745,632,566,517,507,505,505,509,510,511,514,518,518,517,512,506,503,487],"ymouse":[630,630,630,630,630,630,630,630,630,630,630,630,630,630,630,630,630,630,630,630,630,630,630,630,630,630,630,630,630,630,630,630,630,630,630,630,630,630,630,630,632,638,642,653,655,655,655,655,655,655,655,655,655,655,655,655,655,655,655,655,655,655,655,655,655,654,652,651,651,651,651,648,647,645,644,643,639,636,622,615,610,610,610,610,610,610,610,610,610,610,610,610,610,610,610,610,610,610,610,610,610,610,610,610,609,607,595,555,427,378,347,334,326,313,294,285,272,250,210,198,188,175,151,126,53],"timestamp_mouse":[17,46,57,78,97,117,138,157,177,198,218,237,258,277,297,317,338,357,377,397,418,437,457,477,498,517,537,557,578,598,618,637,657,676,698,718,737,757,778,797,817,836,857,878,898,917,938,958,977,997,1018,1038,1056,1078,1096,1118,1138,1157,1177,1198,1217,1237,1257,1277,1296,1318,1338,1357,1378,1398,1417,1437,1458,1477,1497,1518,1537,1557,1577,1597,1617,1638,1658,1678,1698,1718,1738,1758,1778,1797,1818,1837,1857,1878,1898,1918,1938,1957,1977,1998,2018,2038,2057,2076,2098,2117,2138,2157,2178,2197,2217,2237,2256,2277,2297,2316,2338,2357,2378,2396,2417,2437,2458,2477,2498],"xSR":741.5,"ySR":573.95,"xT1":424.9,"yT1":0,"xT2":1058.1,"yT2":0,"toosoon":0,"cond_shown":"Incongruent","ratio_trial":200,"L_num":7,"L_den":10,"R_num":14,"R_den":28,"correct_side":1,"subjID":"anaisabellamuñozrojas10","gender":"1","school":"4","age":"9"},{"start_time":1552308219940,"click_time":1552308223079,"finger_time":1552308222559,"fix_duration":638.0230180353235,"trial":16,"RT":2619,"MT":520,"sideResp":1,"stimulus":[],"xmouse":[839,839,839,839,839,839,839,839,839,839,839,839,839,839,839,839,839,839,839,839,839,839,839,839,839,839,839,839,839,839,839,839,839,839,839,839,839,839,839,839,839,839,839,839,839,839,839,839,839,839,839,839,839,839,839,839,839,839,839,839,839,839,839,839,839,839,839,839,839,839,839,839,839,839,839,839,839,839,839,839,839,839,839,839,839,839,839,839,839,839,839,839,839,839,839,838,838,838,838,838,838,838,838,838,838,838,838,838,838,837,837,837,837,837,837,837,837,837,837,837,837,837,837,837,837,837,837,837,837,837,830,802,758,747,732,704,661,565,527,514,506,499,497,497,497,497,497,504,508,512,514,515,514,507,499,489,481,470],"ymouse":[606,606,606,606,606,606,606,606,606,606,606,606,606,606,606,606,606,606,606,606,606,606,606,606,606,606,606,606,606,606,606,606,606,606,606,606,606,606,606,606,606,606,606,606,606,606,606,606,606,606,606,606,606,606,606,606,606,606,606,606,606,606,606,606,606,606,606,606,606,606,606,606,606,606,606,606,606,606,606,606,606,606,606,606,606,606,606,606,606,606,606,606,606,606,606,605,604,602,602,602,602,602,602,602,601,600,598,596,596,595,594,593,593,593,593,593,593,593,593,593,593,593,593,593,593,593,593,593,593,593,589,572,538,522,498,455,402,321,301,292,285,278,272,272,272,272,270,241,227,213,198,182,155,141,126,113,101,73],"timestamp_mouse":[1,19,54,60,79,100,120,140,160,179,200,220,239,259,280,299,320,340,360,380,398,420,440,460,479,500,520,540,559,579,600,619,640,660,680,700,720,740,760,779,799,819,840,859,880,898,920,940,959,980,999,1019,1038,1059,1079,1099,1119,1139,1160,1179,1200,1219,1239,1259,1279,1299,1320,1339,1359,1378,1399,1420,1440,1459,1479,1499,1520,1540,1560,1579,1599,1618,1640,1659,1680,1700,1720,1738,1758,1780,1799,1820,1840,1860,1879,1899,1920,1938,1960,1979,2000,2020,2039,2060,2080,2100,2119,2139,2159,2179,2200,2220,2239,2259,2279,2300,2320,2340,2359,2380,2400,2420,2440,2460,2479,2500,2519,2539,2559,2579,2599,2619,2639,2658,2680,2698,2719,2739,2759,2779,2799,2819,2839,2859,2879,2900,2918,2939,2959,2979,2999,3019,3038,3059,3079,3099,3119,3139],"xSR":741.5,"ySR":573.95,"xT1":424.9,"yT1":0,"xT2":1058.1,"yT2":0,"toosoon":0,"cond_shown":"Incongruent","ratio_trial":300,"L_num":8,"L_den":10,"R_num":9,"R_den":18,"correct_side":1,"subjID":"anaisabellamuñozrojas10","gender":"1","school":"4","age":"9"},{"start_time":1552308227032,"click_time":1552308228740,"finger_time":1552308228439,"fix_duration":1251.5212410796685,"trial":17,"RT":1407,"MT":301,"sideResp":2,"stimulus":[],"xmouse":[809,809,809,809,809,809,809,809,809,809,809,809,809,809,809,809,809,809,809,809,809,809,809,809,809,809,809,809,809,809,809,809,809,809,809,809,809,809,809,809,809,809,809,809,809,809,809,809,809,809,809,809,809,809,809,809,809,809,809,809,809,809,809,809,809,809,809,809,809,810,827,857,893,956,978,992,1006,1023,1027,1032,1034,1036,1041,1056,1061,1066],"ymouse":[601,601,601,601,601,601,601,601,601,601,601,601,601,601,601,601,601,601,601,601,601,601,601,601,601,601,601,601,601,601,601,601,601,601,601,601,601,601,601,601,601,601,601,601,601,601,601,601,601,601,601,601,601,601,601,601,601,601,601,601,601,601,601,601,601,601,601,601,601,592,567,512,443,343,310,280,247,205,189,176,169,164,153,127,114,97],"timestamp_mouse":[14,29,47,67,88,108,127,147,168,187,208,228,247,267,287,306,327,348,366,388,407,427,448,468,488,508,528,548,567,587,607,627,648,667,686,707,726,748,767,787,808,826,846,867,888,907,928,948,967,987,1007,1028,1046,1067,1088,1106,1128,1147,1167,1188,1207,1227,1247,1268,1287,1307,1327,1348,1367,1387,1407,1427,1447,1468,1487,1506,1527,1548,1567,1587,1607,1627,1647,1668,1687,1708],"xSR":741.5,"ySR":573.95,"xT1":424.9,"yT1":0,"xT2":1058.1,"yT2":0,"toosoon":0,"cond_shown":"Incongruent","ratio_trial":100,"L_num":10,"L_den":25,"R_num":8,"R_den":16,"correct_side":2,"subjID":"anaisabellamuñozrojas10","gender":"1","school":"4","age":"9"},{"start_time":1552308230389,"click_time":1552308232702,"finger_time":1552308232119,"fix_duration":749.3941806521501,"trial":18,"RT":1730,"MT":583,"sideResp":1,"stimulus":[],"xmouse":[765,765,765,765,765,765,765,765,765,765,765,765,765,765,765,765,765,765,765,765,765,765,765,765,765,765,765,765,765,765,765,765,765,765,765,765,765,765,765,765,765,765,765,765,765,765,765,765,765,765,765,765,765,765,765,765,765,765,765,765,765,765,765,765,765,765,765,765,765,766,770,776,781,783,783,784,784,784,784,784,784,784,784,784,781,763,752,741,733,723,702,695,688,676,662,625,603,580,563,540,518,504,485,460,439,415,412,409,406,406,406,406,406,410,422,457],"ymouse":[660,660,660,660,660,660,660,660,660,660,660,660,660,660,660,660,660,660,660,660,660,660,660,660,660,660,660,660,660,660,660,660,660,660,660,660,660,660,660,660,660,660,660,660,660,660,660,660,660,660,660,660,660,660,660,660,660,660,660,660,660,660,660,660,660,660,660,660,660,659,654,647,643,641,640,640,640,640,640,640,640,640,640,640,630,584,548,522,500,483,461,457,456,456,456,447,436,421,406,381,318,269,216,159,120,59,39,20,7,4,3,3,3,5,10,22],"timestamp_mouse":[10,31,53,70,91,110,131,151,169,191,211,231,251,271,291,310,331,351,371,391,411,431,450,471,491,512,530,551,570,590,610,630,650,671,691,710,730,750,770,791,810,831,850,871,890,911,930,950,970,990,1010,1030,1050,1070,1091,1110,1130,1151,1170,1190,1211,1230,1251,1270,1289,1311,1330,1350,1370,1391,1410,1430,1451,1471,1490,1510,1530,1550,1570,1591,1610,1631,1650,1671,1690,1710,1730,1751,1770,1790,1810,1829,1850,1870,1890,1910,1930,1951,1970,1990,2010,2030,2050,2071,2089,2110,2130,2150,2171,2191,2210,2230,2250,2271,2291,2312],"xSR":741.5,"ySR":573.95,"xT1":424.9,"yT1":0,"xT2":1058.1,"yT2":0,"toosoon":0,"cond_shown":"Congruent","ratio_trial":200,"L_num":6,"L_den":15,"R_num":3,"R_den":15,"correct_side":1,"subjID":"anaisabellamuñozrojas10","gender":"1","school":"4","age":"9"},{"start_time":1552308235034,"click_time":1552308237279,"finger_time":1552308236740,"fix_duration":1033.0369059702546,"trial":19,"RT":1706,"MT":539,"sideResp":2,"stimulus":[],"xmouse":[827,827,827,827,827,827,827,827,827,827,827,827,827,827,827,827,827,827,827,827,827,827,827,827,827,827,827,827,827,827,827,827,827,827,827,827,827,827,827,827,827,827,827,827,827,827,827,827,827,827,827,827,827,827,827,827,827,827,827,827,827,827,827,827,827,827,827,827,827,827,827,827,827,827,827,827,827,827,827,827,827,827,827,827,826,832,840,852,874,929,957,981,996,1004,1010,1015,1016,1020,1025,1036,1038,1039,1039,1040,1046,1052,1053,1055,1055,1055,1056,1058,1061],"ymouse":[583,583,583,583,583,583,583,583,583,583,583,583,583,583,583,583,583,583,583,583,583,583,583,583,583,583,583,583,583,583,583,583,583,583,583,583,583,583,583,583,583,583,583,583,583,583,583,583,583,583,583,583,583,583,583,583,583,583,583,583,583,583,583,583,583,583,583,583,583,583,583,583,583,583,583,583,583,583,583,583,583,583,583,583,580,566,548,519,470,333,269,219,182,167,153,145,144,134,124,96,90,86,84,83,75,69,67,64,64,64,64,62,58],"timestamp_mouse":[12,25,44,64,85,104,126,146,165,186,204,225,245,265,285,306,325,346,365,385,405,426,446,465,485,505,524,546,565,585,605,625,645,666,685,705,724,746,765,785,805,825,846,866,885,906,926,946,964,985,1005,1026,1045,1066,1086,1106,1126,1146,1166,1186,1206,1226,1246,1265,1286,1306,1325,1345,1365,1385,1406,1426,1445,1466,1485,1505,1525,1545,1566,1586,1605,1625,1646,1666,1685,1706,1725,1746,1765,1785,1806,1825,1844,1866,1885,1905,1925,1945,1965,1985,2006,2025,2045,2065,2086,2106,2124,2144,2166,2186,2204,2224,2244],"xSR":741.5,"ySR":573.95,"xT1":424.9,"yT1":0,"xT2":1058.1,"yT2":0,"toosoon":0,"cond_shown":"Congruent","ratio_trial":300,"L_num":1,"L_den":30,"R_num":8,"R_den":24,"correct_side":2,"subjID":"anaisabellamuñozrojas10","gender":"1","school":"4","age":"9"},{"start_time":1552308238843,"click_time":1552308242579,"finger_time":1552308241880,"fix_duration":622.8255000032643,"trial":20,"RT":3037,"MT":699,"sideResp":1,"stimulus":[],"xmouse":[799,799,799,799,799,799,799,799,799,799,799,799,799,799,799,799,799,799,799,799,799,799,799,799,799,799,799,799,799,799,799,799,799,799,799,799,799,799,799,799,799,799,799,799,799,799,799,799,799,799,799,799,799,799,799,799,799,799,799,799,799,799,799,799,799,799,799,799,799,799,799,799,799,799,799,799,799,799,799,799,799,799,799,799,799,799,799,799,799,799,799,799,799,799,799,799,799,799,799,799,799,799,799,799,799,799,799,799,799,799,799,799,799,799,799,799,799,799,799,799,799,799,799,799,799,799,799,799,799,799,799,799,799,799,799,799,799,799,799,799,799,799,799,799,799,799,799,799,799,796,793,773,750,674,651,636,624,619,610,599,588,572,548,518,456,435,423,416,413,408,405,401,397,395,394,394,396,402,420,428,431,433,433,433,440,447,452],"ymouse":[608,608,608,608,608,608,608,608,608,608,608,608,608,608,608,608,608,608,608,608,608,608,608,608,608,608,608,608,608,608,608,608,608,608,608,608,608,608,608,608,608,608,608,608,608,608,608,608,608,608,608,608,608,608,608,608,608,608,608,608,608,608,608,608,608,608,608,608,608,608,608,608,608,608,608,608,608,608,608,608,608,608,608,608,608,608,608,608,608,608,608,608,608,608,608,608,608,608,608,608,608,608,608,608,608,608,608,608,608,608,608,608,608,608,608,608,608,608,608,608,608,608,608,608,608,608,608,608,608,608,608,608,608,608,608,608,608,608,608,608,608,608,608,608,608,608,608,608,608,601,590,553,526,471,459,451,444,441,429,414,398,377,350,324,277,262,253,247,241,231,224,216,205,199,189,185,178,169,147,136,130,128,128,128,117,105,96],"timestamp_mouse":[17,36,57,76,95,117,137,157,176,197,216,237,257,276,297,315,337,357,377,397,417,435,456,477,496,516,537,556,577,596,616,637,656,676,696,717,736,757,776,795,817,837,856,876,897,917,952,956,977,997,1016,1037,1056,1076,1097,1115,1136,1156,1176,1196,1217,1236,1257,1275,1297,1316,1336,1357,1376,1397,1417,1436,1456,1476,1497,1516,1537,1557,1575,1597,1617,1636,1657,1676,1697,1716,1737,1755,1775,1797,1816,1836,1856,1876,1896,1917,1936,1957,1975,1997,2016,2037,2056,2076,2096,2117,2137,2155,2176,2196,2215,2236,2257,2275,2297,2317,2337,2357,2376,2396,2415,2436,2457,2477,2496,2517,2536,2556,2576,2595,2616,2636,2656,2676,2697,2716,2737,2755,2776,2796,2815,2837,2856,2875,2896,2917,2937,2957,2977,2995,3016,3037,3057,3076,3096,3117,3136,3155,3177,3196,3216,3237,3256,3276,3297,3316,3335,3356,3376,3396,3416,3436,3457,3476,3496,3516,3537,3556,3576,3596,3616,3637,3656,3676,3696,3716,3736],"xSR":741.5,"ySR":573.95,"xT1":424.9,"yT1":0,"xT2":1058.1,"yT2":0,"toosoon":0,"cond_shown":"Congruent","ratio_trial":200,"L_num":1,"L_den":2,"R_num":21,"R_den":30,"correct_side":2,"subjID":"anaisabellamuñozrojas10","gender":"1","school":"4","age":"9"},{"start_time":1552308246672,"click_time":1552308250339,"finger_time":1552308250019,"fix_duration":250,"trial":21,"RT":3347,"MT":320,"sideResp":1,"stimulus":[],"xmouse":[784,784,784,784,784,784,784,784,784,784,784,784,784,784,784,784,784,784,784,784,784,784,784,784,784,784,784,784,784,784,784,784,784,784,784,784,784,784,784,784,784,784,784,784,784,784,784,784,784,784,784,784,784,784,784,784,784,784,784,784,784,784,784,784,784,784,784,784,784,784,784,784,784,784,784,784,784,784,784,784,784,784,784,784,784,784,784,784,784,784,784,784,784,784,784,784,784,784,784,784,784,784,784,784,784,784,784,784,784,784,784,784,784,784,784,784,784,784,784,784,784,784,784,784,784,784,784,784,784,784,784,784,784,784,784,784,784,784,784,784,784,784,784,784,784,784,784,784,784,784,784,784,784,784,784,784,784,784,784,784,784,784,784,784,784,783,783,777,743,735,729,727,726,725,723,718,715,713,711,707,691,651,590,453],"ymouse":[614,614,614,614,614,614,614,614,614,614,614,614,614,614,614,614,614,614,614,614,614,614,614,614,614,614,614,614,614,614,614,614,614,614,614,614,614,614,614,614,614,614,614,614,614,614,614,614,614,614,614,614,614,614,614,614,614,614,614,614,614,614,614,614,614,614,614,614,614,614,614,614,614,614,614,614,614,614,614,614,614,614,614,614,614,614,614,614,614,614,614,614,614,614,614,614,614,614,614,614,614,614,614,614,614,614,614,614,614,614,614,614,614,614,614,614,614,614,614,614,614,614,614,614,614,614,614,614,614,614,614,614,614,614,614,614,614,614,614,614,614,614,614,614,614,614,614,614,614,614,614,614,614,614,614,614,614,614,614,614,614,614,614,614,614,612,600,567,470,457,449,444,438,393,363,338,321,315,311,299,270,222,172,72],"timestamp_mouse":[9,39,48,67,88,107,127,148,167,187,208,227,248,267,287,307,326,346,368,388,407,428,447,467,488,508,527,548,567,588,607,628,648,668,688,707,727,748,766,786,807,828,847,868,887,907,928,947,968,988,1007,1027,1047,1068,1087,1108,1126,1148,1168,1187,1207,1228,1248,1267,1288,1308,1327,1347,1368,1388,1408,1428,1448,1467,1488,1507,1527,1547,1568,1588,1607,1627,1647,1667,1687,1708,1728,1747,1766,1787,1807,1827,1847,1868,1887,1907,1928,1948,1967,1988,2008,2027,2048,2067,2088,2107,2127,2148,2168,2188,2208,2228,2248,2268,2287,2307,2328,2347,2367,2388,2406,2428,2448,2467,2488,2507,2527,2548,2567,2588,2607,2626,2648,2668,2687,2707,2727,2748,2767,2788,2808,2828,2847,2867,2888,2908,2927,2946,2968,2988,3008,3028,3046,3068,3086,3108,3128,3148,3167,3188,3207,3228,3247,3268,3286,3307,3327,3347,3366,3387,3407,3427,3446,3467,3487,3507,3527,3547,3567,3587,3606,3627,3647,3667],"xSR":741.5,"ySR":573.95,"xT1":424.9,"yT1":0,"xT2":1058.1,"yT2":0,"toosoon":0,"cond_shown":"Congruent","ratio_trial":300,"L_num":3,"L_den":6,"R_num":2,"R_den":10,"correct_side":1,"subjID":"anaisabellamuñozrojas10","gender":"1","school":"4","age":"9"},{"start_time":1552308252209,"click_time":1552308254480,"finger_time":1552308254119,"fix_duration":507.867008538461,"trial":22,"RT":1910,"MT":361,"sideResp":2,"stimulus":[],"xmouse":[814,814,814,814,814,814,814,814,814,814,814,817,820,820,820,820,820,820,820,820,820,820,820,820,820,820,820,820,820,820,820,820,820,820,820,820,820,820,820,820,820,820,820,820,820,820,820,820,820,820,820,820,820,820,820,820,820,820,820,820,820,820,820,820,820,820,820,820,820,820,820,820,820,820,820,820,820,820,820,820,820,820,820,820,820,820,820,820,820,820,820,820,820,821,829,851,915,947,989,1025,1043,1057,1076,1078,1081,1082,1085,1103,1114,1124,1129,1134,1143,1150],"ymouse":[631,631,631,631,631,631,631,631,631,631,631,628,626,626,626,626,626,626,626,626,626,626,626,626,626,626,626,626,626,626,626,626,626,626,626,626,626,626,626,626,626,626,626,626,626,626,626,626,626,626,626,626,626,626,626,626,626,626,626,626,626,626,626,626,626,626,626,626,626,626,626,626,626,626,626,626,626,626,626,626,626,626,626,626,626,626,626,626,626,626,626,626,626,626,618,593,520,484,436,388,359,336,304,297,293,288,282,251,234,210,194,174,119,75],"timestamp_mouse":[13,29,50,71,90,110,130,150,170,190,210,230,251,270,291,310,330,351,371,390,410,431,450,470,491,511,530,549,571,591,610,630,650,670,692,711,731,751,770,790,811,830,851,870,890,910,931,951,970,990,1010,1031,1051,1071,1091,1110,1131,1150,1171,1191,1210,1231,1249,1270,1291,1310,1329,1350,1370,1391,1411,1430,1451,1469,1491,1511,1531,1551,1571,1590,1611,1631,1650,1671,1691,1710,1730,1750,1771,1791,1811,1830,1851,1870,1890,1910,1931,1950,1970,1989,2010,2030,2050,2071,2090,2110,2130,2150,2170,2189,2211,2229,2249,2271],"xSR":741.5,"ySR":573.95,"xT1":424.9,"yT1":0,"xT2":1058.1,"yT2":0,"toosoon":0,"cond_shown":"Congruent","ratio_trial":200,"L_num":14,"L_den":28,"R_num":6,"R_den":20,"correct_side":1,"subjID":"anaisabellamuñozrojas10","gender":"1","school":"4","age":"9"},{"start_time":1552308278769,"click_time":1552308280841,"finger_time":1552308280159,"fix_duration":368.65108484091314,"trial":23,"RT":1390,"MT":682,"sideResp":1,"stimulus":[],"xmouse":[780,780,780,780,780,780,780,780,780,780,780,780,780,780,780,780,780,780,780,780,780,780,780,780,780,780,780,780,780,780,780,780,780,780,780,780,780,780,780,780,780,780,780,780,780,780,780,780,780,780,780,780,780,780,780,780,780,780,780,780,780,780,780,780,780,780,780,780,784,857,954,1026,1056,1056,1056,1054,1054,1054,1054,1054,1054,1053,1051,1051,1051,1051,1051,1051,1051,1051,1051,1051,1051,1051,1050,1046,1035,985,921,856,789,647,573,488],"ymouse":[620,620,620,620,620,620,620,620,620,620,620,620,620,620,620,620,620,620,620,620,620,620,620,620,620,620,620,620,620,620,620,620,620,620,620,620,620,620,620,620,620,620,620,620,620,620,620,620,620,620,620,620,620,620,620,620,620,620,620,620,620,620,620,620,620,620,620,620,618,547,463,400,371,367,357,337,296,275,244,227,215,207,195,189,184,180,178,177,177,177,177,177,177,177,176,180,193,227,246,246,219,121,66,17],"timestamp_mouse":[12,35,50,70,90,111,131,150,171,192,210,231,250,271,292,310,330,351,371,390,411,431,450,470,491,510,531,552,571,591,612,631,650,670,690,710,732,752,771,790,811,832,852,872,891,911,930,950,971,991,1010,1031,1050,1072,1091,1111,1130,1150,1171,1192,1212,1231,1252,1271,1291,1310,1330,1352,1371,1390,1411,1430,1451,1470,1491,1512,1532,1550,1571,1590,1610,1631,1651,1671,1690,1712,1730,1752,1770,1790,1811,1831,1852,1871,1892,1911,1931,1950,1970,1991,2010,2032,2050,2071],"xSR":741.5,"ySR":573.95,"xT1":424.9,"yT1":0,"xT2":1058.1,"yT2":0,"toosoon":0,"cond_shown":"Incongruent","ratio_trial":300,"L_num":1,"L_den":2,"R_num":3,"R_den":15,"correct_side":1,"subjID":"anaisabellamuñozrojas10","gender":"1","school":"4","age":"9"},{"start_time":1552308283723,"click_time":1552308286019,"finger_time":1552308285801,"fix_duration":442.1659105918816,"trial":24,"RT":2078,"MT":218,"sideResp":2,"stimulus":[],"xmouse":[769,769,769,769,769,769,769,769,769,769,769,769,769,769,769,769,769,769,769,769,769,769,769,769,769,769,769,769,769,769,769,769,769,769,769,769,769,769,769,769,769,769,769,769,769,769,769,769,769,769,769,769,769,769,769,769,769,769,769,769,769,769,769,769,769,769,769,769,769,769,769,769,769,769,769,769,769,769,769,769,769,769,769,769,769,769,769,769,769,769,769,769,769,769,769,769,769,769,769,770,775,783,798,810,834,848,873,907,943,1027,1048,1067,1086,1104,1119],"ymouse":[623,623,623,623,623,623,623,623,623,623,623,623,623,623,623,623,623,623,623,623,623,623,623,623,623,623,623,623,623,623,623,623,623,623,623,623,623,623,623,623,623,623,623,623,623,623,623,623,623,623,623,623,623,623,623,623,623,623,623,623,623,623,623,623,623,623,623,623,623,623,623,623,623,623,623,623,623,623,623,623,623,623,623,623,623,623,623,623,623,623,623,623,623,623,623,623,623,623,623,622,611,599,580,561,520,499,468,428,385,283,251,214,175,130,88],"timestamp_mouse":[16,44,58,76,97,116,137,157,178,198,217,236,257,278,297,317,336,357,376,397,418,437,456,477,497,517,537,557,576,597,616,637,658,677,697,718,738,758,777,796,816,837,858,876,896,917,936,957,977,998,1017,1037,1056,1076,1096,1118,1138,1157,1176,1196,1216,1236,1256,1276,1297,1316,1336,1357,1377,1397,1417,1437,1457,1478,1497,1517,1536,1556,1577,1598,1617,1637,1657,1678,1696,1717,1737,1757,1777,1797,1817,1836,1856,1878,1897,1917,1938,1957,1977,1996,2017,2036,2056,2078,2097,2116,2136,2156,2177,2196,2216,2237,2258,2276,2296],"xSR":741.5,"ySR":573.95,"xT1":424.9,"yT1":0,"xT2":1058.1,"yT2":0,"toosoon":0,"cond_shown":"Congruent","ratio_trial":200,"L_num":15,"L_den":25,"R_num":4,"R_den":10,"correct_side":1,"subjID":"anaisabellamuñozrojas10","gender":"1","school":"4","age":"9"},{"start_time":1552308289344,"click_time":1552308291741,"finger_time":1552308290020,"fix_duration":982.0483445537747,"trial":25,"RT":676,"MT":1721,"sideResp":1,"stimulus":[],"xmouse":[794,794,794,794,794,794,794,794,794,794,793,792,788,788,788,788,788,788,788,788,788,788,788,787,787,787,787,787,787,787,787,785,767,724,654,653,653,653,653,653,653,653,653,653,653,653,653,653,653,653,653,653,655,662,685,687,690,692,694,710,719,724,727,728,728,731,738,743,751,754,754,754,755,756,760,761,763,768,770,770,770,770,770,770,770,770,770,770,770,770,770,770,770,770,770,770,770,767,760,753,739,729,716,698,670,670,669,669,665,659,630,613,595,584,576,572,561,543,525,506],"ymouse":[630,630,630,630,630,630,630,630,630,630,632,636,644,645,645,645,645,645,645,645,645,645,646,647,647,647,647,647,648,649,649,653,672,707,749,749,750,750,750,750,750,750,750,750,750,750,750,750,750,750,750,750,747,734,703,699,694,691,687,660,651,648,648,648,648,646,642,637,632,630,630,630,630,630,628,628,627,624,624,624,624,624,624,624,624,624,624,624,624,624,624,624,624,624,624,624,618,599,527,346,230,107,0,0,0,0,0,0,0,5,26,35,39,41,42,42,39,37,36,36],"timestamp_mouse":[15,35,55,76,96,115,136,157,177,196,215,235,256,276,296,315,336,355,375,396,415,437,455,475,497,517,536,555,575,596,616,636,655,676,695,715,736,756,777,795,816,835,856,877,896,915,935,955,976,996,1017,1035,1055,1076,1095,1116,1136,1156,1176,1195,1216,1236,1255,1277,1296,1316,1335,1355,1376,1395,1416,1435,1455,1476,1495,1516,1535,1555,1575,1595,1616,1635,1656,1675,1695,1716,1736,1756,1776,1796,1815,1835,1856,1875,1895,1916,1935,1956,1977,1996,2016,2035,2055,2076,2096,2115,2135,2156,2176,2195,2215,2235,2256,2276,2295,2317,2335,2356,2376,2397],"xSR":741.5,"ySR":573.95,"xT1":424.9,"yT1":0,"xT2":1058.1,"yT2":0,"toosoon":0,"cond_shown":"Incongruent","ratio_trial":200,"L_num":4,"L_den":5,"R_num":6,"R_den":10,"correct_side":1,"subjID":"anaisabellamuñozrojas10","gender":"1","school":"4","age":"9"},{"start_time":1552308293094,"click_time":1552308297860,"finger_time":1552308297220,"fix_duration":273.70883688722614,"trial":26,"RT":4126,"MT":640,"sideResp":2,"stimulus":[],"xmouse":[792,792,792,792,792,792,792,792,792,792,792,792,792,792,792,792,792,792,792,792,792,792,792,792,792,792,792,792,792,792,792,792,792,792,792,792,792,792,792,792,792,792,793,793,793,793,793,793,793,793,793,793,793,793,793,793,793,793,793,793,793,793,793,793,793,793,793,793,793,793,793,793,793,793,793,793,793,793,793,793,793,793,793,793,793,793,793,793,793,793,793,793,793,793,793,793,793,793,793,793,793,793,793,793,793,793,793,793,793,793,793,793,793,793,793,793,793,793,793,793,793,793,793,793,793,793,793,793,793,793,793,793,793,793,793,793,793,793,793,793,793,793,793,793,793,793,793,793,793,793,793,793,793,793,793,793,793,793,793,793,793,793,793,793,793,793,793,793,793,793,793,793,793,793,793,793,793,793,793,793,793,793,793,793,793,793,793,793,793,793,796,799,811,815,816,816,816,816,816,816,816,816,816,818,822,828,843,890,917,948,971,990,1019,1032,1043,1045,1047,1050,1064,1074,1086,1095,1100,1107,1110,1111,1112,1112,1112,1112,1112,1112,1112,1112,1112,1112,1112,1112,1112],"ymouse":[622,622,622,622,622,622,622,623,626,628,628,628,629,629,629,629,629,629,629,629,629,629,629,629,629,629,629,629,629,629,629,629,629,629,629,629,629,629,629,629,630,631,633,633,633,633,633,633,633,633,633,633,633,633,633,633,633,633,633,633,633,633,633,633,633,633,633,633,633,633,633,633,633,633,633,633,633,633,633,633,633,633,633,633,633,633,633,633,633,633,633,633,633,633,633,633,633,633,633,633,633,633,633,633,633,633,633,633,633,633,633,633,633,633,633,633,633,633,633,633,633,633,633,633,633,633,633,633,633,633,633,633,633,633,633,633,633,633,633,633,633,633,633,633,633,633,633,633,633,633,633,633,633,633,633,633,633,633,633,633,633,633,633,633,633,633,633,633,633,633,633,633,633,633,633,633,633,633,633,633,633,633,633,633,633,633,633,633,633,633,633,631,627,626,625,625,625,625,625,625,625,625,625,619,607,596,570,502,457,408,368,336,290,275,262,259,255,249,229,215,201,188,179,169,162,161,159,156,153,150,145,142,139,130,119,113,107,103,99],"timestamp_mouse":[12,25,46,66,85,107,125,145,166,186,207,225,246,266,285,305,327,346,365,385,406,426,445,465,487,506,525,546,565,586,606,626,645,666,686,705,726,746,766,787,806,826,846,865,886,905,925,945,966,987,1005,1025,1046,1066,1085,1106,1126,1146,1166,1185,1205,1225,1245,1265,1285,1305,1326,1347,1365,1385,1407,1427,1445,1466,1485,1506,1525,1546,1566,1585,1605,1625,1646,1666,1686,1705,1726,1746,1766,1786,1805,1826,1845,1865,1885,1905,1926,1945,1966,1987,2006,2026,2046,2065,2086,2105,2126,2146,2166,2187,2207,2226,2246,2265,2286,2305,2326,2346,2366,2385,2407,2426,2445,2466,2486,2506,2525,2547,2565,2585,2606,2627,2646,2667,2686,2707,2726,2745,2766,2786,2807,2826,2846,2865,2886,2905,2926,2946,2966,2986,3006,3027,3046,3066,3085,3105,3125,3146,3166,3185,3206,3227,3246,3266,3286,3306,3326,3345,3365,3385,3406,3425,3445,3466,3486,3506,3525,3547,3566,3585,3606,3626,3645,3666,3686,3705,3727,3747,3765,3786,3806,3825,3846,3865,3885,3906,3926,3945,3966,3986,4007,4025,4046,4066,4086,4105,4126,4146,4165,4185,4206,4226,4246,4265,4286,4305,4326,4345,4366,4385,4407,4425,4445,4465,4485,4505,4526,4547,4565,4586,4605,4625,4645,4665,4686,4705,4726,4745,4766],"xSR":741.5,"ySR":573.95,"xT1":424.9,"yT1":0,"xT2":1058.1,"yT2":0,"toosoon":0,"cond_shown":"Incongruent","ratio_trial":300,"L_num":13,"L_den":26,"R_num":12,"R_den":15,"correct_side":2,"subjID":"anaisabellamuñozrojas10","gender":"1","school":"4","age":"9"},{"start_time":1552308300498,"click_time":1552308302180,"finger_time":1552308301959,"fix_duration":1416.5002353783414,"trial":27,"RT":1461,"MT":221,"sideResp":2,"stimulus":[],"xmouse":[778,778,778,778,778,778,778,778,778,778,778,778,778,778,778,778,778,778,778,778,778,778,778,778,778,778,778,778,778,778,778,778,778,778,778,778,778,778,778,778,778,778,778,778,778,778,778,778,778,778,778,778,778,778,778,778,778,778,778,778,778,778,778,778,778,778,778,778,780,785,793,805,821,850,873,906,949,991,1044,1049,1049,1049,1049,1056,1060],"ymouse":[617,617,617,617,617,617,617,617,617,617,617,617,617,617,617,617,617,617,617,617,617,617,617,617,617,617,617,617,617,617,617,617,617,617,617,617,617,617,617,617,617,617,617,617,617,617,617,617,617,617,617,617,617,617,617,617,617,617,617,617,617,617,617,617,617,617,617,617,617,613,606,595,580,539,499,438,366,282,145,125,106,93,82,55,43],"timestamp_mouse":[9,21,42,62,82,103,123,142,162,181,203,221,242,262,281,302,321,341,361,382,402,422,443,461,481,501,522,543,562,581,601,623,641,662,681,701,722,742,762,781,802,823,841,862,881,902,922,941,963,981,1002,1021,1042,1061,1082,1103,1122,1142,1162,1181,1201,1222,1241,1263,1281,1303,1322,1342,1362,1383,1402,1421,1441,1461,1483,1502,1522,1543,1561,1581,1602,1623,1643,1661,1681],"xSR":741.5,"ySR":573.95,"xT1":424.9,"yT1":0,"xT2":1058.1,"yT2":0,"toosoon":0,"cond_shown":"Incongruent","ratio_trial":100,"L_num":8,"L_den":16,"R_num":6,"R_den":10,"correct_side":2,"subjID":"anaisabellamuñozrojas10","gender":"1","school":"4","age":"9"},{"start_time":1552308304219,"click_time":1552308305720,"finger_time":1552308305561,"fix_duration":916.1528819160794,"trial":28,"RT":1342,"MT":159,"sideResp":2,"stimulus":[],"xmouse":[780,780,780,780,780,780,780,780,780,780,780,780,780,780,780,780,780,780,780,780,780,780,780,780,780,780,780,780,780,780,780,780,780,780,780,780,780,780,780,780,780,780,780,780,780,779,777,777,777,777,777,777,777,777,777,777,777,777,777,777,777,777,777,777,777,781,788,800,870,928,963,985,1026,1041,1056,1065],"ymouse":[596,596,596,596,596,596,596,596,596,596,596,596,596,596,596,596,596,596,596,596,596,596,596,596,596,596,596,596,596,596,596,596,596,596,596,596,596,596,596,596,596,596,596,596,596,600,604,606,606,606,606,606,606,606,606,606,606,606,606,606,606,606,606,606,606,599,583,564,468,398,349,307,233,191,132,73],"timestamp_mouse":[10,20,41,61,80,101,122,141,161,182,201,221,241,261,280,301,320,340,361,380,401,421,441,461,480,500,520,540,561,581,601,621,640,661,682,701,721,741,760,781,800,821,840,861,881,900,921,941,960,981,1000,1021,1041,1061,1080,1100,1121,1140,1160,1180,1200,1221,1242,1260,1281,1300,1321,1342,1362,1382,1400,1420,1441,1460,1481,1501],"xSR":741.5,"ySR":573.95,"xT1":424.9,"yT1":0,"xT2":1058.1,"yT2":0,"toosoon":0,"cond_shown":"Incongruent","ratio_trial":100,"L_num":13,"L_den":26,"R_num":6,"R_den":10,"correct_side":2,"subjID":"anaisabellamuñozrojas10","gender":"1","school":"4","age":"9"},{"start_time":1552308308771,"click_time":1552308310599,"finger_time":1552308310080,"fix_duration":529.3005756410931,"trial":29,"RT":1309,"MT":519,"sideResp":2,"stimulus":[],"xmouse":[804,804,804,804,804,804,804,804,804,804,804,804,804,804,804,804,804,804,804,804,804,804,804,804,804,804,804,804,804,804,804,804,804,804,804,804,804,804,804,804,804,804,804,804,804,804,804,804,804,804,804,804,804,804,804,804,804,804,804,804,804,804,803,803,812,936,1037,1151,1245,1301,1328,1324,1313,1304,1292,1279,1279,1278,1271,1251,1175,1131,1113,1108,1106,1106,1106,1106,1106,1106,1106,1106],"ymouse":[612,612,612,612,612,612,612,612,612,612,612,612,612,612,612,612,612,612,612,612,612,612,612,612,612,612,612,612,612,612,612,612,612,612,612,612,612,612,612,612,612,612,612,612,612,612,612,612,612,612,612,612,612,612,612,612,612,612,612,612,612,612,611,609,590,444,343,229,116,23,0,0,0,0,0,0,0,0,1,18,81,104,108,108,108,108,108,108,108,108,104,99],"timestamp_mouse":[14,31,49,68,89,109,130,148,169,188,209,228,249,268,288,310,329,349,369,388,409,429,450,469,488,508,528,548,569,589,608,630,649,668,689,708,728,750,769,789,809,829,850,869,889,908,929,948,969,988,1008,1029,1050,1068,1089,1108,1129,1149,1170,1188,1209,1229,1249,1269,1288,1309,1329,1348,1368,1388,1410,1428,1449,1468,1490,1510,1528,1548,1569,1588,1608,1629,1648,1668,1688,1709,1729,1748,1770,1788,1811,1828],"xSR":741.5,"ySR":573.95,"xT1":424.9,"yT1":0,"xT2":1058.1,"yT2":0,"toosoon":0,"cond_shown":"Congruent","ratio_trial":100,"L_num":15,"L_den":25,"R_num":13,"R_den":26,"correct_side":1,"subjID":"anaisabellamuñozrojas10","gender":"1","school":"4","age":"9"},{"start_time":1552308312852,"click_time":1552308314859,"finger_time":1552308314761,"fix_duration":851.8624875343857,"trial":30,"RT":1909,"MT":98,"sideResp":2,"stimulus":[],"xmouse":[804,804,804,804,804,804,804,804,804,804,804,804,804,804,804,804,804,804,804,804,804,804,804,804,804,804,804,804,804,804,804,804,804,804,804,804,804,804,804,804,804,804,804,804,804,804,804,805,805,807,809,809,809,809,809,809,809,809,809,809,809,809,809,809,809,809,809,809,809,809,809,809,809,809,809,809,809,809,809,809,809,809,809,810,810,810,810,810,810,810,810,810,810,810,821,834,874,958,1021,1044,1084],"ymouse":[600,600,600,600,600,600,600,600,600,600,600,600,600,600,600,600,600,600,600,600,600,600,600,600,600,600,600,600,600,600,600,600,600,600,600,600,600,600,598,594,591,591,591,591,591,591,591,591,591,592,596,597,597,597,597,597,597,597,597,597,597,597,597,597,597,597,597,597,597,597,597,597,597,597,597,597,597,597,597,597,597,597,597,596,595,593,593,593,593,593,593,593,593,593,574,548,481,332,220,180,80],"timestamp_mouse":[10,44,47,67,88,108,128,149,168,188,208,229,247,268,287,307,328,348,368,387,409,428,448,468,487,507,528,547,568,588,607,627,649,668,688,708,727,748,767,788,808,828,849,867,888,908,927,948,968,987,1007,1027,1047,1067,1087,1107,1128,1148,1167,1188,1209,1227,1247,1267,1288,1308,1328,1348,1367,1387,1408,1427,1447,1467,1487,1508,1527,1547,1568,1587,1608,1629,1647,1667,1689,1707,1728,1749,1768,1788,1807,1829,1847,1868,1889,1909,1928,1949,1968,1987,2007],"xSR":741.5,"ySR":573.95,"xT1":424.9,"yT1":0,"xT2":1058.1,"yT2":0,"toosoon":0,"cond_shown":"Congruent","ratio_trial":200,"L_num":8,"L_den":15,"R_num":2,"R_den":6,"correct_side":1,"subjID":"anaisabellamuñozrojas10","gender":"1","school":"4","age":"9"},{"start_time":1552308316052,"click_time":1552308317560,"finger_time":1552308317460,"fix_duration":250,"trial":31,"RT":1408,"MT":100,"sideResp":2,"stimulus":[],"xmouse":[821,821,821,821,821,821,821,821,821,821,821,821,819,818,817,817,816,815,814,813,810,805,795,793,791,790,790,790,790,790,790,790,790,790,790,790,790,790,790,790,790,790,790,790,790,790,790,790,790,790,790,790,790,790,790,790,790,790,790,790,790,790,790,790,790,790,790,790,790,793,832,894,1031,1083,1112,1131],"ymouse":[605,605,605,605,605,605,605,605,605,605,605,603,602,602,602,602,602,602,602,602,605,612,622,624,625,626,626,626,626,626,626,626,626,626,626,626,626,626,626,626,626,626,626,626,626,626,626,626,626,626,626,626,626,626,626,626,626,626,626,626,626,626,626,626,626,626,626,626,626,609,518,411,250,190,145,99],"timestamp_mouse":[19,29,47,67,88,108,127,147,168,187,208,227,247,267,287,307,327,347,368,387,407,427,448,467,487,509,528,547,568,588,607,627,647,668,689,707,728,748,768,787,808,828,848,868,887,907,929,948,968,987,1007,1028,1047,1067,1087,1107,1127,1147,1168,1187,1207,1228,1247,1268,1288,1308,1328,1347,1368,1387,1408,1429,1447,1467,1488,1508],"xSR":741.5,"ySR":573.95,"xT1":424.9,"yT1":0,"xT2":1058.1,"yT2":0,"toosoon":0,"cond_shown":"Congruent","ratio_trial":300,"L_num":4,"L_den":20,"R_num":13,"R_den":26,"correct_side":2,"subjID":"anaisabellamuñozrojas10","gender":"1","school":"4","age":"9"},{"start_time":1552308319681,"click_time":1552308322401,"finger_time":1552308321139,"fix_duration":1240.4060519919865,"trial":32,"RT":1458,"MT":1262,"sideResp":2,"stimulus":[],"xmouse":[775,775,775,775,775,775,775,775,775,775,775,775,775,775,775,775,775,775,775,775,775,775,775,775,775,775,775,775,775,775,775,775,775,775,775,775,775,775,775,775,775,775,775,775,775,775,775,775,775,775,775,775,775,775,775,775,775,775,775,775,775,775,775,775,775,775,775,775,775,775,775,777,778,778,773,742,663,642,634,631,627,627,627,627,622,597,583,576,574,574,574,573,570,562,553,551,551,551,551,551,551,551,551,551,551,551,551,551,551,553,555,559,564,572,608,733,772,870,914,938,956,960,964,970,974,976,981,982,982,983,986,992,1006,1032,1055,1076],"ymouse":[601,601,601,601,601,601,601,601,601,601,601,601,601,601,601,601,601,601,601,601,601,601,601,601,601,601,601,601,601,601,601,601,601,601,601,601,601,601,601,601,601,601,601,601,601,601,601,601,601,601,601,601,601,601,601,601,601,601,601,601,601,601,601,601,601,601,601,601,601,601,601,590,551,448,247,118,0,0,0,0,0,0,0,0,1,32,48,52,52,52,52,52,51,48,45,45,45,45,45,45,45,45,45,45,45,45,45,45,45,45,46,47,50,52,57,73,76,78,78,76,65,60,56,47,40,35,24,22,21,20,20,21,26,39,49,58],"timestamp_mouse":[19,39,58,80,98,118,140,159,179,199,220,239,259,280,299,319,339,359,379,399,419,439,460,479,498,518,540,558,579,598,618,638,660,678,699,718,739,758,779,798,818,838,860,878,898,919,938,959,979,998,1020,1040,1058,1078,1098,1119,1138,1159,1178,1198,1218,1240,1258,1278,1298,1320,1339,1358,1379,1399,1418,1439,1458,1478,1498,1519,1539,1559,1579,1598,1618,1639,1658,1679,1699,1719,1738,1758,1778,1798,1819,1838,1859,1878,1899,1919,1940,1958,1978,1998,2020,2038,2059,2078,2098,2118,2138,2158,2179,2198,2221,2238,2260,2279,2299,2319,2340,2360,2379,2399,2419,2438,2460,2478,2498,2520,2539,2559,2579,2599,2619,2638,2658,2678,2698,2720],"xSR":741.5,"ySR":573.95,"xT1":424.9,"yT1":0,"xT2":1058.1,"yT2":0,"toosoon":0,"cond_shown":"Incongruent","ratio_trial":100,"L_num":3,"L_den":9,"R_num":7,"R_den":30,"correct_side":1,"subjID":"anaisabellamuñozrojas10","gender":"1","school":"4","age":"9"},{"start_time":1552308324921,"click_time":1552308327420,"finger_time":1552308327300,"fix_duration":518.420869477897,"trial":33,"RT":2379,"MT":120,"sideResp":2,"stimulus":[],"xmouse":[763,763,763,763,763,763,763,763,763,763,763,763,763,763,763,763,763,763,763,763,763,763,763,763,763,763,763,763,763,763,763,763,763,763,763,763,763,763,763,763,763,763,763,763,763,763,763,763,763,763,763,763,763,763,763,763,763,763,763,763,763,763,763,763,763,763,763,763,763,763,763,763,763,763,763,763,763,763,763,763,763,763,763,763,763,763,763,763,763,763,763,763,763,761,755,754,752,752,752,752,752,751,751,751,751,751,751,751,751,751,751,753,756,759,768,780,802,832,877,978,1008,1033,1056,1084,1133],"ymouse":[623,623,623,623,623,623,623,623,623,623,623,623,623,623,623,623,623,623,623,623,623,623,623,623,623,623,623,623,623,623,623,623,623,623,623,623,623,623,623,623,623,623,623,623,623,623,623,623,623,623,623,623,623,623,623,623,623,623,623,623,623,623,623,623,623,623,623,623,623,623,623,623,623,623,623,623,623,623,623,623,623,623,623,623,623,623,623,623,623,623,623,623,623,619,606,602,598,596,595,593,591,590,590,590,590,590,590,590,590,590,590,593,594,598,603,604,602,585,550,419,363,307,253,191,58],"timestamp_mouse":[19,39,58,78,99,118,139,158,178,199,219,239,260,278,298,318,338,358,380,400,418,439,459,480,498,519,540,559,579,599,619,638,658,678,699,720,739,759,778,800,818,839,859,878,898,920,939,958,979,1000,1018,1040,1059,1079,1098,1118,1138,1159,1180,1199,1218,1239,1258,1278,1299,1318,1338,1358,1379,1399,1420,1439,1458,1478,1499,1519,1539,1559,1580,1599,1619,1639,1659,1678,1698,1719,1740,1759,1778,1798,1819,1838,1859,1880,1898,1920,1938,1958,1979,1998,2019,2038,2060,2079,2099,2119,2138,2158,2178,2199,2218,2239,2259,2279,2299,2320,2339,2359,2379,2399,2418,2438,2458,2479,2498],"xSR":741.5,"ySR":573.95,"xT1":424.9,"yT1":0,"xT2":1058.1,"yT2":0,"toosoon":0,"cond_shown":"Incongruent","ratio_trial":200,"L_num":3,"L_den":10,"R_num":1,"R_den":2,"correct_side":2,"subjID":"anaisabellamuñozrojas10","gender":"1","school":"4","age":"9"},{"start_time":1552308329265,"click_time":1552308332023,"finger_time":1552308331299,"fix_duration":883.000573245223,"trial":34,"RT":2034,"MT":724,"sideResp":1,"stimulus":[],"xmouse":[820,820,820,820,820,820,820,820,820,820,820,820,820,820,820,820,820,820,820,820,820,820,820,820,820,820,820,820,820,820,820,820,820,820,820,820,820,820,820,820,820,820,820,820,820,820,820,820,820,820,820,820,820,820,820,820,820,820,820,820,820,820,820,820,820,820,820,820,820,820,820,820,820,820,820,820,820,820,820,820,820,820,820,820,820,820,820,820,820,820,820,820,820,820,820,818,818,817,816,816,815,812,771,713,649,595,550,498,478,473,472,472,472,473,473,473,473,473,473,473,473,473,473,473,473,473,473,473,473,473,473,473,473,473,473,473,473,473],"ymouse":[616,616,616,616,616,616,616,616,616,616,616,616,616,616,616,616,616,616,616,616,616,616,616,616,616,616,616,616,616,616,616,616,616,616,616,616,616,616,616,616,616,616,616,616,616,616,616,616,616,616,616,616,616,616,616,616,616,616,616,616,616,616,616,616,616,616,616,616,616,616,616,616,616,616,616,616,616,616,616,616,616,616,616,616,616,616,616,616,616,616,616,616,616,616,616,616,615,613,610,607,592,572,428,319,207,111,36,0,0,0,0,0,0,0,0,0,0,0,0,0,0,0,0,0,0,0,0,0,0,0,0,0,0,0,0,0,0,6],"timestamp_mouse":[16,43,55,74,95,115,134,154,175,194,215,234,255,275,294,314,335,354,375,395,416,436,455,474,494,515,534,554,574,594,614,634,655,675,694,715,734,754,774,795,814,834,854,875,896,915,935,954,974,995,1015,1035,1055,1074,1094,1114,1134,1155,1175,1195,1215,1236,1255,1275,1294,1314,1335,1354,1376,1395,1414,1435,1456,1474,1496,1515,1535,1554,1575,1595,1615,1635,1654,1674,1694,1716,1735,1756,1775,1794,1814,1836,1855,1876,1894,1915,1935,1955,1975,1994,2014,2034,2055,2075,2095,2114,2135,2156,2174,2195,2215,2236,2255,2274,2294,2315,2334,2355,2374,2395,2415,2434,2455,2475,2495,2516,2535,2554,2575,2595,2615,2635,2655,2675,2695,2714,2735,2757],"xSR":741.5,"ySR":573.95,"xT1":424.9,"yT1":0,"xT2":1058.1,"yT2":0,"toosoon":0,"cond_shown":"Incongruent","ratio_trial":200,"L_num":7,"L_den":10,"R_num":12,"R_den":24,"correct_side":1,"subjID":"anaisabellamuñozrojas10","gender":"1","school":"4","age":"9"},{"start_time":1552308335572,"click_time":1552308337620,"finger_time":1552308337300,"fix_duration":709.8127291877366,"trial":35,"RT":1728,"MT":320,"sideResp":2,"stimulus":[],"xmouse":[782,782,782,782,782,782,782,782,782,782,782,782,782,782,782,782,782,782,782,782,782,782,782,782,782,782,782,782,782,782,782,782,782,782,782,782,782,782,782,782,782,782,782,782,782,782,782,782,782,782,782,782,782,782,782,782,782,782,782,782,782,782,782,782,782,782,782,782,782,782,782,782,782,782,782,782,782,782,782,782,782,782,782,785,794,807,819,827,852,864,882,914,941,996,1008,1016,1022,1026,1034,1051,1059,1064,1065],"ymouse":[630,630,630,630,630,630,630,630,630,630,630,630,630,630,630,630,630,630,630,630,630,630,630,630,630,630,630,630,630,630,630,630,630,630,630,630,630,630,630,630,630,630,630,630,630,630,630,630,630,630,630,630,630,630,630,630,630,630,630,630,630,630,630,630,630,630,630,630,630,630,630,630,630,630,630,630,630,630,630,630,630,630,630,618,600,584,563,542,482,450,413,369,328,251,229,214,201,189,176,143,124,104,91],"timestamp_mouse":[12,32,48,67,89,107,128,149,167,187,207,229,249,268,287,308,327,348,367,389,408,429,448,467,487,508,527,547,567,587,607,628,648,669,688,708,728,748,767,787,808,827,847,869,887,908,928,949,968,988,1008,1028,1048,1068,1089,1108,1128,1148,1169,1187,1208,1228,1247,1267,1289,1309,1327,1347,1368,1389,1408,1427,1447,1467,1487,1508,1528,1548,1567,1588,1608,1627,1649,1667,1688,1708,1727,1749,1767,1787,1808,1827,1848,1868,1887,1907,1927,1947,1968,1989,2008,2027,2048],"xSR":741.5,"ySR":573.95,"xT1":424.9,"yT1":0,"xT2":1058.1,"yT2":0,"toosoon":0,"cond_shown":"Incongruent","ratio_trial":100,"L_num":10,"L_den":25,"R_num":8,"R_den":16,"correct_side":2,"subjID":"anaisabellamuñozrojas10","gender":"1","school":"4","age":"9"},{"start_time":1552308338615,"click_time":1552308340321,"finger_time":1552308339961,"fix_duration":294.2577934774173,"trial":36,"RT":1346,"MT":360,"sideResp":1,"stimulus":[],"xmouse":[761,761,761,761,761,761,761,761,761,761,761,761,761,761,761,761,761,761,761,761,761,761,761,761,761,761,761,761,761,761,761,761,761,761,761,761,761,761,761,761,761,761,761,761,761,761,761,761,761,761,761,761,761,761,761,761,761,761,761,761,761,761,761,761,761,758,745,724,701,683,667,662,635,624,619,616,614,614,614,614,613,589,568,546,529,515],"ymouse":[659,659,659,659,659,659,659,659,659,659,659,659,659,659,659,659,659,659,659,659,659,659,659,659,659,659,659,659,659,659,659,659,659,659,659,659,659,659,659,659,659,659,659,659,659,659,659,659,659,659,659,659,659,659,659,659,659,659,659,659,659,659,659,659,659,658,621,548,467,402,349,309,189,148,130,122,118,118,118,118,116,95,77,62,52,45],"timestamp_mouse":[10,24,45,65,84,106,126,144,166,186,205,226,244,266,285,305,325,345,365,385,406,425,444,465,484,506,525,545,565,585,604,625,645,666,684,705,724,745,764,785,804,826,844,865,885,905,925,945,964,984,1004,1025,1045,1065,1086,1105,1125,1146,1165,1184,1204,1224,1245,1265,1286,1304,1325,1346,1364,1384,1405,1425,1446,1465,1484,1506,1525,1544,1565,1586,1605,1625,1645,1665,1685,1706],"xSR":741.5,"ySR":573.95,"xT1":424.9,"yT1":0,"xT2":1058.1,"yT2":0,"toosoon":0,"cond_shown":"Incongruent","ratio_trial":200,"L_num":1,"L_den":3,"R_num":2,"R_den":15,"correct_side":1,"subjID":"anaisabellamuñozrojas10","gender":"1","school":"4","age":"9"},{"start_time":1552308344647,"click_time":1552308346360,"finger_time":1552308345959,"fix_duration":1485.4877644552,"trial":37,"RT":1312,"MT":401,"sideResp":2,"stimulus":[],"xmouse":[786,786,786,786,786,785,784,783,782,781,780,780,780,780,780,780,780,780,780,780,780,780,780,780,780,780,780,780,780,780,780,780,780,780,780,780,780,780,780,780,780,780,780,780,779,785,788,789,789,790,790,790,791,791,792,792,792,792,792,792,792,792,792,792,792,802,814,837,872,909,981,1001,1006,1009,1011,1013,1013,1015,1017,1021,1034,1040,1044,1050,1055,1077],"ymouse":[610,610,610,610,610,611,611,611,611,611,611,611,611,611,611,611,611,611,611,611,611,611,611,611,611,611,611,611,611,611,611,611,611,611,611,611,611,611,611,611,611,611,611,611,611,598,593,590,589,588,585,583,581,579,577,577,577,577,577,577,577,577,577,577,576,558,537,503,453,401,279,221,174,142,127,117,117,115,112,108,96,92,88,85,82,70],"timestamp_mouse":[13,42,52,73,92,112,133,154,172,194,214,234,252,273,294,314,332,353,372,392,413,432,453,473,494,514,533,552,574,592,613,633,652,673,693,712,733,753,774,793,812,833,852,872,894,913,933,952,973,993,1012,1034,1053,1074,1092,1112,1132,1152,1172,1192,1214,1232,1252,1274,1293,1312,1333,1352,1373,1393,1413,1434,1452,1473,1492,1513,1532,1552,1573,1592,1612,1632,1652,1673,1693,1713],"xSR":741.5,"ySR":573.95,"xT1":424.9,"yT1":0,"xT2":1058.1,"yT2":0,"toosoon":0,"cond_shown":"Congruent","ratio_trial":100,"L_num":1,"L_den":2,"R_num":3,"R_den":5,"correct_side":2,"subjID":"anaisabellamuñozrojas10","gender":"1","school":"4","age":"9"},{"start_time":1552308348572,"click_time":1552308350100,"finger_time":1552308349880,"fix_duration":750.5997422481307,"trial":38,"RT":1308,"MT":220,"sideResp":2,"stimulus":[],"xmouse":[793,793,793,793,793,793,793,793,793,793,793,793,793,793,793,793,793,793,793,793,793,793,793,793,793,793,793,793,793,793,793,793,793,793,793,793,793,793,793,793,793,793,793,793,793,793,793,793,793,793,793,793,793,793,793,793,793,792,792,792,792,792,792,794,802,846,901,977,1106,1179,1222,1226,1228,1229,1202,1176,1157],"ymouse":[616,616,616,616,616,616,616,616,616,616,616,616,616,613,612,612,610,609,608,606,606,606,606,606,606,606,606,606,606,606,606,606,606,606,606,606,606,606,606,606,606,606,606,606,606,606,606,606,606,606,606,606,606,606,606,606,606,606,607,607,607,607,607,606,599,562,519,465,373,324,292,287,279,257,153,94,48],"timestamp_mouse":[9,29,49,67,87,108,127,147,167,188,208,228,247,268,287,307,328,347,369,389,409,429,449,467,488,509,527,548,568,589,607,627,648,667,689,707,728,748,767,789,807,827,849,869,888,907,928,949,968,987,1008,1028,1049,1067,1087,1107,1128,1149,1167,1188,1207,1227,1247,1267,1288,1308,1328,1348,1368,1387,1408,1428,1449,1468,1489,1508,1528],"xSR":741.5,"ySR":573.95,"xT1":424.9,"yT1":0,"xT2":1058.1,"yT2":0,"toosoon":0,"cond_shown":"Incongruent","ratio_trial":200,"L_num":9,"L_den":15,"R_num":8,"R_den":10,"correct_side":2,"subjID":"anaisabellamuñozrojas10","gender":"1","school":"4","age":"9"},{"start_time":1552308352297,"click_time":1552308354520,"finger_time":1552308354100,"fix_duration":996.4513496244733,"trial":39,"RT":1803,"MT":420,"sideResp":1,"stimulus":[],"xmouse":[792,792,792,792,792,792,792,792,792,792,792,792,792,792,792,792,792,792,792,792,792,792,792,792,792,792,792,792,792,792,792,792,792,792,792,792,792,792,792,792,792,792,792,792,792,792,792,792,792,792,792,792,792,792,792,792,792,792,792,792,792,792,792,792,792,792,792,792,792,792,792,792,792,792,792,792,792,792,792,792,792,792,792,792,792,792,792,792,792,791,794,803,809,809,772,736,687,633,555,496,484,477,471,467,464,464,464,464,464,464,463,463],"ymouse":[602,602,602,602,602,602,602,602,602,602,602,602,602,602,602,602,602,602,602,602,602,602,602,602,602,602,602,602,602,602,602,602,602,602,602,602,602,602,602,602,602,602,602,602,602,602,602,602,602,602,602,602,602,602,602,602,602,602,602,602,602,602,602,602,602,602,602,602,602,602,602,602,602,602,602,602,602,602,602,602,602,602,602,602,602,602,602,602,602,589,538,475,414,362,269,210,149,96,25,0,0,0,0,0,0,0,0,0,0,0,0,2],"timestamp_mouse":[10,24,42,64,84,104,123,143,163,184,203,222,243,262,284,302,322,342,362,382,402,422,443,464,482,503,523,543,563,583,604,624,642,663,683,704,722,743,764,784,804,822,842,863,883,904,923,943,963,984,1003,1023,1043,1062,1083,1104,1122,1142,1164,1182,1202,1223,1242,1262,1284,1302,1323,1343,1362,1382,1404,1423,1443,1463,1484,1503,1523,1544,1563,1583,1603,1624,1643,1663,1682,1703,1724,1743,1762,1783,1803,1823,1843,1864,1882,1903,1922,1943,1962,1984,2002,2022,2042,2063,2083,2103,2124,2143,2163,2186,2203,2223],"xSR":741.5,"ySR":573.95,"xT1":424.9,"yT1":0,"xT2":1058.1,"yT2":0,"toosoon":0,"cond_shown":"Congruent","ratio_trial":200,"L_num":21,"L_den":30,"R_num":2,"R_den":4,"correct_side":1,"subjID":"anaisabellamuñozrojas10","gender":"1","school":"4","age":"9"},{"start_time":1552308358409,"click_time":1552308362979,"finger_time":1552308362120,"fix_duration":1447.4308246786748,"trial":40,"RT":3711,"MT":859,"sideResp":2,"stimulus":[],"xmouse":[772,772,772,772,772,772,772,772,772,772,772,772,772,772,772,772,772,772,772,772,772,772,772,772,772,772,772,772,772,772,772,772,773,773,773,773,773,773,773,773,773,773,773,773,773,773,773,773,773,773,773,773,773,773,773,773,773,773,773,773,773,773,773,773,773,773,773,773,773,773,773,773,773,773,773,773,773,773,773,773,773,773,773,773,773,773,773,773,773,773,773,773,773,773,773,773,773,773,773,773,773,773,773,773,773,773,773,773,773,773,773,773,773,773,773,773,773,773,773,773,773,773,773,773,773,773,773,773,773,773,773,774,774,774,774,774,774,774,774,774,774,774,774,774,774,774,774,774,774,774,774,774,774,774,774,774,774,774,774,774,774,774,774,775,776,777,777,777,777,777,777,777,777,777,779,783,790,797,808,819,819,819,820,823,835,838,842,844,847,849,849,850,852,855,867,877,898,924,954,994,1136,1178,1201,1212,1220,1220,1220,1220,1220,1221,1221,1221,1221,1220,1216,1212,1209,1207,1203,1192,1185,1179,1175,1172,1168,1167,1166,1162,1155],"ymouse":[627,627,627,627,627,627,627,627,627,627,627,627,627,627,627,627,627,627,627,627,627,627,627,627,627,627,627,627,627,627,627,627,627,627,627,627,627,627,627,627,627,627,627,627,627,627,627,627,627,627,627,627,627,627,627,627,627,627,627,627,627,627,627,627,627,627,627,627,627,627,627,627,627,627,627,627,627,627,627,627,627,627,627,627,627,627,627,627,627,627,627,627,627,627,627,627,627,627,627,627,627,627,627,627,627,627,627,627,627,627,627,627,627,627,627,627,627,627,627,627,627,627,627,627,627,627,627,627,627,627,627,627,625,624,624,624,624,624,624,624,624,623,623,623,623,623,623,623,623,623,623,623,623,623,623,623,623,623,623,623,623,623,623,622,621,620,620,620,620,620,620,620,620,620,620,619,617,617,616,613,613,613,612,608,585,573,562,550,542,536,534,529,525,518,490,468,434,389,345,295,160,126,101,83,66,64,64,64,64,45,33,26,24,23,21,20,20,20,19,19,19,19,19,19,19,19,19,19,19],"timestamp_mouse":[10,31,51,72,91,110,131,150,172,191,212,231,250,272,291,311,331,352,372,390,412,430,452,470,492,512,532,551,571,591,612,632,651,670,690,711,732,751,770,790,812,832,850,870,890,912,931,950,971,991,1011,1031,1050,1071,1091,1110,1131,1152,1172,1190,1212,1232,1251,1270,1291,1312,1331,1351,1372,1391,1411,1431,1451,1470,1490,1512,1531,1550,1570,1590,1610,1631,1651,1671,1691,1710,1731,1751,1771,1791,1812,1832,1851,1870,1891,1912,1931,1950,1970,1990,2012,2031,2051,2071,2091,2112,2130,2151,2171,2191,2212,2230,2251,2270,2292,2310,2330,2352,2371,2390,2411,2430,2450,2471,2492,2511,2531,2550,2571,2592,2611,2630,2651,2671,2692,2710,2731,2750,2772,2791,2810,2831,2851,2870,2892,2911,2930,2951,2971,2992,3010,3032,3050,3071,3091,3110,3131,3152,3171,3192,3211,3230,3252,3270,3290,3311,3330,3352,3371,3391,3411,3431,3452,3471,3491,3511,3531,3550,3570,3591,3612,3631,3650,3671,3690,3711,3730,3751,3772,3791,3810,3830,3851,3870,3890,3911,3931,3951,3971,3990,4010,4030,4052,4071,4091,4110,4131,4152,4171,4191,4211,4230,4250,4270,4291,4311,4332,4350,4372,4391,4410,4430,4451,4471,4490,4511,4532,4551,4570],"xSR":741.5,"ySR":573.95,"xT1":424.9,"yT1":0,"xT2":1058.1,"yT2":0,"toosoon":0,"cond_shown":"Congruent","ratio_trial":300,"L_num":11,"L_den":22,"R_num":1,"R_den":5,"correct_side":1,"subjID":"anaisabellamuñozrojas10","gender":"1","school":"4","age":"9"},{"start_time":1552308377967,"click_time":1552308380840,"finger_time":1552308379340,"fix_duration":326.09325474228234,"trial":41,"RT":1373,"MT":1500,"sideResp":1,"stimulus":[],"xmouse":[758,758,758,758,758,758,758,758,758,758,758,758,758,758,758,758,758,758,758,758,758,758,758,758,758,758,758,758,758,758,756,756,756,756,756,756,756,756,756,756,756,756,756,756,756,756,756,756,756,756,756,756,756,756,756,756,756,756,756,756,756,756,756,756,756,759,770,786,859,898,935,965,984,1006,1006,1006,1006,1008,1020,1027,1029,1029,1029,1029,1029,1029,1029,1029,1029,1029,1029,1029,1029,1029,1029,1029,1029,1029,1029,1028,1028,1026,1025,1023,1023,1023,1023,1023,1023,1023,1023,1023,1023,1023,1023,1023,1023,1023,1023,1023,1023,1023,1023,1023,1013,991,962,916,798,735,674,606,543,446,430,422,419,417,416,415,415,415,416,428],"ymouse":[628,628,628,628,628,628,628,628,628,628,628,628,628,628,628,628,628,628,628,628,628,628,628,628,628,628,628,628,628,628,624,622,621,618,617,617,617,617,617,617,617,617,617,617,617,617,617,617,617,617,617,617,617,617,617,617,617,617,617,617,617,617,617,617,617,612,603,592,537,491,420,355,311,276,276,276,273,263,240,233,231,230,230,230,230,230,230,230,229,229,229,229,229,229,229,229,229,229,229,231,234,24