[{"start_time":1549309291117,"click_time":1549309295102,"finger_time":1549309291123,"fix_duration":250,"trial":0,"RT":6,"MT":3979,"sideResp":2,"stimulus":[],"xmouse":[393.3330078125,393.3330078125,393.3330078125,393.3330078125,393.3330078125,393.3330078125,392,392,392.6669921875,392.6669921875,392.6669921875,392.6669921875,392.6669921875,392.6669921875,392.6669921875,392.6669921875,392.6669921875,392.6669921875,392.6669921875,392.6669921875,392.6669921875,392.6669921875,392.6669921875,392.6669921875,392.6669921875,392.6669921875,394,394.6669921875,394.6669921875,394.6669921875,394.6669921875,394.6669921875,394.6669921875,394.6669921875,394.6669921875,394.6669921875,394.6669921875,394.6669921875,394,394,394,394,394,394,394,394,394,394,394,392.6669921875,392.6669921875,392.6669921875,392.6669921875,392.6669921875,392.6669921875,392.6669921875,392.6669921875,392.6669921875,392.6669921875,392.6669921875,392.6669921875,392.6669921875,392.6669921875,392.6669921875,392.6669921875,392.6669921875,392.6669921875,392.6669921875,392.6669921875,392,392,392,392,392,392,392,392,392,392,392.6669921875,392.6669921875,392.6669921875,392.6669921875,392.6669921875,392.6669921875,392.6669921875,392.6669921875,392.6669921875,392.6669921875,392.6669921875,392.6669921875,392.6669921875,392.6669921875,392.6669921875,392.6669921875,392.6669921875,392.6669921875,392.6669921875,392.6669921875,392,392,392,392,392,392,392,392,392,392,392,392,392,392,392,399.3330078125,400,402.6669921875,404,404.6669921875,404.6669921875,404.6669921875,404,404.6669921875,404.6669921875,404.6669921875,406,406,408,409.3330078125,410.6669921875,411,412.6669921875,415,417.3330078125,418.6669921875,420,420,420,420,423.3330078125,423.3330078125,423.3330078125,423.3330078125,423.3330078125,423.3330078125,430.6669921875,430.6669921875,434.6669921875,436,437.3330078125,439.3330078125,440,445.3330078125,446.6669921875,450,452,455,460,464,465.3330078125,468,470,474,476.6669921875,478,480.6669921875,482,484.6669921875,490,493.3330078125,494,498,503.3330078125,508,510,516,526,538,547.3330078125,551,558.6669921875,561.3330078125,571,573.3330078125,576,578.6669921875,582,594,616.6669921875,630.6669921875,649.3330078125,654.6669921875,660,664.6669921875,667.3330078125,673.3330078125,676,681.3330078125,685.3330078125,686],"ymouse":[508.6669921875,508.6669921875,508.6669921875,508.6669921875,508.6669921875,508.6669921875,508,508,507.3330078125,507.3330078125,507.3330078125,507.3330078125,507.3330078125,507.3330078125,507.3330078125,507.3330078125,507.3330078125,507.3330078125,505.3330078125,505.3330078125,505.3330078125,505.3330078125,505.3330078125,505.3330078125,505.3330078125,505.3330078125,506,506.6669921875,506.6669921875,506.6669921875,507.3330078125,507.3330078125,507.3330078125,507.3330078125,507.3330078125,507.3330078125,506.6669921875,506.6669921875,506,506,506,506,506,506,506,506,506,506,506,503.3330078125,503.3330078125,503.3330078125,503.3330078125,503.3330078125,503.3330078125,503.3330078125,503.3330078125,503.3330078125,503.3330078125,503.3330078125,503.3330078125,503.3330078125,503.3330078125,503.3330078125,503.3330078125,503.3330078125,503.3330078125,503.3330078125,503.3330078125,504,504,504,504,504,504,504,504,504,504,503.3330078125,503.3330078125,503.3330078125,503.3330078125,503.3330078125,503.3330078125,503.3330078125,503.3330078125,503.3330078125,503.3330078125,503.3330078125,503.3330078125,503.3330078125,503.3330078125,503.3330078125,503.3330078125,503.3330078125,503.3330078125,503.3330078125,503.3330078125,502,502,502,502,502,502,502,502,502,502,500,500,500,500,500,494.6669921875,494,492.6669921875,491,491.3330078125,491.3330078125,491.3330078125,491,491.3330078125,491.3330078125,491.3330078125,490,490,488,487.3330078125,486.6669921875,486,484.6669921875,482,480.6669921875,479.3330078125,478,478,478,478,475.3330078125,475.3330078125,475.3330078125,475.3330078125,475.3330078125,475.3330078125,467.3330078125,467.3330078125,460.6669921875,458,457.3330078125,454.6669921875,453,446.6669921875,444.6669921875,440,438,432,424,419,417.3330078125,414,410,406,403.3330078125,401,396.6669921875,394,389.3330078125,382,376.6669921875,374,368,360.6669921875,354,351,342,328,312,301.3330078125,296,287.3330078125,282.6669921875,270,267.3330078125,262,259.3330078125,253,232,195.33299255371094,171.33299255371094,142.66700744628906,134.66700744628906,127,123.3330078125,121.3330078125,115.3330078125,112,106.66699981689453,100.66699981689453,98],"timestamp_mouse":[5,24,44,66,84,104,127,145,164,184,204,224,245,264,284,304,324,346,365,384,404,425,444,464,484,504,524,544,564,584,604,624,644,664,684,704,726,744,764,784,804,824,844,864,884,904,924,944,964,984,1004,1024,1044,1064,1084,1104,1124,1144,1164,1184,1204,1224,1244,1264,1284,1304,1324,1343,1364,1384,1404,1424,1444,1464,1484,1504,1524,1545,1564,1584,1604,1624,1644,1664,1684,1704,1724,1744,1764,1784,1804,1824,1844,1864,1884,1904,1924,1944,1964,1984,2004,2024,2044,2064,2084,2104,2125,2144,2164,2184,2204,2224,2246,2264,2284,2304,2324,2346,2364,2384,2404,2424,2444,2464,2484,2504,2524,2544,2564,2584,2604,2624,2644,2664,2684,2704,2724,2745,2764,2784,2804,2825,2844,2864,2884,2904,2924,2947,2964,2984,3004,3024,3045,3065,3085,3105,3124,3146,3164,3184,3205,3224,3245,3265,3284,3304,3324,3344,3364,3384,3404,3424,3447,3464,3485,3504,3524,3546,3564,3585,3604,3624,3646,3665,3684,3704,3724,3746,3764,3784,3804,3824,3846,3865,3884,3904,3925,3944,3964,3984],"xSR":350,"ySR":451.2,"xT1":30,"yT1":0,"xT2":670,"yT2":0,"toosoon":0,"cond_shown":"Congruent","ratio_trial":300,"L_num":2,"L_den":10,"R_num":12,"R_den":24,"correct_side":2,"subjID":"10","gender":"No_gender","age":"No_age","school":"No_school","test":{"fix_dur":[250,1500],"timestim":900,"targets_dim":[100,100],"targets_relative_coord":[0.1,0.9],"size_stim":[880,420],"start_dim":[100,100],"size_start":[300,300],"size_fix":60,"samplingrate":20,"img_types":["Congruent","Incongruent","Equal"],"ratios":[100,200,300,500],"rep_conds":15,"nTrials":192,"trials_to_rest":500,"Trials_order":[174,26,164,43,46,84,110,5,32,145,3,63,111,70,156,54,56,59,181,29,129,180,142,73,138,30,126,48,77,80,106,22,1,42,153,33,118,159,161,101,88,53,31,154,95,119,165,96,45,92,139,113,55,112,122,171,85,137,160,41,148,107,155,134,170,116,144,175,28,152,15,40,97,117,78,173,157,11,99,18,37,0,51,67,191,47,71,60,115,91,10,166,50,123,17,12,172,190,6,38,57,186,135,143,103,114,104,19,82,65,162,64,61,72,93,128,66,8,167,179,140,23,81,151,136,146,36,24,178,13,39,124,14,150,149,102,9,187,94,89,183,169,127,90,62,100,184,4,125,52,120,83,87,133,158,35,2,76,75,7,44,74,27,130,132,182,177,79,108,121,163,98,68,16,131,176,185,86,25,189,109,20,58,69,34,105,49,21,147,188,168,141],"cond_shown":["Congruent","Equal","Equal","Incongruent","Incongruent","Congruent","Equal","Equal","Equal","Incongruent","Congruent","Congruent","Congruent","Incongruent","Congruent","Congruent","Equal","Equal","Incongruent","Equal","Congruent","Congruent","Incongruent","Incongruent","Congruent","Congruent","Congruent","Congruent","Equal","Equal","Incongruent","Incongruent","Incongruent","Congruent","Congruent","Congruent","Incongruent","Congruent","Equal","Equal","Incongruent","Equal","Incongruent","Incongruent","Equal","Equal","Congruent","Congruent","Congruent","Equal","Incongruent","Equal","Incongruent","Incongruent","Equal","Congruent","Incongruent","Equal","Incongruent","Equal","Incongruent","Equal","Equal","Equal","Equal","Equal","Congruent","Incongruent","Incongruent","Equal","Congruent","Incongruent","Incongruent","Congruent","Congruent","Equal","Incongruent","Equal","Congruent","Congruent","Incongruent","Congruent","Congruent","Incongruent","Equal","Equal","Equal","Congruent","Incongruent","Incongruent","Incongruent","Incongruent","Equal","Congruent","Equal","Congruent","Incongruent","Incongruent","Congruent","Equal","Congruent","Congruent","Congruent","Equal","Incongruent","Congruent","Equal","Incongruent","Incongruent","Equal","Congruent","Incongruent","Incongruent","Congruent","Congruent","Equal","Congruent","Equal","Equal","Equal","Equal","Equal","Congruent","Incongruent","Incongruent","Equal","Congruent","Congruent","Incongruent","Incongruent","Congruent","Incongruent","Equal","Congruent","Equal","Congruent","Congruent","Incongruent","Incongruent","Equal","Congruent","Incongruent","Incongruent","Congruent","Equal","Incongruent","Incongruent","Incongruent","Equal","Incongruent","Congruent","Equal","Congruent","Incongruent","Equal","Equal","Equal","Incongruent","Congruent","Incongruent","Equal","Equal","Congruent","Incongruent","Congruent","Equal","Congruent","Incongruent","Congruent","Incongruent","Incongruent","Equal","Equal","Incongruent","Equal","Equal","Equal","Equal","Incongruent","Congruent","Incongruent","Equal","Incongruent","Congruent","Incongruent","Congruent","Incongruent","Congruent","Congruent","Equal","Congruent","Congruent"],"ratio_trial":[300,100,300,300,500,100,100,200,300,100,200,200,200,500,100,300,300,500,100,200,500,100,500,100,300,300,300,100,200,300,500,500,100,300,500,500,500,200,200,200,200,200,300,500,500,500,500,100,500,300,300,200,300,200,100,200,100,200,200,200,200,500,500,100,100,300,100,300,200,300,200,200,100,500,300,200,100,500,200,300,100,100,200,300,500,500,500,100,300,300,500,500,100,200,200,100,200,500,300,100,500,300,200,500,300,300,300,300,500,200,300,200,100,100,500,300,300,300,500,500,300,500,500,300,200,100,100,100,500,100,200,200,100,300,200,300,500,300,500,200,200,100,300,300,100,200,200,200,200,200,100,500,200,100,100,500,100,200,200,300,300,100,200,500,100,100,500,300,100,100,300,100,300,200,500,300,200,100,100,500,100,300,500,500,500,500,100,500,200,300,100,500],"left_num":[2,6,18,4,7,7,6,3,9,9,3,12,21,7,4,8,9,6,2,3,2,9,7,8,2,11,1,6,3,9,7,5,12,5,8,2,2,5,3,3,7,3,2,2,6,6,8,11,25,9,7,3,13,7,2,9,13,3,4,3,7,2,6,2,2,9,11,13,14,9,12,14,3,3,4,3,10,6,12,7,8,9,3,7,6,6,6,4,2,7,5,7,6,16,3,1,1,7,4,6,10,5,3,6,4,11,9,13,7,3,11,3,10,1,3,3,11,18,6,2,3,6,4,1,4,6,9,1,7,6,3,1,6,20,3,20,2,4,7,3,3,9,1,20,6,1,14,7,3,1,4,6,8,10,2,6,2,3,21,4,9,6,8,5,9,6,7,2,8,10,4,6,9,3,6,9,3,6,6,2,3,9,2,12,2,7,3,2,5,9,6,20],"right_num":[12,6,18,2,9,15,6,3,9,20,9,6,2,9,6,1,9,6,6,3,18,8,5,6,12,2,6,5,3,9,5,6,9,6,4,12,4,14,3,3,6,3,6,4,6,6,4,6,9,9,8,3,12,6,2,13,6,3,1,3,14,2,6,2,2,9,4,12,12,9,6,12,8,15,2,3,9,6,6,20,6,8,14,8,6,6,6,6,6,8,6,5,6,9,3,3,3,5,1,6,4,6,14,6,2,4,9,12,9,3,2,1,8,3,4,3,2,18,6,2,3,6,12,2,14,6,8,3,5,11,14,2,6,14,3,5,12,2,5,3,14,6,2,5,6,2,12,12,3,2,15,6,7,9,2,6,2,11,2,2,9,6,3,6,8,6,20,6,2,8,2,6,9,11,6,9,3,6,7,4,7,9,4,3,4,12,8,12,14,9,5,1],"left_den":[10,12,30,20,8,14,12,6,20,10,12,20,30,8,8,16,20,24,4,6,5,15,21,16,10,22,5,20,6,12,21,6,24,25,12,8,3,10,6,10,15,6,4,3,24,8,12,22,30,20,10,10,26,15,12,30,26,6,30,10,10,12,8,12,12,20,22,26,30,12,15,30,5,12,5,6,25,8,20,14,16,15,10,10,8,8,8,8,4,10,6,21,10,30,10,2,2,21,10,12,15,25,6,8,20,22,12,26,8,10,22,10,25,2,10,10,22,30,24,12,10,8,24,2,6,12,15,2,21,10,10,3,12,25,6,25,12,20,21,6,10,18,2,25,12,3,30,10,6,3,10,8,15,25,12,24,12,4,30,20,20,12,15,6,15,12,21,4,16,25,20,12,12,4,8,12,10,12,10,12,9,12,3,16,3,28,5,12,10,20,20,24],"right_den":[24,10,20,4,24,25,10,10,12,25,20,15,4,24,10,5,12,8,15,10,20,16,6,10,24,10,12,25,10,20,6,18,15,12,24,16,24,20,10,6,9,10,30,24,8,24,24,15,27,12,20,6,15,9,30,26,10,10,3,6,28,3,24,30,30,12,10,15,18,20,10,18,16,20,4,10,18,24,15,25,10,16,28,20,24,24,24,10,30,20,18,6,12,27,6,5,10,6,10,10,24,12,20,24,4,20,20,15,24,6,10,2,16,5,5,5,10,20,8,3,5,24,18,10,30,10,16,5,6,22,28,15,10,28,10,10,18,4,6,10,28,10,10,10,10,15,18,24,10,15,30,24,21,18,30,8,30,20,4,4,12,10,9,18,16,10,24,30,5,16,4,10,20,20,24,20,6,10,14,6,30,20,24,12,24,16,16,18,20,12,25,3],"correct_side":[2,2,2,2,1,2,2,1,2,1,2,1,1,1,2,1,2,2,1,1,2,1,2,2,2,1,2,1,1,1,2,1,2,2,1,2,1,2,1,2,2,1,1,1,2,1,1,1,1,2,1,2,2,2,1,2,2,1,2,2,1,2,1,1,1,2,1,2,2,1,1,2,1,2,1,1,2,1,1,2,2,1,2,1,1,1,1,2,1,1,1,2,1,1,2,2,1,2,1,2,1,2,2,1,2,1,1,2,1,2,1,2,2,2,2,2,1,2,2,2,2,1,2,1,1,2,1,2,2,1,2,1,2,1,1,1,2,2,2,1,2,2,1,1,2,1,2,1,1,1,2,1,1,2,1,2,1,1,1,2,2,2,1,1,1,2,2,1,1,2,2,2,1,1,1,1,2,2,1,2,1,1,1,1,1,2,1,2,2,2,1,1],"img_shown":["img2/300/Congruent/R/C_Dist_300_LN_2_LD_10_RN_12_RD_24_1.png","img2/100/Equal/R/E_Dist_100_LN_6_LD_12_RN_6_RD_10_1.png","img2/300/Equal/R/E_Dist_300_LN_18_LD_30_RN_18_RD_20_1.png","img2/300/Incongruent/R/I_Dist_300_LN_4_LD_20_RN_2_RD_4_1.png","img2/500/Incongruent/L/I_Dist_500_LN_7_LD_8_RN_9_RD_24_0.png","img2/100/Congruent/R/C_Dist_100_LN_7_LD_14_RN_15_RD_25_1.png","img2/100/Equal/R/E_Dist_100_LN_6_LD_12_RN_6_RD_10_1.png","img2/200/Equal/L/E_Dist_200_LN_3_LD_6_RN_3_RD_10_0.png","img2/300/Equal/R/E_Dist_300_LN_9_LD_20_RN_9_RD_12_1.png","img2/100/Incongruent/L/I_Dist_100_LN_9_LD_10_RN_20_RD_25_0.png","img2/200/Congruent/R/C_Dist_200_LN_3_LD_12_RN_9_RD_20_1.png","img2/200/Congruent/L/C_Dist_200_LN_12_LD_20_RN_6_RD_15_0.png","img2/200/Congruent/L/C_Dist_200_LN_21_LD_30_RN_2_RD_4_0.png","img2/500/Incongruent/L/I_Dist_500_LN_7_LD_8_RN_9_RD_24_0.png","img2/100/Congruent/R/C_Dist_100_LN_4_LD_8_RN_6_RD_10_1.png","img2/300/Congruent/L/C_Dist_300_LN_8_LD_16_RN_1_RD_5_0.png","img2/300/Equal/R/E_Dist_300_LN_9_LD_20_RN_9_RD_12_1.png","img2/500/Equal/R/E_Dist_500_LN_6_LD_24_RN_6_RD_8_1.png","img2/100/Incongruent/L/I_Dist_100_LN_2_LD_4_RN_6_RD_15_0.png","img2/200/Equal/L/E_Dist_200_LN_3_LD_6_RN_3_RD_10_0.png","img2/500/Congruent/R/C_Dist_500_LN_2_LD_5_RN_18_RD_20_1.png","img2/100/Congruent/L/C_Dist_100_LN_9_LD_15_RN_8_RD_16_0.png","img2/500/Incongruent/R/I_Dist_500_LN_7_LD_21_RN_5_RD_6_1.png","img2/100/Incongruent/R/I_Dist_100_LN_8_LD_16_RN_6_RD_10_1.png","img2/300/Congruent/R/C_Dist_300_LN_2_LD_10_RN_12_RD_24_1.png","img2/300/Congruent/L/C_Dist_300_LN_11_LD_22_RN_2_RD_10_0.png","img2/300/Congruent/R/C_Dist_300_LN_1_LD_5_RN_6_RD_12_1.png","img2/100/Congruent/L/C_Dist_100_LN_6_LD_20_RN_5_RD_25_0.png","img2/200/Equal/L/E_Dist_200_LN_3_LD_6_RN_3_RD_10_0.png","img2/300/Equal/L/E_Dist_300_LN_9_LD_12_RN_9_RD_20_0.png","img2/500/Incongruent/R/I_Dist_500_LN_7_LD_21_RN_5_RD_6_1.png","img2/500/Incongruent/L/I_Dist_500_LN_5_LD_6_RN_6_RD_18_0.png","img2/100/Incongruent/R/I_Dist_100_LN_12_LD_24_RN_9_RD_15_1.png","img2/300/Congruent/R/C_Dist_300_LN_5_LD_25_RN_6_RD_12_1.png","img2/500/Congruent/L/C_Dist_500_LN_8_LD_12_RN_4_RD_24_0.png","img2/500/Congruent/R/C_Dist_500_LN_2_LD_8_RN_12_RD_16_1.png","img2/500/Incongruent/L/I_Dist_500_LN_2_LD_3_RN_4_RD_24_0.png","img2/200/Congruent/R/C_Dist_200_LN_5_LD_10_RN_14_RD_20_1.png","img2/200/Equal/L/E_Dist_200_LN_3_LD_6_RN_3_RD_10_0.png","img2/200/Equal/R/E_Dist_200_LN_3_LD_10_RN_3_RD_6_1.png","img2/200/Incongruent/R/I_Dist_200_LN_7_LD_15_RN_6_RD_9_1.png","img2/200/Equal/L/E_Dist_200_LN_3_LD_6_RN_3_RD_10_0.png","img2/300/Incongruent/L/I_Dist_300_LN_2_LD_4_RN_6_RD_30_0.png","img2/500/Incongruent/L/I_Dist_500_LN_2_LD_3_RN_4_RD_24_0.png","img2/500/Equal/R/E_Dist_500_LN_6_LD_24_RN_6_RD_8_1.png","img2/500/Equal/L/E_Dist_500_LN_6_LD_8_RN_6_RD_24_0.png","img2/500/Congruent/L/C_Dist_500_LN_8_LD_12_RN_4_RD_24_0.png","img2/100/Congruent/L/C_Dist_100_LN_11_LD_22_RN_6_RD_15_0.png","img2/500/Congruent/L/C_Dist_500_LN_25_LD_30_RN_9_RD_27_0.png","img2/300/Equal/R/E_Dist_300_LN_9_LD_20_RN_9_RD_12_1.png","img2/300/Incongruent/L/I_Dist_300_LN_7_LD_10_RN_8_RD_20_0.png","img2/200/Equal/R/E_Dist_200_LN_3_LD_10_RN_3_RD_6_1.png","img2/300/Incongruent/R/I_Dist_300_LN_13_LD_26_RN_12_RD_15_1.png","img2/200/Incongruent/R/I_Dist_200_LN_7_LD_15_RN_6_RD_9_1.png","img2/100/Equal/L/E_Dist_100_LN_2_LD_12_RN_2_RD_30_0.png","img2/200/Congruent/R/C_Dist_200_LN_9_LD_30_RN_13_RD_26_1.png","img2/100/Incongruent/R/I_Dist_100_LN_13_LD_26_RN_6_RD_10_1.png","img2/200/Equal/L/E_Dist_200_LN_3_LD_6_RN_3_RD_10_0.png","img2/200/Incongruent/R/I_Dist_200_LN_4_LD_30_RN_1_RD_3_1.png","img2/200/Equal/R/E_Dist_200_LN_3_LD_10_RN_3_RD_6_1.png","img2/200/Incongruent/L/I_Dist_200_LN_7_LD_10_RN_14_RD_28_0.png","img2/500/Equal/R/E_Dist_500_LN_2_LD_12_RN_2_RD_3_1.png","img2/500/Equal/L/E_Dist_500_LN_6_LD_8_RN_6_RD_24_0.png","img2/100/Equal/L/E_Dist_100_LN_2_LD_12_RN_2_RD_30_0.png","img2/100/Equal/L/E_Dist_100_LN_2_LD_12_RN_2_RD_30_0.png","img2/300/Equal/R/E_Dist_300_LN_9_LD_20_RN_9_RD_12_1.png","img2/100/Congruent/L/C_Dist_100_LN_11_LD_22_RN_4_RD_10_0.png","img2/300/Incongruent/R/I_Dist_300_LN_13_LD_26_RN_12_RD_15_1.png","img2/200/Incongruent/R/I_Dist_200_LN_14_LD_30_RN_12_RD_18_1.png","img2/300/Equal/L/E_Dist_300_LN_9_LD_12_RN_9_RD_20_0.png","img2/200/Congruent/L/C_Dist_200_LN_12_LD_15_RN_6_RD_10_0.png","img2/200/Incongruent/R/I_Dist_200_LN_14_LD_30_RN_12_RD_18_1.png","img2/100/Incongruent/L/I_Dist_100_LN_3_LD_5_RN_8_RD_16_0.png","img2/500/Congruent/R/C_Dist_500_LN_3_LD_12_RN_15_RD_20_1.png","img2/300/Congruent/L/C_Dist_300_LN_4_LD_5_RN_2_RD_4_0.png","img2/200/Equal/L/E_Dist_200_LN_3_LD_6_RN_3_RD_10_0.png","img2/100/Incongruent/R/I_Dist_100_LN_10_LD_25_RN_9_RD_18_1.png","img2/500/Equal/L/E_Dist_500_LN_6_LD_8_RN_6_RD_24_0.png","img2/200/Congruent/L/C_Dist_200_LN_12_LD_20_RN_6_RD_15_0.png","img2/300/Congruent/R/C_Dist_300_LN_7_LD_14_RN_20_RD_25_1.png","img2/100/Incongruent/R/I_Dist_100_LN_8_LD_16_RN_6_RD_10_1.png","img2/100/Congruent/L/C_Dist_100_LN_9_LD_15_RN_8_RD_16_0.png","img2/200/Congruent/R/C_Dist_200_LN_3_LD_10_RN_14_RD_28_1.png","img2/300/Incongruent/L/I_Dist_300_LN_7_LD_10_RN_8_RD_20_0.png","img2/500/Equal/L/E_Dist_500_LN_6_LD_8_RN_6_RD_24_0.png","img2/500/Equal/L/E_Dist_500_LN_6_LD_8_RN_6_RD_24_0.png","img2/500/Equal/L/E_Dist_500_LN_6_LD_8_RN_6_RD_24_0.png","img2/100/Congruent/R/C_Dist_100_LN_4_LD_8_RN_6_RD_10_1.png","img2/300/Incongruent/L/I_Dist_300_LN_2_LD_4_RN_6_RD_30_0.png","img2/300/Incongruent/L/I_Dist_300_LN_7_LD_10_RN_8_RD_20_0.png","img2/500/Incongruent/L/I_Dist_500_LN_5_LD_6_RN_6_RD_18_0.png","img2/500/Incongruent/R/I_Dist_500_LN_7_LD_21_RN_5_RD_6_1.png","img2/100/Equal/L/E_Dist_100_LN_6_LD_10_RN_6_RD_12_0.png","img2/200/Congruent/L/C_Dist_200_LN_16_LD_30_RN_9_RD_27_0.png","img2/200/Equal/R/E_Dist_200_LN_3_LD_10_RN_3_RD_6_1.png","img2/100/Congruent/R/C_Dist_100_LN_1_LD_2_RN_3_RD_5_1.png","img2/200/Incongruent/L/I_Dist_200_LN_1_LD_2_RN_3_RD_10_0.png","img2/500/Incongruent/R/I_Dist_500_LN_7_LD_21_RN_5_RD_6_1.png","img2/300/Congruent/L/C_Dist_300_LN_4_LD_10_RN_1_RD_10_0.png","img2/100/Equal/R/E_Dist_100_LN_6_LD_12_RN_6_RD_10_1.png","img2/500/Congruent/L/C_Dist_500_LN_10_LD_15_RN_4_RD_24_0.png","img2/300/Congruent/R/C_Dist_300_LN_5_LD_25_RN_6_RD_12_1.png","img2/200/Congruent/R/C_Dist_200_LN_3_LD_6_RN_14_RD_20_1.png","img2/500/Equal/L/E_Dist_500_LN_6_LD_8_RN_6_RD_24_0.png","img2/300/Incongruent/R/I_Dist_300_LN_4_LD_20_RN_2_RD_4_1.png","img2/300/Congruent/L/C_Dist_300_LN_11_LD_22_RN_4_RD_20_0.png","img2/300/Equal/L/E_Dist_300_LN_9_LD_12_RN_9_RD_20_0.png","img2/300/Incongruent/R/I_Dist_300_LN_13_LD_26_RN_12_RD_15_1.png","img2/500/Incongruent/L/I_Dist_500_LN_7_LD_8_RN_9_RD_24_0.png","img2/200/Equal/R/E_Dist_200_LN_3_LD_10_RN_3_RD_6_1.png","img2/300/Congruent/L/C_Dist_300_LN_11_LD_22_RN_2_RD_10_0.png","img2/200/Incongruent/R/I_Dist_200_LN_3_LD_10_RN_1_RD_2_1.png","img2/100/Incongruent/R/I_Dist_100_LN_10_LD_25_RN_8_RD_16_1.png","img2/100/Congruent/R/C_Dist_100_LN_1_LD_2_RN_3_RD_5_1.png","img2/500/Congruent/R/C_Dist_500_LN_3_LD_10_RN_4_RD_5_1.png","img2/300/Equal/R/E_Dist_300_LN_3_LD_10_RN_3_RD_5_1.png","img2/300/Congruent/L/C_Dist_300_LN_11_LD_22_RN_2_RD_10_0.png","img2/300/Equal/R/E_Dist_300_LN_18_LD_30_RN_18_RD_20_1.png","img2/500/Equal/R/E_Dist_500_LN_6_LD_24_RN_6_RD_8_1.png","img2/500/Equal/R/E_Dist_500_LN_2_LD_12_RN_2_RD_3_1.png","img2/300/Equal/R/E_Dist_300_LN_3_LD_10_RN_3_RD_5_1.png","img2/500/Equal/L/E_Dist_500_LN_6_LD_8_RN_6_RD_24_0.png","img2/500/Congruent/R/C_Dist_500_LN_4_LD_24_RN_12_RD_18_1.png","img2/300/Incongruent/L/I_Dist_300_LN_1_LD_2_RN_2_RD_10_0.png","img2/200/Incongruent/L/I_Dist_200_LN_4_LD_6_RN_14_RD_30_0.png","img2/100/Equal/R/E_Dist_100_LN_6_LD_12_RN_6_RD_10_1.png","img2/100/Congruent/L/C_Dist_100_LN_9_LD_15_RN_8_RD_16_0.png","img2/100/Congruent/R/C_Dist_100_LN_1_LD_2_RN_3_RD_5_1.png","img2/500/Incongruent/R/I_Dist_500_LN_7_LD_21_RN_5_RD_6_1.png","img2/100/Incongruent/L/I_Dist_100_LN_6_LD_10_RN_11_RD_22_0.png","img2/200/Congruent/R/C_Dist_200_LN_3_LD_10_RN_14_RD_28_1.png","img2/200/Incongruent/L/I_Dist_200_LN_1_LD_3_RN_2_RD_15_0.png","img2/100/Equal/R/E_Dist_100_LN_6_LD_12_RN_6_RD_10_1.png","img2/300/Congruent/L/C_Dist_300_LN_20_LD_25_RN_14_RD_28_0.png","img2/200/Equal/L/E_Dist_200_LN_3_LD_6_RN_3_RD_10_0.png","img2/300/Congruent/L/C_Dist_300_LN_20_LD_25_RN_5_RD_10_0.png","img2/500/Congruent/R/C_Dist_500_LN_2_LD_12_RN_12_RD_18_1.png","img2/300/Incongruent/R/I_Dist_300_LN_4_LD_20_RN_2_RD_4_1.png","img2/500/Incongruent/R/I_Dist_500_LN_7_LD_21_RN_5_RD_6_1.png","img2/200/Equal/L/E_Dist_200_LN_3_LD_6_RN_3_RD_10_0.png","img2/200/Congruent/R/C_Dist_200_LN_3_LD_10_RN_14_RD_28_1.png","img2/100/Incongruent/R/I_Dist_100_LN_9_LD_18_RN_6_RD_10_1.png","img2/300/Incongruent/L/I_Dist_300_LN_1_LD_2_RN_2_RD_10_0.png","img2/300/Congruent/L/C_Dist_300_LN_20_LD_25_RN_5_RD_10_0.png","img2/100/Equal/R/E_Dist_100_LN_6_LD_12_RN_6_RD_10_1.png","img2/200/Incongruent/L/I_Dist_200_LN_1_LD_3_RN_2_RD_15_0.png","img2/200/Incongruent/R/I_Dist_200_LN_14_LD_30_RN_12_RD_18_1.png","img2/200/Incongruent/L/I_Dist_200_LN_7_LD_10_RN_12_RD_24_0.png","img2/200/Equal/L/E_Dist_200_LN_3_LD_6_RN_3_RD_10_0.png","img2/200/Incongruent/L/I_Dist_200_LN_1_LD_3_RN_2_RD_15_0.png","img2/100/Congruent/R/C_Dist_100_LN_4_LD_10_RN_15_RD_30_1.png","img2/500/Equal/L/E_Dist_500_LN_6_LD_8_RN_6_RD_24_0.png","img2/200/Congruent/L/C_Dist_200_LN_8_LD_15_RN_7_RD_21_0.png","img2/100/Incongruent/R/I_Dist_100_LN_10_LD_25_RN_9_RD_18_1.png","img2/100/Equal/L/E_Dist_100_LN_2_LD_12_RN_2_RD_30_0.png","img2/500/Equal/R/E_Dist_500_LN_6_LD_24_RN_6_RD_8_1.png","img2/100/Equal/L/E_Dist_100_LN_2_LD_12_RN_2_RD_30_0.png","img2/200/Incongruent/L/I_Dist_200_LN_3_LD_4_RN_11_RD_20_0.png","img2/200/Congruent/L/C_Dist_200_LN_21_LD_30_RN_2_RD_4_0.png","img2/300/Incongruent/R/I_Dist_300_LN_4_LD_20_RN_2_RD_4_1.png","img2/300/Equal/R/E_Dist_300_LN_9_LD_20_RN_9_RD_12_1.png","img2/100/Equal/R/E_Dist_100_LN_6_LD_12_RN_6_RD_10_1.png","img2/200/Congruent/L/C_Dist_200_LN_8_LD_15_RN_3_RD_9_0.png","img2/500/Incongruent/L/I_Dist_500_LN_5_LD_6_RN_6_RD_18_0.png","img2/100/Congruent/L/C_Dist_100_LN_9_LD_15_RN_8_RD_16_0.png","img2/100/Equal/R/E_Dist_100_LN_6_LD_12_RN_6_RD_10_1.png","img2/500/Congruent/R/C_Dist_500_LN_7_LD_21_RN_20_RD_24_1.png","img2/300/Incongruent/L/I_Dist_300_LN_2_LD_4_RN_6_RD_30_0.png","img2/100/Congruent/L/C_Dist_100_LN_8_LD_16_RN_2_RD_5_0.png","img2/100/Incongruent/R/I_Dist_100_LN_10_LD_25_RN_8_RD_16_1.png","img2/300/Incongruent/R/I_Dist_300_LN_4_LD_20_RN_2_RD_4_1.png","img2/100/Equal/R/E_Dist_100_LN_6_LD_12_RN_6_RD_10_1.png","img2/300/Equal/L/E_Dist_300_LN_9_LD_12_RN_9_RD_20_0.png","img2/200/Incongruent/L/I_Dist_200_LN_3_LD_4_RN_11_RD_20_0.png","img2/500/Equal/L/E_Dist_500_LN_6_LD_8_RN_6_RD_24_0.png","img2/300/Equal/L/E_Dist_300_LN_9_LD_12_RN_9_RD_20_0.png","img2/200/Equal/R/E_Dist_200_LN_3_LD_10_RN_3_RD_6_1.png","img2/100/Equal/R/E_Dist_100_LN_6_LD_12_RN_6_RD_10_1.png","img2/100/Incongruent/L/I_Dist_100_LN_6_LD_10_RN_7_RD_14_0.png","img2/500/Congruent/R/C_Dist_500_LN_2_LD_12_RN_4_RD_6_1.png","img2/100/Incongruent/L/I_Dist_100_LN_3_LD_9_RN_7_RD_30_0.png","img2/300/Equal/L/E_Dist_300_LN_9_LD_12_RN_9_RD_20_0.png","img2/500/Incongruent/L/I_Dist_500_LN_2_LD_3_RN_4_RD_24_0.png","img2/500/Congruent/L/C_Dist_500_LN_12_LD_16_RN_3_RD_12_0.png","img2/500/Incongruent/L/I_Dist_500_LN_2_LD_3_RN_4_RD_24_0.png","img2/500/Congruent/R/C_Dist_500_LN_7_LD_28_RN_12_RD_16_1.png","img2/100/Incongruent/L/I_Dist_100_LN_3_LD_5_RN_8_RD_16_0.png","img2/500/Congruent/R/C_Dist_500_LN_2_LD_12_RN_12_RD_18_1.png","img2/200/Congruent/R/C_Dist_200_LN_5_LD_10_RN_14_RD_20_1.png","img2/300/Equal/R/E_Dist_300_LN_9_LD_20_RN_9_RD_12_1.png","img2/100/Congruent/L/C_Dist_100_LN_6_LD_20_RN_5_RD_25_0.png","img2/500/Congruent/L/C_Dist_500_LN_20_LD_24_RN_1_RD_3_0.png"],"dist100_C":[["C_Dist_100_LN_10_LD_25_RN_3_RD_10_0.png","C_Dist_100_LN_11_LD_22_RN_4_RD_10_0.png","C_Dist_100_LN_11_LD_22_RN_6_RD_15_0.png","C_Dist_100_LN_15_LD_25_RN_13_RD_26_0.png","C_Dist_100_LN_3_LD_6_RN_2_RD_5_0.png","C_Dist_100_LN_6_LD_20_RN_5_RD_25_0.png","C_Dist_100_LN_8_LD_16_RN_2_RD_5_0.png","C_Dist_100_LN_9_LD_15_RN_8_RD_16_0.png"],["C_Dist_100_LN_1_LD_2_RN_18_RD_30_1.png","C_Dist_100_LN_1_LD_2_RN_3_RD_5_1.png","C_Dist_100_LN_12_LD_30_RN_13_RD_26_1.png","C_Dist_100_LN_2_LD_5_RN_11_RD_22_1.png","C_Dist_100_LN_2_LD_5_RN_6_RD_12_1.png","C_Dist_100_LN_3_LD_20_RN_4_RD_16_1.png","C_Dist_100_LN_4_LD_10_RN_15_RD_30_1.png","C_Dist_100_LN_4_LD_8_RN_6_RD_10_1.png","C_Dist_100_LN_6_LD_12_RN_15_RD_25_1.png","C_Dist_100_LN_7_LD_14_RN_15_RD_25_1.png","C_Dist_100_LN_7_LD_14_RN_9_RD_15_1.png"]],"dist100_I":[["I_Dist_100_LN_1_LD_2_RN_8_RD_20_0.png","I_Dist_100_LN_2_LD_4_RN_6_RD_15_0.png","I_Dist_100_LN_2_LD_4_RN_8_RD_20_0.png","I_Dist_100_LN_3_LD_5_RN_11_RD_22_0.png","I_Dist_100_LN_3_LD_5_RN_8_RD_16_0.png","I_Dist_100_LN_3_LD_6_RN_4_RD_10_0.png","I_Dist_100_LN_3_LD_9_RN_7_RD_30_0.png","I_Dist_100_LN_4_LD_8_RN_8_RD_20_0.png","I_Dist_100_LN_6_LD_10_RN_11_RD_22_0.png","I_Dist_100_LN_6_LD_10_RN_13_RD_26_0.png","I_Dist_100_LN_6_LD_10_RN_7_RD_14_0.png","I_Dist_100_LN_9_LD_10_RN_20_RD_25_0.png","I_Dist_100_LN_9_LD_15_RN_13_RD_26_0.png","I_Dist_100_LN_9_LD_15_RN_14_RD_28_0.png"],["I_Dist_100_LN_10_LD_25_RN_8_RD_16_1.png","I_Dist_100_LN_10_LD_25_RN_9_RD_18_1.png","I_Dist_100_LN_11_LD_22_RN_9_RD_15_1.png","I_Dist_100_LN_12_LD_24_RN_9_RD_15_1.png","I_Dist_100_LN_12_LD_30_RN_2_RD_4_1.png","I_Dist_100_LN_13_LD_26_RN_12_RD_20_1.png","I_Dist_100_LN_13_LD_26_RN_6_RD_10_1.png","I_Dist_100_LN_17_LD_30_RN_10_RD_15_1.png","I_Dist_100_LN_6_LD_12_RN_3_RD_5_1.png","I_Dist_100_LN_8_LD_16_RN_6_RD_10_1.png","I_Dist_100_LN_8_LD_20_RN_1_RD_2_1.png","I_Dist_100_LN_9_LD_18_RN_6_RD_10_1.png"]],"dist100_S":[["E_Dist_100_LN_2_LD_12_RN_2_RD_30_0.png","E_Dist_100_LN_6_LD_10_RN_6_RD_12_0.png"],["E_Dist_100_LN_6_LD_12_RN_6_RD_10_1.png"]],"dist200_C":[["C_Dist_200_LN_11_LD_22_RN_3_RD_10_0.png","C_Dist_200_LN_12_LD_15_RN_6_RD_10_0.png","C_Dist_200_LN_12_LD_20_RN_6_RD_15_0.png","C_Dist_200_LN_14_LD_28_RN_6_RD_20_0.png","C_Dist_200_LN_15_LD_25_RN_4_RD_10_0.png","C_Dist_200_LN_16_LD_20_RN_12_RD_20_0.png","C_Dist_200_LN_16_LD_30_RN_9_RD_27_0.png","C_Dist_200_LN_20_LD_25_RN_9_RD_15_0.png","C_Dist_200_LN_21_LD_30_RN_2_RD_4_0.png","C_Dist_200_LN_4_LD_10_RN_3_RD_15_0.png","C_Dist_200_LN_4_LD_8_RN_3_RD_10_0.png","C_Dist_200_LN_6_LD_15_RN_3_RD_15_0.png","C_Dist_200_LN_7_LD_21_RN_2_RD_15_0.png","C_Dist_200_LN_8_LD_15_RN_2_RD_6_0.png","C_Dist_200_LN_8_LD_15_RN_3_RD_9_0.png","C_Dist_200_LN_8_LD_15_RN_7_RD_21_0.png","C_Dist_200_LN_9_LD_20_RN_4_RD_16_0.png"],["C_Dist_200_LN_1_LD_2_RN_21_RD_30_1.png","C_Dist_200_LN_13_LD_26_RN_14_RD_20_1.png","C_Dist_200_LN_3_LD_10_RN_11_RD_22_1.png","C_Dist_200_LN_3_LD_10_RN_14_RD_28_1.png","C_Dist_200_LN_3_LD_10_RN_7_RD_14_1.png","C_Dist_200_LN_3_LD_12_RN_9_RD_20_1.png","C_Dist_200_LN_3_LD_6_RN_14_RD_20_1.png","C_Dist_200_LN_5_LD_10_RN_14_RD_20_1.png","C_Dist_200_LN_6_LD_12_RN_7_RD_10_1.png","C_Dist_200_LN_6_LD_20_RN_11_RD_22_1.png","C_Dist_200_LN_7_LD_15_RN_18_RD_27_1.png","C_Dist_200_LN_9_LD_30_RN_13_RD_26_1.png"]],"dist200_I":[["I_Dist_200_LN_1_LD_2_RN_3_RD_10_0.png","I_Dist_200_LN_1_LD_3_RN_2_RD_15_0.png","I_Dist_200_LN_3_LD_4_RN_11_RD_20_0.png","I_Dist_200_LN_4_LD_5_RN_6_RD_10_0.png","I_Dist_200_LN_4_LD_6_RN_14_RD_30_0.png","I_Dist_200_LN_7_LD_10_RN_12_RD_24_0.png","I_Dist_200_LN_7_LD_10_RN_14_RD_28_0.png","I_Dist_200_LN_7_LD_10_RN_8_RD_16_0.png"],["I_Dist_200_LN_11_LD_20_RN_3_RD_4_1.png","I_Dist_200_LN_14_LD_30_RN_12_RD_18_1.png","I_Dist_200_LN_14_LD_30_RN_6_RD_9_1.png","I_Dist_200_LN_3_LD_10_RN_1_RD_2_1.png","I_Dist_200_LN_4_LD_30_RN_1_RD_3_1.png","I_Dist_200_LN_6_LD_20_RN_3_RD_6_1.png","I_Dist_200_LN_7_LD_15_RN_4_RD_6_1.png","I_Dist_200_LN_7_LD_15_RN_6_RD_9_1.png","I_Dist_200_LN_9_LD_15_RN_8_RD_10_1.png"]],"dist200_S":[["E_Dist_200_LN_3_LD_6_RN_3_RD_10_0.png"],["E_Dist_200_LN_3_LD_10_RN_3_RD_6_1.png"]],"dist300_C":[["C_Dist_300_LN_11_LD_22_RN_1_RD_5_0.png","C_Dist_300_LN_11_LD_22_RN_2_RD_10_0.png","C_Dist_300_LN_11_LD_22_RN_4_RD_20_0.png","C_Dist_300_LN_12_LD_24_RN_2_RD_10_0.png","C_Dist_300_LN_18_LD_20_RN_9_RD_15_0.png","C_Dist_300_LN_20_LD_25_RN_13_RD_26_0.png","C_Dist_300_LN_20_LD_25_RN_14_RD_28_0.png","C_Dist_300_LN_20_LD_25_RN_5_RD_10_0.png","C_Dist_300_LN_20_LD_25_RN_8_RD_16_0.png","C_Dist_300_LN_20_LD_25_RN_9_RD_18_0.png","C_Dist_300_LN_24_LD_30_RN_2_RD_4_0.png","C_Dist_300_LN_24_LD_30_RN_8_RD_16_0.png","C_Dist_300_LN_3_LD_6_RN_2_RD_10_0.png","C_Dist_300_LN_4_LD_10_RN_1_RD_10_0.png","C_Dist_300_LN_4_LD_5_RN_2_RD_4_0.png","C_Dist_300_LN_8_LD_16_RN_1_RD_5_0.png","C_Dist_300_LN_9_LD_10_RN_3_RD_5_0.png"],["C_Dist_300_LN_1_LD_20_RN_7_RD_20_1.png","C_Dist_300_LN_1_LD_3_RN_19_RD_30_1.png","C_Dist_300_LN_1_LD_30_RN_8_RD_24_1.png","C_Dist_300_LN_1_LD_5_RN_11_RD_22_1.png","C_Dist_300_LN_1_LD_5_RN_3_RD_6_1.png","C_Dist_300_LN_1_LD_5_RN_6_RD_12_1.png","C_Dist_300_LN_2_LD_10_RN_12_RD_24_1.png","C_Dist_300_LN_2_LD_20_RN_10_RD_25_1.png","C_Dist_300_LN_3_LD_12_RN_11_RD_20_1.png","C_Dist_300_LN_3_LD_6_RN_4_RD_5_1.png","C_Dist_300_LN_4_LD_20_RN_13_RD_26_1.png","C_Dist_300_LN_5_LD_25_RN_6_RD_12_1.png","C_Dist_300_LN_5_LD_25_RN_7_RD_14_1.png","C_Dist_300_LN_7_LD_14_RN_20_RD_25_1.png","C_Dist_300_LN_8_LD_15_RN_10_RD_12_1.png"]],"dist300_I":[["I_Dist_300_LN_1_LD_2_RN_2_RD_10_0.png","I_Dist_300_LN_1_LD_2_RN_3_RD_15_0.png","I_Dist_300_LN_2_LD_4_RN_6_RD_30_0.png","I_Dist_300_LN_3_LD_6_RN_4_RD_20_0.png","I_Dist_300_LN_4_LD_5_RN_6_RD_12_0.png","I_Dist_300_LN_4_LD_5_RN_8_RD_16_0.png","I_Dist_300_LN_7_LD_10_RN_8_RD_20_0.png","I_Dist_300_LN_8_LD_10_RN_14_RD_28_0.png","I_Dist_300_LN_8_LD_10_RN_9_RD_18_0.png"],["I_Dist_300_LN_13_LD_26_RN_12_RD_15_1.png","I_Dist_300_LN_4_LD_20_RN_2_RD_4_1.png"]],"dist300_S":[["E_Dist_300_LN_9_LD_12_RN_9_RD_20_0.png"],["E_Dist_300_LN_18_LD_30_RN_18_RD_20_1.png","E_Dist_300_LN_3_LD_10_RN_3_RD_5_1.png","E_Dist_300_LN_9_LD_20_RN_9_RD_12_1.png"]],"dist500_C":[["C_Dist_500_LN_10_LD_13_RN_7_RD_26_0.png","C_Dist_500_LN_10_LD_15_RN_4_RD_24_0.png","C_Dist_500_LN_12_LD_16_RN_3_RD_12_0.png","C_Dist_500_LN_12_LD_18_RN_4_RD_24_0.png","C_Dist_500_LN_15_LD_18_RN_5_RD_15_0.png","C_Dist_500_LN_15_LD_20_RN_1_RD_4_0.png","C_Dist_500_LN_18_LD_27_RN_1_RD_6_0.png","C_Dist_500_LN_20_LD_24_RN_1_RD_3_0.png","C_Dist_500_LN_20_LD_24_RN_3_RD_9_0.png","C_Dist_500_LN_20_LD_24_RN_7_RD_21_0.png","C_Dist_500_LN_20_LD_28_RN_3_RD_14_0.png","C_Dist_500_LN_21_LD_28_RN_6_RD_24_0.png","C_Dist_500_LN_22_LD_28_RN_2_RD_7_0.png","C_Dist_500_LN_25_LD_30_RN_9_RD_27_0.png","C_Dist_500_LN_4_LD_6_RN_1_RD_6_0.png","C_Dist_500_LN_5_LD_6_RN_2_RD_6_0.png","C_Dist_500_LN_6_LD_9_RN_1_RD_6_0.png","C_Dist_500_LN_7_LD_10_RN_1_RD_5_0.png","C_Dist_500_LN_8_LD_12_RN_1_RD_6_0.png","C_Dist_500_LN_8_LD_12_RN_4_RD_24_0.png"],["C_Dist_500_LN_1_LD_4_RN_12_RD_16_1.png","C_Dist_500_LN_1_LD_4_RN_9_RD_12_1.png","C_Dist_500_LN_1_LD_9_RN_11_RD_18_1.png","C_Dist_500_LN_10_LD_24_RN_22_RD_24_1.png","C_Dist_500_LN_2_LD_12_RN_10_RD_15_1.png","C_Dist_500_LN_2_LD_12_RN_12_RD_18_1.png","C_Dist_500_LN_2_LD_12_RN_4_RD_6_1.png","C_Dist_500_LN_2_LD_24_RN_7_RD_12_1.png","C_Dist_500_LN_2_LD_5_RN_18_RD_20_1.png","C_Dist_500_LN_2_LD_5_RN_9_RD_10_1.png","C_Dist_500_LN_2_LD_8_RN_12_RD_16_1.png","C_Dist_500_LN_2_LD_8_RN_21_RD_28_1.png","C_Dist_500_LN_3_LD_10_RN_4_RD_5_1.png","C_Dist_500_LN_3_LD_12_RN_15_RD_20_1.png","C_Dist_500_LN_3_LD_30_RN_6_RD_10_1.png","C_Dist_500_LN_3_LD_8_RN_14_RD_16_1.png","C_Dist_500_LN_4_LD_16_RN_15_RD_20_1.png","C_Dist_500_LN_4_LD_24_RN_12_RD_18_1.png","C_Dist_500_LN_5_LD_14_RN_6_RD_7_1.png","C_Dist_500_LN_7_LD_21_RN_20_RD_24_1.png","C_Dist_500_LN_7_LD_28_RN_12_RD_16_1.png","C_Dist_500_LN_7_LD_28_RN_9_RD_12_1.png","C_Dist_500_LN_9_LD_27_RN_20_RD_24_1.png"]],"dist500_I":[["I_Dist_500_LN_2_LD_3_RN_4_RD_24_0.png","I_Dist_500_LN_5_LD_6_RN_6_RD_18_0.png","I_Dist_500_LN_7_LD_8_RN_9_RD_24_0.png"],["I_Dist_500_LN_7_LD_21_RN_5_RD_6_1.png"]],"dist500_S":[["E_Dist_500_LN_6_LD_8_RN_6_RD_24_0.png"],["E_Dist_500_LN_2_LD_12_RN_2_RD_3_1.png","E_Dist_500_LN_6_LD_24_RN_6_RD_8_1.png"]]}},{"start_time":1549309297233,"click_time":1549309298806,"finger_time":1549309298403,"fix_duration":250,"trial":1,"RT":1170,"MT":403,"sideResp":2,"stimulus":[],"xmouse":[391.3330078125,391,390,390,388.6669921875,388,387.3330078125,386,386,386,386,386,386,386,386,386,386,384,383.3330078125,382.6669921875,382.6669921875,382.6669921875,382,382,381.3330078125,381.3330078125,380.6669921875,380,380,380,380,380,379.3330078125,379.3330078125,379.3330078125,378,378,377,378,378,378.6669921875,378.6669921875,378.6669921875,378.6669921875,378.6669921875,378.6669921875,378.6669921875,378.6669921875,378.6669921875,378.6669921875,380,380,380,380,380,380,380,380,398,404.6669921875,426.6669921875,442,476,512.6669921875,529.3330078125,537,551.3330078125,562,578,588,594.6669921875,606,612,639.3330078125,646,661.3330078125,668.6669921875,684,701.3330078125],"ymouse":[826.6669921875,826,825,824,823.3330078125,822,821.3330078125,820,820,820,820,820,820,820,820,820,820,818,818.6669921875,817.3330078125,816.6669921875,816.6669921875,816,816,816.6669921875,816.6669921875,816.6669921875,816,816,816,815,815,815.3330078125,815.3330078125,815.3330078125,816,816,816,815,815,815.3330078125,815.3330078125,815.3330078125,815.3330078125,815.3330078125,815.3330078125,815.3330078125,815.3330078125,815.3330078125,815.3330078125,806,806,806,806,806,806,806,806,762,750.6669921875,716.6669921875,696,651,592.6669921875,557.3330078125,540,506.6669921875,478,430,400,383.3330078125,348,330,255.3330078125,236,195.33299255371094,177.33299255371094,139,96.66699981689453],"timestamp_mouse":[10,34,49,68,88,108,128,150,168,188,208,227,248,268,288,308,328,349,368,388,408,428,448,468,488,508,528,549,568,588,608,628,648,668,688,708,728,748,769,788,809,828,848,868,888,908,928,948,968,988,1008,1028,1048,1068,1088,1108,1128,1148,1170,1188,1208,1228,1248,1268,1288,1309,1328,1348,1368,1388,1408,1428,1448,1469,1488,1508,1528,1548,1572],"xSR":350,"ySR":768,"xT1":30,"yT1":0,"xT2":670,"yT2":0,"toosoon":0,"cond_shown":"Equal","ratio_trial":100,"L_num":6,"L_den":12,"R_num":6,"R_den":10,"correct_side":2,"subjID":"10","gender":"No_gender","school":"No_school","age":"No_age"},{"start_time":1549309300539,"click_time":1549309302082,"finger_time":1549309301701,"fix_duration":255.16304625503483,"trial":2,"RT":1162,"MT":381,"sideResp":2,"stimulus":[],"xmouse":[394,394,394,394,394,394,394,394,394,394,394,394,394,394,394,394,394,394,394,394,394,394,394,394,394,394,394,394,394,394,392.6669921875,392.6669921875,392.6669921875,392.6669921875,392.6669921875,392.6669921875,392.6669921875,392.6669921875,392.6669921875,392.6669921875,392.6669921875,392.6669921875,392.6669921875,392.6669921875,393.3330078125,393,393.3330078125,394,394,394,394,394.6669921875,394,395.3330078125,398,399,400.6669921875,405,416,443,452.6669921875,472.6669921875,492,502.6669921875,538.6669921875,557.3330078125,574,582,595.3330078125,610,622.6669921875,628,642,648,662,665.3330078125,668,670.6669921875],"ymouse":[818,818,818,818,818,818,818,818,818,818,818,818,818,818,818,818,818,818,818,818,820,820,820,820,820,820,820,820,820,820,819.3330078125,819.3330078125,819.3330078125,819.3330078125,819.3330078125,819.3330078125,819.3330078125,819.3330078125,819.3330078125,819.3330078125,814.6669921875,814.6669921875,814.6669921875,814.6669921875,810.6669921875,810,809.3330078125,808,808,807,807,806.6669921875,806,805.3330078125,802,800,798.6669921875,790,765,706,685.3330078125,638.6669921875,588,562.6669921875,474.6669921875,419.3330078125,364,339,291.3330078125,230,190.66700744628906,172,136,120,76,68.66699981689453,57,50.66699981689453],"timestamp_mouse":[2,32,42,62,82,102,122,142,163,182,202,222,242,262,282,302,322,342,363,382,402,422,443,463,482,502,522,542,562,582,602,622,642,662,682,702,722,742,762,782,802,822,842,863,882,902,922,942,962,982,1002,1022,1042,1062,1082,1102,1122,1142,1162,1185,1202,1222,1242,1262,1284,1302,1322,1343,1362,1384,1403,1422,1442,1462,1484,1502,1522,1543],"xSR":350,"ySR":768,"xT1":30,"yT1":0,"xT2":670,"yT2":0,"toosoon":0,"cond_shown":"Equal","ratio_trial":300,"L_num":18,"L_den":30,"R_num":18,"R_den":20,"correct_side":2,"subjID":"10","gender":"No_gender","school":"No_school","age":"No_age"},{"start_time":1549309304607,"click_time":1549309307081,"finger_time":1549309306181,"fix_duration":723.5769122733498,"trial":3,"RT":1574,"MT":900,"sideResp":2,"stimulus":[],"xmouse":[404,404,404,404,404,404,404,404,404,404,404,404,404,404,404,404,404,404,404,404,404,404,404,404,404,404,404,404,404,404,404,404,404,404,404,404,404,404,404,404,404,404,404,404,404,404,404,404,404,404,404,404,404,404,404,404,404,404,404,404,404,404,404,404,404,404,404,400.6669921875,400.6669921875,398.6669921875,398,394,392.6669921875,390,388,385.3330078125,379.3330078125,373.3330078125,367,364,356.6669921875,352,338,334.6669921875,328,322,320,317.3330078125,316,316,316.6669921875,316.6669921875,316.6669921875,316.6669921875,316.6669921875,316.6669921875,316.6669921875,316.6669921875,324,324,324,324,324,324,324,324,324,324,337.3330078125,337.3330078125,337.3330078125,417.3330078125,544,572,624,645,713.3330078125,722,738,742,747.3330078125,748.6669921875,750,751.3330078125],"ymouse":[829,829,829,829,829,829,829,829,829,829,829,829,829,829,829,829,829,829,829,829,829,829,829,829,829,829,829,829,829,829,829,829,829,829,829,829,829,829,829,829,829,829,829,829,829,829,829,829,829,829,829,829,829,829,829,829,829,829,829,829,829,829,829,829,829,829,829,821.3330078125,821.3330078125,818.6669921875,818,811,809.3330078125,804,802,796.6669921875,784.6669921875,771.3330078125,756,749,733.3330078125,726,698,692.6669921875,680,670,666,660.6669921875,658,658,658.6669921875,658.6669921875,658.6669921875,658.6669921875,658.6669921875,658.6669921875,658.6669921875,658.6669921875,671,671,671,671,671,671,671,671,671,671,659.3330078125,659.3330078125,659.3330078125,581.3330078125,468,439,386,358,269.3330078125,252,220,204,176.66700744628906,150.66700744628906,119,99.33300018310547],"timestamp_mouse":[14,35,54,74,94,114,134,154,174,194,214,234,254,274,294,314,334,354,374,394,414,434,454,475,494,514,534,555,574,594,614,634,654,674,694,714,734,754,774,794,814,834,854,874,894,915,934,954,974,994,1014,1034,1054,1074,1094,1114,1134,1154,1174,1194,1214,1234,1254,1274,1294,1314,1334,1354,1374,1394,1414,1436,1454,1474,1494,1514,1535,1553,1574,1594,1614,1633,1654,1674,1694,1714,1734,1754,1774,1794,1814,1834,1854,1874,1894,1914,1934,1955,1974,1995,2014,2034,2054,2074,2094,2114,2134,2154,2175,2194,2214,2234,2255,2274,2294,2314,2337,2355,2375,2394,2414,2435,2454,2474],"xSR":350,"ySR":768,"xT1":30,"yT1":0,"xT2":670,"yT2":0,"toosoon":0,"cond_shown":"Incongruent","ratio_trial":300,"L_num":4,"L_den":20,"R_num":2,"R_den":4,"correct_side":2,"subjID":"10","gender":"No_gender","school":"No_school","age":"No_age"},{"start_time":1549309308814,"click_time":1549309310184,"finger_time":1549309309881,"fix_duration":431.5028736407215,"trial":4,"RT":1067,"MT":303,"sideResp":1,"stimulus":[],"xmouse":[392.6669921875,393.3330078125,393.3330078125,392.6669921875,392.6669921875,392.6669921875,392.6669921875,392.6669921875,392.6669921875,392.6669921875,392.6669921875,392.6669921875,388,388,388,388,388,388,388,388,388,379.3330078125,379.3330078125,380,380.6669921875,380,381,381,381,381,381,381,382,382,382,381,381.3330078125,382,382,381.3330078125,381.3330078125,381,380,380,380,380,380,380,373,371,366.6669921875,356,350,326,307.3330078125,284,274,254.66700744628906,230.66700744628906,214.66700744628906,206,187.33299255371094,178,150.66700744628906,144.66700744628906,132,118,112,96.66699981689453],"ymouse":[839.3330078125,839.3330078125,839.3330078125,838.6669921875,838.6669921875,838.6669921875,838.6669921875,838.6669921875,838.6669921875,838.6669921875,838.6669921875,838.6669921875,830,830,830,830,830,830,830,830,830,821.3330078125,821.3330078125,821,821.3330078125,822,822,822,822,822,822,822,820,819,818,818,817.3330078125,817,817,817.3330078125,817.3330078125,818,818,818,818,818,818,818,810,808,799.3330078125,782,769,724,692.6669921875,658,638,594.6669921875,512.6669921875,456.6669921875,432,378.6669921875,351,243.3330078125,219.33299255371094,178,140,124,84.66699981689453],"timestamp_mouse":[10,34,47,67,87,107,127,147,167,187,207,227,250,267,287,307,327,347,368,387,407,427,447,467,488,507,527,547,567,587,607,628,649,667,687,707,727,747,767,787,807,827,848,867,887,907,927,947,967,987,1007,1027,1047,1067,1087,1108,1127,1147,1167,1187,1207,1228,1247,1269,1287,1307,1327,1347,1370],"xSR":350,"ySR":768,"xT1":30,"yT1":0,"xT2":670,"yT2":0,"toosoon":0,"cond_shown":"Incongruent","ratio_trial":500,"L_num":7,"L_den":8,"R_num":9,"R_den":24,"correct_side":1,"subjID":"10","gender":"No_gender","school":"No_school","age":"No_age"},{"start_time":1549309311812,"click_time":1549309313842,"finger_time":1549309313502,"fix_duration":250,"trial":5,"RT":1690,"MT":340,"sideResp":2,"stimulus":[],"xmouse":[419.3330078125,419.3330078125,419.3330078125,419.3330078125,419.3330078125,419.3330078125,419.3330078125,419.3330078125,415,415,415,415,415,415,415,415,415,415,405.3330078125,405.3330078125,405.3330078125,405.3330078125,402,401,400,399.3330078125,398,398,397,396,394,394,393.3330078125,392.6669921875,392.6669921875,392,392.6669921875,393.3330078125,393,393.3330078125,394,394,394,394.6669921875,396,396.6669921875,397.3330078125,397.3330078125,398,398,398,398,398,398,398,398,398,398,398.6669921875,398.6669921875,398.6669921875,398,398,398,398,398,398,398,397.3330078125,397.3330078125,397.3330078125,397.3330078125,397.3330078125,397.3330078125,397.3330078125,397.3330078125,400.6669921875,401.3330078125,402.6669921875,404.6669921875,405,408,412,414,433,442,465.3330078125,478,505,540,553,560,572,590,628,641.3330078125,659.3330078125,671.3330078125,675.3330078125,682,695.3330078125,708],"ymouse":[824.6669921875,824.6669921875,824.6669921875,824.6669921875,824.6669921875,824.6669921875,824.6669921875,824.6669921875,822,822,822,822,822,822,822,822,822,822,814.6669921875,814.6669921875,814.6669921875,814.6669921875,812,812,810,809.3330078125,808,807,806,804,804,804,803.3330078125,803.3330078125,802.6669921875,802,801.3330078125,800.6669921875,800,799.3330078125,798,798,798,797.3330078125,797,796.6669921875,796.6669921875,797.3330078125,797,797,798,798,798,798,798,798,798,798,798.6669921875,798.6669921875,798.6669921875,798,798,798,798,798,798,798,798.6669921875,798.6669921875,798.6669921875,798.6669921875,798.6669921875,798.6669921875,798.6669921875,798.6669921875,795.3330078125,793.3330078125,791.3330078125,787.3330078125,786,782,777,774,744,728,688.6669921875,666,620,552,514,496,460,418,340,313.3330078125,267.3330078125,227.33299255371094,209.33299255371094,175,123.3330078125,88],"timestamp_mouse":[11,39,49,69,89,109,129,149,169,189,209,229,249,269,289,309,329,349,369,389,409,429,449,469,489,509,529,549,569,589,609,629,649,669,689,709,729,749,769,789,809,829,849,869,890,909,929,949,969,989,1009,1029,1049,1070,1089,1109,1129,1149,1169,1189,1209,1229,1249,1269,1289,1309,1329,1349,1369,1389,1409,1429,1449,1469,1491,1509,1529,1549,1569,1589,1609,1629,1649,1669,1690,1710,1729,1749,1769,1792,1809,1829,1849,1869,1892,1909,1929,1949,1969,1989,2009,2029],"xSR":350,"ySR":768,"xT1":30,"yT1":0,"xT2":670,"yT2":0,"toosoon":0,"cond_shown":"Congruent","ratio_trial":100,"L_num":7,"L_den":14,"R_num":15,"R_den":25,"correct_side":2,"subjID":"10","gender":"No_gender","school":"No_school","age":"No_age"},{"start_time":1549309315412,"click_time":1549309317802,"finger_time":1549309317422,"fix_duration":430.59154670284596,"trial":6,"RT":2010,"MT":380,"sideResp":1,"stimulus":[],"xmouse":[408,408,408,408,408,408,408,408,408,408,408,408,408,408,408,407.3330078125,406.6669921875,406,405.3330078125,405.3330078125,404.6669921875,404,404,404,404,403,403,403,403,402,402,402,402,402,402,402,402,402,402,401.3330078125,401.3330078125,401.3330078125,401.3330078125,401.3330078125,401.3330078125,401.3330078125,400,400,400,400,399.3330078125,399.3330078125,399.3330078125,399.3330078125,399.3330078125,399.3330078125,399.3330078125,399.3330078125,399.3330078125,399.3330078125,398,398,398,398,398,397.3330078125,396.6669921875,396.6669921875,396,396,396.6669921875,396.6669921875,396.6669921875,396.6669921875,396.6669921875,396.6669921875,396.6669921875,396.6669921875,396.6669921875,396.6669921875,394.6669921875,394.6669921875,394.6669921875,394.6669921875,394.6669921875,394.6669921875,394.6669921875,394.6669921875,394.6669921875,394.6669921875,394.6669921875,386,386,386,381,377.3330078125,372.6669921875,369,362,358,339.3330078125,334.6669921875,322.6669921875,315,300.6669921875,279,263,254,236,215,204,162,154,136,128,111,88.66699981689453,74,70,62],"ymouse":[822,822,822,822,822,822,822,822,822,822,826,826,826,826,826,826.6669921875,826.6669921875,826,826.6669921875,826.6669921875,826.6669921875,826,826,826,826,826,826,826,826,826,826,826,826,826,826,826,826,826,826,826.6669921875,826.6669921875,826.6669921875,826.6669921875,826.6669921875,826.6669921875,826.6669921875,827,826,826,826,826.6669921875,826.6669921875,826.6669921875,826.6669921875,826.6669921875,826.6669921875,826.6669921875,826.6669921875,826.6669921875,826.6669921875,828,828,828,828,828,829.3330078125,829.3330078125,829.3330078125,830,830,829.3330078125,829.3330078125,829.3330078125,829.3330078125,829.3330078125,829.3330078125,829.3330078125,829.3330078125,829.3330078125,829.3330078125,826.6669921875,826.6669921875,826.6669921875,826.6669921875,826.6669921875,826.6669921875,826.6669921875,826.6669921875,826.6669921875,826.6669921875,826.6669921875,816,816,816,808,801.3330078125,793.3330078125,788,776,768,737.3330078125,729.3330078125,707.3330078125,692,659.3330078125,608,570,550,509,468,446,362,340,294,271,230,172.66700744628906,138,122,95],"timestamp_mouse":[11,43,49,69,89,109,129,149,169,189,209,229,249,269,289,309,330,349,369,389,409,429,449,469,489,512,529,549,570,589,609,629,649,669,689,709,729,750,769,789,809,829,849,869,889,909,929,949,969,989,1009,1029,1049,1069,1089,1109,1129,1149,1169,1189,1209,1229,1249,1269,1289,1310,1329,1349,1369,1389,1412,1429,1450,1470,1489,1510,1529,1549,1569,1589,1610,1629,1649,1669,1689,1710,1730,1749,1769,1789,1809,1830,1849,1869,1889,1911,1929,1949,1969,1989,2010,2029,2049,2070,2089,2112,2129,2149,2169,2189,2209,2230,2249,2269,2289,2309,2331,2349,2369,2389],"xSR":350,"ySR":768,"xT1":30,"yT1":0,"xT2":670,"yT2":0,"toosoon":0,"cond_shown":"Equal","ratio_trial":100,"L_num":6,"L_den":12,"R_num":6,"R_den":10,"correct_side":2,"subjID":"10","gender":"No_gender","school":"No_school","age":"No_age"},{"start_time":1549309319432,"click_time":1549309322481,"finger_time":1549309322001,"fix_duration":250.68156986129054,"trial":7,"RT":2569,"MT":480,"sideResp":1,"stimulus":[],"xmouse":[366,366,366,366,366,366,366,366,366,366.6669921875,366.6669921875,366.6669921875,366.6669921875,366.6669921875,366.6669921875,366.6669921875,366.6669921875,366.6669921875,366.6669921875,368.6669921875,368.6669921875,368.6669921875,368.6669921875,368.6669921875,368.6669921875,368.6669921875,368.6669921875,368.6669921875,368.6669921875,369.3330078125,369.3330078125,369.3330078125,369.3330078125,369.3330078125,369.3330078125,369.3330078125,369.3330078125,369.3330078125,369.3330078125,368,368,368,368,368,368,368,368,368,368,366,366,365,365,365.3330078125,366,366,366,366,366,366,366,366,366,366.6669921875,366,366.6669921875,366,366.6669921875,367,367.3330078125,368,368,368,368,368,367,367,367,367,368,368,368,368,368,368,368,368,368,368,368,368.6669921875,368.6669921875,368,368.6669921875,368.6669921875,368.6669921875,368.6669921875,368.6669921875,368.6669921875,368.6669921875,368.6669921875,368.6669921875,368.6669921875,369.3330078125,369.3330078125,369.3330078125,369.3330078125,369.3330078125,369.3330078125,369.3330078125,369.3330078125,369.3330078125,369.3330078125,369.3330078125,369.3330078125,369.3330078125,369.3330078125,369.3330078125,369.3330078125,369.3330078125,369.3330078125,369,368,367,365.3330078125,360,354,351.3330078125,344.6669921875,341,331.3330078125,329.3330078125,323.3330078125,316.6669921875,313,302,290.6669921875,276.6669921875,270,256,233.33299255371094,216,208,188,172,164,139.33299255371094,126,114.66699981689453,109.33300018310547,103,96],"ymouse":[823,823,823,823,823,823,823,823,823,821.3330078125,821.3330078125,821.3330078125,821.3330078125,821.3330078125,821.3330078125,821.3330078125,821.3330078125,821.3330078125,821.3330078125,821.3330078125,821.3330078125,821.3330078125,821.3330078125,821.3330078125,821.3330078125,821.3330078125,821.3330078125,821.3330078125,821.3330078125,821.3330078125,821.3330078125,821.3330078125,821.3330078125,821.3330078125,821.3330078125,821.3330078125,821.3330078125,821.3330078125,821.3330078125,820,820,820,820,820,820,820,820,820,820,817,817,816,816,815.3330078125,814,814,813,812,812,812,811,810,810,810.6669921875,810,809.3330078125,808,807.3330078125,806,805.3330078125,804,804,804,804,804,804,804,804,804,804,803,802,802,802,802,802,802,802,802,802,801.3330078125,801.3330078125,802,802.6669921875,802.6669921875,802.6669921875,802.6669921875,802.6669921875,802.6669921875,802.6669921875,802.6669921875,802.6669921875,802.6669921875,803.3330078125,803.3330078125,803.3330078125,803.3330078125,803.3330078125,803.3330078125,803.3330078125,803.3330078125,803.3330078125,803.3330078125,804.6669921875,804.6669921875,804.6669921875,804.6669921875,804.6669921875,804.6669921875,804.6669921875,804.6669921875,798,796,794,790.6669921875,780,768,760.6669921875,747.3330078125,740,717.3330078125,710.6669921875,697.3330078125,681.3330078125,674,645,617.3330078125,580.6669921875,561,522,462.6669921875,420,398,350,306,289,231.33299255371094,197,162.66700744628906,145.33299255371094,112,76],"timestamp_mouse":[33,49,69,89,109,129,150,169,189,209,229,250,269,289,309,329,349,369,389,409,429,449,469,489,509,529,549,569,589,609,629,649,669,689,709,729,749,769,789,809,829,850,869,889,908,929,949,969,989,1010,1029,1049,1069,1090,1111,1129,1149,1169,1189,1209,1229,1251,1269,1289,1309,1330,1350,1369,1389,1409,1429,1449,1469,1489,1509,1529,1549,1570,1590,1609,1629,1649,1669,1689,1709,1729,1749,1769,1789,1809,1830,1849,1869,1889,1909,1929,1949,1969,1989,2009,2029,2049,2069,2089,2109,2129,2149,2169,2189,2209,2229,2249,2269,2289,2309,2329,2349,2369,2389,2409,2430,2449,2469,2489,2509,2529,2549,2569,2589,2609,2630,2650,2670,2689,2709,2731,2750,2769,2789,2809,2831,2849,2869,2889,2909,2929,2950,2969,2989,3009,3029,3049],"xSR":350,"ySR":768,"xT1":30,"yT1":0,"xT2":670,"yT2":0,"toosoon":0,"cond_shown":"Equal","ratio_trial":200,"L_num":3,"L_den":6,"R_num":3,"R_den":10,"correct_side":1,"subjID":"10","gender":"No_gender","school":"No_school","age":"No_age"},{"start_time":1549309325003,"click_time":1549309326803,"finger_time":1549309326441,"fix_duration":299.2394296402705,"trial":8,"RT":1438,"MT":362,"sideResp":2,"stimulus":[],"xmouse":[382,382,382.6669921875,382,382.6669921875,382.6669921875,382.6669921875,383,384,384,384,384,384,381.3330078125,380.6669921875,380,380,380,380,380.6669921875,381.3330078125,382,382.6669921875,383.3330078125,383.3330078125,383,382,382,383.3330078125,383.3330078125,383.3330078125,384,384,384,384,384,384,384,385.3330078125,385.3330078125,385.3330078125,385.3330078125,385.3330078125,386,386,386,386,386,386,386,386,386,386,386,388.6669921875,388.6669921875,388.6669921875,388.6669921875,388.6669921875,388.6669921875,388.6669921875,388.6669921875,388.6669921875,388,388.6669921875,388,389,394,404,407.3330078125,414.6669921875,425.3330078125,432,461.3330078125,482,499.3330078125,508,526.6669921875,537.3330078125,575.3330078125,582,599,606,624,652,666.6669921875,680,684.6669921875,689,693.3330078125],"ymouse":[838,838,838.6669921875,838,837.3330078125,837.3330078125,837.3330078125,838,838,838,838,838,838,835.3330078125,834.6669921875,834,834,834,833,833.3330078125,833.3330078125,833,833.3330078125,832.6669921875,832.6669921875,832,832,832,832.6669921875,832.6669921875,832.6669921875,833,833,833,833,833,833,833,831.3330078125,831.3330078125,831.3330078125,831.3330078125,831.3330078125,831,832,832,832,832,832,832,832,832,832,832,833.3330078125,833.3330078125,833.3330078125,833.3330078125,833.3330078125,833.3330078125,833.3330078125,833.3330078125,833.3330078125,828,827.3330078125,826,824,814,798,792.6669921875,780.6669921875,765.3330078125,756,713.3330078125,680,645.3330078125,627,587.3330078125,565.3330078125,471.3330078125,450,404,378,328,251,201.33299255371094,156,135.33299255371094,100,61.33300018310547],"timestamp_mouse":[33,38,58,78,98,118,138,158,178,198,218,238,258,278,298,318,338,359,378,398,418,438,458,478,498,518,538,558,580,598,618,638,658,678,698,718,738,758,780,798,818,838,858,878,898,918,938,959,978,997,1018,1038,1058,1078,1098,1118,1138,1158,1178,1198,1218,1238,1258,1280,1298,1318,1338,1358,1380,1398,1418,1438,1458,1480,1498,1518,1538,1558,1578,1600,1618,1638,1658,1679,1699,1718,1738,1758,1778,1800],"xSR":350,"ySR":768,"xT1":30,"yT1":0,"xT2":670,"yT2":0,"toosoon":0,"cond_shown":"Equal","ratio_trial":300,"L_num":9,"L_den":20,"R_num":9,"R_den":12,"correct_side":2,"subjID":"10","gender":"No_gender","school":"No_school","age":"No_age"},{"start_time":1549309331203,"click_time":1549309333662,"finger_time":1549309332181,"fix_duration":1301.235032704992,"trial":9,"RT":978,"MT":1481,"sideResp":1,"stimulus":[],"xmouse":[410.6669921875,410.6669921875,410.6669921875,410.6669921875,410.6669921875,410.6669921875,410.6669921875,410.6669921875,410.6669921875,410.6669921875,410.6669921875,410.6669921875,410.6669921875,410.6669921875,410.6669921875,411.3330078125,411.3330078125,411.3330078125,411.3330078125,411.3330078125,411.3330078125,411.3330078125,411.3330078125,411.3330078125,411.3330078125,411.3330078125,411.3330078125,411.3330078125,410.6669921875,410,410,410.6669921875,410.6669921875,410.6669921875,410,410.6669921875,410.6669921875,410,410.6669921875,410,406,404,400.6669921875,398.6669921875,394,390.6669921875,384,382,378.6669921875,375.3330078125,374,374,374,375.3330078125,376,376,377,377,377,377,377,377,377,377,377,377,381,381,381,381,381,381,381,381,381,381,382,382,382,382,382,382,382,382,382,382,382.6669921875,382.6669921875,382,382,382,382,382,381,380,380,379.3330078125,378,377,376,374.6669921875,370.6669921875,366.6669921875,364.6669921875,360,357.3330078125,341,336,323.3330078125,310,303,280.6669921875,265.3330078125,258,244.66700744628906,230,209,193,186.66700744628906,170,164,134,126.66699981689453],"ymouse":[822.6669921875,822.6669921875,822.6669921875,822.6669921875,822.6669921875,820.6669921875,820.6669921875,820.6669921875,820.6669921875,820.6669921875,820.6669921875,820.6669921875,820.6669921875,820.6669921875,820.6669921875,820.6669921875,820.6669921875,820.6669921875,820.6669921875,820.6669921875,820.6669921875,820.6669921875,820.6669921875,820.6669921875,820.6669921875,817.3330078125,817.3330078125,817.3330078125,816.6669921875,816,816,815.3330078125,814.6669921875,814.6669921875,814,813.3330078125,812.6669921875,812,811.3330078125,810,807,806,802.6669921875,801.3330078125,796,788.6669921875,774,770,760.6669921875,752.6669921875,750,744,744,743.3330078125,743,744,744,744,744,744,744,744,744,744,744,744,744,744,744,744,744,744,744,744,744,744,744,744,744,744,742,742,741,741,741,741,741.3330078125,741.3330078125,740,740,740,739,739,738,738,736,734.6669921875,734,732,731,728.6669921875,722.6669921875,712.6669921875,705.3330078125,683,666.6669921875,598,580,544.6669921875,509,490,434.6669921875,401.3330078125,384,347.3330078125,309,248,210,192.66700744628906,164,150,104,92.66699981689453],"timestamp_mouse":[37,40,58,78,98,120,138,158,178,198,218,238,258,278,298,320,338,358,378,398,418,438,458,478,498,521,538,559,578,598,618,638,658,678,698,718,738,758,779,798,820,839,859,878,898,918,938,958,977,998,1019,1041,1058,1078,1098,1118,1138,1158,1178,1198,1218,1238,1258,1278,1298,1318,1338,1358,1378,1398,1419,1438,1459,1478,1498,1518,1538,1558,1578,1598,1618,1638,1658,1678,1699,1718,1738,1758,1778,1798,1818,1838,1858,1878,1898,1918,1941,1959,1978,1998,2018,2040,2057,2078,2098,2118,2141,2158,2178,2198,2218,2241,2258,2278,2298,2318,2338,2359,2378,2398,2418,2439,2458],"xSR":350,"ySR":768,"xT1":30,"yT1":0,"xT2":670,"yT2":0,"toosoon":0,"cond_shown":"Incongruent","ratio_trial":100,"L_num":9,"L_den":10,"R_num":20,"R_den":25,"correct_side":1,"subjID":"10","gender":"No_gender","school":"No_school","age":"No_age"},{"start_time":1549309347070,"click_time":1549309349681,"finger_time":1549309348461,"fix_duration":468.6763011569051,"trial":10,"RT":1391,"MT":1220,"sideResp":1,"stimulus":[],"xmouse":[409.3330078125,409.3330078125,409.3330078125,409.3330078125,409.3330078125,409.3330078125,409.3330078125,409.3330078125,409,409,409,409,409,409,409,409,409,409,404,403,402.6669921875,402,400,400,399,399,399,399,399,399,399,399,399,396.6669921875,396.6669921875,396,396,396,396,396,396,394.6669921875,394.6669921875,392.6669921875,392,392,391,391,391,391,391,391,391,391,391,391,388.6669921875,388.6669921875,388.6669921875,388.6669921875,388.6669921875,388.6669921875,389.3330078125,389.3330078125,389.3330078125,389.3330078125,397.3330078125,402,412,424.6669921875,434,456.6669921875,466,508,519.3330078125,534,542,556,578,594.6669921875,602,615.3330078125,627,632,655.3330078125,660.6669921875,670,678,682,690,691.3330078125,693,693.3330078125,694.6669921875,695.3330078125,695.3330078125,695.3330078125,694.6669921875,694.6669921875,693.3330078125,693.3330078125,693.3330078125,693.3330078125,693.3330078125,693.3330078125,691.3330078125,691.3330078125,691.3330078125,691.3330078125,691.3330078125,691.3330078125,691.3330078125,691.3330078125,691.3330078125,584,564,525.3330078125,504.6669921875,458,376,324,285,285,285,206,192.66700744628906,168.66700744628906,151.33299255371094,142.66700744628906,123.3330078125,112.66699981689453],"ymouse":[842.6669921875,842.6669921875,842.6669921875,842.6669921875,842.6669921875,842.6669921875,842.6669921875,842.6669921875,842,842,842,842,842,842,842,842,842,842,836,836,835.3330078125,834,834,832,832,832,832,832,832,832,832,832,832,828.6669921875,828.6669921875,828,828,828,828,828,828,829.3330078125,829.3330078125,829.3330078125,828,828,828,828,828,828,828,828,828,828,828,828,820.6669921875,820.6669921875,820.6669921875,820.6669921875,820.6669921875,820.6669921875,813.3330078125,813.3330078125,813.3330078125,813.3330078125,795.3330078125,788,773,756.6669921875,744,714.6669921875,700,634,616.6669921875,586,572,542,498,463.3330078125,446,415.3330078125,384,368,307.3330078125,292.6669921875,264,239,226,193,180.66700744628906,172,167.33299255371094,159.33299255371094,150.66700744628906,148.66700744628906,145.33299255371094,142.66700744628906,142.66700744628906,140.66700744628906,140.66700744628906,140.66700744628906,140.66700744628906,140.66700744628906,140.66700744628906,140.66700744628906,140.66700744628906,140.66700744628906,140.66700744628906,140.66700744628906,140.66700744628906,140.66700744628906,140.66700744628906,140.66700744628906,190,194,198.66700744628906,198.66700744628906,198,200,200,198,198,198,172,167.33299255371094,155.33299255371094,143.33299255371094,137.33299255371094,115.3330078125,97.33300018310547],"timestamp_mouse":[11,38,51,71,91,111,131,151,171,191,212,231,251,271,291,311,331,351,372,391,411,431,451,473,491,511,531,551,571,591,611,631,651,674,691,711,731,751,771,791,811,830,851,873,893,911,931,952,971,991,1011,1031,1051,1071,1091,1111,1131,1151,1171,1191,1211,1231,1252,1271,1291,1311,1331,1351,1372,1391,1411,1432,1451,1473,1491,1511,1531,1551,1572,1591,1611,1631,1651,1671,1693,1711,1731,1751,1771,1792,1811,1831,1851,1871,1893,1911,1931,1951,1971,1995,2011,2031,2051,2072,2091,2111,2131,2151,2171,2191,2211,2231,2251,2271,2294,2311,2331,2351,2372,2392,2411,2431,2451,2471,2492,2511,2531,2551,2571,2591,2611],"xSR":350,"ySR":768,"xT1":30,"yT1":0,"xT2":670,"yT2":0,"toosoon":0,"cond_shown":"Congruent","ratio_trial":200,"L_num":3,"L_den":12,"R_num":9,"R_den":20,"correct_side":2,"subjID":"10","gender":"No_gender","school":"No_school","age":"No_age"},{"start_time":1549309352445,"click_time":1549309353922,"finger_time":1549309353441,"fix_duration":722.1230947176547,"trial":11,"RT":996,"MT":481,"sideResp":1,"stimulus":[],"xmouse":[400,400,400,400,400,400,400,400,400,400,400,400,400,400,400,400,400,400,400,400,400,400,400,400,400,400,400,400,400,400,400,400,400,400,400,400,400,400,400,400,400,400,400,397,397,394,394,376.6669921875,366,359.3330078125,346,328.6669921875,314.6669921875,302,297.3330078125,287.3330078125,272,262,256.6669921875,244,238,226,204.66700744628906,189.33299255371094,180.66700744628906,166,150,129.33299255371094,122,110,100,95,86.66699981689453,81.33300018310547],"ymouse":[824,824,824,824,824,824,824,824,824,824,824,824,824,824,824,824,824,824,824,824,824,824,824,824,824,824,824,824,824,824,824,824,824,824,824,824,824,824,824,824,824,824,824,816,816,814,814,795.3330078125,772,757.3330078125,732,706.6669921875,682.6669921875,658,645.3330078125,619.3330078125,579,550,531.3330078125,500,484,452,403.3330078125,368.6669921875,351.3330078125,316,282,227.33299255371094,208,176,149,138,111.33300018310547,93.33300018310547],"timestamp_mouse":[16,36,56,75,96,116,136,156,176,196,216,236,256,276,297,316,336,356,377,396,416,436,456,476,496,516,536,556,576,596,616,636,656,676,696,716,736,756,776,796,816,836,856,876,896,916,936,956,976,996,1016,1037,1056,1076,1096,1117,1136,1156,1176,1196,1216,1237,1258,1276,1296,1316,1336,1356,1376,1396,1416,1436,1457,1476],"xSR":350,"ySR":768,"xT1":30,"yT1":0,"xT2":670,"yT2":0,"toosoon":0,"cond_shown":"Congruent","ratio_trial":200,"L_num":12,"L_den":20,"R_num":6,"R_den":15,"correct_side":1,"subjID":"10","gender":"No_gender","school":"No_school","age":"No_age"},{"start_time":1549309357121,"click_time":1549309359442,"finger_time":1549309357961,"fix_duration":530.5595056964481,"trial":12,"RT":840,"MT":1481,"sideResp":2,"stimulus":[],"xmouse":[400.6669921875,400.6669921875,400.6669921875,400.6669921875,399.3330078125,399.3330078125,399.3330078125,399.3330078125,399.3330078125,399.3330078125,399.3330078125,399.3330078125,399.3330078125,399.3330078125,396,396,396,396,396,396,396,396,396,396,397.3330078125,397.3330078125,397.3330078125,397.3330078125,397.3330078125,397.3330078125,397.3330078125,397.3330078125,397.3330078125,397.3330078125,400,399.3330078125,398.6669921875,396.6669921875,394,390,376,376,356,348,345.3330078125,335,330,320.6669921875,316.6669921875,304.6669921875,286.6669921875,273,260,253,240,221.33299255371094,209,204.66700744628906,196,194,186,184,184,183.33299255371094,184,184.66700744628906,184.66700744628906,184.66700744628906,184.66700744628906,184.66700744628906,184.66700744628906,184.66700744628906,184.66700744628906,184.66700744628906,184.66700744628906,194,194,194,211,211,324,378,402,444,477.3330078125,503,510,520,530.6669921875,535,546,553.3330078125,558,560,564,568,570,570.6669921875,572,578,595,601,614.6669921875,628.6669921875,635.3330078125,647.3330078125,663,663,663,663,663,663,663,663,663,663,747.3330078125],"ymouse":[833.3330078125,833.3330078125,833.3330078125,833.3330078125,831.3330078125,831.3330078125,831.3330078125,831.3330078125,831.3330078125,831.3330078125,831.3330078125,831.3330078125,831.3330078125,831.3330078125,828,828,828,828,828,828,828,828,828,828,826.6669921875,826.6669921875,826.6669921875,826.6669921875,826.6669921875,826.6669921875,826.6669921875,826.6669921875,826.6669921875,826.6669921875,826,824.6669921875,822.6669921875,821.3330078125,820,816,801,801,760,722,700.6669921875,610,594,568.6669921875,557.3330078125,532.6669921875,493.3330078125,464,433,418,390,351.3330078125,330,322.6669921875,312,310,304,304,303,302.6669921875,302,302.6669921875,302.6669921875,302.6669921875,302.6669921875,302.6669921875,302.6669921875,302.6669921875,302.6669921875,302.6669921875,302.6669921875,306,306,306,304,304,257,232,220,195,175.33299255371094,152,144,124,101.33300018310547,92,70,57.33300018310547,52,50,46,41,39,39.33300018310547,38,36,32,30,27.33300018310547,25.33300018310547,24.66699981689453,24.66699981689453,26,26,26,26,26,26,26,26,26,26,36.66699981689453],"timestamp_mouse":[6,25,48,60,80,100,120,140,160,180,200,220,240,260,280,300,320,340,360,381,400,420,440,461,480,500,520,540,560,580,600,620,640,660,680,700,720,740,761,780,800,820,840,860,880,900,920,940,960,980,1000,1020,1040,1060,1080,1100,1120,1140,1159,1180,1203,1220,1240,1260,1280,1302,1321,1340,1360,1380,1400,1420,1440,1460,1480,1502,1520,1540,1560,1580,1603,1621,1640,1661,1680,1700,1720,1740,1760,1780,1801,1820,1841,1860,1880,1902,1920,1940,1960,1980,2002,2020,2040,2060,2080,2100,2122,2140,2160,2180,2200,2220,2240,2260,2280,2300,2321],"xSR":350,"ySR":768,"xT1":30,"yT1":0,"xT2":670,"yT2":0,"toosoon":0,"cond_shown":"Congruent","ratio_trial":200,"L_num":21,"L_den":30,"R_num":2,"R_den":4,"correct_side":1,"subjID":"10","gender":"No_gender","school":"No_school","age":"No_age"},{"start_time":1549309362484,"click_time":1549309364464,"finger_time":1549309363981,"fix_duration":1100.457317520238,"trial":13,"RT":1497,"MT":483,"sideResp":1,"stimulus":[],"xmouse":[402,402,402,402,401.3330078125,401.3330078125,401.3330078125,401.3330078125,401,400,400,400,400,400,400,400,400,400,400,400,400,400.6669921875,400.6669921875,401.3330078125,401.3330078125,401.3330078125,401.3330078125,401.3330078125,401.3330078125,401.3330078125,401.3330078125,401.3330078125,402,402,402,402,402,402,402,402,402,402,402,404,404,404,404,404,404,404,404,404,404,404.6669921875,404.6669921875,404.6669921875,404.6669921875,404.6669921875,404.6669921875,404.6669921875,404.6669921875,404.6669921875,404.6669921875,405,405,405,405,405,405,405,405,405,392.6669921875,379.3330078125,375.3330078125,364,350.6669921875,344,317.3330078125,296.6669921875,275,262.6669921875,242,216,202,197,186,179.33299255371094,154.66700744628906,148,137.33299255371094,132.66700744628906,121.3330078125,108,101.33300018310547,95.33300018310547,92,89,83.33300018310547],"ymouse":[837,837,837,837,836.6669921875,836.6669921875,836.6669921875,836.6669921875,836,836,836,836,836,836,835,835,835,835,835,835,835,835.3330078125,835.3330078125,835.3330078125,835.3330078125,835.3330078125,835.3330078125,835.3330078125,835.3330078125,835.3330078125,835.3330078125,835.3330078125,836,836,836,836,836,836,836,836,836,836,836,836,836,836,836,836,836,836,836,836,836,834.6669921875,834.6669921875,834.6669921875,834.6669921875,834.6669921875,834.6669921875,834.6669921875,834.6669921875,834.6669921875,834.6669921875,834,834,834,834,834,834,834,834,834,817.3330078125,774.6669921875,756.6669921875,722,693.3330078125,678,627.3330078125,586.6669921875,546,522.6669921875,480,421,389,374,345,330.6669921875,267.3330078125,251,221.33299255371094,207.33299255371094,182.66700744628906,150,134.66700744628906,121.3330078125,116,108,95.33300018310547],"timestamp_mouse":[17,43,57,78,97,117,137,157,177,197,217,237,258,277,297,317,337,357,377,396,417,437,457,477,497,517,537,557,577,597,617,637,659,677,697,717,737,758,777,797,817,837,857,877,897,917,938,957,977,997,1017,1037,1057,1077,1097,1117,1137,1157,1177,1197,1217,1237,1257,1277,1297,1317,1337,1357,1377,1397,1417,1437,1457,1478,1497,1517,1537,1557,1578,1597,1617,1637,1657,1677,1697,1717,1737,1757,1779,1797,1817,1837,1857,1880,1897,1917,1937,1957,1980],"xSR":350,"ySR":768,"xT1":30,"yT1":0,"xT2":670,"yT2":0,"toosoon":0,"cond_shown":"Incongruent","ratio_trial":500,"L_num":7,"L_den":8,"R_num":9,"R_den":24,"correct_side":1,"subjID":"10","gender":"No_gender","school":"No_school","age":"No_age"},{"start_time":1549309368577,"click_time":1549309370141,"finger_time":1549309369821,"fix_duration":1194.699770114125,"trial":14,"RT":1244,"MT":320,"sideResp":2,"stimulus":[],"xmouse":[397,399.3330078125,399.3330078125,402.6669921875,402.6669921875,402.6669921875,402.6669921875,402.6669921875,402.6669921875,402.6669921875,402.6669921875,402.6669921875,402.6669921875,399.3330078125,399.3330078125,399.3330078125,399.3330078125,399.3330078125,399.3330078125,399.3330078125,399.3330078125,399.3330078125,399.3330078125,396,396,396,396,396,396,396,396,396,396,396,396,396,396,396,396,396,396,396,396,395,395,395,395,395,395,395,395,395,400.6669921875,401.3330078125,401,402,402.6669921875,403,402.6669921875,402,403,415.3330078125,427.3330078125,450,457,464.6669921875,486.6669921875,510,536.6669921875,549.3330078125,572,600.6669921875,620.6669921875,631.3330078125,654,664,687.3330078125,693,694],"ymouse":[828,828.6669921875,828.6669921875,828.6669921875,828.6669921875,828.6669921875,828.6669921875,828.6669921875,828.6669921875,828.6669921875,828.6669921875,828.6669921875,828.6669921875,828.6669921875,828.6669921875,828.6669921875,828.6669921875,828.6669921875,828.6669921875,828.6669921875,828.6669921875,828.6669921875,828.6669921875,827,828,828,828,828,828,828,828,828,828,829,829,829,829,829,829,829,829,829,829,828,828,828,828,828,828,828,828,828,826.6669921875,826.6669921875,826,824,822.6669921875,822,819.3330078125,816,814,785.3330078125,764.6669921875,718,702,677.3330078125,634.6669921875,598,554.6669921875,533.3330078125,490,421.3330078125,372.6669921875,345.3330078125,288,259,178.66700744628906,134,98],"timestamp_mouse":[14,41,44,64,84,104,123,144,165,184,204,224,244,264,284,305,324,344,364,384,404,424,444,464,484,505,524,544,564,584,604,624,644,664,684,704,724,744,764,784,804,824,844,864,884,904,924,944,964,984,1004,1024,1044,1064,1084,1104,1124,1144,1164,1184,1204,1225,1244,1264,1284,1304,1327,1344,1364,1384,1404,1427,1445,1464,1484,1504,1526,1544,1564],"xSR":350,"ySR":768,"xT1":30,"yT1":0,"xT2":670,"yT2":0,"toosoon":0,"cond_shown":"Congruent","ratio_trial":100,"L_num":4,"L_den":8,"R_num":6,"R_den":10,"correct_side":2,"subjID":"10","gender":"No_gender","school":"No_school","age":"No_age"},{"start_time":1549309379437,"click_time":1549309381441,"finger_time":1549309380941,"fix_duration":1235.8286639777116,"trial":15,"RT":1504,"MT":500,"sideResp":1,"stimulus":[],"xmouse":[412.6669921875,412.6669921875,412.6669921875,412.6669921875,415.3330078125,415.3330078125,415.3330078125,417.3330078125,418,418,420,421,424.6669921875,424.6669921875,426.6669921875,426.6669921875,428.6669921875,430,430,430,430,430,430,430,430,430,430,429.3330078125,429.3330078125,429.3330078125,429.3330078125,429.3330078125,429.3330078125,429.3330078125,429.3330078125,429.3330078125,429.3330078125,422.6669921875,422.6669921875,422.6669921875,422.6669921875,422.6669921875,422.6669921875,422.6669921875,422.6669921875,422.6669921875,422.6669921875,424,424,424,424,424,424,422,422,422,421.3330078125,420,419,418.6669921875,418.6669921875,416,416,416,416,416,416,412,411.3330078125,411.3330078125,410.6669921875,409.3330078125,404,401,395.3330078125,387.3330078125,384,372.6669921875,363.3330078125,350,343,330,310,295.3330078125,286,269.3330078125,259,230,222,206,184,174,141.33299255371094,124,108,104,97.33300018310547,90,87,86,84],"ymouse":[820.6669921875,820.6669921875,820.6669921875,820.6669921875,818.6669921875,818.6669921875,818.6669921875,817.3330078125,818,818,818,818,819.3330078125,819.3330078125,819.3330078125,819.3330078125,818.6669921875,818,817,817,817,817,815,815,814,815,815,815.3330078125,815.3330078125,815.3330078125,815.3330078125,815.3330078125,815.3330078125,815.3330078125,815.3330078125,815.3330078125,815.3330078125,822.6669921875,822.6669921875,822.6669921875,822.6669921875,822.6669921875,822.6669921875,822.6669921875,822.6669921875,822.6669921875,822.6669921875,816,816,816,816,816,816,814,814,814,815.3330078125,816,816,816.6669921875,816.6669921875,816,816,816,816,816,816,810,808.6669921875,806.6669921875,802.6669921875,800.6669921875,786,780,768.6669921875,753.3330078125,746,723.3330078125,699.3330078125,664,646,612,562,524.6669921875,504,464.6669921875,444,374,359,328,296,278,226.66700744628906,196,172,162,144.66700744628906,123,112,105,94],"timestamp_mouse":[4,30,44,64,84,104,125,144,164,184,204,224,246,264,284,304,324,345,364,384,404,424,444,464,484,504,524,545,564,584,605,624,645,666,684,704,725,745,764,784,804,824,845,864,885,904,924,946,964,984,1004,1024,1044,1064,1084,1104,1124,1145,1164,1184,1204,1225,1244,1264,1284,1304,1324,1344,1364,1384,1404,1424,1444,1464,1484,1504,1524,1544,1564,1585,1604,1624,1647,1664,1684,1704,1724,1748,1764,1784,1804,1824,1847,1864,1884,1904,1924,1945,1965,1984,2004],"xSR":350,"ySR":768,"xT1":30,"yT1":0,"xT2":670,"yT2":0,"toosoon":0,"cond_shown":"Congruent","ratio_trial":300,"L_num":8,"L_den":16,"R_num":1,"R_den":5,"correct_side":1,"subjID":"10","gender":"No_gender","school":"No_school","age":"No_age"},{"start_time":1549309385237,"click_time":1549309386961,"finger_time":1549309386361,"fix_duration":1454.2890708665352,"trial":16,"RT":1124,"MT":600,"sideResp":2,"stimulus":[],"xmouse":[402,402,402,402,402,402,402,403.3330078125,404,404,404,404,404,404,404,404,403,403,403.3330078125,403.3330078125,403.3330078125,403.3330078125,403.3330078125,403.3330078125,403.3330078125,403.3330078125,405.3330078125,405.3330078125,405.3330078125,405.3330078125,405.3330078125,405.3330078125,404.6669921875,404.6669921875,404.6669921875,404.6669921875,404,404,404,404,404,404,404,404,404,404,404,404,404,404,404,404,404,404,404,404,441.3330078125,447,456,470,483.3330078125,495.3330078125,501,513.3330078125,532,547,555.3330078125,572,580,604.6669921875,609.3330078125,618,627.3330078125,630.6669921875,641.3330078125,647.3330078125,652.6669921875,654.6669921875,658,662,664,665,668,671,675.3330078125,676.6669921875,679.3330078125],"ymouse":[825,825,825,825,825,825,825,824.6669921875,825,825,825,824,824,824,824,824,824,824,823.3330078125,823.3330078125,823.3330078125,823.3330078125,823.3330078125,823.3330078125,823.3330078125,823.3330078125,823.3330078125,823.3330078125,823.3330078125,823.3330078125,823.3330078125,823.3330078125,823.3330078125,823.3330078125,823.3330078125,823.3330078125,824,824,824,824,824,824,824,824,824,824,820,820,820,820,820,820,820,820,820,820,709.3330078125,698,678,637,602.6669921875,562.6669921875,544,505.3330078125,448,408,387.3330078125,346,325,255.3330078125,241.3330078125,215,189.33299255371094,177.33299255371094,150.66700744628906,139.33299255371094,130.66700744628906,126.6669921875,120,114,112,112,110,108,103.33300018310547,100.66699981689453,95.33300018310547],"timestamp_mouse":[5,34,45,64,84,104,124,144,165,185,204,224,244,265,284,304,323,344,364,385,404,424,444,464,484,504,524,544,564,584,604,624,644,664,685,704,724,745,764,784,804,824,844,864,884,904,924,944,964,984,1004,1024,1044,1064,1085,1104,1124,1144,1164,1184,1204,1224,1245,1264,1284,1304,1324,1344,1365,1384,1404,1424,1444,1464,1487,1505,1524,1544,1564,1589,1604,1624,1644,1664,1686,1704,1724],"xSR":350,"ySR":768,"xT1":30,"yT1":0,"xT2":670,"yT2":0,"toosoon":0,"cond_shown":"Equal","ratio_trial":300,"L_num":9,"L_den":20,"R_num":9,"R_den":12,"correct_side":2,"subjID":"10","gender":"No_gender","school":"No_school","age":"No_age"},{"start_time":1549309392232,"click_time":1549309393621,"finger_time":1549309393161,"fix_duration":1409.2573461750728,"trial":17,"RT":929,"MT":460,"sideResp":2,"stimulus":[],"xmouse":[389.3330078125,389.3330078125,389.3330078125,389.3330078125,389.3330078125,389.3330078125,389.3330078125,389,389,389,389,389.3330078125,389.3330078125,389.3330078125,389.3330078125,389.3330078125,389.3330078125,388.6669921875,388.6669921875,388.6669921875,388.6669921875,388.6669921875,388.6669921875,388,388,388,388,388,388,388,388,388,388,388,387.3330078125,387,386,385.3330078125,386,386,386.6669921875,386.6669921875,386.6669921875,387.3330078125,392,398,412.6669921875,417.3330078125,427.3330078125,438,444,475,484,500.6669921875,512,533,562,579.3330078125,592,623,652,679.3330078125,683.3330078125,688.6669921875,690.6669921875,691.3330078125,693,695.3330078125,698,699.3330078125],"ymouse":[833.3330078125,833.3330078125,833.3330078125,833.3330078125,832.6669921875,832.6669921875,832.6669921875,832,832,832,832,831.3330078125,831.3330078125,831.3330078125,831.3330078125,831.3330078125,830.6669921875,830.6669921875,830.6669921875,830.6669921875,830.6669921875,830.6669921875,830.6669921875,830,830,830,830,830,830,830,830,830,829,829,828.6669921875,828,825,824.6669921875,823,822,820.6669921875,816.6669921875,812.6669921875,807.3330078125,794,772,717.3330078125,700.6669921875,669.3330078125,638,622,554,534,496.6669921875,477,436,378,342.6669921875,321,282,248,213.33299255371094,204.66700744628906,188.66700744628906,176.66700744628906,171.33299255371094,140,123.3330078125,107,99.33300018310547],"timestamp_mouse":[10,30,49,69,89,110,129,149,169,189,209,229,249,269,289,309,329,349,369,389,409,428,449,469,489,509,529,549,569,589,609,629,649,669,689,709,730,749,769,789,809,830,849,869,889,909,929,949,969,989,1009,1031,1049,1070,1089,1109,1130,1150,1169,1190,1209,1230,1249,1269,1289,1309,1331,1350,1369,1389],"xSR":350,"ySR":768,"xT1":30,"yT1":0,"xT2":670,"yT2":0,"toosoon":0,"cond_shown":"Equal","ratio_trial":500,"L_num":6,"L_den":24,"R_num":6,"R_den":8,"correct_side":2,"subjID":"10","gender":"No_gender","school":"No_school","age":"No_age"},{"start_time":1549309396352,"click_time":1549309397922,"finger_time":1549309397161,"fix_duration":1189.3988209840338,"trial":18,"RT":809,"MT":761,"sideResp":2,"stimulus":[],"xmouse":[409.3330078125,409.3330078125,409.3330078125,409.3330078125,409.3330078125,409.3330078125,409,409,409,410,410,410,410,410,410,410,410,410,410,410,410,410,410,410,410.6669921875,410.6669921875,411.3330078125,411,412,412.6669921875,412.6669921875,412.6669921875,412.6669921875,412,412,412,412.6669921875,414,415.3330078125,416,418,418,422.6669921875,423.3330078125,424,428,436,439,446,452.6669921875,456,462,472.6669921875,478,480,483,484,488,489.3330078125,492,493.3330078125,497.3330078125,504,510.6669921875,515,524,532.6669921875,549.3330078125,563,569,581.3330078125,586,610.6669921875,619.3330078125,634,642,656,666.6669921875,671.3330078125],"ymouse":[813.3330078125,813.3330078125,813.3330078125,813.3330078125,813.3330078125,813.3330078125,814,814,814,814,814,814,814,814,814,814,814,814,814,813,813,813,813,812,811.3330078125,810.6669921875,810.6669921875,810,808,807.3330078125,804.6669921875,799.3330078125,797.3330078125,793,788,786,778.6669921875,774,770.6669921875,768,766,766,762.6669921875,761.3330078125,758,751,733,726,709,690.6669921875,681,656,610.6669921875,590,582,564,556,528,521.3330078125,506,497.3330078125,480.6669921875,451,426.6669921875,410,376,347.3330078125,298.6669921875,264,248,219.33299255371094,206,161.33299255371094,151.33299255371094,132,124,110,98.66699981689453,93.33300018310547],"timestamp_mouse":[9,31,49,69,89,109,129,149,169,189,209,229,249,269,289,309,329,349,369,389,409,429,449,470,488,509,529,549,569,589,609,631,649,669,689,709,732,749,769,789,809,829,850,868,889,909,934,950,969,989,1009,1029,1050,1069,1089,1109,1129,1149,1169,1189,1209,1229,1250,1269,1290,1309,1329,1349,1369,1389,1409,1429,1450,1469,1489,1509,1529,1550,1569],"xSR":350,"ySR":768,"xT1":30,"yT1":0,"xT2":670,"yT2":0,"toosoon":0,"cond_shown":"Incongruent","ratio_trial":100,"L_num":2,"L_den":4,"R_num":6,"R_den":15,"correct_side":1,"subjID":"10","gender":"No_gender","school":"No_school","age":"No_age"},{"start_time":1549309400239,"click_time":1549309402262,"finger_time":1549309402262,"fix_duration":556.1886733525105,"trial":19,"RT":2023,"MT":0,"sideResp":1,"stimulus":[],"xmouse":[384,384,384,384,384,384,384,384,384,384,384,384,384,384,384,384,384,384,384,384,384,384,384,384,384,384,384,384,384,384,384,384,384,384,384,384,384,384,384,384,384,384,384,384,384,384,384,384,384,384,384,384,384,384,384,384,384,384,384,384,384,384,384,384,384,384,384,384,384,384,384,384,384,384,384,384,384,384,384,384,384,384,384,384,384,384,384,384,384,384,384,384,384,384,384,384,384,384,384,384,72],"ymouse":[826,826,826,826,826,826,826,826,826,826,826,826,826,826,826,826,826,826,826,826,826,826,826,826,826,826,826,826,826,826,826,826,826,826,826,826,826,826,826,826,826,826,826,826,826,826,826,826,826,826,826,826,826,826,826,826,826,826,826,826,826,826,826,826,826,826,826,826,826,826,826,826,826,826,826,826,826,826,826,826,826,826,826,826,826,826,826,826,826,826,826,826,826,826,826,826,826,826,826,826,21],"timestamp_mouse":[2,42,63,82,102,122,142,162,182,203,222,243,262,282,302,322,342,362,382,402,423,442,462,482,503,522,542,562,582,602,622,642,663,682,702,722,742,762,782,802,822,842,862,882,902,922,942,963,982,1002,1022,1042,1062,1082,1102,1122,1142,1162,1182,1203,1222,1242,1262,1282,1302,1322,1342,1362,1382,1403,1422,1442,1462,1482,1502,1522,1542,1562,1582,1602,1622,1642,1662,1682,1702,1722,1742,1762,1782,1802,1822,1842,1862,1882,1902,1922,1942,1961,1982,2002,2023],"xSR":350,"ySR":768,"xT1":30,"yT1":0,"xT2":670,"yT2":0,"toosoon":0,"cond_shown":"Equal","ratio_trial":200,"L_num":3,"L_den":6,"R_num":3,"R_den":10,"correct_side":1,"subjID":"10","gender":"No_gender","school":"No_school","age":"No_age"},{"start_time":1549309405055,"click_time":1549309406561,"finger_time":1549309406561,"fix_duration":691.2155693039525,"trial":20,"RT":1506,"MT":0,"sideResp":2,"stimulus":[],"xmouse":[399,399,399,399,399,399,399,399,399,399,399,399,399,399,399,399,399,399,399,399,399,399,399,399,399,399,399,399,399,399,399,399,399,399,399,399,399,399,399,399,399,399,399,399,399,399,399,399,399,399,399,399,399,399,399,399,399,399,399,399,399,399,399,399,399,399,399,399,399,399,399,399,399,399,701],"ymouse":[822,822,822,822,822,822,822,822,822,822,822,822,822,822,822,822,822,822,822,822,822,822,822,822,822,822,822,822,822,822,822,822,822,822,822,822,822,822,822,822,822,822,822,822,822,822,822,822,822,822,822,822,822,822,822,822,822,822,822,822,822,822,822,822,822,822,822,822,822,822,822,822,822,822,52],"timestamp_mouse":[11,48,66,86,107,126,147,166,186,206,226,246,266,286,306,326,346,367,387,407,426,446,466,486,506,526,546,566,586,606,626,646,666,686,706,726,746,767,786,806,826,847,866,886,907,927,946,966,986,1006,1027,1046,1066,1086,1107,1126,1146,1166,1186,1206,1226,1246,1267,1286,1306,1326,1346,1366,1386,1406,1426,1446,1466,1486,1506],"xSR":350,"ySR":768,"xT1":30,"yT1":0,"xT2":670,"yT2":0,"toosoon":0,"cond_shown":"Congruent","ratio_trial":500,"L_num":2,"L_den":5,"R_num":18,"R_den":20,"correct_side":2,"subjID":"10","gender":"No_gender","school":"No_school","age":"No_age"},{"start_time":1549309409092,"click_time":1549309410401,"finger_time":1549309410401,"fix_duration":448.9717811903895,"trial":21,"RT":1309,"MT":0,"sideResp":1,"stimulus":[],"xmouse":[400,400,400,400,400,400,400,400,400,400,400,400,400,400,400,400,400,400,400,400,400,400,400,400,400,400,400,400,400,400,400,400,400,400,400,400,400,400,400,400,400,400,400,400,400,400,400,400,400,400,400,400,400,400,400,400,400,400,400,400,400,400,400,400,94],"ymouse":[830,830,830,830,830,830,830,830,830,830,830,830,830,830,830,830,830,830,830,830,830,830,830,830,830,830,830,830,830,830,830,830,830,830,830,830,830,830,830,830,830,830,830,830,830,830,830,830,830,830,830,830,830,830,830,830,830,830,830,830,830,830,830,830,68],"timestamp_mouse":[12,49,69,89,109,129,149,170,189,209,229,249,269,289,309,329,349,369,389,409,429,449,469,490,509,530,549,570,589,610,629,649,669,690,709,729,749,769,789,809,829,849,869,890,909,929,950,969,989,1009,1029,1049,1069,1089,1109,1129,1149,1169,1189,1209,1229,1250,1269,1289,1309],"xSR":350,"ySR":768,"xT1":30,"yT1":0,"xT2":670,"yT2":0,"toosoon":0,"cond_shown":"Congruent","ratio_trial":100,"L_num":9,"L_den":15,"R_num":8,"R_den":16,"correct_side":1,"subjID":"10","gender":"No_gender","school":"No_school","age":"No_age"},{"start_time":1549309413123,"click_time":1549309415561,"finger_time":1549309415001,"fix_duration":500.1529820941951,"trial":22,"RT":1878,"MT":560,"sideResp":2,"stimulus":[],"xmouse":[428,428,428,428,428,428,428,428,428,428,428,428,428,428,428,428,428,428,428,428,428,428,428,428,428,428,428,428,428,428,428,428,428,428,428,428,428,428,428,428,428,428,428,428,428,428,428,428,428,428,428,428,428,428,412,412,412,412,412,412,412,412,412,412,412,412,412,412,412,412,412,412,412,412,412,422,422,422,422,422,422,422,422,422,422,422,423,423,426,435,442.6669921875,448.6669921875,464,486.6669921875,500,506,518,524,546,552,563.3330078125,577.3330078125,586.6669921875,620.6669921875,640,656,662,678.6669921875,678.6669921875,680,682,684.6669921875,686.6669921875,696,699,704,708,710,714.6669921875,716,719.3330078125],"ymouse":[792,792,792,792,792,792,792,792,792,792,792,792,792,792,792,792,792,792,792,792,792,792,792,792,792,792,792,792,792,792,792,792,792,792,792,792,792,792,792,792,792,792,792,792,792,792,792,792,792,792,792,792,792,792,834,834,834,834,834,834,834,834,834,834,834,834,834,834,834,834,834,834,834,834,834,839,839,839,839,839,839,839,839,839,839,839,826,826,819,798,780.6669921875,768.6669921875,737,692.6669921875,662,646,614,596,526,506,468.6669921875,429.3330078125,408.6669921875,345.3330078125,306,273,258,204.66700744628906,204.66700744628906,192,187,176.66700744628906,168.66700744628906,144,140,132,124,121,110.66699981689453,104,96.66699981689453],"timestamp_mouse":[45,59,78,98,118,138,158,178,198,218,238,258,278,298,318,338,358,378,398,418,438,458,478,498,518,539,558,578,598,618,638,658,678,698,718,739,758,778,798,818,839,858,878,898,919,938,958,978,998,1018,1038,1058,1077,1098,1118,1138,1158,1178,1198,1218,1238,1258,1278,1298,1318,1338,1358,1378,1398,1418,1438,1458,1478,1498,1518,1538,1558,1578,1597,1618,1637,1658,1678,1698,1718,1738,1759,1777,1799,1818,1838,1858,1878,1898,1918,1938,1959,1978,1999,2018,2039,2058,2078,2099,2118,2142,2158,2195,2198,2218,2238,2258,2278,2300,2319,2338,2359,2378,2401,2418,2438],"xSR":350,"ySR":768,"xT1":30,"yT1":0,"xT2":670,"yT2":0,"toosoon":0,"cond_shown":"Incongruent","ratio_trial":500,"L_num":7,"L_den":21,"R_num":5,"R_den":6,"correct_side":2,"subjID":"10","gender":"No_gender","school":"No_school","age":"No_age"},{"start_time":1549309418214,"click_time":1549309420042,"finger_time":1549309419661,"fix_duration":250,"trial":23,"RT":1447,"MT":381,"sideResp":2,"stimulus":[],"xmouse":[404,404,404,404,404,404,404,404,402.6669921875,402.6669921875,402.6669921875,402.6669921875,402.6669921875,402.6669921875,401.3330078125,402,402,402,402,402.6669921875,402.6669921875,402.6669921875,402.6669921875,402,402,402.6669921875,402,402,402,402,402,403,403.3330078125,404,404,405.3330078125,405.3330078125,405,405.3330078125,404.6669921875,404,404,404,404,404,404,404,404,404,404,402,402,402,402,402,402,402,402,402,402,405,405.3330078125,404.6669921875,404.6669921875,404.6669921875,404.6669921875,404.6669921875,402.6669921875,402.6669921875,404.6669921875,415.3330078125,428,437.3330078125,459.3330078125,480,490.6669921875,519,540,558.6669921875,566,588,602,620.6669921875,630.6669921875,651.3330078125,659.3330078125,683.3330078125,686.6669921875,692.6669921875,700,702],"ymouse":[833,833,833,833,833,833,833,833,836.6669921875,836.6669921875,836.6669921875,836.6669921875,836.6669921875,836.6669921875,837.3330078125,838,838,838,838,838.6669921875,838.6669921875,839.3330078125,839.3330078125,840,840,839.3330078125,840,840,840,840,840,842,843.3330078125,844,845,848.6669921875,849.3330078125,850,850.6669921875,850.6669921875,850,850,850,850,850,850,850,850,850,850,846,846,846,846,846,846,846,846,846,846,852,851.3330078125,849.3330078125,849.3330078125,849.3330078125,849.3330078125,849.3330078125,825.3330078125,820.6669921875,810.6669921875,786.6669921875,756,734.6669921875,686.6669921875,650,633.3330078125,582,542,502.6669921875,485,431,396,356.6669921875,335.3330078125,291.3330078125,270.6669921875,199.33299255371094,182.66700744628906,148.66700744628906,114,98],"timestamp_mouse":[32,47,67,87,107,127,147,167,187,207,227,247,267,287,307,328,347,367,387,407,427,447,467,487,507,527,548,567,587,607,627,647,667,687,707,729,747,767,787,807,827,847,867,887,907,927,947,967,987,1007,1027,1047,1067,1087,1107,1129,1147,1167,1187,1207,1227,1248,1267,1287,1307,1328,1347,1367,1387,1407,1429,1447,1468,1487,1507,1527,1547,1568,1587,1608,1630,1647,1667,1687,1707,1727,1748,1767,1787,1807,1827],"xSR":350,"ySR":768,"xT1":30,"yT1":0,"xT2":670,"yT2":0,"toosoon":0,"cond_shown":"Incongruent","ratio_trial":100,"L_num":8,"L_den":16,"R_num":6,"R_den":10,"correct_side":2,"subjID":"10","gender":"No_gender","school":"No_school","age":"No_age"},{"start_time":1549309422997,"click_time":1549309424442,"finger_time":1549309424021,"fix_duration":694.8085602474393,"trial":24,"RT":1024,"MT":421,"sideResp":2,"stimulus":[],"xmouse":[392,392,392,391,391.3330078125,391.3330078125,391,391.3330078125,390.6669921875,390,389.3330078125,389.3330078125,388.6669921875,387.3330078125,386,386,385,384,384,382,382.6669921875,382,382,382,382,382,382,382,382,382,382,382,382,382,382,382,382,382,382,382,382,378,378,378,378,378,378,378,378,379.3330078125,382,386.6669921875,404,434,489.3330078125,523,537.3330078125,564.6669921875,576.6669921875,616,622.6669921875,635.3330078125,640,649,661.3330078125,670,674,683,689,699,701.3330078125,704,708],"ymouse":[796,796,796,796,794.6669921875,794.6669921875,794,793.3330078125,793.3330078125,793,792.6669921875,792.6669921875,792.6669921875,792.6669921875,792,792,792,792,792,792,792.6669921875,792,792,792,792,792,792,792,792,792,792,800,800,800,800,800,800,800,800,800,800,798,798,798,798,798,798,798,798,782.6669921875,774,767.3330078125,744,706,625.3330078125,580,561.3330078125,526.6669921875,510.6669921875,448,435.3330078125,404.6669921875,390,360,312.6669921875,280,264,230,196,146,130.66700744628906,102,78],"timestamp_mouse":[12,34,44,64,84,104,124,144,164,184,204,224,244,264,283,304,324,344,364,386,404,424,444,464,484,504,524,544,564,586,604,624,644,664,684,704,724,744,764,785,804,824,844,864,885,904,924,944,964,986,1004,1024,1044,1064,1085,1104,1124,1144,1164,1186,1204,1224,1244,1264,1286,1304,1324,1344,1364,1385,1404,1424,1444],"xSR":350,"ySR":768,"xT1":30,"yT1":0,"xT2":670,"yT2":0,"toosoon":0,"cond_shown":"Congruent","ratio_trial":300,"L_num":2,"L_den":10,"R_num":12,"R_den":24,"correct_side":2,"subjID":"10","gender":"No_gender","school":"No_school","age":"No_age"},{"start_time":1549309428178,"click_time":1549309430122,"finger_time":1549309429281,"fix_duration":905.3075502796623,"trial":25,"RT":1103,"MT":841,"sideResp":1,"stimulus":[],"xmouse":[400,399.3330078125,398,398,396,396,395.3330078125,394,393.3330078125,392.6669921875,392,391,390.6669921875,390,389.3330078125,389,388.6669921875,388,387.3330078125,386.6669921875,386,386,386,386,386,386,386,382,382,381.3330078125,380.6669921875,380.6669921875,380.6669921875,380.6669921875,378,377,377.3330078125,376,375.3330078125,374.6669921875,374.6669921875,374.6669921875,373.3330078125,373.3330078125,372.6669921875,372,372,372.6669921875,372,372,374,374,374.6669921875,374.6669921875,375,374.6669921875,374.6669921875,373,373,373,370,370,366.6669921875,366.6669921875,364.6669921875,364.6669921875,362,362,357,355.3330078125,354,352,347,343.3330078125,340,335,328.6669921875,308,300.6669921875,284.6669921875,269.3330078125,262.6669921875,242,230,216.66700744628906,212.66700744628906,201.33299255371094,181,170.66700744628906,164,153.33299255371094,148,134.66700744628906,118,106.66699981689453,96.66699981689453,93.33300018310547,86],"ymouse":[827,826.6669921875,825,824,824,823,823.3330078125,822,821.3330078125,820.6669921875,820,820,819.3330078125,818,818.6669921875,818,817.3330078125,817,816.6669921875,816.6669921875,816,816,816,816,816,816,816,812,812,811.3330078125,810.6669921875,810.6669921875,810.6669921875,810.6669921875,806,806,805.3330078125,802,801.3330078125,799.3330078125,798.6669921875,797.3330078125,795.3330078125,793.3330078125,792.6669921875,790,788,785.3330078125,784,784,778,778,772.6669921875,772.6669921875,768,767.3330078125,767.3330078125,766,766,766,766,766,767.3330078125,767.3330078125,766.6669921875,766.6669921875,766,766,762,759.3330078125,757,754,748,743.3330078125,740,732,722.6669921875,688,672.6669921875,641.3330078125,610.6669921875,594.6669921875,542,508,472.6669921875,457.3330078125,423.3330078125,372,338.6669921875,322,290.6669921875,274,242.6669921875,194,164.66700744628906,136.66700744628906,122.6669921875,97],"timestamp_mouse":[4,31,43,63,83,103,123,145,163,183,203,223,243,263,283,303,323,343,363,383,404,423,443,463,483,503,523,545,563,583,605,635,644,663,683,703,723,743,763,783,803,823,843,863,883,903,923,944,963,983,1003,1023,1045,1063,1084,1103,1123,1147,1163,1183,1203,1223,1245,1263,1283,1303,1323,1343,1363,1383,1403,1423,1443,1463,1483,1503,1523,1544,1563,1583,1603,1623,1646,1663,1684,1703,1723,1747,1763,1783,1803,1823,1843,1863,1883,1903,1923,1943],"xSR":350,"ySR":768,"xT1":30,"yT1":0,"xT2":670,"yT2":0,"toosoon":0,"cond_shown":"Congruent","ratio_trial":300,"L_num":11,"L_den":22,"R_num":2,"R_den":10,"correct_side":1,"subjID":"10","gender":"No_gender","school":"No_school","age":"No_age"},{"start_time":1549309435414,"click_time":1549309437121,"finger_time":1549309436721,"fix_duration":1470.0751135201795,"trial":26,"RT":1307,"MT":400,"sideResp":2,"stimulus":[],"xmouse":[403.3330078125,402.6669921875,402,402,401,401.3330078125,400.6669921875,400.6669921875,400.6669921875,400,400,400,399.3330078125,399.3330078125,398,398,398,397.3330078125,397.3330078125,396,396,395.3330078125,395.3330078125,394.6669921875,394.6669921875,394,394,393.3330078125,393.3330078125,392,392.6669921875,392.6669921875,392.6669921875,392,392.6669921875,392,393.3330078125,393.3330078125,393.3330078125,393.3330078125,393.3330078125,393.3330078125,393.3330078125,393.3330078125,393.3330078125,393.3330078125,393.3330078125,393.3330078125,395.3330078125,395.3330078125,395.3330078125,395.3330078125,395.3330078125,395.3330078125,395.3330078125,395.3330078125,395.3330078125,395.3330078125,402.6669921875,404,404,404,404,412,418,422.6669921875,431.3330078125,437.3330078125,472.6669921875,481,502,512.6669921875,535.3330078125,563.3330078125,579,595.3330078125,603.3330078125,623.3330078125,650.6669921875,664,671.3330078125,682,685.3330078125,695,697,703.3330078125],"ymouse":[837.3330078125,837.3330078125,836,836,836,835.3330078125,835.3330078125,834.6669921875,834.6669921875,834,833,833,832.6669921875,832.6669921875,832,832,832,831.3330078125,830.6669921875,830,830,829.3330078125,829.3330078125,828.6669921875,828.6669921875,828,827,826.6669921875,826.6669921875,826,825.3330078125,825.3330078125,824.6669921875,824,822.6669921875,822,821.3330078125,820.6669921875,820.6669921875,820.6669921875,820.6669921875,820.6669921875,820.6669921875,820.6669921875,820.6669921875,820.6669921875,820.6669921875,820.6669921875,813.3330078125,813.3330078125,813.3330078125,813.3330078125,813.3330078125,813.3330078125,813.3330078125,813.3330078125,813.3330078125,813.3330078125,795.3330078125,793,793,793,793,778,770,763.3330078125,750.6669921875,742.6669921875,685.3330078125,670,634,614.6669921875,572.6669921875,511.3330078125,470,430.6669921875,410.6669921875,366.6669921875,297.3330078125,254,232.66700744628906,195,178.66700744628906,124,112,92.66699981689453],"timestamp_mouse":[11,33,48,67,87,107,127,147,167,187,207,227,248,267,287,307,328,349,367,387,407,427,447,467,487,508,527,547,567,589,607,628,647,667,687,707,727,749,767,787,807,827,847,867,887,907,927,947,967,987,1007,1027,1047,1067,1087,1107,1127,1147,1167,1187,1207,1227,1247,1267,1287,1307,1327,1347,1367,1387,1407,1427,1447,1468,1487,1507,1527,1547,1570,1587,1607,1627,1647,1668,1687,1707],"xSR":350,"ySR":768,"xT1":30,"yT1":0,"xT2":670,"yT2":0,"toosoon":0,"cond_shown":"Congruent","ratio_trial":300,"L_num":1,"L_den":5,"R_num":6,"R_den":12,"correct_side":2,"subjID":"10","gender":"No_gender","school":"No_school","age":"No_age"},{"start_time":1549309440814,"click_time":1549309442501,"finger_time":1549309442081,"fix_duration":531.87936595251,"trial":27,"RT":1267,"MT":420,"sideResp":2,"stimulus":[],"xmouse":[408,408.6669921875,408.6669921875,409,408.6669921875,408.6669921875,408,408,408,408,408,408,408,408,408,408,406,406,406,406,406,406,406,406,406,406,404,404,404,404,404,404,404,404,404,404,404,404,404,404,404,404,404,404,404,404,405.3330078125,405.3330078125,405.3330078125,405.3330078125,405.3330078125,405.3330078125,405.3330078125,405.3330078125,405.3330078125,405.3330078125,402,402,402,402,402,408,415,428,455,474.6669921875,484.6669921875,506.6669921875,518,563.3330078125,572,587,594,606.6669921875,627.3330078125,642.6669921875,656,664,675.3330078125,680,691,694,697.3330078125,699.3330078125,701.3330078125],"ymouse":[824,824.6669921875,824.6669921875,828,829.3330078125,828.6669921875,828,828,828,828,828,828,828,828,828,828,826,826,826,826,826,826,826,826,826,826,824,824,824,824,824,824,824,824,824,824,822,822,822,822,822,822,822,822,822,822,817.3330078125,817.3330078125,817.3330078125,817.3330078125,817.3330078125,817.3330078125,817.3330078125,817.3330078125,817.3330078125,817.3330078125,816,816,816,816,816,806,788,758,710,678.6669921875,663.3330078125,629.3330078125,610,528.6669921875,506,462,440,396.6669921875,336.6669921875,299.3330078125,262,244,208.66700744628906,192,138,127,111.33300018310547,106.66699981689453,97.33300018310547],"timestamp_mouse":[10,41,47,68,87,107,127,147,167,187,207,227,247,267,287,307,327,347,367,387,407,427,447,467,488,507,527,547,567,587,607,627,647,667,687,707,727,747,767,788,807,827,847,867,887,907,928,947,967,987,1007,1027,1047,1067,1087,1107,1127,1147,1168,1187,1207,1227,1247,1267,1289,1308,1329,1347,1367,1389,1408,1427,1447,1467,1489,1507,1527,1547,1567,1587,1609,1627,1647,1667,1687],"xSR":350,"ySR":768,"xT1":30,"yT1":0,"xT2":670,"yT2":0,"toosoon":0,"cond_shown":"Congruent","ratio_trial":100,"L_num":6,"L_den":20,"R_num":5,"R_den":25,"correct_side":1,"subjID":"10","gender":"No_gender","school":"No_school","age":"No_age"},{"start_time":1549309445138,"click_time":1549309447621,"finger_time":1549309446841,"fix_duration":949.5229538963889,"trial":28,"RT":1703,"MT":780,"sideResp":2,"stimulus":[],"xmouse":[381.3330078125,381.3330078125,381.3330078125,381.3330078125,381.3330078125,380,380,380,380,380,380,380,380,380,380,386,386.6669921875,386,386.6669921875,387.3330078125,387,387.3330078125,388,388,388,388,388.6669921875,388,388,388,388,388,388,388,388.6669921875,389.3330078125,390,390,390.6669921875,391.3330078125,392.6669921875,393.3330078125,394,394.6669921875,394,395.3330078125,396,396,396.6669921875,396.6669921875,396,396,396.6669921875,396.6669921875,396.6669921875,396,396,396,396,396,396,396,396,396,396,396,396,396,396,396,396,396,396,396,396,396,396.6669921875,396,396,396,396,396,396,404,418.6669921875,421,421.3330078125,419.3330078125,416,413,408,405.3330078125,403,402,398,388,376,370.6669921875,356.6669921875,343,336,314,300,285,277,264,251,247.33299255371094,244.66700744628906,241.33299255371094,240,240,240,243.33299255371094,244.66700744628906,292,316,369.3330078125,397.3330078125,456.6669921875,549.3330078125,607,656,679.3330078125,712],"ymouse":[793.3330078125,793.3330078125,793.3330078125,793.3330078125,793.3330078125,794,794,794,794,794,794,794,794,794,794,798,799.3330078125,800,800.6669921875,800.6669921875,802,802.6669921875,802,803,804,804,805.3330078125,806,807,808,810,813,816,818,820.6669921875,825.3330078125,827,828,830.6669921875,832.6669921875,834.6669921875,835.3330078125,836,837.3330078125,838,838.6669921875,839,840,840.6669921875,841.3330078125,842,842,842.6669921875,842.6669921875,842.6669921875,842,842,842,843,843,843,844,844,844,844,844,844,844,844,844,844,844,844,844,844,844,843.3330078125,842,842,842,842,842,842,802,769.3330078125,744,739.3330078125,730.6669921875,719,712,688,672.6669921875,650,634,598,544,508,490.6669921875,458.6669921875,428,413,372,346,320,308,284,260,252.6669921875,249.3330078125,242.6669921875,238,234,234,233.33299255371094,233.33299255371094,230,228,222.66700744628906,218.66700744628906,206.66700744628906,181.33299255371094,158,130,115.3330078125,90],"timestamp_mouse":[6,26,49,63,83,105,123,143,163,184,203,223,243,263,283,303,323,343,363,384,403,423,443,463,483,503,523,543,563,583,604,623,643,663,683,703,723,743,763,784,803,823,843,863,883,904,923,943,963,983,1003,1023,1043,1063,1083,1103,1123,1143,1163,1183,1203,1223,1244,1263,1283,1304,1323,1343,1363,1383,1403,1423,1443,1463,1483,1503,1523,1543,1563,1583,1603,1623,1644,1663,1683,1703,1723,1742,1763,1783,1806,1823,1843,1863,1883,1904,1924,1943,1963,1983,2003,2023,2043,2063,2083,2103,2123,2144,2163,2183,2203,2224,2243,2263,2283,2305,2324,2344,2363,2383,2404,2424,24