[{"start_time":1549309631700,"click_time":1549309632746,"finger_time":1549309631738,"fix_duration":868.1876322207113,"trial":0,"RT":38,"MT":1008,"sideResp":1,"stimulus":"img/750/equaldotsize/L/14_Ratio_750_L_8_R_6.png","xmouse":[406,406,406,406,406,406,406,406,406,405.3333435058594,405.3333435058594,405.3333435058594,405.3333435058594,405.3333435058594,405.3333435058594,405.3333435058594,405.3333435058594,405.3333435058594,405.3333435058594,405.3333435058594,405.3333435058594,405.3333435058594,405.3333435058594,405.3333435058594,405.3333435058594,405.3333435058594,405.3333435058594,405.3333435058594,405.3333435058594,405.3333435058594,405.3333435058594,405.3333435058594,405.3333435058594,405.3333435058594,405.3333435058594,405.3333435058594,405.3333435058594,405.3333435058594,405.3333435058594,406,406,406,390.66668701171875,370,346,300,284,248.6666717529297,212.6666717529297,164,149.33334350585938,119.33333587646484],"ymouse":[600.6666870117188,600.6666870117188,600.6666870117188,600.6666870117188,600.6666870117188,600.6666870117188,600.6666870117188,600.6666870117188,600.6666870117188,596.6666870117188,596.6666870117188,596.6666870117188,596.6666870117188,596.6666870117188,596.6666870117188,596.6666870117188,596.6666870117188,596.6666870117188,596.6666870117188,594.6666870117188,594.6666870117188,594.6666870117188,594.6666870117188,594.6666870117188,594.6666870117188,594.6666870117188,594.6666870117188,594.6666870117188,594.6666870117188,595.3333740234375,595.3333740234375,595.3333740234375,595.3333740234375,595.3333740234375,595.3333740234375,595.3333740234375,595.3333740234375,595.3333740234375,595.3333740234375,592.6666870117188,592.6666870117188,592.6666870117188,552.6666870117188,512.6666870117188,468.66668701171875,396.66668701171875,369.3333435058594,312,252,166,140,90],"timestamp_mouse":[38,46,66,86,106,126,146,166,186,206,226,246,266,287,306,326,346,366,386,407,426,446,465,486,506,526,546,566,586,606,626,646,666,686,706,726,746,766,786,808,826,846,866,886,906,928,946,966,986,1007,1026,1046],"xSR":350,"ySR":508.79999999999995,"xT1":30,"yT1":0,"xT2":670,"yT2":0,"toosoon":0,"cond_shown":"equaldotsize","ratio_trial":750,"smaller_num":"6","larger_num":"8","correct_side":1,"subjID":"12","gender":"No_gender","age":"No_age","school":"No_school","test":{"fix_dur":[250,1500],"timestim":400,"targets_dim":[100,100],"targets_relative_coord":[0.1,0.9],"size_stim":[880,420],"start_dim":[100,100],"size_start":[300,300],"size_fix":60,"samplingrate":20,"img_types":["equaldotsize","equaldotanddens","randomdotsize","randomdotsizeEA"],"ratios":[250,500,750,900],"rep_conds":10,"nTrials":176,"trials_to_rest":500,"Trials_order":[72,126,159,76,25,134,164,47,54,173,65,32,96,127,48,5,60,17,146,103,69,131,51,95,78,21,123,155,16,175,11,166,38,33,169,118,61,27,110,144,56,0,82,58,40,156,125,170,9,3,93,67,46,172,137,7,117,81,4,53,102,44,104,31,132,161,162,167,1,79,163,75,120,84,19,10,92,105,64,37,171,59,160,30,52,149,124,87,45,41,130,147,24,6,133,108,15,98,35,85,22,138,128,74,119,122,20,158,70,154,145,8,152,62,91,86,142,50,114,43,94,115,57,14,121,71,26,148,63,107,106,165,66,116,49,111,141,88,90,136,12,168,99,28,42,89,97,157,113,36,153,23,151,2,80,109,29,83,18,39,34,68,55,101,100,129,143,73,140,112,77,13,150,139,135,174],"cond_shown":["equaldotsize","randomdotsize","randomdotsizeEA","equaldotsize","equaldotanddens","randomdotsize","equaldotsize","randomdotsizeEA","randomdotsize","equaldotanddens","equaldotanddens","equaldotsize","equaldotsize","randomdotsizeEA","equaldotsize","equaldotanddens","equaldotsize","equaldotanddens","randomdotsize","randomdotsizeEA","equaldotanddens","randomdotsizeEA","randomdotsizeEA","randomdotsizeEA","randomdotsize","equaldotanddens","randomdotsizeEA","randomdotsizeEA","equaldotsize","randomdotsizeEA","randomdotsizeEA","randomdotsize","randomdotsize","equaldotanddens","equaldotanddens","randomdotsize","equaldotanddens","randomdotsizeEA","randomdotsize","equaldotsize","equaldotsize","equaldotsize","randomdotsize","randomdotsize","equaldotsize","equaldotsize","equaldotanddens","randomdotsize","equaldotanddens","randomdotsizeEA","equaldotanddens","randomdotsizeEA","randomdotsize","equaldotsize","equaldotanddens","randomdotsizeEA","equaldotanddens","equaldotanddens","equaldotsize","equaldotanddens","randomdotsize","equaldotsize","equaldotsize","randomdotsizeEA","equaldotsize","equaldotanddens","randomdotsize","randomdotsizeEA","equaldotanddens","randomdotsizeEA","randomdotsizeEA","randomdotsizeEA","equaldotsize","equaldotsize","randomdotsizeEA","randomdotsize","equaldotsize","equaldotanddens","equaldotsize","equaldotanddens","randomdotsizeEA","randomdotsizeEA","equaldotsize","randomdotsize","equaldotsize","equaldotanddens","equaldotsize","randomdotsizeEA","equaldotanddens","equaldotanddens","randomdotsize","randomdotsizeEA","equaldotsize","randomdotsize","equaldotanddens","equaldotsize","randomdotsizeEA","randomdotsize","randomdotsizeEA","equaldotanddens","randomdotsize","randomdotsize","equaldotsize","randomdotsize","randomdotsizeEA","randomdotsize","equaldotsize","randomdotsize","randomdotsize","randomdotsize","equaldotanddens","equaldotsize","equaldotsize","randomdotsize","randomdotsizeEA","randomdotsize","randomdotsize","randomdotsize","randomdotsize","randomdotsizeEA","randomdotsize","randomdotsizeEA","equaldotanddens","randomdotsize","equaldotanddens","randomdotsizeEA","randomdotsize","equaldotsize","randomdotsizeEA","randomdotsizeEA","randomdotsize","equaldotanddens","randomdotsize","equaldotsize","equaldotanddens","randomdotsizeEA","equaldotanddens","equaldotsize","randomdotsize","equaldotsize","equaldotsize","equaldotsize","randomdotsizeEA","equaldotsize","randomdotsize","equaldotanddens","equaldotanddens","equaldotanddens","equaldotanddens","equaldotsize","equaldotanddens","randomdotsizeEA","randomdotsizeEA","randomdotsize","equaldotsize","equaldotanddens","equaldotanddens","randomdotsizeEA","randomdotsize","randomdotsizeEA","randomdotsize","equaldotsize","randomdotsizeEA","equaldotanddens","equaldotsize","equaldotanddens","randomdotsizeEA","equaldotanddens","equaldotsize","equaldotsize","equaldotanddens","equaldotanddens","randomdotsize","randomdotsizeEA","randomdotsizeEA","randomdotsize"],"ratio_trial":[750,900,900,900,750,500,500,900,500,900,250,250,250,900,250,500,900,250,250,500,500,250,250,900,900,500,750,750,250,900,750,500,500,250,750,500,900,750,900,250,750,250,250,750,750,900,900,750,750,250,900,250,900,900,750,500,500,250,500,500,500,900,750,900,500,250,250,500,250,900,250,750,750,500,250,750,900,750,250,500,750,750,250,900,500,500,900,500,900,750,250,250,750,500,500,900,900,250,250,500,500,750,250,750,500,750,500,900,500,750,250,750,750,900,750,500,900,250,250,750,900,250,750,900,750,500,750,500,900,750,750,500,250,500,250,900,900,750,750,750,900,750,250,900,750,750,250,900,250,500,750,500,500,250,250,900,900,250,250,500,250,500,500,500,500,250,900,750,900,250,900,900,500,750,500,900],"smaller_num":["6","9","18","18","15","3","5","18","6","18","5","6","2","18","2","3","9","2","4","3","2","2","2","18","9","9","18","18","4","9","12","1","6","3","3","9","9","6","9","3","3","2","2","6","6","18","18","9","15","4","18","6","18","18","9","2","10","3","2","5","5","18","12","18","5","3","5","2","3","18","5","3","3","1","5","3","9","15","6","1","3","15","1","18","9","9","9","3","18","15","2","2","6","3","6","18","9","4","2","6","1","3","2","15","1","6","5","18","2","6","3","18","6","18","18","9","18","2","6","15","18","3","6","18","3","2","3","3","9","12","6","2","4","5","1","9","18","6","9","12","18","6","1","18","6","15","5","18","6","2","3","10","9","2","3","9","18","4","3","2","5","5","5","2","10","3","9","3","9","3","9","9","6","9","2","18"],"larger_num":["8","10","20","20","20","6","10","20","12","20","20","24","8","20","8","6","10","8","16","6","4","8","8","20","10","18","24","24","16","10","16","2","12","12","4","18","10","8","10","12","4","8","8","8","8","20","20","12","20","16","20","24","20","20","12","4","20","12","4","10","10","20","16","20","10","12","20","4","12","20","20","4","4","2","20","4","10","20","24","2","4","20","4","20","18","18","10","6","20","20","8","8","8","6","12","20","10","16","8","12","2","4","8","20","2","8","10","20","4","8","12","24","8","20","24","18","20","8","24","20","20","12","8","20","4","4","4","6","10","16","8","4","16","10","4","10","20","8","12","16","20","8","4","20","8","20","20","20","24","4","4","20","18","8","12","10","20","16","12","4","20","10","10","4","20","12","10","4","10","12","10","10","12","12","4","20"],"correct_side":[1,2,1,2,2,2,1,2,1,1,2,2,1,1,1,2,2,1,1,2,1,1,1,1,2,2,1,1,2,2,2,2,1,1,1,2,2,2,2,2,1,1,1,1,2,2,1,2,1,2,1,2,1,2,2,1,2,2,1,1,1,2,2,2,1,1,2,1,2,1,2,1,1,2,2,1,2,1,1,2,1,2,2,2,2,2,2,2,1,2,1,1,1,2,1,1,2,2,1,1,2,2,2,2,2,1,1,1,1,1,1,1,1,1,1,1,1,1,2,1,1,1,1,2,1,2,2,2,2,2,1,1,1,2,2,2,1,2,2,2,1,1,2,1,1,2,2,1,1,1,2,2,2,2,2,2,1,1,2,2,2,1,1,2,2,2,2,1,2,1,2,2,1,2,1,1],"img_shown":["img/750/equaldotsize/L/14_Ratio_750_L_8_R_6.png","img/900/randomdotsize/R/7_Ratio_900_L_9_R_10.png","img/900/randomdotsizeEA/L/10_Ratio_900_L_20_R_18.png","img/900/equaldotsize/R/9_Ratio_900_L_18_R_20.png","img/750/equaldotanddens/R/4_Ratio_750_L_15_R_20.png","img/500/randomdotsize/R/2_Ratio_500_L_3_R_6.png","img/500/equaldotsize/L/7_Ratio_500_L_10_R_5.png","img/900/randomdotsizeEA/R/11_Ratio_900_L_18_R_20.png","img/500/randomdotsize/L/11_Ratio_500_L_12_R_6.png","img/900/equaldotanddens/L/10_Ratio_900_L_20_R_18.png","img/250/equaldotanddens/R/12_Ratio_250_L_5_R_20.png","img/250/equaldotsize/R/6_Ratio_250_L_6_R_24.png","img/250/equaldotsize/L/1_Ratio_250_L_8_R_2.png","img/900/randomdotsizeEA/L/8_Ratio_900_L_20_R_18.png","img/250/equaldotsize/L/3_Ratio_250_L_8_R_2.png","img/500/equaldotanddens/R/2_Ratio_500_L_3_R_6.png","img/900/equaldotsize/R/6_Ratio_900_L_9_R_10.png","img/250/equaldotanddens/L/3_Ratio_250_L_8_R_2.png","img/250/randomdotsize/L/2_Ratio_250_L_16_R_4.png","img/500/randomdotsizeEA/R/2_Ratio_500_L_3_R_6.png","img/500/equaldotanddens/L/5_Ratio_500_L_4_R_2.png","img/250/randomdotsizeEA/L/1_Ratio_250_L_8_R_2.png","img/250/randomdotsizeEA/L/3_Ratio_250_L_8_R_2.png","img/900/randomdotsizeEA/L/2_Ratio_900_L_20_R_18.png","img/900/randomdotsize/R/15_Ratio_900_L_9_R_10.png","img/500/equaldotanddens/R/6_Ratio_500_L_9_R_18.png","img/750/randomdotsizeEA/L/6_Ratio_750_L_24_R_18.png","img/750/randomdotsizeEA/L/6_Ratio_750_L_24_R_18.png","img/250/equaldotsize/R/10_Ratio_250_L_4_R_16.png","img/900/randomdotsizeEA/R/15_Ratio_900_L_9_R_10.png","img/750/randomdotsizeEA/R/11_Ratio_750_L_12_R_16.png","img/500/randomdotsize/R/15_Ratio_500_L_1_R_2.png","img/500/randomdotsize/L/13_Ratio_500_L_12_R_6.png","img/250/equaldotanddens/L/15_Ratio_250_L_12_R_3.png","img/750/equaldotanddens/L/10_Ratio_750_L_4_R_3.png","img/500/randomdotsize/R/1_Ratio_500_L_9_R_18.png","img/900/equaldotanddens/R/15_Ratio_900_L_9_R_10.png","img/750/randomdotsizeEA/R/2_Ratio_750_L_6_R_8.png","img/900/randomdotsize/R/6_Ratio_900_L_9_R_10.png","img/250/equaldotsize/R/4_Ratio_250_L_3_R_12.png","img/750/equaldotsize/L/10_Ratio_750_L_4_R_3.png","img/250/equaldotsize/L/3_Ratio_250_L_8_R_2.png","img/250/randomdotsize/L/1_Ratio_250_L_8_R_2.png","img/750/randomdotsize/L/14_Ratio_750_L_8_R_6.png","img/750/equaldotsize/R/2_Ratio_750_L_6_R_8.png","img/900/equaldotsize/R/11_Ratio_900_L_18_R_20.png","img/900/equaldotanddens/L/2_Ratio_900_L_20_R_18.png","img/750/randomdotsize/R/15_Ratio_750_L_9_R_12.png","img/750/equaldotanddens/L/1_Ratio_750_L_20_R_15.png","img/250/randomdotsizeEA/R/10_Ratio_250_L_4_R_16.png","img/900/equaldotanddens/L/2_Ratio_900_L_20_R_18.png","img/250/randomdotsizeEA/R/6_Ratio_250_L_6_R_24.png","img/900/randomdotsize/L/10_Ratio_900_L_20_R_18.png","img/900/equaldotsize/R/13_Ratio_900_L_18_R_20.png","img/750/equaldotanddens/R/15_Ratio_750_L_9_R_12.png","img/500/randomdotsizeEA/L/5_Ratio_500_L_4_R_2.png","img/500/equaldotanddens/R/3_Ratio_500_L_10_R_20.png","img/250/equaldotanddens/R/9_Ratio_250_L_3_R_12.png","img/500/equaldotsize/L/10_Ratio_500_L_4_R_2.png","img/500/equaldotanddens/L/7_Ratio_500_L_10_R_5.png","img/500/randomdotsize/L/7_Ratio_500_L_10_R_5.png","img/900/equaldotsize/R/11_Ratio_900_L_18_R_20.png","img/750/equaldotsize/R/11_Ratio_750_L_12_R_16.png","img/900/randomdotsizeEA/R/13_Ratio_900_L_18_R_20.png","img/500/equaldotsize/L/7_Ratio_500_L_10_R_5.png","img/250/equaldotanddens/L/14_Ratio_250_L_12_R_3.png","img/250/randomdotsize/R/12_Ratio_250_L_5_R_20.png","img/500/randomdotsizeEA/L/10_Ratio_500_L_4_R_2.png","img/250/equaldotanddens/R/4_Ratio_250_L_3_R_12.png","img/900/randomdotsizeEA/L/8_Ratio_900_L_20_R_18.png","img/250/randomdotsizeEA/R/12_Ratio_250_L_5_R_20.png","img/750/randomdotsizeEA/L/10_Ratio_750_L_4_R_3.png","img/750/equaldotsize/L/9_Ratio_750_L_4_R_3.png","img/500/equaldotsize/R/12_Ratio_500_L_1_R_2.png","img/250/randomdotsizeEA/R/12_Ratio_250_L_5_R_20.png","img/750/randomdotsize/L/10_Ratio_750_L_4_R_3.png","img/900/equaldotsize/R/3_Ratio_900_L_9_R_10.png","img/750/equaldotanddens/L/1_Ratio_750_L_20_R_15.png","img/250/equaldotsize/L/5_Ratio_250_L_24_R_6.png","img/500/equaldotanddens/R/12_Ratio_500_L_1_R_2.png","img/750/randomdotsizeEA/L/9_Ratio_750_L_4_R_3.png","img/750/randomdotsizeEA/R/3_Ratio_750_L_15_R_20.png","img/250/equaldotsize/R/8_Ratio_250_L_1_R_4.png","img/900/randomdotsize/R/9_Ratio_900_L_18_R_20.png","img/500/equaldotsize/R/1_Ratio_500_L_9_R_18.png","img/500/equaldotanddens/R/6_Ratio_500_L_9_R_18.png","img/900/equaldotsize/R/7_Ratio_900_L_9_R_10.png","img/500/randomdotsizeEA/R/2_Ratio_500_L_3_R_6.png","img/900/equaldotanddens/L/8_Ratio_900_L_20_R_18.png","img/750/equaldotanddens/R/4_Ratio_750_L_15_R_20.png","img/250/randomdotsize/L/3_Ratio_250_L_8_R_2.png","img/250/randomdotsizeEA/L/1_Ratio_250_L_8_R_2.png","img/750/equaldotsize/L/13_Ratio_750_L_8_R_6.png","img/500/randomdotsize/R/2_Ratio_500_L_3_R_6.png","img/500/equaldotanddens/L/13_Ratio_500_L_12_R_6.png","img/900/equaldotsize/L/2_Ratio_900_L_20_R_18.png","img/900/randomdotsizeEA/R/15_Ratio_900_L_9_R_10.png","img/250/randomdotsize/R/10_Ratio_250_L_4_R_16.png","img/250/randomdotsizeEA/L/7_Ratio_250_L_8_R_2.png","img/500/equaldotanddens/L/11_Ratio_500_L_12_R_6.png","img/500/randomdotsize/R/15_Ratio_500_L_1_R_2.png","img/750/randomdotsize/R/12_Ratio_750_L_3_R_4.png","img/250/equaldotsize/R/13_Ratio_250_L_2_R_8.png","img/750/randomdotsize/R/3_Ratio_750_L_15_R_20.png","img/500/randomdotsizeEA/R/15_Ratio_500_L_1_R_2.png","img/750/randomdotsize/L/14_Ratio_750_L_8_R_6.png","img/500/equaldotsize/L/7_Ratio_500_L_10_R_5.png","img/900/randomdotsize/L/10_Ratio_900_L_20_R_18.png","img/500/randomdotsize/L/10_Ratio_500_L_4_R_2.png","img/750/randomdotsize/L/13_Ratio_750_L_8_R_6.png","img/250/equaldotanddens/L/15_Ratio_250_L_12_R_3.png","img/750/equaldotsize/L/6_Ratio_750_L_24_R_18.png","img/750/equaldotsize/L/13_Ratio_750_L_8_R_6.png","img/900/randomdotsize/L/4_Ratio_900_L_20_R_18.png","img/750/randomdotsizeEA/L/6_Ratio_750_L_24_R_18.png","img/500/randomdotsize/L/4_Ratio_500_L_18_R_9.png","img/900/randomdotsize/L/8_Ratio_900_L_20_R_18.png","img/250/randomdotsize/L/3_Ratio_250_L_8_R_2.png","img/250/randomdotsize/R/6_Ratio_250_L_6_R_24.png","img/750/randomdotsizeEA/L/1_Ratio_750_L_20_R_15.png","img/900/randomdotsize/L/8_Ratio_900_L_20_R_18.png","img/250/randomdotsizeEA/L/14_Ratio_250_L_12_R_3.png","img/750/equaldotanddens/L/13_Ratio_750_L_8_R_6.png","img/900/randomdotsize/R/12_Ratio_900_L_18_R_20.png","img/750/equaldotanddens/L/9_Ratio_750_L_4_R_3.png","img/500/randomdotsizeEA/R/9_Ratio_500_L_2_R_4.png","img/750/randomdotsize/R/12_Ratio_750_L_3_R_4.png","img/500/equaldotsize/R/2_Ratio_500_L_3_R_6.png","img/900/randomdotsizeEA/R/15_Ratio_900_L_9_R_10.png","img/750/randomdotsizeEA/R/11_Ratio_750_L_12_R_16.png","img/750/randomdotsize/L/14_Ratio_750_L_8_R_6.png","img/500/equaldotanddens/L/10_Ratio_500_L_4_R_2.png","img/250/randomdotsize/L/2_Ratio_250_L_16_R_4.png","img/500/equaldotsize/R/14_Ratio_500_L_5_R_10.png","img/250/equaldotanddens/R/8_Ratio_250_L_1_R_4.png","img/900/randomdotsizeEA/R/7_Ratio_900_L_9_R_10.png","img/900/equaldotanddens/L/8_Ratio_900_L_20_R_18.png","img/750/equaldotsize/R/2_Ratio_750_L_6_R_8.png","img/750/randomdotsize/R/15_Ratio_750_L_9_R_12.png","img/750/equaldotsize/R/11_Ratio_750_L_12_R_16.png","img/900/equaldotsize/L/10_Ratio_900_L_20_R_18.png","img/750/equaldotsize/L/14_Ratio_750_L_8_R_6.png","img/250/randomdotsizeEA/R/8_Ratio_250_L_1_R_4.png","img/900/equaldotsize/L/2_Ratio_900_L_20_R_18.png","img/750/randomdotsize/L/13_Ratio_750_L_8_R_6.png","img/750/equaldotanddens/R/3_Ratio_750_L_15_R_20.png","img/250/equaldotanddens/R/12_Ratio_250_L_5_R_20.png","img/900/equaldotanddens/L/8_Ratio_900_L_20_R_18.png","img/250/equaldotanddens/L/5_Ratio_250_L_24_R_6.png","img/500/equaldotsize/L/10_Ratio_500_L_4_R_2.png","img/750/equaldotanddens/R/12_Ratio_750_L_3_R_4.png","img/500/randomdotsizeEA/R/3_Ratio_500_L_10_R_20.png","img/500/randomdotsizeEA/R/6_Ratio_500_L_9_R_18.png","img/250/randomdotsize/R/13_Ratio_250_L_2_R_8.png","img/250/equaldotsize/R/9_Ratio_250_L_3_R_12.png","img/900/equaldotanddens/R/7_Ratio_900_L_9_R_10.png","img/900/equaldotanddens/L/4_Ratio_900_L_20_R_18.png","img/250/randomdotsizeEA/L/2_Ratio_250_L_16_R_4.png","img/250/randomdotsize/R/11_Ratio_250_L_3_R_12.png","img/500/randomdotsizeEA/R/9_Ratio_500_L_2_R_4.png","img/250/randomdotsize/R/12_Ratio_250_L_5_R_20.png","img/500/equaldotsize/L/7_Ratio_500_L_10_R_5.png","img/500/randomdotsizeEA/L/7_Ratio_500_L_10_R_5.png","img/500/equaldotanddens/R/9_Ratio_500_L_2_R_4.png","img/500/equaldotsize/R/3_Ratio_500_L_10_R_20.png","img/250/equaldotanddens/R/11_Ratio_250_L_3_R_12.png","img/900/randomdotsizeEA/R/5_Ratio_900_L_9_R_10.png","img/750/equaldotanddens/L/8_Ratio_750_L_4_R_3.png","img/900/equaldotsize/R/7_Ratio_900_L_9_R_10.png","img/250/equaldotsize/L/14_Ratio_250_L_12_R_3.png","img/900/equaldotanddens/R/15_Ratio_900_L_9_R_10.png","img/900/equaldotanddens/R/7_Ratio_900_L_9_R_10.png","img/500/randomdotsize/L/13_Ratio_500_L_12_R_6.png","img/750/randomdotsizeEA/R/15_Ratio_750_L_9_R_12.png","img/500/randomdotsizeEA/L/5_Ratio_500_L_4_R_2.png","img/900/randomdotsize/L/4_Ratio_900_L_20_R_18.png"],"Rat0":[["12_Ratio_0_L_9_R_0.png","13_Ratio_0_L_6_R_0.png","5_Ratio_0_L_2_R_0.png","6_Ratio_0_L_4_R_0.png","8_Ratio_0_L_6_R_0.png"],["1_Ratio_0_L_0_R_17.png","10_Ratio_0_L_0_R_22.png","11_Ratio_0_L_0_R_1.png","14_Ratio_0_L_0_R_24.png","15_Ratio_0_L_0_R_4.png","2_Ratio_0_L_0_R_5.png","3_Ratio_0_L_0_R_17.png","4_Ratio_0_L_0_R_7.png","7_Ratio_0_L_0_R_19.png","9_Ratio_0_L_0_R_15.png"]],"Rat250":[["1_Ratio_250_L_8_R_2.png","14_Ratio_250_L_12_R_3.png","15_Ratio_250_L_12_R_3.png","2_Ratio_250_L_16_R_4.png","3_Ratio_250_L_8_R_2.png","5_Ratio_250_L_24_R_6.png","7_Ratio_250_L_8_R_2.png"],["10_Ratio_250_L_4_R_16.png","11_Ratio_250_L_3_R_12.png","12_Ratio_250_L_5_R_20.png","13_Ratio_250_L_2_R_8.png","4_Ratio_250_L_3_R_12.png","6_Ratio_250_L_6_R_24.png","8_Ratio_250_L_1_R_4.png","9_Ratio_250_L_3_R_12.png"]],"Rat500":[["10_Ratio_500_L_4_R_2.png","11_Ratio_500_L_12_R_6.png","13_Ratio_500_L_12_R_6.png","4_Ratio_500_L_18_R_9.png","5_Ratio_500_L_4_R_2.png","7_Ratio_500_L_10_R_5.png","8_Ratio_500_L_8_R_4.png"],["1_Ratio_500_L_9_R_18.png","12_Ratio_500_L_1_R_2.png","14_Ratio_500_L_5_R_10.png","15_Ratio_500_L_1_R_2.png","2_Ratio_500_L_3_R_6.png","3_Ratio_500_L_10_R_20.png","6_Ratio_500_L_9_R_18.png","9_Ratio_500_L_2_R_4.png"]],"Rat750":[["1_Ratio_750_L_20_R_15.png","10_Ratio_750_L_4_R_3.png","13_Ratio_750_L_8_R_6.png","14_Ratio_750_L_8_R_6.png","6_Ratio_750_L_24_R_18.png","8_Ratio_750_L_4_R_3.png","9_Ratio_750_L_4_R_3.png"],["11_Ratio_750_L_12_R_16.png","12_Ratio_750_L_3_R_4.png","15_Ratio_750_L_9_R_12.png","2_Ratio_750_L_6_R_8.png","3_Ratio_750_L_15_R_20.png","4_Ratio_750_L_15_R_20.png","5_Ratio_750_L_15_R_20.png","7_Ratio_750_L_3_R_4.png"]],"Rat900":[["1_Ratio_900_L_10_R_9.png","10_Ratio_900_L_20_R_18.png","2_Ratio_900_L_20_R_18.png","4_Ratio_900_L_20_R_18.png","8_Ratio_900_L_20_R_18.png"],["11_Ratio_900_L_18_R_20.png","12_Ratio_900_L_18_R_20.png","13_Ratio_900_L_18_R_20.png","14_Ratio_900_L_18_R_20.png","15_Ratio_900_L_9_R_10.png","3_Ratio_900_L_9_R_10.png","5_Ratio_900_L_9_R_10.png","6_Ratio_900_L_9_R_10.png","7_Ratio_900_L_9_R_10.png","9_Ratio_900_L_18_R_20.png"]],"Rat1000":[["10_Ratio_1000_L_16_R_16.png","11_Ratio_1000_L_6_R_6.png","12_Ratio_1000_L_14_R_14.png","13_Ratio_1000_L_20_R_20.png","15_Ratio_1000_L_15_R_15.png","2_Ratio_1000_L_17_R_17.png","4_Ratio_1000_L_9_R_9.png","5_Ratio_1000_L_6_R_6.png","6_Ratio_1000_L_19_R_19.png","8_Ratio_1000_L_14_R_14.png","9_Ratio_1000_L_25_R_25.png"],["1_Ratio_1000_L_1_R_1.png","14_Ratio_1000_L_17_R_17.png","3_Ratio_1000_L_17_R_17.png","7_Ratio_1000_L_6_R_6.png"]]}},{"start_time":1549309633887,"click_time":1549309635407,"finger_time":1549309635066,"fix_duration":319.3817736793987,"trial":1,"RT":1179,"MT":341,"sideResp":2,"stimulus":"img/900/randomdotsize/R/7_Ratio_900_L_9_R_10.png","xmouse":[411.3333435058594,411.3333435058594,411.3333435058594,411.3333435058594,411.3333435058594,411.3333435058594,411.3333435058594,411.3333435058594,411.3333435058594,411.3333435058594,411.3333435058594,411.3333435058594,410.66668701171875,410.66668701171875,410.66668701171875,410.66668701171875,410.66668701171875,410.66668701171875,410.66668701171875,410.66668701171875,410.66668701171875,410.66668701171875,410.66668701171875,410.66668701171875,410.66668701171875,410.66668701171875,410.66668701171875,410.66668701171875,410.66668701171875,410.66668701171875,410.66668701171875,410.66668701171875,410.66668701171875,410.66668701171875,410.66668701171875,410.66668701171875,410.66668701171875,410.66668701171875,410.66668701171875,410.66668701171875,410.66668701171875,410.66668701171875,410.66668701171875,410.66668701171875,410.66668701171875,410.66668701171875,410.66668701171875,410.66668701171875,410.66668701171875,410.66668701171875,410.66668701171875,410.66668701171875,410.66668701171875,410.66668701171875,410.66668701171875,410.66668701171875,414,416.66668701171875,418.66668701171875,424,435.3333435058594,443.3333435058594,486,496.66668701171875,517.3333740234375,528.6666870117188,550.6666870117188,581.3333740234375,600,609.3333740234375,628.6666870117188,646.6666870117188,670,682.6666870117188,687.3333740234375,698,705.3333740234375],"ymouse":[824,824,824,824,824,824,824,824,824,824,824,824,824,824,824,824,824,824,824,824,824,824,824.6666870117188,824.6666870117188,824.6666870117188,824.6666870117188,824.6666870117188,824.6666870117188,824.6666870117188,824.6666870117188,824.6666870117188,824.6666870117188,825.3333740234375,825.3333740234375,825.3333740234375,825.3333740234375,825.3333740234375,825.3333740234375,825.3333740234375,825.3333740234375,825.3333740234375,825.3333740234375,825.3333740234375,825.3333740234375,825.3333740234375,825.3333740234375,825.3333740234375,825.3333740234375,825.3333740234375,825.3333740234375,825.3333740234375,825.3333740234375,825.3333740234375,825.3333740234375,825.3333740234375,825.3333740234375,804,786.6666870117188,778,758,728.6666870117188,712,639.3333740234375,618.6666870117188,576.6666870117188,553.3333740234375,502.66668701171875,428,376,350,298.66668701171875,248.66668701171875,184,146,130,102,84.66667175292969],"timestamp_mouse":[1,19,40,59,79,99,119,139,159,179,199,219,239,259,279,299,320,339,359,379,399,419,439,459,479,499,519,539,559,579,599,619,638,659,679,699,719,739,759,779,799,819,839,859,879,899,919,939,959,979,999,1019,1040,1059,1079,1099,1119,1139,1159,1179,1199,1219,1239,1259,1279,1298,1320,1340,1359,1379,1399,1419,1442,1459,1479,1499,1519],"xSR":350,"ySR":768,"xT1":30,"yT1":0,"xT2":670,"yT2":0,"toosoon":0,"cond_shown":"randomdotsize","ratio_trial":900,"smaller_num":"9","larger_num":"10","correct_side":2,"subjID":"12","gender":"No_gender","age":"No_age","school":"No_school"},{"start_time":1549309637733,"click_time":1549309638969,"finger_time":1549309638647,"fix_duration":1418.9789679286055,"trial":2,"RT":914,"MT":322,"sideResp":1,"stimulus":"img/900/randomdotsizeEA/L/10_Ratio_900_L_20_R_18.png","xmouse":[400,400,400,400,400,400,400,400,400,400,400,400,400,400,400,400,400,400,400,400,400,400,400,400,400,400,400,400,400,400,400,400,400,400,400,400,400,400,400,400,399.3333435058594,399.3333435058594,399.3333435058594,399.3333435058594,399.3333435058594,370,357.3333435058594,350.66668701171875,335.3333435058594,326,277.3333435058594,264.66668701171875,239.33334350585938,227.33334350585938,202.6666717529297,168.6666717529297,150.6666717529297,140.6666717529297,125.33334350585938,109.33333587646484,102,86],"ymouse":[824,824,824.6666870117188,824.6666870117188,824.6666870117188,824.6666870117188,824.6666870117188,824.6666870117188,825.3333740234375,825.3333740234375,825.3333740234375,825.3333740234375,825.3333740234375,826,826,826,826,826,826,826,826,826,826.6666870117188,826.6666870117188,826.6666870117188,826.6666870117188,826.6666870117188,826.6666870117188,826.6666870117188,826.6666870117188,826.6666870117188,827.3333740234375,827.3333740234375,827.3333740234375,827.3333740234375,827.3333740234375,827.3333740234375,827.3333740234375,826.6666870117188,826.6666870117188,826.6666870117188,826.6666870117188,826.6666870117188,826.6666870117188,826.6666870117188,760,719.3333740234375,697.3333740234375,650,626,521.3333740234375,493.3333435058594,438.66668701171875,413.3333435058594,357.3333435058594,277.3333435058594,227.33334350585938,204.6666717529297,162,124,108,70.66667175292969],"timestamp_mouse":[6,38,53,73,93,113,133,153,173,193,213,233,253,273,293,313,333,353,373,393,412,433,453,472,493,513,533,553,573,593,613,632,653,673,694,713,733,753,773,793,815,833,853,873,893,914,933,953,973,993,1015,1033,1053,1073,1093,1114,1133,1153,1173,1193,1213,1236],"xSR":350,"ySR":768,"xT1":30,"yT1":0,"xT2":670,"yT2":0,"toosoon":0,"cond_shown":"randomdotsizeEA","ratio_trial":900,"smaller_num":"18","larger_num":"20","correct_side":1,"subjID":"12","gender":"No_gender","age":"No_age","school":"No_school"},{"start_time":1549309640592,"click_time":1549309641786,"finger_time":1549309641486,"fix_duration":843.9779969956644,"trial":3,"RT":894,"MT":300,"sideResp":2,"stimulus":"img/900/equaldotsize/R/9_Ratio_900_L_18_R_20.png","xmouse":[406.66668701171875,406.66668701171875,406.66668701171875,406,406,406,406,406.66668701171875,406.66668701171875,406.66668701171875,406.66668701171875,406.66668701171875,406.66668701171875,406.66668701171875,406.66668701171875,406.66668701171875,406.66668701171875,406,406,406,406,406,406,406,406,406,406,406,406,406,406,406,406,406,406,406,406,406,406,406,406,406,406,406,423.3333435058594,431.3333435058594,446,463.3333435058594,493.3333435058594,512.6666870117188,521.3333740234375,538,546,591.3333740234375,604.6666870117188,630.6666870117188,643.3333740234375,668.6666870117188,692,718],"ymouse":[835.3333740234375,835.3333740234375,835.3333740234375,835.3333740234375,835.3333740234375,835.3333740234375,835.3333740234375,835.3333740234375,835.3333740234375,835.3333740234375,835.3333740234375,835.3333740234375,835.3333740234375,835.3333740234375,835.3333740234375,835.3333740234375,835.3333740234375,836,836,836.6666870117188,836.6666870117188,836.6666870117188,836.6666870117188,837.3333740234375,837.3333740234375,837.3333740234375,837.3333740234375,837.3333740234375,838,838,838,838,838,838,838,837.3333740234375,837.3333740234375,836.6666870117188,836.6666870117188,836.6666870117188,836.6666870117188,836.6666870117188,836.6666870117188,836.6666870117188,765.3333740234375,748,715.3333740234375,680,614.6666870117188,565.3333740234375,540,489.3333435058594,463.3333435058594,345.3333435058594,316,258.66668701171875,230.6666717529297,177.33334350585938,127.33334350585938,68.66667175292969],"timestamp_mouse":[14,39,54,74,94,114,134,154,174,194,214,234,254,274,294,314,334,354,374,394,414,434,454,474,494,514,534,553,574,593,614,634,654,674,694,714,734,754,774,794,814,834,854,874,894,914,934,953,975,994,1013,1034,1054,1076,1094,1116,1134,1154,1174,1193],"xSR":350,"ySR":768,"xT1":30,"yT1":0,"xT2":670,"yT2":0,"toosoon":0,"cond_shown":"equaldotsize","ratio_trial":900,"smaller_num":"18","larger_num":"20","correct_side":2,"subjID":"12","gender":"No_gender","age":"No_age","school":"No_school"},{"start_time":1549309643455,"click_time":1549309644588,"finger_time":1549309644326,"fix_duration":907.8623063150666,"trial":4,"RT":871,"MT":262,"sideResp":2,"stimulus":"img/750/equaldotanddens/R/4_Ratio_750_L_15_R_20.png","xmouse":[415.3333435058594,415.3333435058594,415.3333435058594,415.3333435058594,415.3333435058594,414.66668701171875,414.66668701171875,414.66668701171875,414.66668701171875,414.66668701171875,414.66668701171875,414.66668701171875,414.66668701171875,414,414,413.3333435058594,413.3333435058594,413.3333435058594,413.3333435058594,413.3333435058594,413.3333435058594,412.66668701171875,412.66668701171875,412.66668701171875,412.66668701171875,412,412,412,412,412,412,412,412,412,412,411.3333435058594,411.3333435058594,411.3333435058594,411.3333435058594,411.3333435058594,411.3333435058594,411.3333435058594,411.3333435058594,452,468.66668701171875,478.66668701171875,518.6666870117188,529.3333740234375,550,560,582,606.6666870117188,617.3333740234375,623.3333740234375,636,652.6666870117188,672],"ymouse":[848,848,848,848,848,848.6666870117188,848.6666870117188,848.6666870117188,848.6666870117188,848.6666870117188,848.6666870117188,848.6666870117188,848.6666870117188,850.6666870117188,850.6666870117188,850.6666870117188,850,850,850,850,850,848.6666870117188,848.6666870117188,848.6666870117188,848.6666870117188,848.6666870117188,848.6666870117188,848,848,848,848,848,848,848,848,846.6666870117188,846,846,846,846,846,846,846,736,693.3333740234375,668,552,521.3333740234375,458,428,364.66668701171875,280.66668701171875,232.6666717529297,208.6666717529297,160,116,68.66667175292969],"timestamp_mouse":[11,32,51,71,91,111,131,151,171,191,211,230,251,271,291,310,331,351,371,391,411,435,451,471,491,511,531,551,571,591,611,632,651,671,692,711,732,751,771,791,811,831,851,871,891,911,933,951,971,991,1011,1032,1051,1071,1091,1110,1132],"xSR":350,"ySR":768,"xT1":30,"yT1":0,"xT2":670,"yT2":0,"toosoon":0,"cond_shown":"equaldotanddens","ratio_trial":750,"smaller_num":"15","larger_num":"20","correct_side":2,"subjID":"12","gender":"No_gender","age":"No_age","school":"No_school"},{"start_time":1549309646059,"click_time":1549309647346,"finger_time":1549309646907,"fix_duration":831.5476546904129,"trial":5,"RT":848,"MT":439,"sideResp":2,"stimulus":"img/500/randomdotsize/R/2_Ratio_500_L_3_R_6.png","xmouse":[412.66668701171875,412.66668701171875,412.66668701171875,412.66668701171875,412.66668701171875,412.66668701171875,412.66668701171875,412.66668701171875,412.66668701171875,412.66668701171875,412.66668701171875,412,412,412,412,412,412,412,412,412,412,412,412,412,412,412,412,411.3333435058594,411.3333435058594,411.3333435058594,411.3333435058594,411.3333435058594,411.3333435058594,411.3333435058594,411.3333435058594,411.3333435058594,411.3333435058594,408.66668701171875,408.66668701171875,408.66668701171875,408.66668701171875,408.66668701171875,389.3333435058594,379.3333435058594,375.3333435058594,365.3333435058594,354.66668701171875,336,330.66668701171875,320.66668701171875,314,310.66668701171875,312.66668701171875,324.66668701171875,344,355.3333435058594,386.66668701171875,451.3333435058594,500.66668701171875,526,576,618,666,678.6666870117188,702.6666870117188],"ymouse":[822.6666870117188,822.6666870117188,823.3333740234375,823.3333740234375,823.3333740234375,824,824,824,824.6666870117188,824.6666870117188,824.6666870117188,825.3333740234375,825.3333740234375,825.3333740234375,825.3333740234375,826,826,826,825.3333740234375,825.3333740234375,825.3333740234375,825.3333740234375,825.3333740234375,825.3333740234375,825.3333740234375,825.3333740234375,825.3333740234375,825.3333740234375,824.6666870117188,824.6666870117188,824.6666870117188,824.6666870117188,824.6666870117188,824.6666870117188,824.6666870117188,824.6666870117188,824.6666870117188,818.6666870117188,818.6666870117188,818.6666870117188,818.6666870117188,818.6666870117188,766.6666870117188,733.3333740234375,716.6666870117188,682.6666870117188,646.6666870117188,592,574.6666870117188,543.3333740234375,516,502.66668701171875,469.3333435058594,450.66668701171875,433.3333435058594,426.66668701171875,407.3333435058594,368.66668701171875,333.3333435058594,313.3333435058594,270,226,158,134.6666717529297,92],"timestamp_mouse":[8,27,48,67,87,107,127,146,167,186,207,227,247,267,287,307,327,347,367,386,407,427,447,467,487,507,527,547,567,587,607,627,647,667,687,707,727,747,767,787,807,827,848,867,887,907,927,948,967,987,1007,1027,1051,1070,1087,1107,1127,1150,1167,1187,1207,1226,1248,1267,1286],"xSR":350,"ySR":768,"xT1":30,"yT1":0,"xT2":670,"yT2":0,"toosoon":0,"cond_shown":"randomdotsize","ratio_trial":500,"smaller_num":"3","larger_num":"6","correct_side":2,"subjID":"12","gender":"No_gender","age":"No_age","school":"No_school"},{"start_time":1549309649095,"click_time":1549309650326,"finger_time":1549309650027,"fix_duration":1028.4768265206003,"trial":6,"RT":932,"MT":299,"sideResp":1,"stimulus":"img/500/equaldotsize/L/7_Ratio_500_L_10_R_5.png","xmouse":[400,400,400,400,400,400,400,400,400,400,400,400,400,400,400,400,400,400,400,400,400,400,400,400,400,400,400,400,400,400,399.3333435058594,399.3333435058594,399.3333435058594,399.3333435058594,399.3333435058594,399.3333435058594,399.3333435058594,399.3333435058594,399.3333435058594,399.3333435058594,397.3333435058594,397.3333435058594,397.3333435058594,397.3333435058594,380.66668701171875,366.66668701171875,350.66668701171875,344,326,304,292.66668701171875,252.66668701171875,228,204.6666717529297,192.6666717529297,166.6666717529297,128,106.66667175292969,96.66667175292969,82,76,68.66667175292969],"ymouse":[856.6666870117188,856.6666870117188,856.6666870117188,856.6666870117188,856.6666870117188,856.6666870117188,856.6666870117188,856.6666870117188,856.6666870117188,856.6666870117188,857.3333740234375,857.3333740234375,857.3333740234375,857.3333740234375,857.3333740234375,857.3333740234375,857.3333740234375,857.3333740234375,857.3333740234375,857.3333740234375,858,858,858,858,858,858,858,858,858,858,858.6666870117188,858.6666870117188,858.6666870117188,858.6666870117188,858.6666870117188,858.6666870117188,858.6666870117188,858.6666870117188,858.6666870117188,858.6666870117188,855.3333740234375,855.3333740234375,855.3333740234375,855.3333740234375,821.3333740234375,788,731.3333740234375,711.3333740234375,667.3333740234375,618.6666870117188,593.3333740234375,512,458.66668701171875,404.66668701171875,379.3333435058594,326.66668701171875,254,208.6666717529297,186.6666717529297,145.33334350585938,127.33334350585938,98],"timestamp_mouse":[11,31,51,71,91,111,131,151,171,191,211,231,251,271,291,311,332,351,371,391,411,430,451,471,491,511,531,551,571,591,611,631,651,671,691,711,730,751,771,791,811,831,851,871,891,910,932,951,971,990,1011,1032,1052,1071,1091,1111,1132,1151,1170,1191,1211,1231],"xSR":350,"ySR":768,"xT1":30,"yT1":0,"xT2":670,"yT2":0,"toosoon":0,"cond_shown":"equaldotsize","ratio_trial":500,"smaller_num":"5","larger_num":"10","correct_side":1,"subjID":"12","gender":"No_gender","age":"No_age","school":"No_school"},{"start_time":1549309651338,"click_time":1549309652486,"finger_time":1549309652226,"fix_duration":331.37524263422966,"trial":7,"RT":888,"MT":260,"sideResp":2,"stimulus":"img/900/randomdotsizeEA/R/11_Ratio_900_L_18_R_20.png","xmouse":[384,384,384,384,384,384,384,384.66668701171875,384.66668701171875,384.66668701171875,384.66668701171875,384.66668701171875,384.66668701171875,384.66668701171875,384.66668701171875,384.66668701171875,385.3333435058594,385.3333435058594,385.3333435058594,385.3333435058594,385.3333435058594,385.3333435058594,385.3333435058594,385.3333435058594,385.3333435058594,385.3333435058594,385.3333435058594,385.3333435058594,386,386,386,386,386,386,386,386,386,386,386.66668701171875,386.66668701171875,386.66668701171875,386.66668701171875,386.66668701171875,426,448.66668701171875,487.3333435058594,503.3333435058594,542,578.6666870117188,594,637.3333740234375,663.3333740234375,687.3333740234375,696.6666870117188,713.3333740234375,732.6666870117188,744,746.6666870117188],"ymouse":[862,862,862,862,862,862,862,862,862,862,862,862.6666870117188,862.6666870117188,862.6666870117188,862.6666870117188,862.6666870117188,862.6666870117188,862.6666870117188,862.6666870117188,862.6666870117188,862.6666870117188,862.6666870117188,862.6666870117188,863.3333740234375,863.3333740234375,863.3333740234375,863.3333740234375,863.3333740234375,863.3333740234375,863.3333740234375,863.3333740234375,863.3333740234375,864,864,864,864,864,864,862.6666870117188,862.6666870117188,862.6666870117188,862.6666870117188,862.6666870117188,783.3333740234375,744,676,648.6666870117188,590,528.6666870117188,502,408.66668701171875,346,285.3333435058594,257.3333435058594,204.6666717529297,136,100.66667175292969,86.66667175292969],"timestamp_mouse":[11,37,48,68,88,108,127,148,168,188,208,228,248,268,288,308,328,348,368,388,408,428,448,468,488,508,528,548,568,588,608,628,648,668,688,707,728,748,767,788,810,828,848,868,888,908,928,948,968,988,1009,1029,1048,1068,1088,1109,1128,1148],"xSR":350,"ySR":768,"xT1":30,"yT1":0,"xT2":670,"yT2":0,"toosoon":0,"cond_shown":"randomdotsizeEA","ratio_trial":900,"smaller_num":"18","larger_num":"20","correct_side":2,"subjID":"12","gender":"No_gender","age":"No_age","school":"No_school"},{"start_time":1549309654552,"click_time":1549309655726,"finger_time":1549309655406,"fix_duration":1316.827514029874,"trial":8,"RT":854,"MT":320,"sideResp":1,"stimulus":"img/500/randomdotsize/L/11_Ratio_500_L_12_R_6.png","xmouse":[442.66668701171875,442.66668701171875,442.66668701171875,442.66668701171875,442.66668701171875,442.66668701171875,442.66668701171875,442.66668701171875,442.66668701171875,442.66668701171875,442.66668701171875,442.66668701171875,442.66668701171875,442.66668701171875,442.66668701171875,442.66668701171875,442.66668701171875,442.66668701171875,442.66668701171875,442.66668701171875,443.3333435058594,443.3333435058594,443.3333435058594,443.3333435058594,443.3333435058594,443.3333435058594,443.3333435058594,443.3333435058594,443.3333435058594,443.3333435058594,442.66668701171875,442.66668701171875,442.66668701171875,442.66668701171875,442.66668701171875,442.66668701171875,442.66668701171875,442.66668701171875,442.66668701171875,442.66668701171875,438.66668701171875,438.66668701171875,416.66668701171875,397.3333435058594,389.3333435058594,374,345.3333435058594,323.3333435058594,312,288,267.3333435058594,239.33334350585938,229.33334350585938,210.6666717529297,191.33334350585938,181.33334350585938,151.33334350585938,134,119.33333587646484,113.33333587646484],"ymouse":[827.3333740234375,827.3333740234375,827.3333740234375,827.3333740234375,827.3333740234375,827.3333740234375,827.3333740234375,827.3333740234375,827.3333740234375,827.3333740234375,826.6666870117188,826.6666870117188,826.6666870117188,826.6666870117188,826.6666870117188,826.6666870117188,826.6666870117188,826.6666870117188,826.6666870117188,826.6666870117188,826.6666870117188,826.6666870117188,826.6666870117188,826.6666870117188,826.6666870117188,826.6666870117188,826.6666870117188,826.6666870117188,826.6666870117188,826.6666870117188,824,824,824,824,824,824,824,824,824,824,815.3333740234375,815.3333740234375,779.3333740234375,742.6666870117188,722.6666870117188,681.3333740234375,610.6666870117188,562.6666870117188,537.3333740234375,486,433.3333435058594,354,328,278,234.6666717529297,215.33334350585938,164,135.33334350585938,110.66667175292969,99.33333587646484],"timestamp_mouse":[4,20,43,54,74,94,114,134,154,174,194,214,234,254,274,294,313,334,354,374,394,414,434,454,474,494,514,534,554,574,594,617,634,654,674,694,715,734,754,774,794,814,834,854,875,895,916,934,953,973,994,1015,1034,1054,1074,1094,1116,1133,1154,1174],"xSR":350,"ySR":768,"xT1":30,"yT1":0,"xT2":670,"yT2":0,"toosoon":0,"cond_shown":"randomdotsize","ratio_trial":500,"smaller_num":"6","larger_num":"12","correct_side":1,"subjID":"12","gender":"No_gender","age":"No_age","school":"No_school"},{"start_time":1549309657025,"click_time":1549309658127,"finger_time":1549309657846,"fix_duration":602.656285683826,"trial":9,"RT":821,"MT":281,"sideResp":1,"stimulus":"img/900/equaldotanddens/L/10_Ratio_900_L_20_R_18.png","xmouse":[414,414,414,414,414,414,414,414,414,413.3333435058594,413.3333435058594,413.3333435058594,413.3333435058594,413.3333435058594,413.3333435058594,413.3333435058594,413.3333435058594,413.3333435058594,413.3333435058594,412,412,412,412,412,412,412,412,412,412,411.3333435058594,411.3333435058594,411.3333435058594,411.3333435058594,411.3333435058594,411.3333435058594,411.3333435058594,411.3333435058594,411.3333435058594,411.3333435058594,396,396,365.3333435058594,355.3333435058594,314,304,282,258.66668701171875,246.6666717529297,204,174,146.6666717529297,134.6666717529297,111.33333587646484,80.66667175292969,60.66667175292969,50],"ymouse":[827.3333740234375,827.3333740234375,827.3333740234375,827.3333740234375,827.3333740234375,827.3333740234375,827.3333740234375,827.3333740234375,827.3333740234375,829.3333740234375,829.3333740234375,829.3333740234375,829.3333740234375,829.3333740234375,829.3333740234375,829.3333740234375,829.3333740234375,829.3333740234375,829.3333740234375,828.6666870117188,828.6666870117188,828.6666870117188,828.6666870117188,828.6666870117188,828.6666870117188,828.6666870117188,828.6666870117188,828.6666870117188,828.6666870117188,826.6666870117188,826.6666870117188,826.6666870117188,826.6666870117188,826.6666870117188,826.6666870117188,826.6666870117188,826.6666870117188,826.6666870117188,826.6666870117188,805.3333740234375,805.3333740234375,764,747.3333740234375,658,630.6666870117188,572.6666870117188,512,485.3333435058594,397.3333435058594,341.3333435058594,284.66668701171875,255.33334350585938,203.33334350585938,136.6666717529297,104.66667175292969,90.66667175292969],"timestamp_mouse":[6,23,41,61,81,101,121,141,161,181,200,221,241,261,281,301,321,341,361,382,401,421,441,461,480,501,521,541,561,581,601,620,641,661,681,701,721,741,761,782,801,821,841,861,881,901,921,941,962,981,1000,1021,1041,1061,1081,1101],"xSR":350,"ySR":768,"xT1":30,"yT1":0,"xT2":670,"yT2":0,"toosoon":0,"cond_shown":"equaldotanddens","ratio_trial":900,"smaller_num":"18","larger_num":"20","correct_side":1,"subjID":"12","gender":"No_gender","age":"No_age","school":"No_school"},{"start_time":1549309659527,"click_time":1549309660467,"finger_time":1549309660226,"fix_duration":759.7288986464362,"trial":10,"RT":699,"MT":241,"sideResp":2,"stimulus":"img/250/equaldotanddens/R/12_Ratio_250_L_5_R_20.png","xmouse":[371.3333435058594,371.3333435058594,371.3333435058594,370.66668701171875,370.66668701171875,370.66668701171875,370.66668701171875,370.66668701171875,370.66668701171875,370.66668701171875,370.66668701171875,370.66668701171875,370.66668701171875,370.66668701171875,374,374,374,374,375.3333435058594,376,376,376,376,376,376,376,376,376,376,376,376,376,376,376,401.3333435058594,408,423.3333435058594,431.3333435058594,452.66668701171875,493.3333435058594,518.6666870117188,533.3333740234375,560.6666870117188,586,622.6666870117188,648.6666870117188,660,680.6666870117188],"ymouse":[837.3333740234375,837.3333740234375,837.3333740234375,838,838.6666870117188,838.6666870117188,838.6666870117188,838.6666870117188,838.6666870117188,838.6666870117188,838.6666870117188,838.6666870117188,838.6666870117188,838.6666870117188,846,846,846,846,848,848.6666870117188,848.6666870117188,848.6666870117188,848.6666870117188,848.6666870117188,848.6666870117188,848.6666870117188,848.6666870117188,848.6666870117188,848.6666870117188,848.6666870117188,848.6666870117188,848.6666870117188,848.6666870117188,848.6666870117188,779.3333740234375,761.3333740234375,717.3333740234375,693.3333740234375,639.3333740234375,546,480,446,376,309.3333435058594,218,162.6666717529297,138,96],"timestamp_mouse":[1,30,39,59,79,99,119,139,159,181,199,219,239,259,279,299,319,339,359,379,399,418,439,459,479,498,519,539,559,579,599,619,639,658,679,699,719,739,759,779,800,819,839,858,879,899,919,939],"xSR":350,"ySR":768,"xT1":30,"yT1":0,"xT2":670,"yT2":0,"toosoon":0,"cond_shown":"equaldotanddens","ratio_trial":250,"smaller_num":"5","larger_num":"20","correct_side":2,"subjID":"12","gender":"No_gender","age":"No_age","school":"No_school"},{"start_time":1549309664108,"click_time":1549309665246,"finger_time":1549309664986,"fix_duration":1360.211968467162,"trial":11,"RT":878,"MT":260,"sideResp":2,"stimulus":"img/250/equaldotsize/R/6_Ratio_250_L_6_R_24.png","xmouse":[394.66668701171875,394.66668701171875,394.66668701171875,394.66668701171875,394.66668701171875,393.3333435058594,393.3333435058594,392.66668701171875,392.66668701171875,392.66668701171875,392,392,391.3333435058594,391.3333435058594,390.66668701171875,390.66668701171875,390.66668701171875,390,390,390,390,389.3333435058594,389.3333435058594,389.3333435058594,388.66668701171875,388,388,388,388,388,388,388,388,388,388,388.66668701171875,388.66668701171875,388.66668701171875,388.66668701171875,388.66668701171875,388.66668701171875,388.66668701171875,388.66668701171875,424.66668701171875,440.66668701171875,472,483.3333435058594,507.3333435058594,532.6666870117188,544.6666870117188,569.3333740234375,606.6666870117188,630.6666870117188,641.3333740234375,662,682.6666870117188,710.6666870117188],"ymouse":[840,840,840,840,840,837.3333740234375,837.3333740234375,836.6666870117188,836,836,835.3333740234375,834.6666870117188,834,834,833.3333740234375,832.6666870117188,832,832,831.3333740234375,831.3333740234375,830.6666870117188,830,829.3333740234375,829.3333740234375,829.3333740234375,829.3333740234375,829.3333740234375,829.3333740234375,829.3333740234375,829.3333740234375,828.6666870117188,828.6666870117188,828.6666870117188,828.6666870117188,828,828,828,828,828,828,828,828,828,750.6666870117188,711.3333740234375,637.3333740234375,610.6666870117188,554,495.3333435058594,468.66668701171875,411.3333435058594,322.66668701171875,265.3333435058594,238.6666717529297,186,139.33334350585938,82],"timestamp_mouse":[34,38,58,78,98,119,138,158,178,198,218,238,258,278,298,318,338,358,378,398,418,438,458,478,498,519,538,558,578,598,619,637,658,678,698,718,738,758,778,798,818,837,858,877,898,919,938,958,978,998,1018,1038,1058,1078,1098,1118,1138],"xSR":350,"ySR":768,"xT1":30,"yT1":0,"xT2":670,"yT2":0,"toosoon":0,"cond_shown":"equaldotsize","ratio_trial":250,"smaller_num":"6","larger_num":"24","correct_side":2,"subjID":"12","gender":"No_gender","age":"No_age","school":"No_school"},{"start_time":1549309666724,"click_time":1549309667826,"finger_time":1549309667506,"fix_duration":857.3856149446533,"trial":12,"RT":782,"MT":320,"sideResp":1,"stimulus":"img/250/equaldotsize/L/1_Ratio_250_L_8_R_2.png","xmouse":[388,392,392,392,391.3333435058594,391.3333435058594,391.3333435058594,391.3333435058594,391.3333435058594,391.3333435058594,391.3333435058594,391.3333435058594,391.3333435058594,391.3333435058594,393.3333435058594,394,394,394,394,394,394,394,394,394,393.3333435058594,393.3333435058594,393.3333435058594,393.3333435058594,393.3333435058594,393.3333435058594,393.3333435058594,393.3333435058594,393.3333435058594,393.3333435058594,391.3333435058594,391.3333435058594,391.3333435058594,391.3333435058594,391.3333435058594,372.66668701171875,357.3333435058594,333.3333435058594,316,306.66668701171875,288,278,236,224,203.33334350585938,194,175.33334350585938,150,136,130.6666717529297,122,114],"ymouse":[805.3333740234375,809.3333740234375,809.3333740234375,808.6666870117188,808.6666870117188,808.6666870117188,808.6666870117188,808.6666870117188,808.6666870117188,808.6666870117188,808.6666870117188,808.6666870117188,808.6666870117188,808.6666870117188,810,810.6666870117188,810.6666870117188,810.6666870117188,810,810,810,810,810,810,809.3333740234375,809.3333740234375,809.3333740234375,809.3333740234375,809.3333740234375,809.3333740234375,809.3333740234375,809.3333740234375,809.3333740234375,809.3333740234375,804,804,804,804,804,764,730,672,628.6666870117188,605.3333740234375,555.3333740234375,529.3333740234375,425.3333435058594,396.66668701171875,344.66668701171875,320,268.66668701171875,198.6666717529297,156,137.33334350585938,106,82],"timestamp_mouse":[2,41,42,62,82,102,123,142,162,182,201,223,242,262,282,302,322,341,362,382,402,422,442,462,482,502,523,542,562,582,602,622,642,662,682,702,722,742,761,782,802,823,842,862,882,902,924,941,963,982,1002,1024,1042,1062,1082,1102],"xSR":350,"ySR":768,"xT1":30,"yT1":0,"xT2":670,"yT2":0,"toosoon":0,"cond_shown":"equaldotsize","ratio_trial":250,"smaller_num":"2","larger_num":"8","correct_side":1,"subjID":"12","gender":"No_gender","age":"No_age","school":"No_school"},{"start_time":1549309669310,"click_time":1549309670446,"finger_time":1549309670166,"fix_duration":802.7623387591146,"trial":13,"RT":856,"MT":280,"sideResp":2,"stimulus":"img/900/randomdotsizeEA/L/8_Ratio_900_L_20_R_18.png","xmouse":[416,416,416,416,416,416,416,416,416,416,416,416,416,416,416,416,416,416,416,416,416,416,416,416,416,416,416,416,416,416,416,416,416,416,416,416,416,416,416,416,425.3333435058594,430,455.3333435058594,462,477.3333435058594,487.3333435058594,506.66668701171875,538,559.3333740234375,572.6666870117188,602,633.3333740234375,672.6666870117188,684,702,710.6666870117188,723.3333740234375],"ymouse":[853.3333740234375,853.3333740234375,853.3333740234375,853.3333740234375,853.3333740234375,853.3333740234375,853.3333740234375,852.6666870117188,852.6666870117188,852.6666870117188,852.6666870117188,852.6666870117188,852.6666870117188,852.6666870117188,852.6666870117188,852.6666870117188,852.6666870117188,852,852,852,852,852,852,852,852,852,852,852,852,852,851.3333740234375,851.3333740234375,851.3333740234375,851.3333740234375,851.3333740234375,851.3333740234375,851.3333740234375,851.3333740234375,851.3333740234375,851.3333740234375,824,810.6666870117188,742.6666870117188,724,678.6666870117188,653.3333740234375,600,512,449.3333435058594,420,352,287.3333435058594,198.6666717529297,173.33334350585938,126,105.33333587646484,70.66667175292969],"timestamp_mouse":[16,37,56,76,96,116,136,156,176,196,216,236,256,276,296,316,336,355,376,396,415,436,456,476,496,516,536,556,576,596,616,636,656,676,696,716,736,756,776,796,816,836,856,876,896,916,936,957,977,996,1016,1036,1058,1076,1096,1116,1136],"xSR":350,"ySR":768,"xT1":30,"yT1":0,"xT2":670,"yT2":0,"toosoon":0,"cond_shown":"randomdotsizeEA","ratio_trial":900,"smaller_num":"18","larger_num":"20","correct_side":1,"subjID":"12","gender":"No_gender","age":"No_age","school":"No_school"},{"start_time":1549309672178,"click_time":1549309673126,"finger_time":1549309672866,"fix_duration":1010.6229460044817,"trial":14,"RT":688,"MT":260,"sideResp":1,"stimulus":"img/250/equaldotsize/L/3_Ratio_250_L_8_R_2.png","xmouse":[406.66668701171875,406.66668701171875,406.66668701171875,404.66668701171875,404.66668701171875,404.66668701171875,403.3333435058594,403.3333435058594,403.3333435058594,403.3333435058594,403.3333435058594,403.3333435058594,403.3333435058594,404.66668701171875,404.66668701171875,404.66668701171875,404.66668701171875,404.66668701171875,404.66668701171875,404.66668701171875,404.66668701171875,404.66668701171875,402.66668701171875,402.66668701171875,402,402,402,402,402,402,402,372,362.66668701171875,344.66668701171875,314,292.66668701171875,270.66668701171875,259.3333435058594,238.6666717529297,209.33334350585938,189.33334350585938,180.6666717529297,162.6666717529297,154,138,118,107.33333587646484],"ymouse":[834,834,834,832,832,832,832,832,832,832,832,832,832,832,832,832,832,832,832,832,832,832,832,832,832,832,832,832,832,832,832,786.6666870117188,770.6666870117188,736.6666870117188,676.6666870117188,628,574.6666870117188,546,490.66668701171875,404,342,312.66668701171875,255.33334350585938,228,177.33334350585938,112,78.66667175292969],"timestamp_mouse":[33,48,68,88,108,128,148,168,188,208,228,248,268,287,309,328,347,368,388,408,428,448,468,488,509,528,548,568,587,609,628,648,668,688,709,728,747,768,788,809,828,848,868,888,908,928,947],"xSR":350,"ySR":768,"xT1":30,"yT1":0,"xT2":670,"yT2":0,"toosoon":0,"cond_shown":"equaldotsize","ratio_trial":250,"smaller_num":"2","larger_num":"8","correct_side":1,"subjID":"12","gender":"No_gender","age":"No_age","school":"No_school"},{"start_time":1549309675237,"click_time":1549309676587,"finger_time":1549309676307,"fix_duration":1448.0271115529906,"trial":15,"RT":1070,"MT":280,"sideResp":2,"stimulus":"img/500/equaldotanddens/R/2_Ratio_500_L_3_R_6.png","xmouse":[411.3333435058594,411.3333435058594,411.3333435058594,411.3333435058594,411.3333435058594,411.3333435058594,411.3333435058594,411.3333435058594,412,412,412,412,412,412,412,412,412,412,412,412,412,412,412,412,412,412,412,412,411.3333435058594,411.3333435058594,411.3333435058594,411.3333435058594,411.3333435058594,411.3333435058594,411.3333435058594,411.3333435058594,411.3333435058594,411.3333435058594,411.3333435058594,413.3333435058594,413.3333435058594,413.3333435058594,413.3333435058594,413.3333435058594,413.3333435058594,413.3333435058594,413.3333435058594,413.3333435058594,413.3333435058594,413.3333435058594,414,414,414,460,468.66668701171875,488,497.3333435058594,516.6666870117188,542.6666870117188,562.6666870117188,585.3333740234375,596.6666870117188,621.3333740234375,656.6666870117188,676.6666870117188,686.6666870117188,704,712.6666870117188],"ymouse":[845.3333740234375,845.3333740234375,845.3333740234375,845.3333740234375,845.3333740234375,845.3333740234375,845.3333740234375,845.3333740234375,845.3333740234375,845.3333740234375,845.3333740234375,845.3333740234375,845.3333740234375,845.3333740234375,845.3333740234375,845.3333740234375,845.3333740234375,845.3333740234375,844.6666870117188,844.6666870117188,844.6666870117188,844.6666870117188,844.6666870117188,844.6666870117188,844.6666870117188,844.6666870117188,844.6666870117188,844.6666870117188,844.6666870117188,844.6666870117188,844.6666870117188,844.6666870117188,844.6666870117188,844.6666870117188,844.6666870117188,844.6666870117188,844.6666870117188,844.6666870117188,844.6666870117188,840.6666870117188,840.6666870117188,840.6666870117188,840.6666870117188,840.6666870117188,840.6666870117188,840.6666870117188,840.6666870117188,840.6666870117188,840.6666870117188,826.6666870117188,822,822,822,711.3333740234375,691.3333740234375,647.3333740234375,622.6666870117188,573.3333740234375,498,444,386.66668701171875,358,302,222.6666717529297,173.33334350585938,150.6666717529297,110,91.33333587646484],"timestamp_mouse":[9,30,49,69,89,109,129,149,170,189,209,229,249,269,289,309,329,349,369,389,409,429,448,469,489,509,530,549,570,589,609,629,649,670,689,709,729,749,769,789,809,829,849,869,889,909,929,949,969,990,1009,1029,1049,1070,1089,1109,1129,1149,1171,1189,1209,1229,1249,1271,1289,1309,1329,1349],"xSR":350,"ySR":768,"xT1":30,"yT1":0,"xT2":670,"yT2":0,"toosoon":0,"cond_shown":"equaldotanddens","ratio_trial":500,"smaller_num":"3","larger_num":"6","correct_side":2,"subjID":"12","gender":"No_gender","age":"No_age","school":"No_school"},{"start_time":1549309677546,"click_time":1549309678807,"finger_time":1549309678426,"fix_duration":250,"trial":16,"RT":880,"MT":381,"sideResp":1,"stimulus":"img/900/equaldotsize/R/6_Ratio_900_L_9_R_10.png","xmouse":[408.66668701171875,408.66668701171875,408.66668701171875,408.66668701171875,408.66668701171875,408.66668701171875,408.66668701171875,408.66668701171875,408.66668701171875,408,408,408,408,408,408,408,408,407.3333435058594,407.3333435058594,407.3333435058594,407.3333435058594,407.3333435058594,407.3333435058594,407.3333435058594,407.3333435058594,407.3333435058594,407.3333435058594,408,408,408,408,408,408,408,408,408,408,406.66668701171875,406.66668701171875,406.66668701171875,406.66668701171875,380,362,354,329.3333435058594,313.3333435058594,297.3333435058594,290,276.66668701171875,258,249.33334350585938,244,234,228.6666717529297,208,202.6666717529297,192.6666717529297,181.33334350585938,176,165.33334350585938,150,143.33334350585938,132,118],"ymouse":[846,846,846,846,846,846,846,846,846,845.3333740234375,845.3333740234375,845.3333740234375,845.3333740234375,845.3333740234375,845.3333740234375,845.3333740234375,845.3333740234375,845.3333740234375,845.3333740234375,845.3333740234375,845.3333740234375,845.3333740234375,845.3333740234375,845.3333740234375,845.3333740234375,845.3333740234375,845.3333740234375,846.6666870117188,846.6666870117188,846.6666870117188,846.6666870117188,846.6666870117188,846.6666870117188,846.6666870117188,846.6666870117188,846.6666870117188,846.6666870117188,846,846,846,846,810.6666870117188,784.6666870117188,770.6666870117188,721.3333740234375,682,640.6666870117188,617.3333740234375,574.6666870117188,504.66668701171875,461.3333435058594,438.66668701171875,396,375.3333435058594,294,273.3333435058594,236,199.33334350585938,182,148.6666717529297,107.33333587646484,95.33333587646484,77.33333587646484,59.333335876464844],"timestamp_mouse":[7,26,43,60,79,100,120,140,160,180,200,220,240,260,280,300,320,340,360,380,400,420,440,460,479,500,520,539,560,580,600,620,640,660,680,700,720,740,760,780,800,820,840,860,880,900,920,940,960,981,1000,1020,1040,1060,1081,1100,1120,1140,1160,1180,1200,1220,1240,1260],"xSR":350,"ySR":768,"xT1":30,"yT1":0,"xT2":670,"yT2":0,"toosoon":0,"cond_shown":"equaldotsize","ratio_trial":900,"smaller_num":"9","larger_num":"10","correct_side":2,"subjID":"12","gender":"No_gender","age":"No_age","school":"No_school"},{"start_time":1549309679798,"click_time":1549309680906,"finger_time":1549309680606,"fix_duration":250,"trial":17,"RT":808,"MT":300,"sideResp":1,"stimulus":"img/250/equaldotanddens/L/3_Ratio_250_L_8_R_2.png","xmouse":[402,402,402,402,402,402,402,402,401.3333435058594,401.3333435058594,401.3333435058594,401.3333435058594,401.3333435058594,400.66668701171875,400.66668701171875,400,400,400,400,400,400,400,400,400.66668701171875,400.66668701171875,400.66668701171875,400.66668701171875,400.66668701171875,400.66668701171875,400.66668701171875,400.66668701171875,400.66668701171875,400.66668701171875,400,400,400,400,400,382,374,355.3333435058594,346.66668701171875,317.3333435058594,296,272.66668701171875,259.3333435058594,232.6666717529297,193.33334350585938,166,152,127.33334350585938,116,79.33333587646484,72,60,54.66666793823242],"ymouse":[823.3333740234375,823.3333740234375,824,824,824,824,824,824,824.6666870117188,824.6666870117188,824.6666870117188,824.6666870117188,824.6666870117188,824.6666870117188,824.6666870117188,825.3333740234375,825.3333740234375,825.3333740234375,825.3333740234375,825.3333740234375,825.3333740234375,825.3333740234375,825.3333740234375,824.6666870117188,824.6666870117188,824.6666870117188,824.6666870117188,824.6666870117188,824.6666870117188,824.6666870117188,824.6666870117188,824.6666870117188,824.6666870117188,821.3333740234375,821.3333740234375,821.3333740234375,821.3333740234375,821.3333740234375,790.6666870117188,776.6666870117188,742,724.6666870117188,668,624,575.3333740234375,550,498,421.3333435058594,369.3333435058594,343.3333435058594,292.66668701171875,267.3333435058594,171.33334350585938,149.33334350585938,112.66667175292969,95.33333587646484],"timestamp_mouse":[8,28,48,68,88,108,128,148,168,188,208,228,249,268,288,307,328,347,368,388,408,428,448,468,488,508,528,548,568,588,608,628,648,668,688,708,727,748,768,788,808,828,849,868,888,908,928,948,968,988,1008,1028,1049,1068,1088,1107],"xSR":350,"ySR":768,"xT1":30,"yT1":0,"xT2":670,"yT2":0,"toosoon":0,"cond_shown":"equaldotanddens","ratio_trial":250,"smaller_num":"2","larger_num":"8","correct_side":1,"subjID":"12","gender":"No_gender","age":"No_age","school":"No_school"},{"start_time":1549309682476,"click_time":1549309683468,"finger_time":1549309683185,"fix_duration":888.9641263160382,"trial":18,"RT":709,"MT":283,"sideResp":1,"stimulus":"img/250/randomdotsize/L/2_Ratio_250_L_16_R_4.png","xmouse":[387.3333435058594,387.3333435058594,387.3333435058594,388,388,388,388,388,388,388.66668701171875,388.66668701171875,388.66668701171875,388.66668701171875,388.66668701171875,388.66668701171875,388.66668701171875,388.66668701171875,388.66668701171875,388.66668701171875,389.3333435058594,389.3333435058594,389.3333435058594,389.3333435058594,389.3333435058594,389.3333435058594,389.3333435058594,389.3333435058594,389.3333435058594,389.3333435058594,389.3333435058594,389.3333435058594,389.3333435058594,389.3333435058594,389.3333435058594,351.3333435058594,342.66668701171875,323.3333435058594,312.66668701171875,291.3333435058594,256.66668701171875,233.33334350585938,220.6666717529297,198.6666717529297,175.33334350585938,142.6666717529297,132.6666717529297,113.33333587646484,97.33333587646484,90,74],"ymouse":[856.6666870117188,856.6666870117188,856.6666870117188,857.3333740234375,857.3333740234375,857.3333740234375,857.3333740234375,857.3333740234375,857.3333740234375,857.3333740234375,857.3333740234375,857.3333740234375,857.3333740234375,857.3333740234375,857.3333740234375,857.3333740234375,857.3333740234375,857.3333740234375,857.3333740234375,857.3333740234375,856.6666870117188,856.6666870117188,856.6666870117188,856.6666870117188,856,856,856,856,856,856,856,856,856,856,772.6666870117188,754,714,691.3333740234375,642,560.6666870117188,506,475.3333435058594,417.3333435058594,360,277.3333435058594,250.66668701171875,200,154,132.6666717529297,81.33333587646484],"timestamp_mouse":[10,41,50,70,90,110,130,151,170,190,210,230,250,270,290,310,330,350,370,390,412,430,450,470,490,510,530,549,570,590,610,630,650,670,691,709,730,750,770,790,810,830,850,870,890,910,930,950,970,992],"xSR":350,"ySR":768,"xT1":30,"yT1":0,"xT2":670,"yT2":0,"toosoon":0,"cond_shown":"randomdotsize","ratio_trial":250,"smaller_num":"4","larger_num":"16","correct_side":1,"subjID":"12","gender":"No_gender","age":"No_age","school":"No_school"},{"start_time":1549309685510,"click_time":1549309686526,"finger_time":1549309686265,"fix_duration":1396.5876986315916,"trial":19,"RT":755,"MT":261,"sideResp":2,"stimulus":"img/500/randomdotsizeEA/R/2_Ratio_500_L_3_R_6.png","xmouse":[420,420,420,420,420,420,420,420,420,420,420,420,420,420,420,420,419.3333435058594,419.3333435058594,419.3333435058594,419.3333435058594,419.3333435058594,419.3333435058594,419.3333435058594,419.3333435058594,419.3333435058594,419.3333435058594,419.3333435058594,419.3333435058594,419.3333435058594,419.3333435058594,419.3333435058594,419.3333435058594,419.3333435058594,419.3333435058594,419.3333435058594,419.3333435058594,436,442.66668701171875,474,483.3333435058594,502,512.6666870117188,530.6666870117188,563.3333740234375,588.6666870117188,617.3333740234375,632.6666870117188,660.6666870117188,700,724.6666870117188,736],"ymouse":[850.6666870117188,850.6666870117188,850.6666870117188,851.3333740234375,851.3333740234375,851.3333740234375,851.3333740234375,851.3333740234375,851.3333740234375,851.3333740234375,851.3333740234375,851.3333740234375,851.3333740234375,851.3333740234375,851.3333740234375,851.3333740234375,851.3333740234375,851.3333740234375,851.3333740234375,851.3333740234375,851.3333740234375,851.3333740234375,851.3333740234375,851.3333740234375,851.3333740234375,851.3333740234375,851.3333740234375,851.3333740234375,850.6666870117188,850.6666870117188,850.6666870117188,850.6666870117188,850.6666870117188,850.6666870117188,850.6666870117188,850.6666870117188,786.6666870117188,766.6666870117188,684,660.6666870117188,611.3333740234375,585.3333740234375,531.3333740234375,446.66668701171875,386.66668701171875,325.3333435058594,295.3333435058594,235.33334350585938,153.33334350585938,104.66667175292969,84.66667175292969],"timestamp_mouse":[7,41,56,76,96,116,136,156,176,196,216,236,256,276,296,316,336,356,376,396,416,436,456,475,496,515,536,556,577,596,616,636,656,680,696,716,736,755,777,796,816,836,856,877,896,916,935,956,976,996,1016],"xSR":350,"ySR":768,"xT1":30,"yT1":0,"xT2":670,"yT2":0,"toosoon":0,"cond_shown":"randomdotsizeEA","ratio_trial":500,"smaller_num":"3","larger_num":"6","correct_side":2,"subjID":"12","gender":"No_gender","age":"No_age","school":"No_school"},{"start_time":1549309687955,"click_time":1549309688966,"finger_time":1549309688686,"fix_duration":748.9939649203244,"trial":20,"RT":731,"MT":280,"sideResp":1,"stimulus":"img/500/equaldotanddens/L/5_Ratio_500_L_4_R_2.png","xmouse":[404,404,404,403.3333435058594,403.3333435058594,403.3333435058594,402.66668701171875,402.66668701171875,402.66668701171875,402.66668701171875,402.66668701171875,402.66668701171875,402.66668701171875,402.66668701171875,402,402,402,402,402,402,402,402,402,402,401.3333435058594,401.3333435058594,401.3333435058594,401.3333435058594,400.66668701171875,400.66668701171875,400.66668701171875,400.66668701171875,400.66668701171875,400.66668701171875,400.66668701171875,370,362.66668701171875,328.66668701171875,319.3333435058594,298.66668701171875,288,266,237.33334350585938,219.33334350585938,210.6666717529297,195.33334350585938,177.33334350585938,154,145.33334350585938,128.6666717529297,114],"ymouse":[850,850,850,850.6666870117188,850.6666870117188,850.6666870117188,850,850,850,850,850,850,850,850,850,850,850,850,850,850,850,850,850,850,850,850,850,850,849.3333740234375,848.6666870117188,848.6666870117188,848.6666870117188,848.6666870117188,848.6666870117188,848.6666870117188,783.3333740234375,765.3333740234375,681.3333740234375,657.3333740234375,606,579.3333740234375,522.6666870117188,440,379.3333435058594,349.3333435058594,290.66668701171875,235.33334350585938,164,144,110.66667175292969,85.33333587646484],"timestamp_mouse":[11,31,51,71,91,111,131,151,171,191,211,231,251,271,291,311,331,351,371,391,410,431,451,470,491,511,531,551,571,591,611,631,652,671,691,711,731,752,771,791,811,831,851,871,891,911,931,952,971,991,1011],"xSR":350,"ySR":768,"xT1":30,"yT1":0,"xT2":670,"yT2":0,"toosoon":0,"cond_shown":"equaldotanddens","ratio_trial":500,"smaller_num":"2","larger_num":"4","correct_side":1,"subjID":"12","gender":"No_gender","age":"No_age","school":"No_school"},{"start_time":1549309691081,"click_time":1549309692207,"finger_time":1549309691846,"fix_duration":1413.1956018369556,"trial":21,"RT":765,"MT":361,"sideResp":1,"stimulus":"img/250/randomdotsizeEA/L/1_Ratio_250_L_8_R_2.png","xmouse":[397.3333435058594,397.3333435058594,397.3333435058594,397.3333435058594,397.3333435058594,397.3333435058594,397.3333435058594,397.3333435058594,397.3333435058594,397.3333435058594,397.3333435058594,397.3333435058594,398,398,398,398,398,398,398,398,398,398,397.3333435058594,397.3333435058594,397.3333435058594,397.3333435058594,397.3333435058594,397.3333435058594,397.3333435058594,397.3333435058594,397.3333435058594,397.3333435058594,395.3333435058594,395.3333435058594,395.3333435058594,395.3333435058594,395.3333435058594,366.66668701171875,362.66668701171875,354,344,339.3333435058594,322.66668701171875,309.3333435058594,296,289.3333435058594,276,253.33334350585938,235.33334350585938,226,208,197.33334350585938,179.33334350585938,153.33334350585938,138.6666717529297,131.33334350585938,119.33333587646484],"ymouse":[851.3333740234375,851.3333740234375,850.6666870117188,850.6666870117188,850.6666870117188,850.6666870117188,850.6666870117188,850.6666870117188,850.6666870117188,850.6666870117188,850.6666870117188,850.6666870117188,850,850,850,850,850,850,850,850,850,850,850,850,850,850,850,850,850,850,850,850,844.6666870117188,844.6666870117188,844.6666870117188,844.6666870117188,844.6666870117188,772.6666870117188,756,725.3333740234375,690,670.6666870117188,605.3333740234375,556,507.3333740234375,480,428,351.3333435058594,304.66668701171875,283.3333435058594,241.33334350585938,222,184.6666717529297,135.33334350585938,108,95.33333587646484,74],"timestamp_mouse":[10,26,45,65,85,105,125,145,165,185,205,225,245,266,285,305,325,344,365,385,405,425,445,465,485,504,525,545,565,585,605,624,647,665,685,705,725,745,765,785,805,825,846,865,885,905,925,945,965,985,1005,1025,1044,1065,1084,1105,1125],"xSR":350,"ySR":768,"xT1":30,"yT1":0,"xT2":670,"yT2":0,"toosoon":0,"cond_shown":"randomdotsizeEA","ratio_trial":250,"smaller_num":"2","larger_num":"8","correct_side":1,"subjID":"12","gender":"No_gender","age":"No_age","school":"No_school"},{"start_time":1549309693889,"click_time":1549309694949,"finger_time":1549309694606,"fix_duration":922.9628172798261,"trial":22,"RT":717,"MT":343,"sideResp":1,"stimulus":"img/250/randomdotsizeEA/L/3_Ratio_250_L_8_R_2.png","xmouse":[419.3333435058594,419.3333435058594,419.3333435058594,419.3333435058594,419.3333435058594,419.3333435058594,419.3333435058594,419.3333435058594,419.3333435058594,419.3333435058594,419.3333435058594,419.3333435058594,415.3333435058594,415.3333435058594,415.3333435058594,415.3333435058594,415.3333435058594,415.3333435058594,415.3333435058594,415.3333435058594,415.3333435058594,415.3333435058594,416,416,416,416,416,416,416,416,416,416,408.66668701171875,406,404.66668701171875,400.66668701171875,395.3333435058594,378,370.66668701171875,354.66668701171875,335.3333435058594,326,296,275.3333435058594,250.66668701171875,237.33334350585938,213.33334350585938,180.6666717529297,160.6666717529297,152.6666717529297,136.6666717529297,124.66667175292969,115.33333587646484],"ymouse":[848,848,845.3333740234375,845.3333740234375,845.3333740234375,845.3333740234375,845.3333740234375,845.3333740234375,845.3333740234375,845.3333740234375,845.3333740234375,845.3333740234375,842.6666870117188,842.6666870117188,842.6666870117188,842.6666870117188,842.6666870117188,842.6666870117188,842.6666870117188,842.6666870117188,842.6666870117188,842.6666870117188,841.3333740234375,841.3333740234375,841.3333740234375,841.3333740234375,841.3333740234375,841.3333740234375,841.3333740234375,841.3333740234375,841.3333740234375,841.3333740234375,822,807.3333740234375,794.6666870117188,759.3333740234375,724,666.6666870117188,644,597.3333740234375,550,524.6666870117188,445.3333435058594,392,342,316.66668701171875,267.3333435058594,200.6666717529297,165.33334350585938,148.6666717529297,122,100,81.33333587646484],"timestamp_mouse":[18,37,58,77,97,117,137,157,177,197,217,238,260,277,297,317,337,357,377,397,417,437,457,477,497,517,537,557,578,597,617,637,657,676,697,717,737,757,777,797,817,837,858,876,898,916,937,960,977,997,1017,1037,1060],"xSR":350,"ySR":768,"xT1":30,"yT1":0,"xT2":670,"yT2":0,"toosoon":0,"cond_shown":"randomdotsizeEA","ratio_trial":250,"smaller_num":"2","larger_num":"8","correct_side":1,"subjID":"12","gender":"No_gender","age":"No_age","school":"No_school"},{"start_time":1549309696964,"click_time":1549309698166,"finger_time":1549309697766,"fix_duration":1297.7101305137376,"trial":23,"RT":802,"MT":400,"sideResp":1,"stimulus":"img/900/randomdotsizeEA/L/2_Ratio_900_L_20_R_18.png","xmouse":[404.66668701171875,404.66668701171875,404.66668701171875,404.66668701171875,404.66668701171875,404.66668701171875,404,404,404,404,404,404,404,404,403.3333435058594,403.3333435058594,403.3333435058594,403.3333435058594,403.3333435058594,403.3333435058594,403.3333435058594,403.3333435058594,403.3333435058594,403.3333435058594,402.66668701171875,402.66668701171875,402.66668701171875,402.66668701171875,400.66668701171875,400.66668701171875,400,399.3333435058594,398.66668701171875,398.66668701171875,398,397.3333435058594,396,394.66668701171875,391.3333435058594,385.3333435058594,374,364,358,344.66668701171875,338,310,302.66668701171875,284.66668701171875,277.3333435058594,261.3333435058594,245.33334350585938,218,207.33334350585938,188.6666717529297,171.33334350585938,164,134,127.33334350585938,113.33333587646484,107.33333587646484,94.66667175292969],"ymouse":[828.6666870117188,828.6666870117188,828.6666870117188,828.6666870117188,828.6666870117188,828.6666870117188,828.6666870117188,828.6666870117188,828.6666870117188,828.6666870117188,828.6666870117188,828.6666870117188,829.3333740234375,829.3333740234375,829.3333740234375,829.3333740234375,829.3333740234375,829.3333740234375,829.3333740234375,828.6666870117188,828.6666870117188,828.6666870117188,828.6666870117188,828.6666870117188,827.3333740234375,827.3333740234375,827.3333740234375,827.3333740234375,824.6666870117188,824,823.3333740234375,822.6666870117188,822,821.3333740234375,820.6666870117188,818.6666870117188,816.6666870117188,814,806.6666870117188,792.6666870117188,758,731.3333740234375,715.3333740234375,684,669.3333740234375,610,594,561.3333740234375,544,512,477.3333435058594,424,405.3333435058594,365.3333435058594,321.3333435058594,298.66668701171875,208,186,144.6666717529297,126,91.33333587646484],"timestamp_mouse":[6,31,42,62,82,102,122,142,162,182,202,222,242,262,282,301,322,342,362,382,402,422,442,462,482,502,522,542,562,582,602,622,642,662,682,703,722,742,762,782,802,822,842,862,882,903,922,942,962,982,1003,1022,1042,1062,1081,1102,1122,1142,1162,1182,1202],"xSR":350,"ySR":768,"xT1":30,"yT1":0,"xT2":670,"yT2":0,"toosoon":0,"cond_shown":"randomdotsizeEA","ratio_trial":900,"smaller_num":"18","larger_num":"20","correct_side":1,"subjID":"12","gender":"No_gender","age":"No_age","school":"No_school"},{"start_time":1549309699834,"click_time":1549309700907,"finger_time":1549309700686,"fix_duration":886.5717148439496,"trial":24,"RT":852,"MT":221,"sideResp":2,"stimulus":"img/900/randomdotsize/R/15_Ratio_900_L_9_R_10.png","xmouse":[426.66668701171875,426.66668701171875,426.66668701171875,425.3333435058594,424.66668701171875,424.66668701171875,424,424,423.3333435058594,423.3333435058594,423.3333435058594,423.3333435058594,423.3333435058594,423.3333435058594,423.3333435058594,423.3333435058594,423.3333435058594,423.3333435058594,423.3333435058594,423.3333435058594,423.3333435058594,423.3333435058594,423.3333435058594,423.3333435058594,423.3333435058594,423.3333435058594,423.3333435058594,424,424,424,424,424,424,424,424,424,424,423.3333435058594,423.3333435058594,423.3333435058594,423.3333435058594,423.3333435058594,442,456.66668701171875,465.3333435058594,485.3333435058594,495.3333435058594,542.6666870117188,557.3333740234375,584,610.6666870117188,624,662.6666870117188,685.3333740234375],"ymouse":[835.3333740234375,835.3333740234375,835.3333740234375,836,836,836.6666870117188,836.6666870117188,837.3333740234375,837.3333740234375,837.3333740234375,837.3333740234375,837.3333740234375,837.3333740234375,837.3333740234375,837.3333740234375,837.3333740234375,837.3333740234375,838.6666870117188,838.6666870117188,838.6666870117188,838.6666870117188,838.6666870117188,838.6666870117188,838.6666870117188,838.6666870117188,838.6666870117188,838.6666870117188,838.6666870117188,838.6666870117188,838.6666870117188,838.6666870117188,838.6666870117188,838.6666870117188,838.6666870117188,838.6666870117188,838.6666870117188,838.6666870117188,827.3333740234375,827.3333740234375,827.3333740234375,827.3333740234375,827.3333740234375,672.6666870117188,620,590.6666870117188,531.3333740234375,500.66668701171875,377.3333435058594,344,282,222,194,122,84],"timestamp_mouse":[12,32,51,72,92,112,132,153,172,193,212,232,252,272,292,312,332,352,372,392,412,432,452,472,492,512,532,552,572,592,612,632,655,672,692,712,732,756,774,792,812,832,852,872,892,912,932,953,972,994,1012,1032,1054,1073],"xSR":350,"ySR":768,"xT1":30,"yT1":0,"xT2":670,"yT2":0,"toosoon":0,"cond_shown":"randomdotsize","ratio_trial":900,"smaller_num":"9","larger_num":"10","correct_side":2,"subjID":"12","gender":"No_gender","age":"No_age","school":"No_school"},{"start_time":1549309701806,"click_time":1549309702787,"finger_time":1549309702486,"fix_duration":250,"trial":25,"RT":680,"MT":301,"sideResp":2,"stimulus":"img/500/equaldotanddens/R/6_Ratio_500_L_9_R_18.png","xmouse":[385.3333435058594,387.3333435058594,387.3333435058594,387.3333435058594,387.3333435058594,387.3333435058594,387.3333435058594,387.3333435058594,387.3333435058594,387.3333435058594,387.3333435058594,392.66668701171875,392.66668701171875,392.66668701171875,392.66668701171875,392.66668701171875,392.66668701171875,392.66668701171875,392.66668701171875,393.3333435058594,393.3333435058594,392.66668701171875,392.66668701171875,392.66668701171875,392.66668701171875,392.66668701171875,392.66668701171875,394.66668701171875,394.66668701171875,394.66668701171875,394.66668701171875,397.3333435058594,397.3333435058594,397.3333435058594,432.66668701171875,468.66668701171875,482.66668701171875,511.3333435058594,542.6666870117188,558.6666870117188,600,627.3333740234375,653.3333740234375,662.6666870117188,680,693.3333740234375,701.3333740234375,704,706.6666870117188,709.3333740234375],"ymouse":[825.3333740234375,824.6666870117188,824.6666870117188,824.6666870117188,824.6666870117188,824.6666870117188,824.6666870117188,824.6666870117188,824.6666870117188,824.6666870117188,824.6666870117188,825.3333740234375,825.3333740234375,825.3333740234375,825.3333740234375,825.3333740234375,825.3333740234375,825.3333740234375,825.3333740234375,822.6666870117188,822.6666870117188,822.6666870117188,822.6666870117188,822.6666870117188,822.6666870117188,822.6666870117188,822.6666870117188,826,826,826,826,821.3333740234375,821.3333740234375,821.3333740234375,743.3333740234375,665.3333740234375,637.3333740234375,575.3333740234375,511.3333740234375,480.66668701171875,392,338,286.66668701171875,264,222.6666717529297,174.6666717529297,148,136.6666717529297,116.66667175292969,98.66667175292969],"timestamp_mouse":[7,34,40,63,80,100,120,140,160,181,199,220,240,260,280,301,320,340,360,387,401,420,440,460,481,501,520,540,560,580,600,620,640,660,680,700,720,740,760,780,800,820,840,860,880,900,920,940,960,979],"xSR":350,"ySR":768,"xT1":30,"yT1":0,"xT2":670,"yT2":0,"toosoon":0,"cond_shown":"equaldotanddens","ratio_trial":500,"smaller_num":"9","larger_num":"18","correct_side":2,"subjID":"12","gender":"No_gender","age":"No_age","school":"No_school"},{"start_time":1549309704596,"click_time":1549309705686,"finger_time":1549309705406,"fix_duration":1028.379811361437,"trial":26,"RT":810,"MT":280,"sideResp":2,"stimulus":"img/750/randomdotsizeEA/L/6_Ratio_750_L_24_R_18.png","xmouse":[421.3333435058594,421.3333435058594,421.3333435058594,421.3333435058594,421.3333435058594,421.3333435058594,421.3333435058594,421.3333435058594,421.3333435058594,420,420,420,420,420,420,420,420,420,420,420,420.66668701171875,420.66668701171875,420.66668701171875,420.66668701171875,420.66668701171875,420.66668701171875,420.66668701171875,420.66668701171875,420.66668701171875,420.66668701171875,422.66668701171875,422.66668701171875,422.66668701171875,422.66668701171875,422.66668701171875,422.66668701171875,422.66668701171875,422.66668701171875,422.66668701171875,450,476,495.3333435058594,506,524.6666870117188,535.3333740234375,571.3333740234375,582,602.6666870117188,612.6666870117188,632.6666870117188,661.3333740234375,678,690,696],"ymouse":[829.3333740234375,829.3333740234375,829.3333740234375,829.3333740234375,829.3333740234375,829.3333740234375,829.3333740234375,829.3333740234375,829.3333740234375,828.6666870117188,828.6666870117188,828.6666870117188,828.6666870117188,828.6666870117188,828.6666870117188,828.6666870117188,828.6666870117188,828.6666870117188,828.6666870117188,828.6666870117188,829.3333740234375,829.3333740234375,829.3333740234375,829.3333740234375,829.3333740234375,829.3333740234375,829.3333740234375,829.3333740234375,829.3333740234375,829.3333740234375,824.6666870117188,824.6666870117188,824.6666870117188,824.6666870117188,824.6666870117188,824.6666870117188,824.6666870117188,824.6666870117188,824.6666870117188,731.3333740234375,664,614.6666870117188,589.3333740234375,538.6666870117188,512.6666870117188,416.66668701171875,388,332.66668701171875,304.66668701171875,250,176.6666717529297,133.33334350585938,100,87.33333587646484],"timestamp_mouse":[33,50,70,90,111,130,150,170,190,212,230,250,270,290,310,330,350,370,390,410,430,450,471,490,510,531,550,570,590,610,631,650,670,690,711,730,750,770,790,810,830,851,870,890,910,930,950,970,990,1010,1031,1050,1070,1090],"xSR":350,"ySR":768,"xT1":30,"yT1":0,"xT2":670,"yT2":0,"toosoon":0,"cond_shown":"randomdotsizeEA","ratio_trial":750,"smaller_num":"18","larger_num":"24","correct_side":1,"subjID":"12","gender":"No_gender","age":"No_age","school":"No_school"},{"start_time":1549309708254,"click_time":1549309709206,"finger_time":1549309708947,"fix_duration":1225.2756685613926,"trial":27,"RT":693,"MT":259,"sideResp":1,"stimulus":"img/750/randomdotsizeEA/L/6_Ratio_750_L_24_R_18.png","xmouse":[410,409.3333435058594,409.3333435058594,409.3333435058594,409.3333435058594,408.66668701171875,408.66668701171875,408.66668701171875,408.66668701171875,408.66668701171875,408.66668701171875,408,408,408,408,408,407.3333435058594,407.3333435058594,407.3333435058594,407.3333435058594,406.66668701171875,406.66668701171875,406.66668701171875,406,406,405.3333435058594,405.3333435058594,405.3333435058594,405.3333435058594,405.3333435058594,405.3333435058594,405.3333435058594,405.3333435058594,405.3333435058594,346,326,304.66668701171875,294,271.3333435058594,234,208,194.6666717529297,170,146,113.33333587646484,104,86.66667175292969,73.33333587646484],"ymouse":[840.6666870117188,840.6666870117188,841.3333740234375,841.3333740234375,842,842,842,842.6666870117188,842.6666870117188,842.6666870117188,842.6666870117188,842.6666870117188,842.6666870117188,842.6666870117188,843.3333740234375,843.3333740234375,843.3333740234375,844,844,844.6666870117188,844.6666870117188,845.3333740234375,845.3333740234375,845.3333740234375,846,846,846,845.3333740234375,845.3333740234375,845.3333740234375,845.3333740234375,845.3333740234375,845.3333740234375,845.3333740234375,740,696,644.6666870117188,617.3333740234375,561.3333740234375,475.3333435058594,416,385.3333435058594,329.3333435058594,274.66668701171875,193.33334350585938,168.6666717529297,124,84],"timestamp_mouse":[12,32,52,72,93,112,132,152,173,192,211,232,252,272,292,312,332,352,372,392,412,432,452,472,492,512,532,552,572,593,612,632,652,672,693,712,732,752,772,793,812,832,852,872,892,912,932,952],"xSR":350,"ySR":768,"xT1":30,"yT1":0,"xT2":670,"yT2":0,"toosoon":0,"cond_shown":"randomdotsizeEA","ratio_trial":750,"smaller_num":"18","larger_num":"24","correct_side":1,"subjID":"12","gender":"No_gender","age":"No_age","school":"No_school"},{"start_time":1549309710137,"click_time":1549309711066,"finger_time":1549309710826,"fix_duration":250,"trial":28,"RT":689,"MT":240,"sideResp":2,"stimulus":"img/250/equaldotsize/R/10_Ratio_250_L_4_R_16.png","xmouse":[436,436,436,436,436,436,436,435.3333435058594,434.66668701171875,434.66668701171875,434.66668701171875,434,434,434,434,434,434,434,433.3333435058594,433.3333435058594,433.3333435058594,433.3333435058594,432.66668701171875,432.66668701171875,432.66668701171875,432.66668701171875,432.66668701171875,432.66668701171875,432.66668701171875,432.66668701171875,432.66668701171875,432.66668701171875,432.66668701171875,432.66668701171875,463.3333435058594,481.3333435058594,504,511.3333435058594,526,540.6666870117188,548,575.3333740234375,596.6666870117188,618.6666870117188,629.3333740234375,651.3333740234375,680],"ymouse":[832.6666870117188,832.6666870117188,832.6666870117188,832.6666870117188,832.6666870117188,832.6666870117188,832.6666870117188,832.6666870117188,833.3333740234375,833.3333740234375,833.3333740234375,833.3333740234375,833.3333740234375,833.3333740234375,833.3333740234375,833.3333740234375,833.3333740234375,833.3333740234375,833.3333740234375,833.3333740234375,833.3333740234375,833.3333740234375,833.3333740234375,833.3333740234375,833.3333740234375,833.3333740234375,833.3333740234375,833.3333740234375,832.6666870117188,832,832,832,832,832,734.6666870117188,675.3333740234375,596,566.6666870117188,505.3333740234375,443.3333435058594,412,323.3333435058594,261.3333435058594,205.33334350585938,178.6666717529297,130,72.66667175292969],"timestamp_mouse":[10,39,49,69,89,109,129,149,169,189,208,229,249,269,290,309,329,349,369,389,409,433,449,469,489,509,529,549,569,589,611,631,649,669,689,709,729,749,769,789,809,828,849,869,889,909,929],"xSR":350,"ySR":768,"xT1":30,"yT1":0,"xT2":670,"yT2":0,"toosoon":0,"cond_shown":"equaldotsize","ratio_trial":250,"smaller_num":"4","larger_num":"16","correct_side":2,"subjID":"12","gender":"No_gender","age":"No_age","school":"No_school"},{"start_time":1549309712267,"click_time":1549309713066,"finger_time":1549309712867,"fix_duration":500.646447379569,"trial":29,"RT":600,"MT":199,"sideResp":2,"stimulus":"img/900/randomdotsizeEA/R/15_Ratio_900_L_9_R_10.png","xmouse":[392.66668701171875,392.66668701171875,392.66668701171875,392.66668701171875,392.66668701171875,392,392,392,392,392,391.3333435058594,391.3333435058594,391.3333435058594,390.66668701171875,390.66668701171875,390.66668701171875,390.66668701171875,390,390,390,390,390,390,390,390,390,390,390,390,470,494,505.3333435058594,527.3333740234375,538.6666870117188,590,605.3333740234375,635.3333740234375,652,683.3333740234375,714],"ymouse":[834,834,834,834,834,834,834,834,834,834.6666870117188,834.6666870117188,834.6666870117188,834.6666870117188,834.6666870117188,835.3333740234375,835.3333740234375,835.3333740234375,835.3333740234375,835.3333740234375,835.3333740234375,835.3333740234375,834.6666870117188,834.6666870117188,833.3333740234375,833.3333740234375,833.3333740234375,833.3333740234375,833.3333740234375,833.3333740234375,689.3333740234375,629.3333740234375,598,532,496.66668701171875,344,302,225.33334350585938,190,122.66667175292969,68.66667175292969],"timestamp_mouse":[36,39,59,79,99,119,139,160,179,199,219,239,259,279,299,319,339,359,379,399,419,439,459,479,499,519,539,559,579,600,620,639,659,679,701,719,739,759,779,799],"xSR":350,"ySR":768,"xT1":30,"yT1":0,"xT2":670,"yT2":0,"toosoon":0,"cond_shown":"randomdotsizeEA","ratio_trial":900,"smaller_num":"9","larger_num":"10","correct_side":2,"subjID":"12","gender":"No_gender","age":"No_age","school":"No_school"},{"start_time":1549309714646,"click_time":1549309715746,"finger_time":1549309715488,"fix_duration":919.0890327620093,"trial":30,"RT":842,"MT":258,"sideResp":2,"stimulus":"img/750/randomdotsizeEA/R/11_Ratio_750_L_12_R_16.png","xmouse":[407.3333435058594,407.3333435058594,407.3333435058594,406,406,406,405.3333435058594,405.3333435058594,405.3333435058594,405.3333435058594,404,404,403.3333435058594,403.3333435058594,403.3333435058594,403.3333435058594,402.66668701171875,402.66668701171875,402.66668701171875,402.66668701171875,402.66668701171875,402.66668701171875,402,402,402,402,402,402,401.3333435058594,401.3333435058594,401.3333435058594,401.3333435058594,400.66668701171875,400,400,400,400,400,400,400.66668701171875,400.66668701171875,400.66668701171875,431.3333435058594,448,456,476,495.3333435058594,528.6666870117188,538.6666870117188,563.3333740234375,592.6666870117188,608.6666870117188,640.6666870117188,690.6666870117188,723.3333740234375,739.3333740234375],"ymouse":[842.6666870117188,843.3333740234375,843.3333740234375,843.3333740234375,844,844,844,843.3333740234375,843.3333740234375,843.3333740234375,843.3333740234375,843.3333740234375,842.6666870117188,842.6666870117188,842.6666870117188,842.6666870117188,842.6666870117188,842.6666870117188,842.6666870117188,842.6666870117188,842.6666870117188,842.6666870117188,842.6666870117188,843.3333740234375,843.3333740234375,843.3333740234375,842.6666870117188,842.6666870117188,842.6666870117188,842,842,842,842,842,841.3333740234375,841.3333740234375,840.6666870117188,839.3333740234375,837.3333740234375,832.6666870117188,832.6666870117188,832.6666870117188,755.3333740234375,721.3333740234375,702,658.6666870117188,610.6666870117188,532.6666870117188,506.66668701171875,444,376,340,272.66668701171875,177.33334350585938,121.33334350585938,97.33333587646484],"timestamp_mouse":[1,20,41,60,80,100,120,141,160,179,199,220,244,260,280,300,320,340,360,380,400,420,440,461,480,500,520,540,560,580,600,620,640,659,680,700,720,742,760,780,800,820,842,860,880,899,920,942,961,980,1000,1019,1039,1060,1079,1100],"xSR":350,"ySR":768,"xT1":30,"yT1":0,"xT2":670,"yT2":0,"toosoon":0,"cond_shown":"randomdotsizeEA","ratio_trial":750,"smaller_num":"12","larger_num":"16","correct_side":2,"subjID":"12","gender":"No_gender","age":"No_age","school":"No_school"},{"start_time":1549309716911,"click_time":1549309718046,"finger_time":1549309717746,"fix_duration":437.9437540316079,"trial":31,"RT":835,"MT":300,"sideResp":2,"stimulus":"img/500/randomdotsize/R/15_Ratio_500_L_1_R_2.png","xmouse":[404,403.3333435058594,403.3333435058594,402.66668701171875,401.3333435058594,401.3333435058594,400.66668701171875,400.66668701171875,400.66668701171875,400,400,400,400,400,399.3333435058594,399.3333435058594,399.3333435058594,399.3333435058594,398.66668701171875,398.66668701171875,398.66668701171875,398.66668701171875,398,398,398,397.3333435058594,397.3333435058594,397.3333435058594,397.3333435058594,397.3333435058594,396.66668701171875,396.66668701171875,396.66668701171875,396,396,396,396,396.66668701171875,396.66668701171875,396.66668701171875,396.66668701171875,416.66668701171875,428.66668701171875,434.66668701171875,453.3333435058594,468,485.3333435058594,494,513.3333740234375,550.6666870117188,580.6666870117188,595.3333740234375,622.6666870117188,649.3333740234375,685.3333740234375,696.6666870117188,716],"ymouse":[822.6666870117188,823.3333740234375,823.3333740234375,824,824.6666870117188,824.6666870117188,825.3333740234375,825.3333740234375,825.3333740234375,825.3333740234375,825.3333740234375,826,826,826,826.6666870117188,826.6666870117188,826.6666870117188,826.6666870117188,826.6666870117188,827.3333740234375,827.3333740234375,827.3333740234375,827.3333740234375,827.3333740234375,828,828,828,828,828.6666870117188,828.6666870117188,829.3333740234375,829.3333740234375,829.3333740234375,829.3333740234375,829.3333740234375,828.6666870117188,828.6666870117188,828,828,828,828,762.6666870117188,725.3333740234375,706,642.6666870117188,593.3333740234375,542,516.6666870117188,466,385.3333435058594,327.3333435058594,298.66668701171875,245.33334350585938,194.6666717529297,129.33334350585938,110,77.33333587646484],"timestamp_mouse":[8,48,55,75,96,115,135,155,175,196,215,235,254,275,295,315,335,355,375,395,415,435,455,475,495,515,535,555,575,595,615,635,655,675,695,715,735,755,775,795,815,835,855,875,897,915,935,955,975,997,1015,1035,1055,1075,1096,1115,1135],"xSR":350,"ySR":768,"xT1":30,"yT1":0,"xT2":670,"yT2":0,"toosoon":0,"cond_shown":"randomdotsize","ratio_trial":500,"smaller_num":"1","larger_num":"2","correct_side":2,"subjID":"12","gender":"No_gender","age":"No_age","school":"No_school"},{"start_time":1549309719267,"click_time":1549309720306,"finger_time":1549309720026,"fix_duration":419.7288465544166,"trial":32,"RT":759,"MT":280,"sideResp":1,"stimulus":"img/500/randomdotsize/L/13_Ratio_500_L_12_R_6.png","xmouse":[409.3333435058594,409.3333435058594,409.3333435058594,409.3333435058594,409.3333435058594,409.3333435058594,409.3333435058594,409.3333435058594,409.3333435058594,409.3333435058594,408.66668701171875,408.66668701171875,408.66668701171875,408.66668701171875,408.66668701171875,408,408,408,407.3333435058594,406.66668701171875,406.66668701171875,406.66668701171875,406,406,406,405.3333435058594,405.3333435058594,405.3333435058594,404.66668701171875,404,404,404,403.3333435058594,402,402,402,402,385.3333435058594,369.3333435058594,362.66668701171875,344.66668701171875,324.66668701171875,314,272,260,238.6666717529297,226.6666717529297,203.33334350585938,168.6666717529297,146.6666717529297,136.6666717529297,118.66667175292969,106],"ymouse":[822.6666870117188,823.3333740234375,823.3333740234375,824,824,824.6666870117188,824.6666870117188,824.6666870117188,825.3333740234375,826,826,826.6666870117188,827.3333740234375,827.3333740234375,828,828,828,828,828.6666870117188,829.3333740234375,829.3333740234375,829.3333740234375,829.3333740234375,829.3333740234375,829.3333740234375,829.3333740234375,829.3333740234375,829.3333740234375,829.3333740234375,829.3333740234375,829.3333740234375,829.3333740234375,828.6666870117188,827.3333740234375,827.3333740234375,827.3333740234375,827.3333740234375,770,717.3333740234375,698.6666870117188,658.6666870117188,614.6666870117188,590.6666870117188,484.66668701171875,454.66668701171875,398.66668701171875,372,316,231.33334350585938,178.6666717529297,153.33334350585938,103.33333587646484,59.333335876464844],"timestamp_mouse":[0,28,39,59,79,99,119,139,159,179,199,219,239,258,278,299,319,340,359,379,400,419,439,459,479,499,519,539,559,580,599,619,639,663,679,699,719,738,759,779,799,819,838,860,879,899,919,939,959,979,999,1019,1039],"xSR":350,"ySR":768,"xT1":30,"yT1":0,"xT2":670,"yT2":0,"toosoon":0,"cond_shown":"randomdotsize","ratio_trial":500,"smaller_num":"6","larger_num":"12","correct_side":1,"subjID":"12","gender":"No_gender","age":"No_age","school":"No_school"},{"start_time":1549309721257,"click_time":1549309722247,"finger_time":1549309721986,"fix_duration":250,"trial":33,"RT":729,"MT":261,"sideResp":1,"stimulus":"img/250/equaldotanddens/L/15_Ratio_250_L_12_R_3.png","xmouse":[409.3333435058594,409.3333435058594,409.3333435058594,409.3333435058594,409.3333435058594,409.3333435058594,409.3333435058594,409.3333435058594,408.66668701171875,408.66668701171875,408.66668701171875,408.66668701171875,408.66668701171875,408.66668701171875,408.66668701171875,408.66668701171875,408.66668701171875,408.66668701171875,408.66668701171875,407.3333435058594,407.3333435058594,407.3333435058594,407.3333435058594,407.3333435058594,407.3333435058594,407.3333435058594,407.3333435058594,407.3333435058594,407.3333435058594,404,404,404,404,404,381.3333435058594,368.66668701171875,361.3333435058594,345.3333435058594,329.3333435058594,305.3333435058594,296.66668701171875,280.66668701171875,260,250.66668701171875,214,189.33334350585938,165.33334350585938,153.33334350585938,130.6666717529297,103.33333587646484],"ymouse":[856,856,856,856,856,856,856,856,856.6666870117188,856,856,856,856,856,856,856,856,856,856,856,856,856,856,856,856,856,856,856,856,854.6666870117188,854.6666870117188,854.6666870117188,854.6666870117188,854.6666870117188,816,785.3333740234375,764.6666870117188,718,666.6666870117188,572.6666870117188,536.6666870117188,460,388,358.66668701171875,264,205.33334350585938,152.6666717529297,127.33334350585938,84,28.666667938232422],"timestamp_mouse":[10,36,49,69,89,109,129,149,173,190,208,229,249,270,289,309,329,349,369,390,409,428,448,469,490,509,529,549,569,593,609,628,649,670,689,709,729,749,769,788,809,829,849,870,889,909,929,949,969,989],"xSR":350,"ySR":768,"xT1":30,"yT1":0,"xT2":670,"yT2":0,"toosoon":0,"cond_shown":"equaldotanddens","ratio_trial":250,"smaller_num":"3","larger_num":"12","correct_side":1,"subjID":"12","gender":"No_gender","age":"No_age","school":"No_school"},{"start_time":1549309726023,"click_time":1549309727068,"finger_time":1549309726705,"fix_duration":1154.9253661357538,"trial":34,"RT":682,"MT":363,"sideResp":1,"stimulus":"img/750/equaldotanddens/L/10_Ratio_750_L_4_R_3.png","xmouse":[389.3333435058594,389.3333435058594,389.3333435058594,389.3333435058594,389.3333435058594,389.3333435058594,389.3333435058594,388.66668701171875,388.66668701171875,388.66668701171875,388.66668701171875,388.66668701171875,388.66668701171875,388.66668701171875,388.66668701171875,388,388,388,388,388,388,388,388,388,388,387.3333435058594,387.3333435058594,387.3333435058594,386.66668701171875,385.3333435058594,384.66668701171875,380.66668701171875,370.66668701171875,362,349.3333435058594,342.66668701171875,328.66668701171875,306.66668701171875,288.66668701171875,280,262,253.33334350585938,218.6666717529297,209.33334350585938,191.33334350585938,182.6666717529297,162.6666717529297,136,118.66667175292969,109.33333587646484,92.66667175292969,77.33333587646484,57.333335876464844],"ymouse":[832.6666870117188,832.6666870117188,832.6666870117188,832,832,832,832,832,832,832,832,832,831.3333740234375,831.3333740234375,831.3333740234375,831.3333740234375,831.3333740234375,830.6666870117188,830.6666870117188,830.6666870117188,830.6666870117188,830.6666870117188,830.6666870117188,830,830,830,829.3333740234375,829.3333740234375,828,827.3333740234375,825.3333740234375,820.6666870117188,802.6666870117188,784,755.3333740234375,738.6666870117188,705.3333740234375,658,625.3333740234375,606.6666870117188,566.6666870117188,546,461.3333435058594,438.66668701171875,392,368,320.66668701171875,248,202.6666717529297,181.33334350585938,141.33334350585938,108,71.33333587646484],"timestamp_mouse":[3,25,43,63,83,103,123,143,163,183,203,223,243,262,283,303,323,344,363,383,403,423,443,463,483,503,523,543,565,583,603,623,645,663,682,703,723,744,763,783,803,823,844,863,883,903,923,945,963,983,1003,1023,1045],"xSR":350,"ySR":768,"xT1":30,"yT1":0,"xT2":670,"yT2":0,"toosoon":0,"cond_shown":"equaldotanddens","ratio_trial":750,"smaller_num":"3","larger_num":"4","correct_side":1,"subjID":"12","gender":"No_gender","age":"No_age","school":"No_school"},{"start_time":1549309729723,"click_time":1549309730946,"finger_time":1549309730605,"fix_duration":416.62389211530694,"trial":35,"RT":882,"MT":341,"sideResp":2,"stimulus":"img/500/randomdotsize/R/1_Ratio_500_L_9_R_18.png","xmouse":[412.66668701171875,412.66668701171875,412,412,412,411.3333435058594,411.3333435058594,411.3333435058594,410.66668701171875,410.66668701171875,410,410,409.3333435058594,409.3333435058594,409.3333435058594,408.66668701171875,408.66668701171875,408.66668701171875,408.66668701171875,408.66668701171875,408.66668701171875,408.66668701171875,408.66668701171875,408.66668701171875,408.66668701171875,408.66668701171875,408.66668701171875,408.66668701171875,408,408,408,408,408,408,408,408,408,408,408,408.66668701171875,409.3333435058594,409.3333435058594,409.3333435058594,409.3333435058594,468,477.3333435058594,497.3333435058594,517.3333740234375,528,558,578.6666870117188,598.6666870117188,606.6666870117188,622.6666870117188,642,654.6666870117188,660,670.6666870117188,676,691.3333740234375,696,702.6666870117188],"ymouse":[834.6666870117188,834.6666870117188,834,834,834,832.6666870117188,832,832,831.3333740234375,830.6666870117188,830,829.3333740234375,829.3333740234375,829.3333740234375,829.3333740234375,829.3333740234375,829.3333740234375,829.3333740234375,829.3333740234375,829.3333740234375,829.3333740234375,829.3333740234375,829.3333740234375,829.3333740234375,828.6666870117188,828.6666870117188,828.6666870117188,828.6666870117188,828.6666870117188,828.6666870117188,828.6666870117188,828.6666870117188,828.6666870117188,828,828,828,828,828,828,827.3333740234375,825.3333740234375,825.3333740234375,825.3333740234375,825.3333740234375,718.6666870117188,701.3333740234375,664,624,602.6666870117188,538,494,448,425.3333435058594,382,316.66668701171875,273.3333435058594,251.33334350585938,212.6666717529297,192.6666717529297,125.33334350585938,111.33333587646484,88],"timestamp_mouse":[9,31,43,63,83,103,123,143,163,183,203,223,243,263,283,303,323,343,362,383,403,423,443,463,483,503,523,543,565,583,603,623,643,665,683,704,723,743,763,783,803,823,843,863,882,903,923,943,963,983,1003,1023,1043,1062,1083,1103,1123,1143,1163,1184,1203,1223],"xSR":350,"ySR":768,"xT1":30,"yT1":0,"xT2":670,"yT2":0,"toosoon":0,"cond_shown":"randomdotsize","ratio_trial":500,"smaller_num":"9","larger_num":"18","correct_side":2,"subjID":"12","gender":"No_gender","age":"No_age","school":"No_school"},{"start_time":1549309732750,"click_time":1549309733928,"finger_time":1549309733586,"fix_duration":1023.7880463537373,"trial":36,"RT":836,"MT":342,"sideResp":2,"stimulus":"img/900/equaldotanddens/R/15_Ratio_900_L_9_R_10.png","xmouse":[394,394,394,394,394,394,394,394,393.3333435058594,393.3333435058594,393.3333435058594,393.3333435058594,393.3333435058594,393.3333435058594,393.3333435058594,393.3333435058594,393.3333435058594,393.3333435058594,387.3333435058594,387.3333435058594,386,386,385.3333435058594,384.66668701171875,384.66668701171875,384.66668701171875,384.66668701171875,384,384,384.66668701171875,384.66668701171875,384.66668701171875,384.66668701171875,384.66668701171875,384.66668701171875,384,384,384,384.66668701171875,384.66668701171875,393.3333435058594,401.3333435058594,406.66668701171875,422,424,430.66668701171875,441.3333435058594,448,473.3333435058594,488.6666870