[{"start_time":1549309965793,"click_time":1549309967091,"finger_time":1549309965801,"fix_duration":997.9557732288613,"trial":0,"RT":8,"MT":1290,"sideResp":1,"stimulus":"img/750/equaldotanddens/R/5_Ratio_750_L_15_R_20.png","xmouse":[413.3333435058594,413.3333435058594,413.3333435058594,413.3333435058594,416,416,416,416,416,416,416,416,416,404.66668701171875,402.66668701171875,402,400.66668701171875,400,397.3333435058594,396,394.66668701171875,394.66668701171875,393.3333435058594,392.66668701171875,392.66668701171875,392,392,392,392,390.66668701171875,390,388.66668701171875,387.3333435058594,386.66668701171875,381.3333435058594,380,378,376.66668701171875,374,369.3333435058594,366,364.66668701171875,360.66668701171875,358.66668701171875,350,348,341.3333435058594,333.3333435058594,305.3333435058594,265.3333435058594,254,252,248.66668701171875,245.33334350585938,236,226,200,189.33334350585938,176.6666717529297,168.6666717529297,164.6666717529297,163.33334350585938,159.33334350585938,152,122,110],"ymouse":[502.66668701171875,502.66668701171875,502.66668701171875,502.66668701171875,494.66668701171875,494.66668701171875,494.66668701171875,494.66668701171875,494.66668701171875,494.66668701171875,494.66668701171875,494.66668701171875,494.66668701171875,486.66668701171875,483.3333435058594,482.66668701171875,482,481.3333435058594,480.66668701171875,480,478.66668701171875,478,476.66668701171875,474.66668701171875,472.66668701171875,472,470,468.66668701171875,466.66668701171875,463.3333435058594,461.3333435058594,460.66668701171875,458.66668701171875,458,454,452.66668701171875,450,448.66668701171875,445.3333435058594,438.66668701171875,434,432,426.66668701171875,424,413.3333435058594,410.66668701171875,402,391.3333435058594,359.3333435058594,314.66668701171875,300,296,288,280.66668701171875,264,250,216.6666717529297,202.6666717529297,185.33334350585938,172,165.33334350585938,162,155.33334350585938,144.6666717529297,108,94.66667175292969],"timestamp_mouse":[8,18,38,57,79,98,119,138,158,178,198,218,238,258,280,298,318,338,361,378,398,418,437,460,479,498,518,537,559,578,598,618,638,658,680,697,718,738,758,779,797,818,838,858,879,899,918,938,958,978,997,1018,1038,1058,1078,1098,1117,1138,1157,1178,1198,1218,1238,1258,1278,1298],"xSR":350,"ySR":451.2,"xT1":30,"yT1":0,"xT2":670,"yT2":0,"toosoon":0,"cond_shown":"equaldotanddens","ratio_trial":750,"smaller_num":"15","larger_num":"20","correct_side":2,"subjID":"13","gender":"No_gender","age":"No_age","school":"No_school","test":{"fix_dur":[250,1500],"timestim":400,"targets_dim":[100,100],"targets_relative_coord":[0.1,0.9],"size_stim":[880,420],"start_dim":[100,100],"size_start":[300,300],"size_fix":60,"samplingrate":20,"img_types":["equaldotsize","equaldotanddens","randomdotsize","randomdotsizeEA"],"ratios":[250,500,750,900],"rep_conds":10,"nTrials":176,"trials_to_rest":500,"Trials_order":[9,98,32,24,76,151,90,148,83,54,16,30,67,33,20,145,10,4,156,15,69,136,119,17,109,11,1,68,35,153,128,171,36,165,34,127,101,46,82,114,5,26,110,59,92,164,13,168,131,47,21,49,25,61,159,116,100,53,50,125,122,51,77,70,173,152,93,28,111,123,107,167,44,39,99,73,40,60,89,94,52,85,0,135,140,130,58,57,87,43,175,6,134,113,117,95,121,155,138,3,86,66,27,37,56,108,144,160,84,157,19,163,78,23,147,64,7,154,62,105,158,112,55,12,143,115,137,31,91,22,146,48,106,174,132,141,97,150,2,45,124,139,75,102,29,65,79,63,170,41,96,71,166,72,80,38,120,81,104,8,42,129,103,161,126,172,149,169,18,118,142,133,74,162,14,88],"cond_shown":["equaldotanddens","randomdotsize","equaldotsize","equaldotsize","equaldotsize","randomdotsizeEA","randomdotsize","equaldotsize","randomdotsizeEA","randomdotsize","equaldotsize","randomdotsize","randomdotsizeEA","equaldotanddens","equaldotsize","equaldotanddens","randomdotsize","equaldotsize","equaldotsize","randomdotsizeEA","equaldotanddens","equaldotsize","randomdotsizeEA","equaldotanddens","equaldotanddens","randomdotsizeEA","equaldotanddens","equaldotsize","randomdotsizeEA","equaldotanddens","equaldotsize","randomdotsizeEA","equaldotsize","equaldotanddens","randomdotsize","randomdotsizeEA","equaldotanddens","randomdotsize","randomdotsize","randomdotsize","equaldotanddens","randomdotsize","randomdotsize","randomdotsizeEA","equaldotsize","equaldotsize","equaldotanddens","equaldotsize","randomdotsizeEA","randomdotsizeEA","equaldotanddens","equaldotanddens","equaldotanddens","equaldotanddens","randomdotsizeEA","equaldotsize","equaldotsize","equaldotanddens","randomdotsize","equaldotanddens","randomdotsize","randomdotsizeEA","equaldotanddens","randomdotsize","equaldotanddens","equaldotsize","equaldotanddens","equaldotsize","randomdotsizeEA","randomdotsizeEA","randomdotsizeEA","randomdotsizeEA","equaldotsize","randomdotsizeEA","randomdotsizeEA","equaldotanddens","equaldotsize","equaldotsize","equaldotanddens","randomdotsize","equaldotsize","equaldotanddens","equaldotsize","randomdotsizeEA","equaldotsize","randomdotsize","randomdotsize","equaldotanddens","randomdotsizeEA","randomdotsizeEA","randomdotsizeEA","randomdotsize","randomdotsize","equaldotanddens","equaldotanddens","randomdotsizeEA","equaldotanddens","randomdotsizeEA","randomdotsize","randomdotsizeEA","randomdotsize","randomdotsize","randomdotsizeEA","equaldotanddens","equaldotsize","equaldotsize","equaldotsize","equaldotsize","equaldotsize","equaldotanddens","randomdotsizeEA","randomdotsizeEA","randomdotsize","randomdotsizeEA","randomdotsizeEA","equaldotsize","randomdotsizeEA","randomdotsize","randomdotsize","equaldotanddens","randomdotsize","equaldotsize","randomdotsizeEA","equaldotsize","randomdotsizeEA","randomdotsizeEA","equaldotanddens","randomdotsizeEA","randomdotsizeEA","randomdotsize","randomdotsize","equaldotsize","randomdotsize","randomdotsize","equaldotsize","equaldotanddens","equaldotanddens","randomdotsize","randomdotsize","equaldotanddens","equaldotsize","randomdotsizeEA","randomdotsizeEA","randomdotsize","equaldotanddens","equaldotanddens","randomdotsizeEA","randomdotsizeEA","randomdotsize","equaldotanddens","equaldotsize","randomdotsizeEA","randomdotsize","equaldotsize","equaldotsize","randomdotsize","equaldotsize","equaldotanddens","equaldotsize","equaldotsize","randomdotsize","equaldotanddens","randomdotsizeEA","equaldotanddens","randomdotsize","equaldotsize","equaldotanddens","equaldotanddens","randomdotsize","randomdotsize","randomdotsize","equaldotanddens","randomdotsize","randomdotsize","randomdotsize","equaldotsize"],"ratio_trial":[750,250,250,750,900,500,750,500,250,500,250,900,250,250,500,250,750,500,900,900,500,750,500,250,900,750,250,500,250,750,250,750,500,500,250,900,500,900,250,250,500,750,900,750,900,500,900,750,250,900,500,250,750,900,900,500,500,500,250,900,750,250,900,500,900,750,900,900,900,750,750,500,900,500,250,750,750,900,750,900,500,500,250,500,900,250,750,750,500,750,900,500,500,250,500,900,750,750,750,250,500,250,750,500,750,900,250,250,500,900,250,250,900,500,250,250,500,750,900,750,900,250,500,900,900,250,750,900,750,500,250,250,750,900,500,900,250,500,250,900,900,750,750,500,900,250,900,900,750,750,250,500,500,750,250,500,750,250,750,750,750,250,500,250,900,900,500,750,250,500,900,500,750,250,900,750],"smaller_num":["15","6","2","6","9","2","6","2","5","9","3","18","3","3","2","4","9","2","18","9","2","15","9","3","18","18","2","2","2","3","2","15","10","6","3","18","5","9","3","6","6","6","18","3","18","9","18","6","3","18","1","3","15","18","9","4","6","4","4","18","3","6","18","2","18","6","18","18","9","15","15","6","9","4","2","18","6","9","9","9","4","2","2","9","18","3","3","6","2","18","18","6","2","4","5","18","15","15","15","3","9","3","9","5","6","18","2","3","6","9","4","5","18","6","4","4","6","3","9","6","18","2","2","9","18","4","3","18","15","1","6","3","6","18","5","18","6","10","3","18","9","3","6","4","9","1","9","18","3","6","4","9","2","12","6","9","9","3","9","15","3","1","9","2","9","18","2","15","6","9","18","5","15","2","9","3"],"larger_num":["20","24","8","8","10","4","8","4","20","18","12","20","12","12","4","16","12","4","20","10","4","20","18","12","20","24","8","4","8","4","8","20","20","12","12","20","10","10","12","24","12","8","20","4","20","18","20","8","12","20","2","12","20","20","10","8","12","8","16","20","4","24","20","4","20","8","20","20","10","20","20","12","10","8","8","24","8","10","12","10","8","4","8","18","20","12","4","8","4","24","20","12","4","16","10","20","20","20","20","12","18","12","12","10","8","20","8","12","12","10","16","20","20","12","16","16","12","4","10","8","20","8","4","10","20","16","4","20","20","2","24","12","8","20","10","20","24","20","12","20","10","4","8","8","10","4","10","20","4","8","16","18","4","16","24","18","12","12","12","20","4","4","18","8","10","20","4","20","24","18","20","10","20","8","10","4"],"correct_side":[2,2,1,2,2,1,1,1,2,1,1,1,1,2,1,2,2,1,2,2,1,1,2,1,1,1,1,1,1,1,1,1,2,1,1,1,1,2,1,1,1,1,2,2,2,2,1,1,1,1,2,1,2,1,1,1,1,1,2,1,1,1,1,1,1,1,1,2,2,1,1,1,1,1,1,1,2,2,2,2,1,1,1,2,1,1,1,2,1,1,1,1,1,2,1,1,2,2,1,1,2,2,2,2,2,1,1,2,1,1,2,2,1,1,1,1,1,2,2,2,2,1,1,1,2,2,1,2,1,2,1,1,1,2,2,2,1,2,1,1,2,1,2,1,2,2,2,2,1,1,2,2,1,2,2,1,2,2,2,1,2,2,1,1,1,2,1,2,2,1,1,1,2,1,2,2],"img_shown":["img/750/equaldotanddens/R/5_Ratio_750_L_15_R_20.png","img/250/randomdotsize/R/6_Ratio_250_L_6_R_24.png","img/250/equaldotsize/L/1_Ratio_250_L_8_R_2.png","img/750/equaldotsize/R/2_Ratio_750_L_6_R_8.png","img/900/equaldotsize/R/7_Ratio_900_L_9_R_10.png","img/500/randomdotsizeEA/L/5_Ratio_500_L_4_R_2.png","img/750/randomdotsize/L/13_Ratio_750_L_8_R_6.png","img/500/equaldotsize/L/10_Ratio_500_L_4_R_2.png","img/250/randomdotsizeEA/R/12_Ratio_250_L_5_R_20.png","img/500/randomdotsize/L/4_Ratio_500_L_18_R_9.png","img/250/equaldotsize/L/15_Ratio_250_L_12_R_3.png","img/900/randomdotsize/L/4_Ratio_900_L_20_R_18.png","img/250/randomdotsizeEA/L/14_Ratio_250_L_12_R_3.png","img/250/equaldotanddens/R/9_Ratio_250_L_3_R_12.png","img/500/equaldotsize/L/5_Ratio_500_L_4_R_2.png","img/250/equaldotanddens/R/10_Ratio_250_L_4_R_16.png","img/750/randomdotsize/R/15_Ratio_750_L_9_R_12.png","img/500/equaldotsize/L/10_Ratio_500_L_4_R_2.png","img/900/equaldotsize/R/14_Ratio_900_L_18_R_20.png","img/900/randomdotsizeEA/R/7_Ratio_900_L_9_R_10.png","img/500/equaldotanddens/L/10_Ratio_500_L_4_R_2.png","img/750/equaldotsize/L/1_Ratio_750_L_20_R_15.png","img/500/randomdotsizeEA/R/6_Ratio_500_L_9_R_18.png","img/250/equaldotanddens/L/14_Ratio_250_L_12_R_3.png","img/900/equaldotanddens/L/10_Ratio_900_L_20_R_18.png","img/750/randomdotsizeEA/L/6_Ratio_750_L_24_R_18.png","img/250/equaldotanddens/L/3_Ratio_250_L_8_R_2.png","img/500/equaldotsize/L/5_Ratio_500_L_4_R_2.png","img/250/randomdotsizeEA/L/3_Ratio_250_L_8_R_2.png","img/750/equaldotanddens/L/8_Ratio_750_L_4_R_3.png","img/250/equaldotsize/L/3_Ratio_250_L_8_R_2.png","img/750/randomdotsizeEA/L/1_Ratio_750_L_20_R_15.png","img/500/equaldotsize/R/3_Ratio_500_L_10_R_20.png","img/500/equaldotanddens/L/13_Ratio_500_L_12_R_6.png","img/250/randomdotsize/L/14_Ratio_250_L_12_R_3.png","img/900/randomdotsizeEA/L/8_Ratio_900_L_20_R_18.png","img/500/equaldotanddens/L/7_Ratio_500_L_10_R_5.png","img/900/randomdotsize/R/15_Ratio_900_L_9_R_10.png","img/250/randomdotsize/L/14_Ratio_250_L_12_R_3.png","img/250/randomdotsize/L/5_Ratio_250_L_24_R_6.png","img/500/equaldotanddens/L/13_Ratio_500_L_12_R_6.png","img/750/randomdotsize/L/14_Ratio_750_L_8_R_6.png","img/900/randomdotsize/R/9_Ratio_900_L_18_R_20.png","img/750/randomdotsizeEA/R/7_Ratio_750_L_3_R_4.png","img/900/equaldotsize/R/14_Ratio_900_L_18_R_20.png","img/500/equaldotsize/R/1_Ratio_500_L_9_R_18.png","img/900/equaldotanddens/L/2_Ratio_900_L_20_R_18.png","img/750/equaldotsize/L/14_Ratio_750_L_8_R_6.png","img/250/randomdotsizeEA/L/14_Ratio_250_L_12_R_3.png","img/900/randomdotsizeEA/L/4_Ratio_900_L_20_R_18.png","img/500/equaldotanddens/R/12_Ratio_500_L_1_R_2.png","img/250/equaldotanddens/L/15_Ratio_250_L_12_R_3.png","img/750/equaldotanddens/R/3_Ratio_750_L_15_R_20.png","img/900/equaldotanddens/L/4_Ratio_900_L_20_R_18.png","img/900/randomdotsizeEA/L/1_Ratio_900_L_10_R_9.png","img/500/equaldotsize/L/8_Ratio_500_L_8_R_4.png","img/500/equaldotsize/L/11_Ratio_500_L_12_R_6.png","img/500/equaldotanddens/L/8_Ratio_500_L_8_R_4.png","img/250/randomdotsize/R/10_Ratio_250_L_4_R_16.png","img/900/equaldotanddens/L/4_Ratio_900_L_20_R_18.png","img/750/randomdotsize/L/10_Ratio_750_L_4_R_3.png","img/250/randomdotsizeEA/L/5_Ratio_250_L_24_R_6.png","img/900/equaldotanddens/L/10_Ratio_900_L_20_R_18.png","img/500/randomdotsize/L/5_Ratio_500_L_4_R_2.png","img/900/equaldotanddens/L/2_Ratio_900_L_20_R_18.png","img/750/equaldotsize/L/14_Ratio_750_L_8_R_6.png","img/900/equaldotanddens/L/2_Ratio_900_L_20_R_18.png","img/900/equaldotsize/R/13_Ratio_900_L_18_R_20.png","img/900/randomdotsizeEA/R/3_Ratio_900_L_9_R_10.png","img/750/randomdotsizeEA/L/1_Ratio_750_L_20_R_15.png","img/750/randomdotsizeEA/L/1_Ratio_750_L_20_R_15.png","img/500/randomdotsizeEA/L/13_Ratio_500_L_12_R_6.png","img/900/equaldotsize/L/1_Ratio_900_L_10_R_9.png","img/500/randomdotsizeEA/L/8_Ratio_500_L_8_R_4.png","img/250/randomdotsizeEA/L/7_Ratio_250_L_8_R_2.png","img/750/equaldotanddens/L/6_Ratio_750_L_24_R_18.png","img/750/equaldotsize/R/2_Ratio_750_L_6_R_8.png","img/900/equaldotsize/R/5_Ratio_900_L_9_R_10.png","img/750/equaldotanddens/R/15_Ratio_750_L_9_R_12.png","img/900/randomdotsize/R/3_Ratio_900_L_9_R_10.png","img/500/equaldotsize/L/8_Ratio_500_L_8_R_4.png","img/500/equaldotanddens/L/10_Ratio_500_L_4_R_2.png","img/250/equaldotsize/L/3_Ratio_250_L_8_R_2.png","img/500/randomdotsizeEA/R/1_Ratio_500_L_9_R_18.png","img/900/equaldotsize/L/10_Ratio_900_L_20_R_18.png","img/250/randomdotsize/L/14_Ratio_250_L_12_R_3.png","img/750/randomdotsize/L/10_Ratio_750_L_4_R_3.png","img/750/equaldotanddens/R/2_Ratio_750_L_6_R_8.png","img/500/randomdotsizeEA/L/10_Ratio_500_L_4_R_2.png","img/750/randomdotsizeEA/L/6_Ratio_750_L_24_R_18.png","img/900/randomdotsizeEA/L/10_Ratio_900_L_20_R_18.png","img/500/randomdotsize/L/11_Ratio_500_L_12_R_6.png","img/500/randomdotsize/L/5_Ratio_500_L_4_R_2.png","img/250/equaldotanddens/R/10_Ratio_250_L_4_R_16.png","img/500/equaldotanddens/L/7_Ratio_500_L_10_R_5.png","img/900/randomdotsizeEA/L/4_Ratio_900_L_20_R_18.png","img/750/equaldotanddens/R/5_Ratio_750_L_15_R_20.png","img/750/randomdotsizeEA/R/5_Ratio_750_L_15_R_20.png","img/750/randomdotsize/L/1_Ratio_750_L_20_R_15.png","img/250/randomdotsizeEA/L/15_Ratio_250_L_12_R_3.png","img/500/randomdotsize/R/1_Ratio_500_L_9_R_18.png","img/250/randomdotsize/R/11_Ratio_250_L_3_R_12.png","img/750/randomdotsizeEA/R/15_Ratio_750_L_9_R_12.png","img/500/equaldotanddens/R/14_Ratio_500_L_5_R_10.png","img/750/equaldotsize/R/2_Ratio_750_L_6_R_8.png","img/900/equaldotsize/L/10_Ratio_900_L_20_R_18.png","img/250/equaldotsize/L/7_Ratio_250_L_8_R_2.png","img/250/equaldotsize/R/9_Ratio_250_L_3_R_12.png","img/500/equaldotsize/L/11_Ratio_500_L_12_R_6.png","img/900/equaldotanddens/L/1_Ratio_900_L_10_R_9.png","img/250/randomdotsizeEA/R/10_Ratio_250_L_4_R_16.png","img/250/randomdotsizeEA/R/12_Ratio_250_L_5_R_20.png","img/900/randomdotsize/L/10_Ratio_900_L_20_R_18.png","img/500/randomdotsizeEA/L/13_Ratio_500_L_12_R_6.png","img/250/randomdotsizeEA/L/2_Ratio_250_L_16_R_4.png","img/250/equaldotsize/L/2_Ratio_250_L_16_R_4.png","img/500/randomdotsizeEA/L/11_Ratio_500_L_12_R_6.png","img/750/randomdotsize/R/7_Ratio_750_L_3_R_4.png","img/900/randomdotsize/R/5_Ratio_900_L_9_R_10.png","img/750/equaldotanddens/R/2_Ratio_750_L_6_R_8.png","img/900/randomdotsize/R/11_Ratio_900_L_18_R_20.png","img/250/equaldotsize/L/7_Ratio_250_L_8_R_2.png","img/500/randomdotsizeEA/L/10_Ratio_500_L_4_R_2.png","img/900/equaldotsize/L/1_Ratio_900_L_10_R_9.png","img/900/randomdotsizeEA/R/12_Ratio_900_L_18_R_20.png","img/250/randomdotsizeEA/R/10_Ratio_250_L_4_R_16.png","img/750/equaldotanddens/L/9_Ratio_750_L_4_R_3.png","img/900/randomdotsizeEA/R/13_Ratio_900_L_18_R_20.png","img/750/randomdotsizeEA/L/1_Ratio_750_L_20_R_15.png","img/500/randomdotsize/R/12_Ratio_500_L_1_R_2.png","img/250/randomdotsize/L/5_Ratio_250_L_24_R_6.png","img/250/equaldotsize/L/15_Ratio_250_L_12_R_3.png","img/750/randomdotsize/L/13_Ratio_750_L_8_R_6.png","img/900/randomdotsize/R/13_Ratio_900_L_18_R_20.png","img/500/equaldotsize/R/14_Ratio_500_L_5_R_10.png","img/900/equaldotanddens/R/14_Ratio_900_L_18_R_20.png","img/250/equaldotanddens/L/5_Ratio_250_L_24_R_6.png","img/500/randomdotsize/R/3_Ratio_500_L_10_R_20.png","img/250/randomdotsize/L/14_Ratio_250_L_12_R_3.png","img/900/equaldotanddens/L/8_Ratio_900_L_20_R_18.png","img/900/equaldotsize/R/5_Ratio_900_L_9_R_10.png","img/750/randomdotsizeEA/L/9_Ratio_750_L_4_R_3.png","img/750/randomdotsizeEA/R/2_Ratio_750_L_6_R_8.png","img/500/randomdotsize/L/8_Ratio_500_L_8_R_4.png","img/900/equaldotanddens/R/15_Ratio_900_L_9_R_10.png","img/250/equaldotanddens/R/8_Ratio_250_L_1_R_4.png","img/900/randomdotsizeEA/R/5_Ratio_900_L_9_R_10.png","img/900/randomdotsizeEA/R/9_Ratio_900_L_18_R_20.png","img/750/randomdotsize/L/9_Ratio_750_L_4_R_3.png","img/750/equaldotanddens/L/13_Ratio_750_L_8_R_6.png","img/250/equaldotsize/R/10_Ratio_250_L_4_R_16.png","img/500/randomdotsizeEA/R/1_Ratio_500_L_9_R_18.png","img/500/randomdotsize/L/5_Ratio_500_L_4_R_2.png","img/750/equaldotsize/R/11_Ratio_750_L_12_R_16.png","img/250/equaldotsize/R/6_Ratio_250_L_6_R_24.png","img/500/randomdotsize/L/4_Ratio_500_L_18_R_9.png","img/750/equaldotsize/R/15_Ratio_750_L_9_R_12.png","img/250/equaldotanddens/R/4_Ratio_250_L_3_R_12.png","img/750/equaldotsize/R/15_Ratio_750_L_9_R_12.png","img/750/equaldotsize/L/1_Ratio_750_L_20_R_15.png","img/750/randomdotsize/R/12_Ratio_750_L_3_R_4.png","img/250/equaldotanddens/R/8_Ratio_250_L_1_R_4.png","img/500/randomdotsizeEA/L/4_Ratio_500_L_18_R_9.png","img/250/equaldotanddens/L/3_Ratio_250_L_8_R_2.png","img/900/randomdotsize/L/1_Ratio_900_L_10_R_9.png","img/900/equaldotsize/R/11_Ratio_900_L_18_R_20.png","img/500/equaldotanddens/L/5_Ratio_500_L_4_R_2.png","img/750/equaldotanddens/R/5_Ratio_750_L_15_R_20.png","img/250/randomdotsize/R/6_Ratio_250_L_6_R_24.png","img/500/randomdotsize/L/4_Ratio_500_L_18_R_9.png","img/900/randomdotsize/L/8_Ratio_900_L_20_R_18.png","img/500/equaldotanddens/L/7_Ratio_500_L_10_R_5.png","img/750/randomdotsize/R/3_Ratio_750_L_15_R_20.png","img/250/randomdotsize/L/1_Ratio_250_L_8_R_2.png","img/900/randomdotsize/R/6_Ratio_900_L_9_R_10.png","img/750/equaldotsize/R/12_Ratio_750_L_3_R_4.png"],"Rat0":[["12_Ratio_0_L_9_R_0.png","13_Ratio_0_L_6_R_0.png","5_Ratio_0_L_2_R_0.png","6_Ratio_0_L_4_R_0.png","8_Ratio_0_L_6_R_0.png"],["1_Ratio_0_L_0_R_17.png","10_Ratio_0_L_0_R_22.png","11_Ratio_0_L_0_R_1.png","14_Ratio_0_L_0_R_24.png","15_Ratio_0_L_0_R_4.png","2_Ratio_0_L_0_R_5.png","3_Ratio_0_L_0_R_17.png","4_Ratio_0_L_0_R_7.png","7_Ratio_0_L_0_R_19.png","9_Ratio_0_L_0_R_15.png"]],"Rat250":[["1_Ratio_250_L_8_R_2.png","14_Ratio_250_L_12_R_3.png","15_Ratio_250_L_12_R_3.png","2_Ratio_250_L_16_R_4.png","3_Ratio_250_L_8_R_2.png","5_Ratio_250_L_24_R_6.png","7_Ratio_250_L_8_R_2.png"],["10_Ratio_250_L_4_R_16.png","11_Ratio_250_L_3_R_12.png","12_Ratio_250_L_5_R_20.png","13_Ratio_250_L_2_R_8.png","4_Ratio_250_L_3_R_12.png","6_Ratio_250_L_6_R_24.png","8_Ratio_250_L_1_R_4.png","9_Ratio_250_L_3_R_12.png"]],"Rat500":[["10_Ratio_500_L_4_R_2.png","11_Ratio_500_L_12_R_6.png","13_Ratio_500_L_12_R_6.png","4_Ratio_500_L_18_R_9.png","5_Ratio_500_L_4_R_2.png","7_Ratio_500_L_10_R_5.png","8_Ratio_500_L_8_R_4.png"],["1_Ratio_500_L_9_R_18.png","12_Ratio_500_L_1_R_2.png","14_Ratio_500_L_5_R_10.png","15_Ratio_500_L_1_R_2.png","2_Ratio_500_L_3_R_6.png","3_Ratio_500_L_10_R_20.png","6_Ratio_500_L_9_R_18.png","9_Ratio_500_L_2_R_4.png"]],"Rat750":[["1_Ratio_750_L_20_R_15.png","10_Ratio_750_L_4_R_3.png","13_Ratio_750_L_8_R_6.png","14_Ratio_750_L_8_R_6.png","6_Ratio_750_L_24_R_18.png","8_Ratio_750_L_4_R_3.png","9_Ratio_750_L_4_R_3.png"],["11_Ratio_750_L_12_R_16.png","12_Ratio_750_L_3_R_4.png","15_Ratio_750_L_9_R_12.png","2_Ratio_750_L_6_R_8.png","3_Ratio_750_L_15_R_20.png","4_Ratio_750_L_15_R_20.png","5_Ratio_750_L_15_R_20.png","7_Ratio_750_L_3_R_4.png"]],"Rat900":[["1_Ratio_900_L_10_R_9.png","10_Ratio_900_L_20_R_18.png","2_Ratio_900_L_20_R_18.png","4_Ratio_900_L_20_R_18.png","8_Ratio_900_L_20_R_18.png"],["11_Ratio_900_L_18_R_20.png","12_Ratio_900_L_18_R_20.png","13_Ratio_900_L_18_R_20.png","14_Ratio_900_L_18_R_20.png","15_Ratio_900_L_9_R_10.png","3_Ratio_900_L_9_R_10.png","5_Ratio_900_L_9_R_10.png","6_Ratio_900_L_9_R_10.png","7_Ratio_900_L_9_R_10.png","9_Ratio_900_L_18_R_20.png"]],"Rat1000":[["10_Ratio_1000_L_16_R_16.png","11_Ratio_1000_L_6_R_6.png","12_Ratio_1000_L_14_R_14.png","13_Ratio_1000_L_20_R_20.png","15_Ratio_1000_L_15_R_15.png","2_Ratio_1000_L_17_R_17.png","4_Ratio_1000_L_9_R_9.png","5_Ratio_1000_L_6_R_6.png","6_Ratio_1000_L_19_R_19.png","8_Ratio_1000_L_14_R_14.png","9_Ratio_1000_L_25_R_25.png"],["1_Ratio_1000_L_1_R_1.png","14_Ratio_1000_L_17_R_17.png","3_Ratio_1000_L_17_R_17.png","7_Ratio_1000_L_6_R_6.png"]]}},{"start_time":1549309972605,"click_time":1549309973951,"finger_time":1549309973731,"fix_duration":1446.0944835540686,"trial":1,"RT":1126,"MT":220,"sideResp":2,"stimulus":"img/250/randomdotsize/R/6_Ratio_250_L_6_R_24.png","xmouse":[383.3333435058594,383.3333435058594,384.66668701171875,384.66668701171875,384.66668701171875,384.66668701171875,384.66668701171875,384.66668701171875,384.66668701171875,384.66668701171875,384.66668701171875,384.66668701171875,384.66668701171875,384.66668701171875,384.66668701171875,384.66668701171875,384.66668701171875,384.66668701171875,384.66668701171875,384.66668701171875,384.66668701171875,384,384,384,384,384,384,384,384,384,384,384,384,384,384,384,384,384,384,384,384,384,384,384,384,384,384,384,384,384,384,384,384,384,384,424.66668701171875,457.3333435058594,474,506.66668701171875,547.3333740234375,573.3333740234375,587.3333740234375,612,622.6666870117188,646.6666870117188,678.6666870117188,694],"ymouse":[818.6666870117188,818.6666870117188,818.6666870117188,818.6666870117188,818.6666870117188,818.6666870117188,818.6666870117188,818.6666870117188,818.6666870117188,818.6666870117188,818.6666870117188,818.6666870117188,818.6666870117188,818.6666870117188,818.6666870117188,818.6666870117188,818.6666870117188,818.6666870117188,818.6666870117188,818.6666870117188,818.6666870117188,819.3333740234375,819.3333740234375,819.3333740234375,819.3333740234375,819.3333740234375,819.3333740234375,819.3333740234375,819.3333740234375,819.3333740234375,819.3333740234375,820,820,820,820,820,820,820,820,820,820,820.6666870117188,820.6666870117188,820.6666870117188,820.6666870117188,820.6666870117188,820.6666870117188,820.6666870117188,820.6666870117188,820.6666870117188,820.6666870117188,820,820,820,820,733.3333740234375,664,628,552.6666870117188,444.66668701171875,376.66668701171875,344,287.3333435058594,261.3333435058594,207.33334350585938,130,84.66667175292969],"timestamp_mouse":[10,50,66,86,106,126,146,166,186,206,226,246,266,286,306,325,346,366,386,406,426,446,466,486,506,526,546,566,586,605,626,646,666,686,706,726,746,766,786,806,825,846,866,886,906,926,946,966,986,1005,1026,1045,1065,1086,1106,1126,1146,1166,1186,1207,1226,1246,1266,1286,1305,1326,1346],"xSR":350,"ySR":768,"xT1":30,"yT1":0,"xT2":670,"yT2":0,"toosoon":0,"cond_shown":"randomdotsize","ratio_trial":250,"smaller_num":"6","larger_num":"24","correct_side":2,"subjID":"13","gender":"No_gender","age":"No_age","school":"No_school"},{"start_time":1549309977354,"click_time":1549309977952,"finger_time":1549309977752,"fix_duration":611.2716551017754,"trial":2,"RT":398,"MT":200,"sideResp":2,"stimulus":"img/250/equaldotsize/L/1_Ratio_250_L_8_R_2.png","xmouse":[397,397,397,397,397,397,397,397,397,397,397,397,397,397,397,397,397,397,397,414,430,471.3333435058594,507.3333435058594,524,552.6666870117188,591.3333740234375,604,629.3333740234375,653.3333740234375,666,700],"ymouse":[833,833,833,833,833,833,833,833,833,833,833,833,833,833,833,833,833,833,833,788.6666870117188,751.3333740234375,664,588,552.6666870117188,483.3333435058594,371.3333435058594,333.3333435058594,266,199.33334350585938,165.33334350585938,76],"timestamp_mouse":[7,20,38,57,77,97,117,136,157,177,197,216,237,257,276,297,317,337,357,382,398,417,437,457,478,497,516,536,557,577,598],"xSR":350,"ySR":768,"xT1":30,"yT1":0,"xT2":670,"yT2":0,"toosoon":0,"cond_shown":"equaldotsize","ratio_trial":250,"smaller_num":"2","larger_num":"8","correct_side":1,"subjID":"13","gender":"No_gender","age":"No_age","school":"No_school"},{"start_time":1549309982428,"click_time":1549309983291,"finger_time":1549309983131,"fix_duration":576.4949978915164,"trial":3,"RT":703,"MT":160,"sideResp":2,"stimulus":"img/750/equaldotsize/R/2_Ratio_750_L_6_R_8.png","xmouse":[396,396,396,396,396,396,396,396,395.3333435058594,395.3333435058594,395.3333435058594,395.3333435058594,395.3333435058594,395.3333435058594,395.3333435058594,395.3333435058594,398,400,406.66668701171875,406.66668701171875,406.66668701171875,406.66668701171875,394.66668701171875,394,394,394,394,394,397.3333435058594,397.3333435058594,390.66668701171875,390.66668701171875,390.66668701171875,390.66668701171875,390.66668701171875,517.3333740234375,529.3333740234375,554,590.6666870117188,602.6666870117188,630,658,697.3333740234375,709.3333740234375],"ymouse":[819.3333740234375,819.3333740234375,819.3333740234375,819.3333740234375,819.3333740234375,819.3333740234375,819.3333740234375,819.3333740234375,818.6666870117188,818.6666870117188,818.6666870117188,818.6666870117188,818.6666870117188,818.6666870117188,818.6666870117188,818.6666870117188,818.6666870117188,819.3333740234375,820,820,820,820,809.3333740234375,808,806.6666870117188,805.3333740234375,804,804,796.6666870117188,796.6666870117188,776,776,776,776,776,568,542.6666870117188,486,397.3333435058594,365.3333435058594,295.3333435058594,220,113.33334350585938,82],"timestamp_mouse":[3,28,43,63,83,103,123,143,163,183,203,223,243,263,283,303,322,343,364,383,403,423,445,463,483,503,523,543,566,583,603,623,644,663,683,703,722,742,763,783,803,823,845,863],"xSR":350,"ySR":768,"xT1":30,"yT1":0,"xT2":670,"yT2":0,"toosoon":0,"cond_shown":"equaldotsize","ratio_trial":750,"smaller_num":"6","larger_num":"8","correct_side":2,"subjID":"13","gender":"No_gender","age":"No_age","school":"No_school"},{"start_time":1549309986855,"click_time":1549309987813,"finger_time":1549309987571,"fix_duration":1303.7955109125026,"trial":4,"RT":716,"MT":242,"sideResp":2,"stimulus":"img/900/equaldotsize/R/7_Ratio_900_L_9_R_10.png","xmouse":[400.66668701171875,400.66668701171875,400.66668701171875,416.66668701171875,418,418,418,418,418,418,417.3333435058594,417.3333435058594,417.3333435058594,417.3333435058594,416.66668701171875,416.66668701171875,416.66668701171875,400.66668701171875,400,400.66668701171875,400.66668701171875,400.66668701171875,400.66668701171875,402,402,402,402,419.3333435058594,418,418,412,412,412,412,412,488.66668701171875,500.66668701171875,534.6666870117188,558.6666870117188,584.6666870117188,597.3333740234375,627.3333740234375,673.3333740234375,686,710,710,710,744.6666870117188],"ymouse":[809.3333740234375,809.3333740234375,809.3333740234375,811.3333740234375,811.3333740234375,811.3333740234375,811.3333740234375,811.3333740234375,811.3333740234375,811.3333740234375,811.3333740234375,811.3333740234375,811.3333740234375,811.3333740234375,810.6666870117188,810.6666870117188,810.6666870117188,806,805.3333740234375,803.3333740234375,801.3333740234375,801.3333740234375,801.3333740234375,794.6666870117188,794.6666870117188,794.6666870117188,794.6666870117188,788,785.3333740234375,785.3333740234375,776.6666870117188,776.6666870117188,776.6666870117188,776.6666870117188,776.6666870117188,641.3333740234375,616,528.6666870117188,464.66668701171875,394.66668701171875,362.66668701171875,296,207.33334350585938,182,134.6666717529297,134.6666717529297,134.6666717529297,50],"timestamp_mouse":[16,35,56,76,96,116,136,155,176,196,216,235,256,276,296,316,336,356,376,396,416,435,456,476,496,516,535,556,576,596,616,636,657,676,696,716,736,756,777,795,815,836,856,876,896,916,936,958],"xSR":350,"ySR":768,"xT1":30,"yT1":0,"xT2":670,"yT2":0,"toosoon":0,"cond_shown":"equaldotsize","ratio_trial":900,"smaller_num":"9","larger_num":"10","correct_side":2,"subjID":"13","gender":"No_gender","age":"No_age","school":"No_school"},{"start_time":1549309991554,"click_time":1549309993353,"finger_time":1549309992091,"fix_duration":741.7806284437721,"trial":5,"RT":537,"MT":1262,"sideResp":1,"stimulus":"img/500/randomdotsizeEA/L/5_Ratio_500_L_4_R_2.png","xmouse":[417.3333435058594,418,418.66668701171875,419.3333435058594,420,420,420,420,420,420,420,420,420,420,420,420,420,420,420,420,420,420,420,420,422.66668701171875,427.3333435058594,447.3333435058594,458.66668701171875,482,508.66668701171875,522.6666870117188,522.6666870117188,522.6666870117188,537.3333740234375,546,550,552.6666870117188,552.6666870117188,553.3333740234375,554,554,555.3333740234375,556,557.3333740234375,557.3333740234375,557.3333740234375,557.3333740234375,563.3333740234375,563.3333740234375,563.3333740234375,563.3333740234375,563.3333740234375,562.6666870117188,562.6666870117188,562.6666870117188,562.6666870117188,562.6666870117188,562.6666870117188,562.6666870117188,562.6666870117188,574.6666870117188,574.6666870117188,577.3333740234375,577.3333740234375,577.3333740234375,577.3333740234375,577.3333740234375,577.3333740234375,579.3333740234375,578.6666870117188,578.6666870117188,578.6666870117188,579.3333740234375,580,580,580,580,580,580.6666870117188,580.6666870117188,580.6666870117188,580.6666870117188,580,17.33333396911621,18.666667938232422,20,22,22.666667938232422,26,30.666667938232422],"ymouse":[809.3333740234375,808.6666870117188,808.6666870117188,808.6666870117188,808.6666870117188,808.6666870117188,808.6666870117188,808.6666870117188,808.6666870117188,808.6666870117188,808.6666870117188,808.6666870117188,808.6666870117188,808.6666870117188,808.6666870117188,808.6666870117188,808.6666870117188,808.6666870117188,808.6666870117188,808.6666870117188,808.6666870117188,808.6666870117188,808.6666870117188,808.6666870117188,800.6666870117188,794,760,736.6666870117188,689.3333740234375,624.6666870117188,587.3333740234375,587.3333740234375,587.3333740234375,519.3333740234375,465.3333435058594,421.3333435058594,373.3333435058594,348.66668701171875,298.66668701171875,236,219.33334350585938,194,178,173.33334350585938,173.33334350585938,173.33334350585938,173.33334350585938,150.6666717529297,150.6666717529297,150.6666717529297,150.6666717529297,150.6666717529297,149.33334350585938,149.33334350585938,149.33334350585938,149.33334350585938,149.33334350585938,149.33334350585938,149.33334350585938,149.33334350585938,143.33334350585938,143.33334350585938,142,142,142,142,142,142,137.33334350585938,136.6666717529297,136.6666717529297,136.6666717529297,136,136,136,136,136,136,134.6666717529297,134.6666717529297,134.6666717529297,134.6666717529297,136,60.66667175292969,54.66667175292969,47.333335876464844,43.333335876464844,42,38,34],"timestamp_mouse":[20,37,57,79,97,117,137,157,177,197,217,237,257,277,296,317,337,357,377,397,418,437,457,477,497,517,537,557,577,599,618,637,657,677,699,716,737,757,777,797,817,837,857,877,898,917,937,957,977,997,1016,1037,1057,1077,1099,1117,1137,1157,1176,1197,1219,1237,1257,1277,1299,1317,1337,1357,1377,1397,1416,1437,1457,1477,1497,1517,1537,1557,1577,1598,1617,1637,1657,1677,1697,1717,1737,1757,1777,1798],"xSR":350,"ySR":768,"xT1":30,"yT1":0,"xT2":670,"yT2":0,"toosoon":0,"cond_shown":"randomdotsizeEA","ratio_trial":500,"smaller_num":"2","larger_num":"4","correct_side":1,"subjID":"13","gender":"No_gender","age":"No_age","school":"No_school"},{"start_time":1549309996262,"click_time":1549309997431,"finger_time":1549309997173,"fix_duration":250,"trial":6,"RT":911,"MT":258,"sideResp":2,"stimulus":"img/750/randomdotsize/L/13_Ratio_750_L_8_R_6.png","xmouse":[380,380,380,380,380,380,380,380,380,379.3333435058594,379.3333435058594,379.3333435058594,379.3333435058594,379.3333435058594,379.3333435058594,379.3333435058594,379.3333435058594,378.66668701171875,379.3333435058594,379.3333435058594,379.3333435058594,379.3333435058594,379.3333435058594,379.3333435058594,379.3333435058594,379.3333435058594,379.3333435058594,379.3333435058594,379.3333435058594,379.3333435058594,379.3333435058594,379.3333435058594,379.3333435058594,380,380,380,380,380.66668701171875,380.66668701171875,381.3333435058594,381.3333435058594,381.3333435058594,381.3333435058594,382,397.3333435058594,422.66668701171875,438.66668701171875,473.3333435058594,507.3333740234375,524.6666870117188,577.3333740234375,609.3333740234375,641.3333740234375,658,689.3333740234375,730,754,762.6666870117188],"ymouse":[822.6666870117188,822.6666870117188,822.6666870117188,822.6666870117188,822.6666870117188,822.6666870117188,822.6666870117188,822.6666870117188,822.6666870117188,821.3333740234375,821.3333740234375,821.3333740234375,821.3333740234375,821.3333740234375,821.3333740234375,821.3333740234375,821.3333740234375,819.3333740234375,819.3333740234375,819.3333740234375,818.6666870117188,819.3333740234375,819.3333740234375,819.3333740234375,819.3333740234375,819.3333740234375,819.3333740234375,819.3333740234375,818.6666870117188,818.6666870117188,818.6666870117188,818.6666870117188,817.3333740234375,817.3333740234375,816.6666870117188,816.6666870117188,816,816,815.3333740234375,814.6666870117188,814,812,811.3333740234375,806.6666870117188,763.3333740234375,707.3333740234375,677.3333740234375,614.6666870117188,553.3333740234375,522.6666870117188,430,372.66668701171875,312.66668701171875,281.3333435058594,224.6666717529297,146.6666717529297,104.66667175292969,86.66667175292969],"timestamp_mouse":[29,49,69,89,109,129,149,169,189,210,229,249,269,289,309,329,349,369,389,409,429,449,469,489,508,529,549,568,589,608,629,649,669,689,709,729,749,769,789,809,829,849,869,889,911,929,948,969,988,1008,1031,1049,1069,1089,1109,1130,1149,1169],"xSR":350,"ySR":768,"xT1":30,"yT1":0,"xT2":670,"yT2":0,"toosoon":0,"cond_shown":"randomdotsize","ratio_trial":750,"smaller_num":"6","larger_num":"8","correct_side":1,"subjID":"13","gender":"No_gender","age":"No_age","school":"No_school"},{"start_time":1549310015792,"click_time":1549310017071,"finger_time":1549310016831,"fix_duration":580.8685349645175,"trial":7,"RT":1039,"MT":240,"sideResp":1,"stimulus":"img/500/equaldotsize/L/10_Ratio_500_L_4_R_2.png","xmouse":[380.66668701171875,380.66668701171875,380.66668701171875,380.66668701171875,380.66668701171875,380.66668701171875,380.66668701171875,380.66668701171875,380.66668701171875,380.66668701171875,380.66668701171875,380.66668701171875,380.66668701171875,380.66668701171875,380.66668701171875,380,380,380,380,380,380,380,380,380,380,380.66668701171875,380.66668701171875,380.66668701171875,380.66668701171875,380.66668701171875,380.66668701171875,380.66668701171875,380.66668701171875,380.66668701171875,380.66668701171875,386,386,386,386,386,386,386,386,386,386,380,380,380,380,370,364.66668701171875,343.3333435058594,333.3333435058594,328.66668701171875,316,289.3333435058594,266,252,227.33334350585938,202.6666717529297,166,141.33334350585938,119.33333587646484,92.66667175292969],"ymouse":[800.6666870117188,800.6666870117188,800,800,800,800.6666870117188,800.6666870117188,800.6666870117188,800.6666870117188,802,802,802,801.3333740234375,801.3333740234375,801.3333740234375,800.6666870117188,800.6666870117188,800.6666870117188,800.6666870117188,800.6666870117188,800.6666870117188,800.6666870117188,800.6666870117188,800.6666870117188,800.6666870117188,797.3333740234375,797.3333740234375,797.3333740234375,797.3333740234375,797.3333740234375,797.3333740234375,797.3333740234375,797.3333740234375,797.3333740234375,797.3333740234375,797.3333740234375,797.3333740234375,797.3333740234375,797.3333740234375,797.3333740234375,797.3333740234375,797.3333740234375,797.3333740234375,797.3333740234375,797.3333740234375,790.6666870117188,790.6666870117188,790.6666870117188,790.6666870117188,778,772.6666870117188,732,695.3333740234375,675.3333740234375,631.3333740234375,556,505.3333740234375,476.66668701171875,420,355.3333435058594,253.33334350585938,190.6666717529297,134.6666717529297,59.333335876464844],"timestamp_mouse":[31,39,59,79,99,119,139,159,179,199,219,239,259,279,299,320,338,359,379,399,419,439,459,479,499,519,539,559,579,599,620,639,658,679,699,718,738,759,779,799,819,839,859,879,899,919,939,959,978,999,1019,1039,1059,1079,1098,1120,1139,1158,1179,1199,1220,1240,1259,1279],"xSR":350,"ySR":768,"xT1":30,"yT1":0,"xT2":670,"yT2":0,"toosoon":0,"cond_shown":"equaldotsize","ratio_trial":500,"smaller_num":"2","larger_num":"4","correct_side":1,"subjID":"13","gender":"No_gender","age":"No_age","school":"No_school"},{"start_time":1549310020228,"click_time":1549310021591,"finger_time":1549310021250,"fix_duration":856.4625583805167,"trial":8,"RT":1022,"MT":341,"sideResp":2,"stimulus":"img/250/randomdotsizeEA/R/12_Ratio_250_L_5_R_20.png","xmouse":[400,400,400,400,400,400,400,400,400,400,400,392.66668701171875,392.66668701171875,392.66668701171875,392.66668701171875,392.66668701171875,393.3333435058594,393.3333435058594,393.3333435058594,393.3333435058594,394,394,394,394,394,394,394.66668701171875,394.66668701171875,394.66668701171875,394,394,394.66668701171875,394.66668701171875,394.66668701171875,394.66668701171875,394.66668701171875,394.66668701171875,394.66668701171875,394.66668701171875,394.66668701171875,394.66668701171875,394,394,394,394,394,394,394,394,396,396,410.66668701171875,416.66668701171875,434,440.66668701171875,448.66668701171875,464,488.66668701171875,498.66668701171875,522.6666870117188,548,588.6666870117188,610.6666870117188,620.6666870117188,635.3333740234375,642.6666870117188,652.6666870117188,666,674],"ymouse":[817,817,817,817,817,817,817,817,817,817,817,820.6666870117188,820.6666870117188,820.6666870117188,820.6666870117188,821.3333740234375,821.3333740234375,821.3333740234375,821.3333740234375,821.3333740234375,821.3333740234375,821.3333740234375,821.3333740234375,821.3333740234375,821.3333740234375,820.6666870117188,820.6666870117188,820.6666870117188,820,820,820,819.3333740234375,819.3333740234375,819.3333740234375,819.3333740234375,819.3333740234375,819.3333740234375,819.3333740234375,819.3333740234375,819.3333740234375,819.3333740234375,814.6666870117188,814.6666870117188,814.6666870117188,814.6666870117188,814.6666870117188,814.6666870117188,814.6666870117188,814.6666870117188,795.3333740234375,795.3333740234375,712,695.3333740234375,634.6666870117188,610.6666870117188,587.3333740234375,534,453.3333435058594,427.3333435058594,367.3333435058594,309.3333435058594,228.6666717529297,188.6666717529297,172,145.33334350585938,133.33334350585938,117.33334350585938,96.66667175292969,87.33333587646484],"timestamp_mouse":[3,36,43,63,83,103,123,143,163,183,203,223,244,263,283,303,323,343,363,383,403,423,442,463,483,503,523,543,563,583,603,623,643,662,683,703,723,743,763,783,803,823,843,863,883,903,923,943,963,983,1003,1022,1043,1064,1083,1103,1123,1142,1163,1183,1203,1224,1243,1263,1283,1303,1323,1343,1363],"xSR":350,"ySR":768,"xT1":30,"yT1":0,"xT2":670,"yT2":0,"toosoon":0,"cond_shown":"randomdotsizeEA","ratio_trial":250,"smaller_num":"5","larger_num":"20","correct_side":2,"subjID":"13","gender":"No_gender","age":"No_age","school":"No_school"},{"start_time":1549310024696,"click_time":1549310026095,"finger_time":1549310025411,"fix_duration":1444.8886900796144,"trial":9,"RT":715,"MT":684,"sideResp":1,"stimulus":"img/500/randomdotsize/L/4_Ratio_500_L_18_R_9.png","xmouse":[414.66668701171875,414.66668701171875,414.66668701171875,414.66668701171875,414.66668701171875,414.66668701171875,414.66668701171875,414.66668701171875,414.66668701171875,414.66668701171875,414.66668701171875,414.66668701171875,414.66668701171875,414,414,414,414,414,414,414,414,414,414,411.3333435058594,409.3333435058594,407.3333435058594,406.66668701171875,404.66668701171875,401.3333435058594,400,399.3333435058594,397.3333435058594,395.3333435058594,382,376,363.3333435058594,356.66668701171875,340,318.66668701171875,307.3333435058594,301.3333435058594,290,278,271.3333435058594,251.33334350585938,235.33334350585938,226.6666717529297,178.6666717529297,154.6666717529297,117.33333587646484,107.33333587646484,80,64.66667175292969,46.66666793823242,28.666667938232422,26,20.666667938232422,19.33333396911621,17.33333396911621,17.33333396911621,17.33333396911621,17.33333396911621,17.33333396911621,17.33333396911621,22.666667938232422,22.666667938232422,28.666667938232422,30,30,36],"ymouse":[806,806,806,806.6666870117188,806.6666870117188,806.6666870117188,806.6666870117188,806.6666870117188,806.6666870117188,806.6666870117188,806.6666870117188,806.6666870117188,806.6666870117188,807.3333740234375,807.3333740234375,807.3333740234375,807.3333740234375,807.3333740234375,807.3333740234375,807.3333740234375,807.3333740234375,807.3333740234375,807.3333740234375,806.6666870117188,805.3333740234375,804.6666870117188,804,802.6666870117188,800,798,797.3333740234375,794.6666870117188,793.3333740234375,779.3333740234375,772,756.6666870117188,744.6666870117188,712,661.3333740234375,629.3333740234375,612,576,538.6666870117188,520,461.3333435058594,418.66668701171875,396,316,282,205.33334350585938,189.33334350585938,152,130,108.66667175292969,88.66667175292969,84.66667175292969,75.33333587646484,70.66667175292969,60.66667175292969,50,50,50,50,50,38.66666793823242,38.66666793823242,36.66666793823242,36.66666793823242,36.66666793823242,38.66666793823242],"timestamp_mouse":[29,35,55,75,94,115,135,155,175,195,215,235,256,275,295,315,335,354,375,394,415,435,455,476,495,515,535,555,576,595,615,634,655,677,695,715,735,754,777,795,815,835,855,875,895,915,935,955,975,995,1015,1035,1054,1075,1097,1115,1136,1155,1176,1196,1215,1235,1255,1274,1298,1315,1335,1355,1374,1399],"xSR":350,"ySR":768,"xT1":30,"yT1":0,"xT2":670,"yT2":0,"toosoon":0,"cond_shown":"randomdotsize","ratio_trial":500,"smaller_num":"9","larger_num":"18","correct_side":1,"subjID":"13","gender":"No_gender","age":"No_age","school":"No_school"},{"start_time":1549310029122,"click_time":1549310030114,"finger_time":1549310029671,"fix_duration":1070.1833892094503,"trial":10,"RT":549,"MT":443,"sideResp":1,"stimulus":"img/250/equaldotsize/L/15_Ratio_250_L_12_R_3.png","xmouse":[401,401,401,401,401,401,401,401,401,401,401,401,401,401,401,401,401,396.66668701171875,396.66668701171875,396,396,396,396,396,396,396,396,370.66668701171875,360.66668701171875,346.66668701171875,341.3333435058594,332,323.3333435058594,319.3333435058594,302,290.66668701171875,279.3333435058594,274,262,245.33334350585938,231.33334350585938,224,205.33334350585938,185.33334350585938,174,144,126,110,102.66667175292969,86.66667175292969],"ymouse":[784,784,784,784,784,784,784,784,784,784,784,784,784,784,784,784,784,778,778,777.3333740234375,777.3333740234375,777.3333740234375,777.3333740234375,777.3333740234375,777.3333740234375,777.3333740234375,777.3333740234375,741.3333740234375,725.3333740234375,695.3333740234375,678.6666870117188,642.6666870117188,608,591.3333740234375,546,515.3333740234375,480,461.3333435058594,423.3333435058594,356.66668701171875,312,289.3333435058594,249.33334350585938,214,198,158.6666717529297,135.33334350585938,112.66667175292969,102,74.66667175292969],"timestamp_mouse":[10,34,49,69,88,109,129,149,169,189,209,229,249,269,289,308,329,349,369,389,409,429,449,469,489,509,529,549,569,589,609,629,649,669,689,709,728,749,769,789,809,829,848,869,889,909,929,949,969,991],"xSR":350,"ySR":768,"xT1":30,"yT1":0,"xT2":670,"yT2":0,"toosoon":0,"cond_shown":"equaldotsize","ratio_trial":250,"smaller_num":"3","larger_num":"12","correct_side":1,"subjID":"13","gender":"No_gender","age":"No_age","school":"No_school"},{"start_time":1549310032600,"click_time":1549310033632,"finger_time":1549310033232,"fix_duration":1008.1614399196208,"trial":11,"RT":632,"MT":400,"sideResp":2,"stimulus":"img/900/randomdotsize/L/4_Ratio_900_L_20_R_18.png","xmouse":[378,378,378.66668701171875,378.66668701171875,378.66668701171875,378.66668701171875,378.66668701171875,378.66668701171875,378.66668701171875,378.66668701171875,378.66668701171875,378.66668701171875,384.66668701171875,384.66668701171875,384.66668701171875,384.66668701171875,384.66668701171875,384.66668701171875,384.66668701171875,384.66668701171875,380,379.3333435058594,378.66668701171875,378.66668701171875,377.3333435058594,377.3333435058594,376,375.3333435058594,374.66668701171875,374,372,366.66668701171875,364,362.66668701171875,362.66668701171875,364.66668701171875,376,416,450,467.3333435058594,498.66668701171875,524.6666870117188,554.6666870117188,563.3333740234375,578,590,596.6666870117188,634,644,659.3333740234375,666,674],"ymouse":[797.3333740234375,820.6666870117188,820.6666870117188,820.6666870117188,820.6666870117188,820.6666870117188,820.6666870117188,820.6666870117188,820.6666870117188,820.6666870117188,820.6666870117188,820.6666870117188,811.3333740234375,811.3333740234375,811.3333740234375,811.3333740234375,811.3333740234375,811.3333740234375,811.3333740234375,811.3333740234375,802,800,798.6666870117188,797.3333740234375,796,795.3333740234375,792.6666870117188,790.6666870117188,787.3333740234375,786,777.3333740234375,732.6666870117188,698,682.6666870117188,652,634,589.3333740234375,506,452,422.66668701171875,374,331.3333435058594,278.66668701171875,263.3333435058594,239.33334350585938,217.33334350585938,204.6666717529297,150,136,116.66667175292969,109.33333587646484,99.33333587646484],"timestamp_mouse":[11,37,66,72,91,111,131,151,171,191,211,232,254,271,291,311,331,351,371,391,411,432,451,471,491,511,532,551,570,591,611,632,651,671,691,711,731,755,771,791,811,831,852,871,891,911,931,954,970,991,1011,1031],"xSR":350,"ySR":768,"xT1":30,"yT1":0,"xT2":670,"yT2":0,"toosoon":0,"cond_shown":"randomdotsize","ratio_trial":900,"smaller_num":"18","larger_num":"20","correct_side":1,"subjID":"13","gender":"No_gender","age":"No_age","school":"No_school"},{"start_time":1549310037082,"click_time":1549310037811,"finger_time":1549310037451,"fix_duration":730.5919734494059,"trial":12,"RT":369,"MT":360,"sideResp":2,"stimulus":"img/250/randomdotsizeEA/L/14_Ratio_250_L_12_R_3.png","xmouse":[422,422,422,422,422,422,422,422,422,422,422,422,422,422,422,420,420.66668701171875,420.66668701171875,432.66668701171875,457.3333435058594,476.66668701171875,486.66668701171875,505.3333435058594,514,540.6666870117188,546.6666870117188,558.6666870117188,565.3333740234375,579.3333740234375,605.3333740234375,626,636,658.6666870117188,680.6666870117188,712,720.6666870117188,740.6666870117188],"ymouse":[809,809,809,809,809,809,809,809,809,809,809,809,809,809,809,800,790,790,738,680,638.6666870117188,616.6666870117188,572.6666870117188,551.3333740234375,475.3333435058594,458.66668701171875,421.3333435058594,401.3333435058594,362.66668701171875,303.3333435058594,261.3333435058594,240.66668701171875,198.6666717529297,163.33334350585938,120,108,88],"timestamp_mouse":[10,34,49,69,88,109,128,149,169,189,209,229,249,269,289,309,329,349,369,389,409,429,449,469,490,509,529,549,569,589,609,629,649,669,692,709,728],"xSR":350,"ySR":768,"xT1":30,"yT1":0,"xT2":670,"yT2":0,"toosoon":0,"cond_shown":"randomdotsizeEA","ratio_trial":250,"smaller_num":"3","larger_num":"12","correct_side":1,"subjID":"13","gender":"No_gender","age":"No_age","school":"No_school"},{"start_time":1549310039843,"click_time":1549310040651,"finger_time":1549310040271,"fix_duration":830.3364941475097,"trial":13,"RT":428,"MT":380,"sideResp":1,"stimulus":"img/250/equaldotanddens/R/9_Ratio_250_L_3_R_12.png","xmouse":[400.66668701171875,400.66668701171875,400.66668701171875,400.66668701171875,400.66668701171875,400.66668701171875,400.66668701171875,400.66668701171875,400.66668701171875,400.66668701171875,400.66668701171875,400.66668701171875,400.66668701171875,400.66668701171875,400.66668701171875,400.66668701171875,400.66668701171875,400.66668701171875,400.66668701171875,390,382,370,342.66668701171875,334,321.3333435058594,310.66668701171875,305.3333435058594,290.66668701171875,278,266,259.3333435058594,245.33334350585938,221.33334350585938,204,195.33334350585938,176.6666717529297,168,151.33334350585938,129.33334350585938,118.66667175292969,114],"ymouse":[793.3333740234375,793.3333740234375,793.3333740234375,793.3333740234375,793.3333740234375,793.3333740234375,793.3333740234375,793.3333740234375,792.6666870117188,792.6666870117188,792.6666870117188,792.6666870117188,792.6666870117188,792.6666870117188,792.6666870117188,792.6666870117188,792.6666870117188,792.6666870117188,792.6666870117188,778,769.3333740234375,755.3333740234375,715.3333740234375,699.3333740234375,667.3333740234375,632.6666870117188,614,552,506,460,434.66668701171875,387.3333435058594,310.66668701171875,264.66668701171875,243.33334350585938,207.33334350585938,191.33334350585938,163.33334350585938,125.33334350585938,101.33333587646484,92],"timestamp_mouse":[9,28,48,68,88,108,128,148,168,188,208,228,247,268,288,308,328,348,369,388,408,428,448,468,487,508,528,548,568,589,608,628,648,667,688,708,728,748,767,788,808],"xSR":350,"ySR":768,"xT1":30,"yT1":0,"xT2":670,"yT2":0,"toosoon":0,"cond_shown":"equaldotanddens","ratio_trial":250,"smaller_num":"3","larger_num":"12","correct_side":2,"subjID":"13","gender":"No_gender","age":"No_age","school":"No_school"},{"start_time":1549310048164,"click_time":1549310049771,"finger_time":1549310049051,"fix_duration":311.75732441466073,"trial":14,"RT":887,"MT":720,"sideResp":1,"stimulus":"img/500/equaldotsize/L/5_Ratio_500_L_4_R_2.png","xmouse":[422.66668701171875,422.66668701171875,422.66668701171875,422.66668701171875,422.66668701171875,422.66668701171875,422.66668701171875,422,422,422,422,422,422,422,422,422,422,422.66668701171875,422.66668701171875,422.66668701171875,422.66668701171875,422.66668701171875,422.66668701171875,422.66668701171875,422.66668701171875,422.66668701171875,422.66668701171875,423.3333435058594,423.3333435058594,423.3333435058594,423.3333435058594,423.3333435058594,423.3333435058594,423.3333435058594,423.3333435058594,423.3333435058594,423.3333435058594,420.66668701171875,419.3333435058594,417.3333435058594,416.66668701171875,414.66668701171875,412,409.3333435058594,397.3333435058594,385.3333435058594,372,360.66668701171875,348,332,320.66668701171875,318,314,314,314,314,314,242.6666717529297,231.33334350585938,174.6666717529297,168,164.6666717529297,164.6666717529297,164.6666717529297,151.33334350585938,150.6666717529297,150.6666717529297,150.6666717529297,150.6666717529297,150.6666717529297,158,158,158,158,158,158,158,158,158,158,119.33333587646484],"ymouse":[798,798,798,798,798,798,798,800,800,800,800,800,800,800,800,800,800,798,798,798,798,798,798,798,798,798,798,795.3333740234375,795.3333740234375,795.3333740234375,795.3333740234375,795.3333740234375,795.3333740234375,795.3333740234375,795.3333740234375,795.3333740234375,795.3333740234375,788.6666870117188,787.3333740234375,784.6666870117188,784,781.3333740234375,775.3333740234375,768,721.3333740234375,674.6666870117188,620,568.6666870117188,516.6666870117188,442,368,364.66668701171875,355.3333435058594,355.3333435058594,355.3333435058594,355.3333435058594,355.3333435058594,72.66667175292969,56.66667175292969,0.6666660308837891,2.666666030883789,2.666666030883789,2.666666030883789,2.666666030883789,1.333333969116211,0.6666660308837891,0.6666660308837891,0.6666660308837891,0.6666660308837891,0.6666660308837891,3.333333969116211,3.333333969116211,3.333333969116211,3.333333969116211,3.333333969116211,3.333333969116211,3.333333969116211,3.333333969116211,3.333333969116211,3.333333969116211,25.33333396911621],"timestamp_mouse":[9,28,47,67,87,107,127,147,167,188,207,227,247,267,286,307,327,347,367,387,407,427,447,467,488,507,527,547,567,587,607,627,647,667,687,707,727,747,767,787,807,827,847,867,887,907,927,947,967,987,1007,1027,1047,1067,1087,1107,1127,1147,1167,1188,1207,1227,1247,1267,1288,1308,1327,1347,1367,1387,1408,1427,1447,1467,1486,1507,1527,1547,1567,1587,1606],"xSR":350,"ySR":768,"xT1":30,"yT1":0,"xT2":670,"yT2":0,"toosoon":0,"cond_shown":"equaldotsize","ratio_trial":500,"smaller_num":"2","larger_num":"4","correct_side":1,"subjID":"13","gender":"No_gender","age":"No_age","school":"No_school"},{"start_time":1549310052244,"click_time":1549310053292,"finger_time":1549310052951,"fix_duration":1490.1396632467677,"trial":15,"RT":707,"MT":341,"sideResp":2,"stimulus":"img/250/equaldotanddens/R/10_Ratio_250_L_4_R_16.png","xmouse":[384.66668701171875,384.66668701171875,384.66668701171875,384.66668701171875,384.66668701171875,384.66668701171875,384.66668701171875,384.66668701171875,384.66668701171875,384.66668701171875,384.66668701171875,384.66668701171875,384.66668701171875,384.66668701171875,384.66668701171875,384.66668701171875,384.66668701171875,384.66668701171875,384.66668701171875,385.3333435058594,385.3333435058594,385.3333435058594,385.3333435058594,385.3333435058594,385.3333435058594,385.3333435058594,388,388,388,391.3333435058594,391.3333435058594,392.66668701171875,394,395.3333435058594,396.66668701171875,402,417.3333435058594,430.66668701171875,438,454.66668701171875,463.3333435058594,506,520.6666870117188,552.6666870117188,569.3333740234375,603.3333740234375,626.6666870117188,646,652.6666870117188,670,688,696,714],"ymouse":[795.3333740234375,795.3333740234375,795.3333740234375,795.3333740234375,795.3333740234375,795.3333740234375,795.3333740234375,795.3333740234375,795.3333740234375,794,794,794,794,794,794,794,794,794,794,794,794,794,794,794,794,794,793.3333740234375,793.3333740234375,793.3333740234375,788.6666870117188,788,784,781.3333740234375,776.6666870117188,773.3333740234375,762,734,711.3333740234375,698.6666870117188,670,654.6666870117188,568,538,475.3333435058594,444.66668701171875,384,338.66668701171875,286.66668701171875,264,216,170.6666717529297,149.33334350585938,95.33333587646484],"timestamp_mouse":[7,41,47,67,87,107,127,146,167,187,207,227,247,266,287,307,327,347,367,387,407,428,447,467,487,507,529,547,567,587,607,628,647,667,687,707,728,747,767,787,807,828,847,867,887,907,927,947,967,987,1006,1027,1048],"xSR":350,"ySR":768,"xT1":30,"yT1":0,"xT2":670,"yT2":0,"toosoon":0,"cond_shown":"equaldotanddens","ratio_trial":250,"smaller_num":"4","larger_num":"16","correct_side":2,"subjID":"13","gender":"No_gender","age":"No_age","school":"No_school"},{"start_time":1549310059331,"click_time":1549310060632,"finger_time":1549310060271,"fix_duration":1498.6350863564876,"trial":16,"RT":940,"MT":361,"sideResp":2,"stimulus":"img/750/randomdotsize/R/15_Ratio_750_L_9_R_12.png","xmouse":[404.66668701171875,404.66668701171875,404.66668701171875,405.3333435058594,405.3333435058594,405.3333435058594,405.3333435058594,405.3333435058594,405.3333435058594,405.3333435058594,405.3333435058594,405.3333435058594,405.3333435058594,406.66668701171875,406.66668701171875,406.66668701171875,406.66668701171875,406.66668701171875,406.66668701171875,406.66668701171875,406.66668701171875,406.66668701171875,406.66668701171875,407.3333435058594,407.3333435058594,407.3333435058594,407.3333435058594,407.3333435058594,407.3333435058594,407.3333435058594,407.3333435058594,407.3333435058594,407.3333435058594,408.66668701171875,408.66668701171875,408.66668701171875,408.66668701171875,408.66668701171875,408.66668701171875,408.66668701171875,408.66668701171875,410,410,410,410.66668701171875,417.3333435058594,422.66668701171875,438,448,470.66668701171875,504,522.6666870117188,532.6666870117188,551.3333740234375,561.3333740234375,601.3333740234375,610,628,643.3333740234375,649.3333740234375,662.6666870117188,668,669.3333740234375,671.3333740234375,672,674.6666870117188],"ymouse":[826,826,826,825.3333740234375,825.3333740234375,825.3333740234375,825.3333740234375,825.3333740234375,825.3333740234375,825.3333740234375,825.3333740234375,825.3333740234375,825.3333740234375,826,826,826,826,826,826,826,826,826,826,826,826,826,826,826,826,826,826,826,826,823.3333740234375,823.3333740234375,823.3333740234375,823.3333740234375,823.3333740234375,823.3333740234375,823.3333740234375,823.3333740234375,820,818.6666870117188,816,814,794.6666870117188,783.3333740234375,752.6666870117188,733.3333740234375,690.6666870117188,612.6666870117188,556.6666870117188,526.6666870117188,464.66668701171875,434,318.66668701171875,293.3333435058594,244.66668701171875,203.33334350585938,186.6666717529297,144,125.33334350585938,119.33334350585938,109.33333587646484,100,92.66667175292969],"timestamp_mouse":[1,29,40,60,81,100,120,140,160,180,200,219,240,260,280,300,320,340,360,380,400,420,440,460,480,500,519,539,560,580,600,620,640,659,680,700,720,740,760,780,800,820,839,860,880,901,920,940,960,980,1001,1020,1040,1060,1080,1101,1120,1140,1160,1179,1203,1219,1240,1259,1280,1301],"xSR":350,"ySR":768,"xT1":30,"yT1":0,"xT2":670,"yT2":0,"toosoon":0,"cond_shown":"randomdotsize","ratio_trial":750,"smaller_num":"9","larger_num":"12","correct_side":2,"subjID":"13","gender":"No_gender","age":"No_age","school":"No_school"},{"start_time":1549310065791,"click_time":1549310066811,"finger_time":1549310066471,"fix_duration":1276.9502045496392,"trial":17,"RT":680,"MT":340,"sideResp":1,"stimulus":"img/500/equaldotsize/L/10_Ratio_500_L_4_R_2.png","xmouse":[390,390,390,390,390,390,390,390,390,390,390,390,390,390,390,390,390,390,390,394.66668701171875,394.66668701171875,394.66668701171875,394.66668701171875,394.66668701171875,394.66668701171875,396,396.66668701171875,397.3333435058594,397.3333435058594,398.66668701171875,399.3333435058594,399.3333435058594,399.3333435058594,398.66668701171875,392,382,376,364.66668701171875,358,333.3333435058594,325.3333435058594,310,301.3333435058594,284,256,234.6666717529297,223.33334350585938,200,176,163.33334350585938,128,108.66667175292969],"ymouse":[828,828,828,828,828,828,828,828,828,828,828,828,828,828,828,828,828,828,828,821.3333740234375,820.6666870117188,820.6666870117188,820.6666870117188,820.6666870117188,820.6666870117188,814,810.6666870117188,808,806,800,795.3333740234375,788.6666870117188,784,771.3333740234375,740,708,691.3333740234375,658,640,562,540,494.66668701171875,471.3333435058594,425.3333435058594,354.66668701171875,306,281.3333435058594,234,188.6666717529297,167.33334350585938,111.33333587646484,78.66667175292969],"timestamp_mouse":[2,28,40,60,80,100,120,140,160,180,200,220,240,260,280,300,320,340,360,380,400,420,440,460,480,500,520,540,560,581,600,620,640,660,680,700,720,740,760,783,800,820,840,860,884,900,920,940,960,980,1000,1020],"xSR":350,"ySR":768,"xT1":30,"yT1":0,"xT2":670,"yT2":0,"toosoon":0,"cond_shown":"equaldotsize","ratio_trial":500,"smaller_num":"2","larger_num":"4","correct_side":1,"subjID":"13","gender":"No_gender","age":"No_age","school":"No_school"},{"start_time":1549310070243,"click_time":1549310071151,"finger_time":1549310070615,"fix_duration":250,"trial":18,"RT":372,"MT":536,"sideResp":1,"stimulus":"img/900/equaldotsize/R/14_Ratio_900_L_18_R_20.png","xmouse":[416,416,416,416,416,416,416,416,414,414,414,414,414,412,411.3333435058594,411.3333435058594,411.3333435058594,411.3333435058594,418.66668701171875,418.66668701171875,418.66668701171875,422.66668701171875,423.3333435058594,424,424,424,424,397.3333435058594,370.66668701171875,349.3333435058594,338,314,290.66668701171875,258,248,226.6666717529297,216,198,176,163.33334350585938,156.6666717529297,148,140.6666717529297,132,130,127.33334350585938],"ymouse":[812.6666870117188,812.6666870117188,812.6666870117188,812.6666870117188,812.6666870117188,812.6666870117188,812.6666870117188,812.6666870117188,808.6666870117188,808.6666870117188,808.6666870117188,808.6666870117188,808.6666870117188,799.3333740234375,796,788.6666870117188,788.6666870117188,788.6666870117188,696,696,696,615.3333740234375,585.3333740234375,570,570,570,570,452.66668701171875,414.66668701171875,388,375.3333435058594,347.3333435058594,315.3333435058594,264.66668701171875,247.33334350585938,214,197.33334350585938,170,135.33334350585938,118.66667175292969,110.66667175292969,102,94.66667175292969,88,87.33333587646484,86],"timestamp_mouse":[9,34,50,68,88,108,128,148,169,188,208,228,248,268,288,308,328,348,372,388,408,428,448,469,488,508,528,548,569,588,608,628,648,668,688,708,728,748,768,788,808,828,848,869,888,908],"xSR":350,"ySR":768,"xT1":30,"yT1":0,"xT2":670,"yT2":0,"toosoon":0,"cond_shown":"equaldotsize","ratio_trial":900,"smaller_num":"18","larger_num":"20","correct_side":2,"subjID":"13","gender":"No_gender","age":"No_age","school":"No_school"},{"start_time":1549310074484,"click_time":1549310075537,"finger_time":1549310075351,"fix_duration":1491.9141678277565,"trial":19,"RT":867,"MT":186,"sideResp":2,"stimulus":"img/900/randomdotsizeEA/R/7_Ratio_900_L_9_R_10.png","xmouse":[401,401,401,401,401,401,401,401,401,401,401,401,401,401,401,401,401,401,401,401,401,401,401,401,401,401,401,401,401,401,401,401,401,401,401,401,401,401,401,401,403.3333435058594,404.66668701171875,404.66668701171875,500.66668701171875,531.3333740234375,575.3333740234375,612.6666870117188,673.3333740234375,690,716,731.3333740234375,738,742],"ymouse":[802,802,802,802,802,802,802,802,802,802,802,802,802,802,802,802,802,802,802,802,802,802,802,802,802,802,802,802,802,802,802,802,802,802,802,802,802,802,802,802,794,791.3333740234375,791.3333740234375,607.3333740234375,554,472.66668701171875,400,270,229.33334350585938,166.6666717529297,118.66667175292969,100,68],"timestamp_mouse":[9,27,47,67,87,107,127,147,167,187,207,227,247,269,287,307,327,347,367,387,407,427,447,467,487,507,527,547,567,587,607,627,647,666,687,707,727,747,767,787,807,827,847,867,887,906,927,948,967,987,1007,1027,1053],"xSR":350,"ySR":768,"xT1":30,"yT1":0,"xT2":670,"yT2":0,"toosoon":0,"cond_shown":"randomdotsizeEA","ratio_trial":900,"smaller_num":"9","larger_num":"10","correct_side":2,"subjID":"13","gender":"No_gender","age":"No_age","school":"No_school"},{"start_time":1549310077949,"click_time":1549310078672,"finger_time":1549310078152,"fix_duration":317.50589468781124,"trial":20,"RT":203,"MT":520,"sideResp":2,"stimulus":"img/500/equaldotanddens/L/10_Ratio_500_L_4_R_2.png","xmouse":[400,400,400,400,400,401.3333435058594,403.3333435058594,405.3333435058594,408.66668701171875,408.66668701171875,442.66668701171875,454.66668701171875,462.66668701171875,484,496,538.6666870117188,550,568.6666870117188,576,594.6666870117188,616,638.6666870117188,659.3333740234375,674.6666870117188,682,690,696,699.3333740234375,701.3333740234375,702,704,706,706.6666870117188,708,709.3333740234375,710,714.6666870117188],"ymouse":[827.3333740234375,827.3333740234375,827.3333740234375,826.6666870117188,826.6666870117188,824,821.3333740234375,815.3333740234375,806,806,714.6666870117188,678.6666870117188,656.6666870117188,607.3333740234375,584,499.3333740234375,476.66668701171875,434,411.3333435058594,362.66668701171875,312.66668701171875,259.3333435058594,214.6666717529297,180.6666717529297,168.6666717529297,150,136.6666717529297,130,124.66667175292969,122.66667175292969,119.33334350585938,115.33334350585938,114,110.66667175292969,106,103.33333587646484,90.66667175292969],"timestamp_mouse":[6,22,42,65,82,104,121,142,162,182,203,222,242,262,282,304,322,343,361,382,401,422,442,462,482,502,522,542,562,582,602,621,642,662,681,702,722],"xSR":350,"ySR":768,"xT1":30,"yT1":0,"xT2":670,"yT2":0,"toosoon":0,"cond_shown":"equaldotanddens","ratio_trial":500,"smaller_num":"2","larger_num":"4","correct_side":1,"subjID":"13","gender":"No_gender","age":"No_age","school":"No_school"},{"start_time":1549310080762,"click_time":1549310081911,"finger_time":1549310081192,"fix_duration":250,"trial":21,"RT":430,"MT":719,"sideResp":1,"stimulus":"img/750/equaldotsize/L/1_Ratio_750_L_20_R_15.png","xmouse":[394,394,394,394,394,394,394,391.3333435058594,390,388.66668701171875,388.66668701171875,388.66668701171875,388.66668701171875,388.66668701171875,388.66668701171875,388.66668701171875,388.66668701171875,388.66668701171875,388.66668701171875,374.66668701171875,374.66668701171875,352,343.3333435058594,320.66668701171875,320.66668701171875,288,256.66668701171875,233.33334350585938,222,198.6666717529297,166.6666717529297,150.6666717529297,142,127.33334350585938,120,98.66667175292969,93.33333587646484,85.33333587646484,81.33333587646484,74,70,66.66667175292969,66,67.33333587646484,67.33333587646484,67.33333587646484,67.33333587646484,67.33333587646484,67.33333587646484,67.33333587646484,67.33333587646484,67.33333587646484,67.33333587646484,69.33333587646484,70,70,70,70],"ymouse":[810,810,810,810,810,810,810,802.6666870117188,802,801.3333740234375,801.3333740234375,801.3333740234375,801.3333740234375,801.3333740234375,801.3333740234375,801.3333740234375,801.3333740234375,801.3333740234375,801.3333740234375,790,790,758,746,716,716,669.3333740234375,618.6666870117188,582,561.3333740234375,516.6666870117188,444.66668701171875,392,366,316.66668701171875,292,207.33334350585938,190,160.6666717529297,148,130.6666717529297,120.66667175292969,112.66667175292969,111.33333587646484,111.33333587646484,111.33333587646484,111.33333587646484,111.33333587646484,111.33333587646484,111.33333587646484,111.33333587646484,111.33333587646484,111.33333587646484,111.33333587646484,108,107.33333587646484,105.33333587646484,102,98.66667175292969],"timestamp_mouse":[28,29,49,69,89,109,129,149,169,189,209,229,249,269,289,309,329,349,369,389,409,430,449,469,489,509,529,549,569,589,611,629,649,668,689,711,729,750,769,789,808,830,848,869,888,909,929,949,969,989,1009,1030,1049,1069,1089,1109,1131,1148],"xSR":350,"ySR":768,"xT1":30,"yT1":0,"xT2":670,"yT2":0,"toosoon":0,"cond_shown":"equaldotsize","ratio_trial":750,"smaller_num":"15","larger_num":"20","correct_side":1,"subjID":"13","gender":"No_gender","age":"No_age","school":"No_school"},{"start_time":1549310084194,"click_time":1549310084912,"finger_time":1549310084493,"fix_duration":399.3456114922681,"trial":22,"RT":299,"MT":419,"sideResp":2,"stimulus":"img/500/randomdotsizeEA/R/6_Ratio_500_L_9_R_18.png","xmouse":[383.3333435058594,386,389.3333435058594,390.66668701171875,394.66668701171875,396.66668701171875,396.66668701171875,400.66668701171875,402.66668701171875,406,408.66668701171875,410,413.3333435058594,416,449.3333435058594,464,492.66668701171875,506.66668701171875,534,572.6666870117188,596,606,624,639.3333740234375,661.3333740234375,668,679.3333740234375,686,688,692.6666870117188,705.3333740234375,711.3333740234375,714,718,717.3333740234375,718],"ymouse":[818.6666870117188,816.6666870117188,816,815.3333740234375,813.3333740234375,811.3333740234375,811.3333740234375,808.6666870117188,806.6666870117188,803.3333740234375,801.3333740234375,800,797.3333740234375,794.6666870117188,747.3333740234375,726.6666870117188,686.6666870117188,669.3333740234375,634.6666870117188,574,534,514.6666870117188,480,444.66668701171875,387.3333435058594,366.66668701171875,332,300.66668701171875,285.3333435058594,254.66668701171875,206,172,158,130,102,97.33333587646484],"timestamp_mouse":[18,37,57,77,100,129,137,157,177,199,217,236,257,277,299,319,337,357,377,399,417,437,457,477,499,517,537,557,577,597,617,637,657,677,697,718],"xSR":350,"ySR":768,"xT1":30,"yT1":0,"xT2":670,"yT2":0,"toosoon":0,"cond_shown":"randomdotsizeEA","ratio_trial":500,"smaller_num":"9","larger_num":"18","correct_side":2,"subjID":"13","gender":"No_gender","age":"No_age","school":"No_school"},{"start_time":1549310092342,"click_time":1549310093391,"finger_time":1549310092938,"fix_duration":250,"trial":23,"RT":596,"MT":453,"sideResp":1,"stimulus":"img/250/equaldotanddens/L/14_Ratio_250_L_12_R_3.png","xmouse":[372,372,372,372,372,372,372,378,378,378,378,378,378,378,378,378,378,379.3333435058594,379.3333435058594,379.3333435058594,379.3333435058594,379.3333435058594,379.3333435058594,379.3333435058594,379.3333435058594,379.3333435058594,378.66668701171875,378.66668701171875,379.3333435058594,380,380,379.3333435058594,376.66668701171875,366.66668701171875,356,310,274.66668701171875,238.6666717529297,220.6666717529297,188,158.6666717529297,123.33334350585938,113.33333587646484,77.33333587646484,59.333335876464844,43.333335876464844,33.333335876464844,32,34,34,34,42.66666793823242],"ymouse":[818,818,818,818,818,818,818,822.6666870117188,822.6666870117188,822.6666870117188,822.6666870117188,822.6666870117188,822.6666870117188,822.6666870117188,822.6666870117188,822.6666870117188,822.6666870117188,823.3333740234375,823.3333740234375,823.3333740234375,823.3333740234375,823.3333740234375,823.3333740234375,823.3333740234375,823.3333740234375,823.3333740234375,801.3333740234375,797.3333740234375,784.6666870117188,767.3333740234375,754.6666870117188,748,736.6666870117188,720.6666870117188,708.6666870117188,661.3333740234375,630.6666870117188,596.6666870117188,578,542.6666870117188,502.66668701171875,430.66668701171875,406,307.3333435058594,262.66668701171875,219.33334350585938,176,154.6666717529297,116,116,116,63.333335876464844],"timestamp_mouse":[28,29,49,69,89,109,129,149,169,189,209,229,249,269,289,309,329,348,369,389,409,429,448,469,489,509,529,549,569,596,612,630,649,669,689,713,732,749,769,789,808,831,880,889,913,929,949,969,988,1010,1031,1049],"xSR":350,"ySR":768,"xT1":30,"yT1":0,"xT2":670,"yT2":0,"toosoon":0,"cond_shown":"equaldotanddens","ratio_trial":250,"smaller_num":"3","larger_num":"12","correct_side":1,"subjID":"13","gender":"No_gender","age":"No_age","school":"No_school"},{"start_time":1549310098482,"click_time":1549310099914,"finger_time":1549310099712,"fix_duration":270.6764587478965,"trial":24,"RT":1230,"MT":202,"sideResp":2,"stimulus":"img/900/equaldotanddens/L/10_Ratio_900_L_20_R_18.png","xmouse":[416,416,416,416,416,416,416,416,416,416,416,416,403.3333435058594,403.3333435058594,404,404,404,404,404,404.66668701171875,404.66668701171875,404.66668701171875,404.66668701171875,404.66668701171875,404.66668701171875,404.66668701171875,404.66668701171875,404.66668701171875,404.66668701171875,406,406,406,406,406,406,406,406,406,406,405.3333435058594,405.3333435058594,405.3333435058594,405.3333435058594,405.3333435058594,405.3333435058594,405.3333435058594,405.3333435058594,405.3333435058594,405.3333435058594,405.3333435058594,405.3333435058594,405.3333435058594,405.3333435058594,405.3333435058594,405.3333435058594,405.3333435058594,405.3333435058594,405.3333435058594,405.3333435058594,405.3333435058594,405.3333435058594,419.3333435058594,437.3333435058594,449.3333435058594,480,496.66668701171875,576.6666870117188,598.6666870117188,637.3333740234375,654,686.6666870117188,724],"ymouse":[778,778,778,778,778,778,778,778,778,778,778,778,839.3333740234375,840,841.3333740234375,842.6666870117188,842.6666870117188,842.6666870117188,842,842,842,842,842,842,842,842,842,842,842,837.3333740234375,837.3333740234375,837.3333740234375,837.3333740234375,837.3333740234375,837.3333740234375,837.3333740234375,837.3333740234375,837.3333740234375,837.3333740234375,838.6666870117188,838.6666870117188,838.6666870117188,838.6666870117188,838.6666870117188,838.6666870117188,838.6666870117188,838.6666870117188,838.6666870117188,838.6666870117188,838.6666870117188,838.6666870117188,838.6666870117188,838.6666870117188,838,838,838,838,838,838,838,838,740,678.6666870117188,646.6666870117188,580.6666870117188,546.6666870117188,403.3333435058594,364.66668701171875,289.3333435058594,254,182.6666717529297,94.66667175292969],"timestamp_mouse":[12,29,49,69,89,109,129,149,169,189,209,229,248,269,289,312,329,349,369,396,409,431,449,469,488,509,529,549,569,589,609,628,649,669,689,709,729,749,769,789,809,829,849,869,888,909,929,949,969,989,1009,1029,1049,1068,1089,1109,1128,1149,1169,1189,1209,1230,1249,1269,1289,1309,1330,1349,1369,1389,1409,1432],"xSR":350,"ySR":768,"xT1":30,"yT1":0,"xT2":670,"yT2":0,"toosoon":0,"cond_shown":"equaldotanddens","ratio_trial":900,"smaller_num":"18","larger_num":"20","correct_side":1,"subjID":"13","gender":"No_gender","age":"No_age","school":"No_school"},{"start_time":1549310102729,"click_time":1549310103971,"finger_time":1549310103651,"fix_duration":1017.446720832356,"trial":25,"RT":922,"MT":320,"sideResp":1,"stimulus":"img/750/randomdotsizeEA/L/6_Ratio_750_L_24_R_18.png","xmouse":[379.3333435058594,379.3333435058594,379.3333435058594,379.3333435058594,379.3333435058594,379.3333435058594,379.3333435058594,379.3333435058594,380,380,380,380,380,380,380.66668701171875,380.66668701171875,380.66668701171875,380.66668701171875,380.66668701171875,381.3333435058594,381.3333435058594,381.3333435058594,381.3333435058594,381.3333435058594,381.3333435058594,381.3333435058594,381.3333435058594,381.3333435058594,381.3333435058594,381.3333435058594,381.3333435058594,381.3333435058594,381.3333435058594,381.3333435058594,381.3333435058594,381.3333435058594,381.3333435058594,381.3333435058594,381.3333435058594,381.3333435058594,380.66668701171875,380.66668701171875,380.66668701171875,380.66668701171875,380.66668701171875,363.3333435058594,348.66668701171875,337.3333435058594,337.3333435058594,337.3333435058594,219.33334350585938,206.6666717529297,183.33334350585938,160,148,114.66667175292969,93.33333587646484,84,66,50.66666793823242,38,35.333335876464844,32.66666793823242],"ymouse":[812.6666870117188,812.6666870117188,812.6666870117188,812,812,811.3333740234375,810.6666870117188,810.6666870117188,810.6666870117188,810.6666870117188,810.6666870117188,810.6666870117188,810.6666870117188,810,810,810,810,810,810,810,810,810,810,810,810,810,810,809.3333740234375,809.3333740234375,809.3333740234375,809.3333740234375,809.3333740234375,809.3333740234375,809.3333740234375,809.3333740234375,809.3333740234375,809.3333740234375,809.3333740234375,809.3333740234375,809.3333740234375,809.3333740234375,809.3333740234375,809.3333740234375,809.3333740234375,809.3333740234375,797.3333740234375,784,772,772,772,616,594.6666870117188,556,507.3333740234375,477.3333435058594,385.3333435058594,329.3333435058594,304.66668701171875,259.3333435058594,214.6666717529297,145.33334350585938,125.33334350585938,92],"timestamp_mouse":[9,33,42,61,82,102,123,142,162,182,202,222,242,262,281,302,322,342,362,382,402,422,442,462,482,502,522,542,562,581,602,622,642,662,682,702,722,742,762,782,805,822,842,862,882,904,922,942,962,982,1005,1021,1042,1062,1082,1104,1122,1142,1162,1182,1204,1223,1242],"xSR":350,"ySR":768,"xT1":30,"yT1":0,"xT2":670,"yT2":0,"toosoon":0,"cond_shown":"randomdotsizeEA","ratio_trial":750,"smaller_num":"18","larger_num":"24","correct_side":1,"subjID":"13","gender":"No_gender","age":"No_age","school":"No_school"},{"start_time":1549310106470,"click_time":1549310108274,"finger_time":1549310107831,"fix_duration":557.4867469975354,"trial":26,"RT":1361,"MT":443,"sideResp":1,"stimulus":"img/250/equaldotanddens/L/3_Ratio_250_L_8_R_2.png","xmouse":[386.66668701171875,386.66668701171875,386.66668701171875,386.66668701171875,387.3333435058594,387.3333435058594,387.3333435058594,387.3333435058594,387.3333435058594,387.3333435058594,387.3333435058594,387.3333435058594,387.3333435058594,387.3333435058594,387.3333435058594,387.3333435058594,387.3333435058594,387.3333435058594,387.3333435058594,387.3333435058594,387.3333435058594,387.3333435058594,387.3333435058594,387.3333435058594,387.3333435058594,387.3333435058594,387.3333435058594,387.3333435058594,387.3333435058594,387.3333435058594,387.3333435058594,387.3333435058594,387.3333435058594,387.3333435058594,390.66668701171875,390.66668701171875,390.66668701171875,390.66668701171875,390.66668701171875,390.66668701171875,390.66668701171875,393.3333435058594,392.66668701171875,392.66668701171875,392.66668701171875,392.66668701171875,392.66668701171875,392.66668701171875,392.66668701171875,392.66668701171875,392.66668701171875,392.66668701171875,392.66668701171875,392.66668701171875,394,394,394,393.3333435058594,393.3333435058594,393.3333435058594,393.3333435058594,393.3333435058594,393.3333435058594,393.3333435058594,374.66668701171875,367.3333435058594,364,358.66668701171875,335.3333435058594,321.3333435058594,288,284,275.3333435058594,270,255.33334350585938,227.33334350585938,208,198.6666717529297,180.6666717529297,162.6666717529297,135.33334350585938,128,112,104.66667175292969,91.33333587646484,73.33333587646484,62,58,51.333335876464844,50,48],"ymouse":[828,828,828,828,828.6666870117188,828.6666870117188,828.6666870117188,828.6666870117188,828.6666870117188,828.6666870117188,828.6666870117188,828.6666870117188,828.6666870117188,828.6666870117188,828.6666870117188,828.6666870117188,828.6666870117188,828.6666870117188,828.6666870117188,828.6666870117188,828.6666870117188,828.6666870117188,828.6666870117188,828.6666870117188,828.6666870117188,828.6666870117188,828.6666870117188,828.6666870117188,828.6666870117188,828.6666870117188,828.6666870117188,828.6666870117188,828.6666870117188,828.6666870117188,831.3333740234375,831.3333740234375,831.3333740234375,831.3333740234375,831.3333740234375,831.3333740234375,831.3333740234375,832.6666870117188,832,832,830.6666870117188,830.6666870117188,830.6666870117188,830.6666870117188,830.6666870117188,830.6666870117188,830.6666870117188,830.6666870117188,830.6666870117188,830.6666870117188,832,832,831.3333740234375,831.3333740234375,831.3333740234375,831.3333740234375,831.3333740234375,831.3333740234375,831.3333740234375,831.3333740234375,809.3333740234375,799.3333740234375,794,781.3333740234375,701.3333740234375,664,612,606,591.3333740234375,575.3333740234375,527.3333740234375,456.66668701171875,419.3333435058594,402.66668701171875,368.66668701171875,338,288.66668701171875,272,238.6666717529297,222.6666717529297,193.33334350585938,154,130.6666717529297,122,108,103.33333587646484,94],"timestamp_mouse":[1,30,41,61,82,101,121,140,161,181,201,221,241,261,281,301,321,341,361,380,401,421,441,461,481,501,521,541,561,581,601,621,640,661,681,701,721,741,761,780,801,821,841,861,881,900,921,941,961,981,1001,1021,1041,1061,1081,1101,1121,1141,1161,1181,1203,1221,1241,1261,1281,1301,1321,1341,1361,1381,1401,1421,1441,1461,1482,1501,1521,1540,1560,1581,1603,1620,1641,1661,1681,1703,1721,1741,1761,1781,1803],"xSR":350,"ySR":768,"xT1":30,"yT1":0,"xT2":670,"yT2":0,"toosoon":0,"cond_shown":"equaldotanddens","ratio_trial":250,"smaller_num":"2","larger_num":"8","correct_side":1,"subjID":"13","gender":"No_gender","age":"No_age","school":"No_school"},{"start_time":1549310110134,"click_time":1549310111671,"finger_time":1549310111351,"fix_duration":682.7413297930987,"trial":27,"RT":1217,"MT":320,"sideResp":1,"stimulus":"img/500/equaldotsize/L/5_Ratio_500_L_4_R_2.png","xmouse":[410,410,409.3333435058594,408.66668701171875,408,407.3333435058594,406,405.3333435058594,404,402.66668701171875,402,400.66668701171875,398,396,395.3333435058594,394,394,393.3333435058594,394,394,394.66668701171875,394.66668701171875,394.66668701171875,394.66668701171875,394.66668701171875,394.66668701171875,394.66668701171875,394.66668701171875,394.66668701171875,394.66668701171875,398.66668701171875,398.66668701171875,398.66668701171875,398.66668701171875,398.66668701171875,398.66668701171875,398.66668701171875,398.66668701171875,398.66668701171875,398.66668701171875,402,402,401.3333435058594,401.3333435058594,401.3333435058594,401.3333435058594,401.3333435058594,401.3333435058594,401.3333435058594,401.3333435058594,399.3333435058594,399.3333435058594,399.3333435058594,399.3333435058594,399.3333435058594,399.3333435058594,399.3333435058594,387.3333435058594,387.3333435058594,387.3333435058594,348.66668701171875,322.66668701171875,275.3333435058594,260.66668701171875,233.33334350585938,213.33334350585938,204,184,170,162.6666717529297,147.33334350585938,129.33334350585938,103.33333587646484,95.33333587646484,82,76,67.33333587646484],"ymouse":[846,846,845.3333740234375,844.6666870117188,844.6666870117188,844,842.6666870117188,842,841.3333740234375,840,839.3333740234375,837.3333740234375,834,831.3333740234375,830.6666870117188,829.3333740234375,828.6666870117188,828,828.6666870117188,828.6666870117188,829.3333740234375,829.3333740234375,829.3333740234375,829.3333740234375,829.3333740234375,829.3333740234375,829.3333740234375,829.3333740234375,829.3333740234375,829.3333740234375,830.6666870117188,830.6666870117188,830.6666870117188,830.6666870117188,830.6666870117188,830.6666870117188,830.6666870117188,830.6666870117188,830.6666870117188,830.6666870117188,832,831.3333740234375,831.3333740234375,831.3333740234375,831.3333740234375,831.3333740234375,831.3333740234375,831.3333740234375,831.3333740234375,831.3333740234375,828.6666870117188,828.6666870117188,828.6666870117188,828.6666870117188,828.6666870117188,828.6666870117188,828.6666870117188,794,794,794,698.6666870117188,658,594,571.3333740234375,524.6666870117188,482.66668701171875,461.3333435058594,406.66668701171875,368,347.3333435058594,305.3333435058594,259.3333435058594,186.6666717529297,164,122,106.66667175292969,83.33333587646484],"timestamp_mouse":[17,37,57,77,97,117,138,157,177,197,217,237,257,277,297,317,337,357,377,397,417,437,458,477,497,517,537,556,577,597,617,637,657,677,697,717,737,757,777,797,817,837,857,876,897,917,937,957,977,997,1016,1037,1059,1077,1097,1117,1137,1160,1176,1197,1217,1237,1257,1276,1297,1317,1337,1357,1377,1397,1417,1437,1457,1477,1497,1517,1537],"xSR":350,"ySR":768,"xT1":30,"yT1":0,"xT2":670,"yT2":0,"toosoon":0,"cond_shown":"equaldotsize","ratio_trial":500,"smaller_num":"2","larger_num":"4","correct_side":1,"subjID":"13","gender":"No_gender","age":"No_age","school":"No_school"},{"start_time":1549310114733,"click_time":1549310118531,"finger_time":1549310115091,"fix_duration":660.6827690392829,"trial":28,"RT":358,"MT":3440,"sideResp":2,"stimulus":"img/250/randomdotsizeEA/L/3_Ratio_250_L_8_R_2.png","xmouse":[392,392,392,392,392,392,392,392,392,392,392,392,392,392,392,392,785,785,785,785,785,785,785,785,785,785,785,785,785,785,785,785,785,785,785,785,785,785,785,785,785,785,785,785,785,785,785,785,785,785,785,785,785,785,785,785.3333740234375,784,784,784,784,783.3333740234375,783.3333740234375,783.3333740234375,784,783.3333740234375,783.3333740234375,783.3333740234375,782.6666870117188,783.3333740234375,784,784.6666870117188,784.6666870117188,784.6666870117188,784.6666870117188,784.6666870117188,784.6666870117188,784,784,784,784,784,784,784,399.3333435058594,398.66668701171875,398,397.3333435058594,396.66668701171875,396,396,396,396,396,396,396,396.66668701171875,396.66668701171875,397.3333435058594,397.3333435058594,398,398,398,398,398,398,398,398,398,398,398,398,398.66668701171875,399.3333435058594,399.3333435058594,400,400,400,400,400,400,400,400,400,400,400,404.66668701171875,404.66668701171875,406,406,406,780,780,780,780,410,410,410,409.3333435058594,409.3333435058594,408.66668701171875,408.66668701171875,408.66668701171875,408.66668701171875,408.66668701171875,408.66668701171875,408.66668701171875,408.66668701171875,408.66668701171875,408.66668701171875,397.3333435058594,397.3333435058594,397.3333435058594,397.3333435058594,398.66668701171875,398.66668701171875,398.66668701171875,400,400,399.3333435058594,398.66668701171875,398.66668701171875,398.66668701171875,398.66668701171875,398.66668701171875,398.66668701171875,398.66668701171875,398.66668701171875,398.66668701171875,398.66668701171875,401.3333435058594,417.3333435058594,429.3333435058594,463.3333435058594,524.6666870117188,562,578.6666870117188,608,630,657.3333740234375,664,675.3333740234375,682,685.3333740234375,693.3333740234375,698,701.3333740234375,703.3333740234375,704.6666870117188,705.3333740234375],"ymouse":[844,844,844,844,844,844,844,844,844,844,844,844,844,844,844,844,1259,1259,1259,1259,1259,1259,1259,1259,1259,1259,1259,1259,1259,1259,1259,1259,1259,1259,1259,1259,1259,1259,1259,1259,1259,1259,1259,1259,1259,1259,1259,1259,1259,1259,1259,1259,1259,1259,1259,1257.3333740234375,1253.3333740234375,1254,1256.666748046875,1257.3333740234375,1257.3333740234375,1257.3333740234375,1257.3333740234375,1257.3333740234375,1257.3333740234375,1257.3333740234375,1256.666748046875,1256.666748046875,1257.3333740234375,1257.3333740234375,1257.3333740234375,1257.3333740234375,1256.666748046875,1257.3333740234375,1257.3333740234375,1258.666748046875,1260,1260,1260,1260,1260,1260,1260,836.6666870117188,836.6666870117188,836.6666870117188,836.6666870117188,836.6666870117188,836.6666870117188,836.6666870117188,836.6666870117188,837.3333740234375,837.3333740234375,837.3333740234375,837.3333740234375,838,838,838,838,838,838,838,838,837.3333740234375,837.3333740234375,838,838,838,838,838,838,838.6666870117188,839.3333740234375,839.3333740234375,840,840.6666870117188,840.6666870117188,840.6666870117188,840.6666870117188,840.6666870117188,840.6666870117188,840.6666870117188,840.6666870117188,840.6666870117188,840.6666870117188,845.3333740234375,845.3333740234375,845.3333740234375,845.3333740234375,845.3333740234375,1255.3333740234375,1255.3333740234375,1255.3333740234375,1255.3333740234375,852.6666870117188,853.3333740234375,853.3333740234375,854,854.6666870117188,854.6666870117188,854.6666870117188,855.3333740234375,855.3333740234375,855.3333740234375,855.3333740234375,855.3333740234375,855.3333740234375,855.3333740234375,855.3333740234375,830,828,826.6666870117188,826.6666870117188,824,824,824,820.6666870117188,820,820,820.6666870117188,820.6666870117188,820.6666870117188,820.6666870117188,820.6666870117188,820.6666870117188,820.6666870117188,820.6666870117188,820.6666870117188,820.6666870117188,814,764,731.3333740234375,655.3333740234375,550,487.3333435058594,458.66668701171875,405.3333435058594,358.66668701171875,296,279.3333435058594,245.33334350585938,218.6666717529297,205.33334350585938,169.33334350585938,146.6666717529297,128,119.33334350585938,107.33333587646484,97.33333587646484],"timestamp_mouse":[40,58,78,98,118,138,157,178,198,218,238,258,277,298,317,338,358,378,398,418,438,458,478,498,517,538,557,578,598,618,638,658,678,698,718,738,758,779,798,818,838,858,878,898,918,938,958,978,998,1018,1038,1057,1078,1098,1118,1137,1158,1178,1198,1218,1238,1257,1278,1298,1318,1338,1357,1378,1398,1418,1438,1457,1478,1498,1518,1537,1558,1579,1598,1618,1638,1658,1679,1699,1718,1738,1757,1778,1799,1818,1838,1858,1878,1898,1918,1938,1958,1978,1998,2018,2038,2058,2078,2098,2118,2138,2158,2178,2198,2218,2238,2258,2279,2298,2318,2338,2358,2378,2398,2418,2438,2458,2478,2498,2518,2538,2558,2578,2598,2618,2638,2658,2678,2698,2718,2738,2758,2777,2799,2818,2838,2858,2877,2898,2918,2938,2958,2978,2998,3018,3038,3058,3078,3099,3118,3138,3158,3178,3198,3218,3238,3257,3277,3298,3317,3338,3357,3378,3398,3418,3438,3458,3478,3500,3517,3538,3558,3578,3600,3619,3638,3658,3678,3700,3718,3738,3758,3778,3798],"xSR":350,"ySR":768,"xT1":30,"yT1":0,"xT2":670,"yT2":0,"toosoon":0,"cond_shown":"randomdotsizeEA","ratio_trial":250,"smaller_num":"2","larger_num":"8","correct_side":1,"subjID":"13","gender":"No_gender","age":"No_age","school":"No_school"},{"start_time":1549310120822,"click_time":1549310122351,"finger_time":1549310121771,"fix_duration":250,"trial":29,"RT":949,"MT":580,"sideResp":1,"stimulus":"img/750/equaldotanddens/L/8_Ratio_750_L_4_R_3.png","xmouse":[379,379,379,379,379,379,379,379,387.3333435058594,387.3333435058594,387.3333435058594,388,388,388,388,388,388.66668701171875,388.66668701171875,388.66668701171875,388.66668701171875,388.66668701171875,388.66668701171875,388.66668701171875,388.66668701171875,388.66668701171875,388.66668701171875,388.66668701171875,388.66668701171875,388.66668701171875,388.66668701171875,388.66668701171875,388,388,388,388,388,388,388,377.3333435058594,374.66668701171875,372.66668701171875,370,365.3333435058594,362.66668701171875,360.66668701171875,358,356,349.3333435058594,342.66668701171875,332.66668701171875,326,312.66668701171875,296.66668701171875,288,282.66668701171875,274.66668701171875,269.3333435058594,253.33334350585938,249.33334350585938,239.33334350585938,234,220,195.33334350585938,176.6666717529297,166.6666717529297,149.33334350585938,140.6666717529297,116.66667175292969,113.33333587646484,107.33333587646484,105.33333587646484,101.33333587646484,97.33333587646484,95.33333587646484,95.33333587646484,94,93.33333587646484],"ymouse":[850,850,850,850,850,850,850,850,848.6666870117188,848.6666870117188,848.6666870117188,848.6666870117188,848.6666870117188,848.6666870117188,848.6666870117188,848,848,848,848,848,848,847.3333740234375,847.3333740234375,847.3333740234375,847.3333740234375,847.3333740234375,847.3333740234375,847.3333740234375,846.6666870117188,846,845.3333740234375,844,844,844,844,844,844,844,840,838,837.3333740234375,835.3333740234375,831.3333740234375,828,826,821.3333740234375,819.3333740234375,807.3333740234375,792.6666870117188,770.6666870117188,754,720.6666870117188,673.3333740234375,638.6666870117188,620.6666870117188,585.3333740234375,566,483.3333435058594,460.66668701171875,408,382.66668701171875,332,264,226.6666717529297,208.6666717529297,180.6666717529297,168.6666717529297,135.33334350585938,131.33334350585938,123.33334350585938,120,114,108.66667175292969,105.33333587646484,103.33333587646484,100.66667175292969,98.66667175292969],"timestamp_mouse":[9,29,49,69,89,109,129,149,169,189,209,245,249,269,289,309,329,349,368,388,409,429,449,469,489,509,529,549,569,589,609,632,649,669,689,709,729,750,769,789,809,829,849,869,889,908,928,949,969,988,1009,1030,1050,1069,1089,1109,1129,1149,1169,1189,1209,1229,1248,1269,1289,1309,1329,1351,1369,1389,1409,1429,1451,1469,1489,1509,1529],"xSR":350,"ySR":768,"xT1":30,"yT1":0,"xT2":670,"yT2":0,"toosoon":0,"cond_shown":"equaldotanddens","ratio_trial":750,"smaller_num":"3","larger_num":"4","correct_side":1,"subjID":"13","gender":"No_gender","age":"No_age","school":"No_school"},{"start_time":1549310125669,"click_time":1549310126951,"finger_time":1549310126592,"fix_duration":1217.3400080220451,"trial":30,"RT":923,"MT":359,"sideResp":1,"stimulus":"img/250/equaldotsize/L/3_Ratio_250_L_8_R_2.png","xmouse":[400.66668701171875,400.66668701171875,400.66668701171875,400.66668701171875,400,400,400,400,400,400,400,400,400,400,400,400,400,400,400,400,400,400,400,400,399.3333435058594,399.3333435058594,399.3333435058594,399.3333435058594,399.3333435058594,399.3333435058594,399.3333435058594,399.3333435058594,388,385.3333435058594,384.66668701171875,384,382.66668701171875,382.66668701171875,382,382,382,382,382,382,382,370.66668701171875,349.3333435058594,334,326,309.3333435058594,301.3333435058594,266.66668701171875,257.3333435058594,238.6666717529297,229.33334350585938,209.33334350585938,184,170,164.6666717529297,154.6666717529297,147.33334350585938,143.33334350585938,136.6666717529297,131.33334350585938,126.66667175292969],"ymouse":[834,834,834,834,832.6666870117188,832.6666870117188,832.6666870117188,832.6666870117188,832.6666870117188,832.6666870117188,832.6666870117188,832.6666870117188,832.6666870117188,832.6666870117188,832,832,832,832,832,832,832,832,832,832,830.6666870117188,830.6666870117188,830.6666870117188,830.6666870117188,830.6666870117188,830.6666870117188,830.6666870117188,830.6666870117188,823.3333740234375,820.6666870117188,819.3333740234375,816.6666870117188,812.6666870117188,811.3333740234375,809.3333740234375,809.3333740234375,809.3333740234375,809.3333740234375,809.3333740234375,809.3333740234375,809.3333740234375,770.6666870117188,703.3333740234375,649.3333740234375,621.3333740234375,563.3333740234375,535.3333740234375,428.66668701171875,403.3333435058594,355.3333435058594,333.3333435058594,284,217.33334350585938,178,159.33334350585938,125.33334350585938,100,89.33333587646484,76,70.66667175292969,68],"timestamp_mouse":[2,38,43,62,82,102,122,142,162,181,202,222,242,261,282,302,322,342,362,382,402,422,442,462,482,502,522,542,562,582,602,623,641,662,682,702,723,742,762,782,801,822,843,862,882,901,923,942,962,982,1002,1023,1042,1062,1082,1102,1125,1142,1162,1182,1201,1222,1242,1262,1282],"xSR":350,"ySR":768,"xT1":30,"yT1":0,"xT2":670,"yT2":0,"toosoon":0,"cond_shown":"equaldotsize","ratio_trial":250,"smaller_num":"2","larger_num":"8","correct_side":1,"subjID":"13","gender":"No_gender","age":"No_age","school":"No_school"},{"start_time":1549310129556,"click_time":1549310130951,"finger_time":1549310130431,"fix_duration":503.4364156597092,"trial":31,"RT":875,"MT":520,"sideResp":1,"stimulus":"img/750/randomdotsizeEA/L/1_Ratio_750_L_20_R_15.png","xmouse":[388,388.66668701171875,389.3333435058594,389.3333435058594,390,390,390,390,390,390,390,390,390,390,390,390,389.3333435058594,389.3333435058594,389.3333435058594,389.3333435058594,389.3333435058594,389.3333435058594,389.3333435058594,389.3333435058594,389.3333435058594,389.3333435058594,389.3333435058594,389.3333435058594,390.66668701171875,390.66668701171875,390.66668701171875,393.3333435058594,394,394,394,394,394,394,384.66668701171875,382,380,371.3333435058594,364,324,312.66668701171875,293.3333435058594,285.3333435058594,272,253.33334350585938,243.33334350585938,239.33334350585938,229.33334350585938,222.6666717529297,198.6666717529297,192.6666717529297,184,180.6666717529297,174.6666717529297,166.6666717529297,162.6666717529297,160.6666717529297,155.33334350585938,150.6666717529297,144.6666717529297,144,140.6666717529297,139.33334350585938,136,130,125.33334350585938],"ymouse":[831.3333740234375,832,832.6666870117188,832.6666870117188,832.6666870117188,832.6666870117188,833.3333740234375,833.3333740234375,833.3333740234375,833.3333740234375,833.3333740234375,832.6666870117188,832.6666870117188,832.6666870117188,832.6666870117188,832.6666870117188,832.6666870117188,832.6666870117188,832.6666870117188,832.6666870117188,832.6666870117188,832.6666870117188,832.6666870117188,832.6666870117188,832.6666870117188,832.6666870117188,832.6666870117188,832.6666870117188,830.6666870117188,830.6666870117188,830.6666870117188,829.3333740234375,829.3333740234375,828,828,828,828,828,816,810.6666870117188,808,794,779.3333740234375,690.6666870117188,664,617.3333740234375,599.3333740234375,574.6666870117188,516.6666870117188,438,399.3333435058594,332,307.3333435058594,239.33334350585938,225.33334350585938,199.33334350585938,187.33334350585938,164.6666717529297,142.6666717529297,130.6666717529297,122,106.66667175292969,89.33333587646484,70.66667175292969,66.66667175292969,59.333335876464844,55.333335876464844,50,44,40],"timestamp_mouse":[15,35,55,74,94,115,135,170,175,195,215,235,255,275,295,315,335,355,375,395,415,435,455,475,495,515,535,555,576,595,615,635,655,676,695,715,735,755,779,794,815,835,855,875,895,914,935,955,975,996,1015,1035,1055,1076,1095,1115,1135,1155,1176,1195,1215,1235,1255,1278,1294,1315,1335,1355,1376,1395],"xSR":350,"ySR":768,"xT1":30,"yT1":0,"xT2":670,"yT2":0,"toosoon":0,"cond_shown":"randomdotsizeEA","ratio_trial":750,"smaller_num":"15","larger_num":"20","correct_side":1,"subjID":"13","gender":"No_gender","age":"No_age","school":"No_school"},{"start_time":1549310134018,"click_time":1549310135715,"finger_time":1549310135271,"fix_duration":1286.7376200469935,"trial":32,"RT":1253,"MT":444,"sideResp":2,"stimulus":"img/500/equaldotsize/R/3_Ratio_500_L_10_R_20.png","xmouse":[400,400,400,400,400.66668701171875,400.66668701171875,400.66668701171875,400.66668701171875,400.66668701171875,400.66668701171875,400.66668701171875,400.66668701171875,400.66668701171875,400.66668701171875,400.66668701171875,401.3333435058594,401.3333435058594,401.3333435058594,401.3333435058594,402,402,402,402,402,402,402,402,402,402,402.66668701171875,402.66668701171875,402.66668701171875,402.66668701171875,402.66668701171875,402.66668701171875,402.66668701171875,402.66668701171875,402.66668701171875,403.3333435058594,403.3333435058594,403.3333435058594,403.3333435058594,404,404,404.66668701171875,404.66668701171875,404.66668701171875,404.66668701171875,404.66668701171875,404.66668701171875,405.3333435058594,406,406,406,406.66668701171875,406.66668701171875,407.3333435058594,408,408,408,408,424.66668701171875,468.66668701171875,500,577.3333740234375,660.6666870117188,770,791.3333740234375,798,797.3333740234375,797.3333740234375,797.3333740234375,797.3333740234375,797.3333740234375,797.3333740234375,797.3333740234375,797.3333740234375,797.3333740234375,797.3333740234375,797.3333740234375,797.3333740234375,797.3333740234375,797.3333740234375,790.6666870117188,758.6666870117188],"ymouse":[824,822.6666870117188,822.6666870117188,822.6666870117188,822,822,822,822,822,822,822,821.3333740234375,821.3333740234375,821.3333740234375,821.3333740234375,821.3333740234375,821.3333740234375,821.3333740234375,821.3333740234375,821.3333740234375,821.3333740234375,821.3333740234375,821.3333740234375,820.6666870117188,820.6666870117188,820.6666870117188,820.6666870117188,820.6666870117188,820.6666870117188,820.6666870117188,820.6666870117188,820.6666870117188,820.6666870117188,820.6666870117188,820.6666870117188,821.3333740234375,821.3333740234375,821.3333740234375,820.6666870117188,820.6666870117188,820.6666870117188,820.6666870117188,820,820,820,820,820,820,820,820,820,820,820,820,819.3333740234375,819.3333740234375,820,820,820,820,820,775.3333740234375,663.3333740234375,590,442,306,146,108,53.333335876464844,46.66666793823242,46.66666793823242,46.66666793823242,46.66666793823242,46.66666793823242,46.66666793823242,46.66666793823242,46.66666793823242,46.66666793823242,46.66666793823242,46.66666793823242,46.66666793823242,46.66666793823242,46.66666793823242,17.333335876464844,40],"timestamp_mouse":[13,33,53,73,93,113,133,153,173,193,213,236,253,272,292,313,333,353,373,393,413,433,453,473,493,513,533,553,573,593,613,633,652,672,693,713,732,753,773,793,813,833,853,873,894,913,933,953,973,993,1013,1033,1053,1075,1093,1112,1133,1153,1173,1193,1213,1234,1253,1273,1293,1313,1335,1353,1373,1393,1413,1433,1453,1473,1493,1513,1533,1553,1573,1593,1613,1633,1653,1673,1697],"xSR":350,"ySR":768,"xT1":30,"yT1":0,"xT2":670,"yT2":0,"toosoon":0,"cond_shown":"equaldotsize","ratio_trial":500,"smaller_num":"10","larger_num":"20","correct_side":2,"subjID":"13","gender":"No_gender","age":"No_age","school":"No_school"},{"start_time":1549310141590,"click_time":1549310142713,"finger_time":1549310141591,"fix_duration":717.8247505290715,"trial":33,"RT":1,"MT":1122,"sideResp":2,"stimulus":"img/500/equaldotanddens/L/13_Ratio_500_L_12_R_6.png","xmouse":[393.3333435058594,393.3333435058594,393.3333435058594,393.3333435058594,393.3333435058594,393.3333435058594,394,394,394,394,394,394,394,394,394,394,393.3333435058594,393.3333435058594,393.3333435058594,393.3333435058594,393.3333435058594,392.66668701171875,392,392,391.3333435058594,391.3333435058594,390,389.3333435058594,390,392,398,412.66668701171875,429.3333435058594,442.66668701171875,471.3333435058594,487.3333435058594,511.3333740234375,523.3333740234375,524.6666870117188,524.6666870117188,526,534.6666870117188,538.6666870117188,540.6666870117188,544,546,552.6666870117188,554.6666870117188,559.3333740234375,562,568,581.3333740234375,591.3333740234375,596.6666870117188,606,614,623.3333740234375],"ymouse":[832.6666870117188,832.6666870117188,832.6666870117188,832.6666870117188,832.6666870117188,832.6666870117188,831.3333740234375,831.3333740234375,831.3333740234375,831.3333740234375,831.3333740234375,831.3333740234375,831.3333740234375,831.3333740234375,831.3333740234375,831.3333740234375,830,830,829.3333740234375,829.3333740234375,828.6666870117188,827.3333740234375,825.3333740234375,824.6666870117188,821.3333740234375,820,784,758,696,668.6666870117188,615.3333740234375,536,476,440,369.3333435058594,330.66668701171875,274,228,212,204.6666717529297,194.6666717529297,171.33334350585938,161.33334350585938,156.6666717529297,148.6666717529297,145.33334350585938,136.6666717529297,135.33334350585938,132,130.6666717529297,127.33334350585938,120.66667175292969,115.33334350585938,112.66667175292969,106.66667175292969,100.66667175292969,90],"timestamp_mouse":[1,37,42,61,81,102,121,141,161,181,200,221,241,261,281,301,321,341,361,381,400,422,441,461,481,501,521,541,561,581,601,624,641,661,681,701,722,741,761,781,801,823,842,860,881,900,922,941,961,981,1001,1021,1041,1061,1081,1101,1123],"xSR":350,"ySR":768,"xT1":30,"yT1":0,"xT2":670,"yT2":0,"toosoon":0,"cond_shown":"equaldotanddens","ratio_trial":500,"smaller_num":"6","larger_num":"12","correct_side":1,"subjID":"13","gender":"No_gender","age":"No_age","school":"No_school"},{"start_time":1549310150443,"click_time":1549310151571,"finger_time":1549310151571,"fix_duration":489.5822118