[{"start_time":1452269553035,"click_time":1452269553640,"finger_time":1452269553041,"fix_duration":250,"trial":0,"RT":6,"MT":599,"sideResp":1,"stimulus":"img/900/randomdotsize/R/9_Ratio_900_L_18_R_20.png","xmouse":[407,407,407,407,407,407,407,403.3333435058594,402.66668701171875,402.66668701171875,402.66668701171875,402.66668701171875,402.66668701171875,402.66668701171875,371.3333435058594,365.3333435058594,354.66668701171875,334,323.3333435058594,303.3333435058594,294,274,239.33334350585938,212,198,172,136,127.33333587646484,111.33333587646484,103.33333587646484,88.66667175292969],"ymouse":[581,581,581,581,581,581,581,565.3333740234375,564,564,564,564,564,564,529.3333740234375,522,507.3333740234375,470.66668701171875,454.66668701171875,421.3333435058594,405.3333435058594,372.66668701171875,316,276.66668701171875,256,218,162,146,114.66667175292969,100,75.33333587646484],"timestamp_mouse":[6,25,45,65,85,105,125,149,166,185,205,225,244,265,285,305,325,345,365,385,405,425,444,465,485,505,527,544,565,585,605],"xSR":350,"ySR":508.79999999999995,"xT1":30,"yT1":0,"xT2":670,"yT2":0,"toosoon":0,"cond_shown":"randomdotsize","ratio_trial":900,"smaller_num":"18","larger_num":"20","correct_side":2,"subjID":"14","gender":"No_gender","age":"No_age","school":"No_school","test":{"fix_dur":[250,1500],"timestim":400,"targets_dim":[100,100],"targets_relative_coord":[0.1,0.9],"size_stim":[880,420],"start_dim":[100,100],"size_start":[300,300],"size_fix":60,"samplingrate":20,"img_types":["equaldotsize","equaldotanddens","randomdotsize","randomdotsizeEA"],"ratios":[250,500,750,900],"rep_conds":10,"nTrials":176,"trials_to_rest":500,"Trials_order":[110,114,138,77,112,27,96,115,92,35,117,134,174,133,113,171,13,127,3,12,154,34,164,72,98,81,101,157,17,144,141,86,160,22,67,169,37,21,66,57,100,64,55,2,60,25,156,126,51,23,20,130,120,9,148,6,111,46,161,19,41,132,71,166,63,28,52,62,89,32,170,24,88,53,58,70,65,162,69,0,107,109,48,163,18,143,30,106,95,79,108,167,118,50,16,75,122,155,165,99,91,103,33,40,175,85,61,128,4,135,76,43,74,129,140,31,47,153,84,11,93,97,45,150,159,125,73,124,38,8,29,83,104,131,94,1,5,56,152,90,42,44,36,145,78,136,68,149,142,10,158,137,39,151,54,59,102,172,14,116,82,146,15,87,168,7,139,80,105,121,173,119,147,123,49,26],"cond_shown":["randomdotsize","randomdotsize","randomdotsize","equaldotanddens","equaldotsize","randomdotsizeEA","equaldotsize","randomdotsizeEA","equaldotsize","randomdotsizeEA","equaldotanddens","randomdotsize","randomdotsize","equaldotanddens","equaldotanddens","randomdotsizeEA","equaldotanddens","randomdotsizeEA","randomdotsizeEA","equaldotsize","randomdotsize","randomdotsize","equaldotsize","equaldotsize","randomdotsize","equaldotanddens","equaldotanddens","equaldotanddens","equaldotanddens","equaldotsize","equaldotanddens","randomdotsize","equaldotsize","randomdotsize","randomdotsizeEA","equaldotanddens","equaldotanddens","equaldotanddens","randomdotsize","equaldotanddens","equaldotsize","equaldotsize","randomdotsizeEA","randomdotsize","equaldotsize","equaldotanddens","equaldotsize","randomdotsize","randomdotsizeEA","randomdotsizeEA","equaldotsize","randomdotsize","equaldotsize","equaldotanddens","equaldotsize","randomdotsize","randomdotsizeEA","randomdotsize","equaldotanddens","randomdotsizeEA","equaldotanddens","equaldotsize","randomdotsizeEA","randomdotsize","randomdotsizeEA","equaldotsize","equaldotsize","randomdotsize","equaldotanddens","equaldotsize","randomdotsize","equaldotsize","equaldotsize","equaldotanddens","randomdotsize","randomdotsize","equaldotanddens","randomdotsize","equaldotanddens","equaldotsize","randomdotsizeEA","equaldotanddens","equaldotsize","randomdotsizeEA","randomdotsize","randomdotsizeEA","randomdotsize","randomdotsize","randomdotsizeEA","randomdotsizeEA","equaldotsize","randomdotsizeEA","randomdotsize","randomdotsize","equaldotsize","randomdotsizeEA","randomdotsize","randomdotsizeEA","equaldotanddens","randomdotsizeEA","randomdotsizeEA","randomdotsizeEA","equaldotanddens","equaldotsize","randomdotsizeEA","equaldotanddens","equaldotanddens","equaldotsize","equaldotsize","randomdotsizeEA","equaldotsize","randomdotsizeEA","randomdotsize","equaldotanddens","equaldotsize","randomdotsizeEA","randomdotsizeEA","equaldotanddens","equaldotsize","randomdotsizeEA","equaldotanddens","equaldotanddens","equaldotanddens","randomdotsize","randomdotsizeEA","equaldotanddens","equaldotanddens","equaldotsize","randomdotsize","equaldotsize","equaldotanddens","randomdotsizeEA","equaldotsize","randomdotsizeEA","randomdotsize","equaldotanddens","equaldotanddens","equaldotsize","equaldotsize","randomdotsize","randomdotsize","equaldotsize","equaldotsize","equaldotanddens","randomdotsize","equaldotsize","equaldotsize","equaldotanddens","randomdotsize","randomdotsize","randomdotsize","equaldotanddens","randomdotsizeEA","randomdotsizeEA","randomdotsize","randomdotsizeEA","randomdotsize","equaldotsize","randomdotsize","equaldotsize","randomdotsize","randomdotsize","randomdotsizeEA","randomdotsizeEA","equaldotsize","randomdotsizeEA","randomdotsizeEA","equaldotsize","equaldotanddens","equaldotanddens","equaldotanddens","randomdotsizeEA","randomdotsizeEA","randomdotsizeEA","equaldotanddens","randomdotsize"],"ratio_trial":[900,250,750,900,250,750,250,250,900,250,500,500,900,500,250,750,900,900,250,900,750,250,500,750,250,250,500,900,250,250,900,500,250,500,250,750,500,500,250,750,500,250,500,250,900,750,900,900,250,500,500,250,750,750,500,500,900,900,250,250,750,500,500,500,900,900,500,900,750,250,750,750,750,500,750,500,250,250,500,250,750,900,250,250,250,900,900,750,900,900,900,500,500,250,250,750,750,750,500,250,750,500,250,750,900,500,900,250,500,500,900,750,750,250,900,900,900,750,500,750,900,250,900,500,900,900,750,900,500,750,900,250,750,250,900,250,500,750,750,750,750,900,500,250,900,750,500,500,900,750,900,750,500,500,500,750,500,900,900,500,250,250,900,500,750,500,750,250,750,750,900,500,250,750,250,750],"smaller_num":["18","2","3","18","3","18","3","3","18","6","2","4","9","9","3","3","9","18","3","9","12","2","1","15","6","6","9","9","4","5","18","1","3","10","3","12","6","2","1","15","10","6","1","2","18","3","18","18","2","3","2","3","3","15","2","6","18","9","6","3","15","6","9","3","9","18","3","18","15","6","3","18","6","5","3","9","2","2","9","3","9","9","3","2","3","9","18","3","18","18","18","9","5","2","3","3","3","6","2","4","9","1","2","18","18","9","18","2","9","10","18","3","3","3","9","18","9","6","2","3","18","3","18","9","18","9","12","9","2","6","18","2","12","2","18","3","6","3","6","6","3","9","6","4","18","15","10","5","18","6","9","3","2","5","1","6","2","9","9","4","6","3","18","6","15","4","9","1","3","6","18","2","2","3","3","3"],"larger_num":["20","8","4","20","12","24","12","12","20","24","4","8","10","18","12","4","10","20","12","10","16","8","2","20","24","24","18","10","16","20","20","2","12","20","12","16","12","4","4","20","20","24","2","8","20","4","20","20","8","6","4","12","4","20","4","12","20","10","24","12","20","12","18","6","10","20","6","20","20","24","4","24","8","10","4","18","8","8","18","12","12","10","12","8","12","10","20","4","20","20","20","18","10","8","12","4","4","8","4","16","12","2","8","24","20","18","20","8","18","20","20","4","4","12","10","20","10","8","4","4","20","12","20","18","20","10","16","10","4","8","20","8","16","8","20","12","12","4","8","8","4","10","12","16","20","20","20","10","20","8","10","4","4","10","2","8","4","10","10","8","24","12","20","12","20","8","12","4","4","8","20","4","8","4","12","4"],"correct_side":[2,1,2,1,2,1,1,2,1,2,1,1,2,2,2,2,1,2,1,2,2,1,2,2,2,2,1,2,1,2,2,2,2,2,1,2,1,1,2,2,2,2,2,1,1,2,1,1,1,2,1,2,1,2,1,1,1,2,1,1,2,1,1,2,2,2,2,2,2,2,2,1,1,2,1,1,1,1,2,2,2,2,1,2,1,2,1,1,1,2,2,2,2,2,2,2,2,1,1,1,2,2,1,1,2,2,2,1,2,2,2,1,1,1,2,2,2,2,2,1,1,1,2,2,1,1,2,1,1,1,2,1,2,1,1,2,1,2,2,1,1,1,1,2,2,2,2,1,2,1,2,2,1,1,2,1,1,1,2,1,1,2,1,1,1,1,2,2,1,2,1,1,2,1,2,1],"img_shown":["img/900/randomdotsize/R/9_Ratio_900_L_18_R_20.png","img/250/randomdotsize/L/7_Ratio_250_L_8_R_2.png","img/750/randomdotsize/R/7_Ratio_750_L_3_R_4.png","img/900/equaldotanddens/L/4_Ratio_900_L_20_R_18.png","img/250/equaldotsize/R/11_Ratio_250_L_3_R_12.png","img/750/randomdotsizeEA/L/6_Ratio_750_L_24_R_18.png","img/250/equaldotsize/L/15_Ratio_250_L_12_R_3.png","img/250/randomdotsizeEA/R/11_Ratio_250_L_3_R_12.png","img/900/equaldotsize/L/2_Ratio_900_L_20_R_18.png","img/250/randomdotsizeEA/R/6_Ratio_250_L_6_R_24.png","img/500/equaldotanddens/L/10_Ratio_500_L_4_R_2.png","img/500/randomdotsize/L/8_Ratio_500_L_8_R_4.png","img/900/randomdotsize/R/7_Ratio_900_L_9_R_10.png","img/500/equaldotanddens/R/6_Ratio_500_L_9_R_18.png","img/250/equaldotanddens/R/9_Ratio_250_L_3_R_12.png","img/750/randomdotsizeEA/R/12_Ratio_750_L_3_R_4.png","img/900/equaldotanddens/L/1_Ratio_900_L_10_R_9.png","img/900/randomdotsizeEA/R/12_Ratio_900_L_18_R_20.png","img/250/randomdotsizeEA/L/14_Ratio_250_L_12_R_3.png","img/900/equaldotsize/R/7_Ratio_900_L_9_R_10.png","img/750/randomdotsize/R/11_Ratio_750_L_12_R_16.png","img/250/randomdotsize/L/7_Ratio_250_L_8_R_2.png","img/500/equaldotsize/R/12_Ratio_500_L_1_R_2.png","img/750/equaldotsize/R/3_Ratio_750_L_15_R_20.png","img/250/randomdotsize/R/6_Ratio_250_L_6_R_24.png","img/250/equaldotanddens/R/6_Ratio_250_L_6_R_24.png","img/500/equaldotanddens/L/4_Ratio_500_L_18_R_9.png","img/900/equaldotanddens/R/7_Ratio_900_L_9_R_10.png","img/250/equaldotanddens/L/2_Ratio_250_L_16_R_4.png","img/250/equaldotsize/R/12_Ratio_250_L_5_R_20.png","img/900/equaldotanddens/R/9_Ratio_900_L_18_R_20.png","img/500/randomdotsize/R/15_Ratio_500_L_1_R_2.png","img/250/equaldotsize/R/11_Ratio_250_L_3_R_12.png","img/500/randomdotsize/R/3_Ratio_500_L_10_R_20.png","img/250/randomdotsizeEA/L/14_Ratio_250_L_12_R_3.png","img/750/equaldotanddens/R/11_Ratio_750_L_12_R_16.png","img/500/equaldotanddens/L/11_Ratio_500_L_12_R_6.png","img/500/equaldotanddens/L/5_Ratio_500_L_4_R_2.png","img/250/randomdotsize/R/8_Ratio_250_L_1_R_4.png","img/750/equaldotanddens/R/5_Ratio_750_L_15_R_20.png","img/500/equaldotsize/R/3_Ratio_500_L_10_R_20.png","img/250/equaldotsize/R/6_Ratio_250_L_6_R_24.png","img/500/randomdotsizeEA/R/12_Ratio_500_L_1_R_2.png","img/250/randomdotsize/L/7_Ratio_250_L_8_R_2.png","img/900/equaldotsize/L/10_Ratio_900_L_20_R_18.png","img/750/equaldotanddens/R/7_Ratio_750_L_3_R_4.png","img/900/equaldotsize/L/10_Ratio_900_L_20_R_18.png","img/900/randomdotsize/L/4_Ratio_900_L_20_R_18.png","img/250/randomdotsizeEA/L/1_Ratio_250_L_8_R_2.png","img/500/randomdotsizeEA/R/2_Ratio_500_L_3_R_6.png","img/500/equaldotsize/L/5_Ratio_500_L_4_R_2.png","img/250/randomdotsize/R/9_Ratio_250_L_3_R_12.png","img/750/equaldotsize/L/9_Ratio_750_L_4_R_3.png","img/750/equaldotanddens/R/3_Ratio_750_L_15_R_20.png","img/500/equaldotsize/L/5_Ratio_500_L_4_R_2.png","img/500/randomdotsize/L/13_Ratio_500_L_12_R_6.png","img/900/randomdotsizeEA/L/10_Ratio_900_L_20_R_18.png","img/900/randomdotsize/R/6_Ratio_900_L_9_R_10.png","img/250/equaldotanddens/L/5_Ratio_250_L_24_R_6.png","img/250/randomdotsizeEA/L/15_Ratio_250_L_12_R_3.png","img/750/equaldotanddens/R/4_Ratio_750_L_15_R_20.png","img/500/equaldotsize/L/11_Ratio_500_L_12_R_6.png","img/500/randomdotsizeEA/L/4_Ratio_500_L_18_R_9.png","img/500/randomdotsize/R/2_Ratio_500_L_3_R_6.png","img/900/randomdotsizeEA/R/15_Ratio_900_L_9_R_10.png","img/900/equaldotsize/R/9_Ratio_900_L_18_R_20.png","img/500/equaldotsize/R/2_Ratio_500_L_3_R_6.png","img/900/randomdotsize/R/13_Ratio_900_L_18_R_20.png","img/750/equaldotanddens/R/3_Ratio_750_L_15_R_20.png","img/250/equaldotsize/R/6_Ratio_250_L_6_R_24.png","img/750/randomdotsize/R/12_Ratio_750_L_3_R_4.png","img/750/equaldotsize/L/6_Ratio_750_L_24_R_18.png","img/750/equaldotsize/L/14_Ratio_750_L_8_R_6.png","img/500/equaldotanddens/R/14_Ratio_500_L_5_R_10.png","img/750/randomdotsize/L/10_Ratio_750_L_4_R_3.png","img/500/randomdotsize/L/4_Ratio_500_L_18_R_9.png","img/250/equaldotanddens/L/7_Ratio_250_L_8_R_2.png","img/250/randomdotsize/L/7_Ratio_250_L_8_R_2.png","img/500/equaldotanddens/R/1_Ratio_500_L_9_R_18.png","img/250/equaldotsize/R/11_Ratio_250_L_3_R_12.png","img/750/randomdotsizeEA/R/15_Ratio_750_L_9_R_12.png","img/900/equaldotanddens/R/5_Ratio_900_L_9_R_10.png","img/250/equaldotsize/L/15_Ratio_250_L_12_R_3.png","img/250/randomdotsizeEA/R/13_Ratio_250_L_2_R_8.png","img/250/randomdotsize/L/14_Ratio_250_L_12_R_3.png","img/900/randomdotsizeEA/R/15_Ratio_900_L_9_R_10.png","img/900/randomdotsize/L/10_Ratio_900_L_20_R_18.png","img/750/randomdotsize/L/10_Ratio_750_L_4_R_3.png","img/900/randomdotsizeEA/L/4_Ratio_900_L_20_R_18.png","img/900/randomdotsizeEA/R/9_Ratio_900_L_18_R_20.png","img/900/equaldotsize/R/14_Ratio_900_L_18_R_20.png","img/500/randomdotsizeEA/R/6_Ratio_500_L_9_R_18.png","img/500/randomdotsize/R/14_Ratio_500_L_5_R_10.png","img/250/randomdotsize/R/13_Ratio_250_L_2_R_8.png","img/250/equaldotsize/R/9_Ratio_250_L_3_R_12.png","img/750/randomdotsizeEA/R/7_Ratio_750_L_3_R_4.png","img/750/randomdotsize/R/7_Ratio_750_L_3_R_4.png","img/750/randomdotsizeEA/L/13_Ratio_750_L_8_R_6.png","img/500/equaldotanddens/L/5_Ratio_500_L_4_R_2.png","img/250/randomdotsizeEA/L/2_Ratio_250_L_16_R_4.png","img/750/randomdotsizeEA/R/15_Ratio_750_L_9_R_12.png","img/500/randomdotsizeEA/R/12_Ratio_500_L_1_R_2.png","img/250/equaldotanddens/L/3_Ratio_250_L_8_R_2.png","img/750/equaldotsize/L/6_Ratio_750_L_24_R_18.png","img/900/randomdotsizeEA/R/14_Ratio_900_L_18_R_20.png","img/500/equaldotanddens/R/1_Ratio_500_L_9_R_18.png","img/900/equaldotanddens/R/12_Ratio_900_L_18_R_20.png","img/250/equaldotsize/L/7_Ratio_250_L_8_R_2.png","img/500/equaldotsize/R/6_Ratio_500_L_9_R_18.png","img/500/randomdotsizeEA/R/3_Ratio_500_L_10_R_20.png","img/900/equaldotsize/R/14_Ratio_900_L_18_R_20.png","img/750/randomdotsizeEA/L/8_Ratio_750_L_4_R_3.png","img/750/randomdotsize/L/9_Ratio_750_L_4_R_3.png","img/250/equaldotanddens/L/14_Ratio_250_L_12_R_3.png","img/900/equaldotsize/R/3_Ratio_900_L_9_R_10.png","img/900/randomdotsizeEA/R/14_Ratio_900_L_18_R_20.png","img/900/randomdotsizeEA/R/3_Ratio_900_L_9_R_10.png","img/750/equaldotanddens/R/2_Ratio_750_L_6_R_8.png","img/500/equaldotsize/R/9_Ratio_500_L_2_R_4.png","img/750/randomdotsizeEA/L/9_Ratio_750_L_4_R_3.png","img/900/equaldotanddens/L/8_Ratio_900_L_20_R_18.png","img/250/equaldotanddens/L/14_Ratio_250_L_12_R_3.png","img/900/equaldotanddens/R/9_Ratio_900_L_18_R_20.png","img/500/randomdotsize/R/6_Ratio_500_L_9_R_18.png","img/900/randomdotsizeEA/L/8_Ratio_900_L_20_R_18.png","img/900/equaldotanddens/L/1_Ratio_900_L_10_R_9.png","img/750/equaldotanddens/R/11_Ratio_750_L_12_R_16.png","img/900/equaldotsize/L/1_Ratio_900_L_10_R_9.png","img/500/randomdotsize/L/10_Ratio_500_L_4_R_2.png","img/750/equaldotsize/L/14_Ratio_750_L_8_R_6.png","img/900/equaldotanddens/R/12_Ratio_900_L_18_R_20.png","img/250/randomdotsizeEA/L/1_Ratio_250_L_8_R_2.png","img/750/equaldotsize/R/11_Ratio_750_L_12_R_16.png","img/250/randomdotsizeEA/L/3_Ratio_250_L_8_R_2.png","img/900/randomdotsize/L/10_Ratio_900_L_20_R_18.png","img/250/equaldotanddens/R/11_Ratio_250_L_3_R_12.png","img/500/equaldotanddens/L/11_Ratio_500_L_12_R_6.png","img/750/equaldotsize/R/12_Ratio_750_L_3_R_4.png","img/750/equaldotsize/R/2_Ratio_750_L_6_R_8.png","img/750/randomdotsize/L/14_Ratio_750_L_8_R_6.png","img/750/randomdotsize/L/9_Ratio_750_L_4_R_3.png","img/900/equaldotsize/L/1_Ratio_900_L_10_R_9.png","img/500/equaldotsize/L/11_Ratio_500_L_12_R_6.png","img/250/equaldotanddens/R/10_Ratio_250_L_4_R_16.png","img/900/randomdotsize/R/9_Ratio_900_L_18_R_20.png","img/750/equaldotsize/R/3_Ratio_750_L_15_R_20.png","img/500/equaldotsize/R/3_Ratio_500_L_10_R_20.png","img/500/equaldotanddens/L/7_Ratio_500_L_10_R_5.png","img/900/randomdotsize/R/13_Ratio_900_L_18_R_20.png","img/750/randomdotsize/L/13_Ratio_750_L_8_R_6.png","img/900/randomdotsize/R/5_Ratio_900_L_9_R_10.png","img/750/equaldotanddens/R/7_Ratio_750_L_3_R_4.png","img/500/randomdotsizeEA/L/10_Ratio_500_L_4_R_2.png","img/500/randomdotsizeEA/L/7_Ratio_500_L_10_R_5.png","img/500/randomdotsize/R/15_Ratio_500_L_1_R_2.png","img/750/randomdotsizeEA/L/14_Ratio_750_L_8_R_6.png","img/500/randomdotsize/L/5_Ratio_500_L_4_R_2.png","img/900/equaldotsize/L/1_Ratio_900_L_10_R_9.png","img/900/randomdotsize/R/6_Ratio_900_L_9_R_10.png","img/500/equaldotsize/L/8_Ratio_500_L_8_R_4.png","img/250/randomdotsize/L/5_Ratio_250_L_24_R_6.png","img/250/randomdotsize/R/9_Ratio_250_L_3_R_12.png","img/900/randomdotsizeEA/L/10_Ratio_900_L_20_R_18.png","img/500/randomdotsizeEA/L/11_Ratio_500_L_12_R_6.png","img/750/equaldotsize/L/1_Ratio_750_L_20_R_15.png","img/500/randomdotsizeEA/L/8_Ratio_500_L_8_R_4.png","img/750/randomdotsizeEA/R/15_Ratio_750_L_9_R_12.png","img/250/equaldotsize/R/8_Ratio_250_L_1_R_4.png","img/750/equaldotanddens/L/8_Ratio_750_L_4_R_3.png","img/750/equaldotanddens/R/2_Ratio_750_L_6_R_8.png","img/900/equaldotanddens/L/10_Ratio_900_L_20_R_18.png","img/500/randomdotsizeEA/L/10_Ratio_500_L_4_R_2.png","img/250/randomdotsizeEA/R/13_Ratio_250_L_2_R_8.png","img/750/randomdotsizeEA/L/10_Ratio_750_L_4_R_3.png","img/250/equaldotanddens/R/9_Ratio_250_L_3_R_12.png","img/750/randomdotsize/L/10_Ratio_750_L_4_R_3.png"],"Rat0":[["12_Ratio_0_L_9_R_0.png","13_Ratio_0_L_6_R_0.png","5_Ratio_0_L_2_R_0.png","6_Ratio_0_L_4_R_0.png","8_Ratio_0_L_6_R_0.png"],["1_Ratio_0_L_0_R_17.png","10_Ratio_0_L_0_R_22.png","11_Ratio_0_L_0_R_1.png","14_Ratio_0_L_0_R_24.png","15_Ratio_0_L_0_R_4.png","2_Ratio_0_L_0_R_5.png","3_Ratio_0_L_0_R_17.png","4_Ratio_0_L_0_R_7.png","7_Ratio_0_L_0_R_19.png","9_Ratio_0_L_0_R_15.png"]],"Rat250":[["1_Ratio_250_L_8_R_2.png","14_Ratio_250_L_12_R_3.png","15_Ratio_250_L_12_R_3.png","2_Ratio_250_L_16_R_4.png","3_Ratio_250_L_8_R_2.png","5_Ratio_250_L_24_R_6.png","7_Ratio_250_L_8_R_2.png"],["10_Ratio_250_L_4_R_16.png","11_Ratio_250_L_3_R_12.png","12_Ratio_250_L_5_R_20.png","13_Ratio_250_L_2_R_8.png","4_Ratio_250_L_3_R_12.png","6_Ratio_250_L_6_R_24.png","8_Ratio_250_L_1_R_4.png","9_Ratio_250_L_3_R_12.png"]],"Rat500":[["10_Ratio_500_L_4_R_2.png","11_Ratio_500_L_12_R_6.png","13_Ratio_500_L_12_R_6.png","4_Ratio_500_L_18_R_9.png","5_Ratio_500_L_4_R_2.png","7_Ratio_500_L_10_R_5.png","8_Ratio_500_L_8_R_4.png"],["1_Ratio_500_L_9_R_18.png","12_Ratio_500_L_1_R_2.png","14_Ratio_500_L_5_R_10.png","15_Ratio_500_L_1_R_2.png","2_Ratio_500_L_3_R_6.png","3_Ratio_500_L_10_R_20.png","6_Ratio_500_L_9_R_18.png","9_Ratio_500_L_2_R_4.png"]],"Rat750":[["1_Ratio_750_L_20_R_15.png","10_Ratio_750_L_4_R_3.png","13_Ratio_750_L_8_R_6.png","14_Ratio_750_L_8_R_6.png","6_Ratio_750_L_24_R_18.png","8_Ratio_750_L_4_R_3.png","9_Ratio_750_L_4_R_3.png"],["11_Ratio_750_L_12_R_16.png","12_Ratio_750_L_3_R_4.png","15_Ratio_750_L_9_R_12.png","2_Ratio_750_L_6_R_8.png","3_Ratio_750_L_15_R_20.png","4_Ratio_750_L_15_R_20.png","5_Ratio_750_L_15_R_20.png","7_Ratio_750_L_3_R_4.png"]],"Rat900":[["1_Ratio_900_L_10_R_9.png","10_Ratio_900_L_20_R_18.png","2_Ratio_900_L_20_R_18.png","4_Ratio_900_L_20_R_18.png","8_Ratio_900_L_20_R_18.png"],["11_Ratio_900_L_18_R_20.png","12_Ratio_900_L_18_R_20.png","13_Ratio_900_L_18_R_20.png","14_Ratio_900_L_18_R_20.png","15_Ratio_900_L_9_R_10.png","3_Ratio_900_L_9_R_10.png","5_Ratio_900_L_9_R_10.png","6_Ratio_900_L_9_R_10.png","7_Ratio_900_L_9_R_10.png","9_Ratio_900_L_18_R_20.png"]],"Rat1000":[["10_Ratio_1000_L_16_R_16.png","11_Ratio_1000_L_6_R_6.png","12_Ratio_1000_L_14_R_14.png","13_Ratio_1000_L_20_R_20.png","15_Ratio_1000_L_15_R_15.png","2_Ratio_1000_L_17_R_17.png","4_Ratio_1000_L_9_R_9.png","5_Ratio_1000_L_6_R_6.png","6_Ratio_1000_L_19_R_19.png","8_Ratio_1000_L_14_R_14.png","9_Ratio_1000_L_25_R_25.png"],["1_Ratio_1000_L_1_R_1.png","14_Ratio_1000_L_17_R_17.png","3_Ratio_1000_L_17_R_17.png","7_Ratio_1000_L_6_R_6.png"]]}},{"start_time":1452269562315,"click_time":1452269564300,"finger_time":1452269563840,"fix_duration":1273.5638041049622,"trial":1,"RT":1525,"MT":460,"sideResp":1,"stimulus":"img/250/randomdotsize/L/7_Ratio_250_L_8_R_2.png","xmouse":[400,400,400,400,400,400,400,400,400,400,400,400,400,400,400,400,400,400,400,400,400,400,400,400,400,400,400,400,400,400,400,400,400,400,400,400,400,400,400,400,400,400,400,400,400,400,400.66668701171875,400.66668701171875,400.66668701171875,400.66668701171875,399.3333435058594,398.66668701171875,398,398,398.66668701171875,398.66668701171875,399.3333435058594,399.3333435058594,398.66668701171875,398.66668701171875,398,397.3333435058594,396.66668701171875,396.66668701171875,396,395.3333435058594,395.3333435058594,394,394,392.66668701171875,390,389.3333435058594,386,384.66668701171875,380,373.3333435058594,368,365.3333435058594,358.66668701171875,354.66668701171875,348,334.66668701171875,328,313.3333435058594,306,285.3333435058594,272,256.66668701171875,247.33334350585938,230.6666717529297,202.6666717529297,194.6666717529297,178.6666717529297,173.33334350585938,174,148,138.6666717529297,124,119.33333587646484],"ymouse":[832,832,832,832,832,832,831.3333740234375,831.3333740234375,831.3333740234375,831.3333740234375,831.3333740234375,831.3333740234375,831.3333740234375,831.3333740234375,831.3333740234375,831.3333740234375,828.6666870117188,828.6666870117188,828.6666870117188,828.6666870117188,828.6666870117188,828.6666870117188,828.6666870117188,828.6666870117188,828.6666870117188,828.6666870117188,826,826,826,826,826,826,826,826,826,826,820,820,820,820,820,820,820,820,820,820,818.6666870117188,818.6666870117188,818.6666870117188,818.6666870117188,815.3333740234375,814.6666870117188,814,813.3333740234375,812.6666870117188,812,812,812,812,811.3333740234375,810.6666870117188,810,809.3333740234375,808.6666870117188,808.6666870117188,807.3333740234375,806.6666870117188,805.3333740234375,804.6666870117188,802.6666870117188,798.6666870117188,796,787.3333740234375,782.6666870117188,770.6666870117188,754,744,740,727.3333740234375,720.6666870117188,708,684,672,639.3333740234375,622.6666870117188,577.3333740234375,540.6666870117188,500.66668701171875,480,436.66668701171875,369.3333435058594,348.66668701171875,300.66668701171875,273.3333435058594,192,137.33334350585938,122.66667175292969,100,92],"timestamp_mouse":[5,49,65,85,105,124,145,164,184,204,225,245,265,285,305,325,345,365,385,405,425,445,465,485,505,525,545,565,585,605,625,645,665,685,705,725,745,765,785,805,825,845,865,884,905,925,945,965,985,1005,1025,1045,1065,1085,1105,1124,1145,1164,1185,1205,1225,1245,1267,1285,1305,1325,1345,1364,1385,1405,1424,1445,1464,1484,1505,1525,1545,1565,1585,1605,1625,1645,1665,1685,1705,1726,1745,1765,1785,1805,1825,1845,1866,1885,1904,1926,1946,1965,1985],"xSR":350,"ySR":768,"xT1":30,"yT1":0,"xT2":670,"yT2":0,"toosoon":0,"cond_shown":"randomdotsize","ratio_trial":250,"smaller_num":"2","larger_num":"8","correct_side":1,"subjID":"14","gender":"No_gender","age":"No_age","school":"No_school"},{"start_time":1452269566303,"click_time":1452269567901,"finger_time":1452269567380,"fix_duration":995.7989474030067,"trial":2,"RT":1077,"MT":521,"sideResp":2,"stimulus":"img/750/randomdotsize/R/7_Ratio_750_L_3_R_4.png","xmouse":[400,400,400,400,400,400,400,400,400,400,400,400,400,400,400,400,400,400,400,400,400,400,400,400,400,400,400,400,400,400,400,399.3333435058594,399.3333435058594,399.3333435058594,399.3333435058594,399.3333435058594,399.3333435058594,399.3333435058594,399.3333435058594,404,405.3333435058594,406,407.3333435058594,408.66668701171875,409.3333435058594,409.3333435058594,410,410,411.3333435058594,411.3333435058594,411.3333435058594,411.3333435058594,411.3333435058594,413.3333435058594,416,422,425.3333435058594,435.3333435058594,442,470.66668701171875,491.3333435058594,500.66668701171875,520.6666870117188,529.3333740234375,557.3333740234375,575.3333740234375,594,605.3333740234375,626.6666870117188,658,667.3333740234375,682,689.3333740234375,701.3333740234375,708.6666870117188,710.6666870117188,714,716,718,719.3333740234375,720.6666870117188],"ymouse":[825.3333740234375,824.6666870117188,824.6666870117188,824.6666870117188,824.6666870117188,824.6666870117188,824.6666870117188,824.6666870117188,824.6666870117188,824.6666870117188,824.6666870117188,820.6666870117188,820.6666870117188,820.6666870117188,820.6666870117188,820.6666870117188,820.6666870117188,820.6666870117188,820.6666870117188,820.6666870117188,820.6666870117188,819.3333740234375,819.3333740234375,819.3333740234375,819.3333740234375,819.3333740234375,819.3333740234375,819.3333740234375,819.3333740234375,819.3333740234375,819.3333740234375,815.3333740234375,815.3333740234375,815.3333740234375,815.3333740234375,815.3333740234375,815.3333740234375,815.3333740234375,815.3333740234375,807.3333740234375,806.6666870117188,806,804.6666870117188,802,800.6666870117188,799.3333740234375,796,794.6666870117188,788,784,782,778.6666870117188,776.6666870117188,770.6666870117188,764,751.3333740234375,745.3333740234375,725.3333740234375,710,656,619.3333740234375,600.6666870117188,562,542.6666870117188,481.3333435058594,444,402,380.66668701171875,338.66668701171875,280,262.66668701171875,230.6666717529297,218,188,169.33334350585938,161.33334350585938,150,142.6666717529297,126.66667175292969,104,89.33333587646484],"timestamp_mouse":[2,23,37,57,77,96,117,137,158,177,197,217,237,257,277,297,317,337,358,377,397,417,437,457,477,497,517,537,558,577,597,617,637,659,677,697,717,737,757,776,797,817,837,857,877,897,917,937,958,976,997,1017,1037,1058,1077,1097,1117,1137,1157,1177,1197,1217,1237,1256,1276,1297,1317,1337,1357,1377,1396,1417,1437,1458,1477,1497,1517,1537,1557,1577,1597],"xSR":350,"ySR":768,"xT1":30,"yT1":0,"xT2":670,"yT2":0,"toosoon":0,"cond_shown":"randomdotsize","ratio_trial":750,"smaller_num":"3","larger_num":"4","correct_side":2,"subjID":"14","gender":"No_gender","age":"No_age","school":"No_school"},{"start_time":1452269570149,"click_time":1452269571501,"finger_time":1452269571200,"fix_duration":1367.6072967032246,"trial":3,"RT":1051,"MT":301,"sideResp":1,"stimulus":"img/900/equaldotanddens/L/4_Ratio_900_L_20_R_18.png","xmouse":[420,420,420,420,420,417.3333435058594,416.66668701171875,416,415.3333435058594,414.66668701171875,414,412.66668701171875,412,412,412,412.66668701171875,412.66668701171875,412.66668701171875,413.3333435058594,413.3333435058594,414,414.66668701171875,414.66668701171875,414.66668701171875,414.66668701171875,414.66668701171875,414.66668701171875,414.66668701171875,414.66668701171875,414.66668701171875,414.66668701171875,419.3333435058594,419.3333435058594,419.3333435058594,419.3333435058594,419.3333435058594,419.3333435058594,419.3333435058594,419.3333435058594,419.3333435058594,419.3333435058594,419.3333435058594,419.3333435058594,419.3333435058594,419.3333435058594,419.3333435058594,419.3333435058594,419.3333435058594,419.3333435058594,419.3333435058594,405.3333435058594,401.3333435058594,378.66668701171875,363.3333435058594,354.66668701171875,337.3333435058594,328.66668701171875,301.3333435058594,281.3333435058594,257.3333435058594,244,214.6666717529297,171.33334350585938,158.6666717529297,136.6666717529297,126.66667175292969,112.66667175292969,96],"ymouse":[830.6666870117188,830.6666870117188,830.6666870117188,830.6666870117188,830.6666870117188,824.6666870117188,822.6666870117188,822,820.6666870117188,820,818.6666870117188,816.6666870117188,815.3333740234375,814.6666870117188,814,814,814,814,814,814,814.6666870117188,814.6666870117188,814.6666870117188,814.6666870117188,814.6666870117188,814.6666870117188,814.6666870117188,814.6666870117188,814.6666870117188,814.6666870117188,814.6666870117188,822,822,822,822,822,822,822,822,822,822,826,826,826,826,826,826,826,826,826,794.6666870117188,783.3333740234375,732.6666870117188,698.6666870117188,678,629.3333740234375,602.6666870117188,517.3333740234375,460.66668701171875,402.66668701171875,376.66668701171875,329.3333435058594,263.3333435058594,242,196,173.33334350585938,130,74],"timestamp_mouse":[11,33,51,71,91,110,132,151,170,191,211,232,251,271,291,311,331,350,370,391,411,430,451,471,491,511,531,551,571,591,611,632,651,671,691,711,731,751,771,791,812,831,851,871,891,910,931,951,971,991,1011,1031,1051,1071,1090,1111,1131,1151,1171,1191,1211,1231,1251,1271,1291,1311,1331,1351],"xSR":350,"ySR":768,"xT1":30,"yT1":0,"xT2":670,"yT2":0,"toosoon":0,"cond_shown":"equaldotanddens","ratio_trial":900,"smaller_num":"18","larger_num":"20","correct_side":1,"subjID":"14","gender":"No_gender","age":"No_age","school":"No_school"},{"start_time":1452269573598,"click_time":1452269574601,"finger_time":1452269574260,"fix_duration":1397.7547637810378,"trial":4,"RT":662,"MT":341,"sideResp":2,"stimulus":"img/250/equaldotsize/R/11_Ratio_250_L_3_R_12.png","xmouse":[414.66668701171875,414.66668701171875,414.66668701171875,414.66668701171875,414.66668701171875,414.66668701171875,414.66668701171875,414.66668701171875,414,414,414,414,414,414,414,414,414,414,413.3333435058594,413.3333435058594,413.3333435058594,413.3333435058594,413.3333435058594,413.3333435058594,413.3333435058594,413.3333435058594,413.3333435058594,413.3333435058594,414,414,414,414,414,426.66668701171875,457.3333435058594,476.66668701171875,556.6666870117188,580,633.3333740234375,661.3333740234375,716.6666870117188,780,788.6666870117188,788.6666870117188,788.6666870117188,788.6666870117188,788.6666870117188,788.6666870117188,788.6666870117188,788.6666870117188,743.3333740234375],"ymouse":[796.6666870117188,796.6666870117188,796.6666870117188,796.6666870117188,796.6666870117188,796.6666870117188,796.6666870117188,796.6666870117188,801.3333740234375,801.3333740234375,801.3333740234375,801.3333740234375,801.3333740234375,801.3333740234375,801.3333740234375,801.3333740234375,801.3333740234375,801.3333740234375,800.6666870117188,800.6666870117188,800.6666870117188,800.6666870117188,800.6666870117188,800.6666870117188,800.6666870117188,800.6666870117188,800.6666870117188,800.6666870117188,799.3333740234375,799.3333740234375,799.3333740234375,799.3333740234375,799.3333740234375,752,687.3333740234375,647.3333740234375,479.3333435058594,430,316,256,146,22,8,8,8,8,8,8,8,8,30],"timestamp_mouse":[2,34,42,62,82,102,122,142,161,182,202,222,242,262,282,302,322,342,362,382,402,422,442,462,482,502,522,542,561,582,602,623,643,662,682,701,722,742,762,782,802,825,854,862,881,902,921,942,962,982,1003],"xSR":350,"ySR":768,"xT1":30,"yT1":0,"xT2":670,"yT2":0,"toosoon":0,"cond_shown":"equaldotsize","ratio_trial":250,"smaller_num":"3","larger_num":"12","correct_side":2,"subjID":"14","gender":"No_gender","age":"No_age","school":"No_school"},{"start_time":1452269576165,"click_time":1452269576940,"finger_time":1452269576760,"fix_duration":444.94496683190164,"trial":5,"RT":595,"MT":180,"sideResp":2,"stimulus":"img/750/randomdotsizeEA/L/6_Ratio_750_L_24_R_18.png","xmouse":[413.3333435058594,413.3333435058594,413.3333435058594,413.3333435058594,417.3333435058594,417.3333435058594,418,418,418,418,418,418,418,418,418,418,418,418,418,417.3333435058594,417.3333435058594,417.3333435058594,417.3333435058594,417.3333435058594,417.3333435058594,418,418,420,423.3333435058594,435.3333435058594,442,456.66668701171875,465.3333435058594,514.6666870117188,535.3333740234375,582.6666870117188,608,656,710],"ymouse":[816,816,816,816,813.3333740234375,813.3333740234375,813.3333740234375,813.3333740234375,813.3333740234375,813.3333740234375,813.3333740234375,813.3333740234375,813.3333740234375,813.3333740234375,813.3333740234375,813.3333740234375,813.3333740234375,813.3333740234375,813.3333740234375,813.3333740234375,813.3333740234375,813.3333740234375,812.6666870117188,812.6666870117188,809.3333740234375,808,808,794,782,738,708,641.3333740234375,609.3333740234375,460.66668701171875,414.66668701171875,318,273.3333435058594,190,99.33333587646484],"timestamp_mouse":[15,43,56,75,94,114,135,154,175,195,215,235,254,275,295,315,335,355,375,395,415,435,455,475,494,515,535,557,575,595,615,635,655,675,695,715,735,755,774],"xSR":350,"ySR":768,"xT1":30,"yT1":0,"xT2":670,"yT2":0,"toosoon":0,"cond_shown":"randomdotsizeEA","ratio_trial":750,"smaller_num":"18","larger_num":"24","correct_side":1,"subjID":"14","gender":"No_gender","age":"No_age","school":"No_school"},{"start_time":1452269578624,"click_time":1452269580041,"finger_time":1452269579160,"fix_duration":962.4020485715176,"trial":6,"RT":536,"MT":881,"sideResp":1,"stimulus":"img/250/equaldotsize/L/15_Ratio_250_L_12_R_3.png","xmouse":[380.66668701171875,380.66668701171875,380.66668701171875,379.3333435058594,379.3333435058594,379.3333435058594,379.3333435058594,379.3333435058594,379.3333435058594,379.3333435058594,379.3333435058594,379.3333435058594,379.3333435058594,380,380,380,380,381.3333435058594,381.3333435058594,381.3333435058594,381.3333435058594,381.3333435058594,381.3333435058594,380,380,380,352.66668701171875,336,317.3333435058594,278,210,164,142.6666717529297,101.33333587646484,85.33333587646484,45.333335876464844,28,23.33333396911621,20,19.33333396911621,20.666667938232422,20.666667938232422,20.666667938232422,20.666667938232422,90,106.66667175292969,156,184,195.33334350585938,221.33334350585938,262,274,297.3333435058594,306,321.3333435058594,326,334.66668701171875,336,335.3333435058594,334.66668701171875,334.66668701171875,289.3333435058594,275.3333435058594,244.6666717529297,231.33334350585938,202,157.33334350585938,141.33334350585938,109.33333587646484,94,65.33333587646484],"ymouse":[818.6666870117188,818.6666870117188,818.6666870117188,816.6666870117188,816.6666870117188,816.6666870117188,816.6666870117188,816.6666870117188,816.6666870117188,816.6666870117188,816.6666870117188,816.6666870117188,816.6666870117188,815.3333740234375,815.3333740234375,815.3333740234375,815.3333740234375,816.6666870117188,816.6666870117188,816.6666870117188,816.6666870117188,816.6666870117188,816.6666870117188,814.6666870117188,814.6666870117188,814.6666870117188,767.3333740234375,734.6666870117188,694.6666870117188,608.6666870117188,476.66668701171875,381.3333435058594,330.66668701171875,231.33334350585938,189.33334350585938,106,76.66667175292969,67.33333587646484,58,56,54.66667175292969,54.66667175292969,54.66667175292969,54.66667175292969,139.33334350585938,170,289.3333435058594,373.3333435058594,406.66668701171875,474.66668701171875,566,592.6666870117188,643.3333740234375,664,700.6666870117188,715.3333740234375,736,740.6666870117188,740,738,738,652.6666870117188,620,544,505.3333740234375,414,270.66668701171875,227.33334350585938,150.6666717529297,116,58],"timestamp_mouse":[31,36,56,76,95,117,136,156,176,196,216,236,255,276,296,316,336,356,376,396,416,436,456,476,496,516,536,556,576,596,617,636,656,676,696,718,736,755,776,796,816,836,856,876,896,916,936,956,976,996,1018,1037,1056,1075,1096,1116,1136,1156,1176,1195,1216,1236,1256,1276,1296,1316,1336,1355,1376,1395,1417],"xSR":350,"ySR":768,"xT1":30,"yT1":0,"xT2":670,"yT2":0,"toosoon":0,"cond_shown":"equaldotsize","ratio_trial":250,"smaller_num":"3","larger_num":"12","correct_side":1,"subjID":"14","gender":"No_gender","age":"No_age","school":"No_school"},{"start_time":1452269581783,"click_time":1452269582720,"finger_time":1452269582362,"fix_duration":1142.691699451699,"trial":7,"RT":579,"MT":358,"sideResp":2,"stimulus":"img/250/randomdotsizeEA/R/11_Ratio_250_L_3_R_12.png","xmouse":[398.66668701171875,398.66668701171875,398.66668701171875,398.66668701171875,398.66668701171875,398.66668701171875,398.66668701171875,398.66668701171875,398.66668701171875,398.66668701171875,398.66668701171875,398.66668701171875,398.66668701171875,398.66668701171875,398.66668701171875,396.66668701171875,396.66668701171875,396.66668701171875,396.66668701171875,396.66668701171875,397.3333435058594,397.3333435058594,397.3333435058594,397.3333435058594,397.3333435058594,397.3333435058594,397.3333435058594,412,420.66668701171875,426.66668701171875,429.3333435058594,434,435.3333435058594,439.3333435058594,440.66668701171875,442,446,449.3333435058594,464,500,514.6666870117188,546,577.3333740234375,594,639.3333740234375,663.3333740234375,675.3333740234375],"ymouse":[819.3333740234375,819.3333740234375,819.3333740234375,819.3333740234375,819.3333740234375,819.3333740234375,820,820,820,820,820,820,820,820,820,819.3333740234375,819.3333740234375,819.3333740234375,818.6666870117188,818.6666870117188,818,818,818,818,818,818,818,782,757.3333740234375,741.3333740234375,733.3333740234375,720,714,695.3333740234375,682,674,652.6666870117188,637.3333740234375,592.6666870117188,496,460,382.66668701171875,303.3333435058594,264,165.33334350585938,110,84.66667175292969],"timestamp_mouse":[24,37,57,77,97,117,137,157,176,196,217,237,257,277,297,317,337,357,379,397,417,437,457,477,496,517,537,557,578,597,617,637,656,679,697,717,737,757,777,797,816,837,857,877,899,916,937],"xSR":350,"ySR":768,"xT1":30,"yT1":0,"xT2":670,"yT2":0,"toosoon":0,"cond_shown":"randomdotsizeEA","ratio_trial":250,"smaller_num":"3","larger_num":"12","correct_side":2,"subjID":"14","gender":"No_gender","age":"No_age","school":"No_school"},{"start_time":1452269583863,"click_time":1452269584940,"finger_time":1452269584682,"fix_duration":381.13856742031106,"trial":8,"RT":819,"MT":258,"sideResp":1,"stimulus":"img/900/equaldotsize/L/2_Ratio_900_L_20_R_18.png","xmouse":[397.3333435058594,397.3333435058594,397.3333435058594,397.3333435058594,397.3333435058594,397.3333435058594,392,392,392,392,392,392,392,392,392,392,398.66668701171875,398.66668701171875,398.66668701171875,398.66668701171875,398.66668701171875,398.66668701171875,398.66668701171875,398.66668701171875,398.66668701171875,400,400,400,400,400,400,400,400,400,400,400,400,400,393.3333435058594,393.3333435058594,366,357.3333435058594,341.3333435058594,333.3333435058594,314.66668701171875,280.66668701171875,267.3333435058594,242,226.6666717529297,200.6666717529297,166,146.6666717529297,138,122],"ymouse":[802,802,802,802,802,802,797.3333740234375,797.3333740234375,797.3333740234375,797.3333740234375,797.3333740234375,797.3333740234375,797.3333740234375,797.3333740234375,797.3333740234375,797.3333740234375,798,798,798,798,798,798,798,798,798,796,796,796,795.3333740234375,795.3333740234375,795.3333740234375,795.3333740234375,795.3333740234375,795.3333740234375,795.3333740234375,795.3333740234375,795.3333740234375,795.3333740234375,782,782,714.6666870117188,686,624.6666870117188,595.3333740234375,536.6666870117188,449.3333435058594,420,366.66668701171875,338,282.66668701171875,200,150,128,89.33333587646484],"timestamp_mouse":[34,37,56,77,97,117,137,156,177,197,218,237,257,277,297,317,337,357,377,397,417,437,457,477,497,519,537,557,577,597,617,637,656,677,697,717,737,757,777,797,819,837,857,877,897,918,937,957,977,997,1018,1037,1057,1077],"xSR":350,"ySR":768,"xT1":30,"yT1":0,"xT2":670,"yT2":0,"toosoon":0,"cond_shown":"equaldotsize","ratio_trial":900,"smaller_num":"18","larger_num":"20","correct_side":1,"subjID":"14","gender":"No_gender","age":"No_age","school":"No_school"},{"start_time":1452269585892,"click_time":1452269587004,"finger_time":1452269586700,"fix_duration":250,"trial":9,"RT":808,"MT":304,"sideResp":2,"stimulus":"img/250/randomdotsizeEA/R/6_Ratio_250_L_6_R_24.png","xmouse":[408.66668701171875,408.66668701171875,408.66668701171875,408.66668701171875,408.66668701171875,408,407.3333435058594,407.3333435058594,407.3333435058594,406,406,405.3333435058594,405.3333435058594,405.3333435058594,404.66668701171875,404.66668701171875,404.66668701171875,404.66668701171875,405.3333435058594,405.3333435058594,405.3333435058594,406,406,406,406,406,406,406,406,406,414,413.3333435058594,412.66668701171875,412.66668701171875,412.66668701171875,412.66668701171875,412.66668701171875,412.66668701171875,412.66668701171875,412.66668701171875,453.3333435058594,465.3333435058594,492.66668701171875,505.3333435058594,530,562.6666870117188,587.3333740234375,600.6666870117188,626,638,668.6666870117188,683.3333740234375,689.3333740234375,701.3333740234375,706,716.6666870117188],"ymouse":[822.6666870117188,822.6666870117188,822.6666870117188,822.6666870117188,820.6666870117188,819.3333740234375,818.6666870117188,818.6666870117188,818.6666870117188,818,817.3333740234375,817.3333740234375,816.6666870117188,816.6666870117188,816.6666870117188,816,816,815.3333740234375,815.3333740234375,815.3333740234375,815.3333740234375,815.3333740234375,815.3333740234375,815.3333740234375,815.3333740234375,815.3333740234375,815.3333740234375,815.3333740234375,815.3333740234375,815.3333740234375,806,804.6666870117188,803.3333740234375,803.3333740234375,803.3333740234375,803.3333740234375,803.3333740234375,803.3333740234375,803.3333740234375,803.3333740234375,708,681.3333740234375,629.3333740234375,601.3333740234375,541.3333740234375,446,386,352,293.3333435058594,267.3333435058594,198,162.6666717529297,146,119.33334350585938,107.33333587646484,75.33333587646484],"timestamp_mouse":[11,37,48,68,88,108,130,148,168,188,208,228,248,268,287,308,328,348,368,388,408,428,448,468,488,509,527,548,568,587,608,628,647,668,688,708,728,747,768,788,808,828,848,868,887,909,928,948,968,988,1009,1028,1048,1068,1088,1112],"xSR":350,"ySR":768,"xT1":30,"yT1":0,"xT2":670,"yT2":0,"toosoon":0,"cond_shown":"randomdotsizeEA","ratio_trial":250,"smaller_num":"6","larger_num":"24","correct_side":2,"subjID":"14","gender":"No_gender","age":"No_age","school":"No_school"},{"start_time":1452269588777,"click_time":1452269590122,"finger_time":1452269589839,"fix_duration":1074.985530315179,"trial":10,"RT":1062,"MT":283,"sideResp":1,"stimulus":"img/500/equaldotanddens/L/10_Ratio_500_L_4_R_2.png","xmouse":[407.3333435058594,407.3333435058594,404.66668701171875,404.66668701171875,404.66668701171875,404.66668701171875,404.66668701171875,404.66668701171875,404.66668701171875,404.66668701171875,404.66668701171875,404.66668701171875,403.3333435058594,403.3333435058594,403.3333435058594,403.3333435058594,403.3333435058594,403.3333435058594,403.3333435058594,403.3333435058594,403.3333435058594,403.3333435058594,402,402,402,402,402,402,402,402,402,402,408.66668701171875,408.66668701171875,408.66668701171875,408.66668701171875,410,410.66668701171875,411.3333435058594,411.3333435058594,411.3333435058594,411.3333435058594,411.3333435058594,411.3333435058594,411.3333435058594,411.3333435058594,411.3333435058594,411.3333435058594,411.3333435058594,411.3333435058594,411.3333435058594,411.3333435058594,411.3333435058594,379.3333435058594,370,354,347.3333435058594,310,300,277.3333435058594,265.3333435058594,240,202.6666717529297,191.33334350585938,169.33334350585938,159.33334350585938,139.33334350585938,112.66667175292969],"ymouse":[831.3333740234375,831.3333740234375,830,830,830,830,830,830,830,830,830,830,830,830,830,830,830,830,830,830,830,830,828.6666870117188,828.6666870117188,828.6666870117188,828.6666870117188,828.6666870117188,828.6666870117188,828.6666870117188,828.6666870117188,828.6666870117188,828.6666870117188,826,826,826,826,824,824,823.3333740234375,823.3333740234375,823.3333740234375,823.3333740234375,822.6666870117188,822,822,822,822,822,822,822,822,822,822,751.3333740234375,726,680,656,537.3333740234375,506.66668701171875,447.3333435058594,420,367.3333435058594,290,264,212.6666717529297,188,144,88.66667175292969],"timestamp_mouse":[3,23,44,63,83,103,123,143,163,183,203,223,243,263,283,303,323,343,363,382,403,423,442,463,483,503,523,543,563,583,603,623,644,662,683,703,723,744,762,783,803,823,843,864,883,903,924,943,963,983,1003,1023,1043,1062,1083,1102,1122,1144,1163,1183,1203,1223,1243,1262,1283,1303,1323,1344],"xSR":350,"ySR":768,"xT1":30,"yT1":0,"xT2":670,"yT2":0,"toosoon":0,"cond_shown":"equaldotanddens","ratio_trial":500,"smaller_num":"2","larger_num":"4","correct_side":1,"subjID":"14","gender":"No_gender","age":"No_age","school":"No_school"},{"start_time":1452269591756,"click_time":1452269592760,"finger_time":1452269592540,"fix_duration":954.3618753769459,"trial":11,"RT":784,"MT":220,"sideResp":2,"stimulus":"img/500/randomdotsize/L/8_Ratio_500_L_8_R_4.png","xmouse":[394,401.3333435058594,401.3333435058594,401.3333435058594,401.3333435058594,401.3333435058594,401.3333435058594,400,400,398.66668701171875,398.66668701171875,398.66668701171875,398.66668701171875,399.3333435058594,399.3333435058594,399.3333435058594,399.3333435058594,399.3333435058594,399.3333435058594,399.3333435058594,399.3333435058594,400,400,400.66668701171875,401.3333435058594,401.3333435058594,402.66668701171875,402.66668701171875,402.66668701171875,402.66668701171875,402.66668701171875,402.66668701171875,402.66668701171875,402.66668701171875,402,402,402,403.3333435058594,403.3333435058594,408.66668701171875,418,448,485.3333435058594,504.66668701171875,559.3333740234375,594,611.3333740234375,648.6666870117188,666.6666870117188,718.6666870117188,746],"ymouse":[849.3333740234375,818.6666870117188,818.6666870117188,818.6666870117188,818.6666870117188,818.6666870117188,818.6666870117188,814.6666870117188,814.6666870117188,810,810,808,807.3333740234375,806.6666870117188,805.3333740234375,805.3333740234375,804.6666870117188,804.6666870117188,804,804,802.6666870117188,802.6666870117188,801.3333740234375,800.6666870117188,799.3333740234375,799.3333740234375,797.3333740234375,797.3333740234375,797.3333740234375,797.3333740234375,797.3333740234375,797.3333740234375,797.3333740234375,797.3333740234375,797.3333740234375,796,796,794,794,748,720,655.3333740234375,585.3333740234375,548,430.66668701171875,352,312,238,203.33334350585938,108,62.66667175292969],"timestamp_mouse":[8,36,44,64,84,104,124,144,164,184,203,224,244,264,284,304,324,344,364,384,404,424,444,464,486,504,524,544,564,583,604,624,644,664,684,704,724,743,763,784,804,824,844,864,884,904,924,944,964,985,1004],"xSR":350,"ySR":768,"xT1":30,"yT1":0,"xT2":670,"yT2":0,"toosoon":0,"cond_shown":"randomdotsize","ratio_trial":500,"smaller_num":"4","larger_num":"8","correct_side":1,"subjID":"14","gender":"No_gender","age":"No_age","school":"No_school"},{"start_time":1452269594974,"click_time":1452269595860,"finger_time":1452269595561,"fix_duration":1493.7472639797181,"trial":12,"RT":587,"MT":299,"sideResp":1,"stimulus":"img/900/randomdotsize/R/7_Ratio_900_L_9_R_10.png","xmouse":[414.66668701171875,414.66668701171875,414.66668701171875,414.66668701171875,414.66668701171875,406.66668701171875,406,405.3333435058594,404.66668701171875,404,404,404.66668701171875,404.66668701171875,404.66668701171875,406,406,405.3333435058594,405.3333435058594,405.3333435058594,405.3333435058594,402.66668701171875,402,401.3333435058594,401.3333435058594,400.66668701171875,400,400,398,395.3333435058594,376.66668701171875,357.3333435058594,346,323.3333435058594,310.66668701171875,268,238,211.33334350585938,197.33334350585938,172.6666717529297,160,120.66667175292969,98,88.66667175292969,75.33333587646484,72],"ymouse":[865.3333740234375,865.3333740234375,865.3333740234375,865.3333740234375,865.3333740234375,848,847.3333740234375,845.3333740234375,844.6666870117188,843.3333740234375,842.6666870117188,842,841.3333740234375,841.3333740234375,839.3333740234375,838,838,838,838,838,836,836,834,833.3333740234375,827.3333740234375,821.3333740234375,817.3333740234375,806.6666870117188,798,756,722.6666870117188,706.6666870117188,668,646.6666870117188,564.6666870117188,504,444.66668701171875,412,352,323.3333435058594,235.33334350585938,184,158.6666717529297,113.33334350585938,92.66667175292969],"timestamp_mouse":[12,36,46,66,86,106,126,146,166,187,205,226,246,266,287,306,326,345,365,386,406,426,446,466,487,505,525,546,566,587,606,626,646,666,688,706,726,746,765,786,806,825,846,865,886],"xSR":350,"ySR":768,"xT1":30,"yT1":0,"xT2":670,"yT2":0,"toosoon":0,"cond_shown":"randomdotsize","ratio_trial":900,"smaller_num":"9","larger_num":"10","correct_side":2,"subjID":"14","gender":"No_gender","age":"No_age","school":"No_school"},{"start_time":1452269597074,"click_time":1452269597782,"finger_time":1452269597540,"fix_duration":453.4068835660292,"trial":13,"RT":466,"MT":242,"sideResp":2,"stimulus":"img/500/equaldotanddens/R/6_Ratio_500_L_9_R_18.png","xmouse":[380.66668701171875,380.66668701171875,380.66668701171875,380.66668701171875,380.66668701171875,376,376,376,376,376,376,376,376,376,376,379.3333435058594,379.3333435058594,379.3333435058594,379.3333435058594,385.3333435058594,391.3333435058594,401.3333435058594,408,424,432,454.66668701171875,471.3333435058594,480.66668701171875,501.3333435058594,514.6666870117188,563.3333740234375,599.3333740234375,627.3333740234375,639.3333740234375,659.3333740234375,686],"ymouse":[826,826,826,826,826,824,824,824,824,824,824,824,824,824,824,821.3333740234375,821.3333740234375,821.3333740234375,821.3333740234375,816,808,792.6666870117188,780,746,728,666,615.3333740234375,590,527.3333740234375,492,368,284,216.6666717529297,187.33334350585938,134,68.66667175292969],"timestamp_mouse":[11,35,45,66,86,107,126,146,166,186,206,226,246,266,286,308,326,346,365,386,407,426,446,466,486,508,526,546,566,586,606,626,646,665,686,707],"xSR":350,"ySR":768,"xT1":30,"yT1":0,"xT2":670,"yT2":0,"toosoon":0,"cond_shown":"equaldotanddens","ratio_trial":500,"smaller_num":"9","larger_num":"18","correct_side":2,"subjID":"14","gender":"No_gender","age":"No_age","school":"No_school"},{"start_time":1452269599257,"click_time":1452269600203,"finger_time":1452269599980,"fix_duration":696.058335125207,"trial":14,"RT":723,"MT":223,"sideResp":2,"stimulus":"img/250/equaldotanddens/R/9_Ratio_250_L_3_R_12.png","xmouse":[388,388,388,388,388,388,388,388,388,388,388,388,388,388,388,385.3333435058594,384.66668701171875,384,384,384,384,384.66668701171875,384.66668701171875,385.3333435058594,385.3333435058594,385.3333435058594,386.66668701171875,388,388,388,390,390.66668701171875,392.66668701171875,394,397.3333435058594,402.66668701171875,420.66668701171875,460,474.66668701171875,504,519.3333740234375,552.6666870117188,608.6666870117188,627.3333740234375,664,682.6666870117188,708,722.6666870117188],"ymouse":[836.6666870117188,836.6666870117188,836.6666870117188,836.6666870117188,836.6666870117188,836.6666870117188,834,834,834,834,834,834,834,834,834,832,831.3333740234375,830,830,828.6666870117188,828,828,828,827.3333740234375,827.3333740234375,827.3333740234375,826,823.3333740234375,823.3333740234375,823.3333740234375,817.3333740234375,816,812,808.6666870117188,802,793.3333740234375,756.6666870117188,666.6666870117188,633.3333740234375,562,522.6666870117188,439.3333435058594,314,278.66668701171875,210.6666717529297,178,129.33334350585938,87.33333587646484],"timestamp_mouse":[3,28,42,63,83,102,123,143,163,183,203,223,243,263,283,303,325,344,363,383,403,423,443,463,482,503,523,544,563,583,603,623,643,663,682,703,723,743,763,783,803,823,843,863,882,903,923,945],"xSR":350,"ySR":768,"xT1":30,"yT1":0,"xT2":670,"yT2":0,"toosoon":0,"cond_shown":"equaldotanddens","ratio_trial":250,"smaller_num":"3","larger_num":"12","correct_side":2,"subjID":"14","gender":"No_gender","age":"No_age","school":"No_school"},{"start_time":1452269601354,"click_time":1452269602721,"finger_time":1452269602500,"fix_duration":250,"trial":15,"RT":1146,"MT":221,"sideResp":2,"stimulus":"img/750/randomdotsizeEA/R/12_Ratio_750_L_3_R_4.png","xmouse":[394.66668701171875,394.66668701171875,394.66668701171875,394.66668701171875,394.66668701171875,395.3333435058594,395.3333435058594,396,396,396,396,396,396,396,396,396,395.3333435058594,396.66668701171875,396.66668701171875,396.66668701171875,396.66668701171875,396.66668701171875,396.66668701171875,396.66668701171875,396.66668701171875,396.66668701171875,396.66668701171875,394,394,394,394,394,394,394,394,394,394,393.3333435058594,393.3333435058594,393.3333435058594,393.3333435058594,393.3333435058594,393.3333435058594,393.3333435058594,393.3333435058594,393.3333435058594,393.3333435058594,396,396,396,396,396,396,396,396,396,415.3333435058594,432.66668701171875,482,504,550.6666870117188,574,648.6666870117188,687.3333740234375,716,724.6666870117188,738,741.3333740234375,744],"ymouse":[808.6666870117188,808.6666870117188,806.6666870117188,806,805.3333740234375,805.3333740234375,804.6666870117188,804.6666870117188,804.6666870117188,804.6666870117188,804.6666870117188,804.6666870117188,804.6666870117188,804.6666870117188,804.6666870117188,804.6666870117188,801.3333740234375,801.3333740234375,801.3333740234375,801.3333740234375,801.3333740234375,801.3333740234375,801.3333740234375,801.3333740234375,801.3333740234375,801.3333740234375,801.3333740234375,809.3333740234375,809.3333740234375,809.3333740234375,809.3333740234375,809.3333740234375,809.3333740234375,809.3333740234375,809.3333740234375,809.3333740234375,809.3333740234375,808.6666870117188,808.6666870117188,808.6666870117188,808.6666870117188,808.6666870117188,808.6666870117188,808.6666870117188,808.6666870117188,808.6666870117188,808.6666870117188,806.6666870117188,806.6666870117188,806.6666870117188,806.6666870117188,806.6666870117188,806.6666870117188,806.6666870117188,806.6666870117188,806.6666870117188,787.3333740234375,753.3333740234375,661.3333740234375,618.6666870117188,528.6666870117188,482.66668701171875,341.3333435058594,258.66668701171875,193.33334350585938,168.6666717529297,126,109.33333587646484,77.33333587646484],"timestamp_mouse":[7,34,46,66,86,105,125,147,166,186,206,226,245,266,286,306,326,346,366,386,406,426,445,466,486,505,526,546,565,585,606,626,646,665,686,705,726,746,766,786,806,826,846,866,886,905,926,947,967,986,1006,1026,1046,1066,1086,1106,1126,1146,1168,1186,1206,1226,1249,1266,1286,1306,1326,1346,1366],"xSR":350,"ySR":768,"xT1":30,"yT1":0,"xT2":670,"yT2":0,"toosoon":0,"cond_shown":"randomdotsizeEA","ratio_trial":750,"smaller_num":"3","larger_num":"4","correct_side":2,"subjID":"14","gender":"No_gender","age":"No_age","school":"No_school"},{"start_time":1452269604145,"click_time":1452269604920,"finger_time":1452269604660,"fix_duration":523.3001571335558,"trial":16,"RT":515,"MT":260,"sideResp":2,"stimulus":"img/900/equaldotanddens/L/1_Ratio_900_L_10_R_9.png","xmouse":[404.66668701171875,404.66668701171875,405.3333435058594,405.3333435058594,405.3333435058594,405.3333435058594,405.3333435058594,405.3333435058594,405.3333435058594,406,406,406,408.66668701171875,410.66668701171875,410.66668701171875,413.3333435058594,414,414,414,418,418,418,419.3333435058594,422.66668701171875,426.66668701171875,440,449.3333435058594,471.3333435058594,483.3333435058594,524.6666870117188,550,562.6666870117188,586.6666870117188,614.6666870117188,634.6666870117188,643.3333740234375,662.6666870117188,671.3333740234375,688.6666870117188],"ymouse":[831.3333740234375,831.3333740234375,831.3333740234375,831.3333740234375,831.3333740234375,831.3333740234375,831.3333740234375,830.6666870117188,830.6666870117188,830.6666870117188,830.6666870117188,830.6666870117188,832,832.6666870117188,832.6666870117188,833.3333740234375,832.6666870117188,832.6666870117188,832.6666870117188,824.6666870117188,824.6666870117188,824.6666870117188,811.3333740234375,799.3333740234375,788.6666870117188,751.3333740234375,724.6666870117188,662.6666870117188,628.6666870117188,516,444.66668701171875,409.3333435058594,343.3333435058594,266,217.33334350585938,192,147.33334350585938,126,88.66667175292969],"timestamp_mouse":[28,35,55,74,95,115,135,154,175,195,215,235,254,275,295,315,335,355,375,397,415,435,455,476,494,515,535,555,575,595,615,635,655,677,695,715,735,754,775],"xSR":350,"ySR":768,"xT1":30,"yT1":0,"xT2":670,"yT2":0,"toosoon":0,"cond_shown":"equaldotanddens","ratio_trial":900,"smaller_num":"9","larger_num":"10","correct_side":1,"subjID":"14","gender":"No_gender","age":"No_age","school":"No_school"},{"start_time":1452269606037,"click_time":1452269606743,"finger_time":1452269606360,"fix_duration":395.94643532028795,"trial":17,"RT":323,"MT":383,"sideResp":1,"stimulus":"img/900/randomdotsizeEA/R/12_Ratio_900_L_18_R_20.png","xmouse":[383.3333435058594,383.3333435058594,383.3333435058594,382.66668701171875,382.66668701171875,382.66668701171875,382.66668701171875,376.66668701171875,376.66668701171875,374,372.66668701171875,372,371.3333435058594,370,368.66668701171875,364.66668701171875,362,358.66668701171875,350,346.66668701171875,337.3333435058594,330.66668701171875,326.66668701171875,320,316.66668701171875,303.3333435058594,291.3333435058594,274,264,252.66668701171875,197.33334350585938,181.33334350585938,152.6666717529297,139.33334350585938,118,96.66667175292969],"ymouse":[831.3333740234375,828.6666870117188,828.6666870117188,825.3333740234375,825.3333740234375,825.3333740234375,825.3333740234375,811.3333740234375,811.3333740234375,806,801.3333740234375,800,797.3333740234375,790.6666870117188,787.3333740234375,769.3333740234375,754,740.6666870117188,706,689.3333740234375,652,624.6666870117188,612.6666870117188,592,583.3333740234375,554.6666870117188,531.3333740234375,498.66668701171875,477.3333435058594,453.3333435058594,347.3333435058594,315.3333435058594,251.33334350585938,217.33334350585938,150.6666717529297,66.66667175292969],"timestamp_mouse":[8,38,43,63,82,103,123,142,163,183,203,222,243,263,283,302,322,343,363,382,405,423,443,463,483,508,523,543,562,583,606,622,643,662,683,706],"xSR":350,"ySR":768,"xT1":30,"yT1":0,"xT2":670,"yT2":0,"toosoon":0,"cond_shown":"randomdotsizeEA","ratio_trial":900,"smaller_num":"18","larger_num":"20","correct_side":2,"subjID":"14","gender":"No_gender","age":"No_age","school":"No_school"},{"start_time":1452269607715,"click_time":1452269608780,"finger_time":1452269608560,"fix_duration":253.66567051313316,"trial":18,"RT":845,"MT":220,"sideResp":1,"stimulus":"img/250/randomdotsizeEA/L/14_Ratio_250_L_12_R_3.png","xmouse":[410.66668701171875,410.66668701171875,410.66668701171875,415.3333435058594,415.3333435058594,416.66668701171875,416,416,416,416.66668701171875,416.66668701171875,416.66668701171875,418,419.3333435058594,419.3333435058594,419.3333435058594,420,420,420,419.3333435058594,419.3333435058594,419.3333435058594,419.3333435058594,419.3333435058594,419.3333435058594,419.3333435058594,419.3333435058594,416,415.3333435058594,415.3333435058594,415.3333435058594,414,413.3333435058594,413.3333435058594,413.3333435058594,410.66668701171875,409.3333435058594,407.3333435058594,406.66668701171875,404.66668701171875,403.3333435058594,398.66668701171875,380,370.66668701171875,348.66668701171875,336.66668701171875,310.66668701171875,265.3333435058594,247.33334350585938,212,181.33334350585938,167.33334350585938,126,103.33333587646484],"ymouse":[829.3333740234375,829.3333740234375,829.3333740234375,833.3333740234375,833.3333740234375,833.3333740234375,834,834,834,834,834,834,833.3333740234375,832.6666870117188,832,832,832,832,832,830,830,830,830,830,830,830,830,815.3333740234375,813.3333740234375,812.6666870117188,812.6666870117188,811.3333740234375,810,810,810,808,807.3333740234375,804.6666870117188,803.3333740234375,800,796.6666870117188,784.6666870117188,737.3333740234375,714.6666870117188,660,627.3333740234375,562.6666870117188,462,427.3333435058594,357.3333435058594,285.3333435058594,253.33334350585938,154,94.66667175292969],"timestamp_mouse":[10,30,45,64,85,105,125,145,165,185,205,225,245,265,284,305,325,345,365,385,405,425,446,464,485,505,526,547,566,585,605,625,645,665,685,705,725,745,765,785,805,825,845,865,885,905,925,945,965,985,1005,1025,1046,1065],"xSR":350,"ySR":768,"xT1":30,"yT1":0,"xT2":670,"yT2":0,"toosoon":0,"cond_shown":"randomdotsizeEA","ratio_trial":250,"smaller_num":"3","larger_num":"12","correct_side":1,"subjID":"14","gender":"No_gender","age":"No_age","school":"No_school"},{"start_time":1452269610660,"click_time":1452269611500,"finger_time":1452269611280,"fix_duration":1198.1643989972954,"trial":19,"RT":620,"MT":220,"sideResp":2,"stimulus":"img/900/equaldotsize/R/7_Ratio_900_L_9_R_10.png","xmouse":[415.3333435058594,414.66668701171875,414.66668701171875,414.66668701171875,414.66668701171875,414.66668701171875,414.66668701171875,414.66668701171875,414.66668701171875,414.66668701171875,414.66668701171875,414.66668701171875,414.66668701171875,414.66668701171875,414.66668701171875,414.66668701171875,414.66668701171875,414.66668701171875,414.66668701171875,414.66668701171875,414.66668701171875,417.3333435058594,417.3333435058594,417.3333435058594,417.3333435058594,417.3333435058594,417.3333435058594,417.3333435058594,417.3333435058594,417.3333435058594,417.3333435058594,434.66668701171875,440,454,463.3333435058594,485.3333435058594,528.6666870117188,558,574,606,624.6666870117188,669.3333740234375,690],"ymouse":[822.6666870117188,820,820,820,820,820,820,820,820,820,820,818,818,818,818,818,818,818,818,818,818,818.6666870117188,818.6666870117188,818.6666870117188,818.6666870117188,818.6666870117188,818.6666870117188,818.6666870117188,818.6666870117188,818.6666870117188,818.6666870117188,764.6666870117188,738.6666870117188,670,631.3333740234375,550,419.3333435058594,336,296,220.6666717529297,184.6666717529297,103.33333587646484,67.33333587646484],"timestamp_mouse":[1,38,40,60,80,100,121,139,159,180,200,221,240,260,280,300,320,340,360,380,400,421,439,459,480,500,520,540,560,580,600,620,640,660,680,700,720,740,760,780,800,820,840],"xSR":350,"ySR":768,"xT1":30,"yT1":0,"xT2":670,"yT2":0,"toosoon":0,"cond_shown":"equaldotsize","ratio_trial":900,"smaller_num":"9","larger_num":"10","correct_side":2,"subjID":"14","gender":"No_gender","age":"No_age","school":"No_school"},{"start_time":1452269613179,"click_time":1452269615120,"finger_time":1452269614859,"fix_duration":937.593699282082,"trial":20,"RT":1680,"MT":261,"sideResp":1,"stimulus":"img/750/randomdotsize/R/11_Ratio_750_L_12_R_16.png","xmouse":[370,370,370,374.66668701171875,374.66668701171875,374.66668701171875,382.66668701171875,384,384.66668701171875,385.3333435058594,386,385.3333435058594,385.3333435058594,384,384,384,384,384,384,384,384,384,384,382.66668701171875,382.66668701171875,382.66668701171875,382.66668701171875,382.66668701171875,382,382,382,382,382,379.3333435058594,379.3333435058594,379.3333435058594,379.3333435058594,379.3333435058594,379.3333435058594,379.3333435058594,379.3333435058594,379.3333435058594,379.3333435058594,369.3333435058594,369.3333435058594,369.3333435058594,369.3333435058594,369.3333435058594,369.3333435058594,369.3333435058594,369.3333435058594,369.3333435058594,369.3333435058594,376,376,376.66668701171875,376.66668701171875,376.66668701171875,376.66668701171875,376.66668701171875,378.66668701171875,380,380.66668701171875,382,382.66668701171875,384.66668701171875,386.66668701171875,388,390,391.3333435058594,392.66668701171875,394.66668701171875,396,396.66668701171875,398,398.66668701171875,400,400,400.66668701171875,400,399.3333435058594,399.3333435058594,399.3333435058594,399.3333435058594,374.66668701171875,362.66668701171875,344,336.66668701171875,322,314.66668701171875,296,265.3333435058594,254,229.33334350585938,215.33334350585938,187.33334350585938,140.6666717529297,113.33333587646484],"ymouse":[826.6666870117188,826.6666870117188,826.6666870117188,830,830,830,838,839.3333740234375,840,840.6666870117188,841.3333740234375,842,842,842,842,842,842,842,842,842,842,842,842,838.6666870117188,838.6666870117188,838.6666870117188,838.6666870117188,838.6666870117188,845.3333740234375,845.3333740234375,845.3333740234375,845.3333740234375,845.3333740234375,848,848,848,848,848,848,848,848,848,848,835.3333740234375,835.3333740234375,835.3333740234375,835.3333740234375,835.3333740234375,835.3333740234375,835.3333740234375,835.3333740234375,835.3333740234375,835.3333740234375,836.6666870117188,836.6666870117188,836,836,836,836,836,830.6666870117188,828,827.3333740234375,826,824.6666870117188,822,818,816,812.6666870117188,810,808.6666870117188,806,804.6666870117188,804.6666870117188,803.3333740234375,803.3333740234375,802.6666870117188,802,802,801.3333740234375,800.6666870117188,800.6666870117188,800.6666870117188,800.6666870117188,752,712.6666870117188,652.6666870117188,630,582,556.6666870117188,499.3333740234375,394,362,294.66668701171875,263.3333435058594,208,139.33334350585938,98],"timestamp_mouse":[10,36,41,60,81,101,121,141,161,181,201,221,241,261,281,300,321,341,361,381,400,421,441,460,480,501,522,540,561,581,602,621,641,661,680,702,721,741,761,780,802,822,841,861,881,901,923,941,961,980,1001,1021,1041,1061,1081,1101,1122,1140,1161,1181,1200,1221,1241,1261,1281,1301,1321,1341,1361,1380,1401,1420,1441,1461,1481,1501,1521,1541,1561,1581,1601,1621,1640,1661,1680,1701,1722,1741,1761,1781,1801,1822,1840,1860,1881,1901,1922,1941],"xSR":350,"ySR":768,"xT1":30,"yT1":0,"xT2":670,"yT2":0,"toosoon":0,"cond_shown":"randomdotsize","ratio_trial":750,"smaller_num":"12","larger_num":"16","correct_side":2,"subjID":"14","gender":"No_gender","age":"No_age","school":"No_school"},{"start_time":1452269616153,"click_time":1452269617521,"finger_time":1452269617260,"fix_duration":250,"trial":21,"RT":1107,"MT":261,"sideResp":1,"stimulus":"img/250/randomdotsize/L/7_Ratio_250_L_8_R_2.png","xmouse":[404,404,404,404,404,404,404,404,402,402,402,402,402,402,402,402,402,402,401.3333435058594,401.3333435058594,401.3333435058594,401.3333435058594,401.3333435058594,401.3333435058594,401.3333435058594,401.3333435058594,401.3333435058594,401.3333435058594,402,402,402,402,402,402,402,402,402,402,398,398,398,398,398,396,395.3333435058594,395.3333435058594,394.66668701171875,394,393.3333435058594,393.3333435058594,392.66668701171875,391.3333435058594,388.66668701171875,384.66668701171875,383.3333435058594,378,372,354,318.66668701171875,306.66668701171875,278,262.66668701171875,232.6666717529297,198.6666717529297,177.33334350585938,166,144.6666717529297,134,106.66667175292969],"ymouse":[816,816,816,816,816,816,816,816,813.3333740234375,813.3333740234375,813.3333740234375,813.3333740234375,813.3333740234375,813.3333740234375,813.3333740234375,813.3333740234375,813.3333740234375,813.3333740234375,812.6666870117188,812.6666870117188,812.6666870117188,812.6666870117188,812.6666870117188,812.6666870117188,812.6666870117188,812.6666870117188,812.6666870117188,812.6666870117188,810.6666870117188,810.6666870117188,810.6666870117188,810.6666870117188,810.6666870117188,810.6666870117188,810.6666870117188,810.6666870117188,810.6666870117188,810.6666870117188,804,804,804,804,804,798.6666870117188,798,797.3333740234375,796.6666870117188,796.6666870117188,795.3333740234375,794.6666870117188,793.3333740234375,792.6666870117188,788,778.6666870117188,775.3333740234375,760.6666870117188,745.3333740234375,698,616.6666870117188,596,550,522,451.3333435058594,339.3333435058594,266,230,169.33334350585938,144,82],"timestamp_mouse":[9,31,47,67,87,107,127,147,168,186,207,227,246,266,287,307,327,347,370,387,407,427,447,467,487,507,527,548,569,587,607,627,647,666,687,707,727,747,771,787,807,827,847,866,887,907,927,947,967,987,1007,1027,1047,1067,1087,1107,1127,1147,1169,1186,1206,1227,1247,1268,1286,1307,1326,1347,1368],"xSR":350,"ySR":768,"xT1":30,"yT1":0,"xT2":670,"yT2":0,"toosoon":0,"cond_shown":"randomdotsize","ratio_trial":250,"smaller_num":"2","larger_num":"8","correct_side":1,"subjID":"14","gender":"No_gender","age":"No_age","school":"No_school"},{"start_time":1452269618968,"click_time":1452269620160,"finger_time":1452269619842,"fix_duration":746.5653515757117,"trial":22,"RT":874,"MT":318,"sideResp":2,"stimulus":"img/500/equaldotsize/R/12_Ratio_500_L_1_R_2.png","xmouse":[418,418,418,418,418,418,418,418,418,418,418,418,418,418,418,418,417.3333435058594,417.3333435058594,417.3333435058594,417.3333435058594,417.3333435058594,417.3333435058594,417.3333435058594,416.66668701171875,416.66668701171875,416.66668701171875,416.66668701171875,416.66668701171875,416.66668701171875,416.66668701171875,416.66668701171875,416.66668701171875,416.66668701171875,420,420,420,420,420,420,420,420,420,420,417.3333435058594,417.3333435058594,417.3333435058594,417.3333435058594,417.3333435058594,454,464,486,497.3333435058594,522.6666870117188,568,580,610,641.3333740234375,657.3333740234375,694,710],"ymouse":[810.6666870117188,810.6666870117188,810.6666870117188,810.6666870117188,810,810,810,810,810,810,810,810,810,807.3333740234375,807.3333740234375,807.3333740234375,806.6666870117188,806.6666870117188,806.6666870117188,806.6666870117188,806.6666870117188,806.6666870117188,806.6666870117188,805.3333740234375,805.3333740234375,805.3333740234375,805.3333740234375,805.3333740234375,805.3333740234375,805.3333740234375,805.3333740234375,805.3333740234375,805.3333740234375,807.3333740234375,807.3333740234375,807.3333740234375,807.3333740234375,807.3333740234375,807.3333740234375,807.3333740234375,807.3333740234375,807.3333740234375,807.3333740234375,767.3333740234375,767.3333740234375,767.3333740234375,767.3333740234375,767.3333740234375,643.3333740234375,622,574,547.3333740234375,488.66668701171875,388,358.66668701171875,295.3333435058594,230.6666717529297,198.6666717529297,118,76.66667175292969],"timestamp_mouse":[12,32,52,72,92,112,131,153,172,192,212,232,252,271,292,312,332,352,372,392,412,432,452,472,492,512,532,553,573,592,611,632,652,690,692,712,732,752,774,792,812,832,852,874,892,912,932,952,974,992,1012,1032,1052,1072,1092,1112,1132,1152,1172,1192],"xSR":350,"ySR":768,"xT1":30,"yT1":0,"xT2":670,"yT2":0,"toosoon":0,"cond_shown":"equaldotsize","ratio_trial":500,"smaller_num":"1","larger_num":"2","correct_side":2,"subjID":"14","gender":"No_gender","age":"No_age","school":"No_school"},{"start_time":1452269621424,"click_time":1452269622480,"finger_time":1452269622260,"fix_duration":663.384139563488,"trial":23,"RT":836,"MT":220,"sideResp":2,"stimulus":"img/750/equaldotsize/R/3_Ratio_750_L_15_R_20.png","xmouse":[405.3333435058594,405.3333435058594,405.3333435058594,405.3333435058594,405.3333435058594,405.3333435058594,405.3333435058594,405.3333435058594,405.3333435058594,405.3333435058594,405.3333435058594,405.3333435058594,405.3333435058594,405.3333435058594,404,404,404,404,404,404,404,404,404,404,404,404,404,404,404,404,404,404,404,404,401.3333435058594,401.3333435058594,401.3333435058594,401.3333435058594,400.66668701171875,402,402,441.3333435058594,469.3333435058594,481.3333435058594,502.66668701171875,512,541.3333740234375,567.3333740234375,600.6666870117188,620,661.3333740234375,717.3333740234375,730],"ymouse":[826.6666870117188,826.6666870117188,826.6666870117188,826.6666870117188,823.3333740234375,823.3333740234375,823.3333740234375,823.3333740234375,823.3333740234375,823.3333740234375,823.3333740234375,823.3333740234375,823.3333740234375,823.3333740234375,819.3333740234375,819.3333740234375,819.3333740234375,819.3333740234375,819.3333740234375,819.3333740234375,819.3333740234375,819.3333740234375,819.3333740234375,819.3333740234375,819.3333740234375,819.3333740234375,819.3333740234375,819.3333740234375,819.3333740234375,819.3333740234375,819.3333740234375,819.3333740234375,819.3333740234375,819.3333740234375,813.3333740234375,813.3333740234375,809.3333740234375,809.3333740234375,803.3333740234375,792,792,710.6666870117188,662,638.6666870117188,591.3333740234375,566,482.66668701171875,415.3333435058594,340,304,224.6666717529297,124.66667175292969,98],"timestamp_mouse":[35,36,56,76,96,116,136,156,176,196,216,236,256,276,295,316,336,356,376,396,417,435,456,476,496,516,535,556,576,596,616,636,656,676,696,716,736,756,776,796,816,836,855,876,896,916,936,956,976,996,1016,1035,1056],"xSR":350,"ySR":768,"xT1":30,"yT1":0,"xT2":670,"yT2":0,"toosoon":0,"cond_shown":"equaldotsize","ratio_trial":750,"smaller_num":"15","larger_num":"20","correct_side":2,"subjID":"14","gender":"No_gender","age":"No_age","school":"No_school"},{"start_time":1452269624401,"click_time":1452269625481,"finger_time":1452269625220,"fix_duration":1240.464066124355,"trial":24,"RT":819,"MT":261,"sideResp":2,"stimulus":"img/250/randomdotsize/R/6_Ratio_250_L_6_R_24.png","xmouse":[405.3333435058594,405.3333435058594,405.3333435058594,405.3333435058594,405.3333435058594,405.3333435058594,405.3333435058594,404.66668701171875,404.66668701171875,404.66668701171875,404.66668701171875,404.66668701171875,404.66668701171875,404.66668701171875,404.66668701171875,404.66668701171875,404.66668701171875,403.3333435058594,403.3333435058594,403.3333435058594,403.3333435058594,403.3333435058594,403.3333435058594,403.3333435058594,403.3333435058594,403.3333435058594,403.3333435058594,402.66668701171875,402.66668701171875,402.66668701171875,402.66668701171875,402.66668701171875,402.66668701171875,402.66668701171875,402.66668701171875,402.66668701171875,402.66668701171875,398.66668701171875,400,400,446.66668701171875,460,487.3333435058594,526.6666870117188,538.6666870117188,562.6666870117188,574,593.3333740234375,620,636.6666870117188,645.3333740234375,664.6666870117188,674.6666870117188,705.3333740234375],"ymouse":[829.3333740234375,829.3333740234375,829.3333740234375,829.3333740234375,829.3333740234375,829.3333740234375,829.3333740234375,829.3333740234375,829.3333740234375,829.3333740234375,829.3333740234375,829.3333740234375,829.3333740234375,829.3333740234375,829.3333740234375,829.3333740234375,829.3333740234375,829.3333740234375,829.3333740234375,829.3333740234375,829.3333740234375,829.3333740234375,829.3333740234375,829.3333740234375,829.3333740234375,829.3333740234375,829.3333740234375,828,828,828,828,828,828,828,828,828,828,802.6666870117188,798,798,705.3333740234375,676,619.3333740234375,540,515.3333740234375,466,440.66668701171875,388,308.66668701171875,254,226.6666717529297,172,146,74.66667175292969],"timestamp_mouse":[25,39,59,79,98,119,139,159,179,199,219,239,259,279,299,318,339,359,379,399,419,439,459,478,499,519,539,559,579,599,619,639,659,679,699,719,739,759,780,798,819,838,859,879,899,919,939,959,979,999,1019,1038,1058,1079],"xSR":350,"ySR":768,"xT1":30,"yT1":0,"xT2":670,"yT2":0,"toosoon":0,"cond_shown":"randomdotsize","ratio_trial":250,"smaller_num":"6","larger_num":"24","correct_side":2,"subjID":"14","gender":"No_gender","age":"No_age","school":"No_school"},{"start_time":1452269626910,"click_time":1452269627881,"finger_time":1452269627560,"fix_duration":628.6305704579205,"trial":25,"RT":650,"MT":321,"sideResp":2,"stimulus":"img/250/equaldotanddens/R/6_Ratio_250_L_6_R_24.png","xmouse":[394,394,394,394.66668701171875,394,394,394,393.3333435058594,393.3333435058594,392.66668701171875,393.3333435058594,393.3333435058594,394,394,394.66668701171875,394.66668701171875,394,394,394,393.3333435058594,393.3333435058594,393.3333435058594,393.3333435058594,393.3333435058594,393.3333435058594,393.3333435058594,393.3333435058594,394.66668701171875,394.66668701171875,394.66668701171875,394.66668701171875,399.3333435058594,402,418.66668701171875,430.66668701171875,436.66668701171875,450.66668701171875,459.3333435058594,486.66668701171875,507.3333435058594,515.3333740234375,537.3333740234375,550,575.3333740234375,619.3333740234375,650,664.6666870117188,692,703.3333740234375],"ymouse":[800.6666870117188,800.6666870117188,796,794,792.6666870117188,792,791.3333740234375,791.3333740234375,791.3333740234375,789.3333740234375,788.6666870117188,788.6666870117188,786.6666870117188,786.6666870117188,784,784,783.3333740234375,782.6666870117188,782.6666870117188,782,782,782,782,782,782,782,782,785.3333740234375,785.3333740234375,785.3333740234375,785.3333740234375,771.3333740234375,761.3333740234375,695.3333740234375,642,617.3333740234375,572.6666870117188,549.3333740234375,476,424,400.66668701171875,351.3333435058594,325.3333435058594,277.3333435058594,203.33334350585938,158.6666717529297,136.6666717529297,101.33333587646484,86.66667175292969],"timestamp_mouse":[11,36,50,71,90,110,130,150,170,190,210,230,250,271,289,310,330,350,370,390,410,430,449,472,490,510,530,550,570,591,610,631,649,672,690,710,729,750,772,789,810,830,850,870,890,910,930,950,970],"xSR":350,"ySR":768,"xT1":30,"yT1":0,"xT2":670,"yT2":0,"toosoon":0,"cond_shown":"equaldotanddens","ratio_trial":250,"smaller_num":"6","larger_num":"24","correct_side":2,"subjID":"14","gender":"No_gender","age":"No_age","school":"No_school"},{"start_time":1452269629505,"click_time":1452269630460,"finger_time":1452269630140,"fix_duration":884.012280140939,"trial":26,"RT":635,"MT":320,"sideResp":1,"stimulus":"img/500/equaldotanddens/L/4_Ratio_500_L_18_R_9.png","xmouse":[405.3333435058594,405.3333435058594,405.3333435058594,405.3333435058594,405.3333435058594,405.3333435058594,406,406,406,406,406,406,406,406,406,406,405.3333435058594,405.3333435058594,405.3333435058594,405.3333435058594,405.3333435058594,405.3333435058594,405.3333435058594,405.3333435058594,405.3333435058594,404,402,402,402,393.3333435058594,391.3333435058594,386.66668701171875,382.66668701171875,367.3333435058594,338.66668701171875,318,307.3333435058594,286.66668701171875,276,240,213.33334350585938,201.33334350585938,174,160.6666717529297,134.6666717529297,96,84,62],"ymouse":[797.3333740234375,797.3333740234375,797.3333740234375,797.3333740234375,797.3333740234375,797.3333740234375,797.3333740234375,797.3333740234375,797.3333740234375,797.3333740234375,797.3333740234375,796.6666870117188,796.6666870117188,796.6666870117188,796.6666870117188,796.6666870117188,795.3333740234375,795.3333740234375,795.3333740234375,795.3333740234375,795.3333740234375,795.3333740234375,795.3333740234375,795.3333740234375,795.3333740234375,784.6666870117188,782.6666870117188,782.6666870117188,782.6666870117188,773.3333740234375,771.3333740234375,765.3333740234375,758.6666870117188,730.6666870117188,674.6666870117188,630.6666870117188,604.6666870117188,548.6666870117188,519.3333740234375,426,363.3333435058594,335.3333435058594,277.3333435058594,249.33334350585938,199.33334350585938,137.33334350585938,122,94],"timestamp_mouse":[25,34,55,75,94,115,135,155,175,195,215,234,255,275,294,315,335,355,375,395,415,435,454,475,495,517,535,555,575,597,615,635,655,675,697,715,735,755,775,797,815,835,855,875,895,915,934,954],"xSR":350,"ySR":768,"xT1":30,"yT1":0,"xT2":670,"yT2":0,"toosoon":0,"cond_shown":"equaldotanddens","ratio_trial":500,"smaller_num":"9","larger_num":"18","correct_side":1,"subjID":"14","gender":"No_gender","age":"No_age","school":"No_school"},{"start_time":1452269632016,"click_time":1452269633220,"finger_time":1452269632880,"fix_duration":914.8286177225089,"trial":27,"RT":864,"MT":340,"sideResp":2,"stimulus":"img/900/equaldotanddens/R/7_Ratio_900_L_9_R_10.png","xmouse":[410,410,410.66668701171875,410.66668701171875,410.66668701171875,412.66668701171875,413.3333435058594,413.3333435058594,414,414,414,414,414,414,414,414,414,414,412,412,412,412,412,412,412,412,412,412,412.66668701171875,412.66668701171875,412.66668701171875,412.66668701171875,412.66668701171875,412.66668701171875,412.66668701171875,412.66668701171875,412.66668701171875,414,414.66668701171875,414.66668701171875,420,425.3333435058594,428.66668701171875,440.66668701171875,449.3333435058594,482,504.66668701171875,530,542.6666870117188,570.6666870117188,583.3333740234375,620,642,652,668,674.6666870117188,692,694,696,697.3333740234375,700],"ymouse":[811.3333740234375,811.3333740234375,810,810,810,809.3333740234375,810,810,810.6666870117188,810.6666870117188,810.6666870117188,810.6666870117188,810.6666870117188,810.6666870117188,810.6666870117188,810.6666870117188,810.6666870117188,810.6666870117188,811.3333740234375,811.3333740234375,811.3333740234375,811.3333740234375,811.3333740234375,811.3333740234375,811.3333740234375,811.3333740234375,811.3333740234375,811.3333740234375,811.3333740234375,811.3333740234375,811.3333740234375,811.3333740234375,811.3333740234375,811.3333740234375,811.3333740234375,811.3333740234375,811.3333740234375,803.3333740234375,800.6666870117188,800.6666870117188,788,775.3333740234375,768.6666870117188,748,731.3333740234375,672.6666870117188,626.6666870117188,572,542,478.66668701171875,445.3333435058594,352.66668701171875,296,268.66668701171875,220.6666717529297,200,136,126,116.66667175292969,100.66667175292969,92],"timestamp_mouse":[11,34,43,63,83,106,123,144,164,184,204,224,244,264,284,303,324,344,364,384,405,424,444,464,484,503,524,544,564,584,605,623,643,664,683,704,724,743,764,784,806,824,844,864,884,907,924,944,964,984,1004,1024,1044,1064,1084,1104,1124,1144,1164,1184,1203],"xSR":350,"ySR":768,"xT1":30,"yT1":0,"xT2":670,"yT2":0,"toosoon":0,"cond_shown":"equaldotanddens","ratio_trial":900,"smaller_num":"9","larger_num":"10","correct_side":2,"subjID":"14","gender":"No_gender","age":"No_age","school":"No_school"},{"start_time":1452269636245,"click_time":1452269637140,"finger_time":1452269636879,"fix_duration":564.846032758677,"trial":28,"RT":634,"MT":261,"sideResp":1,"stimulus":"img/250/equaldotanddens/L/2_Ratio_250_L_16_R_4.png","xmouse":[388,388,388,388,388,388.66668701171875,388.66668701171875,388.66668701171875,388.66668701171875,388.66668701171875,392,391.3333435058594,391.3333435058594,391.3333435058594,390.66668701171875,391.3333435058594,391.3333435058594,391.3333435058594,391.3333435058594,391.3333435058594,391.3333435058594,391.3333435058594,391.3333435058594,391.3333435058594,391.3333435058594,391.3333435058594,391.3333435058594,391.3333435058594,391.3333435058594,381.3333435058594,371.3333435058594,364,340.66668701171875,326.66668701171875,304.66668701171875,271.3333435058594,245.33334350585938,232,204,192.6666717529297,154.6666717529297,130.6666717529297,119.33333587646484,99.33333587646484,90],"ymouse":[808,808,810,812,812.6666870117188,816,816,816,816,816,826.6666870117188,828,828,830,830,830.6666870117188,830.6666870117188,830.6666870117188,830.6666870117188,830.6666870117188,830.6666870117188,830.6666870117188,830.6666870117188,830.6666870117188,830.6666870117188,824.6666870117188,824.6666870117188,824.6666870117188,824.6666870117188,802,776.6666870117188,756.6666870117188,686,650,602.6666870117188,544.6666870117188,493.3333435058594,464.66668701171875,401.3333435058594,373.3333435058594,276,214.6666717529297,184,126.66667175292969,98],"timestamp_mouse":[31,35,54,74,95,115,135,155,175,195,217,235,255,275,295,315,335,355,374,398,415,435,455,475,495,516,535,555,575,595,615,634,655,675,695,716,734,755,775,795,815,835,855,875,895],"xSR":350,"ySR":768,"xT1":30,"yT1":0,"xT2":670,"yT2":0,"toosoon":0,"cond_shown":"equaldotanddens","ratio_trial":250,"smaller_num":"4","larger_num":"16","correct_side":1,"subjID":"14","gender":"No_gender","age":"No_age","school":"No_school"},{"start_time":1452269638462,"click_time":1452269639240,"finger_time":1452269638980,"fix_duration":681.416139975171,"trial":29,"RT":518,"MT":260,"sideResp":2,"stimulus":"img/250/equaldotsize/R/12_Ratio_250_L_5_R_20.png","xmouse":[415.3333435058594,415.3333435058594,417.3333435058594,417.3333435058594,417.3333435058594,417.3333435058594,417.3333435058594,417.3333435058594,417.3333435058594,417.3333435058594,417.3333435058594,417.3333435058594,416.66668701171875,416.66668701171875,416.66668701171875,416.66668701171875,416.66668701171875,416.66668701171875,416.66668701171875,416.66668701171875,415.3333435058594,416,416.66668701171875,417.3333435058594,417.3333435058594,425.3333435058594,438.66668701171875,448,472.66668701171875,522,536.6666870117188,560.6666870117188,568.6666870117188,584,608,627.3333740234375,638,663.3333740234375,676.6666870117188],"ymouse":[821.3333740234375,821.3333740234375,816,816,816,816,816,816,816,816,816,816,816,816,816,816,816,816,816,816,804.6666870117188,802,796.6666870117188,790,790,751.3333740234375,699.3333740234375,666.6666870117188,590.6666870117188,442,398.66668701171875,327.3333435058594,297.3333435058594,244,168.6666717529297,125.33334350585938,102.66667175292969,60,39.333335876464844],"timestamp_mouse":[35,38,58,77,97,117,138,158,178,198,218,238,257,278,298,318,338,358,378,398,419,437,458,478,498,518,538,558,578,600,618,638,658,678,700,719,738,758,778],"xSR":350,"ySR":768,"xT1":30,"yT1":0,"xT2":670,"yT2":0,"toosoon":0,"cond_shown":"equaldotsize","ratio_trial":250,"smaller_num":"5","larger_num":"20","correct_side":2,"subjID":"14","gender":"No_gender","age":"No_age","school":"No_school"},{"start_time":1452269640432,"click_time":1452269641484,"finger_time":1452269640860,"fix_duration":250,"trial":30,"RT":428,"MT":624,"sideResp":2,"stimulus":"img/900/equaldotanddens/R/9_Ratio_900_L_18_R_20.png","xmouse":[406.66668701171875,404.66668701171875,404.66668701171875,402.66668701171875,402,402,400.66668701171875,400,399.3333435058594,398.66668701171875,398,397.3333435058594,396,395.3333435058594,395.3333435058594,394.66668701171875,394.66668701171875,393.3333435058594,392.66668701171875,391.3333435058594,390,388.66668701171875,385.3333435058594,382.66668701171875,381.3333435058594,380,379.3333435058594,378.66668701171875,379.3333435058594,380.66668701171875,380.66668701171875,380.66668701171875,380.66668701171875,398,397.3333435058594,397.3333435058594,397.3333435058594,397.3333435058594,391.3333435058594,394.66668701171875,394.66668701171875,406.66668701171875,422,472.66668701171875,498.66668701171875,561.3333740234375,593.3333740234375,682.6666870117188,724.6666870117188,740,755.3333740234375,759.3333740234375,758.6666870117188],"ymouse":[810,809.3333740234375,809.3333740234375,809.3333740234375,808.6666870117188,808.6666870117188,808.6666870117188,807.3333740234375,806.6666870117188,805.3333740234375,804.6666870117188,802.6666870117188,800,797.3333740234375,795.3333740234375,792,789.3333740234375,782.6666870117188,776.6666870117188,774.6666870117188,769.3333740234375,766.6666870117188,759.3333740234375,754,750.6666870117188,745.3333740234375,742.6666870117188,737.3333740234375,726,720,720,720,720,646.6666870117188,614,614,614,614,500,460,460,397.3333435058594,355.3333435058594,294.66668701171875,274,237.33334350585938,221.33334350585938,184,163.33334350585938,153.33334350585938,138.6666717529297,131.33334350585938,99.33333587646484],"timestamp_mouse":[10,34,48,68,88,107,127,150,168,188,208,228,248,268,287,307,328,349,368,388,408,428,449,468,488,508,528,548,570,588,607,628,648,669,688,708,728,748,770,788,808,828,847,869,888,908,928,951,968,988,1008,1028,1052],"xSR":350,"ySR":768,"xT1":30,"yT1":0,"xT2":670,"yT2":0,"toosoon":0,"cond_shown":"equaldotanddens","ratio_trial":900,"smaller_num":"18","larger_num":"20","correct_side":2,"subjID":"14","gender":"No_gender","age":"No_age","school":"No_school"},{"start_time":1452269643146,"click_time":1452269644500,"finger_time":1452269644202,"fix_duration":836.7113775262882,"trial":31,"RT":1056,"MT":298,"sideResp":2,"stimulus":"img/500/randomdotsize/R/15_Ratio_500_L_1_R_2.png","xmouse":[408,408.66668701171875,408.66668701171875,408.66668701171875,408.66668701171875,408.66668701171875,408.66668701171875,408.66668701171875,404.66668701171875,403.3333435058594,403.3333435058594,403.3333435058594,400.66668701171875,400.66668701171875,400.66668701171875,400,400,400,399.3333435058594,399.3333435058594,399.3333435058594,399.3333435058594,398.66668701171875,398.66668701171875,398.66668701171875,398.66668701171875,398.66668701171875,400,400,400,400,400,400,400,400,400,400,404,404,404,404,400.66668701171875,400.66668701171875,400.66668701171875,399.3333435058594,399.3333435058594,399.3333435058594,399.3333435058594,400,401.3333435058594,401.3333435058594,401.3333435058594,401.3333435058594,447.3333435058594,478,492.66668701171875,517.3333740234375,529.3333740234375,554,598.6666870117188,630.6666870117188,646.6666870117188,678.6666870117188,716.6666870117188,725.3333740234375,740.6666870117188,746.6666870117188,756,759.3333740234375],"ymouse":[814.6666870117188,816.6666870117188,816.6666870117188,816.6666870117188,816.6666870117188,820.6666870117188,820.6666870117188,820.6666870117188,820,819.3333740234375,819.3333740234375,819.3333740234375,818.6666870117188,818.6666870117188,818.6666870117188,818,818,817.3333740234375,816.6666870117188,816.6666870117188,816.6666870117188,816.6666870117188,816.6666870117188,816,816,816,816,813.3333740234375,813.3333740234375,813.3333740234375,813.3333740234375,813.3333740234375,813.3333740234375,813.3333740234375,813.3333740234375,813.3333740234375,813.3333740234375,806.6666870117188,806.6666870117188,806.6666870117188,806.6666870117188,802,802,802,796.6666870117188,796,794,793.3333740234375,790.6666870117188,788.6666870117188,788.6666870117188,788.6666870117188,788.6666870117188,733.3333740234375,692.6666870117188,672,634.6666870117188,616,568.6666870117188,478.66668701171875,416,386,322,235.33334350585938,210,162.6666717529297,140.6666717529297,101.33333587646484,84.66667175292969],"timestamp_mouse":[3,31,33,53,74,94,114,134,157,173,194,214,234,254,274,294,314,334,358,374,394,414,433,454,474,494,514,533,554,574,594,614,634,655,674,694,714,734,754,774,794,814,834,854,874,894,914,934,956,976,994,1014,1034,1056,1074,1094,1114,1134,1154,1174,1194,1214,1234,1256,1274,1294,1314,1334,1354],"xSR":350,"ySR":768,"xT1":30,"yT1":0,"xT2":670,"yT2":0,"toosoon":0,"cond_shown":"randomdotsize","ratio_trial":500,"smaller_num":"1","larger_num":"2","correct_side":2,"subjID":"14","gender":"No_gender","age":"No_age","school":"No_school"},{"start_time":1452269645512,"click_time":1452269646622,"finger_time":1452269646380,"fix_duration":250,"trial":32,"RT":868,"MT":242,"sideResp":2,"stimulus":"img/250/equaldotsize/R/11_Ratio_250_L_3_R_12.png","xmouse":[410,410,410,414,414,414,414,414,414,414,412.66668701171875,412.66668701171875,412.66668701171875,412.66668701171875,412.66668701171875,412.66668701171875,412.66668701171875,412.66668701171875,412.66668701171875,412.66668701171875,412.66668701171875,412.66668701171875,412.66668701171875,412.66668701171875,412.66668701171875,412.66668701171875,412.66668701171875,412.66668701171875,416,416.66668701171875,416.66668701171875,416.66668701171875,416.66668701171875,416.66668701171875,416.66668701171875,416.66668701171875,416.66668701171875,416.66668701171875,416.66668701171875,416.66668701171875,418,420.66668701171875,423.3333435058594,430,434,448,468,481.3333435058594,513.3333740234375,532,602.6666870117188,622,655.3333740234375,670.6666870117188,696.6666870117188,723.3333740234375],"ymouse":[834.6666870117188,834.6666870117188,834.6666870117188,834,833.3333740234375,833.3333740234375,833.3333740234375,833.3333740234375,833.3333740234375,833.3333740234375,834,834,834,834,834,834,834,834,834,834,835.3333740234375,835.3333740234375,835.3333740234375,835.3333740234375,835.3333740234375,835.3333740234375,835.3333740234375,835.3333740234375,833.3333740234375,832.6666870117188,832,832,832,832,832,832,832,832,832,822,814.6666870117188,805.3333740234375,796.6666870117188,767.3333740234375,747.3333740234375,669.3333740234375,606,572,498,459.3333435058594,312,274,208.6666717529297,179.33334350585938,130.6666717529297,88],"timestamp_mouse":[27,28,48,68,88,108,128,148,168,187,209,227,247,268,288,307,328,348,367,388,413,428,447,468,488,508,528,547,568,588,611,628,648,668,687,707,728,748,768,788,810,828,848,868,888,909,928,948,968,988,1010,1028,1048,1068,1088,1109],"xSR":350,"ySR":768,"xT1":30,"yT1":0,"xT2":670,"yT2":0,"toosoon":0,"cond_shown":"equaldotsize","ratio_trial":250,"smaller_num":"3","larger_num":"12","correct_side":2,"subjID":"14","gender":"No_gender","age":"No_age","school":"No_school"},{"start_time":1452269648232,"click_time":1452269649341,"finger_time":1452269649141,"fix_duration":830.162297489406,"trial":33,"RT":909,"MT":200,"sideResp":2,"stimulus":"img/500/randomdotsize/R/3_Ratio_500_L_10_R_20.png","xmouse":[384.66668701171875,384.66668701171875,384.66668701171875,384.66668701171875,384.66668701171875,384.66668701171875,384.66668701171875,384.66668701171875,384.66668701171875,384.66668701171875,384.66668701171875,386,386,386,386,386,386,386,386,386,386,386,386,386,386,386,386.66668701171875,386.66668701171875,386.66668701171875,386.66668701171875,386.66668701171875,387.3333435058594,387.3333435058594,387.3333435058594,388,388,388,388,388,388,388,390,391.3333435058594,395.3333435058594,400.66668701171875,431.3333435058594,454.66668701171875,466.66668701171875,494.66668701171875,534,604.6666870117188,628.6666870117188,669.3333740234375,686,712,725.3333740234375],"ymouse":[808.6666870117188,809.3333740234375,809.3333740234375,809.3333740234375,809.3333740234375,809.3333740234375,809.3333740234375,809.3333740234375,809.3333740234375,809.3333740234375,809.3333740234375,811.3333740234375,811.3333740234375,811.3333740234375,812,812,812,812,812,812,812,812.6666870117188,812.6666870117188,812.6666870117188,812.6666870117188,812.6666870117188,814,814,814,814,814,814,814,814,814,813.3333740234375,813.3333740234375,813.3333740234375,813.3333740234375,813.3333740234375,813.3333740234375,802.6666870117188,800,790.6666870117188,778.6666870117188,700.6666870117188,631.3333740234375,599.3333740234375,527.3333740234375,439.3333435058594,306,267.3333435058594,195.33334350585938,165.33334350585938,109.33333587646484,67.33333587646484],"timestamp_mouse":[11,42,47,68,88,108,128,148,168,188,208,228,248,268,288,308,328,347,368,388,408,428,448,468,488,508,528,548,568,588,608,628,648,668,688,708,728,748,768,788,809,828,848,868,888,909,928,948,968,988,1009,1028,1048,1067,1087,1109],"xSR":350,"ySR":768,"xT1":30,"yT1":0,"xT2":670,"yT2":0,"toosoon":0,"cond_shown":"randomdotsize","ratio_trial":500,"smaller_num":"10","larger_num":"20","correct_side":2,"subjID":"14","gender":"No_gender","age":"No_age","school":"No_school"},{"start_time":1452269650301,"click_time":1452269651400,"finger_time":1452269651060,"fix_duration":250,"trial":34,"RT":759,"MT":340,"sideResp":1,"stimulus":"img/250/randomdotsizeEA/L/14_Ratio_250_L_12_R_3.png","xmouse":[410.66668701171875,410.66668701171875,410.66668701171875,418.66668701171875,418.66668701171875,418.66668701171875,418.66668701171875,418.66668701171875,418.66668701171875,426.66668701171875,427.3333435058594,428,428.66668701171875,429.3333435058594,430,430,430,430,430,430,430,430,430,430,430,430,430,430,430,427.3333435058594,427.3333435058594,426.66668701171875,426.66668701171875,426.66668701171875,426.66668701171875,426.66668701171875,426.66668701171875,426.66668701171875,397.3333435058594,378,359.3333435058594,350,330.66668701171875,300,288.66668701171875,264,250.66668701171875,221.33334350585938,178.6666717529297,166.6666717529297,144.6666717529297,135.33334350585938,120,103.33333587646484,98.66667175292969,92],"ymouse":[772.6666870117188,772.6666870117188,772.6666870117188,780.6666870117188,780.6666870117188,780.6666870117188,780.6666870117188,780.6666870117188,780.6666870117188,791.3333740234375,792,793.3333740234375,794,795.3333740234375,796,796,795.3333740234375,795.3333740234375,795.3333740234375,794.6666870117188,794.6666870117188,794.6666870117188,794.6666870117188,794.6666870117188,794.6666870117188,794.6666870117188,794.6666870117188,794.6666870117188,794.6666870117188,797.3333740234375,797.3333740234375,797.3333740234375,797.3333740234375,797.3333740234375,797.3333740234375,797.3333740234375,797.3333740234375,797.3333740234375,749.3333740234375,714.6666870117188,675.3333740234375,654.6666870117188,606.6666870117188,517.3333740234375,486.66668701171875,425.3333435058594,400,346,274,253.33334350585938,214.6666717529297,196,159.33334350585938,112.66667175292969,100,82],"timestamp_mouse":[2,26,39,59,79,99,118,139,158,179,199,219,239,259,281,299,319,339,359,378,399,419,439,459,479,499,518,539,558,579,599,619,639,660,679,699,719,739,759,779,799,819,839,859,878,899,919,939,959,979,999,1019,1039,1060,1079,1099],"xSR":350,"ySR":768,"xT1":30,"yT1":0,"xT2":670,"yT2":0,"toosoon":0,"cond_shown":"randomdotsizeEA","ratio_trial":250,"smaller_num":"3","larger_num":"12","correct_side":1,"subjID":"14","gender":"No_gender","age":"No_age","school":"No_school"},{"start_time":1452269653509,"click_time":1452269654400,"finger_time":1452269654141,"fix_duration":1407.1431002741608,"trial":35,"RT":632,"MT":259,"sideResp":2,"stimulus":"img/750/equaldotanddens/R/11_Ratio_750_L_12_R_16.png","xmouse":[424,424,424,424,424,424,424,422.66668701171875,422,422,422,422,422.66668701171875,422.66668701171875,422.66668701171875,422.66668701171875,422.66668701171875,424.66668701171875,424.66668701171875,424.66668701171875,424.66668701171875,424.66668701171875,424.66668701171875,424.66668701171875,424.66668701171875,424.66668701171875,424.66668701171875,430,430.66668701171875,430.66668701171875,434.66668701171875,441.3333435058594,458.66668701171875,491.3333435058594,512,523.3333740234375,543.3333740234375,553.3333740234375,579.3333740234375,594.6666870117188,602.6666870117188,619.3333740234375,628,656.6666870117188,676],"ymouse":[812,812,812,812,812,812,812,809.3333740234375,809.3333740234375,809.3333740234375,809.3333740234375,809.3333740234375,810,810,810,810,810,811.3333740234375,811.3333740234375,811.3333740234375,811.3333740234375,811.3333740234375,811.3333740234375,811.3333740234375,811.3333740234375,811.3333740234375,811.3333740234375,802.6666870117188,796,796,776.6666870117188,756.6666870117188,701.3333740234375,615.3333740234375,559.3333740234375,529.3333740234375,471.3333435058594,444,363.3333435058594,307.3333435058594,278,223.33334350585938,196.6666717529297,119.33334350585938,77.33333587646484],"timestamp_mouse":[11,34,51,71,91,110,130,151,170,191,211,231,251,271,291,311,331,350,371,391,411,431,451,471,491,510,531,550,573,591,611,631,651,671,691,711,731,751,771,791,811,831,851,871,891],"xSR":350,"ySR":768,"xT1":30,"yT1":0,"xT2":670,"yT2":0,"toosoon":0,"cond_shown":"equaldotanddens","ratio_trial":750,"smaller_num":"12","larger_num":"16","correct_side":2,"subjID":"14","gender":"No_gender","age":"No_age","school":"No_school"},{"start_time":1452269655609,"click_time":1452269656540,"finger_time":1452269656299,"fix_duration":467.85706578897936,"trial":36,"RT":690,"MT":241,"sideResp":1,"stimulus":"img/500/equaldotanddens/L/11_Ratio_500_L_12_R_6.png","xmouse":[411.3333435058594,411.3333435058594,412,412,412,412,412,412,412,412,413.3333435058594,413.3333435058594,413.3333435058594,413.3333435058594,413.3333435058594,413.3333435058594,413.3333435058594,413.3333435058594,413.3333435058594,415.3333435058594,416.66668701171875,416.66668701171875,416.66668701171875,416.66668701171875,416.66668701171875,416.66668701171875,416.66668701171875,416.66668701171875,416,415.3333435058594,415.3333435058594,415.3333435058594,415.3333435058594,400.66668701171875,381.3333435058594,370,343.3333435058594,329.3333435058594,299.3333435058594,256,242.6666717529297,218.6666717529297,211.33334350585938,194.6666717529297,163.33334350585938,136,119.33333587646484],"ymouse":[827.3333740234375,827.3333740234375,821.3333740234375,821.3333740234375,821.3333740234375,821.3333740234375,821.3333740234375,821.3333740234375,821.3333740234375,821.3333740234375,816,816,814.6666870117188,814.6666870117188,814.6666870117188,814.6666870117188,814.6666870117188,814.6666870117188,814.6666870117188,812.6666870117188,812.6666870117188,812.6666870117188,812.6666870117188,812.6666870117188,812,812,811.3333740234375,811.3333740234375,810.6666870117188,809.3333740234375,809.3333740234375,809.3333740234375,809.3333740234375,788,724,688.6666870117188,615.3333740234375,582,520,418,378.66668701171875,297.3333435058594,258.66668701171875,180,92.66667175292969,60,48.66667175292969],"timestamp_mouse":[11,36,51,71,90,111,131,151,171,191,211,231,250,271,291,311,331,351,371,391,411,431,451,471,491,511,531,551,570,592,611,631,650,671,690,712,731,751,770,791,811,831,850,872,891,910,931],"xSR":350,"ySR":768,"xT1":30,"yT1":0,"xT2":670,"yT2":0,"toosoon":0,"cond_shown":"equaldotanddens","ratio_trial":500,"smaller_num":"6","larger_num":"12","correct_side":1,"subjID":"14","gender":"No_gender","age":"No_age","school":"No_school"},{"start_time":1452269657631,"click_time":1452269658801,"finger_time":1452269658539,"fix_duration":442.02106300430665,"trial":37,"RT":908,"MT":262,"sideResp":1,"stimulus":"img/500/equaldotanddens/L/5_Ratio_500_L_4_R_2.png","xmouse":[424,424,423.3333435058594,423.3333435058594,423.3333435058594,423.3333435058594,423.3333435058594,422,422,422,422,422,422,425.3333435058594,425.3333435058594,425.3333435058594,425.3333435058594,425.3333435058594,425.3333435058594,425.3333435058594,425.3333435058594,430.66668701171875,430.66668701171875,430,430,430,430,430,430,430,430,430,430,426,426,426,426,426,426,426,426,426,426,404.66668701171875,393.3333435058594,364,348.66668701171875,318,269.3333435058594,233.33334350585938,215.33334350585938,178,162,119.33333587646484,97.33333587646484,88,72,64.66667175292969],"ymouse":[800,800,799.3333740234375,799.3333740234375,799.3333740234375,799.3333740234375,799.3333740234375,799.3333740234375,799.3333740234375,799.3333740234375,799.3333740234375,799.3333740234375,799.3333740234375,803.3333740234375,803.3333740234375,803.3333740234375,803.3333740234375,803.3333740234375,803.3333