[{"start_time":1452268414423,"click_time":1452268439247,"finger_time":1452268414428,"fix_duration":1033.829540214383,"trial":0,"RT":5,"MT":24819,"sideResp":1,"stimulus":[],"xmouse":[383,383,383,383,383,383,383,383,383,383,383,383,383,383,383,383,383,383,383,383,383,383,383,383,383,383,383,383,383,383,383,383,383,383,383,383,383,383,383,383,383,383,383,383,383,383,383,383,383,383,383,383,383,383,383,383,383,383,383,383,383,383,383,383,383,383,383,383,383,383,383,383,383,383,383,383,383,383,383,383,383,383,383,383,383,383,383,383,383,383,383,383,383,383,383,383,383,383,383,383,383,383,383,383,383,383,383,383,383,383,383,383,383,383,383,401,401,401,401,401,401,401,401,401,401,401,401,401,401,401,401,401,401,401,401,401,401,401,401,401,401,401,401,401,401,401,401,401,401,401,401,401,401,401,401,401,401,401,401,401,401,401,401,401,401,401,401,401,401,401,401,401,401,401,401,401,401,401,401,401,401,401,401,401,401,401,401,401,401,401,401,401,401,401,401,401,401,401,401,401,401,401,401,401,401,401,401,401,401,401,401,401,401,401,401,401,401,401,401,401,401,401,401,401,401,401,401,401,401,401,401,401,401,401,401,401,401,401,401,401,401,401,401,401,401,401,401,386.66668701171875,386.66668701171875,386.66668701171875,386.66668701171875,386.66668701171875,386.66668701171875,386.66668701171875,386.66668701171875,386.66668701171875,386.66668701171875,386.66668701171875,386.66668701171875,383.3333435058594,383.3333435058594,383.3333435058594,383.3333435058594,383.3333435058594,383.3333435058594,383.3333435058594,383.3333435058594,383.3333435058594,383.3333435058594,382,382,382,382,382,382,382,382,382,382,384,384,384,384,384,384,384,384,384,384,380.66668701171875,380.66668701171875,380.66668701171875,380.66668701171875,380.66668701171875,380.66668701171875,380.66668701171875,380.66668701171875,380.66668701171875,380.66668701171875,386,386,386,386,386,386,388.66668701171875,389.3333435058594,390,390,390.66668701171875,392,392.66668701171875,392.66668701171875,393.3333435058594,393.3333435058594,394.66668701171875,394.66668701171875,395.3333435058594,395.3333435058594,395.3333435058594,396,396,395.3333435058594,395.3333435058594,395.3333435058594,395.3333435058594,395.3333435058594,395.3333435058594,395.3333435058594,395.3333435058594,395.3333435058594,395.3333435058594,395.3333435058594,395.3333435058594,396,397.3333435058594,397.3333435058594,398,398.66668701171875,398.66668701171875,399.3333435058594,400,400,400.66668701171875,401.3333435058594,402.66668701171875,403.3333435058594,404,404.66668701171875,405.3333435058594,406,406.66668701171875,406.66668701171875,406.66668701171875,406,406,404.66668701171875,404.66668701171875,404.66668701171875,404.66668701171875,404.66668701171875,404.66668701171875,404.66668701171875,404.66668701171875,404.66668701171875,404.66668701171875,400,400,400,399.3333435058594,399.3333435058594,396,394.66668701171875,394,393.3333435058594,392.66668701171875,392,392,392,391.3333435058594,390,389.3333435058594,388.66668701171875,388,388,387.3333435058594,386.66668701171875,386.66668701171875,386,386,384.66668701171875,384.66668701171875,384,383.3333435058594,382.66668701171875,380.66668701171875,380.66668701171875,380,379.3333435058594,378.66668701171875,378.66668701171875,378,376.66668701171875,376,374.66668701171875,372.66668701171875,371.3333435058594,370.66668701171875,370,369.3333435058594,369.3333435058594,368.66668701171875,368.66668701171875,368,367.3333435058594,366,365.3333435058594,365.3333435058594,364.66668701171875,364.66668701171875,364,364,364,363.3333435058594,363.3333435058594,363.3333435058594,363.3333435058594,363.3333435058594,363.3333435058594,363.3333435058594,363.3333435058594,363.3333435058594,363.3333435058594,364,364,364,365.3333435058594,366,366,366,366,376.66668701171875,378.66668701171875,383.3333435058594,386,391.3333435058594,399.3333435058594,402.66668701171875,408.66668701171875,410.66668701171875,414,414.66668701171875,416,416.66668701171875,416.66668701171875,416,415.3333435058594,415.3333435058594,415.3333435058594,415.3333435058594,415.3333435058594,415.3333435058594,415.3333435058594,415.3333435058594,415.3333435058594,415.3333435058594,400.66668701171875,400.66668701171875,400.66668701171875,397.3333435058594,397.3333435058594,396,395.3333435058594,394.66668701171875,394,394,394,393.3333435058594,393.3333435058594,393.3333435058594,393.3333435058594,394,394,394,394,394,394,394,394,394,394,394.66668701171875,394.66668701171875,394.66668701171875,394.66668701171875,394.66668701171875,394.66668701171875,394.66668701171875,394.66668701171875,394.66668701171875,394.66668701171875,394.66668701171875,394.66668701171875,394.66668701171875,394.66668701171875,394.66668701171875,394,394,394,394,394,394,394,394,393.3333435058594,393.3333435058594,393.3333435058594,393.3333435058594,393.3333435058594,393.3333435058594,393.3333435058594,393.3333435058594,393.3333435058594,392.66668701171875,392.66668701171875,392.66668701171875,392.66668701171875,392.66668701171875,392.66668701171875,392.66668701171875,392.66668701171875,392.66668701171875,392.66668701171875,392,392,392,392,392,391.3333435058594,391.3333435058594,391.3333435058594,391.3333435058594,390,389.3333435058594,388.66668701171875,388.66668701171875,388,388,387.3333435058594,387.3333435058594,387.3333435058594,387.3333435058594,387.3333435058594,387.3333435058594,387.3333435058594,387.3333435058594,387.3333435058594,387.3333435058594,387.3333435058594,387.3333435058594,387.3333435058594,388,388,388,388,388,388,388,388,388,388,388.66668701171875,388.66668701171875,388.66668701171875,388.66668701171875,388.66668701171875,388.66668701171875,388.66668701171875,388.66668701171875,388.66668701171875,388.66668701171875,389.3333435058594,389.3333435058594,389.3333435058594,389.3333435058594,389.3333435058594,389.3333435058594,389.3333435058594,389.3333435058594,389.3333435058594,389.3333435058594,392,392,392,392,392,392,392,392,392,392,392.66668701171875,392.66668701171875,392.66668701171875,392.66668701171875,392.66668701171875,392.66668701171875,392.66668701171875,392.66668701171875,392.66668701171875,392.66668701171875,392.66668701171875,392.66668701171875,392.66668701171875,392.66668701171875,392.66668701171875,392.66668701171875,392.66668701171875,392.66668701171875,392.66668701171875,392.66668701171875,392.66668701171875,392.66668701171875,392.66668701171875,392.66668701171875,392.66668701171875,392.66668701171875,393.3333435058594,393.3333435058594,393.3333435058594,393.3333435058594,393.3333435058594,393.3333435058594,393.3333435058594,393.3333435058594,393.3333435058594,393.3333435058594,394,394,394,394,394,394,394,394,394,394,393.3333435058594,393.3333435058594,393.3333435058594,393.3333435058594,393.3333435058594,393.3333435058594,393.3333435058594,393.3333435058594,393.3333435058594,393.3333435058594,393.3333435058594,393.3333435058594,393.3333435058594,393.3333435058594,393.3333435058594,393.3333435058594,393.3333435058594,393.3333435058594,393.3333435058594,403.3333435058594,403.3333435058594,403.3333435058594,403.3333435058594,403.3333435058594,403.3333435058594,403.3333435058594,403.3333435058594,403.3333435058594,403.3333435058594,403.3333435058594,402.66668701171875,402.66668701171875,402.66668701171875,402.66668701171875,402.66668701171875,402.66668701171875,402.66668701171875,402.66668701171875,402.66668701171875,402.66668701171875,401.3333435058594,401.3333435058594,401.3333435058594,401.3333435058594,401.3333435058594,401.3333435058594,401.3333435058594,401.3333435058594,401.3333435058594,401.3333435058594,400,400,400,400,400,400,400,400,400,400,400,400,400,400,400,400,400,400,400,400,399.3333435058594,399.3333435058594,399.3333435058594,399.3333435058594,399.3333435058594,399.3333435058594,399.3333435058594,399.3333435058594,399.3333435058594,399.3333435058594,397.3333435058594,397.3333435058594,397.3333435058594,397.3333435058594,397.3333435058594,397.3333435058594,397.3333435058594,397.3333435058594,397.3333435058594,397.3333435058594,394.66668701171875,394,394,394,394,394,394,394,394,394,394,394,394,394,394,394,393.3333435058594,393.3333435058594,393.3333435058594,393.3333435058594,394,394,394,394,394,394,394,394,394,394,396.66668701171875,396.66668701171875,396.66668701171875,396.66668701171875,396.66668701171875,396.66668701171875,396.66668701171875,396.66668701171875,396.66668701171875,396.66668701171875,404,404,405.3333435058594,406,406.66668701171875,408,410,410.66668701171875,412.66668701171875,414,414,415.3333435058594,416,416,416,416,416,416,416,416,416,416,416,416,416,416,416,416,416,416,390,390,390,390,390,390,390,390,390,390,390,388.66668701171875,388.66668701171875,388.66668701171875,388.66668701171875,388.66668701171875,388.66668701171875,388.66668701171875,388.66668701171875,388.66668701171875,388.66668701171875,393.3333435058594,393.3333435058594,393.3333435058594,393.3333435058594,393.3333435058594,393.3333435058594,393.3333435058594,393.3333435058594,393.3333435058594,393.3333435058594,392,392,392,392,392,392,392,392,392,392,392,390,390,390,390,390,390,390,390,390,391.3333435058594,391.3333435058594,391.3333435058594,391.3333435058594,391.3333435058594,391.3333435058594,391.3333435058594,391.3333435058594,391.3333435058594,391.3333435058594,391.3333435058594,394,394,394,394,394,394,394,394,394,394,393.3333435058594,393.3333435058594,393.3333435058594,393.3333435058594,393.3333435058594,393.3333435058594,393.3333435058594,393.3333435058594,393.3333435058594,393.3333435058594,389.3333435058594,389.3333435058594,389.3333435058594,389.3333435058594,389.3333435058594,389.3333435058594,389.3333435058594,389.3333435058594,389.3333435058594,389.3333435058594,386,386,386,386,386,386,386,386,386,386,384.66668701171875,384.66668701171875,384.66668701171875,384.66668701171875,384.66668701171875,382,382,382,382,382.66668701171875,382.66668701171875,383.3333435058594,383.3333435058594,384,384.66668701171875,385.3333435058594,385.3333435058594,385.3333435058594,385.3333435058594,385.3333435058594,385.3333435058594,385.3333435058594,385.3333435058594,384.66668701171875,384.66668701171875,384.66668701171875,384.66668701171875,384.66668701171875,384.66668701171875,384.66668701171875,384.66668701171875,384.66668701171875,384.66668701171875,384.66668701171875,384.66668701171875,384.66668701171875,384.66668701171875,388,388,388,388,388,388,388,388,388,388,386,386,386,386,386,386,386,386,386,386,386.66668701171875,386.66668701171875,386.66668701171875,389.3333435058594,389.3333435058594,389.3333435058594,389.3333435058594,389.3333435058594,389.3333435058594,389.3333435058594,389.3333435058594,389.3333435058594,389.3333435058594,389.3333435058594,389.3333435058594,389.3333435058594,389.3333435058594,389.3333435058594,389.3333435058594,389.3333435058594,389.3333435058594,389.3333435058594,389.3333435058594,406.66668701171875,404.66668701171875,404.66668701171875,404.66668701171875,404.66668701171875,404.66668701171875,404.66668701171875,404.66668701171875,404.66668701171875,404.66668701171875,404.66668701171875,388.66668701171875,388.66668701171875,388.66668701171875,388.66668701171875,388.66668701171875,388.66668701171875,388.66668701171875,388.66668701171875,388.66668701171875,388.66668701171875,412.66668701171875,415.3333435058594,417.3333435058594,416.66668701171875,416.66668701171875,416.66668701171875,416.66668701171875,416.66668701171875,416.66668701171875,416.66668701171875,392,392,392,392,392,404,404,404,404,404,390,390,390,390,390,390,390,390,390,390,394.66668701171875,394.66668701171875,394.66668701171875,394.66668701171875,394.66668701171875,394.66668701171875,394.66668701171875,394.66668701171875,394.66668701171875,394.66668701171875,398.66668701171875,398.66668701171875,398.66668701171875,398.66668701171875,398.66668701171875,398.66668701171875,398.66668701171875,398.66668701171875,398.66668701171875,398.66668701171875,397.3333435058594,397.3333435058594,398,398,398,398,398,398,398,398,396,396,398,398,398,398,398,398,398,398,398,398,399.3333435058594,399.3333435058594,399.3333435058594,399.3333435058594,399.3333435058594,399.3333435058594,399.3333435058594,399.3333435058594,399.3333435058594,399.3333435058594,395.3333435058594,395.3333435058594,395.3333435058594,398.66668701171875,398.66668701171875,398.66668701171875,398.66668701171875,398.66668701171875,398.66668701171875,398.66668701171875,398,398,398,398,398,398,398,398,398,398,397.3333435058594,397.3333435058594,397.3333435058594,397.3333435058594,397.3333435058594,397.3333435058594,397.3333435058594,397.3333435058594,397.3333435058594,397.3333435058594,398,398,398,398,398,398,398,398,398,398,401.3333435058594,401.3333435058594,401.3333435058594,401.3333435058594,401.3333435058594,401.3333435058594,401.3333435058594,401.3333435058594,401.3333435058594,401.3333435058594,406,406,409.3333435058594,410.66668701171875,410,410,410,410,410,410,410,410.66668701171875,410.66668701171875,410.66668701171875,410.66668701171875,410.66668701171875,410.66668701171875,410.66668701171875,410.66668701171875,405.3333435058594,405.3333435058594,405.3333435058594,405.3333435058594,405.3333435058594,405.3333435058594,405.3333435058594,404.66668701171875,404.66668701171875,404.66668701171875,404.66668701171875,404.66668701171875,404.66668701171875,404.66668701171875,404.66668701171875,404.66668701171875,404.66668701171875,404.66668701171875,404.66668701171875,404.66668701171875,404.66668701171875,404.66668701171875,404.66668701171875,404.66668701171875,404.66668701171875,404.66668701171875,404.66668701171875,404.66668701171875,404.66668701171875,404.66668701171875,404.66668701171875,404.66668701171875,404.66668701171875,404.66668701171875,404.66668701171875,404.66668701171875,404.66668701171875,404.66668701171875,404.66668701171875,404.66668701171875,404.66668701171875,404.66668701171875,404.66668701171875,404.66668701171875,404.66668701171875,404.66668701171875,404.66668701171875,404.66668701171875,404.66668701171875,404.66668701171875,384,378.66668701171875,362,350,329.3333435058594,306,298.66668701171875,284.66668701171875,269.3333435058594,261.3333435058594,239.33334350585938,224,215.33334350585938,197.33334350585938,188.6666717529297,162,146.6666717529297,140,129.33334350585938,123.33334350585938,108,98,94,88.66667175292969,86,81.33333587646484,78.66667175292969,77.33333587646484,74.66667175292969,73.33333587646484,69.33333587646484],"ymouse":[566,566,566,566,566,566,566,566,566,566,566,566,566,566,566,566,566,566,566,566,566,566,566,566,566,566,566,566,566,566,566,566,566,566,566,566,566,566,566,566,566,566,566,566,566,566,566,566,566,566,566,566,566,566,566,566,566,566,566,566,566,566,566,566,566,566,566,566,566,566,566,566,566,566,566,566,566,566,566,566,566,566,566,566,566,566,566,566,566,566,566,566,566,566,566,566,566,566,566,566,566,566,566,566,566,566,566,566,566,566,566,566,566,566,566,810,810,810,810,810,810,810,810,810,810,810,810,810,810,810,810,810,810,810,810,810,810,810,810,810,810,810,810,810,810,810,810,810,810,810,810,810,810,810,810,810,810,810,810,810,810,810,810,810,810,810,810,810,810,810,810,810,810,810,810,810,810,810,810,810,810,810,810,810,810,810,810,810,810,810,810,810,810,810,810,810,810,810,810,810,810,810,810,810,810,810,810,810,810,810,810,810,810,810,810,810,810,810,810,810,810,810,810,810,810,810,810,810,810,810,810,810,810,810,810,810,810,810,810,810,810,810,810,810,810,810,810,802,802,801.3333740234375,801.3333740234375,801.3333740234375,801.3333740234375,801.3333740234375,801.3333740234375,801.3333740234375,801.3333740234375,801.3333740234375,801.3333740234375,793.3333740234375,793.3333740234375,793.3333740234375,793.3333740234375,793.3333740234375,793.3333740234375,793.3333740234375,793.3333740234375,793.3333740234375,793.3333740234375,787.3333740234375,787.3333740234375,787.3333740234375,787.3333740234375,787.3333740234375,787.3333740234375,787.3333740234375,787.3333740234375,787.3333740234375,787.3333740234375,786.6666870117188,786.6666870117188,786.6666870117188,786.6666870117188,786.6666870117188,786.6666870117188,786.6666870117188,786.6666870117188,786.6666870117188,786.6666870117188,790.6666870117188,790.6666870117188,790.6666870117188,790.6666870117188,790.6666870117188,790.6666870117188,790.6666870117188,790.6666870117188,790.6666870117188,790.6666870117188,800.6666870117188,800.6666870117188,800.6666870117188,800.6666870117188,800.6666870117188,800.6666870117188,804,804,804.6666870117188,805.3333740234375,806,806.6666870117188,807.3333740234375,808,808.6666870117188,810,812.6666870117188,813.3333740234375,815.3333740234375,816,817.3333740234375,818.6666870117188,819.3333740234375,820,820,821.3333740234375,821.3333740234375,821.3333740234375,821.3333740234375,821.3333740234375,821.3333740234375,821.3333740234375,821.3333740234375,821.3333740234375,821.3333740234375,833.3333740234375,836.6666870117188,838,841.3333740234375,844,845.3333740234375,849.3333740234375,852.6666870117188,854,858,859.3333740234375,864.6666870117188,868,869.3333740234375,871.3333740234375,872.6666870117188,876,876.6666870117188,877.3333740234375,878,878,878,878.6666870117188,878.6666870117188,878.6666870117188,878.6666870117188,878.6666870117188,878.6666870117188,878.6666870117188,878.6666870117188,878.6666870117188,878.6666870117188,861.3333740234375,860,856.6666870117188,854.6666870117188,854.6666870117188,840.6666870117188,834,830.6666870117188,823.3333740234375,810.6666870117188,806,796.6666870117188,791.3333740234375,782,769.3333740234375,766,758.6666870117188,755.3333740234375,748.6666870117188,738.6666870117188,734.6666870117188,728,724,717.3333740234375,708,704.6666870117188,699.3333740234375,696.6666870117188,692,683.3333740234375,680.6666870117188,675.3333740234375,672.6666870117188,667.3333740234375,664,654,647.3333740234375,644,637.3333740234375,626,616.6666870117188,610.6666870117188,598,588.6666870117188,570,556,549.3333740234375,538,532,516,504,497.3333740234375,484.66668701171875,478,460,450.66668701171875,447.3333435058594,442.66668701171875,442,442,442.66668701171875,442.66668701171875,442.66668701171875,442.66668701171875,442.66668701171875,442.66668701171875,460.66668701171875,464.66668701171875,464.66668701171875,472.66668701171875,490.66668701171875,502,502,502,502,624.6666870117188,639.3333740234375,667.3333740234375,682,709.3333740234375,746.6666870117188,758.6666870117188,780.6666870117188,789.3333740234375,806,819.3333740234375,825.3333740234375,828,830.6666870117188,832,833.3333740234375,833.3333740234375,833.3333740234375,833.3333740234375,833.3333740234375,833.3333740234375,833.3333740234375,833.3333740234375,833.3333740234375,833.3333740234375,820,820,820,814.6666870117188,814,812.6666870117188,811.3333740234375,810.6666870117188,810.6666870117188,810,810,810,809.3333740234375,810,810,810,810,810,810,810,810,810,810,810,810,809.3333740234375,809.3333740234375,809.3333740234375,809.3333740234375,809.3333740234375,809.3333740234375,809.3333740234375,809.3333740234375,809.3333740234375,809.3333740234375,808.6666870117188,808.6666870117188,808.6666870117188,808.6666870117188,808.6666870117188,808.6666870117188,808.6666870117188,808.6666870117188,808.6666870117188,808.6666870117188,808.6666870117188,808,808,808,808,808,808,808,808,808,808,806.6666870117188,806.6666870117188,806.6666870117188,806.6666870117188,806.6666870117188,806.6666870117188,806.6666870117188,806.6666870117188,806.6666870117188,807.3333740234375,807.3333740234375,807.3333740234375,807.3333740234375,807.3333740234375,807.3333740234375,807.3333740234375,806.6666870117188,806.6666870117188,806.6666870117188,806.6666870117188,806,805.3333740234375,804.6666870117188,804.6666870117188,804,803.3333740234375,803.3333740234375,803.3333740234375,803.3333740234375,803.3333740234375,803.3333740234375,803.3333740234375,803.3333740234375,803.3333740234375,803.3333740234375,804,804,804,804,804,804,804,804,804,804,804,804,804,804,804,804,804,804,804,804,804,804,804,804,804.6666870117188,804.6666870117188,804.6666870117188,804.6666870117188,804.6666870117188,804.6666870117188,804.6666870117188,804.6666870117188,804.6666870117188,804.6666870117188,806,806,806,806,806,806,806,806,806,806,805.3333740234375,805.3333740234375,805.3333740234375,805.3333740234375,805.3333740234375,805.3333740234375,805.3333740234375,802,802,801.3333740234375,801.3333740234375,800.6666870117188,800.6666870117188,800.6666870117188,800,800,800,799.3333740234375,799.3333740234375,799.3333740234375,799.3333740234375,799.3333740234375,799.3333740234375,799.3333740234375,799.3333740234375,800,801.3333740234375,801.3333740234375,801.3333740234375,801.3333740234375,801.3333740234375,801.3333740234375,801.3333740234375,801.3333740234375,801.3333740234375,801.3333740234375,805.3333740234375,805.3333740234375,805.3333740234375,805.3333740234375,805.3333740234375,805.3333740234375,805.3333740234375,805.3333740234375,805.3333740234375,805.3333740234375,798,798,798,798,798,798,798,798,798,798,798,798,798,798,798,798,798,798,798,808,809.3333740234375,809.3333740234375,809.3333740234375,809.3333740234375,809.3333740234375,809.3333740234375,809.3333740234375,809.3333740234375,809.3333740234375,809.3333740234375,821.3333740234375,821.3333740234375,821.3333740234375,821.3333740234375,821.3333740234375,821.3333740234375,821.3333740234375,821.3333740234375,821.3333740234375,821.3333740234375,822,822,822,822,822,822,822,822,822,822,822,822,822,822,822,822,822,822,822,822,818.6666870117188,818.6666870117188,818.6666870117188,818.6666870117188,818.6666870117188,818.6666870117188,818.6666870117188,818.6666870117188,818.6666870117188,818.6666870117188,822,822,822,822,822,822,822,822,822,822,818.6666870117188,818.6666870117188,818.6666870117188,818.6666870117188,818.6666870117188,818.6666870117188,818.6666870117188,818.6666870117188,818.6666870117188,818.6666870117188,807.3333740234375,806.6666870117188,806.6666870117188,806.6666870117188,807.3333740234375,807.3333740234375,807.3333740234375,807.3333740234375,807.3333740234375,807.3333740234375,811.3333740234375,811.3333740234375,811.3333740234375,811.3333740234375,811.3333740234375,811.3333740234375,814,814,814,814,813.3333740234375,813.3333740234375,813.3333740234375,813.3333740234375,813.3333740234375,813.3333740234375,813.3333740234375,813.3333740234375,813.3333740234375,813.3333740234375,814,814,814,814,814,814,814,814,814,814,821.3333740234375,821.3333740234375,829.3333740234375,837.3333740234375,842,852,864.6666870117188,867.3333740234375,871.3333740234375,872.6666870117188,872.6666870117188,870,868,868,868,868,868,868,868,868,868,868,868,868,868,868,868,868,868,868,824.6666870117188,826,826,826,826,826,826,826,826,826,826,830,830,830,830,830,830,830,830,830,830,831.3333740234375,831.3333740234375,831.3333740234375,831.3333740234375,831.3333740234375,831.3333740234375,831.3333740234375,831.3333740234375,831.3333740234375,831.3333740234375,830.6666870117188,830.6666870117188,830.6666870117188,830.6666870117188,830.6666870117188,830.6666870117188,830.6666870117188,830.6666870117188,830.6666870117188,830.6666870117188,830.6666870117188,828.6666870117188,828.6666870117188,828.6666870117188,828.6666870117188,828.6666870117188,828.6666870117188,828.6666870117188,828.6666870117188,828.6666870117188,827.3333740234375,827.3333740234375,827.3333740234375,827.3333740234375,827.3333740234375,827.3333740234375,827.3333740234375,827.3333740234375,827.3333740234375,827.3333740234375,827.3333740234375,828.6666870117188,828.6666870117188,828.6666870117188,828.6666870117188,828.6666870117188,828.6666870117188,828.6666870117188,828.6666870117188,828.6666870117188,828.6666870117188,827.3333740234375,827.3333740234375,827.3333740234375,827.3333740234375,827.3333740234375,827.3333740234375,827.3333740234375,827.3333740234375,827.3333740234375,827.3333740234375,828,828,828,828,828,828,828,828,828,828,834,834,834,834,834,834,834,834,834,834,825.3333740234375,825.3333740234375,825.3333740234375,825.3333740234375,825.3333740234375,822.6666870117188,822.6666870117188,822.6666870117188,822.6666870117188,822.6666870117188,822,821.3333740234375,821.3333740234375,820.6666870117188,820,820.6666870117188,821.3333740234375,821.3333740234375,821.3333740234375,821.3333740234375,821.3333740234375,821.3333740234375,821.3333740234375,837.3333740234375,838,838,838,838,838,838,838,838,838,838,838,838,838,827.3333740234375,827.3333740234375,827.3333740234375,827.3333740234375,827.3333740234375,827.3333740234375,827.3333740234375,827.3333740234375,827.3333740234375,827.3333740234375,829.3333740234375,829.3333740234375,829.3333740234375,829.3333740234375,829.3333740234375,829.3333740234375,829.3333740234375,829.3333740234375,829.3333740234375,829.3333740234375,826.6666870117188,826.6666870117188,826.6666870117188,820,820,820,820,820,820,820,820,820,820,820,820,820,820,820,820,820,820,820,820,819.3333740234375,820,820,820,820,820,820,820,820,820,820,823.3333740234375,823.3333740234375,823.3333740234375,823.3333740234375,823.3333740234375,823.3333740234375,823.3333740234375,823.3333740234375,823.3333740234375,823.3333740234375,816.6666870117188,816.6666870117188,816.6666870117188,818,818,818,818,818,818,818,825.3333740234375,825.3333740234375,825.3333740234375,825.3333740234375,825.3333740234375,824,824,824,824,824,826.6666870117188,826.6666870117188,826.6666870117188,826.6666870117188,826.6666870117188,826.6666870117188,826.6666870117188,826.6666870117188,826.6666870117188,826.6666870117188,830,830,830,830,830,830,830,830,830,830,832.6666870117188,832.6666870117188,832.6666870117188,832.6666870117188,832.6666870117188,832.6666870117188,832.6666870117188,832.6666870117188,832.6666870117188,832.6666870117188,830.6666870117188,830,829.3333740234375,829.3333740234375,829.3333740234375,829.3333740234375,829.3333740234375,829.3333740234375,829.3333740234375,829.3333740234375,828,828,827.3333740234375,827.3333740234375,827.3333740234375,827.3333740234375,827.3333740234375,827.3333740234375,827.3333740234375,827.3333740234375,827.3333740234375,827.3333740234375,824.6666870117188,824.6666870117188,824.6666870117188,824.6666870117188,824.6666870117188,824.6666870117188,824.6666870117188,824.6666870117188,824.6666870117188,824.6666870117188,823.3333740234375,823.3333740234375,823.3333740234375,822,822,822,822,822,822,822,822.6666870117188,822.6666870117188,822.6666870117188,822.6666870117188,822.6666870117188,822.6666870117188,822.6666870117188,822.6666870117188,822.6666870117188,822.6666870117188,820,820,820,820,820,820,820,820,820,820,820,820,820,820,820,820,820,820,820,820,818.6666870117188,818.6666870117188,818.6666870117188,818.6666870117188,818.6666870117188,818.6666870117188,818.6666870117188,818.6666870117188,818.6666870117188,818.6666870117188,816.6666870117188,816.6666870117188,812.6666870117188,810.6666870117188,810.6666870117188,810.6666870117188,810.6666870117188,810.6666870117188,810.6666870117188,810.6666870117188,810.6666870117188,814.6666870117188,814.6666870117188,814.6666870117188,814.6666870117188,814.6666870117188,814.6666870117188,814.6666870117188,814.6666870117188,806.6666870117188,806.6666870117188,807.3333740234375,807.3333740234375,807.3333740234375,807.3333740234375,807.3333740234375,803.3333740234375,803.3333740234375,803.3333740234375,803.3333740234375,803.3333740234375,803.3333740234375,803.3333740234375,803.3333740234375,803.3333740234375,803.3333740234375,803.3333740234375,803.3333740234375,803.3333740234375,803.3333740234375,803.3333740234375,803.3333740234375,803.3333740234375,803.3333740234375,803.3333740234375,803.3333740234375,803.3333740234375,803.3333740234375,803.3333740234375,803.3333740234375,803.3333740234375,803.3333740234375,803.3333740234375,803.3333740234375,803.3333740234375,803.3333740234375,803.3333740234375,803.3333740234375,803.3333740234375,803.3333740234375,803.3333740234375,803.3333740234375,803.3333740234375,803.3333740234375,803.3333740234375,803.3333740234375,803.3333740234375,803.3333740234375,803.3333740234375,833.3333740234375,822.6666870117188,792.6666870117188,773.3333740234375,737.3333740234375,685.3333740234375,667.3333740234375,631.3333740234375,594.6666870117188,578.6666870117188,523.3333740234375,485.3333435058594,465.3333435058594,426,406,348.66668701171875,313.3333435058594,296.66668701171875,266.66668701171875,252.66668701171875,212,187.33334350585938,176.6666717529297,158.6666717529297,150.6666717529297,133.33334350585938,123.33334350585938,118,109.33333587646484,106,96],"timestamp_mouse":[5,21,42,61,82,101,121,141,161,181,201,221,242,261,281,302,322,341,362,381,401,422,441,461,481,501,521,541,562,582,601,622,642,661,681,702,721,741,762,781,802,822,841,861,882,902,921,942,961,982,1002,1021,1042,1062,1081,1102,1122,1141,1162,1181,1201,1222,1241,1261,1281,1302,1321,1341,1362,1382,1401,1421,1442,1461,1481,1501,1521,1541,1561,1582,1601,1622,1642,1661,1682,1701,1722,1741,1762,1781,1802,1821,1841,1861,1881,1901,1922,1941,1961,1982,2001,2021,2042,2061,2082,2101,2121,2142,2161,2181,2201,2222,2241,2261,2281,2302,2321,2341,2361,2381,2401,2421,2442,2461,2481,2502,2521,2542,2561,2581,2601,2621,2642,2662,2681,2702,2721,2741,2762,2781,2801,2822,2841,2861,2882,2902,2921,2942,2961,2982,3001,3021,3041,3061,3082,3101,3122,3141,3162,3181,3201,3221,3241,3261,3281,3302,3321,3341,3361,3382,3401,3421,3441,3461,3481,3501,3522,3542,3561,3582,3602,3621,3642,3661,3681,3701,3721,3742,3761,3781,3801,3822,3841,3861,3881,3901,3921,3941,3961,3981,4001,4021,4042,4061,4081,4102,4122,4142,4161,4181,4201,4222,4241,4261,4282,4302,4321,4341,4361,4382,4401,4422,4441,4461,4481,4501,4521,4541,4561,4581,4601,4621,4642,4661,4682,4701,4722,4742,4761,4781,4801,4821,4841,4861,4881,4901,4921,4942,4961,4981,5001,5021,5041,5061,5081,5102,5121,5141,5162,5182,5202,5221,5241,5261,5283,5302,5322,5341,5362,5381,5401,5422,5441,5461,5483,5501,5521,5541,5561,5581,5602,5621,5641,5662,5681,5701,5721,5742,5761,5781,5801,5821,5842,5861,5882,5901,5921,5942,5962,5982,6002,6021,6041,6061,6081,6102,6121,6142,6162,6181,6201,6221,6243,6262,6282,6302,6321,6341,6361,6381,6402,6422,6441,6461,6482,6501,6521,6541,6562,6581,6601,6621,6641,6661,6681,6702,6722,6741,6761,6781,6801,6821,6841,6861,6881,6902,6921,6941,6962,6981,7004,7021,7041,7061,7081,7102,7121,7141,7161,7181,7202,7221,7241,7261,7281,7302,7322,7342,7361,7381,7402,7421,7441,7461,7481,7503,7521,7541,7561,7581,7602,7621,7642,7661,7681,7703,7721,7741,7761,7781,7804,7821,7842,7861,7881,7903,7922,7942,7961,7981,8001,8021,8041,8061,8081,8103,8121,8142,8161,8181,8203,8221,8241,8262,8282,8303,8322,8341,8361,8382,8403,8422,8441,8461,8482,8502,8522,8542,8562,8582,8601,8621,8642,8661,8682,8702,8723,8741,8761,8781,8802,8822,8842,8861,8881,8901,8922,8941,8961,8982,9001,9022,9042,9061,9082,9102,9122,9141,9161,9181,9202,9222,9241,9262,9281,9302,9323,9342,9361,9381,9402,9421,9441,9461,9482,9501,9522,9542,9561,9581,9601,9623,9641,9661,9681,9702,9721,9741,9762,9781,9801,9824,9841,9861,9881,9901,9921,9942,9961,9982,10001,10021,10041,10062,10081,10101,10122,10142,10162,10181,10202,10221,10241,10262,10282,10301,10321,10342,10362,10381,10401,10421,10441,10461,10482,10502,10522,10541,10561,10581,10601,10623,10641,10662,10682,10701,10722,10741,10761,10781,10801,10821,10841,10861,10882,10901,10921,10942,10961,10982,11001,11021,11041,11062,11081,11101,11122,11141,11161,11182,11202,11221,11242,11262,11282,11302,11321,11341,11362,11382,11402,11422,11441,11461,11482,11502,11521,11542,11561,11581,11601,11621,11641,11661,11681,11702,11722,11742,11761,11781,11801,11821,11841,11861,11881,11901,11921,11941,11962,11981,12001,12022,12041,12061,12081,12101,12121,12141,12162,12181,12201,12221,12241,12261,12282,12302,12321,12341,12363,12381,12401,12421,12441,12462,12482,12501,12521,12544,12561,12581,12602,12621,12642,12661,12681,12701,12722,12742,12762,12781,12801,12821,12842,12861,12881,12901,12921,12945,12962,12981,13002,13022,13041,13061,13082,13101,13121,13141,13161,13181,13202,13221,13241,13261,13281,13302,13321,13341,13361,13382,13401,13421,13442,13461,13481,13502,13522,13542,13561,13581,13602,13621,13641,13661,13682,13701,13721,13741,13761,13781,13801,13821,13841,13861,13881,13902,13922,13941,13961,13981,14001,14021,14042,14061,14082,14102,14121,14144,14161,14181,14201,14221,14241,14262,14281,14301,14322,14342,14361,14382,14401,14421,14442,14462,14481,14501,14522,14542,14561,14582,14601,14621,14641,14661,14682,14701,14721,14742,14762,14781,14802,14821,14842,14862,14882,14901,14921,14942,14963,14981,15001,15021,15041,15061,15081,15101,15121,15141,15161,15181,15202,15222,15241,15261,15282,15302,15321,15341,15361,15382,15401,15422,15442,15462,15481,15501,15521,15542,15561,15581,15601,15622,15641,15661,15681,15702,15721,15742,15764,15782,15801,15821,15841,15862,15882,15901,15921,15941,15961,15981,16002,16021,16041,16061,16081,16101,16122,16141,16164,16181,16201,16221,16241,16261,16282,16301,16322,16341,16365,16381,16401,16422,16442,16461,16481,16502,16521,16541,16568,16581,16601,16621,16642,16661,16681,16702,16721,16741,16763,16781,16801,16821,16842,16862,16882,16901,16921,16942,16961,16982,17001,17021,17041,17062,17082,17101,17121,17141,17164,17181,17201,17222,17241,17261,17281,17301,17321,17342,17361,17382,17402,17421,17441,17461,17481,17502,17521,17541,17561,17581,17601,17622,17642,17661,17682,17701,17721,17741,17761,17782,17801,17821,17841,17862,17882,17902,17922,17941,17961,17982,18002,18021,18042,18062,18082,18101,18121,18141,18162,18181,18201,18221,18241,18261,18282,18301,18322,18341,18362,18381,18402,18422,18442,18461,18481,18501,18521,18541,18561,18583,18601,18621,18641,18661,18684,18702,18721,18741,18762,18782,18802,18821,18841,18862,18881,18901,18921,18941,18961,18981,19001,19022,19042,19062,19081,19102,19122,19142,19162,19182,19201,19222,19241,19261,19282,19302,19321,19342,19362,19382,19401,19421,19441,19462,19482,19502,19522,19541,19562,19581,19601,19622,19641,19662,19681,19701,19721,19741,19761,19782,19802,19822,19841,19862,19882,19901,19922,19942,19962,19981,20002,20021,20042,20062,20083,20101,20121,20141,20161,20182,20201,20222,20241,20262,20281,20301,20321,20341,20362,20382,20401,20421,20442,20462,20482,20503,20521,20541,20562,20581,20603,20622,20641,20661,20681,20701,20722,20742,20762,20781,20803,20821,20841,20862,20881,20902,20922,20941,20962,20981,21005,21021,21041,21061,21081,21101,21121,21141,21161,21181,21202,21222,21242,21261,21282,21302,21321,21342,21361,21382,21403,21421,21442,21461,21481,21501,21522,21542,21561,21581,21602,21621,21642,21661,21681,21701,21721,21741,21762,21781,21801,21821,21842,21861,21881,21905,21922,21941,21961,21982,22002,22021,22042,22061,22081,22101,22121,22141,22162,22181,22202,22222,22241,22261,22281,22304,22321,22341,22361,22381,22403,22421,22442,22461,22481,22502,22522,22542,22561,22581,22601,22621,22641,22661,22681,22701,22723,22741,22762,22782,22801,22823,22842,22862,22882,22902,22921,22941,22961,22982,23001,23022,23042,23062,23082,23101,23122,23141,23161,23181,23201,23222,23241,23261,23282,23302,23321,23341,23361,23382,23401,23421,23442,23462,23481,23502,23521,23541,23561,23582,23601,23622,23642,23661,23681,23702,23722,23741,23762,23781,23802,23821,23841,23862,23882,23901,23921,23942,23961,23981,24002,24022,24041,24061,24081,24102,24121,24141,24161,24181,24201,24222,24241,24261,24281,24302,24322,24342,24361,24381,24401,24422,24442,24461,24481,24502,24522,24541,24561,24581,24601,24622,24642,24661,24681,24702,24723,24741,24761,24781,24801,24824],"xSR":350,"ySR":508.79999999999995,"xT1":30,"yT1":0,"xT2":670,"yT2":0,"toosoon":0,"cond_shown":"Incongruent","ratio_trial":300,"L_num":4,"L_den":5,"R_num":6,"R_den":12,"correct_side":1,"subjID":"14","gender":"No_gender","age":"No_age","school":"No_school","test":{"fix_dur":[250,1500],"timestim":900,"targets_dim":[100,100],"targets_relative_coord":[0.1,0.9],"size_stim":[880,420],"start_dim":[100,100],"size_start":[300,300],"size_fix":60,"samplingrate":20,"img_types":["Congruent","Incongruent","Equal"],"ratios":[100,200,300,500],"rep_conds":15,"nTrials":192,"trials_to_rest":500,"Trials_order":[19,13,189,110,46,59,95,29,168,172,188,37,48,28,42,100,68,129,0,11,96,65,97,2,72,121,182,109,149,190,104,17,124,181,56,24,162,160,155,145,134,63,174,141,112,136,142,85,103,138,117,185,70,16,128,108,49,88,116,133,120,33,55,152,80,39,89,32,107,34,126,175,9,69,161,114,40,35,44,52,151,184,146,60,41,93,131,165,148,154,58,84,169,43,22,74,111,30,122,125,177,31,137,176,90,71,51,10,7,76,91,64,75,21,106,86,173,140,139,38,183,47,79,166,158,92,171,180,67,99,87,135,123,54,12,127,143,5,119,14,102,144,20,159,36,73,26,77,179,105,147,83,153,94,62,66,78,18,61,164,163,118,187,132,8,3,157,1,167,23,170,156,27,25,130,98,115,186,81,53,113,150,178,191,82,50,101,6,45,57,15,4],"cond_shown":["Incongruent","Incongruent","Congruent","Equal","Incongruent","Equal","Equal","Equal","Congruent","Incongruent","Equal","Incongruent","Congruent","Incongruent","Congruent","Incongruent","Equal","Congruent","Congruent","Equal","Congruent","Equal","Incongruent","Equal","Congruent","Incongruent","Equal","Incongruent","Equal","Incongruent","Equal","Equal","Incongruent","Incongruent","Equal","Congruent","Congruent","Incongruent","Equal","Incongruent","Equal","Congruent","Congruent","Congruent","Incongruent","Incongruent","Incongruent","Incongruent","Incongruent","Congruent","Congruent","Equal","Incongruent","Incongruent","Equal","Congruent","Incongruent","Incongruent","Equal","Incongruent","Congruent","Congruent","Incongruent","Equal","Equal","Congruent","Equal","Equal","Equal","Incongruent","Congruent","Incongruent","Congruent","Congruent","Equal","Congruent","Incongruent","Equal","Equal","Incongruent","Incongruent","Incongruent","Equal","Congruent","Equal","Congruent","Equal","Congruent","Incongruent","Incongruent","Incongruent","Congruent","Incongruent","Incongruent","Incongruent","Equal","Congruent","Congruent","Equal","Equal","Congruent","Incongruent","Equal","Equal","Congruent","Equal","Congruent","Incongruent","Incongruent","Incongruent","Incongruent","Incongruent","Congruent","Congruent","Incongruent","Equal","Equal","Equal","Incongruent","Equal","Congruent","Equal","Incongruent","Incongruent","Equal","Equal","Congruent","Congruent","Incongruent","Congruent","Congruent","Congruent","Congruent","Congruent","Congruent","Incongruent","Equal","Equal","Equal","Equal","Congruent","Congruent","Equal","Congruent","Congruent","Incongruent","Equal","Equal","Equal","Congruent","Congruent","Equal","Congruent","Incongruent","Equal","Congruent","Congruent","Congruent","Incongruent","Equal","Incongruent","Incongruent","Incongruent","Congruent","Equal","Congruent","Incongruent","Incongruent","Equal","Equal","Equal","Congruent","Congruent","Incongruent","Incongruent","Equal","Incongruent","Congruent","Congruent","Equal","Equal","Congruent","Incongruent","Equal","Incongruent","Equal","Equal","Congruent","Congruent","Congruent","Congruent","Incongruent"],"ratio_trial":[300,100,500,100,500,500,500,200,100,200,300,100,100,200,300,200,300,500,100,500,100,200,100,100,100,100,100,100,200,500,300,200,200,100,300,100,300,200,500,100,100,200,300,500,200,200,500,100,300,300,500,200,500,200,300,100,100,200,300,100,100,500,300,300,300,200,200,300,500,500,300,300,500,500,200,300,200,500,300,200,300,200,100,100,200,500,500,500,200,500,500,100,100,300,500,100,200,300,100,200,500,300,200,300,300,500,200,500,300,200,300,200,200,500,500,100,200,300,300,100,200,500,300,500,100,300,200,100,300,200,200,200,200,300,100,300,500,200,500,100,300,100,300,200,100,100,100,200,500,500,200,500,500,500,100,300,300,300,100,300,300,500,300,100,300,200,100,100,500,500,100,100,200,100,500,100,300,300,500,200,200,300,500,500,500,100,200,300,500,500,200,200],"left_num":[4,9,9,6,7,6,6,3,3,11,9,3,12,3,20,3,18,7,11,6,11,3,6,2,11,3,6,8,3,7,9,3,7,8,18,2,4,11,2,8,6,3,2,12,4,1,7,1,13,4,21,3,7,3,9,9,9,7,9,9,3,7,4,9,9,12,3,3,6,7,2,4,4,20,3,2,9,6,18,1,4,7,2,10,3,20,6,7,11,7,7,1,3,8,7,6,3,2,6,3,3,4,3,9,12,6,5,7,8,1,4,7,3,20,7,6,3,18,4,2,6,6,4,7,6,9,9,1,4,6,4,13,6,20,2,4,6,3,6,6,4,9,9,1,8,10,6,3,6,20,7,2,6,7,6,4,24,12,6,9,4,7,4,2,18,3,9,4,6,6,6,8,12,6,5,6,4,5,12,3,3,12,2,6,5,2,3,5,4,2,12,4],"right_num":[6,14,20,6,5,6,6,3,2,3,9,8,13,1,14,11,18,9,4,6,6,3,7,2,4,4,6,1,3,5,9,3,6,1,18,11,2,3,2,6,6,7,10,3,14,2,5,8,12,2,6,3,9,11,9,8,14,8,9,14,4,12,2,9,9,6,3,3,6,9,10,6,15,1,3,12,8,6,18,2,2,6,2,3,3,1,6,1,3,5,5,3,4,9,5,6,7,12,6,3,4,6,3,9,2,6,14,5,9,3,2,8,14,1,5,6,3,18,2,2,7,6,2,9,6,9,13,18,8,7,3,14,11,13,6,2,6,3,6,6,2,8,9,21,2,8,6,3,6,7,18,2,1,5,6,2,2,2,3,9,6,5,8,6,18,14,14,8,6,6,6,2,6,3,6,6,6,7,3,3,3,2,4,6,6,2,3,7,15,12,6,6],"left_den":[5,15,27,12,21,8,8,6,6,20,20,5,30,10,25,4,30,28,22,24,22,6,10,12,22,6,10,20,6,21,12,6,15,20,30,5,5,20,12,16,10,10,20,16,6,3,21,2,26,5,28,6,8,4,20,15,15,10,12,15,20,28,20,12,12,15,6,10,24,8,20,5,16,24,6,10,15,24,30,3,20,15,12,25,10,24,24,10,20,21,21,2,6,10,21,12,10,10,12,6,10,5,6,20,24,24,10,21,10,2,20,10,10,24,21,10,6,30,20,12,12,8,20,8,12,20,30,2,5,12,8,26,20,25,5,20,8,6,8,12,5,15,20,2,16,25,12,6,8,24,15,12,9,21,12,5,30,24,12,12,5,21,5,5,30,10,15,8,8,24,12,16,15,12,6,10,5,25,16,6,6,24,3,24,6,12,10,25,16,12,20,5],"right_den":[12,28,24,10,6,24,24,10,5,4,12,16,26,2,28,20,20,12,10,8,15,10,14,30,10,10,12,2,10,6,20,10,9,2,20,22,4,4,3,10,12,14,25,12,30,15,6,20,15,4,24,10,24,20,12,16,28,16,20,28,16,16,4,20,20,10,10,5,8,24,25,12,20,3,10,24,10,8,20,15,4,9,30,10,6,3,8,5,4,6,6,5,10,18,6,10,14,24,10,10,5,12,10,12,10,8,20,6,18,10,4,16,28,3,6,12,10,20,4,30,10,24,4,24,10,12,26,30,16,10,10,20,22,26,12,4,24,10,24,10,4,16,12,30,5,16,10,10,24,21,27,3,6,6,10,4,4,10,5,20,12,6,16,12,20,28,28,20,24,8,10,5,10,5,18,12,12,14,12,10,10,10,24,8,18,30,6,14,20,18,15,10],"correct_side":[1,1,2,2,2,1,1,1,1,2,2,1,2,2,1,1,2,2,1,2,1,1,1,1,1,1,1,2,1,2,1,1,2,2,2,2,1,2,2,2,1,2,2,1,1,1,2,1,2,1,1,1,1,1,2,1,1,1,1,1,2,2,2,1,1,1,1,2,2,1,2,1,2,1,1,2,2,2,2,1,2,2,1,1,2,1,2,1,2,2,2,2,1,1,2,2,2,2,2,1,2,1,1,2,1,2,2,2,1,1,2,1,2,1,2,1,1,2,2,1,2,1,2,1,2,2,2,2,1,2,1,2,2,1,2,2,1,1,1,2,1,1,2,2,1,2,2,1,1,1,2,2,1,2,2,1,1,1,2,1,1,2,1,2,2,2,1,1,1,2,2,1,1,2,1,1,1,2,1,1,1,1,1,2,1,1,2,2,2,2,1,1],"img_shown":["img2/300/Incongruent/L/I_Dist_300_LN_4_LD_5_RN_6_RD_12_0.png","img2/100/Incongruent/L/I_Dist_100_LN_9_LD_15_RN_14_RD_28_0.png","img2/500/Congruent/R/C_Dist_500_LN_9_LD_27_RN_20_RD_24_1.png","img2/100/Equal/R/E_Dist_100_LN_6_LD_12_RN_6_RD_10_1.png","img2/500/Incongruent/R/I_Dist_500_LN_7_LD_21_RN_5_RD_6_1.png","img2/500/Equal/L/E_Dist_500_LN_6_LD_8_RN_6_RD_24_0.png","img2/500/Equal/L/E_Dist_500_LN_6_LD_8_RN_6_RD_24_0.png","img2/200/Equal/L/E_Dist_200_LN_3_LD_6_RN_3_RD_10_0.png","img2/100/Congruent/L/C_Dist_100_LN_3_LD_6_RN_2_RD_5_0.png","img2/200/Incongruent/R/I_Dist_200_LN_11_LD_20_RN_3_RD_4_1.png","img2/300/Equal/R/E_Dist_300_LN_9_LD_20_RN_9_RD_12_1.png","img2/100/Incongruent/L/I_Dist_100_LN_3_LD_5_RN_8_RD_16_0.png","img2/100/Congruent/R/C_Dist_100_LN_12_LD_30_RN_13_RD_26_1.png","img2/200/Incongruent/R/I_Dist_200_LN_3_LD_10_RN_1_RD_2_1.png","img2/300/Congruent/L/C_Dist_300_LN_20_LD_25_RN_14_RD_28_0.png","img2/200/Incongruent/L/I_Dist_200_LN_3_LD_4_RN_11_RD_20_0.png","img2/300/Equal/R/E_Dist_300_LN_18_LD_30_RN_18_RD_20_1.png","img2/500/Congruent/R/C_Dist_500_LN_7_LD_28_RN_9_RD_12_1.png","img2/100/Congruent/L/C_Dist_100_LN_11_LD_22_RN_4_RD_10_0.png","img2/500/Equal/R/E_Dist_500_LN_6_LD_24_RN_6_RD_8_1.png","img2/100/Congruent/L/C_Dist_100_LN_11_LD_22_RN_6_RD_15_0.png","img2/200/Equal/L/E_Dist_200_LN_3_LD_6_RN_3_RD_10_0.png","img2/100/Incongruent/L/I_Dist_100_LN_6_LD_10_RN_7_RD_14_0.png","img2/100/Equal/L/E_Dist_100_LN_2_LD_12_RN_2_RD_30_0.png","img2/100/Congruent/L/C_Dist_100_LN_11_LD_22_RN_4_RD_10_0.png","img2/100/Incongruent/L/I_Dist_100_LN_3_LD_6_RN_4_RD_10_0.png","img2/100/Equal/L/E_Dist_100_LN_6_LD_10_RN_6_RD_12_0.png","img2/100/Incongruent/R/I_Dist_100_LN_8_LD_20_RN_1_RD_2_1.png","img2/200/Equal/L/E_Dist_200_LN_3_LD_6_RN_3_RD_10_0.png","img2/500/Incongruent/R/I_Dist_500_LN_7_LD_21_RN_5_RD_6_1.png","img2/300/Equal/L/E_Dist_300_LN_9_LD_12_RN_9_RD_20_0.png","img2/200/Equal/L/E_Dist_200_LN_3_LD_6_RN_3_RD_10_0.png","img2/200/Incongruent/R/I_Dist_200_LN_7_LD_15_RN_6_RD_9_1.png","img2/100/Incongruent/R/I_Dist_100_LN_8_LD_20_RN_1_RD_2_1.png","img2/300/Equal/R/E_Dist_300_LN_18_LD_30_RN_18_RD_20_1.png","img2/100/Congruent/R/C_Dist_100_LN_2_LD_5_RN_11_RD_22_1.png","img2/300/Congruent/L/C_Dist_300_LN_4_LD_5_RN_2_RD_4_0.png","img2/200/Incongruent/R/I_Dist_200_LN_11_LD_20_RN_3_RD_4_1.png","img2/500/Equal/R/E_Dist_500_LN_2_LD_12_RN_2_RD_3_1.png","img2/100/Incongruent/R/I_Dist_100_LN_8_LD_16_RN_6_RD_10_1.png","img2/100/Equal/L/E_Dist_100_LN_6_LD_10_RN_6_RD_12_0.png","img2/200/Congruent/R/C_Dist_200_LN_3_LD_10_RN_7_RD_14_1.png","img2/300/Congruent/R/C_Dist_300_LN_2_LD_20_RN_10_RD_25_1.png","img2/500/Congruent/L/C_Dist_500_LN_12_LD_16_RN_3_RD_12_0.png","img2/200/Incongruent/L/I_Dist_200_LN_4_LD_6_RN_14_RD_30_0.png","img2/200/Incongruent/L/I_Dist_200_LN_1_LD_3_RN_2_RD_15_0.png","img2/500/Incongruent/R/I_Dist_500_LN_7_LD_21_RN_5_RD_6_1.png","img2/100/Incongruent/L/I_Dist_100_LN_1_LD_2_RN_8_RD_20_0.png","img2/300/Incongruent/R/I_Dist_300_LN_13_LD_26_RN_12_RD_15_1.png","img2/300/Congruent/L/C_Dist_300_LN_4_LD_5_RN_2_RD_4_0.png","img2/500/Congruent/L/C_Dist_500_LN_21_LD_28_RN_6_RD_24_0.png","img2/200/Equal/L/E_Dist_200_LN_3_LD_6_RN_3_RD_10_0.png","img2/500/Incongruent/L/I_Dist_500_LN_7_LD_8_RN_9_RD_24_0.png","img2/200/Incongruent/L/I_Dist_200_LN_3_LD_4_RN_11_RD_20_0.png","img2/300/Equal/R/E_Dist_300_LN_9_LD_20_RN_9_RD_12_1.png","img2/100/Congruent/L/C_Dist_100_LN_9_LD_15_RN_8_RD_16_0.png","img2/100/Incongruent/L/I_Dist_100_LN_9_LD_15_RN_14_RD_28_0.png","img2/200/Incongruent/L/I_Dist_200_LN_7_LD_10_RN_8_RD_16_0.png","img2/300/Equal/L/E_Dist_300_LN_9_LD_12_RN_9_RD_20_0.png","img2/100/Incongruent/L/I_Dist_100_LN_9_LD_15_RN_14_RD_28_0.png","img2/100/Congruent/R/C_Dist_100_LN_3_LD_20_RN_4_RD_16_1.png","img2/500/Congruent/R/C_Dist_500_LN_7_LD_28_RN_12_RD_16_1.png","img2/300/Incongruent/R/I_Dist_300_LN_4_LD_20_RN_2_RD_4_1.png","img2/300/Equal/L/E_Dist_300_LN_9_LD_12_RN_9_RD_20_0.png","img2/300/Equal/L/E_Dist_300_LN_9_LD_12_RN_9_RD_20_0.png","img2/200/Congruent/L/C_Dist_200_LN_12_LD_15_RN_6_RD_10_0.png","img2/200/Equal/L/E_Dist_200_LN_3_LD_6_RN_3_RD_10_0.png","img2/300/Equal/R/E_Dist_300_LN_3_LD_10_RN_3_RD_5_1.png","img2/500/Equal/R/E_Dist_500_LN_6_LD_24_RN_6_RD_8_1.png","img2/500/Incongruent/L/I_Dist_500_LN_7_LD_8_RN_9_RD_24_0.png","img2/300/Congruent/R/C_Dist_300_LN_2_LD_20_RN_10_RD_25_1.png","img2/300/Incongruent/L/I_Dist_300_LN_4_LD_5_RN_6_RD_12_0.png","img2/500/Congruent/R/C_Dist_500_LN_4_LD_16_RN_15_RD_20_1.png","img2/500/Congruent/L/C_Dist_500_LN_20_LD_24_RN_1_RD_3_0.png","img2/200/Equal/L/E_Dist_200_LN_3_LD_6_RN_3_RD_10_0.png","img2/300/Congruent/R/C_Dist_300_LN_2_LD_10_RN_12_RD_24_1.png","img2/200/Incongruent/R/I_Dist_200_LN_9_LD_15_RN_8_RD_10_1.png","img2/500/Equal/R/E_Dist_500_LN_6_LD_24_RN_6_RD_8_1.png","img2/300/Equal/R/E_Dist_300_LN_18_LD_30_RN_18_RD_20_1.png","img2/200/Incongruent/L/I_Dist_200_LN_1_LD_3_RN_2_RD_15_0.png","img2/300/Incongruent/R/I_Dist_300_LN_4_LD_20_RN_2_RD_4_1.png","img2/200/Incongruent/R/I_Dist_200_LN_7_LD_15_RN_6_RD_9_1.png","img2/100/Equal/L/E_Dist_100_LN_2_LD_12_RN_2_RD_30_0.png","img2/100/Congruent/L/C_Dist_100_LN_10_LD_25_RN_3_RD_10_0.png","img2/200/Equal/R/E_Dist_200_LN_3_LD_10_RN_3_RD_6_1.png","img2/500/Congruent/L/C_Dist_500_LN_20_LD_24_RN_1_RD_3_0.png","img2/500/Equal/R/E_Dist_500_LN_6_LD_24_RN_6_RD_8_1.png","img2/500/Congruent/L/C_Dist_500_LN_7_LD_10_RN_1_RD_5_0.png","img2/200/Incongruent/R/I_Dist_200_LN_11_LD_20_RN_3_RD_4_1.png","img2/500/Incongruent/R/I_Dist_500_LN_7_LD_21_RN_5_RD_6_1.png","img2/500/Incongruent/R/I_Dist_500_LN_7_LD_21_RN_5_RD_6_1.png","img2/100/Congruent/R/C_Dist_100_LN_1_LD_2_RN_3_RD_5_1.png","img2/100/Incongruent/L/I_Dist_100_LN_3_LD_6_RN_4_RD_10_0.png","img2/300/Incongruent/L/I_Dist_300_LN_8_LD_10_RN_9_RD_18_0.png","img2/500/Incongruent/R/I_Dist_500_LN_7_LD_21_RN_5_RD_6_1.png","img2/100/Equal/R/E_Dist_100_LN_6_LD_12_RN_6_RD_10_1.png","img2/200/Congruent/R/C_Dist_200_LN_3_LD_10_RN_7_RD_14_1.png","img2/300/Congruent/R/C_Dist_300_LN_2_LD_10_RN_12_RD_24_1.png","img2/100/Equal/R/E_Dist_100_LN_6_LD_12_RN_6_RD_10_1.png","img2/200/Equal/L/E_Dist_200_LN_3_LD_6_RN_3_RD_10_0.png","img2/500/Congruent/R/C_Dist_500_LN_3_LD_10_RN_4_RD_5_1.png","img2/300/Incongruent/L/I_Dist_300_LN_4_LD_5_RN_6_RD_12_0.png","img2/200/Equal/L/E_Dist_200_LN_3_LD_6_RN_3_RD_10_0.png","img2/300/Equal/R/E_Dist_300_LN_9_LD_20_RN_9_RD_12_1.png","img2/300/Congruent/L/C_Dist_300_LN_12_LD_24_RN_2_RD_10_0.png","img2/500/Equal/R/E_Dist_500_LN_6_LD_24_RN_6_RD_8_1.png","img2/200/Congruent/R/C_Dist_200_LN_5_LD_10_RN_14_RD_20_1.png","img2/500/Incongruent/R/I_Dist_500_LN_7_LD_21_RN_5_RD_6_1.png","img2/300/Incongruent/L/I_Dist_300_LN_8_LD_10_RN_9_RD_18_0.png","img2/200/Incongruent/L/I_Dist_200_LN_1_LD_2_RN_3_RD_10_0.png","img2/300/Incongruent/R/I_Dist_300_LN_4_LD_20_RN_2_RD_4_1.png","img2/200/Incongruent/L/I_Dist_200_LN_7_LD_10_RN_8_RD_16_0.png","img2/200/Congruent/R/C_Dist_200_LN_3_LD_10_RN_14_RD_28_1.png","img2/500/Congruent/L/C_Dist_500_LN_20_LD_24_RN_1_RD_3_0.png","img2/500/Incongruent/R/I_Dist_500_LN_7_LD_21_RN_5_RD_6_1.png","img2/100/Equal/L/E_Dist_100_LN_6_LD_10_RN_6_RD_12_0.png","img2/200/Equal/L/E_Dist_200_LN_3_LD_6_RN_3_RD_10_0.png","img2/300/Equal/R/E_Dist_300_LN_18_LD_30_RN_18_RD_20_1.png","img2/300/Incongruent/R/I_Dist_300_LN_4_LD_20_RN_2_RD_4_1.png","img2/100/Equal/L/E_Dist_100_LN_2_LD_12_RN_2_RD_30_0.png","img2/200/Congruent/R/C_Dist_200_LN_6_LD_12_RN_7_RD_10_1.png","img2/500/Equal/L/E_Dist_500_LN_6_LD_8_RN_6_RD_24_0.png","img2/300/Incongruent/R/I_Dist_300_LN_4_LD_20_RN_2_RD_4_1.png","img2/500/Incongruent/L/I_Dist_500_LN_7_LD_8_RN_9_RD_24_0.png","img2/100/Equal/R/E_Dist_100_LN_6_LD_12_RN_6_RD_10_1.png","img2/300/Equal/R/E_Dist_300_LN_9_LD_20_RN_9_RD_12_1.png","img2/200/Congruent/R/C_Dist_200_LN_9_LD_30_RN_13_RD_26_1.png","img2/100/Congruent/R/C_Dist_100_LN_1_LD_2_RN_18_RD_30_1.png","img2/300/Incongruent/L/I_Dist_300_LN_4_LD_5_RN_8_RD_16_0.png","img2/200/Congruent/R/C_Dist_200_LN_6_LD_12_RN_7_RD_10_1.png","img2/200/Congruent/L/C_Dist_200_LN_4_LD_8_RN_3_RD_10_0.png","img2/200/Congruent/R/C_Dist_200_LN_13_LD_26_RN_14_RD_20_1.png","img2/200/Congruent/R/C_Dist_200_LN_6_LD_20_RN_11_RD_22_1.png","img2/300/Congruent/L/C_Dist_300_LN_20_LD_25_RN_13_RD_26_0.png","img2/100/Congruent/R/C_Dist_100_LN_2_LD_5_RN_6_RD_12_1.png","img2/300/Incongruent/R/I_Dist_300_LN_4_LD_20_RN_2_RD_4_1.png","img2/500/Equal/L/E_Dist_500_LN_6_LD_8_RN_6_RD_24_0.png","img2/200/Equal/L/E_Dist_200_LN_3_LD_6_RN_3_RD_10_0.png","img2/500/Equal/L/E_Dist_500_LN_6_LD_8_RN_6_RD_24_0.png","img2/100/Equal/R/E_Dist_100_LN_6_LD_12_RN_6_RD_10_1.png","img2/300/Congruent/L/C_Dist_300_LN_4_LD_5_RN_2_RD_4_0.png","img2/100/Congruent/L/C_Dist_100_LN_9_LD_15_RN_8_RD_16_0.png","img2/300/Equal/R/E_Dist_300_LN_9_LD_20_RN_9_RD_12_1.png","img2/200/Congruent/R/C_Dist_200_LN_1_LD_2_RN_21_RD_30_1.png","img2/100/Congruent/L/C_Dist_100_LN_8_LD_16_RN_2_RD_5_0.png","img2/100/Incongruent/R/I_Dist_100_LN_10_LD_25_RN_8_RD_16_1.png","img2/100/Equal/R/E_Dist_100_LN_6_LD_12_RN_6_RD_10_1.png","img2/200/Equal/L/E_Dist_200_LN_3_LD_6_RN_3_RD_10_0.png","img2/500/Equal/L/E_Dist_500_LN_6_LD_8_RN_6_RD_24_0.png","img2/500/Congruent/L/C_Dist_500_LN_20_LD_24_RN_7_RD_21_0.png","img2/200/Congruent/R/C_Dist_200_LN_7_LD_15_RN_18_RD_27_1.png","img2/500/Equal/R/E_Dist_500_LN_2_LD_12_RN_2_RD_3_1.png","img2/500/Congruent/L/C_Dist_500_LN_6_LD_9_RN_1_RD_6_0.png","img2/500/Incongruent/R/I_Dist_500_LN_7_LD_21_RN_5_RD_6_1.png","img2/100/Equal/R/E_Dist_100_LN_6_LD_12_RN_6_RD_10_1.png","img2/300/Congruent/L/C_Dist_300_LN_4_LD_5_RN_2_RD_4_0.png","img2/300/Congruent/L/C_Dist_300_LN_24_LD_30_RN_2_RD_4_0.png","img2/300/Congruent/L/C_Dist_300_LN_12_LD_24_RN_2_RD_10_0.png","img2/100/Incongruent/R/I_Dist_100_LN_6_LD_12_RN_3_RD_5_1.png","img2/300/Equal/L/E_Dist_300_LN_9_LD_12_RN_9_RD_20_0.png","img2/300/Incongruent/L/I_Dist_300_LN_4_LD_5_RN_6_RD_12_0.png","img2/500/Incongruent/R/I_Dist_500_LN_7_LD_21_RN_5_RD_6_1.png","img2/300/Incongruent/L/I_Dist_300_LN_4_LD_5_RN_8_RD_16_0.png","img2/100/Congruent/R/C_Dist_100_LN_2_LD_5_RN_6_RD_12_1.png","img2/300/Equal/R/E_Dist_300_LN_18_LD_30_RN_18_RD_20_1.png","img2/200/Congruent/R/C_Dist_200_LN_3_LD_10_RN_14_RD_28_1.png","img2/100/Incongruent/L/I_Dist_100_LN_9_LD_15_RN_14_RD_28_0.png","img2/100/Incongruent/L/I_Dist_100_LN_4_LD_8_RN_8_RD_20_0.png","img2/500/Equal/L/E_Dist_500_LN_6_LD_8_RN_6_RD_24_0.png","img2/500/Equal/R/E_Dist_500_LN_6_LD_24_RN_6_RD_8_1.png","img2/100/Equal/R/E_Dist_100_LN_6_LD_12_RN_6_RD_10_1.png","img2/100/Congruent/L/C_Dist_100_LN_8_LD_16_RN_2_RD_5_0.png","img2/200/Congruent/L/C_Dist_200_LN_12_LD_15_RN_6_RD_10_0.png","img2/100/Incongruent/R/I_Dist_100_LN_6_LD_12_RN_3_RD_5_1.png","img2/500/Incongruent/L/I_Dist_500_LN_5_LD_6_RN_6_RD_18_0.png","img2/100/Equal/L/E_Dist_100_LN_6_LD_10_RN_6_RD_12_0.png","img2/300/Incongruent/L/I_Dist_300_LN_4_LD_5_RN_6_RD_12_0.png","img2/300/Congruent/R/C_Dist_300_LN_5_LD_25_RN_7_RD_14_1.png","img2/500/Congruent/L/C_Dist_500_LN_12_LD_16_RN_3_RD_12_0.png","img2/200/Equal/L/E_Dist_200_LN_3_LD_6_RN_3_RD_10_0.png","img2/200/Equal/L/E_Dist_200_LN_3_LD_6_RN_3_RD_10_0.png","img2/300/Congruent/L/C_Dist_300_LN_12_LD_24_RN_2_RD_10_0.png","img2/500/Incongruent/L/I_Dist_500_LN_2_LD_3_RN_4_RD_24_0.png","img2/500/Equal/R/E_Dist_500_LN_6_LD_24_RN_6_RD_8_1.png","img2/500/Incongruent/L/I_Dist_500_LN_5_LD_6_RN_6_RD_18_0.png","img2/100/Equal/L/E_Dist_100_LN_2_LD_12_RN_2_RD_30_0.png","img2/200/Equal/R/E_Dist_200_LN_3_LD_10_RN_3_RD_6_1.png","img2/300/Congruent/R/C_Dist_300_LN_5_LD_25_RN_7_RD_14_1.png","img2/500/Congruent/R/C_Dist_500_LN_4_LD_16_RN_15_RD_20_1.png","img2/500/Congruent/R/C_Dist_500_LN_2_LD_12_RN_12_RD_18_1.png","img2/200/Congruent/L/C_Dist_200_LN_12_LD_20_RN_6_RD_15_0.png","img2/200/Incongruent/L/I_Dist_200_LN_4_LD_5_RN_6_RD_10_0.png"],"dist100_C":[["C_Dist_100_LN_10_LD_25_RN_3_RD_10_0.png","C_Dist_100_LN_11_LD_22_RN_4_RD_10_0.png","C_Dist_100_LN_11_LD_22_RN_6_RD_15_0.png","C_Dist_100_LN_15_LD_25_RN_13_RD_26_0.png","C_Dist_100_LN_3_LD_6_RN_2_RD_5_0.png","C_Dist_100_LN_6_LD_20_RN_5_RD_25_0.png","C_Dist_100_LN_8_LD_16_RN_2_RD_5_0.png","C_Dist_100_LN_9_LD_15_RN_8_RD_16_0.png"],["C_Dist_100_LN_1_LD_2_RN_18_RD_30_1.png","C_Dist_100_LN_1_LD_2_RN_3_RD_5_1.png","C_Dist_100_LN_12_LD_30_RN_13_RD_26_1.png","C_Dist_100_LN_2_LD_5_RN_11_RD_22_1.png","C_Dist_100_LN_2_LD_5_RN_6_RD_12_1.png","C_Dist_100_LN_3_LD_20_RN_4_RD_16_1.png","C_Dist_100_LN_4_LD_10_RN_15_RD_30_1.png","C_Dist_100_LN_4_LD_8_RN_6_RD_10_1.png","C_Dist_100_LN_6_LD_12_RN_15_RD_25_1.png","C_Dist_100_LN_7_LD_14_RN_15_RD_25_1.png","C_Dist_100_LN_7_LD_14_RN_9_RD_15_1.png"]],"dist100_I":[["I_Dist_100_LN_1_LD_2_RN_8_RD_20_0.png","I_Dist_100_LN_2_LD_4_RN_6_RD_15_0.png","I_Dist_100_LN_2_LD_4_RN_8_RD_20_0.png","I_Dist_100_LN_3_LD_5_RN_11_RD_22_0.png","I_Dist_100_LN_3_LD_5_RN_8_RD_16_0.png","I_Dist_100_LN_3_LD_6_RN_4_RD_10_0.png","I_Dist_100_LN_3_LD_9_RN_7_RD_30_0.png","I_Dist_100_LN_4_LD_8_RN_8_RD_20_0.png","I_Dist_100_LN_6_LD_10_RN_11_RD_22_0.png","I_Dist_100_LN_6_LD_10_RN_13_RD_26_0.png","I_Dist_100_LN_6_LD_10_RN_7_RD_14_0.png","I_Dist_100_LN_9_LD_10_RN_20_RD_25_0.png","I_Dist_100_LN_9_LD_15_RN_13_RD_26_0.png","I_Dist_100_LN_9_LD_15_RN_14_RD_28_0.png"],["I_Dist_100_LN_10_LD_25_RN_8_RD_16_1.png","I_Dist_100_LN_10_LD_25_RN_9_RD_18_1.png","I_Dist_100_LN_11_LD_22_RN_9_RD_15_1.png","I_Dist_100_LN_12_LD_24_RN_9_RD_15_1.png","I_Dist_100_LN_12_LD_30_RN_2_RD_4_1.png","I_Dist_100_LN_13_LD_26_RN_12_RD_20_1.png","I_Dist_100_LN_13_LD_26_RN_6_RD_10_1.png","I_Dist_100_LN_17_LD_30_RN_10_RD_15_1.png","I_Dist_100_LN_6_LD_12_RN_3_RD_5_1.png","I_Dist_100_LN_8_LD_16_RN_6_RD_10_1.png","I_Dist_100_LN_8_LD_20_RN_1_RD_2_1.png","I_Dist_100_LN_9_LD_18_RN_6_RD_10_1.png"]],"dist100_S":[["E_Dist_100_LN_2_LD_12_RN_2_RD_30_0.png","E_Dist_100_LN_6_LD_10_RN_6_RD_12_0.png"],["E_Dist_100_LN_6_LD_12_RN_6_RD_10_1.png"]],"dist200_C":[["C_Dist_200_LN_11_LD_22_RN_3_RD_10_0.png","C_Dist_200_LN_12_LD_15_RN_6_RD_10_0.png","C_Dist_200_LN_12_LD_20_RN_6_RD_15_0.png","C_Dist_200_LN_14_LD_28_RN_6_RD_20_0.png","C_Dist_200_LN_15_LD_25_RN_4_RD_10_0.png","C_Dist_200_LN_16_LD_20_RN_12_RD_20_0.png","C_Dist_200_LN_16_LD_30_RN_9_RD_27_0.png","C_Dist_200_LN_20_LD_25_RN_9_RD_15_0.png","C_Dist_200_LN_21_LD_30_RN_2_RD_4_0.png","C_Dist_200_LN_4_LD_10_RN_3_RD_15_0.png","C_Dist_200_LN_4_LD_8_RN_3_RD_10_0.png","C_Dist_200_LN_6_LD_15_RN_3_RD_15_0.png","C_Dist_200_LN_7_LD_21_RN_2_RD_15_0.png","C_Dist_200_LN_8_LD_15_RN_2_RD_6_0.png","C_Dist_200_LN_8_LD_15_RN_3_RD_9_0.png","C_Dist_200_LN_8_LD_15_RN_7_RD_21_0.png","C_Dist_200_LN_9_LD_20_RN_4_RD_16_0.png"],["C_Dist_200_LN_1_LD_2_RN_21_RD_30_1.png","C_Dist_200_LN_13_LD_26_RN_14_RD_20_1.png","C_Dist_200_LN_3_LD_10_RN_11_RD_22_1.png","C_Dist_200_LN_3_LD_10_RN_14_RD_28_1.png","C_Dist_200_LN_3_LD_10_RN_7_RD_14_1.png","C_Dist_200_LN_3_LD_12_RN_9_RD_20_1.png","C_Dist_200_LN_3_LD_6_RN_14_RD_20_1.png","C_Dist_200_LN_5_LD_10_RN_14_RD_20_1.png","C_Dist_200_LN_6_LD_12_RN_7_RD_10_1.png","C_Dist_200_LN_6_LD_20_RN_11_RD_22_1.png","C_Dist_200_LN_7_LD_15_RN_18_RD_27_1.png","C_Dist_200_LN_9_LD_30_RN_13_RD_26_1.png"]],"dist200_I":[["I_Dist_200_LN_1_LD_2_RN_3_RD_10_0.png","I_Dist_200_LN_1_LD_3_RN_2_RD_15_0.png","I_Dist_200_LN_3_LD_4_RN_11_RD_20_0.png","I_Dist_200_LN_4_LD_5_RN_6_RD_10_0.png","I_Dist_200_LN_4_LD_6_RN_14_RD_30_0.png","I_Dist_200_LN_7_LD_10_RN_12_RD_24_0.png","I_Dist_200_LN_7_LD_10_RN_14_RD_28_0.png","I_Dist_200_LN_7_LD_10_RN_8_RD_16_0.png"],["I_Dist_200_LN_11_LD_20_RN_3_RD_4_1.png","I_Dist_200_LN_14_LD_30_RN_12_RD_18_1.png","I_Dist_200_LN_14_LD_30_RN_6_RD_9_1.png","I_Dist_200_LN_3_LD_10_RN_1_RD_2_1.png","I_Dist_200_LN_4_LD_30_RN_1_RD_3_1.png","I_Dist_200_LN_6_LD_20_RN_3_RD_6_1.png","I_Dist_200_LN_7_LD_15_RN_4_RD_6_1.png","I_Dist_200_LN_7_LD_15_RN_6_RD_9_1.png","I_Dist_200_LN_9_LD_15_RN_8_RD_10_1.png"]],"dist200_S":[["E_Dist_200_LN_3_LD_6_RN_3_RD_10_0.png"],["E_Dist_200_LN_3_LD_10_RN_3_RD_6_1.png"]],"dist300_C":[["C_Dist_300_LN_11_LD_22_RN_1_RD_5_0.png","C_Dist_300_LN_11_LD_22_RN_2_RD_10_0.png","C_Dist_300_LN_11_LD_22_RN_4_RD_20_0.png","C_Dist_300_LN_12_LD_24_RN_2_RD_10_0.png","C_Dist_300_LN_18_LD_20_RN_9_RD_15_0.png","C_Dist_300_LN_20_LD_25_RN_13_RD_26_0.png","C_Dist_300_LN_20_LD_25_RN_14_RD_28_0.png","C_Dist_300_LN_20_LD_25_RN_5_RD_10_0.png","C_Dist_300_LN_20_LD_25_RN_8_RD_16_0.png","C_Dist_300_LN_20_LD_25_RN_9_RD_18_0.png","C_Dist_300_LN_24_LD_30_RN_2_RD_4_0.png","C_Dist_300_LN_24_LD_30_RN_8_RD_16_0.png","C_Dist_300_LN_3_LD_6_RN_2_RD_10_0.png","C_Dist_300_LN_4_LD_10_RN_1_RD_10_0.png","C_Dist_300_LN_4_LD_5_RN_2_RD_4_0.png","C_Dist_300_LN_8_LD_16_RN_1_RD_5_0.png","C_Dist_300_LN_9_LD_10_RN_3_RD_5_0.png"],["C_Dist_300_LN_1_LD_20_RN_7_RD_20_1.png","C_Dist_300_LN_1_LD_3_RN_19_RD_30_1.png","C_Dist_300_LN_1_LD_30_RN_8_RD_24_1.png","C_Dist_300_LN_1_LD_5_RN_11_RD_22_1.png","C_Dist_300_LN_1_LD_5_RN_3_RD_6_1.png","C_Dist_300_LN_1_LD_5_RN_6_RD_12_1.png","C_Dist_300_LN_2_LD_10_RN_12_RD_24_1.png","C_Dist_300_LN_2_LD_20_RN_10_RD_25_1.png","C_Dist_300_LN_3_LD_12_RN_11_RD_20_1.png","C_Dist_300_LN_3_LD_6_RN_4_RD_5_1.png","C_Dist_300_LN_4_LD_20_RN_13_RD_26_1.png","C_Dist_300_LN_5_LD_25_RN_6_RD_12_1.png","C_Dist_300_LN_5_LD_25_RN_7_RD_14_1.png","C_Dist_300_LN_7_LD_14_RN_20_RD_25_1.png","C_Dist_300_LN_8_LD_15_RN_10_RD_12_1.png"]],"dist300_I":[["I_Dist_300_LN_1_LD_2_RN_2_RD_10_0.png","I_Dist_300_LN_1_LD_2_RN_3_RD_15_0.png","I_Dist_300_LN_2_LD_4_RN_6_RD_30_0.png","I_Dist_300_LN_3_LD_6_RN_4_RD_20_0.png","I_Dist_300_LN_4_LD_5_RN_6_RD_12_0.png","I_Dist_300_LN_4_LD_5_RN_8_RD_16_0.png","I_Dist_300_LN_7_LD_10_RN_8_RD_20_0.png","I_Dist_300_LN_8_LD_10_RN_14_RD_28_0.png","I_Dist_300_LN_8_LD_10_RN_9_RD_18_0.png"],["I_Dist_300_LN_13_LD_26_RN_12_RD_15_1.png","I_Dist_300_LN_4_LD_20_RN_2_RD_4_1.png"]],"dist300_S":[["E_Dist_300_LN_9_LD_12_RN_9_RD_20_0.png"],["E_Dist_300_LN_18_LD_30_RN_18_RD_20_1.png","E_Dist_300_LN_3_LD_10_RN_3_RD_5_1.png","E_Dist_300_LN_9_LD_20_RN_9_RD_12_1.png"]],"dist500_C":[["C_Dist_500_LN_10_LD_13_RN_7_RD_26_0.png","C_Dist_500_LN_10_LD_15_RN_4_RD_24_0.png","C_Dist_500_LN_12_LD_16_RN_3_RD_12_0.png","C_Dist_500_LN_12_LD_18_RN_4_RD_24_0.png","C_Dist_500_LN_15_LD_18_RN_5_RD_15_0.png","C_Dist_500_LN_15_LD_20_RN_1_RD_4_0.png","C_Dist_500_LN_18_LD_27_RN_1_RD_6_0.png","C_Dist_500_LN_20_LD_24_RN_1_RD_3_0.png","C_Dist_500_LN_20_LD_24_RN_3_RD_9_0.png","C_Dist_500_LN_20_LD_24_RN_7_RD_21_0.png","C_Dist_500_LN_20_LD_28_RN_3_RD_14_0.png","C_Dist_500_LN_21_LD_28_RN_6_RD_24_0.png","C_Dist_500_LN_22_LD_28_RN_2_RD_7_0.png","C_Dist_500_LN_25_LD_30_RN_9_RD_27_0.png","C_Dist_500_LN_4_LD_6_RN_1_RD_6_0.png","C_Dist_500_LN_5_LD_6_RN_2_RD_6_0.png","C_Dist_500_LN_6_LD_9_RN_1_RD_6_0.png","C_Dist_500_LN_7_LD_10_RN_1_RD_5_0.png","C_Dist_500_LN_8_LD_12_RN_1_RD_6_0.png","C_Dist_500_LN_8_LD_12_RN_4_RD_24_0.png"],["C_Dist_500_LN_1_LD_4_RN_12_RD_16_1.png","C_Dist_500_LN_1_LD_4_RN_9_RD_12_1.png","C_Dist_500_LN_1_LD_9_RN_11_RD_18_1.png","C_Dist_500_LN_10_LD_24_RN_22_RD_24_1.png","C_Dist_500_LN_2_LD_12_RN_10_RD_15_1.png","C_Dist_500_LN_2_LD_12_RN_12_RD_18_1.png","C_Dist_500_LN_2_LD_12_RN_4_RD_6_1.png","C_Dist_500_LN_2_LD_24_RN_7_RD_12_1.png","C_Dist_500_LN_2_LD_5_RN_18_RD_20_1.png","C_Dist_500_LN_2_LD_5_RN_9_RD_10_1.png","C_Dist_500_LN_2_LD_8_RN_12_RD_16_1.png","C_Dist_500_LN_2_LD_8_RN_21_RD_28_1.png","C_Dist_500_LN_3_LD_10_RN_4_RD_5_1.png","C_Dist_500_LN_3_LD_12_RN_15_RD_20_1.png","C_Dist_500_LN_3_LD_30_RN_6_RD_10_1.png","C_Dist_500_LN_3_LD_8_RN_14_RD_16_1.png","C_Dist_500_LN_4_LD_16_RN_15_RD_20_1.png","C_Dist_500_LN_4_LD_24_RN_12_RD_18_1.png","C_Dist_500_LN_5_LD_14_RN_6_RD_7_1.png","C_Dist_500_LN_7_LD_21_RN_20_RD_24_1.png","C_Dist_500_LN_7_LD_28_RN_12_RD_16_1.png","C_Dist_500_LN_7_LD_28_RN_9_RD_12_1.png","C_Dist_500_LN_9_LD_27_RN_20_RD_24_1.png"]],"dist500_I":[["I_Dist_500_LN_2_LD_3_RN_4_RD_24_0.png","I_Dist_500_LN_5_LD_6_RN_6_RD_18_0.png","I_Dist_500_LN_7_LD_8_RN_9_RD_24_0.png"],["I_Dist_500_LN_7_LD_21_RN_5_RD_6_1.png"]],"dist500_S":[["E_Dist_500_LN_6_LD_8_RN_6_RD_24_0.png"],["E_Dist_500_LN_2_LD_12_RN_2_RD_3_1.png","E_Dist_500_LN_6_LD_24_RN_6_RD_8_1.png"]]}},{"start_time":1452268443226,"click_time":1452268447706,"finger_time":1452268445504,"fix_duration":1440.4864437981776,"trial":1,"RT":2278,"MT":2202,"sideResp":1,"stimulus":[],"xmouse":[395.3333435058594,395.3333435058594,395.3333435058594,395.3333435058594,395.3333435058594,394.66668701171875,394.66668701171875,394.66668701171875,394.66668701171875,394.66668701171875,394.66668701171875,394.66668701171875,394.66668701171875,394.66668701171875,394.66668701171875,394,394,394,394,394,394,394,394,394,394,394,394,394,394,394,394,394,394,394,394,394,394,394,400,400.66668701171875,401.3333435058594,402,402,402.66668701171875,403.3333435058594,403.3333435058594,404,405.3333435058594,405.3333435058594,406,406.66668701171875,407.3333435058594,407.3333435058594,407.3333435058594,408,408,408,408,408,408.66668701171875,408.66668701171875,409.3333435058594,410,410,410.66668701171875,410.66668701171875,411.3333435058594,411.3333435058594,412,412,412,412.66668701171875,412.66668701171875,412.66668701171875,412.66668701171875,412.66668701171875,412.66668701171875,412.66668701171875,412.66668701171875,414.66668701171875,414.66668701171875,414.66668701171875,414.66668701171875,415.3333435058594,415.3333435058594,415.3333435058594,415.3333435058594,415.3333435058594,415.3333435058594,415.3333435058594,415.3333435058594,415.3333435058594,416,416,416,416,416.66668701171875,416.66668701171875,416.66668701171875,417.3333435058594,417.3333435058594,417.3333435058594,418,418.66668701171875,418.66668701171875,418.66668701171875,418.66668701171875,418.66668701171875,418.66668701171875,418.66668701171875,419.3333435058594,419.3333435058594,419.3333435058594,420,420,420,420,420.66668701171875,421.3333435058594,421.3333435058594,421.3333435058594,422,422,421.3333435058594,420,419.3333435058594,416.66668701171875,414.66668701171875,408.66668701171875,404.66668701171875,402.66668701171875,399.3333435058594,397.3333435058594,391.3333435058594,387.3333435058594,385.3333435058594,381.3333435058594,379.3333435058594,373.3333435058594,369.3333435058594,367.3333435058594,364.66668701171875,363.3333435058594,360,358.66668701171875,358,356.66668701171875,356.66668701171875,356,355.3333435058594,354.66668701171875,354,353.3333435058594,352,350,349.3333435058594,348.66668701171875,348,348,347.3333435058594,347.3333435058594,346,345.3333435058594,342.66668701171875,340.66668701171875,339.3333435058594,337.3333435058594,336.66668701171875,332.66668701171875,330,327.3333435058594,325.3333435058594,322.66668701171875,316.66668701171875,312,307.3333435058594,305.3333435058594,303.3333435058594,299.3333435058594,292.66668701171875,288.66668701171875,286,282,276,274,270.66668701171875,269.3333435058594,266,259.3333435058594,257.3333435058594,252,250,245.33334350585938,239.33334350585938,237.33334350585938,232.6666717529297,230.6666717529297,226.6666717529297,218.6666717529297,216.6666717529297,211.33334350585938,208.6666717529297,204,197.33334350585938,194.6666717529297,190.6666717529297,188.6666717529297,184,176.6666717529297,174,168.6666717529297,166.6666717529297,160.6666717529297,152,148.6666717529297,141.33334350585938,138,130.6666717529297,120,116.66667175292969,110.66667175292969,108,102.66667175292969,94.66667175292969],"ymouse":[828.6666870117188,828.6666870117188,828.6666870117188,828.6666870117188,828.6666870117188,829.3333740234375,829.3333740234375,829.3333740234375,829.3333740234375,829.3333740234375,829.3333740234375,829.3333740234375,829.3333740234375,829.3333740234375,829.3333740234375,829.3333740234375,829.3333740234375,829.3333740234375,829.3333740234375,829.3333740234375,829.3333740234375,829.3333740234375,829.3333740234375,829.3333740234375,829.3333740234375,829.3333740234375,829.3333740234375,829.3333740234375,828.6666870117188,828.6666870117188,828.6666870117188,828.6666870117188,828.6666870117188,828.6666870117188,828.6666870117188,828.6666870117188,828.6666870117188,828.6666870117188,826.6666870117188,826.6666870117188,826,826,826,826,826,826,826,825.3333740234375,824.6666870117188,824.6666870117188,824,823.3333740234375,823.3333740234375,823.3333740234375,822.6666870117188,822.6666870117188,822,821.3333740234375,821.3333740234375,821.3333740234375,820.6666870117188,820,818.6666870117188,818,816,815.3333740234375,814,812,811.3333740234375,811.3333740234375,811.3333740234375,812.6666870117188,812.6666870117188,812.6666870117188,812.6666870117188,812.6666870117188,812.6666870117188,812.6666870117188,812.6666870117188,808,807.3333740234375,805.3333740234375,802.6666870117188,800.6666870117188,800,798,796.6666870117188,794.6666870117188,794,793.3333740234375,792.6666870117188,792,791.3333740234375,790,789.3333740234375,788,787.3333740234375,785.3333740234375,784,783.3333740234375,782,781.3333740234375,778.6666870117188,777.3333740234375,776.6666870117188,775.3333740234375,775.3333740234375,773.3333740234375,772,771.3333740234375,770,769.3333740234375,768,767.3333740234375,766.6666870117188,766,766,765.3333740234375,764.6666870117188,764,764,763.3333740234375,763.3333740234375,762.6666870117188,762.6666870117188,762.6666870117188,762.6666870117188,762.6666870117188,762,761.3333740234375,760.6666870117188,759.3333740234375,758,755.3333740234375,752,750.6666870117188,747.3333740234375,745.3333740234375,740,736,734,730.6666870117188,728.6666870117188,723.3333740234375,719.3333740234375,718,714.6666870117188,713.3333740234375,710,708,706.6666870117188,704.6666870117188,704,701.3333740234375,696.6666870117188,693.3333740234375,691.3333740234375,688,684.6666870117188,681.3333740234375,680,676.6666870117188,675.3333740234375,670.6666870117188,667.3333740234375,665.3333740234375,660.6666870117188,658.6666870117188,650,642.6666870117188,634.6666870117188,630,625.3333740234375,608.6666870117188,596.6666870117188,585.3333740234375,579.3333740234375,574.6666870117188,564,550,540.6666870117188,536,526.6666870117188,513.3333740234375,508.66668701171875,499.3333740234375,495.3333435058594,486.66668701171875,472.66668701171875,467.3333435058594,456.66668701171875,450.66668701171875,439.3333435058594,423.3333435058594,418.66668701171875,409.3333435058594,404.66668701171875,394.66668701171875,378,372,359.3333435058594,353.3333435058594,342,324.66668701171875,319.3333435058594,308.66668701171875,303.3333435058594,292.66668701171875,276.66668701171875,270.66668701171875,260,254,241.33334350585938,217.33334350585938,210,193.33334350585938,186,169.33334350585938,146.6666717529297,138.6666717529297,126,120.66667175292969,108.66667175292969,92],"timestamp_mouse":[18,52,58,79,98,118,139,158,178,199,219,239,258,279,298,318,339,359,378,398,418,439,458,479,499,519,538,558,578,599,618,639,659,679,698,718,738,758,779,798,818,838,858,878,898,919,938,958,978,998,1018,1038,1058,1078,1098,1118,1138,1159,1179,1198,1218,1238,1259,1278,1299,1319,1338,1358,1379,1398,1418,1438,1460,1479,1499,1518,1538,1558,1578,1599,1618,1638,1659,1678,1698,1719,1739,1759,1778,1798,1818,1838,1860,1878,1898,1918,1938,1959,1978,1998,2018,2039,2060,2078,2098,2118,2138,2160,2178,2198,2218,2239,2261,2278,2299,2319,2339,2358,2379,2398,2418,2438,2458,2479,2499,2518,2538,2558,2579,2598,2619,2638,2659,2679,2699,2719,2738,2759,2779,2798,2818,2838,2858,2879,2899,2918,2939,2959,2978,2998,3018,3038,3058,3080,3099,3118,3138,3159,3181,3199,3219,3239,3258,3279,3300,3318,3339,3358,3380,3399,3418,3438,3459,3480,3498,3518,3538,3559,3578,3599,3618,3638,3658,3682,3699,3719,3739,3758,3786,3799,3818,3838,3858,3879,3898,3918,3939,3958,3981,3998,4018,4038,4059,4080,4099,4118,4138,4159,4179,4199,4219,4239,4258,4280,4298,4319,4338,4358,4380,4398,4418,4438,4458,4479],"xSR":350,"ySR":768,"xT1":30,"yT1":0,"xT2":670,"yT2":0,"toosoon":0,"cond_shown":"Incongruent","ratio_trial":100,"L_num":9,"L_den":15,"R_num":14,"R_den":28,"correct_side":1,"subjID":"14","gender":"No_gender","school":"No_school","age":"No_age"},{"start_time":1452268449333,"click_time":1452268453605,"finger_time":1452268451244,"fix_duration":519.8493176372021,"trial":2,"RT":1911,"MT":2361,"sideResp":2,"stimulus":[],"xmouse":[402.66668701171875,402.66668701171875,402.66668701171875,405.3333435058594,405.3333435058594,405.3333435058594,405.3333435058594,405.3333435058594,405.3333435058594,405.3333435058594,405.3333435058594,405.3333435058594,405.3333435058594,403.3333435058594,403.3333435058594,403.3333435058594,403.3333435058594,403.3333435058594,403.3333435058594,403.3333435058594,403.3333435058594,403.3333435058594,403.3333435058594,402,402,402,402,402,402,402,402,402,402,395.3333435058594,394,392.66668701171875,392,391.3333435058594,391.3333435058594,391.3333435058594,391.3333435058594,390.66668701171875,390.66668701171875,390.66668701171875,390.66668701171875,390.66668701171875,390.66668701171875,390.66668701171875,390.66668701171875,390.66668701171875,390.66668701171875,390,390,390,390,390,390,390,390,390,392,392,392,392,392,392,392,392,392,392,402,402.66668701171875,403.3333435058594,403.3333435058594,403.3333435058594,402.66668701171875,402.66668701171875,403.3333435058594,403.3333435058594,404,404.66668701171875,405.3333435058594,405.3333435058594,406.66668701171875,407.3333435058594,408,408.66668701171875,408,408,407.3333435058594,407.3333435058594,407.3333435058594,407.3333435058594,407.3333435058594,407.3333435058594,407.3333435058594,403.3333435058594,403.3333435058594,403.3333435058594,404,404,404,404,404,404,403.3333435058594,403.3333435058594,403.3333435058594,403.3333435058594,403.3333435058594,403.3333435058594,404,403.3333435058594,403.3333435058594,403.3333435058594,403.3333435058594,402.66668701171875,402.66668701171875,402.66668701171875,402,402,402,402,402,402,402,402,402,402,402,402,402.66668701171875,402.66668701171875,402.66668701171875,402,402,402,402,402,402,402,400,399.3333435058594,399.3333435058594,398.66668701171875,398.66668701171875,398.66668701171875,398.66668701171875,398.66668701171875,399.3333435058594,399.3333435058594,400,400.66668701171875,401.3333435058594,401.3333435058594,401.3333435058594,402.66668701171875,404,404,406,406,407.3333435058594,408.66668701171875,409.3333435058594,410,411.3333435058594,412.66668701171875,413.3333435058594,414.66668701171875,416,418,422.66668701171875,424,428,429.3333435058594,432,435.3333435058594,436.66668701171875,438.66668701171875,440,442.66668701171875,449.3333435058594,452.66668701171875,459.3333435058594,463.3333435058594,475.3333435058594,490,492.66668701171875,497.3333435058594,499.3333435058594,505.3333435058594,516,520,527.3333740234375,530.6666870117188,536,544.6666870117188,547.3333740234375,552.6666870117188,556,564.6666870117188,577.3333740234375,581.3333740234375,588,592,599.3333740234375,610,621.3333740234375,626,634.6666870117188,639.3333740234375,653.3333740234375,664,668.6666870117188,676],"ymouse":[820.6666870117188,820.6666870117188,820.6666870117188,822,822,822,822,822,822,822,822,822,822,818,818,818,818,818,818,818,818,818,818,818.6666870117188,818.6666870117188,818.6666870117188,818.6666870117188,818.6666870117188,818.6666870117188,818.6666870117188,818.6666870117188,818.6666870117188,818.6666870117188,824,824,824,824,824,824,823.3333740234375,823.3333740234375,823.3333740234375,822.6666870117188,822.6666870117188,822.6666870117188,822.6666870117188,822.6666870117188,822.6666870117188,822.6666870117188,822.6666870117188,822.6666870117188,818.6666870117188,818.6666870117188,818.6666870117188,818.6666870117188,818.6666870117188,818.6666870117188,818.6666870117188,818.6666870117188,818.6666870117188,818,818,818,818,818,818,818,818,818,818,806,804.6666870117188,804,802.6666870117188,802,799.3333740234375,797.3333740234375,796,796,792.6666870117188,789.3333740234375,787.3333740234375,786.6666870117188,784.6666870117188,784,780.6666870117188,778.6666870117188,778,776.6666870117188,776,776,776,776,776,776,776,767.3333740234375,766.6666870117188,765.3333740234375,763.3333740234375,762.6666870117188,758,755.3333740234375,754,754,750.6666870117188,747.3333740234375,745.3333740234375,744.6666870117188,743.3333740234375,742.6666870117188,740.6666870117188,738.6666870117188,738.6666870117188,736.6666870117188,736,734.6666870117188,732,731.3333740234375,729.3333740234375,729.3333740234375,726,724,723.3333740234375,722,722,720,718.6666870117188,718,717.3333740234375,716.6666870117188,714.6666870117188,714,713.3333740234375,712.6666870117188,712.6666870117188,712.6666870117188,712.6666870117188,712.6666870117188,712.6666870117188,712.6666870117188,708.6666870117188,708,708,706.6666870117188,706.6666870117188,704.6666870117188,703.3333740234375,702.6666870117188,701.3333740234375,700.6666870117188,699.3333740234375,696.6666870117188,694.6666870117188,694.6666870117188,694.6666870117188,690,685.3333740234375,685.3333740234375,679.3333740234375,679.3333740234375,673.3333740234375,666.6666870117188,664.6666870117188,660.6666870117188,656.6666870117188,649.3333740234375,646,639.3333740234375,634.6666870117188,624,606,600,589.3333740234375,584.6666870117188,576,564.6666870117188,561.3333740234375,554,550,541.3333740234375,524,516,501.3333740234375,490.66668701171875,462,425.3333435058594,418,404.66668701171875,398.66668701171875,386,364,356,341.3333435058594,334.66668701171875,324,305.3333435058594,299.3333435058594,288,280.66668701171875,264.66668701171875,244,238,227.33334350585938,222,210,192.6666717529297,176,168.6666717529297,154.6666717529297,146.6666717529297,122.66667175292969,106.66667175292969,99.33333587646484,88.66667175292969],"timestamp_mouse":[2,31,33,60,71,91,112,131,152,171,191,212,231,251,272,291,311,331,351,372,391,411,432,451,471,491,512,531,551,571,592,611,632,651,671,692,712,731,752,772,791,811,831,852,871,893,911,931,951,972,992,1012,1032,1052,1072,1092,1111,1132,1151,1171,1193,1211,1232,1251,1272,1291,1312,1331,1351,1371,1392,1411,1431,1452,1471,1493,1511,1532,1552,1571,1594,1612,1632,1651,1672,1692,1711,1731,1751,1771,1791,1812,1831,1852,1871,1891,1911,1931,1952,1972,1992,2012,2031,2051,2071,2091,2111,2132,2151,2171,2191,2213,2232,2251,2271,2292,2312,2332,2351,2371,2392,2413,2432,2452,2471,2492,2512,2531,2552,2571,2591,2615,2631,2651,2671,2692,2711,2731,2751,2772,2791,2813,2831,2852,2872,2891,2912,2931,2951,2971,2991,3011,3031,3051,3071,3091,3113,3131,3151,3171,3192,3211,3232,3251,3271,3292,3313,3331,3352,3372,3391,3413,3431,3452,3471,3492,3513,3531,3551,3571,3591,3613,3631,3651,3671,3691,3714,3731,3751,3771,3791,3813,3831,3852,3871,3891,3912,3932,3951,3972,3992,4013,4032,4051,4072,4091,4112,4131,4151,4171,4191,4212,4232,4251,4272],"xSR":350,"ySR":768,"xT1":30,"yT1":0,"xT2":670,"yT2":0,"toosoon":0,"cond_shown":"Congruent","ratio_trial":500,"L_num":9,"L_den":27,"R_num":20,"R_den":24,"correct_side":2,"subjID":"14","gender":"No_gender","school":"No_school","age":"No_age"},{"start_time":1452268454916,"click_time":1452268458687,"finger_time":1452268457284,"fix_duration":250,"trial":3,"RT":2368,"MT":1403,"sideResp":2,"stimulus":[],"xmouse":[390.66668701171875,390.66668701171875,390,390,390,390,389.3333435058594,389.3333435058594,389.3333435058594,389.3333435058594,389.3333435058594,389.3333435058594,389.3333435058594,388.66668701171875,388,388,388,388,388,388,388,383.3333435058594,383.3333435058594,382.66668701171875,382.66668701171875,382.66668701171875,382.66668701171875,382.66668701171875,382.66668701171875,381.3333435058594,381.3333435058594,381.3333435058594,381.3333435058594,381.3333435058594,381.3333435058594,381.3333435058594,381.3333435058594,381.3333435058594,381.3333435058594,381.3333435058594,381.3333435058594,381.3333435058594,381.3333435058594,381.3333435058594,381.3333435058594,387.3333435058594,387.3333435058594,387.3333435058594,392.66668701171875,393.3333435058594,394.66668701171875,395.3333435058594,396,396.66668701171875,397.3333435058594,397.3333435058594,398,398,398,398,398,398.66668701171875,398.66668701171875,398.66668701171875,398.66668701171875,398.66668701171875,398.66668701171875,398,398,398,398,398,398.66668701171875,398.66668701171875,398.66668701171875,398.66668701171875,399.3333435058594,400,400.66668701171875,401.3333435058594,402,402.66668701171875,403.3333435058594,404,404.66668701171875,405.3333435058594,405.3333435058594,406.66668701171875,406.66668701171875,407.3333435058594,407.3333435058594,407.3333435058594,407.3333435058594,407.3333435058594,407.3333435058594,407.3333435058594,407.3333435058594,408.66668701171875,408.66668701171875,408.66668701171875,408.66668701171875,408.66668701171875,408.66668701171875,408.66668701171875,408.66668701171875,408.66668701171875,408.66668701171875,408.66668701171875,408.66668701171875,408.66668701171875,408.66668701171875,406.66668701171875,406.66668701171875,406.66668701171875,406.66668701171875,406.66668701171875,406.66668701171875,403.3333435058594,403.3333435058594,402.66668701171875,402,402,400.66668701171875,400,400,400.66668701171875,400.66668701171875,401.3333435058594,401.3333435058594,401.3333435058594,410,411.3333435058594,414,414.66668701171875,416,416.66668701171875,418.66668701171875,422.66668701171875,424,426.66668701171875,428,431.3333435058594,437.3333435058594,442.66668701171875,444.66668701171875,448.66668701171875,450.66668701171875,456.66668701171875,461.3333435058594,464,470,473.3333435058594,483.3333435058594,491.3333435058594,494,498,500.66668701171875,509.3333435058594,516,516,520,523.3333740234375,532.6666870117188,540,543.3333740234375,550,552.6666870117188,562,566.6666870117188,569.3333740234375,574.6666870117188,578,586,591.3333740234375,594.6666870117188,602.6666870117188,616.6666870117188,705.3333740234375,709.3333740234375,712.6666870117188,712,710,710,710,710,702.6666870117188,702.6666870117188,704.6666870117188],"ymouse":[824.6666870117188,824.6666870117188,823.3333740234375,822.6666870117188,822,822,821.3333740234375,821.3333740234375,820,819.3333740234375,818.6666870117188,818.6666870117188,818,818,818,818,818,818,818,818,818,815.3333740234375,815.3333740234375,812.6666870117188,812.6666870117188,812.6666870117188,812.6666870117188,812.6666870117188,812.6666870117188,812.6666870117188,812.6666870117188,812.6666870117188,812.6666870117188,813.3333740234375,813.3333740234375,813.3333740234375,813.3333740234375,813.3333740234375,813.3333740234375,813.3333740234375,813.3333740234375,813.3333740234375,813.3333740234375,813.3333740234375,813.3333740234375,812,812,812,809.3333740234375,808.6666870117188,808.6666870117188,808,808,808,807.3333740234375,807.3333740234375,807.3333740234375,806.6666870117188,806,806,805.3333740234375,805.3333740234375,804.6666870117188,804.6666870117188,804,804,803.3333740234375,802.6666870117188,802,801.3333740234375,800.6666870117188,800,798,798,798,796,794.6666870117188,792,791.3333740234375,789.3333740234375,788.6666870117188,788,787.3333740234375,787.3333740234375,786.6666870117188,787.3333740234375,787.3333740234375,788,788,788.6666870117188,788.6666870117188,788.6666870117188,788.6666870117188,788.6666870117188,788.6666870117188,788.6666870117188,788.6666870117188,790.6666870117188,790.6666870117188,790.6666870117188,790.6666870117188,790.6666870117188,790.6666870117188,790.6666870117188,790.6666870117188,790.6666870117188,790.6666870117188,787.3333740234375,787.3333740234375,787.3333740234375,787.3333740234375,782,782,782,782,782,782,771.3333740234375,767.3333740234375,766,762,762,755.3333740234375,748.6666870117188,746,742,742,734,734,734,700,694.6666870117188,680.6666870117188,676,668.6666870117188,665.3333740234375,656.6666870117188,643.3333740234375,638.6666870117188,630,626,616,596.6666870117188,582.6666870117188,576,562.6666870117188,556,538,524.6666870117188,516.6666870117188,501.3333740234375,494,470.66668701171875,454,448,436.66668701171875,430,408.66668701171875,390.66668701171875,390.66668701171875,377.3333435058594,368.66668701171875,344.66668701171875,328.66668701171875,322,310,304,286.66668701171875,275.3333435058594,270,258.66668701171875,250.66668701171875,232.6666717529297,219.33334350585938,213.33334350585938,199.33334350585938,188.6666717529297,125.33334350585938,119.33334350585938,112.66667175292969,110.66667175292969,110,110,110,110,100,100,89.33333587646484],"timestamp_mouse":[10,32,48,68,88,109,129,148,168,188,208,228,249,268,288,309,328,348,368,388,408,429,448,468,488,508,529,548,568,588,609,628,648,669,688,709,729,749,769,788,808,829,848,868,889,908,928,949,968,989,1009,1028,1048,1068,1088,1108,1128,1148,1168,1188,1209,1228,1249,1268,1288,1308,1328,1351,1369,1388,1409,1428,1451,1470,1489,1509,1528,1550,1568,1589,1608,1628,1649,1668,1688,1709,1729,1751,1768,1789,1809,1829,1851,1869,1888,1908,1928,1950,1968,1988,2008,2028,2049,2068,2088,2108,2128,2148,2169,2189,2208,2229,2248,2269,2289,2309,2329,2348,2368,2389,2409,2429,2448,2470,2489,2508,2528,2574,2588,2608,2629,2648,2669,2688,2709,2728,2749,2768,2789,2808,2829,2848,2868,2888,2908,2929,2949,2970,2988,3008,3029,3048,3071,3088,3108,3128,3148,3171,3200,3209,3228,3248,3270,3289,3309,3328,3349,3369,3388,3408,3428,3449,3469,3488,3508,3529,3548,3569,3589,3608,3628,3648,3668,3689,3708,3728,3748,3771],"xSR":350,"ySR":768,"xT1":30,"yT1":0,"xT2":670,"yT2":0,"toosoon":0,"cond_shown":"Equal","ratio_trial":100,"L_num":6,"L_den":12,"R_num":6,"R_den":10,"correct_side":2,"subjID":"14","gender":"No_gender","school":"No_school","age":"No_age"},{"start_time":1452268460956,"click_time":1452268463645,"finger_time":1452268462584,"fix_duration":1109.7255391206177,"trial":4,"RT":1628,"MT":1061,"sideResp":2,"stimulus":[],"xmouse":[410.66668701171875,410.66668701171875,410.66668701171875,410.66668701171875,410.66668701171875,412.66668701171875,412.66668701171875,412.66668701171875,412.66668701171875,412.66668701171875,412.66668701171875,412.66668701171875,412.66668701171875,412.66668701171875,412.66668701171875,412.66668701171875,412.66668701171875,412.66668701171875,412.66668701171875,412.66668701171875,412.66668701171875,412.66668701171875,412.66668701171875,412.66668701171875,412.66668701171875,412.66668701171875,412.66668701171875,412.66668701171875,412.66668701171875,412.66668701171875,412.66668701171875,412.66668701171875,412.66668701171875,412.66668701171875,412.66668701171875,412.66668701171875,412.66668701171875,411.3333435058594,411.3333435058594,411.3333435058594,411.3333435058594,411.3333435058594,411.3333435058594,411.3333435058594,411.3333435058594,411.3333435058594,411.3333435058594,411.3333435058594,411.3333435058594,411.3333435058594,411.3333435058594,411.3333435058594,411.3333435058594,411.3333435058594,411.3333435058594,411.3333435058594,411.3333435058594,411.3333435058594,410.66668701171875,410.66668701171875,410.66668701171875,410.66668701171875,410.66668701171875,410.66668701171875,410.66668701171875,410.66668701171875,410.66668701171875,416,416.66668701171875,418,418.66668701171875,420,420,420,420,420,421.3333435058594,425.3333435058594,426.66668701171875,429.3333435058594,430,431.3333435058594,434,435.3333435058594,438,439.3333435058594,441.3333435058594,442,445.3333435058594,447.3333435058594,448.66668701171875,451.3333435058594,454,456,458.66668701171875,460.66668701171875,462,463.3333435058594,466.66668701171875,469.3333435058594,471.3333435058594,472,474.66668701171875,478,480,482.66668701171875,484.66668701171875,489.3333435058594,496.66668701171875,500,506.66668701171875,510,517.3333740234375,528.6666870117188,534.6666870117188,546.6666870117188,553.3333740234375,566,582,586,594.6666870117188,600,609.3333740234375,622,627.3333740234375,637.3333740234375,640.6666870117188,648.6666870117188,662,671.3333740234375,674,680.6666870117188,686,695.3333740234375,699.3333740234375],"ymouse":[827.3333740234375,827.3333740234375,827.3333740234375,827.3333740234375,827.3333740234375,824.6666870117188,824.6666870117188,825.3333740234375,825.3333740234375,825.3333740234375,825.3333740234375,825.3333740234375,825.3333740234375,825.3333740234375,825.3333740234375,825.3333740234375,825.3333740234375,824.6666870117188,824.6666870117188,824.6666870117188,824.6666870117188,824.6666870117188,824.6666870117188,824.6666870117188,825.3333740234375,825.3333740234375,825.3333740234375,826.6666870117188,826.6666870117188,826.6666870117188,826.6666870117188,826.6666870117188,826.6666870117188,826.6666870117188,826.6666870117188,826.6666870117188,826.6666870117188,828,828,828,828,828,828,828,828,828,828,828,826.6666870117188,826.6666870117188,826.6666870117188,826.6666870117188,826.6666870117188,826.6666870117188,826.6666870117188,826.6666870117188,826.6666870117188,826.6666870117188,824,824,824,824,824,824,824,824,824,795.3333740234375,793.3333740234375,792.6666870117188,793.3333740234375,794,794,794,794,794,780.6666870117188,775.3333740234375,773.3333740234375,769.3333740234375,768,764,756.6666870117188,754,748,745.3333740234375,740,737.3333740234375,728,721.3333740234375,717.3333740234375,710.6666870117188,702.6666870117188,696,688.6666870117188,681.3333740234375,678,675.3333740234375,666,660.6666870117188,654.6666870117188,652,644.6666870117188,634,629.3333740234375,620.6666870117188,616,606,588.6666870117188,580,564,556.6666870117188,541.3333740234375,514,500.66668701171875,476,462,432,398,386,361.3333435058594,349.3333435058594,326,290,278,256,245.33334350585938,224,194,172,163.33334350585938,144,129.33334350585938,107.33333587646484,94],"timestamp_mouse":[10,31,48,68,88,108,128,148,168,189,208,228,248,268,288,308,328,353,369,388,408,429,448,468,488,509,528,551,568,589,609,629,649,668,688,708,729,749,769,788,808,828,849,868,888,908,928,948,969,989,1008,1028,1049,1068,1088,1108,1128,1149,1168,1188,1208,1228,1248,1269,1288,1308,1328,1350,1368,1389,1408,1428,1448,1469,1489,1508,1528,1550,1568,1589,1608,1628,1650,1669,1688,1708,1729,1748,1768,1788,1809,1828,1849,1870,1888,1908,1928,1948,1969,1988,2008,2028,2049,2070,2088,2109,2128,2149,2169,2188,2208,2228,2249,2269,2289,2309,2328,2348,2369,2389,2408,2428,2448,2469,2488,2509,2529,2548,2568,2589,2608,2628,2649,2668,2688],"xSR":350,"ySR":768,"xT1":30,"yT1":0,"xT2":670,"yT2":0,"toosoon":0,"cond_shown":"Incongruent","ratio_trial":500,"L_num":7,"L_den":21,"R_num":5,"R_den":6,"correct_side":2,"subjID":"14","gender":"No_gender","school":"No_school","age":"No_age"},{"start_time":1452268464936,"click_time":1452268467705,"finger_time":1452268466444,"fix_duration":250,"trial":5,"RT":1508,"MT":1261,"sideResp":1,"stimulus":[],"xmouse":[404.66668701171875,406,407.3333435058594,407.3333435058594,407.3333435058594,406,406,406,406,406,406,406,406,395.3333435058594,393.3333435058594,392,391.3333435058594,390,389.3333435058594,388.66668701171875,387.3333435058594,386,385.3333435058594,385.3333435058594,385.3333435058594,386,386,386,386,386.66668701171875,386.66668701171875,386.66668701171875,387.3333435058594,387.3333435058594,387.3333435058594,388,388.66668701171875,388.66668701171875,389.3333435058594,389.3333435058594,389.3333435058594,389.3333435058594,389.3333435058594,389.3333435058594,389.3333435058594,389.3333435058594,389.3333435058594,390.66668701171875,390.66668701171875,390.66668701171875,390.66668701171875,390.66668701171875,390.66668701171875,390.66668701171875,390.66668701171875,390.66668701171875,390.66668701171875,385.3333435058594,385.3333435058594,385.3333435058594,385.3333435058594,384.66668701171875,384,383.3333435058594,383.3333435058594,382,380.66668701171875,380,378.66668701171875,378,375.3333435058594,374,373.3333435058594,371.3333435058594,370,366,363.3333435058594,360,358,356.66668701171875,350,346,344,339.3333435058594,334,330.66668701171875,320.66668701171875,317.3333435058594,310,306,291.3333435058594,288,282.66668701171875,270.66668701171875,263.3333435058594,244,241.33334350585938,238.6666717529297,234.6666717529297,233.33334350585938,223.33334350585938,221.33334350585938,218.6666717529297,213.33334350585938,210.6666717529297,202,196.6666717529297,193.33334350585938,188,184.6666717529297,174,166.6666717529297,163.33334350585938,158.6666717529297,156,148,142.6666717529297,139.33334350585938,132.6666717529297,129.33334350585938,122.66667175292969,117.33333587646484,114.66667175292969,110,108,102,98,96,92,90.66667175292969,85.33333587646484,82.66667175292969,81.33333587646484,79.33333587646484,78,74,72,70.66667175292969,68.66667175292969],"ymouse":[807.3333740234375,806,804,803.3333740234375,802,802,802,802,802,802,802,802,802,823.3333740234375,825.3333740234375,826.6666870117188,826.6666870117188,828,828.6666870117188,828.6666870117188,829.3333740234375,830,830,830.6666870117188,830.6666870117188,831.3333740234375,831.3333740234375,832,832.6666870117188,832.6666870117188,832.6666870117188,834,834.6666870117188,834.6666870117188,834.6666870117188,835.3333740234375,836.6666870117188,837.3333740234375,837.3333740234375,837.3333740234375,837.3333740234375,837.3333740234375,837.3333740234375,837.3333740234375,837.3333740234375,837.3333740234375,837.3333740234375,836,836,836,836,836,836,836,836,836,836,823.3333740234375,823.3333740234375,823.3333740234375,816.6666870117188,814.6666870117188,812.6666870117188,809.3333740234375,806.6666870117188,800,796,794,790.6666870117188,789.3333740234375,785.3333740234375,782,780.6666870117188,776,774,765.3333740234375,758,749.3333740234375,745.3333740234375,741.3333740234375,726.6666870117188,717.3333740234375,712.6666870117188,702.6666870117188,689.3333740234375,682,658.6666870117188,650.6666870117188,636,627.3333740234375,597.3333740234375,590,580.6666870117188,553.3333740234375,537.3333740234375,494.66668701171875,487.3333435058594,482.66668701171875,474,470,452,446.66668701171875,441.3333435058594,430,424,405.3333435058594,392.66668701171875,386,373.3333435058594,365.3333435058594,341.3333435058594,326.66668701171875,320,308.66668701171875,302.66668701171875,282.66668701171875,268.66668701171875,260.66668701171875,243.33334350585938,236.6666717529297,219.33334350585938,207.33334350585938,202,192,187.33334350585938,174,164,158.6666717529297,148.6666717529297,144,132.6666717529297,126.66667175292969,124,118.66667175292969,116.66667175292969,109.33333587646484,105.33333587646484,103.33333587646484,99.33333587646484],"timestamp_mouse":[13,38,49,68,89,108,129,149,168,189,208,228,249,268,290,308,328,349,368,388,408,428,448,468,488,509,528,548,568,589,608,628,648,668,689,708,728,748,769,789,808,829,849,868,888,908,928,949,968,989,1009,1029,1048,1068,1089,1109,1128,1148,1168,1188,1209,1228,1249,1268,1289,1309,1328,1349,1369,1389,1408,1428,1448,1468,1489,1508,1529,1548,1568,1588,1610,1629,1648,1668,1688,1708,1728,1748,1768,1789,1812,1829,1848,1869,1888,1910,1928,1948,1969,1988,2010,2028,2049,2068,2088,2109,2128,2148,2169,2188,2210,2228,2248,2268,2288,2310,2329,2348,2368,2388,2411,2428,2448,2469,2488,2510,2529,2548,2569,2588,2610,2629,2648,2668,2689,2710,2730,2748,2768],"xSR":350,"ySR":768,"xT1":30,"yT1":0,"xT2":670,"yT2":0,"toosoon":0,"cond_shown":"Equal","ratio_trial":500,"L_num":6,"L_den":8,"R_num":6,"R_den":24,"correct_side":1,"subjID":"14","gender":"No_gender","school":"No_school","age":"No_age"},{"start_time":1452268469605,"click_time":1452268472085,"finger_time":1452268471044,"fix_duration":933.6326539872566,"trial":6,"RT":1439,"MT":1041,"sideResp":1,"stimulus":[],"xmouse":[390,387.3333435058594,387.3333435058594,387.3333435058594,386.66668701171875,386.66668701171875,386.66668701171875,386.66668701171875,386.66668701171875,386,386,386,386,386,386,386,386,386,385.3333435058594,385.3333435058594,385.3333435058594,385.3333435058594,385.3333435058594,385.3333435058594,385.3333435058594,385.3333435058594,385.3333435058594,385.3333435058594,385.3333435058594,385.3333435058594,385.3333435058594,385.3333435058594,384.66668701171875,384.66668701171875,384.66668701171875,384.66668701171875,384.66668701171875,384.66668701171875,384.66668701171875,384.66668701171875,384.66668701171875,384.66668701171875,384.66668701171875,384,384,384,384,384,384,384,384,384,384,383.3333435058594,383.3333435058594,382.66668701171875,382.66668701171875,381.3333435058594,378,376,373.3333435058594,370.66668701171875,369.3333435058594,368,367.3333435058594,367.3333435058594,366,365.3333435058594,362,360,358.66668701171875,356,354,350.66668701171875,344.66668701171875,342.66668701171875,338.66668701171875,336.66668701171875,330.66668701171875,326.66668701171875,324.66668701171875,320,318,314,307.3333435058594,305.3333435058594,301.3333435058594,299.3333435058594,293.3333435058594,284,280.66668701171875,274.66668701171875,271.3333435058594,264,250.66668701171875,244.6666717529297,230,222.6666717529297,211.33334350585938,194,189.33334350585938,178.6666717529297,172.6666717529297,162.6666717529297,150,146,138,134.6666717529297,130,124.66667175292969,123.33334350585938,118.66667175292969,116.66667175292969,112,106.66667175292969,105.33333587646484,103.33333587646484,102,99.33333587646484,95.33333587646484,94,90.66667175292969,88.66667175292969,84,77.33333587646484],"ymouse":[824,822,822,821.3333740234375,821.3333740234375,820.6666870117188,820.6666870117188,820.6666870117188,820.6666870117188,820.6666870117188,820,819.3333740234375,819.3333740234375,818.6666870117188,818.6666870117188,818.6666870117188,818,818,817.3333740234375,817.3333740234375,816.6666870117188,816.6666870117188,816.6666870117188,816.6666870117188,816.6666870117188,816.6666870117188,816.6666870117188,816.6666870117188,816.6666870117188,816,816,816,815.3333740234375,815.3333740234375,815.3333740234375,815.3333740234375,815.3333740234375,814.6666870117188,814.6666870117188,814,814,814,813.3333740234375,813.3333740234375,813.3333740234375,812.6666870117188,812.6666870117188,812.6666870117188,812,812,812,812,811.3333740234375,811.3333740234375,810.6666870117188,810.6666870117188,810,808.6666870117188,807.3333740234375,806.6666870117188,806.6666870117188,806,806,804,802.6666870117188,801.3333740234375,799.3333740234375,797.3333740234375,790.6666870117188,784,780,771.3333740234375,766,757.3333740234375,744,739.3333740234375,731.3333740234375,726.6666870117188,712.6666870117188,702.6666870117188,698,687.3333740234375,682,670.6666870117188,653.3333740234375,647.3333740234375,635.3333740234375,629.3333740234375,612.6666870117188,589.3333740234375,581.3333740234375,564.6666870117188,556,538.6666870117188,511.3333740234375,498.66668701171875,466.66668701171875,450.66668701171875,422.66668701171875,385.3333435058594,373.3333435058594,350.66668701171875,339.3333435058594,316,285.3333435058594,277.3333435058594,256,246,232,215.33334350585938,209.33334350585938,197.33334350585938,191.33334350585938,180.6666717529297,167.33334350585938,163.33334350585938,157.33334350585938,154,147.33334350585938,136,131.33334350585938,122,116.66667175292969,105.33333587646484,87.33333587646484],"timestamp_mouse":[5,29,39,60,79,99,119,139,160,180,199,219,239,260,279,299,320,339,359,380,400,419,439,459,480,499,520,539,559,580,600,620,639,659,680,699,720,739,760,779,799,819,839,860,879,900,919,939,959,979,999,1019,1039,1060,1080,1099,1119,1140,1160,1179,1199,1220,1240,1260,1280,1300,1320,1339,1361,1379,1399,1420,1439,1460,1479,1499,1519,1539,1561,1580,1599,1619,1639,1659,1679,1699,1719,1739,1759,1779,1799,1820,1840,1860,1879,1900,1919,1939,1960,1979,1999,2019,2039,2060,2079,2099,2119,2139,2160,2179,2199,2219,2239,2260,2279,2300,2320,2339,2359,2380,2399,2419,2440,2459,2480],"xSR":350,"ySR":768,"xT1":30,"yT1":0,"xT2":670,"yT2":0,"toosoon":0,"cond_shown":"Equal","ratio_trial":500,"L_num":6,"L_den":8,"R_num":6,"R_den":24,"correct_side":1,"subjID":"14","gender":"No_gender","school":"No_school","age":"No_age"},{"start_time":1452268473620,"click_time":1452268476925,"finger_time":1452268476044,"fix_duration":594.4073954122674,"trial":7,"RT":2424,"MT":881,"sideResp":1,"stimulus":[],"xmouse":[385.3333435058594,385.3333435058594,385.3333435058594,385.3333435058594,385.3333435058594,385.3333435058594,385.3333435058594,385.3333435058594,385.3333435058594,385.3333435058594,385.3333435058594,385.3333435058594,385.3333435058594,385.3333435058594,385.3333435058594,386.66668701171875,386.66668701171875,386.66668701171875,386.66668701171875,385.3333435058594,385.3333435058594,384.66668701171875,384,384,384,384,383.3333435058594,383.3333435058594,384,384,384.66668701171875,384.66668701171875,384.66668701171875,384.66668701171875,384.66668701171875,384.66668701171875,384.66668701171875,384.66668701171875,384.66668701171875,384.66668701171875,392,392,392,392,393.3333435058594,393.3333435058594,394,394,394,394,394,393.3333435058594,393.3333435058594,393.3333435058594,393.3333435058594,393.3333435058594,392.66668701171875,392.66668701171875,392.66668701171875,392.66668701171875,392.66668701171875,392.66668701171875,392,392,391.3333435058594,391.3333435058594,391.3333435058594,390.66668701171875,390.66668701171875,390.66668701171875,390.66668701171875,390.66668701171875,390.66668701171875,390.66668701171875,390.66668701171875,390.66668701171875,390.66668701171875,390,390,390,389.3333435058594,389.3333435058594,389.3333435058594,389.3333435058594,388.66668701171875,388.66668701171875,388,388,388,388,388,388,387.3333435058594,387.3333435058594,387.3333435058594,386.66668701171875,386.66668701171875,386.66668701171875,386.66668701171875,386.66668701171875,386,386,386,386,383.3333435058594,382.66668701171875,382,381.3333435058594,380,378,377.3333435058594,375.3333435058594,374.66668701171875,372.66668701171875,369.3333435058594,367.3333435058594,366.66668701171875,365.3333435058594,363.3333435058594,360,359.3333435058594,358,357.3333435058594,355.3333435058594,353.3333435058594,347.3333435058594,345.3333435058594,342.66668701171875,336.66668701171875,332,324.66668701171875,323.3333435058594,319.3333435058594,318,314.66668701171875,310.66668701171875,308.66668701171875,306.66668701171875,305.3333435058594,300.66668701171875,298,296,291.3333435058594,288.66668701171875,276,263.3333435058594,256,246.6666717529297,242.6666717529297,226.6666717529297,215.33334350585938,210,198,192.6666717529297,176,164.6666717529297,158.6666717529297,148,141.33334350585938,130,113.33333587646484,109.33333587646484,102,96.66667175292969,90.66667175292969,80],"ymouse":[827.3333740234375,827.3333740234375,827.3333740234375,828,828,828,828.6666870117188,828.6666870117188,828.6666870117188,828.6666870117188,828.6666870117188,828.6666870117188,828.6666870117188,828.6666870117188,828.6666870117188,829.3333740234375,829.3333740234375,829.3333740234375,829.3333740234375,824.6666870117188,824.6666870117188,823.3333740234375,