[{"start_time":1549310092947,"click_time":1549310093444,"finger_time":1549310092952,"fix_duration":676.7764976256408,"trial":0,"RT":5,"MT":492,"sideResp":1,"stimulus":"img/900/randomdotsizeEA/L/10_Ratio_900_L_20_R_18.png","xmouse":[400,399.58599853515625,399.58599853515625,399.58599853515625,399.58599853515625,399.58599853515625,359.25299072265625,342.156005859375,329.1919860839844,317.0140075683594,307.98199462890625,288.49798583984375,276.5480041503906,263.9219970703125,246.80799865722656,230.26100158691406,199.08799743652344,187.3489990234375,173.77999877929688,159.1699981689453,141.33200073242188,125.62699890136719,92.9010009765625],"ymouse":[494,490.6669921875,490.6669921875,490.6669921875,490.6669921875,490.6669921875,443.447998046875,420.1310119628906,399.4540100097656,379.7799987792969,362.6319885253906,330.1130065917969,312.4330139160156,294.5,272.6440124511719,252.4949951171875,214.06500244140625,197.0229949951172,180.30999755859375,163.0970001220703,144.6649932861328,127.01998901367188,94.1500015258789],"timestamp_mouse":[5,84,97,117,137,157,178,197,217,237,257,278,297,317,337,357,381,397,425,437,457,477,497],"xSR":350,"ySR":451.2,"xT1":30,"yT1":0,"xT2":670,"yT2":0,"toosoon":0,"cond_shown":"randomdotsizeEA","ratio_trial":900,"smaller_num":"18","larger_num":"20","correct_side":1,"subjID":"15","gender":"No_gender","age":"No_age","school":"No_school","test":{"fix_dur":[250,1500],"timestim":400,"targets_dim":[100,100],"targets_relative_coord":[0.1,0.9],"size_stim":[880,420],"start_dim":[100,100],"size_start":[300,300],"size_fix":60,"samplingrate":20,"img_types":["equaldotsize","equaldotanddens","randomdotsize","randomdotsizeEA"],"ratios":[250,500,750,900],"rep_conds":10,"nTrials":176,"trials_to_rest":500,"Trials_order":[79,109,123,10,78,92,25,166,70,147,29,161,62,35,61,72,157,145,33,19,4,162,108,80,126,49,172,66,83,155,26,11,69,112,130,137,21,56,85,50,94,148,27,168,99,151,67,98,138,103,13,20,60,17,102,154,41,164,48,163,90,171,153,110,132,14,118,139,169,57,113,114,15,5,117,36,104,55,59,7,63,91,122,1,2,107,115,24,141,76,173,116,82,86,34,101,160,46,58,64,43,28,136,71,40,140,119,87,165,170,150,134,97,149,37,32,167,6,47,51,143,30,128,42,175,45,96,95,131,75,174,100,74,146,44,12,39,73,54,68,0,65,105,156,23,3,124,16,8,53,22,9,152,158,144,142,18,77,111,84,38,135,125,88,93,121,133,159,106,120,89,81,127,52,31,129],"cond_shown":["randomdotsizeEA","equaldotanddens","randomdotsizeEA","randomdotsize","randomdotsize","equaldotsize","equaldotanddens","randomdotsize","randomdotsize","randomdotsizeEA","equaldotanddens","equaldotanddens","randomdotsize","randomdotsizeEA","equaldotanddens","equaldotsize","equaldotanddens","equaldotanddens","equaldotanddens","randomdotsizeEA","equaldotsize","randomdotsize","equaldotsize","equaldotsize","randomdotsize","equaldotanddens","equaldotsize","randomdotsize","randomdotsizeEA","randomdotsizeEA","randomdotsize","randomdotsizeEA","equaldotanddens","equaldotsize","randomdotsize","equaldotanddens","equaldotanddens","equaldotsize","equaldotanddens","randomdotsize","randomdotsize","equaldotsize","randomdotsizeEA","equaldotsize","randomdotsizeEA","randomdotsizeEA","randomdotsizeEA","randomdotsize","randomdotsize","randomdotsizeEA","equaldotanddens","equaldotsize","equaldotsize","equaldotanddens","randomdotsize","randomdotsize","equaldotanddens","equaldotsize","equaldotsize","randomdotsizeEA","randomdotsize","randomdotsizeEA","equaldotanddens","randomdotsize","equaldotsize","randomdotsize","randomdotsize","randomdotsizeEA","equaldotanddens","equaldotanddens","equaldotanddens","randomdotsize","randomdotsizeEA","equaldotanddens","equaldotanddens","equaldotsize","equaldotsize","randomdotsizeEA","randomdotsizeEA","randomdotsizeEA","randomdotsizeEA","randomdotsizeEA","randomdotsize","equaldotanddens","randomdotsize","randomdotsizeEA","randomdotsizeEA","equaldotsize","equaldotanddens","equaldotsize","equaldotanddens","equaldotsize","randomdotsize","randomdotsize","randomdotsize","equaldotanddens","equaldotsize","randomdotsize","randomdotsize","equaldotsize","randomdotsizeEA","equaldotsize","equaldotsize","randomdotsizeEA","equaldotsize","equaldotsize","randomdotsizeEA","randomdotsizeEA","equaldotanddens","randomdotsize","randomdotsize","randomdotsize","equaldotanddens","equaldotanddens","equaldotanddens","equaldotsize","randomdotsizeEA","randomdotsize","randomdotsizeEA","randomdotsizeEA","randomdotsizeEA","randomdotsize","equaldotsize","randomdotsize","randomdotsizeEA","equaldotanddens","equaldotsize","randomdotsizeEA","randomdotsizeEA","randomdotsizeEA","randomdotsize","equaldotsize","randomdotsize","randomdotsize","equaldotsize","equaldotsize","randomdotsizeEA","equaldotanddens","randomdotsize","equaldotsize","equaldotsize","equaldotanddens","equaldotanddens","equaldotsize","randomdotsizeEA","randomdotsizeEA","equaldotsize","equaldotsize","equaldotsize","equaldotanddens","randomdotsize","equaldotanddens","equaldotsize","randomdotsize","equaldotsize","randomdotsize","randomdotsize","equaldotanddens","randomdotsizeEA","equaldotsize","randomdotsize","randomdotsizeEA","equaldotanddens","equaldotsize","equaldotanddens","equaldotanddens","equaldotanddens","randomdotsizeEA","randomdotsize","equaldotsize","equaldotanddens","equaldotanddens","randomdotsizeEA","equaldotsize","randomdotsizeEA","equaldotanddens"],"ratio_trial":[900,900,750,750,900,900,750,500,500,250,900,250,900,250,900,750,900,250,250,250,500,250,900,250,900,250,900,250,250,750,750,750,500,250,250,750,500,750,500,250,900,500,750,750,250,500,250,250,750,500,900,500,900,250,500,750,750,500,250,250,750,750,750,900,500,900,500,750,750,750,250,250,900,500,500,500,750,500,750,500,900,750,750,250,250,750,250,750,900,900,900,500,250,500,250,500,250,900,750,250,750,900,750,500,750,900,500,500,500,750,500,500,250,500,500,250,500,500,900,250,900,900,250,750,900,900,250,900,250,750,900,500,750,250,900,900,500,750,500,500,250,250,750,900,500,250,900,250,750,500,500,750,750,900,250,900,250,900,900,500,500,500,900,750,900,750,500,900,750,750,750,250,900,500,900,250],"smaller_num":["18","18","15","15","18","18","3","9","2","2","18","4","9","3","18","3","18","2","2","2","1","3","18","6","9","3","9","3","5","3","6","18","2","3","2","15","2","3","6","2","9","5","15","9","3","2","1","6","9","2","18","6","9","3","9","6","3","2","6","3","3","12","3","18","3","9","2","15","15","12","5","4","18","6","9","4","15","6","9","6","18","6","15","4","3","6","5","6","18","18","18","6","3","5","3","2","6","18","15","6","6","18","3","4","12","9","6","9","5","15","10","10","5","4","9","5","4","3","9","6","18","18","2","6","18","18","3","18","3","3","9","2","15","2","18","18","5","6","6","9","5","5","15","18","9","3","18","1","15","5","1","3","6","18","5","18","2","9","9","9","5","5","18","3","18","3","2","9","18","3","3","2","18","6","9","6"],"larger_num":["20","20","20","20","20","20","4","18","4","8","20","16","10","12","20","4","20","8","8","8","2","12","20","24","10","12","10","12","20","4","8","24","4","12","8","20","4","4","12","8","10","10","20","12","12","4","4","24","12","4","20","12","10","12","18","8","4","4","24","12","4","16","4","20","6","10","4","20","20","16","20","16","20","12","18","8","20","12","12","12","20","8","20","16","12","8","20","8","20","20","20","12","12","10","12","4","24","20","20","24","8","20","4","8","16","10","12","18","10","20","20","20","20","8","18","20","8","6","10","24","20","20","8","8","20","20","12","20","12","4","10","4","20","8","20","20","10","8","12","18","20","20","20","20","18","12","20","4","20","10","2","4","8","20","20","20","8","10","10","18","10","10","20","4","20","4","4","10","24","4","4","8","20","12","10","24"],"correct_side":[1,1,1,1,2,2,1,2,2,1,1,2,1,2,1,1,2,1,1,1,2,2,1,1,2,2,2,1,2,1,2,1,2,2,2,2,2,1,1,1,1,2,1,2,2,2,2,1,2,2,2,1,2,1,1,1,2,1,2,1,2,2,1,1,2,2,1,1,1,2,2,1,1,1,1,1,2,1,2,1,2,1,2,1,2,1,2,1,1,1,1,1,1,1,1,2,2,2,2,2,2,1,1,1,2,2,1,2,1,2,2,2,2,1,2,2,1,2,2,2,1,2,1,1,1,2,1,2,2,1,2,1,2,1,1,2,1,1,1,2,2,2,2,1,1,1,1,2,2,2,2,1,1,2,2,1,1,2,1,1,1,1,1,1,1,2,1,1,1,1,2,2,1,1,2,2],"img_shown":["img/900/randomdotsizeEA/L/10_Ratio_900_L_20_R_18.png","img/900/equaldotanddens/L/10_Ratio_900_L_20_R_18.png","img/750/randomdotsizeEA/L/1_Ratio_750_L_20_R_15.png","img/750/randomdotsize/L/1_Ratio_750_L_20_R_15.png","img/900/randomdotsize/R/11_Ratio_900_L_18_R_20.png","img/900/equaldotsize/R/9_Ratio_900_L_18_R_20.png","img/750/equaldotanddens/L/10_Ratio_750_L_4_R_3.png","img/500/randomdotsize/R/1_Ratio_500_L_9_R_18.png","img/500/randomdotsize/R/9_Ratio_500_L_2_R_4.png","img/250/randomdotsizeEA/L/1_Ratio_250_L_8_R_2.png","img/900/equaldotanddens/L/4_Ratio_900_L_20_R_18.png","img/250/equaldotanddens/R/10_Ratio_250_L_4_R_16.png","img/900/randomdotsize/L/1_Ratio_900_L_10_R_9.png","img/250/randomdotsizeEA/R/4_Ratio_250_L_3_R_12.png","img/900/equaldotanddens/L/2_Ratio_900_L_20_R_18.png","img/750/equaldotsize/L/8_Ratio_750_L_4_R_3.png","img/900/equaldotanddens/R/11_Ratio_900_L_18_R_20.png","img/250/equaldotanddens/L/1_Ratio_250_L_8_R_2.png","img/250/equaldotanddens/L/1_Ratio_250_L_8_R_2.png","img/250/randomdotsizeEA/L/7_Ratio_250_L_8_R_2.png","img/500/equaldotsize/R/12_Ratio_500_L_1_R_2.png","img/250/randomdotsize/R/4_Ratio_250_L_3_R_12.png","img/900/equaldotsize/L/8_Ratio_900_L_20_R_18.png","img/250/equaldotsize/L/5_Ratio_250_L_24_R_6.png","img/900/randomdotsize/R/7_Ratio_900_L_9_R_10.png","img/250/equaldotanddens/R/4_Ratio_250_L_3_R_12.png","img/900/equaldotsize/R/5_Ratio_900_L_9_R_10.png","img/250/randomdotsize/L/14_Ratio_250_L_12_R_3.png","img/250/randomdotsizeEA/R/12_Ratio_250_L_5_R_20.png","img/750/randomdotsizeEA/L/8_Ratio_750_L_4_R_3.png","img/750/randomdotsize/R/2_Ratio_750_L_6_R_8.png","img/750/randomdotsizeEA/L/6_Ratio_750_L_24_R_18.png","img/500/equaldotanddens/R/9_Ratio_500_L_2_R_4.png","img/250/equaldotsize/R/11_Ratio_250_L_3_R_12.png","img/250/randomdotsize/R/13_Ratio_250_L_2_R_8.png","img/750/equaldotanddens/R/5_Ratio_750_L_15_R_20.png","img/500/equaldotanddens/R/9_Ratio_500_L_2_R_4.png","img/750/equaldotsize/L/8_Ratio_750_L_4_R_3.png","img/500/equaldotanddens/L/11_Ratio_500_L_12_R_6.png","img/250/randomdotsize/L/1_Ratio_250_L_8_R_2.png","img/900/randomdotsize/L/1_Ratio_900_L_10_R_9.png","img/500/equaldotsize/R/14_Ratio_500_L_5_R_10.png","img/750/randomdotsizeEA/L/1_Ratio_750_L_20_R_15.png","img/750/equaldotsize/R/15_Ratio_750_L_9_R_12.png","img/250/randomdotsizeEA/R/9_Ratio_250_L_3_R_12.png","img/500/randomdotsizeEA/R/9_Ratio_500_L_2_R_4.png","img/250/randomdotsizeEA/R/8_Ratio_250_L_1_R_4.png","img/250/randomdotsize/L/5_Ratio_250_L_24_R_6.png","img/750/randomdotsize/R/15_Ratio_750_L_9_R_12.png","img/500/randomdotsizeEA/R/9_Ratio_500_L_2_R_4.png","img/900/equaldotanddens/R/13_Ratio_900_L_18_R_20.png","img/500/equaldotsize/L/13_Ratio_500_L_12_R_6.png","img/900/equaldotsize/R/5_Ratio_900_L_9_R_10.png","img/250/equaldotanddens/L/14_Ratio_250_L_12_R_3.png","img/500/randomdotsize/L/4_Ratio_500_L_18_R_9.png","img/750/randomdotsize/L/13_Ratio_750_L_8_R_6.png","img/750/equaldotanddens/R/7_Ratio_750_L_3_R_4.png","img/500/equaldotsize/L/5_Ratio_500_L_4_R_2.png","img/250/equaldotsize/R/6_Ratio_250_L_6_R_24.png","img/250/randomdotsizeEA/L/14_Ratio_250_L_12_R_3.png","img/750/randomdotsize/R/12_Ratio_750_L_3_R_4.png","img/750/randomdotsizeEA/R/11_Ratio_750_L_12_R_16.png","img/750/equaldotanddens/L/8_Ratio_750_L_4_R_3.png","img/900/randomdotsize/L/10_Ratio_900_L_20_R_18.png","img/500/equaldotsize/R/2_Ratio_500_L_3_R_6.png","img/900/randomdotsize/R/5_Ratio_900_L_9_R_10.png","img/500/randomdotsize/L/10_Ratio_500_L_4_R_2.png","img/750/randomdotsizeEA/L/1_Ratio_750_L_20_R_15.png","img/750/equaldotanddens/L/1_Ratio_750_L_20_R_15.png","img/750/equaldotanddens/R/11_Ratio_750_L_12_R_16.png","img/250/equaldotanddens/R/12_Ratio_250_L_5_R_20.png","img/250/randomdotsize/L/2_Ratio_250_L_16_R_4.png","img/900/randomdotsizeEA/L/8_Ratio_900_L_20_R_18.png","img/500/equaldotanddens/L/11_Ratio_500_L_12_R_6.png","img/500/equaldotanddens/L/4_Ratio_500_L_18_R_9.png","img/500/equaldotsize/L/8_Ratio_500_L_8_R_4.png","img/750/equaldotsize/R/4_Ratio_750_L_15_R_20.png","img/500/randomdotsizeEA/L/13_Ratio_500_L_12_R_6.png","img/750/randomdotsizeEA/R/15_Ratio_750_L_9_R_12.png","img/500/randomdotsizeEA/L/13_Ratio_500_L_12_R_6.png","img/900/randomdotsizeEA/R/14_Ratio_900_L_18_R_20.png","img/750/randomdotsizeEA/L/14_Ratio_750_L_8_R_6.png","img/750/randomdotsize/R/3_Ratio_750_L_15_R_20.png","img/250/equaldotanddens/L/2_Ratio_250_L_16_R_4.png","img/250/randomdotsize/R/4_Ratio_250_L_3_R_12.png","img/750/randomdotsizeEA/L/13_Ratio_750_L_8_R_6.png","img/250/randomdotsizeEA/R/12_Ratio_250_L_5_R_20.png","img/750/equaldotsize/L/13_Ratio_750_L_8_R_6.png","img/900/equaldotanddens/L/4_Ratio_900_L_20_R_18.png","img/900/equaldotsize/L/10_Ratio_900_L_20_R_18.png","img/900/equaldotanddens/L/10_Ratio_900_L_20_R_18.png","img/500/equaldotsize/L/13_Ratio_500_L_12_R_6.png","img/250/randomdotsize/L/15_Ratio_250_L_12_R_3.png","img/500/randomdotsize/L/7_Ratio_500_L_10_R_5.png","img/250/randomdotsize/L/14_Ratio_250_L_12_R_3.png","img/500/equaldotanddens/R/9_Ratio_500_L_2_R_4.png","img/250/equaldotsize/R/6_Ratio_250_L_6_R_24.png","img/900/randomdotsize/R/12_Ratio_900_L_18_R_20.png","img/750/randomdotsize/R/3_Ratio_750_L_15_R_20.png","img/250/equaldotsize/R/6_Ratio_250_L_6_R_24.png","img/750/randomdotsizeEA/R/2_Ratio_750_L_6_R_8.png","img/900/equaldotsize/L/8_Ratio_900_L_20_R_18.png","img/750/equaldotsize/L/10_Ratio_750_L_4_R_3.png","img/500/randomdotsizeEA/L/8_Ratio_500_L_8_R_4.png","img/750/equaldotsize/R/11_Ratio_750_L_12_R_16.png","img/900/equaldotsize/R/7_Ratio_900_L_9_R_10.png","img/500/randomdotsizeEA/L/11_Ratio_500_L_12_R_6.png","img/500/randomdotsizeEA/R/6_Ratio_500_L_9_R_18.png","img/500/equaldotanddens/L/7_Ratio_500_L_10_R_5.png","img/750/randomdotsize/R/4_Ratio_750_L_15_R_20.png","img/500/randomdotsize/R/3_Ratio_500_L_10_R_20.png","img/500/randomdotsize/R/3_Ratio_500_L_10_R_20.png","img/250/equaldotanddens/R/12_Ratio_250_L_5_R_20.png","img/500/equaldotanddens/L/8_Ratio_500_L_8_R_4.png","img/500/equaldotanddens/R/1_Ratio_500_L_9_R_18.png","img/250/equaldotsize/R/12_Ratio_250_L_5_R_20.png","img/500/randomdotsizeEA/L/8_Ratio_500_L_8_R_4.png","img/500/randomdotsize/R/2_Ratio_500_L_3_R_6.png","img/900/randomdotsizeEA/R/6_Ratio_900_L_9_R_10.png","img/250/randomdotsizeEA/R/6_Ratio_250_L_6_R_24.png","img/900/randomdotsizeEA/L/10_Ratio_900_L_20_R_18.png","img/900/randomdotsize/R/12_Ratio_900_L_18_R_20.png","img/250/equaldotsize/L/3_Ratio_250_L_8_R_2.png","img/750/randomdotsize/L/14_Ratio_750_L_8_R_6.png","img/900/randomdotsizeEA/L/2_Ratio_900_L_20_R_18.png","img/900/equaldotanddens/R/14_Ratio_900_L_18_R_20.png","img/250/equaldotsize/L/15_Ratio_250_L_12_R_3.png","img/900/randomdotsizeEA/R/13_Ratio_900_L_18_R_20.png","img/250/randomdotsizeEA/R/11_Ratio_250_L_3_R_12.png","img/750/randomdotsizeEA/L/10_Ratio_750_L_4_R_3.png","img/900/randomdotsize/R/3_Ratio_900_L_9_R_10.png","img/500/equaldotsize/L/10_Ratio_500_L_4_R_2.png","img/750/randomdotsize/R/4_Ratio_750_L_15_R_20.png","img/250/randomdotsize/L/1_Ratio_250_L_8_R_2.png","img/900/equaldotsize/L/4_Ratio_900_L_20_R_18.png","img/900/equaldotsize/R/12_Ratio_900_L_18_R_20.png","img/500/randomdotsizeEA/L/7_Ratio_500_L_10_R_5.png","img/750/equaldotanddens/L/14_Ratio_750_L_8_R_6.png","img/500/randomdotsize/L/11_Ratio_500_L_12_R_6.png","img/500/equaldotsize/R/1_Ratio_500_L_9_R_18.png","img/250/equaldotsize/R/12_Ratio_250_L_5_R_20.png","img/250/equaldotanddens/R/12_Ratio_250_L_5_R_20.png","img/750/equaldotanddens/R/5_Ratio_750_L_15_R_20.png","img/900/equaldotsize/L/2_Ratio_900_L_20_R_18.png","img/500/randomdotsizeEA/L/4_Ratio_500_L_18_R_9.png","img/250/randomdotsizeEA/L/14_Ratio_250_L_12_R_3.png","img/900/equaldotsize/L/2_Ratio_900_L_20_R_18.png","img/250/equaldotsize/R/8_Ratio_250_L_1_R_4.png","img/750/equaldotsize/R/3_Ratio_750_L_15_R_20.png","img/500/equaldotanddens/R/14_Ratio_500_L_5_R_10.png","img/500/randomdotsize/R/12_Ratio_500_L_1_R_2.png","img/750/equaldotanddens/L/8_Ratio_750_L_4_R_3.png","img/750/equaldotsize/L/13_Ratio_750_L_8_R_6.png","img/900/randomdotsize/R/9_Ratio_900_L_18_R_20.png","img/250/equaldotsize/R/12_Ratio_250_L_5_R_20.png","img/900/randomdotsize/L/10_Ratio_900_L_20_R_18.png","img/250/randomdotsize/L/7_Ratio_250_L_8_R_2.png","img/900/equaldotanddens/R/6_Ratio_900_L_9_R_10.png","img/900/randomdotsizeEA/L/1_Ratio_900_L_10_R_9.png","img/500/equaldotsize/L/4_Ratio_500_L_18_R_9.png","img/500/randomdotsize/L/7_Ratio_500_L_10_R_5.png","img/500/randomdotsizeEA/L/7_Ratio_500_L_10_R_5.png","img/900/equaldotanddens/L/8_Ratio_900_L_20_R_18.png","img/750/equaldotsize/L/8_Ratio_750_L_4_R_3.png","img/900/equaldotanddens/L/2_Ratio_900_L_20_R_18.png","img/750/equaldotanddens/R/7_Ratio_750_L_3_R_4.png","img/500/equaldotanddens/L/10_Ratio_500_L_4_R_2.png","img/900/randomdotsizeEA/L/1_Ratio_900_L_10_R_9.png","img/750/randomdotsize/L/6_Ratio_750_L_24_R_18.png","img/750/equaldotsize/L/9_Ratio_750_L_4_R_3.png","img/750/equaldotanddens/R/7_Ratio_750_L_3_R_4.png","img/250/equaldotanddens/R/13_Ratio_250_L_2_R_8.png","img/900/randomdotsizeEA/L/10_Ratio_900_L_20_R_18.png","img/500/equaldotsize/L/11_Ratio_500_L_12_R_6.png","img/900/randomdotsizeEA/R/15_Ratio_900_L_9_R_10.png","img/250/equaldotanddens/R/6_Ratio_250_L_6_R_24.png"],"Rat0":[["12_Ratio_0_L_9_R_0.png","13_Ratio_0_L_6_R_0.png","5_Ratio_0_L_2_R_0.png","6_Ratio_0_L_4_R_0.png","8_Ratio_0_L_6_R_0.png"],["1_Ratio_0_L_0_R_17.png","10_Ratio_0_L_0_R_22.png","11_Ratio_0_L_0_R_1.png","14_Ratio_0_L_0_R_24.png","15_Ratio_0_L_0_R_4.png","2_Ratio_0_L_0_R_5.png","3_Ratio_0_L_0_R_17.png","4_Ratio_0_L_0_R_7.png","7_Ratio_0_L_0_R_19.png","9_Ratio_0_L_0_R_15.png"]],"Rat250":[["1_Ratio_250_L_8_R_2.png","14_Ratio_250_L_12_R_3.png","15_Ratio_250_L_12_R_3.png","2_Ratio_250_L_16_R_4.png","3_Ratio_250_L_8_R_2.png","5_Ratio_250_L_24_R_6.png","7_Ratio_250_L_8_R_2.png"],["10_Ratio_250_L_4_R_16.png","11_Ratio_250_L_3_R_12.png","12_Ratio_250_L_5_R_20.png","13_Ratio_250_L_2_R_8.png","4_Ratio_250_L_3_R_12.png","6_Ratio_250_L_6_R_24.png","8_Ratio_250_L_1_R_4.png","9_Ratio_250_L_3_R_12.png"]],"Rat500":[["10_Ratio_500_L_4_R_2.png","11_Ratio_500_L_12_R_6.png","13_Ratio_500_L_12_R_6.png","4_Ratio_500_L_18_R_9.png","5_Ratio_500_L_4_R_2.png","7_Ratio_500_L_10_R_5.png","8_Ratio_500_L_8_R_4.png"],["1_Ratio_500_L_9_R_18.png","12_Ratio_500_L_1_R_2.png","14_Ratio_500_L_5_R_10.png","15_Ratio_500_L_1_R_2.png","2_Ratio_500_L_3_R_6.png","3_Ratio_500_L_10_R_20.png","6_Ratio_500_L_9_R_18.png","9_Ratio_500_L_2_R_4.png"]],"Rat750":[["1_Ratio_750_L_20_R_15.png","10_Ratio_750_L_4_R_3.png","13_Ratio_750_L_8_R_6.png","14_Ratio_750_L_8_R_6.png","6_Ratio_750_L_24_R_18.png","8_Ratio_750_L_4_R_3.png","9_Ratio_750_L_4_R_3.png"],["11_Ratio_750_L_12_R_16.png","12_Ratio_750_L_3_R_4.png","15_Ratio_750_L_9_R_12.png","2_Ratio_750_L_6_R_8.png","3_Ratio_750_L_15_R_20.png","4_Ratio_750_L_15_R_20.png","5_Ratio_750_L_15_R_20.png","7_Ratio_750_L_3_R_4.png"]],"Rat900":[["1_Ratio_900_L_10_R_9.png","10_Ratio_900_L_20_R_18.png","2_Ratio_900_L_20_R_18.png","4_Ratio_900_L_20_R_18.png","8_Ratio_900_L_20_R_18.png"],["11_Ratio_900_L_18_R_20.png","12_Ratio_900_L_18_R_20.png","13_Ratio_900_L_18_R_20.png","14_Ratio_900_L_18_R_20.png","15_Ratio_900_L_9_R_10.png","3_Ratio_900_L_9_R_10.png","5_Ratio_900_L_9_R_10.png","6_Ratio_900_L_9_R_10.png","7_Ratio_900_L_9_R_10.png","9_Ratio_900_L_18_R_20.png"]],"Rat1000":[["10_Ratio_1000_L_16_R_16.png","11_Ratio_1000_L_6_R_6.png","12_Ratio_1000_L_14_R_14.png","13_Ratio_1000_L_20_R_20.png","15_Ratio_1000_L_15_R_15.png","2_Ratio_1000_L_17_R_17.png","4_Ratio_1000_L_9_R_9.png","5_Ratio_1000_L_6_R_6.png","6_Ratio_1000_L_19_R_19.png","8_Ratio_1000_L_14_R_14.png","9_Ratio_1000_L_25_R_25.png"],["1_Ratio_1000_L_1_R_1.png","14_Ratio_1000_L_17_R_17.png","3_Ratio_1000_L_17_R_17.png","7_Ratio_1000_L_6_R_6.png"]]}},{"start_time":1549310096935,"click_time":1549310098785,"finger_time":1549310098005,"fix_duration":884.6342600680354,"trial":1,"RT":1070,"MT":780,"sideResp":1,"stimulus":"img/900/equaldotanddens/L/10_Ratio_900_L_20_R_18.png","xmouse":[396.6669921875,396.6669921875,396.6669921875,396.6669921875,396.6669921875,396.6669921875,396.6669921875,396.6669921875,396.6669921875,396.6669921875,396.6669921875,396.6669921875,398.75201416015625,398.75201416015625,398.75201416015625,398.75201416015625,398.75201416015625,398.75201416015625,398.75201416015625,398.75201416015625,398.75201416015625,398.75201416015625,398.75201416015625,400.6669921875,400.6669921875,400.6669921875,400.6669921875,400.6669921875,400.6669921875,400.6669921875,400.6669921875,400.6669921875,400.6669921875,401.3330078125,401.3330078125,401.3330078125,401.3330078125,401.3330078125,401.3330078125,401.3330078125,401.3330078125,401.3330078125,401.3330078125,401.3330078125,400.6669921875,399.70001220703125,400.6669921875,401.78399658203125,403.7330017089844,410.3580017089844,414.34698486328125,419.35699462890625,423.7049865722656,427.35400390625,434.49200439453125,437.0069885253906,439.3009948730469,440.7300109863281,442.468994140625,444.6300048828125,445.3330078125,445.3330078125,444.8080139160156,444.6669921875,442.9110107421875,441.8500061035156,440.19500732421875,439.00799560546875,433.75799560546875,418.61199951171875,404.54901123046875,389.10400390625,373.5190124511719,356.8169860839844,321.6449890136719,304.5360107421875,287.26800537109375,270.1090087890625,253.94598388671875,223.08399963378906,208.9010009765625,196.25399780273438,184,172.46600341796875,152.05499267578125,143.77699279785156,135.9029998779297,127.99200439453125,120.02899169921875,105.4990005493164,99.10900115966797],"ymouse":[825.8740234375,825.8740234375,825.8740234375,825.8740234375,825.8740234375,825.8740234375,825.8740234375,825.8740234375,825.8740234375,825.8740234375,825.8740234375,825.8740234375,826.6669921875,826.6669921875,826.6669921875,826.6669921875,826.6669921875,826.6669921875,826.6669921875,826.6669921875,826.6669921875,826.6669921875,826.6669921875,828.6669921875,828.6669921875,828.6669921875,828.6669921875,828.6669921875,828.6669921875,828.6669921875,828.6669921875,828.6669921875,828.6669921875,829.3330078125,829.3330078125,829.3330078125,829.3330078125,829.3330078125,829.3330078125,829.3330078125,829.3330078125,829.3330078125,829.3330078125,829.3330078125,821.5969848632812,811.1649780273438,804.4320068359375,798.4149780273438,792.1339721679688,779.2849731445312,772.0590209960938,765.6309814453125,759.1090087890625,753.2979736328125,743.343994140625,739.6599731445312,735.3989868164062,733.2069702148438,729.926025390625,724.7760009765625,722.9609985351562,721.093017578125,718.948974609375,717.72802734375,713.155029296875,711.0330200195312,707.6259765625,702.3720092773438,690.802001953125,659.2239990234375,633.6079711914062,609.8410034179688,586.6119995117188,563.0910034179688,514.1859741210938,489.1369934082031,464.9110107421875,441.3529968261719,415.7799987792969,372.3169860839844,350.07000732421875,327.6109924316406,305,282.3450012207031,237.46299743652344,217.10800170898438,196.1020050048828,176.26499938964844,157.23500061035156,118.49800109863281,99.3280029296875],"timestamp_mouse":[67,69,90,110,130,150,170,190,210,230,250,270,290,310,330,350,370,390,410,430,450,470,490,510,530,550,570,590,610,630,650,670,690,710,730,750,770,790,810,830,850,870,890,910,930,950,970,990,1010,1030,1050,1070,1090,1110,1130,1150,1170,1190,1210,1230,1250,1270,1290,1310,1330,1350,1370,1390,1410,1430,1451,1470,1490,1510,1530,1550,1570,1591,1610,1630,1650,1670,1690,1710,1730,1750,1770,1790,1810,1830,1850],"xSR":350,"ySR":768,"xT1":30,"yT1":0,"xT2":670,"yT2":0,"toosoon":0,"cond_shown":"equaldotanddens","ratio_trial":900,"smaller_num":"18","larger_num":"20","correct_side":1,"subjID":"15","gender":"No_gender","age":"No_age","school":"No_school"},{"start_time":1549310100538,"click_time":1549310101926,"finger_time":1549310101585,"fix_duration":427.51405309122225,"trial":2,"RT":1047,"MT":341,"sideResp":2,"stimulus":"img/750/randomdotsizeEA/L/1_Ratio_750_L_20_R_15.png","xmouse":[419.3330078125,420,420,420,420,420,420,420,420,420,420,420,420,420,420,420,420,420,420,420,420,420,420,420,420,420,420,420,420,420,420,420,420,420,420,420,420,420,420,420,420,420,420,420,420,421.9179992675781,421.9179992675781,425.1619873046875,427.1499938964844,431.2340087890625,465.12799072265625,489.6570129394531,512.385009765625,535.0029907226562,555.8579711914062,598.406005859375,617.4329833984375,631.1599731445312,646.8909912109375,660.8319702148438,680.9180297851562,686.7659912109375,690.9769897460938,694.64599609375,697.5089721679688,699.56298828125,699.968017578125,700],"ymouse":[820.6669921875,823,823,823,824,824,824,824,824,824,824,824,824,824,824,822,822,822,822,822,822,822,822,822,822,822,822,822,822,822,822,822,822,822,824,825,825,825,825,825,825,825,825,825,825,812.3280029296875,812.3280029296875,800.0180053710938,795.7009887695312,787.4929809570312,725.2329711914062,673.780029296875,624.0150146484375,574.468994140625,523.9400024414062,421.0369873046875,374.31500244140625,336.5190124511719,298.44000244140625,263.1199951171875,210.8300018310547,189.75599670410156,170.85000610351562,154.1269989013672,140.572998046875,119.49600219726562,110.28700256347656,99],"timestamp_mouse":[9,82,87,107,127,147,167,187,207,227,247,267,287,307,328,347,367,387,407,427,447,467,487,507,527,547,567,587,607,627,647,667,687,707,727,747,767,787,807,827,847,867,887,907,927,949,967,987,1007,1027,1047,1067,1087,1108,1127,1149,1168,1187,1207,1228,1249,1267,1287,1308,1328,1349,1368,1388],"xSR":350,"ySR":768,"xT1":30,"yT1":0,"xT2":670,"yT2":0,"toosoon":0,"cond_shown":"randomdotsizeEA","ratio_trial":750,"smaller_num":"15","larger_num":"20","correct_side":1,"subjID":"15","gender":"No_gender","age":"No_age","school":"No_school"},{"start_time":1549310103926,"click_time":1549310105410,"finger_time":1549310104966,"fix_duration":599.530549397375,"trial":3,"RT":1040,"MT":444,"sideResp":1,"stimulus":"img/750/randomdotsize/L/1_Ratio_750_L_20_R_15.png","xmouse":[397,397,397,397,397,397,401.3330078125,401.3330078125,401.3330078125,401.3330078125,401.3330078125,401.3330078125,401.3330078125,401.3330078125,401.3330078125,400,400,400,400,400.5539855957031,400.6669921875,400.6669921875,401.3330078125,401.3330078125,401.3330078125,401.3330078125,401.3330078125,401.3330078125,401.3330078125,401.3330078125,401.3330078125,401.3330078125,406.6809997558594,406.6809997558594,406.6809997558594,406.6809997558594,406.6809997558594,406.6809997558594,406.6809997558594,406.6809997558594,406.6809997558594,406.6809997558594,401.33099365234375,399.85400390625,398.5090026855469,397.4330139160156,396.35400390625,391.9490051269531,389.6239929199219,383.1080017089844,371.98699951171875,358.64300537109375,334.1289978027344,318.5849914550781,304.22198486328125,289.9649963378906,273.6809997558594,241.86099243164062,226.82400512695312,210.58700561523438,195.63999938964844,180.70599365234375,154.76800537109375,142.25900268554688,130.6540069580078,120.74700164794922,112.61399841308594,98.2300033569336,94.04199981689453,90.81099700927734,87.5770034790039,83.677001953125,76.56800079345703],"ymouse":[822,822,822,822,822,822,822.9359741210938,822.9359741210938,822.9359741210938,822.9359741210938,822.9359741210938,822.9359741210938,822.9359741210938,822.9359741210938,822.9359741210938,816,816,816,816,816.6669921875,816.6669921875,816.6669921875,817.3330078125,817.3330078125,817.3330078125,817.3330078125,817.3330078125,817.3330078125,817.3330078125,817.3330078125,817.3330078125,817.3330078125,821.3330078125,821.3330078125,821.3330078125,821.3330078125,821.3330078125,821.3330078125,821.3330078125,821.3330078125,821.3330078125,821.3330078125,809.9940185546875,807.447998046875,804.1939697265625,800.9660034179688,798.7080078125,791.4869995117188,787.2470092773438,776.7559814453125,752.8800048828125,722.9730224609375,662.5239868164062,628.47900390625,590.8889770507812,553.18798828125,514.7009887695312,438.8659973144531,403.18798828125,368.99200439453125,336.24700927734375,307.0830078125,253.91799926757812,229.38499450683594,207.9759979248047,188.16000366210938,168.8179931640625,142.3000030517578,130.77099609375,122.55999755859375,114.20599365234375,104.91699981689453,86.40299987792969],"timestamp_mouse":[6,74,81,100,120,140,162,180,200,220,240,260,280,300,320,340,360,380,402,420,440,460,480,500,520,540,560,580,600,620,640,660,680,700,720,740,760,781,800,820,840,860,880,900,920,940,960,980,1000,1020,1040,1060,1082,1100,1125,1140,1161,1183,1200,1221,1240,1261,1281,1300,1321,1340,1361,1384,1400,1421,1440,1461,1483],"xSR":350,"ySR":768,"xT1":30,"yT1":0,"xT2":670,"yT2":0,"toosoon":0,"cond_shown":"randomdotsize","ratio_trial":750,"smaller_num":"15","larger_num":"20","correct_side":1,"subjID":"15","gender":"No_gender","age":"No_age","school":"No_school"},{"start_time":1549310107975,"click_time":1549310109909,"finger_time":1549310109007,"fix_duration":846.7409884151074,"trial":4,"RT":1032,"MT":902,"sideResp":2,"stimulus":"img/900/randomdotsize/R/11_Ratio_900_L_18_R_20.png","xmouse":[383.6470031738281,383.6470031738281,383.6470031738281,383.6470031738281,383.6470031738281,379.3330078125,379.3330078125,379.3330078125,379.3330078125,379.3330078125,379.3330078125,379.3330078125,379.3330078125,379.3330078125,379.3330078125,379.3330078125,379.3330078125,379.3330078125,379.3330078125,379.3330078125,379.3330078125,379.3330078125,379.3330078125,379.3330078125,379.3330078125,383,383,383,383,383,383.9880065917969,383.9880065917969,383.9880065917969,384,384,384,384,383,383,383,383,383,383,383,383,383,383,367.0679931640625,357.9469909667969,347.38299560546875,326.8269958496094,317.1409912109375,308.76800537109375,290.8139953613281,290.8139953613281,274.9110107421875,265.7640075683594,257.96099853515625,251.50701904296875,244.97799682617188,234.99099731445312,232.50999450683594,229.2689971923828,226.03599548339844,224.53500366210938,222.12399291992188,222.96499633789062,222.96499633789062,222.96499633789062,222.96499633789062,271.4779968261719,305.2650146484375,340.5119934082031,375.0469970703125,408.8840026855469,479.3890075683594,511.8890075683594,540.0360107421875,560.6859741210938,577.0830078125,604.2680053710938,615.7269897460938,626.5339965820312,631.1300048828125,637.7239990234375,647.06298828125,650.5560302734375,655.0490112304688,658.6749877929688,661.5830078125,665.8350219726562,667.323974609375,668.4019775390625,670.2880249023438,670.5579833984375],"ymouse":[838.6669921875,838.6669921875,838.6669921875,838.6669921875,838.6669921875,835.7050170898438,835.7050170898438,835.7050170898438,835.7050170898438,835.7050170898438,835.7050170898438,835.7050170898438,835.7050170898438,835.7050170898438,835.7050170898438,839.9559936523438,839.9559936523438,839.9559936523438,839.9559936523438,839.9559936523438,839.9559936523438,839.9559936523438,839.9559936523438,839.9559936523438,839.9559936523438,846,846,846,846,846,847.3330078125,847.3330078125,847.3330078125,848,848,848,848,848,848,848,848,848,848,848,848,848,848,810.802001953125,792.031005859375,769.77099609375,725.7340087890625,702.8839721679688,679.5709838867188,631.406005859375,631.406005859375,589.6929931640625,570.093994140625,552.5679931640625,536.4329833984375,522.6840209960938,498.47698974609375,491.68701171875,484.29400634765625,476.75,471.73699951171875,465.7040100097656,464.3680114746094,464.3680114746094,464.3680114746094,464.3680114746094,451.2019958496094,441.74798583984375,430.3240051269531,416.5950012207031,399.88800048828125,352.08099365234375,324.3949890136719,299.5580139160156,279.4320068359375,261.9729919433594,227.87600708007812,211.07699584960938,196.43899536132812,182.55299377441406,170.17300415039062,148.97300720214844,141.3699951171875,132.63900756835938,124.97000122070312,118.16799926757812,109.24800109863281,106.01799774169922,102.79299926757812,100.37899780273438,98.21800231933594],"timestamp_mouse":[12,78,92,112,132,154,172,192,212,232,252,272,292,312,332,352,372,392,427,432,455,480,492,512,532,552,572,592,612,632,655,672,692,712,732,752,772,792,812,832,854,872,892,912,932,954,972,992,1012,1032,1052,1072,1092,1119,1132,1153,1172,1192,1212,1232,1252,1272,1292,1312,1332,1352,1372,1392,1412,1432,1452,1472,1492,1512,1532,1553,1572,1592,1612,1632,1655,1672,1692,1712,1733,1755,1772,1792,1812,1833,1857,1872,1892,1912,1933],"xSR":350,"ySR":768,"xT1":30,"yT1":0,"xT2":670,"yT2":0,"toosoon":0,"cond_shown":"randomdotsize","ratio_trial":900,"smaller_num":"18","larger_num":"20","correct_side":2,"subjID":"15","gender":"No_gender","age":"No_age","school":"No_school"},{"start_time":1549310112094,"click_time":1549310113508,"finger_time":1549310113048,"fix_duration":844.895588974935,"trial":5,"RT":954,"MT":460,"sideResp":2,"stimulus":"img/900/equaldotsize/R/9_Ratio_900_L_18_R_20.png","xmouse":[388.6669921875,388.6669921875,388.6669921875,388.6669921875,388.6669921875,388.6669921875,388.6669921875,388.6669921875,388.6669921875,396.9880065917969,396.9880065917969,396.9880065917969,396.9880065917969,396.9880065917969,396.9880065917969,396.9880065917969,396.9880065917969,396.9880065917969,396.9880065917969,401.2770080566406,401.2770080566406,401.2770080566406,401.2770080566406,401.2770080566406,401.2770080566406,401.2770080566406,401.2770080566406,401.2770080566406,401.2770080566406,401.2770080566406,403.3330078125,403.3330078125,403.3330078125,403.3330078125,403.3330078125,403.3330078125,403.3330078125,403.3330078125,403.3330078125,403.3330078125,403.9949951171875,403.9949951171875,403.9949951171875,409.5459899902344,420.67999267578125,450.96600341796875,466.23199462890625,481.4830017089844,496.43798828125,511.55499267578125,543.0170288085938,555.4829711914062,568.6959838867188,581.3319702148438,593.0830078125,612.6309814453125,623.5269775390625,632.3909912109375,643.0560302734375,653.083984375,669.625,675.4169921875,680.85400390625,685.3209838867188,688.5440063476562,693.364990234375,695.5180053710938,697.6740112304688,699.833984375],"ymouse":[830.6669921875,830.6669921875,830.6669921875,830.6669921875,830.6669921875,830.6669921875,830.6669921875,830.6669921875,830.6669921875,829.3330078125,829.3330078125,829.3330078125,829.3330078125,829.3330078125,829.3330078125,829.3330078125,829.3330078125,829.3330078125,829.3330078125,829.3330078125,829.3330078125,829.3330078125,829.3330078125,829.3330078125,829.3330078125,829.3330078125,829.3330078125,829.3330078125,829.3330078125,829.3330078125,830.6669921875,830.6669921875,830.6669921875,830.6669921875,830.6669921875,830.6669921875,830.6669921875,830.6669921875,830.6669921875,830.6669921875,824.6719970703125,824.6719970703125,824.6719970703125,811.3619995117188,786.698974609375,710.8759765625,675.1669921875,637.9580078125,598.5079956054688,557.780029296875,479.8169860839844,444.9200134277344,412.3389892578125,381.3370056152344,351.4179992675781,298.2460021972656,272.8219909667969,249.25799560546875,225.27699279785156,204.11199951171875,168.36000061035156,154.31500244140625,144.29200744628906,133.5959930419922,125.39801025390625,113.23899841308594,106.77899932861328,100.81500244140625,95.41500091552734],"timestamp_mouse":[14,76,94,114,134,154,174,194,214,234,254,274,294,314,334,354,374,394,414,434,454,474,494,514,534,555,574,594,614,634,654,674,694,714,734,754,774,794,814,834,855,874,894,914,934,954,974,994,1014,1034,1057,1074,1094,1114,1134,1155,1174,1194,1214,1234,1257,1274,1294,1314,1334,1359,1374,1394,1414],"xSR":350,"ySR":768,"xT1":30,"yT1":0,"xT2":670,"yT2":0,"toosoon":0,"cond_shown":"equaldotsize","ratio_trial":900,"smaller_num":"18","larger_num":"20","correct_side":2,"subjID":"15","gender":"No_gender","age":"No_age","school":"No_school"},{"start_time":1549310116075,"click_time":1549310117729,"finger_time":1549310117429,"fix_duration":1425.8113773171829,"trial":6,"RT":1354,"MT":300,"sideResp":1,"stimulus":"img/750/equaldotanddens/L/10_Ratio_750_L_4_R_3.png","xmouse":[393.3330078125,392.7489929199219,392.7489929199219,392.7489929199219,392.7489929199219,392.7489929199219,392.7489929199219,392.7489929199219,392.7489929199219,396,396,396,396,396,396,396,396,396,396,396,396.6669921875,396.6669921875,396.6669921875,396.6669921875,396.6669921875,396.6669921875,396.6669921875,396.6669921875,396.6669921875,396.6669921875,396.6669921875,396.6669921875,396.6669921875,396.6669921875,396.6669921875,396.6669921875,396.6669921875,396.6669921875,396.6669921875,396.6669921875,396.6669921875,392.8340148925781,392.8340148925781,392.8340148925781,392.8340148925781,392.8340148925781,392.8340148925781,392.8340148925781,392.8340148925781,392.8340148925781,392.8340148925781,392.8340148925781,392,392,392,392,392,392,392,392,392,392,390.4989929199219,384.3559875488281,374.2619934082031,360.7879943847656,344.0849914550781,309.4079895019531,292.1510009765625,272.0790100097656,249.69400024414062,232.4600067138672,199.7259979248047,187.35800170898438,175.04299926757812,164.3000030517578,152.99899291992188,134.35299682617188,125.38600158691406,117.16300201416016,110.45999908447266],"ymouse":[848.6669921875,848.0830078125,848.0830078125,848.0830078125,848.0830078125,848.0830078125,848.0830078125,848.0830078125,848.0830078125,854,854,854,854,854,854,854,854,854,854,854,857.3330078125,857.3330078125,857.3330078125,857.3330078125,857.3330078125,857.3330078125,857.3330078125,857.3330078125,857.3330078125,857.3330078125,856.6669921875,856.6669921875,856.6669921875,856.6669921875,856.6669921875,856.6669921875,856.6669921875,856.6669921875,856.6669921875,856.6669921875,856.6669921875,849.5,849.5,849.5,849.5,849.5,849.5,849.5,849.5,849.5,849.5,849.5,846,846,846,846,846,846,846,846,846,846,841.4970092773438,812.802978515625,784.239990234375,750.8400268554688,715.0969848632812,622.0020141601562,571.9019775390625,520.5900268554688,469.1109924316406,422.781005859375,339.6659851074219,303.96099853515625,265.13800048828125,230.8280029296875,197.24099731445312,143.77499389648438,123.43800354003906,103.8489990234375,86.53399658203125],"timestamp_mouse":[13,87,93,113,133,153,173,196,214,233,253,273,294,313,333,353,373,393,413,433,453,474,493,513,533,553,573,593,613,634,653,674,696,713,733,754,774,794,814,834,853,874,893,913,934,954,974,993,1014,1034,1054,1074,1094,1114,1134,1154,1174,1194,1214,1234,1254,1274,1294,1314,1334,1354,1374,1397,1413,1434,1454,1474,1498,1514,1534,1554,1574,1598,1614,1634,1654],"xSR":350,"ySR":768,"xT1":30,"yT1":0,"xT2":670,"yT2":0,"toosoon":0,"cond_shown":"equaldotanddens","ratio_trial":750,"smaller_num":"3","larger_num":"4","correct_side":1,"subjID":"15","gender":"No_gender","age":"No_age","school":"No_school"},{"start_time":1549310119677,"click_time":1549310121250,"finger_time":1549310120609,"fix_duration":646.9523968185903,"trial":7,"RT":932,"MT":641,"sideResp":2,"stimulus":"img/500/randomdotsize/R/1_Ratio_500_L_9_R_18.png","xmouse":[372.84100341796875,374,374,374,374,374,374,374,374,374,374,374,374,374,374,374,374,374,374,372,372,372,372,372,372,372,372,372,372,372,372,372,372,372,372,372,372,372,372,372,372,381.1579895019531,381.1579895019531,393.3680114746094,421.71099853515625,435.7070007324219,446.114013671875,456.1189880371094,468.8909912109375,473.68499755859375,479.3429870605469,483.23699951171875,487.28900146484375,490.9410095214844,502.9570007324219,511.5459899902344,528.1950073242188,528.1950073242188,547.4130249023438,558.989990234375,571.0469970703125,582.10400390625,594.927001953125,619.1519775390625,631,641.35302734375,650.5490112304688,658.2880249023438,664.3880004882812,666.260009765625,666.6669921875,667.6259765625,668,668,668.5880126953125,668,670.8280029296875],"ymouse":[822.8410034179688,825,825,825,825,825,825,825,825,824,824,824,824,824,824,824,824,824,824,823,823,823,823,823,823,823,823,823,823,823,823,822,822,822,822,822,822,822,822,822,822,812.9650268554688,812.9650268554688,801.9650268554688,754.7899780273438,728.1010131835938,702.8070068359375,675.2930297851562,625.6439819335938,599.8880004882812,574.6190185546875,550.5139770507812,528.219970703125,507.197021484375,462.7829895019531,439.2340087890625,389.35699462890625,389.35699462890625,340.614013671875,315.5060119628906,291.2380065917969,263.06298828125,235.71499633789062,184.28500366210938,163,142.76400756835938,125.69100952148438,112.55400085449219,98.16999816894531,95.73999786376953,93.57099914550781,91.41500091552734,90,90,88.0790023803711,88,87.25299835205078],"timestamp_mouse":[12,87,92,113,132,152,172,192,212,232,252,272,292,313,332,352,372,392,412,432,452,472,492,512,532,552,572,592,612,632,652,672,692,712,732,752,772,792,812,833,852,872,892,913,932,952,972,992,1013,1032,1052,1072,1092,1112,1134,1152,1180,1192,1214,1233,1252,1273,1292,1314,1333,1352,1373,1392,1414,1434,1452,1473,1492,1513,1533,1552,1573],"xSR":350,"ySR":768,"xT1":30,"yT1":0,"xT2":670,"yT2":0,"toosoon":0,"cond_shown":"randomdotsize","ratio_trial":500,"smaller_num":"9","larger_num":"18","correct_side":2,"subjID":"15","gender":"No_gender","age":"No_age","school":"No_school"},{"start_time":1549310123791,"click_time":1549310125091,"finger_time":1549310124750,"fix_duration":1337.4844955074354,"trial":8,"RT":959,"MT":341,"sideResp":2,"stimulus":"img/500/randomdotsize/R/9_Ratio_500_L_2_R_4.png","xmouse":[384.6669921875,384.6669921875,384.6669921875,384.6669921875,384.6669921875,384.6669921875,384.6669921875,384.6669921875,388,388,388,388,388,389.3330078125,390.7539978027344,391.1889953613281,391.1889953613281,391.1889953613281,391.1889953613281,391.1889953613281,391.1889953613281,391.1889953613281,391.1889953613281,391.1889953613281,391.1889953613281,392,392,392,392,392,392,392,392,392,392,392,392,392,392,392,392,392,392,392,392,402.78900146484375,418.5690002441406,437.1659851074219,457.70599365234375,480.3330078125,531.2839965820312,554.7990112304688,576.7949829101562,595.594970703125,612.5700073242188,639.156982421875,648.9249877929688,656.677978515625,662.3060302734375,667.6090087890625,680.5670166015625,684.6820068359375,689.0260009765625,692.5789794921875],"ymouse":[837.3330078125,837.3330078125,837.3330078125,837.3330078125,837.3330078125,837.3330078125,837.3330078125,837.3330078125,839,839,839,839,839,838.6669921875,838.6669921875,838.1439819335938,838.1439819335938,838.1439819335938,838.1439819335938,838.1439819335938,838.1439819335938,838.1439819335938,838.1439819335938,838.1439819335938,838.1439819335938,840,840,840,840,840,840,840,840,840,840,840,842,842,842,842,842,842,842,842,842,801.0770263671875,764.9190063476562,722.7379760742188,676.6649780273438,628.3330078125,517.468994140625,466.1969909667969,417.79400634765625,375.8330078125,337.81201171875,268.4360046386719,241.85800170898438,214.6219940185547,188.66400146484375,167.97000122070312,129.06100463867188,116.62100219726562,103.58799743652344,92.86399841308594],"timestamp_mouse":[2,19,90,99,122,139,159,179,199,219,239,259,279,299,321,339,359,379,399,419,439,459,479,499,519,539,559,579,599,619,640,659,679,699,719,739,759,779,799,819,841,859,879,899,919,939,959,979,999,1019,1039,1059,1079,1100,1119,1139,1159,1179,1200,1219,1240,1259,1279,1300],"xSR":350,"ySR":768,"xT1":30,"yT1":0,"xT2":670,"yT2":0,"toosoon":0,"cond_shown":"randomdotsize","ratio_trial":500,"smaller_num":"2","larger_num":"4","correct_side":2,"subjID":"15","gender":"No_gender","age":"No_age","school":"No_school"},{"start_time":1549310126907,"click_time":1549310128233,"finger_time":1549310127951,"fix_duration":775.1551950447293,"trial":9,"RT":1044,"MT":282,"sideResp":1,"stimulus":"img/250/randomdotsizeEA/L/1_Ratio_250_L_8_R_2.png","xmouse":[383.08099365234375,382,382,382.6669921875,381.9469909667969,381.9469909667969,381.9469909667969,381.9469909667969,381.9469909667969,381.9469909667969,381.9469909667969,381.9469909667969,381.9469909667969,381.9469909667969,381.9469909667969,380.6669921875,380.6669921875,380.6669921875,380.6669921875,380.6669921875,380.6669921875,380.6669921875,380.6669921875,380.6669921875,380.6669921875,380.6669921875,380.6669921875,380.6669921875,380.6669921875,380.6669921875,380.6669921875,380.6669921875,380.6669921875,380.6669921875,380.6669921875,380.6669921875,380.6669921875,380.6669921875,380.6669921875,380.6669921875,380.6669921875,379,379,379,379.3330078125,379.3330078125,378.26300048828125,377.1780090332031,375.5469970703125,373.37701416015625,370.5150146484375,360.1000061035156,351.1130065917969,340.3949890136719,329.6940002441406,316.5660095214844,284.0570068359375,268.4599914550781,253.3289794921875,237.16900634765625,220.8459930419922,190.98599243164062,176.0019989013672,162.1909942626953,148.28799438476562,119.85600280761719],"ymouse":[828.6669921875,828,828,827.030029296875,827.3330078125,827.3330078125,827.3330078125,827.3330078125,827.3330078125,827.3330078125,827.3330078125,827.3330078125,827.3330078125,827.3330078125,827.3330078125,828.6669921875,828.6669921875,828.6669921875,828.6669921875,828.6669921875,828.6669921875,828.6669921875,828.6669921875,828.6669921875,828.6669921875,829.3330078125,829.3330078125,829.3330078125,829.3330078125,829.3330078125,829.3330078125,829.3330078125,829.3330078125,829.3330078125,829.3330078125,827.3330078125,827.3330078125,827.3330078125,827.3330078125,827.3330078125,827.3330078125,826,826,826,824.8389892578125,824.6669921875,822.2630004882812,821.177978515625,817.760986328125,809.5059814453125,784.8389892578125,717.218994140625,675.9349975585938,628.4429931640625,580.291015625,532.4559936523438,432.17999267578125,387.8070068359375,345.6289978027344,303.9830017089844,260.70098876953125,179.6009979248047,143.05299377441406,112,85.92400360107422,42.09000015258789],"timestamp_mouse":[3,62,64,83,103,125,144,164,184,204,224,244,264,284,304,324,344,364,384,404,424,444,464,484,504,524,544,564,584,604,624,644,664,684,704,724,744,764,784,804,824,844,864,884,904,924,944,964,984,1004,1024,1044,1064,1084,1104,1124,1145,1164,1184,1204,1224,1244,1264,1284,1304,1326],"xSR":350,"ySR":768,"xT1":30,"yT1":0,"xT2":670,"yT2":0,"toosoon":0,"cond_shown":"randomdotsizeEA","ratio_trial":250,"smaller_num":"2","larger_num":"8","correct_side":1,"subjID":"15","gender":"No_gender","age":"No_age","school":"No_school"},{"start_time":1549310131004,"click_time":1549310132573,"finger_time":1549310132292,"fix_duration":1450.094209137878,"trial":10,"RT":1288,"MT":281,"sideResp":1,"stimulus":"img/900/equaldotanddens/L/4_Ratio_900_L_20_R_18.png","xmouse":[424.6669921875,427,427,427,427,427,427,427,427,427,427,423.135009765625,423.135009765625,423.135009765625,423.135009765625,423.135009765625,423.135009765625,423.135009765625,423.135009765625,423.135009765625,423.135009765625,422,422,422,421.3330078125,421.3330078125,421.3330078125,421.77899169921875,421.77899169921875,421.77899169921875,421.77899169921875,421.77899169921875,421.77899169921875,421.77899169921875,421.77899169921875,421.77899169921875,421.77899169921875,421.77899169921875,423.3330078125,423.3330078125,423.3330078125,423.3330078125,423.3330078125,423.3330078125,423.3330078125,423.3330078125,423.3330078125,423.3330078125,421.3330078125,421.3330078125,421.3330078125,420.6669921875,420.6669921875,420.6669921875,420.6669921875,420.6669921875,420.6669921875,420,420,420,417.1210021972656,392.4169921875,369.23199462890625,346.5039978027344,322.09100341796875,298.4649963378906,254.843017578125,234.61099243164062,214.1929931640625,195.18299865722656,177.04100036621094,137.50399780273438,117.56400299072266,99.45600128173828,82.50700378417969,68.91300201416016,46.48699951171875],"ymouse":[796.6669921875,800,800,800,800,800,800,800,800,800,800,800.6669921875,800.6669921875,800.6669921875,800.6669921875,800.6669921875,800.6669921875,800.6669921875,800.6669921875,800.6669921875,800.6669921875,797,797,797,797.3330078125,797.3330078125,797.3330078125,797.3330078125,797.3330078125,797.3330078125,797.3330078125,797.3330078125,797.3330078125,797.3330078125,797.3330078125,797.3330078125,797.3330078125,797.3330078125,798.6669921875,798.6669921875,798.6669921875,798.6669921875,798.6669921875,798.6669921875,798.6669921875,798.6669921875,798.6669921875,798.6669921875,797.3330078125,797.3330078125,797.3330078125,797.3330078125,797.3330078125,797.3330078125,797.3330078125,796.6669921875,796.6669921875,796,796,796,792.4539794921875,768.4310302734375,742.4210205078125,710.1729736328125,672.1209716796875,629.510986328125,528.2219848632812,475.5400085449219,422.88299560546875,377.49700927734375,332.6029968261719,243.09197998046875,203.80799865722656,168.1280059814453,133.67999267578125,103.1500015258789,50.052001953125],"timestamp_mouse":[8,71,87,107,127,147,168,187,207,227,247,268,287,307,327,347,367,387,407,427,447,467,487,507,527,547,567,587,607,627,647,667,687,707,727,748,767,787,807,827,847,867,887,908,927,948,968,987,1007,1027,1048,1067,1087,1107,1127,1148,1168,1187,1208,1227,1248,1268,1288,1308,1328,1348,1367,1388,1408,1428,1448,1468,1488,1508,1528,1548,1569],"xSR":350,"ySR":768,"xT1":30,"yT1":0,"xT2":670,"yT2":0,"toosoon":0,"cond_shown":"equaldotanddens","ratio_trial":900,"smaller_num":"18","larger_num":"20","correct_side":1,"subjID":"15","gender":"No_gender","age":"No_age","school":"No_school"},{"start_time":1549310134813,"click_time":1549310136012,"finger_time":1549310135812,"fix_duration":819.227248330099,"trial":11,"RT":999,"MT":200,"sideResp":2,"stimulus":"img/250/equaldotanddens/R/10_Ratio_250_L_4_R_16.png","xmouse":[390,390,390,390,390,390,390,388.6669921875,388.6669921875,388.6669921875,388.6669921875,388.6669921875,388.6669921875,388.6669921875,388.6669921875,388.6669921875,388.6669921875,384.6669921875,384.6669921875,384.6669921875,384.6669921875,384.6669921875,384.6669921875,384.6669921875,384.6669921875,384.6669921875,384.6669921875,383.3330078125,383.3330078125,383.3330078125,383.3330078125,383.3330078125,383.3330078125,383.3330078125,383.3330078125,383.3330078125,383.3330078125,383.3330078125,393.15301513671875,393.15301513671875,393.15301513671875,393.15301513671875,393.15301513671875,393.15301513671875,393.15301513671875,393.15301513671875,393.15301513671875,393.15301513671875,693.614013671875,693.614013671875,693.614013671875,693.614013671875,693.614013671875,693.614013671875,693.614013671875,693.614013671875,693.614013671875,693.614013671875,714.6669921875],"ymouse":[832,832,832,832,832,832,832,828.6669921875,828.6669921875,828.6669921875,828.6669921875,828.6669921875,828.6669921875,828.6669921875,828.6669921875,828.6669921875,828.6669921875,821.7479858398438,821.7479858398438,821.7479858398438,821.7479858398438,821.7479858398438,821.7479858398438,821.7479858398438,821.7479858398438,821.7479858398438,821.7479858398438,821.3330078125,821.3330078125,821.3330078125,821.3330078125,821.3330078125,821.3330078125,821.3330078125,821.3330078125,821.3330078125,821.3330078125,821.3330078125,796.7000122070312,796.7000122070312,796.7000122070312,796.7000122070312,796.7000122070312,796.7000122070312,796.7000122070312,796.7000122070312,796.7000122070312,796.7000122070312,186.83799743652344,186.83799743652344,186.83799743652344,186.83799743652344,186.83799743652344,186.83799743652344,186.83799743652344,186.83799743652344,186.83799743652344,186.83799743652344,40.3390007019043],"timestamp_mouse":[5,67,79,99,119,139,159,179,199,219,239,259,279,299,319,339,359,379,401,419,439,459,479,499,519,539,559,579,599,619,639,659,679,699,719,739,759,779,799,819,839,859,879,899,919,939,959,979,999,1019,1039,1059,1079,1099,1119,1139,1159,1179,1199],"xSR":350,"ySR":768,"xT1":30,"yT1":0,"xT2":670,"yT2":0,"toosoon":0,"cond_shown":"equaldotanddens","ratio_trial":250,"smaller_num":"4","larger_num":"16","correct_side":2,"subjID":"15","gender":"No_gender","age":"No_age","school":"No_school"},{"start_time":1549310137457,"click_time":1549310139516,"finger_time":1549310138793,"fix_duration":643.1752746934679,"trial":12,"RT":1336,"MT":723,"sideResp":2,"stimulus":"img/900/randomdotsize/L/1_Ratio_900_L_10_R_9.png","xmouse":[367.7980041503906,367.7980041503906,367.7980041503906,367.7980041503906,367.7980041503906,367.7980041503906,366.6669921875,366.6669921875,366.6669921875,366.6669921875,366.6669921875,366.6669921875,366.6669921875,366.6669921875,366.6669921875,366.6669921875,366,366,366,366,366,366,366,366,366,366,366,366,366,366,366,366,366,366,366,366,366,365,365,365,365,365,365,365,365,365,365,365,364.6669921875,364.6669921875,364.6669921875,364.6669921875,364.6669921875,364.6669921875,364.6669921875,364.6669921875,364.6669921875,364.6669921875,364.6669921875,362.6669921875,362.6669921875,357.281005859375,353.56500244140625,353.56500244140625,353.56500244140625,341.9800109863281,333.3659973144531,329.7380065917969,325.4309997558594,319.12701416015625,314.1789855957031,304.2879943847656,298.88800048828125,294.2650146484375,289.96600341796875,285.6629943847656,279.45001220703125,277.85198974609375,276.10400390625,275.0329895019531,274.6669921875,274.875,274.875,274.875,274.875,274.875,313.9570007324219,342.3370056152344,375.6050109863281,412.2560119628906,455.60198974609375,531.3569946289062,567.4530029296875,595.8709716796875,623.5809936523438,645.1190185546875,685.0570068359375,696.7410278320312,708.4320068359375,716.4359741210938,720.281982421875,726.7899780273438],"ymouse":[853.3330078125,853.3330078125,853.3330078125,853.3330078125,853.3330078125,853.3330078125,852.6669921875,852.6669921875,852.6669921875,852.6669921875,852.6669921875,852.6669921875,852.6669921875,852.6669921875,852.6669921875,852.6669921875,852,852,852,852,852,852,852,852,852,852,852,850,850,850,850,850,850,850,850,850,850,850,850,850,850,850,850,850,850,850,850,850,848.9229736328125,848.9229736328125,848.9229736328125,848.9229736328125,848.9229736328125,848.9229736328125,848.9229736328125,848.9229736328125,848.9229736328125,848.9229736328125,848.9229736328125,843.5440063476562,843.5440063476562,831.1749877929688,823.1290283203125,823.1290283203125,823.1290283203125,789.2730102539062,760.7650146484375,747.8820190429688,734.958984375,722.2529907226562,711.2360229492188,693.1849975585938,683.4660034179688,675.2969970703125,667.1079711914062,660.4940185546875,647.3060302734375,641.1110229492188,636.52197265625,633.0980224609375,628.4739990234375,622.7080078125,622.7080078125,622.7080078125,622.7080078125,622.7080078125,604.0189819335938,590.22802734375,570.3060302734375,544.5999755859375,511.09100341796875,429.88800048828125,388.21600341796875,346.1940002441406,307.07000732421875,269.3919982910156,199.73500061035156,171.8249969482422,144.3780059814453,121.3590087890625,101.73200225830078,74.65599822998047],"timestamp_mouse":[15,72,75,96,115,136,156,176,196,216,236,256,276,296,316,336,356,376,396,416,436,456,476,496,516,536,556,576,596,616,636,656,676,696,716,736,756,776,796,816,836,856,876,896,916,936,956,976,996,1016,1036,1057,1076,1096,1116,1136,1156,1176,1196,1216,1236,1256,1276,1296,1316,1336,1356,1376,1396,1416,1436,1460,1476,1503,1516,1536,1561,1576,1596,1616,1636,1656,1676,1696,1716,1736,1756,1776,1796,1816,1836,1856,1876,1896,1916,1936,1959,1976,1996,2016,2037,2059],"xSR":350,"ySR":768,"xT1":30,"yT1":0,"xT2":670,"yT2":0,"toosoon":0,"cond_shown":"randomdotsize","ratio_trial":900,"smaller_num":"9","larger_num":"10","correct_side":1,"subjID":"15","gender":"No_gender","age":"No_age","school":"No_school"},{"start_time":1549310141907,"click_time":1549310143094,"finger_time":1549310142834,"fix_duration":472.8774632544521,"trial":13,"RT":927,"MT":260,"sideResp":2,"stimulus":"img/250/randomdotsizeEA/R/4_Ratio_250_L_3_R_12.png","xmouse":[401.3330078125,401.3330078125,401.3330078125,401.3330078125,401.3330078125,401.3330078125,401.3330078125,401.3330078125,401.3330078125,399,399,399,399,399,399,399,399,399,399,399,400,400,400,400,400,400,400,400,400,400,395.3330078125,395.3330078125,395.3330078125,395.3330078125,395.3330078125,395.3330078125,395.3330078125,395.3330078125,395.3330078125,395.3330078125,395.3330078125,395.3330078125,395.3330078125,408.62200927734375,424.2359924316406,442.4389953613281,461.9750061035156,482.4630126953125,527.9840087890625,549.35400390625,569.739013671875,587.7789916992188,604.4730224609375,638.89501953125,654.10498046875,666.0969848632812,679.3309936523438],"ymouse":[793.3330078125,793.3330078125,793.3330078125,793.3330078125,793.3330078125,793.3330078125,793.3330078125,793.3330078125,793.3330078125,790,790,790,790,790,790,790,790,790,790,790,791,791,791,791,791,791,791,791,791,791,782.385009765625,782.385009765625,782.385009765625,782.385009765625,782.385009765625,782.385009765625,782.385009765625,782.385009765625,782.385009765625,782.385009765625,780.8489990234375,780.8489990234375,780.8489990234375,732.6580200195312,684.5150146484375,630.0170288085938,577.677978515625,522.1719970703125,408.2409973144531,354.2090148925781,302.6960144042969,258.0459899902344,215.69200134277344,136.27999877929688,103.79100036621094,77.09200286865234,49.003997802734375],"timestamp_mouse":[68,86,106,129,146,166,186,206,226,246,266,286,306,326,346,367,387,407,427,446,467,486,507,528,546,567,587,607,627,647,667,687,707,727,747,767,787,807,829,847,867,887,907,927,947,967,987,1007,1030,1047,1067,1087,1107,1129,1147,1167,1187],"xSR":350,"ySR":768,"xT1":30,"yT1":0,"xT2":670,"yT2":0,"toosoon":0,"cond_shown":"randomdotsizeEA","ratio_trial":250,"smaller_num":"3","larger_num":"12","correct_side":2,"subjID":"15","gender":"No_gender","age":"No_age","school":"No_school"},{"start_time":1549310145543,"click_time":1549310147035,"finger_time":1549310146554,"fix_duration":907.0799386503795,"trial":14,"RT":1011,"MT":481,"sideResp":1,"stimulus":"img/900/equaldotanddens/L/2_Ratio_900_L_20_R_18.png","xmouse":[400,398.6669921875,397.7669982910156,397.7669982910156,397.7669982910156,397.7669982910156,397.7669982910156,397.7669982910156,397.7669982910156,397.7669982910156,397.7669982910156,397.7669982910156,398,398,398,398,398,398,398,398,398,398,398,399.3330078125,399.3330078125,399.3330078125,399.3330078125,399.3330078125,399.3330078125,399.3330078125,399.3330078125,399.3330078125,399.3330078125,402,402,402,402,402,402,402,402,402,402,401.22698974609375,400.1629943847656,398.1679992675781,392.6650085449219,383.7139892578125,359.4679870605469,342.45001220703125,321.6990051269531,299.1610107421875,278.20001220703125,232.38600158691406,212.36500549316406,192.38699340820312,174.1009979248047,158.32000732421875,130.03700256347656,117.94100189208984,108.02300262451172,100.47100067138672,93.78099822998047,87.4729995727539,84,81.76699829101562,80.34700012207031,78.2030029296875,76.28399658203125,76,74.80500030517578,73.72599792480469,72.65599822998047],"ymouse":[853,845.5180053710938,845.3330078125,845.3330078125,845.3330078125,845.3330078125,845.3330078125,845.3330078125,845.3330078125,845.3330078125,845.3330078125,845.3330078125,844,844,844,844,844,844,844,844,844,844,844,843.3330078125,843.3330078125,843.3330078125,843.3330078125,843.3330078125,843.3330078125,843.3330078125,843.3330078125,843.3330078125,843.3330078125,843,843,843,843,843,843,843,843,843,843,835.8939819335938,833.6589965820312,829.6699829101562,808.6599731445312,770.1790161132812,677.739013671875,635.4299926757812,592.0159912109375,548.3460083007812,507.0660400390625,423.83599853515625,385.39599609375,346.7619934082031,312.6600036621094,283.9100036621094,232.9149932861328,212.98399353027344,195.3000030517578,182.3090057373047,169.34100341796875,150.49000549316406,143,134.71299743652344,128.8679962158203,123.50700378417969,115.80099487304688,112,107.88500213623047,103.5719985961914,98.6240005493164],"timestamp_mouse":[62,71,91,111,131,151,171,191,211,231,251,271,291,311,331,351,371,391,411,431,451,471,491,511,531,551,571,591,611,631,651,671,691,711,731,751,771,791,811,831,852,872,892,913,931,951,971,992,1011,1032,1052,1071,1092,1114,1131,1151,1171,1192,1214,1232,1252,1271,1292,1317,1332,1352,1372,1392,1412,1432,1452,1472,1492],"xSR":350,"ySR":768,"xT1":30,"yT1":0,"xT2":670,"yT2":0,"toosoon":0,"cond_shown":"equaldotanddens","ratio_trial":900,"smaller_num":"18","larger_num":"20","correct_side":1,"subjID":"15","gender":"No_gender","age":"No_age","school":"No_school"},{"start_time":1549310149429,"click_time":1549310151520,"finger_time":1549310150836,"fix_duration":1313.1127195641116,"trial":15,"RT":1407,"MT":684,"sideResp":1,"stimulus":"img/750/equaldotsize/L/8_Ratio_750_L_4_R_3.png","xmouse":[390,394,394,394,395.3330078125,395.7229919433594,396,396,396.96099853515625,397.3330078125,397.3330078125,398,398.6669921875,399,400.2359924316406,400,400,400,400,400,400,400,400,400,400,400,400,400,400,398,398,398,398,398,398,398,398,398,396.6669921875,396.6669921875,396.6669921875,396.6669921875,396.6669921875,396.6669921875,396,396,395.5159912109375,395.3330078125,394,394,394,394,394,394,394,394,394,394,389,388.68798828125,388.68798828125,388.68798828125,388.68798828125,388.68798828125,388.68798828125,388.68798828125,388.68798828125,344.35198974609375,334.04901123046875,311.1310119628906,297.0660095214844,282.1629943847656,264.10400390625,245.94400024414062,210.92300415039062,197.27200317382812,181.83599853515625,168.54400634765625,157.48800659179688,143.2830047607422,138.5800018310547,135.39999389648438,132.1739959716797,128.96400451660156,121.0889892578125,116.34200286865234,111.8219985961914,108.1520004272461,104,97.79100036621094,94.57099914550781,92.00900268554688,89.87100219726562,86.93499755859375,83.03399658203125,82,80.87699890136719,79.8030014038086,78.11599731445312,75.31300354003906,71.01399993896484,70.66699981689453],"ymouse":[802,808,808,810,811.3049926757812,811.7230224609375,812,813,813.3330078125,814.6669921875,815.52001953125,816,817.6799926757812,818,820.2360229492188,820,821,822,822,821,821,821,821,821,821,821,821,821,821,819,819,819,819,819,819,819,819,819,818.6669921875,818.6669921875,818.6669921875,818.6669921875,818.6669921875,818.6669921875,818,818,818.6669921875,818.6669921875,818,818,818,818,818,818,818,818,818,818,816,815.3330078125,815.3330078125,815.3330078125,815.3330078125,815.3330078125,815.3330078125,815.3330078125,815.3330078125,768.2830200195312,745.3179931640625,689.52099609375,662.9949951171875,636.197021484375,608.864990234375,580.1069946289062,525.9010009765625,502.55999755859375,476.2550048828125,451.0880126953125,428.1910095214844,393.7349853515625,381.14300537109375,370.20098876953125,358.8590087890625,346.8919982910156,316.2359924316406,293.5060119628906,267.60101318359375,243.73300170898438,222,197.06700134277344,191.39500427246094,186.02099609375,181.47300720214844,178.26800537109375,173.4010009765625,171,169.08599853515625,166.93899536132812,159.13099670410156,148.54200744628906,105.4749984741211,86.65399932861328],"timestamp_mouse":[68,86,106,126,146,166,186,206,227,246,266,287,307,327,347,367,387,407,427,447,467,487,507,526,547,566,587,607,627,647,667,687,707,729,747,767,797,807,827,851,867,887,907,927,947,967,987,1007,1027,1047,1067,1087,1107,1127,1147,1167,1187,1207,1227,1247,1267,1287,1307,1327,1347,1367,1387,1407,1427,1448,1467,1487,1507,1527,1551,1567,1587,1607,1627,1647,1667,1687,1707,1727,1747,1767,1787,1808,1827,1848,1867,1888,1907,1927,1949,1967,1988,2007,2027,2047,2067,2087],"xSR":350,"ySR":768,"xT1":30,"yT1":0,"xT2":670,"yT2":0,"toosoon":0,"cond_shown":"equaldotsize","ratio_trial":750,"smaller_num":"3","larger_num":"4","correct_side":1,"subjID":"15","gender":"No_gender","age":"No_age","school":"No_school"},{"start_time":1549310153068,"click_time":1549310155200,"finger_time":1549310154636,"fix_duration":250,"trial":16,"RT":1568,"MT":564,"sideResp":2,"stimulus":"img/900/equaldotanddens/R/11_Ratio_900_L_18_R_20.png","xmouse":[384,384,384,390,390,391,391,391,391,391,391,391,391,391,391,391,391,391,386.1310119628906,386.1310119628906,386.1310119628906,386.1310119628906,386.1310119628906,386.1310119628906,386.1310119628906,386.1310119628906,386.1310119628906,386.1310119628906,382.6669921875,382.6669921875,382.6669921875,382.6669921875,382.6669921875,382.6669921875,382.6669921875,382.6669921875,382.6669921875,382.6669921875,382.6669921875,382.6669921875,382.6669921875,382.6669921875,382.6669921875,382.6669921875,382.6669921875,382.6669921875,382.6669921875,382.6669921875,382.14801025390625,383.46600341796875,383.8949890136719,384.9880065917969,386.0539855957031,386.6669921875,387.3330078125,386.9580078125,386.6669921875,386.1369934082031,383,383.3330078125,382.4840087890625,381.4410095214844,380.3330078125,379.5140075683594,379.3330078125,379.3330078125,379.3330078125,379.3330078125,379.3330078125,379.3330078125,379.3330078125,379.3330078125,374.10699462890625,369.1390075683594,366.30499267578125,363.2330017089844,360.70098876953125,358.53900146484375,354.78399658203125,355.63800048828125,359.4389953613281,366.9219970703125,377.37701416015625,406.61199951171875,425.02301025390625,445.7090148925781,468.6960144042969,468.6960144042969,533.9130249023438,554.60400390625,574.2630004882812,592.2849731445312,605.364013671875,629.6060180664062,638.6339721679688,647.6420288085938,655.0399780273438,659.7880249023438,670.1790161132812,675.60498046875,680.364013671875,684.0159912109375,686.9390258789062,694.0889892578125],"ymouse":[823,823,823,830,830,832,832,832,832,832,832,832,832,832,832,832,832,832,828.1309814453125,828.1309814453125,828.1309814453125,828.1309814453125,828.1309814453125,828.1309814453125,828.1309814453125,828.1309814453125,828.1309814453125,828.1309814453125,823.4359741210938,823.4359741210938,823.4359741210938,823.4359741210938,823.4359741210938,823.4359741210938,823.4359741210938,823.4359741210938,823.4359741210938,823.4359741210938,823.3330078125,823.3330078125,823.3330078125,823.3330078125,823.3330078125,823.3330078125,823.3330078125,823.3330078125,823.3330078125,823.3330078125,817.1849975585938,815.0679931640625,812.208984375,809.0349731445312,806.5029907226562,802.4539794921875,800.708984375,799.625,799.3330078125,798.1370239257812,798,797.56298828125,797.3330078125,797.3330078125,797.3330078125,797.3330078125,798.2440185546875,798.2440185546875,798.2440185546875,798.2440185546875,798.2440185546875,798.2440185546875,798.2440185546875,798.2440185546875,791.5479736328125,780.8480224609375,773.5819702148438,766.2109985351562,757.4249877929688,747.6329956054688,717.7550048828125,696.5819702148438,667.051025390625,639.4509887695312,613.0960083007812,551.7579956054688,517.6619873046875,482.6260070800781,446.3789978027344,446.3789978027344,346.5409851074219,315.6130065917969,288.2279968261719,260.51300048828125,240.21200561523438,206.65699768066406,194.5659942626953,181.99200439453125,170.7050018310547,159.86399841308594,137.41200256347656,126.79000854492188,119.86399841308594,111.28700256347656,104.79000091552734,88.23600006103516],"timestamp_mouse":[77,88,108,128,148,168,188,208,228,248,268,288,308,328,348,368,388,408,428,448,468,488,508,528,548,568,588,608,630,648,668,688,708,728,748,768,788,808,828,848,868,888,908,929,948,968,988,1008,1029,1048,1068,1088,1108,1129,1148,1168,1188,1208,1229,1248,1268,1288,1308,1329,1348,1368,1388,1408,1428,1448,1468,1489,1508,1530,1548,1568,1588,1608,1629,1648,1668,1688,1708,1731,1749,1768,1788,1808,1830,1848,1868,1888,1908,1929,1948,1968,1988,2009,2029,2048,2068,2088,2108,2130],"xSR":350,"ySR":768,"xT1":30,"yT1":0,"xT2":670,"yT2":0,"toosoon":0,"cond_shown":"equaldotanddens","ratio_trial":900,"smaller_num":"18","larger_num":"20","correct_side":2,"subjID":"15","gender":"No_gender","age":"No_age","school":"No_school"},{"start_time":1549310157424,"click_time":1549310158678,"finger_time":1549310158357,"fix_duration":1124.494402987888,"trial":17,"RT":933,"MT":321,"sideResp":1,"stimulus":"img/250/equaldotanddens/L/1_Ratio_250_L_8_R_2.png","xmouse":[378,378,378,378,378,378,378,378,378,377,377,377,377,377,377,377,377.3330078125,377.3330078125,377.9219970703125,377.9219970703125,377.9219970703125,377.9219970703125,377.9219970703125,377.9219970703125,377.9219970703125,377.9219970703125,377.9219970703125,377.9219970703125,380,380,380,380,380,380,380,380,380,380,378.20098876953125,378.20098876953125,378.20098876953125,378.20098876953125,372.5799865722656,366.3580017089844,355.97601318359375,344.6549987792969,331.114013671875,300.8420104980469,287.3330078125,272.9330139160156,258.58599853515625,245.27499389648438,217.947998046875,205.26800537109375,192.2429962158203,178.8679962158203,166.94700622558594,144.49000549316406,133.64500427246094,122.20099639892578,112.43499755859375],"ymouse":[839,839,839,839,839,839,839,839,839,838,838,838,838,838,838,838,837.3330078125,837.3330078125,837.9219970703125,837.9219970703125,837.9219970703125,837.9219970703125,837.9219970703125,837.9219970703125,837.9219970703125,837.9219970703125,837.9219970703125,837.9219970703125,841,841,841,841,841,841,841,841,841,841,838.6669921875,838.6669921875,838.6669921875,838.6669921875,823.3629760742188,800.6439819335938,767.927978515625,734.1489868164062,698.1950073242188,612.5260009765625,567,520.7990112304688,478.6369934082031,432.156005859375,349.49700927734375,312.97601318359375,277.760009765625,246.4639892578125,216.16900634765625,161.44200134277344,136.38299560546875,115.68899536132812,95.9800033569336],"timestamp_mouse":[68,73,93,113,133,153,173,194,213,233,253,273,293,313,333,353,373,394,413,433,453,473,493,513,533,553,573,593,613,633,653,673,694,713,733,753,773,793,813,833,853,873,894,913,933,953,973,995,1013,1033,1053,1073,1094,1113,1133,1153,1173,1195,1213,1233,1253],"xSR":350,"ySR":768,"xT1":30,"yT1":0,"xT2":670,"yT2":0,"toosoon":0,"cond_shown":"equaldotanddens","ratio_trial":250,"smaller_num":"2","larger_num":"8","correct_side":1,"subjID":"15","gender":"No_gender","age":"No_age","school":"No_school"},{"start_time":1549310160860,"click_time":1549310162119,"finger_time":1549310161739,"fix_duration":981.7328376566173,"trial":18,"RT":879,"MT":380,"sideResp":1,"stimulus":"img/250/equaldotanddens/L/1_Ratio_250_L_8_R_2.png","xmouse":[388,388,388,388,388,388,388,388,388,388,388.6669921875,388.6669921875,388.6669921875,388.6669921875,388.6669921875,388.6669921875,388.6669921875,388.6669921875,388.6669921875,388.6669921875,388.6669921875,388,388,388,388,388,388,388,388,388,388,384,384,384,384,384,384,384,384,384,384,365.28399658203125,349.8999938964844,332.5150146484375,314.2489929199219,296.0679931640625,257.2300109863281,243.03599548339844,230.62899780273438,219.9929962158203,209.1219940185547,196.5850067138672,172.23300170898438,161.43099975585938,150.50999450683594,139.83900451660156,118.4020004272461,108.52999877929688,100.2020034790039,91.427001953125,85.71199798583984],"ymouse":[806,806,806,806,806,806,806,806,806,806,805.3330078125,805.3330078125,805.3330078125,805.3330078125,805.3330078125,805.3330078125,805.3330078125,805.3330078125,805.3330078125,805.3330078125,805.3330078125,804,804,804,804,804,804,804,804,804,804,800,800,800,800,800,800,800,800,800,800,761.35302734375,735.1669921875,704.0170288085938,670.72802734375,632.0289916992188,540.0750122070312,490.7359924316406,444.1789855957031,405.7099914550781,365.2349853515625,327.0870056152344,264.4960021972656,236.91200256347656,211.0070037841797,189.01199340820312,148.322998046875,130.72000122070312,119.15899658203125,107.12899780273438,98.20600128173828],"timestamp_mouse":[61,77,97,117,137,157,177,197,217,237,257,278,297,318,338,358,377,398,417,438,458,477,497,518,537,557,577,598,618,638,658,678,698,718,738,758,778,798,818,838,858,879,898,918,938,958,980,998,1018,1038,1058,1078,1098,1118,1138,1158,1179,1198,1218,1238,1258],"xSR":350,"ySR":768,"xT1":30,"yT1":0,"xT2":670,"yT2":0,"toosoon":0,"cond_shown":"equaldotanddens","ratio_trial":250,"smaller_num":"2","larger_num":"8","correct_side":1,"subjID":"15","gender":"No_gender","age":"No_age","school":"No_school"},{"start_time":1549310166246,"click_time":1549310167681,"finger_time":1549310167299,"fix_duration":1125.6783576075604,"trial":19,"RT":1053,"MT":382,"sideResp":1,"stimulus":"img/250/randomdotsizeEA/L/7_Ratio_250_L_8_R_2.png","xmouse":[407.3330078125,407.3330078125,407.3330078125,407.3330078125,407.3330078125,407.3330078125,407.3330078125,404,404,404,404,404,404,404,404,404,404,403.3330078125,403.3330078125,403.3330078125,403.3330078125,403.3330078125,403.3330078125,403.3330078125,403.3330078125,403.3330078125,403.3330078125,402.6669921875,402.6669921875,402.6669921875,402.6669921875,402.6669921875,402.6669921875,402.6669921875,402.6669921875,402.6669921875,402.6669921875,402.6669921875,401,401,401.3330078125,401.3330078125,401.3330078125,401.3330078125,401.3330078125,401.3330078125,399.5299987792969,397.3970031738281,390.20098876953125,384.1449890136719,375.12799072265625,364.3949890136719,352.052001953125,318.3089904785156,296.75299072265625,276.3340148925781,256.12799072265625,236.09300231933594,198.46600341796875,180.41700744628906,163.16000366210938,147.9029998779297,134.47300720214844,110.78800201416016,101.6989974975586,93.11799621582031,86.15299987792969,79.39399719238281,69.70099639892578],"ymouse":[832.8900146484375,832.8900146484375,832.8900146484375,832.8900146484375,832.8900146484375,832.8900146484375,832.8900146484375,834,834,834,834,834,834,834,834,834,834,832.6669921875,832.6669921875,832.6669921875,832.6669921875,832.6669921875,832.6669921875,832.6669921875,832.6669921875,832.6669921875,832.6669921875,832.6669921875,832.6669921875,832.6669921875,832.6669921875,832.6669921875,832.6669921875,832.6669921875,832.6669921875,832.6669921875,832.6669921875,832.6669921875,832,832,831.3330078125,830.5609741210938,830.1510009765625,828.0159912109375,825.8309936523438,822.0910034179688,814.2160034179688,803.6489868164062,777.4860229492188,760.8319702148438,735.89697265625,708.3209838867188,681.3300170898438,624.822021484375,592.7960205078125,559.0889892578125,525.0570068359375,487.2860107421875,418.3009948730469,380.40301513671875,343.9649963378906,309.3869934082031,274.72698974609375,214.3470001220703,186.69000244140625,163.85000610351562,141.84500122070312,122.18299865722656,92.677001953125],"timestamp_mouse":[74,92,112,132,152,172,192,212,232,252,272,292,312,333,352,373,392,413,433,453,472,492,513,532,553,573,593,613,633,653,673,693,713,733,753,773,793,813,833,853,873,893,913,933,953,973,993,1013,1033,1053,1073,1093,1113,1133,1153,1173,1193,1213,1233,1253,1273,1293,1313,1333,1354,1373,1393,1413,1434],"xSR":350,"ySR":768,"xT1":30,"yT1":0,"xT2":670,"yT2":0,"toosoon":0,"cond_shown":"randomdotsizeEA","ratio_trial":250,"smaller_num":"2","larger_num":"8","correct_side":1,"subjID":"15","gender":"No_gender","age":"No_age","school":"No_school"},{"start_time":1549310169479,"click_time":1549310170705,"finger_time":1549310170479,"fix_duration":697.5700933567692,"trial":20,"RT":1000,"MT":226,"sideResp":2,"stimulus":"img/500/equaldotsize/R/12_Ratio_500_L_1_R_2.png","xmouse":[392,392,392,392,392,392,392,391,391,391,391,391,391,391,391,391,391,392,392,392.6669921875,392.6669921875,392.6669921875,392.1700134277344,392,392,392,392,392,392,390,390,389,389,388.6669921875,388.6669921875,388.6669921875,388.6669921875,388.6669921875,388.6669921875,388.6669921875,388.6669921875,388.6669921875,388.6669921875,388.6669921875,388.4549865722656,388.4549865722656,388.4549865722656,409.69000244140625,422.4729919433594,449.27301025390625,466.82598876953125,486.44500732421875,509.7279968261719,536.1640014648438,594.27197265625,621.7940063476562,647.6510009765625,668.885009765625,687.0460205078125,712.364013671875],"ymouse":[836,836,836,836,836,836,836,836,836,836,836,836,836,836,836,836,836,834,834,834.6669921875,834.6669921875,834.6669921875,834.6669921875,834,835,835,835,835,835,836,836,836,836,836.6669921875,836.6669921875,836.6669921875,836.6669921875,836.6669921875,836.6669921875,836.6669921875,836.6669921875,836.6669921875,836.6669921875,836.6669921875,834.2119750976562,834.2119750976562,834.2119750976562,786.156005859375,747.7470092773438,661.5330200195312,609.9229736328125,555.3090209960938,491.71600341796875,428.3059997558594,303.2510070800781,252.77099609375,205.8000030517578,163.86399841308594,127.24099731445312,71.77999877929688],"timestamp_mouse":[1,76,80,100,120,141,160,180,200,220,240,260,280,300,320,340,360,380,406,420,440,460,480,500,520,540,560,580,600,620,640,660,680,700,720,740,760,780,800,820,840,860,880,900,920,940,960,980,1000,1021,1040,1060,1080,1100,1121,1140,1160,1180,1200,1221],"xSR":350,"ySR":768,"xT1":30,"yT1":0,"xT2":670,"yT2":0,"toosoon":0,"cond_shown":"equaldotsize","ratio_trial":500,"smaller_num":"1","larger_num":"2","correct_side":2,"subjID":"15","gender":"No_gender","age":"No_age","school":"No_school"},{"start_time":1549310172705,"click_time":1549310174042,"finger_time":1549310173700,"fix_duration":623.9764674771778,"trial":21,"RT":995,"MT":342,"sideResp":2,"stimulus":"img/250/randomdotsize/R/4_Ratio_250_L_3_R_12.png","xmouse":[394,394,394,394,394,397.3330078125,398,398,398,398,398,398,398,398,398,398,394.13800048828125,394.13800048828125,394.13800048828125,394.13800048828125,394.13800048828125,394.13800048828125,394.13800048828125,389.3330078125,389.3330078125,389.3330078125,387.3330078125,386.6669921875,386.6669921875,386.6669921875,386.6669921875,386.6669921875,386.6669921875,386.6669921875,386.6669921875,386.6669921875,386.6669921875,396,396,396,396,396,396,396,396,396,396,421.93798828125,451.7179870605469,469.66400146484375,490.6390075683594,513.2890014648438,533.5980224609375,573.6740112304688,591.7490234375,608.0709838867188,624.9719848632812,636.385009765625,647.9630126953125,663.9829711914062,668.2570190429688,671.3049926757812,674.1220092773438,678.4320068359375,680.5900268554688],"ymouse":[806,806,806,806,806,802.6669921875,803,803,803,803,803,803,803,803,803,803,805.3330078125,805.3330078125,805.3330078125,805.3330078125,805.3330078125,805.3330078125,805.3330078125,804.1939697265625,804.1939697265625,804.1939697265625,803.3330078125,802.6669921875,802.6669921875,802.6669921875,802.6669921875,802.6669921875,802.6669921875,802.6669921875,802.6669921875,802.6669921875,802.6669921875,810,810,810,810,810,810,810,810,810,810,671.885009765625,589.85302734375,545.614990234375,498.1600341796875,450.7550048828125,410.1369934082031,329.7070007324219,295.83599853515625,262.32501220703125,232.3179931640625,206.56399536132812,184.07400512695312,148.2220001220703,134.33299255371094,125.44500732421875,117.24099731445312,102.15599822998047,96.5250015258789],"timestamp_mouse":[70,75,95,115,135,155,175,195,215,235,255,275,295,315,335,355,375,395,415,435,455,475,495,515,535,555,575,595,616,635,655,675,695,716,735,755,775,795,816,835,855,875,895,915,935,955,975,995,1016,1035,1055,1075,1095,1115,1135,1155,1175,1195,1215,1235,1255,1275,1295,1315,1335],"xSR":350,"ySR":768,"xT1":30,"yT1":0,"xT2":670,"yT2":0,"toosoon":0,"cond_shown":"randomdotsize","ratio_trial":250,"smaller_num":"3","larger_num":"12","correct_side":2,"subjID":"15","gender":"No_gender","age":"No_age","school":"No_school"},{"start_time":1549310176728,"click_time":1549310178363,"finger_time":1549310178021,"fix_duration":953.3307029168083,"trial":22,"RT":1293,"MT":342,"sideResp":2,"stimulus":"img/900/equaldotsize/L/8_Ratio_900_L_20_R_18.png","xmouse":[384,384,381.3330078125,381.3330078125,381.3330078125,381.3330078125,381.3330078125,381.3330078125,381.3330078125,381.3330078125,381.3330078125,381.3330078125,380,380,380,380,380,380,379.3330078125,379.3330078125,379.3330078125,379.3330078125,379.3330078125,379.3330078125,379.3330078125,379.3330078125,379.3330078125,379.3330078125,379.3330078125,379.3330078125,379.3330078125,379.3330078125,379.3330078125,379.3330078125,379.3330078125,379.3330078125,379.3330078125,379.3330078125,379.3330078125,379.3330078125,379.3330078125,380,380,380.6669921875,381.3330078125,381.3330078125,380.6669921875,380.6669921875,381.1860046386719,381.1860046386719,381.1860046386719,381.1860046386719,381.1860046386719,381.1860046386719,383.3330078125,382.8450012207031,382.8450012207031,382.8450012207031,383.3330078125,383.3330078125,383.3330078125,383.3330078125,400.4129943847656,418.69000244140625,428.7510070800781,440.2099914550781,453.0849914550781,466.81298828125,483.489990234375,511.27099609375,525.2219848632812,538.822021484375,550.718994140625,580.1420288085938,595.8579711914062,610.8889770507812,628.3289794921875,643.6199951171875,672.9310302734375,684.3759765625],"ymouse":[862,862,859.0980224609375,859.0980224609375,859.0980224609375,859.0980224609375,859.0980224609375,859.0980224609375,859.0980224609375,859.0980224609375,859.0980224609375,859.0980224609375,858,858,858,858,858,858,857.3330078125,856.4990234375,856.4990234375,856.4990234375,856.4990234375,856.4990234375,856.4990234375,856.4990234375,856.4990234375,856.4990234375,856.4990234375,856.4990234375,855.3330078125,855.3330078125,855.3330078125,855.3330078125,855.3330078125,855.3330078125,855.3330078125,855.3330078125,855.3330078125,855.3330078125,855.3330078125,854,854,851.9450073242188,850.39599609375,850.39599609375,846.7509765625,846.7509765625,839.1079711914062,839.1079711914062,839.1079711914062,839.1079711914062,839.1079711914062,839.1079711914062,807.843994140625,805.6909790039062,805.6909790039062,805.6909790039062,794.1069946289062,794.1069946289062,794.1069946289062,794.1069946289062,728.56201171875,665.405029296875,633.0809936523438,601.6890258789062,569.85400390625,538.1749877929688,506.9859619140625,448.2229919433594,417.61199951171875,385.947998046875,355.8689880371094,291.55999755859375,260.0069885253906,228.28599548339844,196.98599243164062,166.6649932861328,116.64900207519531,99.34200286865234],"timestamp_mouse":[6,78,101,112,133,152,172,193,212,232,252,272,292,312,333,353,373,393,414,435,452,472,493,512,532,553,573,593,613,633,653,673,693,713,733,753,773,793,813,833,853,873,893,914,933,953,973,993,1013,1033,1053,1073,1093,1113,1133,1153,1173,1193,1214,1233,1253,1273,1293,1314,1333,1353,1373,1393,1413,1435,1453,1473,1493,1514,1533,1553,1573,1593,1614,1633],"xSR":350,"ySR":768,"xT1":30,"yT1":0,"xT2":670,"yT2":0,"toosoon":0,"cond_shown":"equaldotsize","ratio_trial":900,"smaller_num":"18","larger_num":"20","correct_side":1,"subjID":"15","gender":"No_gender","age":"No_age","school":"No_school"},{"start_time":1549310182347,"click_time":1549310183743,"finger_time":1549310183282,"fix_duration":1264.3469524662555,"trial":23,"RT":935,"MT":461,"sideResp":1,"stimulus":"img/250/equaldotsize/L/5_Ratio_250_L_24_R_6.png","xmouse":[383.8630065917969,383.8630065917969,383.8630065917969,383.8630065917969,383.8630065917969,383.8630065917969,383.8630065917969,383.8630065917969,383.8630065917969,383.8630065917969,382,382,382,382,382,382,382,382,382,382,382,382.0190124511719,382.0190124511719,382,382,382,382,382,382,382,382,382,382,382,382,382,382,382,388.8320007324219,388.8320007324219,393.3070068359375,394.3970031738281,395.4830017089844,393.3900146484375,393.3900146484375,393.3900146484375,393.3900146484375,393.3900146484375,364.6919860839844,354.2349853515625,341.9930114746094,327.4049987792969,313.7869873046875,283.8680114746094,267.61700439453125,252.9580078125,238.97999572753906,224.1959991455078,194.91099548339844,181.94900512695312,170.76800537109375,159.11099243164062,150.53799438476562,134.9290008544922,128.4759979248047,123.04000854492188,118.91999816894531],"ymouse":[812.6669921875,812.6669921875,812.6669921875,812.6669921875,812.6669921875,812.6669921875,812.6669921875,812.6669921875,812.6669921875,812.6669921875,812,812,812,812,812,812,812,812,812,812,812,809.9810180664062,809.9810180664062,812,813,813,814,814,814,814,814,814,814,814,814,814,814,814,809.1680297851562,809.1680297851562,800.7069702148438,797.0770263671875,793.552001953125,758.323974609375,758.323974609375,758.323974609375,758.323974609375,758.323974609375,578.7659912109375,543.1740112304688,509.5369873046875,475.4949951171875,441.197998046875,374.135009765625,344.1109924316406,314.6579895019531,287.0639953613281,261.0979919433594,217.01499938964844,196.28399658203125,177.572998046875,160.968994140625,146.80799865722656,121.25799560546875,109.90399932861328,101.12999725341797,94.98300170898438],"timestamp_mouse":[81,95,114,135,155,175,195,215,235,255,275,295,315,335,355,375,395,415,435,455,475,495,516,535,555,575,595,615,635,655,675,695,715,735,755,775,795,815,835,855,875,895,915,935,955,975,995,1015,1035,1055,1075,1095,1115,1135,1155,1175,1195,1215,1235,1255,1275,1295,1315,1335,1355,1375,1395],"xSR":350,"ySR":768,"xT1":30,"yT1":0,"xT2":670,"yT2":0,"toosoon":0,"cond_shown":"equaldotsize","ratio_trial":250,"smaller_num":"6","larger_num":"24","correct_side":1,"subjID":"15","gender":"No_gender","age":"No_age","school":"No_school"},{"start_time":1549310187085,"click_time":1549310189165,"finger_time":1549310188743,"fix_duration":1161.0763480112232,"trial":24,"RT":1658,"MT":422,"sideResp":2,"stimulus":"img/900/randomdotsize/R/7_Ratio_900_L_9_R_10.png","xmouse":[414,414,414,414,413.3330078125,414,414,414,414,414,414,414,414,414,414,414,414,414,414,414,414,414,414,414,414,414,414,414,414,414,414,414,414,414,414,414,414,414,414,410.6669921875,410.6669921875,410.6669921875,410.6669921875,410.6669921875,410.6669921875,410.6669921875,410.6669921875,410.6669921875,410.6669921875,410.8179931640625,410,410,410,410,410,410,410,410,412.6669921875,412.6669921875,413.489990234375,413.3330078125,413.3330078125,413.3330078125,413.3330078125,413.3330078125,413.3330078125,413.3330078125,413.3330078125,410.0270080566406,409.5979919433594,409.3330078125,408.6669921875,408,409.3330078125,409.3330078125,410,411.03399658203125,413.18499755859375,415.2019958496094,418.0220031738281,423.9750061035156,433.24200439453125,445.5159912109375,479.00799560546875,498.406005859375,519.6500244140625,539.302978515625,577.0460205078125,595.2139892578125,613.1799926757812,628.197021484375,640.2059936523438,661.4119873046875,668.3250122070312,675.927001953125,679.4819946289062,682.719970703125,685.3330078125,685.3330078125,686.5440063476562,687.6320190429688],"ymouse":[826,826,826,826,824.6669921875,824,824,824,823,823,823,823,823,823,823,823,823,823,824,824,824,824,824,824,824,824,824,824,826,826,826,826,826,826,826,826,826,826,826,823.3330078125,823.3330078125,823.3330078125,823.3330078125,823.3330078125,823.3330078125,823.3330078125,823.3330078125,823.3330078125,823.3330078125,821.3330078125,822,822,822,822,822,822,822,822,827.3389892578125,827.3330078125,827.3330078125,826.6669921875,826.6669921875,826.6669921875,826.6669921875,826.6669921875,826.6669921875,826.6669921875,826.6669921875,806.0540161132812,804.5289916992188,803.1929931640625,802.1090087890625,802,799.5360107421875,798.4559936523438,796,794.5989990234375,785.0360107421875,774.655029296875,761.2319946289062,738.3270263671875,710.2750244140625,677.5449829101562,608.6500244140625,571.6539916992188,532.0139770507812,492.72698974609375,417.7950134277344,381.0469970703125,345.906005859375,314.2720031738281,284.4949951171875,229.17100524902344,204.69200134277344,183.05599975585938,164.26600646972656,149.54600524902344,123.77999877929688,114.98001098632812,106.97899627685547,98.2750015258789],"timestamp_mouse":[77,77,98,117,137,157,177,197,218,238,258,278,298,318,337,358,378,398,420,438,458,478,498,519,537,558,578,598,618,638,658,678,698,719,738,758,778,798,820,840,858,878,898,918,938,958,978,998,1018,1038,1058,1078,1098,1118,1138,1158,1178,1198,1219,1238,1258,1278,1298,1320,1338,1358,1378,1398,1418,1438,1458,1478,1498,1518,1538,1558,1578,1598,1619,1638,1658,1678,1698,1718,1738,1758,1778,1798,1819,1838,1858,1878,1898,1919,1938,1958,1978,1998,2020,2038,2058,2078],"xSR":350,"ySR":768,"xT1":30,"yT1":0,"xT2":670,"yT2":0,"toosoon":0,"cond_shown":"randomdotsize","ratio_trial":900,"smaller_num":"9","larger_num":"10","correct_side":2,"subjID":"15","gender":"No_gender","age":"No_age","school":"No_school"},{"start_time":1549310192995,"click_time":1549310194206,"finger_time":1549310193944,"fix_duration":1168.9527692791644,"trial":25,"RT":949,"MT":262,"sideResp":2,"stimulus":"img/250/equaldotanddens/R/4_Ratio_250_L_3_R_12.png","xmouse":[380,380,380,380,380,380,380,380,380,380,378,378,378,378,378,376.6669921875,376.6669921875,376.6669921875,376.6669921875,376.6669921875,376.6669921875,376.6669921875,376.6669921875,376.6669921875,376.6669921875,390,392.25299072265625,393.8580017089844,395.843994140625,396,398,398,398,398,398,398,398,398,398,398,398,397.5400085449219,397.5400085449219,397.5400085449219,397.5400085449219,424.66900634765625,488.4219970703125,522.281005859375,554.0750122070312,583.56201171875,643.0880126953125,668.739990234375,691.2009887695312,706.1820068359375,718.239990234375,735.9429931640625,739.5430297851562,741.3679809570312,743.1129760742188],"ymouse":[830,830,830,829,829,829,829,829,829,829,829,829,829,829,829,829.3330078125,829.3330078125,829.3330078125,829.3330078125,829.3330078125,829.3330078125,829.3330078125,829.3330078125,829.3330078125,829.3330078125,816,815.2069702148438,814.6669921875,814.6669921875,814,814,814,814,814,814,814,814,814,814,814,814,811.3330078125,811.3330078125,811.3330078125,811.3330078125,763.7540283203125,651.6229858398438,588.6669921875,525.8499755859375,462.57000732421875,340.4909973144531,289.8529968261719,241.4010009765625,205.75799560546875,176.25900268554688,129.5050048828125,114.86900329589844,102.98699951171875,95.54299926757812],"timestamp_mouse":[29,88,91,109,129,149,169,189,209,229,249,269,289,309,329,351,369,389,409,429,449,469,489,509,529,549,569,589,609,629,649,669,689,709,729,749,769,789,809,829,849,869,889,909,929,949,969,989,1009,1029,1049,1069,1089,1109,1129,1149,1169,1189,1209],"xSR":350,"ySR":768,"xT1":30,"yT1":0,"xT2":670,"yT2":0,"toosoon":0,"cond_shown":"equaldotanddens","ratio_trial":250,"smaller_num":"3","larger_num":"12","correct_side":2,"subjID":"15","gender":"No_gender","age":"No_age","school":"No_school"},{"start_time":1549310195656,"click_time":1549310196865,"finger_time":1549310196545,"fix_duration":250,"trial":26,"RT":889,"MT":320,"sideResp":1,"stimulus":"img/900/equaldotsize/R/5_Ratio_900_L_9_R_10.png","xmouse":[362,362,362,362,362,362,362,362,362.6669921875,362.6669921875,362,362.6669921875,363.3330078125,364.1700134277344,364.5679931640625,364.6669921875,365.4159851074219,365.3330078125,366,366,365.1860046386719,365.3330078125,365.3330078125,365,366,366,366,366,366,366,366.6669921875,365.8389892578125,366,366,366,366,366,365.3330078125,364.6669921875,363.7030029296875,361.9200134277344,356.8349914550781,347.5270080566406,321.07000732421875,306.1499938964844,293.22900390625,281.2130126953125,269.45599365234375,246.16799926757812,231.4709930419922,216.28399658203125,198.33299255371094,181.69400024414062,151.3459930419922,137.33399963378906,124.74800109863281,113.01000213623047,102.94000244140625,87.78199768066406],"ymouse":[842,840,840,840,840,839,838,838,836.9630126953125,836.6669921875,836,835.0709838867188,834.6669921875,833.8300170898438,833.4320068359375,833.3330078125,832.583984375,832.6669921875,832,832,832.6669921875,832.6669921875,832.6669921875,832,832,832,831,831,831,830,830.6669921875,830.6669921875,830,829,830,830,829,829.3330078125,829.3330078125,826.4439697265625,819.7210083007812,800.2689819335938,770.1810302734375,690.6190185546875,649.3709716796875,605.905029296875,558.18701171875,509.8349609375,412.46099853515625,372.3070068359375,336.64898681640625,299.9989929199219,267.1860046386719,209.13299560546875,182.91099548339844,157.6009979248047,135.04800415039062,114.28199768066406,81.25],"timestamp_mouse":[10,81,89,108,128,148,169,189,208,229,249,269,290,308,329,349,369,389,410,429,449,469,489,509,529,549,569,589,609,629,649,669,689,709,729,749,769,789,809,829,849,869,889,909,929,949,969,989,1009,1029,1049,1069,1089,1109,1129,1149,1169,1189,1209],"xSR":350,"ySR":768,"xT1":30,"yT1":0,"xT2":670,"yT2":0,"toosoon":0,"cond_shown":"equaldotsize","ratio_trial":900,"smaller_num":"9","larger_num":"10","correct_side":2,"subjID":"15","gender":"No_gender","age":"No_age","school":"No_school"},{"start_time":1549310198222,"click_time":1549310199286,"finger_time":1549310199005,"fix_duration":250,"trial":27,"RT":783,"MT":281,"sideResp":1,"stimulus":"img/250/randomdotsize/L/14_Ratio_250_L_12_R_3.png","xmouse":[418.6669921875,418,418,418,417.3330078125,416.6669921875,416.14300537109375,416,415.31201171875,415.3330078125,414.6669921875,414.6669921875,414.6669921875,414.1780090332031,414,413.3330078125,412.51800537109375,412.1310119628906,412,410.6199951171875,410,408,408.30499267578125,407.2229919433594,406.81201171875,406,405,405,404.6669921875,404,403.4989929199219,403.3330078125,403.3330078125,402.6669921875,401.8420104980469,392.4570007324219,392.4570007324219,367.7330017089844,355.77801513671875,340.70599365234375,311.1619873046875,297.65899658203125,285.6080017089844,273.1400146484375,258.3890075683594,225.9980010986328,207.8990020751953,187.50399780273438,166.0590057373047,143.85400390625,105.26200103759766,88.66100311279297],"ymouse":[836.7000122070312,835,835,834,834.6669921875,834.6669921875,834.6669921875,834,834.64501953125,834.6669921875,834.6669921875,834.6669921875,834.6669921875,834.6669921875,833,833.3330078125,833.3330078125,832.6669921875,831,831.2869873046875,830,830,829.3330078125,829.3330078125,828.81201171875,828,828,828,827.4099731445312,827,827.3330078125,826.426025390625,826.02001953125,825.5880126953125,822.8599853515625,800.2470092773438,800.2470092773438,738.198974609375,703.3350219726562,663.198974609375,578.3189697265625,532.0830078125,483.4859924316406,438.0050048828125,391.5989990234375,305.3280029296875,263.5329895019531,227.91900634765625,194.65899658203125,164.1699981689453,109.18099975585938,81.99099731445312],"timestamp_mouse":[4,77,83,103,123,144,163,183,203,223,243,263,283,303,323,343,363,383,403,423,444,463,483,503,523,544,563,583,603,623,644,663,683,703,723,744,763,783,803,823,844,864,883,904,923,944,964,983,1003,1023,1045,1064],"xSR":350,"ySR":768,"xT1":30,"yT1":0,"xT2":670,"yT2":0,"toosoon":0,"cond_shown":"randomdotsize","ratio_trial":250,"smaller_num":"3","larger_num":"12","correct_side":1,"subjID":"15","gender":"No_gender","age":"No_age","school":"No_school"},{"start_time":1549310200337,"click_time":1549310201407,"finger_time":1549310201166,"fix_duration":250,"trial":28,"RT":829,"MT":241,"sideResp":2,"stimulus":"img/250/randomdotsizeEA/R/12_Ratio_250_L_5_R_20.png","xmouse":[387.3420104980469,387.3420104980469,388.6669921875,388.6669921875,388.6669921875,388.6669921875,388.6669921875,388.6669921875,388.6669921875,388.6669921875,388.6669921875,388.6669921875,388.6669921875,387,387,387,387,387,387,387,387,387,387,384.6669921875,384.6669921875,384.6669921875,384.6669921875,384.6669921875,384.6669921875,384.6669921875,384.6669921875,384.6669921875,395.6830139160156,397.82000732421875,401.4159851074219,401.4159851074219,401.4159851074219,417.0580139160156,443.125,501.91900634765625,528.5590209960938,551.3740234375,574.5170288085938,600.4630126953125,651.875,678.5859985351562,700.6729736328125,721.1920166015625,735.5050048828125,751.3790283203125,753.8309936523438],"ymouse":[824.6669921875,824.6669921875,822.6669921875,822.6669921875,822.6669921875,822.6669921875,822.6669921875,822.6669921875,822.6669921875,822.6669921875,822.6669921875,822.6669921875,822.6669921875,818,818,818,818,818,818,818,818,818,818,813.0079956054688,813.0079956054688,813.0079956054688,813.0079956054688,813.0079956054688,813.0079956054688,813.0079956054688,813.0079956054688,813.0079956054688,814.6669921875,814.6669921875,813.2509765625,813.2509765625,813.2509765625,779.1580200195312,742.9019775390625,648.5,597.4609985351562,542.3599853515625,483.1449890136719,418.7229919433594,307.85400390625,255.04299926757812,209.0970001220703,170.43699645996094,139.62899780273438,103.68599700927734,94.59200286865234],"timestamp_mouse":[75,88,108,128,149,168,188,208,229,248,269,289,308,329,350,369,388,409,429,449,469,489,509,529,550,569,589,609,629,649,669,689,709,729,748,769,789,809,829,849,869,889,909,929,949,969,989,1009,1029,1049,1069],"xSR":350,"ySR":768,"xT1":30,"yT1":0,"xT2":670,"yT2":0,"toosoon":0,"cond_shown":"randomdotsizeEA","ratio_trial":250,"smaller_num":"5","larger_num":"20","correct_side":2,"subjID":"15","gender":"No_gender","age":"No_age","school":"No_school"},{"start_time":1549310203262,"click_time":1549310204609,"finger_time":1549310204166,"fix_duration":874.1547121931184,"trial":29,"RT":904,"MT":443,"sideResp":1,"stimulus":"img/750/randomdotsizeEA/L/8_Ratio_750_L_4_R_3.png","xmouse":[385.6570129394531,387.4320068359375,393.0469970703125,393.0469970703125,393.3330078125,394.5409851074219,394,394,394,394,394,394,394,394,394,394,386.6669921875,386.6669921875,384.8680114746094,383.78900146484375,383.3739929199219,382.6669921875,382.135986328125,382,382,382,382,382,382.6669921875,382.6669921875,383.5530090332031,383.5530090332031,383.5530090332031,383.5530090332031,383.5530090332031,383.5530090332031,379.7829895019531,379.36700439453125,379.3330078125,378.5450134277344,375.30499267578125,362.4530029296875,355.7929992675781,355.7929992675781,339.864013671875,329.25299072265625,306.40301513671875,295.4410095214844,280.1189880371094,262.7980041503906,244.91299438476562,210.0030059814453,198.04800415039062,189.0469970703125,179.29100036621094,174.30299377441406,161.36199951171875,154.24400329589844,144.0919952392578,135.3769989013672,126.35299682617188,107.71900177001953,99.89900207519531,92.46099853515625,85.41200256347656,78.03900146484375,63.85699462890625],"ymouse":[843.3330078125,842.6170043945312,841.3330078125,841.3330078125,841.3330078125,841.3330078125,841,841,841,841,841,841,841,841,841,841,836.6669921875,836.6669921875,836.6669921875,836.6669921875,836.6669921875,836.6669921875,837.197998046875,837,837,837,838,838,838.6669921875,838.6669921875,839.552978515625,839.552978515625,839.552978515625,839.552978515625,839.552978515625,839.552978515625,837.1160278320312,836.7009887695312,835.6220092773438,835.3330078125,829.02099609375,802.905029296875,792.0269775390625,792.0269775390625,766.8619995117188,746.1480102539062,687.7009887695312,655.9119873046875,622.2639770507812,586.6290283203125,549.0180053710938,470.1409912109375,439.0920104980469,405.90301513671875,377.1510009765625,353.0610046386719,312.8599853515625,297.15399169921875,278.6990051269531,262.73699951171875,247.37200927734375,212.23599243164062,194.531005859375,177.5290069580078,158.9040069580078,138.48800659179688,95.8759994506836],"timestamp_mouse":[6,24,83,84,104,124,144,164,184,204,224,244,264,284,304,324,347,364,384,404,424,445,464,484,504,524,544,564,584,604,624,646,664,684,704,724,744,764,784,804,824,844,864,884,904,924,944,964,984,1004,1024,1047,1064,1084,1104,1125,1148,1164,1184,1205,1225,1247,1264,1285,1305,1325,1347],"xSR":350,"ySR":768,"xT1":30,"yT1":0,"xT2":670,"yT2":0,"toosoon":0,"cond_shown":"randomdotsizeEA","ratio_trial":750,"smaller_num":"3","larger_num":"4","correct_side":1,"subjID":"15","gender":"No_gender","age":"No_age","school":"No_school"},{"start_time":1549310206239,"click_time":1549310207587,"finger_time":1549310207067,"fix_duration":250,"trial":30,"RT":828,"MT":520,"sideResp":2,"stimulus":"img/750/randomdotsize/R/2_Ratio_750_L_6_R_8.png","xmouse":[395.3330078125,395,395,395,395,395,395,395,395,395,395.3330078125,395.3330078125,395.3330078125,395.3330078125,395.3330078125,395.3330078125,395.3330078125,395.3330078125,395.3330078125,395.3330078125,395,395,395,395,395,395,395,395,395,395,395,395,395,395,395,395,395,395,395,416.8380126953125,423.9840087890625,432.0790100097656,457.2969970703125,472.08099365234375,488.71099853515625,503.4670104980469,515.2899780273438,538.7550048828125,547.3709716796875,559.1179809570312,569.1060180664062,578.7830200195312,598.3369750976562,606.10400390625,614.9959716796875,621.7340087890625,626.9229736328125,635.9219970703125,641.968017578125,647.3820190429688,653.4299926757812,657.8170166015625,665.343994140625,669.3930053710938,672.52001953125,675.75],"ymouse":[827.8380126953125,826,826,826,826,826,826,826,826,826,825.3330078125,825.3330078125,825.3330078125,825.3330078125,825.3330078125,825.3330078125,825.3330078125,825.3330078125,825.3330078125,825.3330078125,826,826,826,826,826,826,826,826,826,826,828,828,828,828,828,828,828,828,828,717.22802734375,690.0689697265625,663.802001953125,604.1719970703125,573.5460205078125,543.8560180664062,519.6649780273438,498.282958984375,448.489990234375,424.3529968261719,401.09698486328125,377.37200927734375,356.3940124511719,311.15899658203125,289.69000244140625,266.67498779296875,243.57000732421875,219.7689971923828,176.2790069580078,160.61099243164062,145.9980010986328,135.13900756835938,127.32000732421875,114.64599609375,108.24400329589844,102