[{"start_time":1549308906955,"click_time":1549308910879,"finger_time":1549308907039,"fix_duration":626.803066675671,"trial":0,"RT":84,"MT":3840,"sideResp":1,"stimulus":[],"xmouse":[411.3330078125,411.3330078125,411.3330078125,411.3330078125,411.3330078125,411.3330078125,411.3330078125,411.3330078125,411.3330078125,411.3330078125,411.3330078125,411.3330078125,411.3330078125,411.3330078125,411.3330078125,411.3330078125,411.3330078125,411.3330078125,411.3330078125,411.3330078125,411.3330078125,411.3330078125,411.3330078125,411.3330078125,411.3330078125,411.3330078125,411.3330078125,411.3330078125,411.3330078125,411.3330078125,411.3330078125,411,411,411,411,411,411,411,411,411,411,411,411,411,411,411,411,411,411,411,411,411,411,411,411,411,411,411,411,411,411,411,411,411,411,411,411,411,411,411,411,411,411,411,411,411,411,411,411,411,411,411,411,418,418,418,418,418,418,418,418,418,418,418,418,418,418,418,418,418,418,418,418,418,418,418,418,418,418,418,418,418,418,418,418,418,418,418,418,418,418,418,418,418,418,418,418,418,418,418,418,418,418,418,418,418,418,418,418,418,418,418,418,418,418,418,418,418,418,418,397,397,397,397,397,397,397,397,397,397,397,397,397,400,400,400,400,400,395.4779968261719,391.9750061035156,386.1910095214844,378.57501220703125,371.96600341796875,353.9150085449219,343.5459899902344,332.30999755859375,317.6000061035156,289.5610046386719,274.93798828125,260.468994140625,246.531005859375,232,202.9290008544922,189.0540008544922,173.33799743652344,161.60800170898438,149.06399536132812,125.22200012207031,114.24800109863281,106.21399688720703,98.7770004272461,92.85700225830078,88.02799987792969],"ymouse":[501.3330078125,501.3330078125,501.3330078125,501.3330078125,501.3330078125,501.3330078125,501.3330078125,501.3330078125,501.3330078125,501.3330078125,501.3330078125,501.3330078125,501.3330078125,501.3330078125,501.3330078125,501.3330078125,501.3330078125,501.3330078125,501.3330078125,501.3330078125,501.3330078125,501.3330078125,501.3330078125,501.3330078125,501.3330078125,501.3330078125,501.3330078125,501.3330078125,501.3330078125,501.3330078125,501.3330078125,511,511,511,511,511,511,511,511,511,511,511,511,511,511,511,511,511,511,511,511,511,511,511,511,511,511,511,511,511,511,511,511,511,511,511,511,511,511,511,511,511,511,511,511,511,511,511,511,511,511,511,511,817,817,817,817,817,817,817,817,817,817,817,817,817,817,817,817,817,817,817,817,817,817,817,817,817,817,817,817,817,817,817,817,817,817,817,817,817,817,817,817,817,817,817,817,817,817,817,817,817,817,817,817,817,817,817,817,817,817,817,817,817,817,817,817,817,817,817,826,826,826,826,826,826,826,826,826,826,826,826,826,817,817,817,817,817,768.2039794921875,749.208984375,723.2730102539062,694.6129760742188,667.6380004882812,614.125,586.4199829101562,556.8489990234375,525.5989990234375,463.52398681640625,432.9440002441406,402.80999755859375,372.2619934082031,346.0010070800781,292.6570129394531,267.71099853515625,244.1400146484375,222.47999572753906,200.62600708007812,162.91799926757812,143.64599609375,129.04100036621094,115.91900634765625,103.61900329589844,94.55000305175781],"timestamp_mouse":[84,101,121,141,161,181,201,221,241,261,281,301,321,341,361,381,401,421,441,461,481,501,521,541,561,581,601,621,641,661,681,701,721,741,761,781,801,821,841,861,881,903,921,941,961,981,1001,1021,1041,1061,1081,1102,1121,1141,1161,1181,1201,1221,1241,1261,1281,1301,1321,1341,1361,1381,1401,1421,1441,1461,1481,1501,1521,1541,1561,1581,1601,1621,1641,1661,1681,1701,1721,1741,1761,1781,1801,1821,1841,1861,1881,1901,1921,1941,1961,1981,2001,2021,2041,2061,2081,2101,2121,2141,2161,2181,2201,2221,2241,2261,2281,2301,2321,2341,2361,2381,2401,2421,2441,2461,2481,2501,2521,2541,2561,2581,2601,2621,2641,2661,2682,2702,2721,2741,2761,2782,2802,2822,2842,2862,2882,2902,2922,2942,2962,2982,3002,3022,3042,3062,3082,3102,3122,3142,3162,3182,3202,3222,3242,3262,3282,3302,3322,3342,3362,3382,3402,3422,3442,3462,3482,3502,3522,3542,3562,3582,3602,3625,3642,3662,3682,3702,3727,3742,3762,3782,3802,3823,3843,3862,3882,3902,3922],"xSR":350,"ySR":451.2,"xT1":30,"yT1":0,"xT2":670,"yT2":0,"toosoon":0,"cond_shown":"Equal","ratio_trial":500,"L_num":2,"L_den":12,"R_num":2,"R_den":3,"correct_side":2,"subjID":"15","gender":"No_gender","age":"No_age","school":"No_school","test":{"fix_dur":[250,1500],"timestim":900,"targets_dim":[100,100],"targets_relative_coord":[0.1,0.9],"size_stim":[880,420],"start_dim":[100,100],"size_start":[300,300],"size_fix":60,"samplingrate":20,"img_types":["Congruent","Incongruent","Equal"],"ratios":[100,200,300,500],"rep_conds":15,"nTrials":192,"trials_to_rest":500,"Trials_order":[107,109,162,31,55,96,90,175,170,191,188,33,169,17,117,112,163,150,18,108,104,146,121,130,6,42,145,53,61,178,187,184,35,49,110,123,122,151,160,120,79,111,173,176,158,74,137,44,27,4,75,73,116,91,124,164,142,41,88,119,67,181,141,10,34,129,149,93,89,157,131,71,156,15,25,13,5,100,28,118,106,47,3,140,54,165,81,82,114,84,30,147,1,63,143,51,77,139,85,38,12,148,23,62,95,127,172,180,132,167,8,78,57,80,39,22,154,189,126,9,21,14,174,159,134,2,153,152,83,60,45,97,58,11,101,86,46,103,185,94,24,0,26,168,64,179,138,87,144,32,183,36,161,69,70,92,56,125,20,52,190,136,50,37,43,133,59,72,113,65,155,76,40,186,66,102,135,171,68,19,99,48,105,166,182,98,177,7,16,128,115,29],"cond_shown":["Equal","Incongruent","Congruent","Incongruent","Incongruent","Congruent","Congruent","Incongruent","Equal","Equal","Equal","Congruent","Incongruent","Equal","Congruent","Incongruent","Incongruent","Congruent","Congruent","Congruent","Equal","Equal","Incongruent","Incongruent","Congruent","Congruent","Incongruent","Equal","Incongruent","Incongruent","Incongruent","Incongruent","Equal","Incongruent","Equal","Congruent","Equal","Incongruent","Incongruent","Congruent","Incongruent","Congruent","Equal","Equal","Equal","Equal","Equal","Equal","Congruent","Incongruent","Congruent","Incongruent","Equal","Incongruent","Incongruent","Equal","Incongruent","Equal","Incongruent","Equal","Incongruent","Incongruent","Congruent","Incongruent","Incongruent","Congruent","Equal","Congruent","Equal","Incongruent","Equal","Equal","Congruent","Congruent","Incongruent","Incongruent","Equal","Incongruent","Incongruent","Incongruent","Incongruent","Equal","Congruent","Equal","Congruent","Congruent","Congruent","Incongruent","Congruent","Congruent","Congruent","Congruent","Incongruent","Congruent","Equal","Congruent","Equal","Incongruent","Incongruent","Equal","Congruent","Incongruent","Equal","Equal","Equal","Incongruent","Incongruent","Congruent","Congruent","Equal","Equal","Congruent","Congruent","Equal","Congruent","Incongruent","Incongruent","Congruent","Congruent","Congruent","Congruent","Equal","Congruent","Congruent","Equal","Equal","Congruent","Equal","Equal","Congruent","Congruent","Incongruent","Incongruent","Equal","Equal","Equal","Incongruent","Incongruent","Equal","Incongruent","Congruent","Congruent","Equal","Congruent","Incongruent","Equal","Congruent","Congruent","Congruent","Equal","Congruent","Congruent","Equal","Congruent","Incongruent","Equal","Equal","Equal","Equal","Incongruent","Incongruent","Incongruent","Equal","Incongruent","Incongruent","Incongruent","Equal","Congruent","Equal","Equal","Equal","Incongruent","Incongruent","Congruent","Congruent","Congruent","Congruent","Congruent","Equal","Incongruent","Congruent","Congruent","Congruent","Incongruent","Equal","Equal","Congruent","Incongruent","Incongruent","Equal","Incongruent","Equal"],"ratio_trial":[500,100,300,300,300,100,300,300,100,500,300,500,100,200,500,200,300,300,300,100,300,100,100,500,300,300,100,200,100,500,300,200,500,100,100,200,100,300,200,100,300,200,200,300,100,100,200,300,200,200,200,100,300,300,200,300,500,200,200,500,300,100,500,500,500,500,200,500,200,100,500,500,100,200,100,100,200,200,200,500,500,500,200,300,300,500,500,500,300,100,300,200,100,200,500,200,200,300,100,100,100,200,500,100,500,300,200,100,100,500,300,300,500,300,200,500,500,500,300,500,500,100,300,200,100,100,500,300,500,100,500,100,500,500,200,100,500,300,200,500,100,100,100,100,200,500,300,200,100,300,200,100,200,500,500,300,300,200,300,200,500,200,100,100,300,100,500,100,200,200,500,200,200,300,300,300,200,200,300,300,200,100,500,500,100,100,500,300,200,300,300,200],"left_num":[2,12,5,4,3,6,4,7,6,6,9,3,8,3,10,4,2,2,2,12,18,6,10,7,20,8,6,3,6,5,2,4,6,9,2,6,2,3,7,3,13,20,3,18,6,6,3,9,9,6,3,3,18,3,7,9,7,3,7,6,8,10,4,7,2,4,3,9,3,9,6,6,2,5,10,6,3,7,7,2,5,2,6,9,1,7,3,5,20,4,1,5,10,3,6,6,3,1,12,2,1,14,6,6,6,3,1,2,4,6,18,3,12,9,3,7,7,6,20,8,3,6,1,3,6,6,5,9,6,2,7,6,7,6,3,6,7,13,3,5,9,4,6,11,7,6,12,20,2,9,11,7,3,2,2,3,9,3,9,1,5,3,6,3,4,12,2,11,3,3,6,3,7,20,4,20,5,5,3,13,8,9,2,7,6,6,1,13,7,9,8,3],"right_num":[2,2,6,2,4,5,2,8,6,6,9,6,6,3,7,6,6,10,12,13,18,6,9,5,8,10,13,3,3,6,6,6,6,20,2,11,2,4,4,4,12,9,3,18,6,6,3,9,13,3,14,7,18,4,12,9,5,3,12,6,14,9,12,5,4,12,3,20,3,20,6,6,6,14,8,3,3,12,12,4,6,2,3,9,3,9,14,6,13,6,19,14,8,9,6,11,3,3,2,2,18,12,6,6,6,4,3,11,6,6,18,11,3,9,14,5,9,1,14,1,14,6,8,9,6,6,6,9,6,11,9,7,9,6,3,6,5,12,3,6,8,6,6,6,8,6,2,9,11,9,3,9,3,18,4,3,9,3,9,2,6,1,6,8,8,2,2,6,3,3,6,1,4,8,1,13,14,14,3,12,3,8,7,5,6,6,11,12,6,9,14,3],"left_den":[12,30,25,20,6,20,5,10,12,24,12,30,16,10,13,5,4,20,10,30,30,12,25,21,25,15,10,6,12,6,4,5,8,10,12,20,12,6,15,20,26,25,6,30,10,10,10,12,30,20,10,9,30,6,10,12,21,10,10,24,10,25,24,21,3,24,6,27,6,10,8,8,5,10,25,12,6,10,10,3,6,12,15,12,5,28,8,6,25,8,3,10,25,12,8,20,6,2,30,12,2,30,24,10,24,6,2,5,8,8,30,12,16,12,10,21,8,9,25,12,8,10,30,12,12,10,14,12,8,5,28,10,8,8,10,12,21,26,10,6,15,8,12,22,10,8,24,25,5,12,22,14,6,5,3,10,12,6,20,3,6,10,10,5,5,30,12,22,10,6,8,10,15,25,10,25,10,10,10,26,15,15,24,21,12,12,9,26,15,12,10,10],"right_den":[3,4,12,4,20,25,4,20,10,8,20,10,10,6,26,10,30,25,24,26,20,10,18,6,16,12,26,10,5,18,30,10,24,25,30,22,30,20,6,16,15,15,10,20,12,12,6,20,26,6,28,30,20,20,24,20,6,6,24,8,28,18,18,6,24,18,10,24,10,25,24,24,12,20,16,5,10,24,24,24,18,3,15,20,6,12,16,18,26,10,30,20,16,20,24,22,10,15,4,30,30,18,8,12,8,20,10,22,10,24,20,20,12,20,28,6,24,6,28,6,16,12,24,20,10,12,7,20,24,22,12,14,24,24,6,10,6,15,6,18,16,10,10,15,16,24,10,15,22,20,10,15,10,20,24,5,20,10,12,15,18,2,12,16,16,4,3,15,6,10,24,2,6,16,10,26,20,20,5,15,9,16,12,6,10,10,18,15,9,20,28,6],"correct_side":[2,2,2,2,1,1,1,1,2,2,1,2,2,2,1,1,1,2,2,2,2,2,2,2,1,2,1,1,2,1,1,1,1,1,1,2,1,1,2,2,2,1,1,2,1,1,2,1,2,2,2,1,2,1,1,1,2,2,1,2,1,2,2,2,1,2,1,2,1,1,1,1,2,2,2,2,1,1,1,1,1,2,1,1,2,2,2,1,1,2,2,2,2,2,1,2,1,1,2,1,2,2,2,1,2,1,1,2,2,1,2,2,1,1,2,2,1,1,1,1,2,1,2,2,2,1,2,1,1,2,2,1,1,1,2,2,2,2,2,1,1,2,2,1,1,1,1,1,2,1,1,2,1,2,1,2,1,1,2,1,1,2,1,1,1,2,2,1,2,1,1,2,2,1,1,1,2,2,2,2,1,1,2,2,2,2,2,2,2,1,1,2],"img_shown":["img2/500/Equal/R/E_Dist_500_LN_2_LD_12_RN_2_RD_3_1.png","img2/100/Incongruent/R/I_Dist_100_LN_12_LD_30_RN_2_RD_4_1.png","img2/300/Congruent/R/C_Dist_300_LN_5_LD_25_RN_6_RD_12_1.png","img2/300/Incongruent/R/I_Dist_300_LN_4_LD_20_RN_2_RD_4_1.png","img2/300/Incongruent/L/I_Dist_300_LN_3_LD_6_RN_4_RD_20_0.png","img2/100/Congruent/L/C_Dist_100_LN_6_LD_20_RN_5_RD_25_0.png","img2/300/Congruent/L/C_Dist_300_LN_4_LD_5_RN_2_RD_4_0.png","img2/300/Incongruent/L/I_Dist_300_LN_7_LD_10_RN_8_RD_20_0.png","img2/100/Equal/R/E_Dist_100_LN_6_LD_12_RN_6_RD_10_1.png","img2/500/Equal/R/E_Dist_500_LN_6_LD_24_RN_6_RD_8_1.png","img2/300/Equal/L/E_Dist_300_LN_9_LD_12_RN_9_RD_20_0.png","img2/500/Congruent/R/C_Dist_500_LN_3_LD_30_RN_6_RD_10_1.png","img2/100/Incongruent/R/I_Dist_100_LN_8_LD_16_RN_6_RD_10_1.png","img2/200/Equal/R/E_Dist_200_LN_3_LD_10_RN_3_RD_6_1.png","img2/500/Congruent/L/C_Dist_500_LN_10_LD_13_RN_7_RD_26_0.png","img2/200/Incongruent/L/I_Dist_200_LN_4_LD_5_RN_6_RD_10_0.png","img2/300/Incongruent/L/I_Dist_300_LN_2_LD_4_RN_6_RD_30_0.png","img2/300/Congruent/R/C_Dist_300_LN_2_LD_20_RN_10_RD_25_1.png","img2/300/Congruent/R/C_Dist_300_LN_2_LD_10_RN_12_RD_24_1.png","img2/100/Congruent/R/C_Dist_100_LN_12_LD_30_RN_13_RD_26_1.png","img2/300/Equal/R/E_Dist_300_LN_18_LD_30_RN_18_RD_20_1.png","img2/100/Equal/R/E_Dist_100_LN_6_LD_12_RN_6_RD_10_1.png","img2/100/Incongruent/R/I_Dist_100_LN_10_LD_25_RN_9_RD_18_1.png","img2/500/Incongruent/R/I_Dist_500_LN_7_LD_21_RN_5_RD_6_1.png","img2/300/Congruent/L/C_Dist_300_LN_20_LD_25_RN_8_RD_16_0.png","img2/300/Congruent/R/C_Dist_300_LN_8_LD_15_RN_10_RD_12_1.png","img2/100/Incongruent/L/I_Dist_100_LN_6_LD_10_RN_13_RD_26_0.png","img2/200/Equal/L/E_Dist_200_LN_3_LD_6_RN_3_RD_10_0.png","img2/100/Incongruent/R/I_Dist_100_LN_6_LD_12_RN_3_RD_5_1.png","img2/500/Incongruent/L/I_Dist_500_LN_5_LD_6_RN_6_RD_18_0.png","img2/300/Incongruent/L/I_Dist_300_LN_2_LD_4_RN_6_RD_30_0.png","img2/200/Incongruent/L/I_Dist_200_LN_4_LD_5_RN_6_RD_10_0.png","img2/500/Equal/L/E_Dist_500_LN_6_LD_8_RN_6_RD_24_0.png","img2/100/Incongruent/L/I_Dist_100_LN_9_LD_10_RN_20_RD_25_0.png","img2/100/Equal/L/E_Dist_100_LN_2_LD_12_RN_2_RD_30_0.png","img2/200/Congruent/R/C_Dist_200_LN_6_LD_20_RN_11_RD_22_1.png","img2/100/Equal/L/E_Dist_100_LN_2_LD_12_RN_2_RD_30_0.png","img2/300/Incongruent/L/I_Dist_300_LN_3_LD_6_RN_4_RD_20_0.png","img2/200/Incongruent/R/I_Dist_200_LN_7_LD_15_RN_4_RD_6_1.png","img2/100/Congruent/R/C_Dist_100_LN_3_LD_20_RN_4_RD_16_1.png","img2/300/Incongruent/R/I_Dist_300_LN_13_LD_26_RN_12_RD_15_1.png","img2/200/Congruent/L/C_Dist_200_LN_20_LD_25_RN_9_RD_15_0.png","img2/200/Equal/L/E_Dist_200_LN_3_LD_6_RN_3_RD_10_0.png","img2/300/Equal/R/E_Dist_300_LN_18_LD_30_RN_18_RD_20_1.png","img2/100/Equal/L/E_Dist_100_LN_6_LD_10_RN_6_RD_12_0.png","img2/100/Equal/L/E_Dist_100_LN_6_LD_10_RN_6_RD_12_0.png","img2/200/Equal/R/E_Dist_200_LN_3_LD_10_RN_3_RD_6_1.png","img2/300/Equal/L/E_Dist_300_LN_9_LD_12_RN_9_RD_20_0.png","img2/200/Congruent/R/C_Dist_200_LN_9_LD_30_RN_13_RD_26_1.png","img2/200/Incongruent/R/I_Dist_200_LN_6_LD_20_RN_3_RD_6_1.png","img2/200/Congruent/R/C_Dist_200_LN_3_LD_10_RN_14_RD_28_1.png","img2/100/Incongruent/L/I_Dist_100_LN_3_LD_9_RN_7_RD_30_0.png","img2/300/Equal/R/E_Dist_300_LN_18_LD_30_RN_18_RD_20_1.png","img2/300/Incongruent/L/I_Dist_300_LN_3_LD_6_RN_4_RD_20_0.png","img2/200/Incongruent/L/I_Dist_200_LN_7_LD_10_RN_12_RD_24_0.png","img2/300/Equal/L/E_Dist_300_LN_9_LD_12_RN_9_RD_20_0.png","img2/500/Incongruent/R/I_Dist_500_LN_7_LD_21_RN_5_RD_6_1.png","img2/200/Equal/R/E_Dist_200_LN_3_LD_10_RN_3_RD_6_1.png","img2/200/Incongruent/L/I_Dist_200_LN_7_LD_10_RN_12_RD_24_0.png","img2/500/Equal/R/E_Dist_500_LN_6_LD_24_RN_6_RD_8_1.png","img2/300/Incongruent/L/I_Dist_300_LN_8_LD_10_RN_14_RD_28_0.png","img2/100/Incongruent/R/I_Dist_100_LN_10_LD_25_RN_9_RD_18_1.png","img2/500/Congruent/R/C_Dist_500_LN_4_LD_24_RN_12_RD_18_1.png","img2/500/Incongruent/R/I_Dist_500_LN_7_LD_21_RN_5_RD_6_1.png","img2/500/Incongruent/L/I_Dist_500_LN_2_LD_3_RN_4_RD_24_0.png","img2/500/Congruent/R/C_Dist_500_LN_4_LD_24_RN_12_RD_18_1.png","img2/200/Equal/L/E_Dist_200_LN_3_LD_6_RN_3_RD_10_0.png","img2/500/Congruent/R/C_Dist_500_LN_9_LD_27_RN_20_RD_24_1.png","img2/200/Equal/L/E_Dist_200_LN_3_LD_6_RN_3_RD_10_0.png","img2/100/Incongruent/L/I_Dist_100_LN_9_LD_10_RN_20_RD_25_0.png","img2/500/Equal/L/E_Dist_500_LN_6_LD_8_RN_6_RD_24_0.png","img2/500/Equal/L/E_Dist_500_LN_6_LD_8_RN_6_RD_24_0.png","img2/100/Congruent/R/C_Dist_100_LN_2_LD_5_RN_6_RD_12_1.png","img2/200/Congruent/R/C_Dist_200_LN_5_LD_10_RN_14_RD_20_1.png","img2/100/Incongruent/R/I_Dist_100_LN_10_LD_25_RN_8_RD_16_1.png","img2/100/Incongruent/R/I_Dist_100_LN_6_LD_12_RN_3_RD_5_1.png","img2/200/Equal/L/E_Dist_200_LN_3_LD_6_RN_3_RD_10_0.png","img2/200/Incongruent/L/I_Dist_200_LN_7_LD_10_RN_12_RD_24_0.png","img2/200/Incongruent/L/I_Dist_200_LN_7_LD_10_RN_12_RD_24_0.png","img2/500/Incongruent/L/I_Dist_500_LN_2_LD_3_RN_4_RD_24_0.png","img2/500/Incongruent/L/I_Dist_500_LN_5_LD_6_RN_6_RD_18_0.png","img2/500/Equal/R/E_Dist_500_LN_2_LD_12_RN_2_RD_3_1.png","img2/200/Congruent/L/C_Dist_200_LN_6_LD_15_RN_3_RD_15_0.png","img2/300/Equal/L/E_Dist_300_LN_9_LD_12_RN_9_RD_20_0.png","img2/300/Congruent/R/C_Dist_300_LN_1_LD_5_RN_3_RD_6_1.png","img2/500/Congruent/R/C_Dist_500_LN_7_LD_28_RN_9_RD_12_1.png","img2/500/Congruent/R/C_Dist_500_LN_3_LD_8_RN_14_RD_16_1.png","img2/500/Incongruent/L/I_Dist_500_LN_5_LD_6_RN_6_RD_18_0.png","img2/300/Congruent/L/C_Dist_300_LN_20_LD_25_RN_13_RD_26_0.png","img2/100/Congruent/R/C_Dist_100_LN_4_LD_8_RN_6_RD_10_1.png","img2/300/Congruent/R/C_Dist_300_LN_1_LD_3_RN_19_RD_30_1.png","img2/200/Congruent/R/C_Dist_200_LN_5_LD_10_RN_14_RD_20_1.png","img2/100/Incongruent/R/I_Dist_100_LN_10_LD_25_RN_8_RD_16_1.png","img2/200/Congruent/R/C_Dist_200_LN_3_LD_12_RN_9_RD_20_1.png","img2/500/Equal/L/E_Dist_500_LN_6_LD_8_RN_6_RD_24_0.png","img2/200/Congruent/R/C_Dist_200_LN_6_LD_20_RN_11_RD_22_1.png","img2/200/Equal/L/E_Dist_200_LN_3_LD_6_RN_3_RD_10_0.png","img2/300/Incongruent/L/I_Dist_300_LN_1_LD_2_RN_3_RD_15_0.png","img2/100/Incongruent/R/I_Dist_100_LN_12_LD_30_RN_2_RD_4_1.png","img2/100/Equal/L/E_Dist_100_LN_2_LD_12_RN_2_RD_30_0.png","img2/100/Congruent/R/C_Dist_100_LN_1_LD_2_RN_18_RD_30_1.png","img2/200/Incongruent/R/I_Dist_200_LN_14_LD_30_RN_12_RD_18_1.png","img2/500/Equal/R/E_Dist_500_LN_6_LD_24_RN_6_RD_8_1.png","img2/100/Equal/L/E_Dist_100_LN_6_LD_10_RN_6_RD_12_0.png","img2/500/Equal/R/E_Dist_500_LN_6_LD_24_RN_6_RD_8_1.png","img2/300/Incongruent/L/I_Dist_300_LN_3_LD_6_RN_4_RD_20_0.png","img2/200/Incongruent/L/I_Dist_200_LN_1_LD_2_RN_3_RD_10_0.png","img2/100/Congruent/R/C_Dist_100_LN_2_LD_5_RN_11_RD_22_1.png","img2/100/Congruent/R/C_Dist_100_LN_4_LD_8_RN_6_RD_10_1.png","img2/500/Equal/L/E_Dist_500_LN_6_LD_8_RN_6_RD_24_0.png","img2/300/Equal/R/E_Dist_300_LN_18_LD_30_RN_18_RD_20_1.png","img2/300/Congruent/R/C_Dist_300_LN_3_LD_12_RN_11_RD_20_1.png","img2/500/Congruent/L/C_Dist_500_LN_12_LD_16_RN_3_RD_12_0.png","img2/300/Equal/L/E_Dist_300_LN_9_LD_12_RN_9_RD_20_0.png","img2/200/Congruent/R/C_Dist_200_LN_3_LD_10_RN_14_RD_28_1.png","img2/500/Incongruent/R/I_Dist_500_LN_7_LD_21_RN_5_RD_6_1.png","img2/500/Incongruent/L/I_Dist_500_LN_7_LD_8_RN_9_RD_24_0.png","img2/500/Congruent/L/C_Dist_500_LN_6_LD_9_RN_1_RD_6_0.png","img2/300/Congruent/L/C_Dist_300_LN_20_LD_25_RN_14_RD_28_0.png","img2/500/Congruent/L/C_Dist_500_LN_8_LD_12_RN_1_RD_6_0.png","img2/500/Congruent/R/C_Dist_500_LN_3_LD_8_RN_14_RD_16_1.png","img2/100/Equal/L/E_Dist_100_LN_6_LD_10_RN_6_RD_12_0.png","img2/300/Congruent/R/C_Dist_300_LN_1_LD_30_RN_8_RD_24_1.png","img2/200/Congruent/R/C_Dist_200_LN_3_LD_12_RN_9_RD_20_1.png","img2/100/Equal/R/E_Dist_100_LN_6_LD_12_RN_6_RD_10_1.png","img2/100/Equal/L/E_Dist_100_LN_6_LD_10_RN_6_RD_12_0.png","img2/500/Congruent/R/C_Dist_500_LN_5_LD_14_RN_6_RD_7_1.png","img2/300/Equal/L/E_Dist_300_LN_9_LD_12_RN_9_RD_20_0.png","img2/500/Equal/L/E_Dist_500_LN_6_LD_8_RN_6_RD_24_0.png","img2/100/Congruent/R/C_Dist_100_LN_2_LD_5_RN_11_RD_22_1.png","img2/500/Congruent/R/C_Dist_500_LN_7_LD_28_RN_9_RD_12_1.png","img2/100/Incongruent/L/I_Dist_100_LN_6_LD_10_RN_7_RD_14_0.png","img2/500/Incongruent/L/I_Dist_500_LN_7_LD_8_RN_9_RD_24_0.png","img2/500/Equal/L/E_Dist_500_LN_6_LD_8_RN_6_RD_24_0.png","img2/200/Equal/R/E_Dist_200_LN_3_LD_10_RN_3_RD_6_1.png","img2/100/Equal/R/E_Dist_100_LN_6_LD_12_RN_6_RD_10_1.png","img2/500/Incongruent/R/I_Dist_500_LN_7_LD_21_RN_5_RD_6_1.png","img2/300/Incongruent/R/I_Dist_300_LN_13_LD_26_RN_12_RD_15_1.png","img2/200/Equal/R/E_Dist_200_LN_3_LD_10_RN_3_RD_6_1.png","img2/500/Incongruent/L/I_Dist_500_LN_5_LD_6_RN_6_RD_18_0.png","img2/100/Congruent/L/C_Dist_100_LN_9_LD_15_RN_8_RD_16_0.png","img2/100/Congruent/R/C_Dist_100_LN_4_LD_8_RN_6_RD_10_1.png","img2/100/Equal/R/E_Dist_100_LN_6_LD_12_RN_6_RD_10_1.png","img2/100/Congruent/L/C_Dist_100_LN_11_LD_22_RN_6_RD_15_0.png","img2/200/Incongruent/L/I_Dist_200_LN_7_LD_10_RN_8_RD_16_0.png","img2/500/Equal/L/E_Dist_500_LN_6_LD_8_RN_6_RD_24_0.png","img2/300/Congruent/L/C_Dist_300_LN_12_LD_24_RN_2_RD_10_0.png","img2/200/Congruent/L/C_Dist_200_LN_20_LD_25_RN_9_RD_15_0.png","img2/100/Congruent/R/C_Dist_100_LN_2_LD_5_RN_11_RD_22_1.png","img2/300/Equal/L/E_Dist_300_LN_9_LD_12_RN_9_RD_20_0.png","img2/200/Congruent/L/C_Dist_200_LN_11_LD_22_RN_3_RD_10_0.png","img2/100/Congruent/R/C_Dist_100_LN_7_LD_14_RN_9_RD_15_1.png","img2/200/Equal/L/E_Dist_200_LN_3_LD_6_RN_3_RD_10_0.png","img2/500/Congruent/R/C_Dist_500_LN_2_LD_5_RN_18_RD_20_1.png","img2/500/Incongruent/L/I_Dist_500_LN_2_LD_3_RN_4_RD_24_0.png","img2/300/Equal/R/E_Dist_300_LN_3_LD_10_RN_3_RD_5_1.png","img2/300/Equal/L/E_Dist_300_LN_9_LD_12_RN_9_RD_20_0.png","img2/200/Equal/L/E_Dist_200_LN_3_LD_6_RN_3_RD_10_0.png","img2/300/Equal/R/E_Dist_300_LN_9_LD_20_RN_9_RD_12_1.png","img2/200/Incongruent/L/I_Dist_200_LN_1_LD_3_RN_2_RD_15_0.png","img2/500/Incongruent/L/I_Dist_500_LN_5_LD_6_RN_6_RD_18_0.png","img2/200/Incongruent/R/I_Dist_200_LN_3_LD_10_RN_1_RD_2_1.png","img2/100/Equal/L/E_Dist_100_LN_6_LD_10_RN_6_RD_12_0.png","img2/100/Incongruent/L/I_Dist_100_LN_3_LD_5_RN_8_RD_16_0.png","img2/300/Incongruent/L/I_Dist_300_LN_4_LD_5_RN_8_RD_16_0.png","img2/100/Incongruent/R/I_Dist_100_LN_12_LD_30_RN_2_RD_4_1.png","img2/500/Equal/R/E_Dist_500_LN_2_LD_12_RN_2_RD_3_1.png","img2/100/Congruent/L/C_Dist_100_LN_11_LD_22_RN_6_RD_15_0.png","img2/200/Equal/R/E_Dist_200_LN_3_LD_10_RN_3_RD_6_1.png","img2/200/Equal/L/E_Dist_200_LN_3_LD_6_RN_3_RD_10_0.png","img2/500/Equal/L/E_Dist_500_LN_6_LD_8_RN_6_RD_24_0.png","img2/200/Incongruent/R/I_Dist_200_LN_3_LD_10_RN_1_RD_2_1.png","img2/200/Incongruent/R/I_Dist_200_LN_7_LD_15_RN_4_RD_6_1.png","img2/300/Congruent/L/C_Dist_300_LN_20_LD_25_RN_8_RD_16_0.png","img2/300/Congruent/L/C_Dist_300_LN_4_LD_10_RN_1_RD_10_0.png","img2/300/Congruent/L/C_Dist_300_LN_20_LD_25_RN_13_RD_26_0.png","img2/200/Congruent/R/C_Dist_200_LN_5_LD_10_RN_14_RD_20_1.png","img2/200/Congruent/R/C_Dist_200_LN_5_LD_10_RN_14_RD_20_1.png","img2/300/Equal/R/E_Dist_300_LN_3_LD_10_RN_3_RD_5_1.png","img2/300/Incongruent/R/I_Dist_300_LN_13_LD_26_RN_12_RD_15_1.png","img2/200/Congruent/L/C_Dist_200_LN_8_LD_15_RN_3_RD_9_0.png","img2/100/Congruent/L/C_Dist_100_LN_9_LD_15_RN_8_RD_16_0.png","img2/500/Congruent/R/C_Dist_500_LN_2_LD_24_RN_7_RD_12_1.png","img2/500/Incongruent/R/I_Dist_500_LN_7_LD_21_RN_5_RD_6_1.png","img2/100/Equal/R/E_Dist_100_LN_6_LD_12_RN_6_RD_10_1.png","img2/100/Equal/R/E_Dist_100_LN_6_LD_12_RN_6_RD_10_1.png","img2/500/Congruent/R/C_Dist_500_LN_1_LD_9_RN_11_RD_18_1.png","img2/300/Incongruent/R/I_Dist_300_LN_13_LD_26_RN_12_RD_15_1.png","img2/200/Incongruent/R/I_Dist_200_LN_7_LD_15_RN_6_RD_9_1.png","img2/300/Equal/L/E_Dist_300_LN_9_LD_12_RN_9_RD_20_0.png","img2/300/Incongruent/L/I_Dist_300_LN_8_LD_10_RN_14_RD_28_0.png","img2/200/Equal/R/E_Dist_200_LN_3_LD_10_RN_3_RD_6_1.png"],"dist100_C":[["C_Dist_100_LN_10_LD_25_RN_3_RD_10_0.png","C_Dist_100_LN_11_LD_22_RN_4_RD_10_0.png","C_Dist_100_LN_11_LD_22_RN_6_RD_15_0.png","C_Dist_100_LN_15_LD_25_RN_13_RD_26_0.png","C_Dist_100_LN_3_LD_6_RN_2_RD_5_0.png","C_Dist_100_LN_6_LD_20_RN_5_RD_25_0.png","C_Dist_100_LN_8_LD_16_RN_2_RD_5_0.png","C_Dist_100_LN_9_LD_15_RN_8_RD_16_0.png"],["C_Dist_100_LN_1_LD_2_RN_18_RD_30_1.png","C_Dist_100_LN_1_LD_2_RN_3_RD_5_1.png","C_Dist_100_LN_12_LD_30_RN_13_RD_26_1.png","C_Dist_100_LN_2_LD_5_RN_11_RD_22_1.png","C_Dist_100_LN_2_LD_5_RN_6_RD_12_1.png","C_Dist_100_LN_3_LD_20_RN_4_RD_16_1.png","C_Dist_100_LN_4_LD_10_RN_15_RD_30_1.png","C_Dist_100_LN_4_LD_8_RN_6_RD_10_1.png","C_Dist_100_LN_6_LD_12_RN_15_RD_25_1.png","C_Dist_100_LN_7_LD_14_RN_15_RD_25_1.png","C_Dist_100_LN_7_LD_14_RN_9_RD_15_1.png"]],"dist100_I":[["I_Dist_100_LN_1_LD_2_RN_8_RD_20_0.png","I_Dist_100_LN_2_LD_4_RN_6_RD_15_0.png","I_Dist_100_LN_2_LD_4_RN_8_RD_20_0.png","I_Dist_100_LN_3_LD_5_RN_11_RD_22_0.png","I_Dist_100_LN_3_LD_5_RN_8_RD_16_0.png","I_Dist_100_LN_3_LD_6_RN_4_RD_10_0.png","I_Dist_100_LN_3_LD_9_RN_7_RD_30_0.png","I_Dist_100_LN_4_LD_8_RN_8_RD_20_0.png","I_Dist_100_LN_6_LD_10_RN_11_RD_22_0.png","I_Dist_100_LN_6_LD_10_RN_13_RD_26_0.png","I_Dist_100_LN_6_LD_10_RN_7_RD_14_0.png","I_Dist_100_LN_9_LD_10_RN_20_RD_25_0.png","I_Dist_100_LN_9_LD_15_RN_13_RD_26_0.png","I_Dist_100_LN_9_LD_15_RN_14_RD_28_0.png"],["I_Dist_100_LN_10_LD_25_RN_8_RD_16_1.png","I_Dist_100_LN_10_LD_25_RN_9_RD_18_1.png","I_Dist_100_LN_11_LD_22_RN_9_RD_15_1.png","I_Dist_100_LN_12_LD_24_RN_9_RD_15_1.png","I_Dist_100_LN_12_LD_30_RN_2_RD_4_1.png","I_Dist_100_LN_13_LD_26_RN_12_RD_20_1.png","I_Dist_100_LN_13_LD_26_RN_6_RD_10_1.png","I_Dist_100_LN_17_LD_30_RN_10_RD_15_1.png","I_Dist_100_LN_6_LD_12_RN_3_RD_5_1.png","I_Dist_100_LN_8_LD_16_RN_6_RD_10_1.png","I_Dist_100_LN_8_LD_20_RN_1_RD_2_1.png","I_Dist_100_LN_9_LD_18_RN_6_RD_10_1.png"]],"dist100_S":[["E_Dist_100_LN_2_LD_12_RN_2_RD_30_0.png","E_Dist_100_LN_6_LD_10_RN_6_RD_12_0.png"],["E_Dist_100_LN_6_LD_12_RN_6_RD_10_1.png"]],"dist200_C":[["C_Dist_200_LN_11_LD_22_RN_3_RD_10_0.png","C_Dist_200_LN_12_LD_15_RN_6_RD_10_0.png","C_Dist_200_LN_12_LD_20_RN_6_RD_15_0.png","C_Dist_200_LN_14_LD_28_RN_6_RD_20_0.png","C_Dist_200_LN_15_LD_25_RN_4_RD_10_0.png","C_Dist_200_LN_16_LD_20_RN_12_RD_20_0.png","C_Dist_200_LN_16_LD_30_RN_9_RD_27_0.png","C_Dist_200_LN_20_LD_25_RN_9_RD_15_0.png","C_Dist_200_LN_21_LD_30_RN_2_RD_4_0.png","C_Dist_200_LN_4_LD_10_RN_3_RD_15_0.png","C_Dist_200_LN_4_LD_8_RN_3_RD_10_0.png","C_Dist_200_LN_6_LD_15_RN_3_RD_15_0.png","C_Dist_200_LN_7_LD_21_RN_2_RD_15_0.png","C_Dist_200_LN_8_LD_15_RN_2_RD_6_0.png","C_Dist_200_LN_8_LD_15_RN_3_RD_9_0.png","C_Dist_200_LN_8_LD_15_RN_7_RD_21_0.png","C_Dist_200_LN_9_LD_20_RN_4_RD_16_0.png"],["C_Dist_200_LN_1_LD_2_RN_21_RD_30_1.png","C_Dist_200_LN_13_LD_26_RN_14_RD_20_1.png","C_Dist_200_LN_3_LD_10_RN_11_RD_22_1.png","C_Dist_200_LN_3_LD_10_RN_14_RD_28_1.png","C_Dist_200_LN_3_LD_10_RN_7_RD_14_1.png","C_Dist_200_LN_3_LD_12_RN_9_RD_20_1.png","C_Dist_200_LN_3_LD_6_RN_14_RD_20_1.png","C_Dist_200_LN_5_LD_10_RN_14_RD_20_1.png","C_Dist_200_LN_6_LD_12_RN_7_RD_10_1.png","C_Dist_200_LN_6_LD_20_RN_11_RD_22_1.png","C_Dist_200_LN_7_LD_15_RN_18_RD_27_1.png","C_Dist_200_LN_9_LD_30_RN_13_RD_26_1.png"]],"dist200_I":[["I_Dist_200_LN_1_LD_2_RN_3_RD_10_0.png","I_Dist_200_LN_1_LD_3_RN_2_RD_15_0.png","I_Dist_200_LN_3_LD_4_RN_11_RD_20_0.png","I_Dist_200_LN_4_LD_5_RN_6_RD_10_0.png","I_Dist_200_LN_4_LD_6_RN_14_RD_30_0.png","I_Dist_200_LN_7_LD_10_RN_12_RD_24_0.png","I_Dist_200_LN_7_LD_10_RN_14_RD_28_0.png","I_Dist_200_LN_7_LD_10_RN_8_RD_16_0.png"],["I_Dist_200_LN_11_LD_20_RN_3_RD_4_1.png","I_Dist_200_LN_14_LD_30_RN_12_RD_18_1.png","I_Dist_200_LN_14_LD_30_RN_6_RD_9_1.png","I_Dist_200_LN_3_LD_10_RN_1_RD_2_1.png","I_Dist_200_LN_4_LD_30_RN_1_RD_3_1.png","I_Dist_200_LN_6_LD_20_RN_3_RD_6_1.png","I_Dist_200_LN_7_LD_15_RN_4_RD_6_1.png","I_Dist_200_LN_7_LD_15_RN_6_RD_9_1.png","I_Dist_200_LN_9_LD_15_RN_8_RD_10_1.png"]],"dist200_S":[["E_Dist_200_LN_3_LD_6_RN_3_RD_10_0.png"],["E_Dist_200_LN_3_LD_10_RN_3_RD_6_1.png"]],"dist300_C":[["C_Dist_300_LN_11_LD_22_RN_1_RD_5_0.png","C_Dist_300_LN_11_LD_22_RN_2_RD_10_0.png","C_Dist_300_LN_11_LD_22_RN_4_RD_20_0.png","C_Dist_300_LN_12_LD_24_RN_2_RD_10_0.png","C_Dist_300_LN_18_LD_20_RN_9_RD_15_0.png","C_Dist_300_LN_20_LD_25_RN_13_RD_26_0.png","C_Dist_300_LN_20_LD_25_RN_14_RD_28_0.png","C_Dist_300_LN_20_LD_25_RN_5_RD_10_0.png","C_Dist_300_LN_20_LD_25_RN_8_RD_16_0.png","C_Dist_300_LN_20_LD_25_RN_9_RD_18_0.png","C_Dist_300_LN_24_LD_30_RN_2_RD_4_0.png","C_Dist_300_LN_24_LD_30_RN_8_RD_16_0.png","C_Dist_300_LN_3_LD_6_RN_2_RD_10_0.png","C_Dist_300_LN_4_LD_10_RN_1_RD_10_0.png","C_Dist_300_LN_4_LD_5_RN_2_RD_4_0.png","C_Dist_300_LN_8_LD_16_RN_1_RD_5_0.png","C_Dist_300_LN_9_LD_10_RN_3_RD_5_0.png"],["C_Dist_300_LN_1_LD_20_RN_7_RD_20_1.png","C_Dist_300_LN_1_LD_3_RN_19_RD_30_1.png","C_Dist_300_LN_1_LD_30_RN_8_RD_24_1.png","C_Dist_300_LN_1_LD_5_RN_11_RD_22_1.png","C_Dist_300_LN_1_LD_5_RN_3_RD_6_1.png","C_Dist_300_LN_1_LD_5_RN_6_RD_12_1.png","C_Dist_300_LN_2_LD_10_RN_12_RD_24_1.png","C_Dist_300_LN_2_LD_20_RN_10_RD_25_1.png","C_Dist_300_LN_3_LD_12_RN_11_RD_20_1.png","C_Dist_300_LN_3_LD_6_RN_4_RD_5_1.png","C_Dist_300_LN_4_LD_20_RN_13_RD_26_1.png","C_Dist_300_LN_5_LD_25_RN_6_RD_12_1.png","C_Dist_300_LN_5_LD_25_RN_7_RD_14_1.png","C_Dist_300_LN_7_LD_14_RN_20_RD_25_1.png","C_Dist_300_LN_8_LD_15_RN_10_RD_12_1.png"]],"dist300_I":[["I_Dist_300_LN_1_LD_2_RN_2_RD_10_0.png","I_Dist_300_LN_1_LD_2_RN_3_RD_15_0.png","I_Dist_300_LN_2_LD_4_RN_6_RD_30_0.png","I_Dist_300_LN_3_LD_6_RN_4_RD_20_0.png","I_Dist_300_LN_4_LD_5_RN_6_RD_12_0.png","I_Dist_300_LN_4_LD_5_RN_8_RD_16_0.png","I_Dist_300_LN_7_LD_10_RN_8_RD_20_0.png","I_Dist_300_LN_8_LD_10_RN_14_RD_28_0.png","I_Dist_300_LN_8_LD_10_RN_9_RD_18_0.png"],["I_Dist_300_LN_13_LD_26_RN_12_RD_15_1.png","I_Dist_300_LN_4_LD_20_RN_2_RD_4_1.png"]],"dist300_S":[["E_Dist_300_LN_9_LD_12_RN_9_RD_20_0.png"],["E_Dist_300_LN_18_LD_30_RN_18_RD_20_1.png","E_Dist_300_LN_3_LD_10_RN_3_RD_5_1.png","E_Dist_300_LN_9_LD_20_RN_9_RD_12_1.png"]],"dist500_C":[["C_Dist_500_LN_10_LD_13_RN_7_RD_26_0.png","C_Dist_500_LN_10_LD_15_RN_4_RD_24_0.png","C_Dist_500_LN_12_LD_16_RN_3_RD_12_0.png","C_Dist_500_LN_12_LD_18_RN_4_RD_24_0.png","C_Dist_500_LN_15_LD_18_RN_5_RD_15_0.png","C_Dist_500_LN_15_LD_20_RN_1_RD_4_0.png","C_Dist_500_LN_18_LD_27_RN_1_RD_6_0.png","C_Dist_500_LN_20_LD_24_RN_1_RD_3_0.png","C_Dist_500_LN_20_LD_24_RN_3_RD_9_0.png","C_Dist_500_LN_20_LD_24_RN_7_RD_21_0.png","C_Dist_500_LN_20_LD_28_RN_3_RD_14_0.png","C_Dist_500_LN_21_LD_28_RN_6_RD_24_0.png","C_Dist_500_LN_22_LD_28_RN_2_RD_7_0.png","C_Dist_500_LN_25_LD_30_RN_9_RD_27_0.png","C_Dist_500_LN_4_LD_6_RN_1_RD_6_0.png","C_Dist_500_LN_5_LD_6_RN_2_RD_6_0.png","C_Dist_500_LN_6_LD_9_RN_1_RD_6_0.png","C_Dist_500_LN_7_LD_10_RN_1_RD_5_0.png","C_Dist_500_LN_8_LD_12_RN_1_RD_6_0.png","C_Dist_500_LN_8_LD_12_RN_4_RD_24_0.png"],["C_Dist_500_LN_1_LD_4_RN_12_RD_16_1.png","C_Dist_500_LN_1_LD_4_RN_9_RD_12_1.png","C_Dist_500_LN_1_LD_9_RN_11_RD_18_1.png","C_Dist_500_LN_10_LD_24_RN_22_RD_24_1.png","C_Dist_500_LN_2_LD_12_RN_10_RD_15_1.png","C_Dist_500_LN_2_LD_12_RN_12_RD_18_1.png","C_Dist_500_LN_2_LD_12_RN_4_RD_6_1.png","C_Dist_500_LN_2_LD_24_RN_7_RD_12_1.png","C_Dist_500_LN_2_LD_5_RN_18_RD_20_1.png","C_Dist_500_LN_2_LD_5_RN_9_RD_10_1.png","C_Dist_500_LN_2_LD_8_RN_12_RD_16_1.png","C_Dist_500_LN_2_LD_8_RN_21_RD_28_1.png","C_Dist_500_LN_3_LD_10_RN_4_RD_5_1.png","C_Dist_500_LN_3_LD_12_RN_15_RD_20_1.png","C_Dist_500_LN_3_LD_30_RN_6_RD_10_1.png","C_Dist_500_LN_3_LD_8_RN_14_RD_16_1.png","C_Dist_500_LN_4_LD_16_RN_15_RD_20_1.png","C_Dist_500_LN_4_LD_24_RN_12_RD_18_1.png","C_Dist_500_LN_5_LD_14_RN_6_RD_7_1.png","C_Dist_500_LN_7_LD_21_RN_20_RD_24_1.png","C_Dist_500_LN_7_LD_28_RN_12_RD_16_1.png","C_Dist_500_LN_7_LD_28_RN_9_RD_12_1.png","C_Dist_500_LN_9_LD_27_RN_20_RD_24_1.png"]],"dist500_I":[["I_Dist_500_LN_2_LD_3_RN_4_RD_24_0.png","I_Dist_500_LN_5_LD_6_RN_6_RD_18_0.png","I_Dist_500_LN_7_LD_8_RN_9_RD_24_0.png"],["I_Dist_500_LN_7_LD_21_RN_5_RD_6_1.png"]],"dist500_S":[["E_Dist_500_LN_6_LD_8_RN_6_RD_24_0.png"],["E_Dist_500_LN_2_LD_12_RN_2_RD_3_1.png","E_Dist_500_LN_6_LD_24_RN_6_RD_8_1.png"]]}},{"start_time":1549308913938,"click_time":1549308916501,"finger_time":1549308915718,"fix_duration":1437.787011145304,"trial":1,"RT":1780,"MT":783,"sideResp":1,"stimulus":[],"xmouse":[394.6669921875,394,394,394,394,394,394,394,394,394,394,394,394,394,394,394,394,394,394,394,394,394,394.6669921875,394.6669921875,394.260009765625,394,394.55999755859375,394.6669921875,394.6669921875,394.6669921875,394.6669921875,394.6669921875,394.6669921875,394.6669921875,394.6669921875,394.6669921875,394.6669921875,394.6669921875,394.6669921875,395.3330078125,395.3330078125,395.3330078125,395.3330078125,395.3330078125,395.3330078125,395.3330078125,395.3330078125,395.3330078125,395.3330078125,395.3330078125,395.3330078125,395.3330078125,395.3330078125,396.0899963378906,396.0899963378906,396.0899963378906,396.0899963378906,396.0899963378906,396.0899963378906,396.0899963378906,396.0899963378906,396.0899963378906,396.0899963378906,396,396,396,396,396,396,396,396,396,396,396,396,396,396.6669921875,396.6669921875,396.6669921875,396.6669921875,396.6669921875,396.6669921875,396,396,394.10699462890625,392.62298583984375,389.69000244140625,382.3009948730469,377.3179931640625,370.8580017089844,362.7959899902344,354.1610107421875,335.56500244140625,325.5409851074219,315.70599365234375,303.64898681640625,292.69000244140625,268.864990234375,256.25799560546875,244.09300231933594,232,219.87100219726562,199.41700744628906,192.4239959716797,185.0709991455078,179.05099487304688,175.31199645996094,167.72500610351562,165.36900329589844,163.24400329589844,161.56399536132812,160.51199340820312,158.3820037841797,157.322998046875,155.86099243164062,154.5399932861328,153.4759979248047,150.05999755859375,147.26400756835938,144.32400512695312,141.20199584960938,137.04400634765625,128.59100341796875,124.33300018310547,119.41699981689453,115.18099975585938,110.93699645996094],"ymouse":[845.3330078125,840,840,840,840,840,840,840,840,840,836,836,836,836,836,836,836,835,835,835,835,835,835.3330078125,835.3330078125,835.3330078125,835,834.6669921875,834.6669921875,835.3330078125,835.3330078125,835.3330078125,835.3330078125,835.3330078125,835.3330078125,835.3330078125,835.3330078125,835.3330078125,835.3330078125,835.3330078125,835.3330078125,835.3330078125,835.3330078125,835.3330078125,835.3330078125,835.3330078125,835.3330078125,835.3330078125,835.3330078125,835.3330078125,835.3330078125,835.3330078125,835.3330078125,835.3330078125,835.3330078125,835.3330078125,835.3330078125,835.3330078125,835.3330078125,835.3330078125,835.3330078125,835.3330078125,835.3330078125,835.3330078125,835,835,835,835,835,835,835,835,835,834,833,832,831,830.8140258789062,829.3259887695312,827.8389892578125,826.5289916992188,824.8690185546875,821.7080078125,811,805,795.7059936523438,783.385009765625,769.322021484375,724.8820190429688,698.5700073242188,672.510986328125,647.0549926757812,620.5869750976562,563.3140258789062,534.406982421875,504.0899658203125,476.9580078125,449.38800048828125,395.4630126953125,368.9809875488281,345.39300537109375,322,300.6730041503906,262.5509948730469,248.18099975585938,234.46600341796875,225.54800415039062,217.95799255371094,206.48899841308594,201.08999633789062,197.86599731445312,195.1280059814453,192.20399475097656,187.42999267578125,185.31199645996094,183.19400024414062,180.28700256347656,177.76199340820312,170.7570037841797,165.86099243164062,159.98199462890625,153.73800659179688,146.32699584960938,128.51600646972656,119.99899291992188,110.35399627685547,100.8239974975586,91.94100189208984],"timestamp_mouse":[2,74,80,100,120,140,160,180,200,220,240,261,280,300,320,340,360,380,400,420,440,460,480,500,520,540,560,580,600,620,640,660,680,700,720,740,760,780,800,820,840,860,880,902,920,940,960,980,1000,1020,1040,1060,1080,1100,1120,1140,1160,1180,1200,1220,1240,1260,1280,1300,1320,1340,1360,1381,1400,1420,1440,1460,1480,1500,1520,1540,1560,1580,1600,1620,1640,1660,1680,1700,1720,1740,1760,1780,1800,1820,1840,1861,1883,1900,1920,1940,1960,1980,2000,2020,2040,2060,2084,2100,2120,2140,2160,2182,2200,2221,2240,2260,2283,2300,2320,2340,2360,2383,2400,2420,2440,2460,2483,2500,2520,2540,2562],"xSR":350,"ySR":768,"xT1":30,"yT1":0,"xT2":670,"yT2":0,"toosoon":0,"cond_shown":"Incongruent","ratio_trial":100,"L_num":12,"L_den":30,"R_num":2,"R_den":4,"correct_side":2,"subjID":"15","gender":"No_gender","school":"No_school","age":"No_age"},{"start_time":1549308920206,"click_time":1549308922320,"finger_time":1549308921839,"fix_duration":1183.7285270730017,"trial":2,"RT":1633,"MT":481,"sideResp":2,"stimulus":[],"xmouse":[404,404,405.37298583984375,405.3330078125,405.3330078125,406,406,406,406,406,406,406,406.9739990234375,406.6669921875,406.6669921875,406.6669921875,406.6669921875,407.4280090332031,407.3330078125,407.3330078125,407.3330078125,407.3330078125,407.3330078125,407.3330078125,407.78900146484375,408,408,408,408,408,408,408,408,407.3330078125,407.3330078125,407.3330078125,407.3330078125,407.3330078125,407.3330078125,407.3330078125,407.3330078125,407.3330078125,407.3330078125,407.3330078125,407.3330078125,407.3330078125,407.3330078125,407.3330078125,406,407,406,406,407,407,407,407,407,407,407,407,407,406,406,407,406,406,406.6669921875,406.6669921875,406.6669921875,406.6669921875,406.6669921875,406.6669921875,406.6669921875,407.6180114746094,407.760986328125,409.6789855957031,413.6579895019531,421,432.6889953613281,454.90399169921875,467.6610107421875,481.9639892578125,511.9849853515625,511.9849853515625,542.8599853515625,559.1320190429688,574.468994140625,589.2760009765625,603.4669799804688,628.4359741210938,640.219970703125,654.0469970703125,665.2119750976562,675.6519775390625,693.333984375,698.6019897460938,703.6010131835938,707.9099731445312,712.8900146484375,717.3880004882812,720.0130004882812,722.3770141601562,723.9210205078125],"ymouse":[834,834,833.3330078125,833.3330078125,832.7249755859375,832,832,832,832,832,832,831,831.3330078125,831.3330078125,831.3330078125,831.3330078125,831.3330078125,831.3330078125,830.6669921875,830.6669921875,830.6669921875,830.6669921875,830.6669921875,830.6669921875,830.6669921875,830,830,830,830,830,830,830,830,829.4359741210938,829.3330078125,829.3330078125,829.3330078125,829.3330078125,829.3330078125,829.3330078125,829.3330078125,829.9829711914062,829.9829711914062,829.9829711914062,829.9829711914062,829.9829711914062,829.9829711914062,829.9829711914062,830,830,830,830,830,830,830,830,830,830,830,830,830,830,830,830,830,830,829.0070190429688,829.0070190429688,829.0070190429688,829.0070190429688,829.0070190429688,829.0070190429688,828.1380004882812,827.0490112304688,823.8109741210938,819.135986328125,809.6069946289062,791,762.8740234375,707.5159912109375,675.5590209960938,641.5120239257812,571.2340087890625,571.2340087890625,500.91900634765625,464.9070129394531,430.35699462890625,396.8739929199219,365.4460144042969,306.6050109863281,279.6210021972656,253.90499877929688,231.52999877929688,210.79400634765625,173.2469940185547,162.12100219726562,150.93099975585938,138.27000427246094,128.88699340820312,114.50199890136719,107.5250015258789,101.7249984741211,95.72899627685547],"timestamp_mouse":[14,93,113,133,153,173,193,213,233,253,273,293,313,333,353,373,393,413,434,453,473,493,513,533,553,573,593,613,634,653,673,693,713,733,753,773,793,813,833,853,873,893,913,933,953,973,993,1013,1033,1053,1073,1093,1113,1133,1153,1173,1193,1213,1233,1253,1273,1293,1313,1333,1353,1374,1393,1413,1433,1453,1473,1493,1513,1534,1553,1573,1593,1613,1633,1654,1673,1693,1719,1733,1753,1773,1793,1814,1833,1853,1874,1893,1914,1933,1953,1973,1993,2014,2033,2053,2073,2093,2114],"xSR":350,"ySR":768,"xT1":30,"yT1":0,"xT2":670,"yT2":0,"toosoon":0,"cond_shown":"Congruent","ratio_trial":300,"L_num":5,"L_den":25,"R_num":6,"R_den":12,"correct_side":2,"subjID":"15","gender":"No_gender","school":"No_school","age":"No_age"},{"start_time":1549308926323,"click_time":1549308928761,"finger_time":1549308927940,"fix_duration":301.0643477741403,"trial":3,"RT":1617,"MT":821,"sideResp":2,"stimulus":[],"xmouse":[424.6669921875,424.6669921875,424.6669921875,424.6669921875,424,424,424,424,424,424,424.8320007324219,424.6669921875,424.6669921875,424.6669921875,424.6669921875,424.6669921875,424.6669921875,424.6669921875,424.6669921875,424.6669921875,424.6669921875,424.6669921875,424,424,424,424,424,424,424,424,424,424,424.6669921875,424.6669921875,424.6669921875,424.6669921875,424.6669921875,424.6669921875,424.6669921875,424.6669921875,424.6669921875,424.6669921875,424.6669921875,424.6669921875,424.6669921875,424.6669921875,424.6669921875,424.6669921875,424.6669921875,424.6669921875,424.6669921875,424.6669921875,424.6669921875,424,424,424,424,424,424,424,424,424,424,424,424,424,424,424,424,424,424,424,422,421.06201171875,421.3330078125,418.9930114746094,416.8529968261719,413.72100830078125,411.82000732421875,409.0899963378906,402.81500244140625,400.5950012207031,398.4570007324219,395.6210021972656,392.6000061035156,389.5889892578125,388.5159912109375,388.10699462890625,387.0199890136719,387.3330078125,387,387,387,387,387,387,387,387,419.18499755859375,428.5849914550781,428.5849914550781,428.5849914550781,499.6839904785156,514.7559814453125,526.8839721679688,551.9719848632812,565.77001953125,577.2509765625,589.6240234375,600.7659912109375,622.3579711914062,633.291015625,644.6519775390625,655.8660278320312,664.6669921875,682.7329711914062,690.2379760742188,696.4190063476562,702.197998046875],"ymouse":[823.3330078125,823.3330078125,823.3330078125,823.3330078125,818,818,818,818,818,818,818.6669921875,818.6669921875,819.6539916992188,819.6539916992188,819.6539916992188,819.6539916992188,819.6539916992188,819.6539916992188,819.6539916992188,819.6539916992188,819.6539916992188,819.6539916992188,820,820,820,820,820,820,820,820,820,820,821.3330078125,821.3330078125,821.3330078125,821.3330078125,821.3330078125,821.3330078125,821.3330078125,821.3330078125,821.3330078125,821.3330078125,823.3330078125,823.3330078125,823.3330078125,823.3330078125,823.3330078125,823.3330078125,823.3330078125,823.3330078125,823.3330078125,823.3330078125,823.3330078125,823,823,823,823,823,823,823,823,823,823,824,824,824,824,824,824,824,824,824,805,801.5809936523438,796.6099853515625,781.135986328125,768.4530029296875,756.531005859375,743.219970703125,730.3300170898438,705.1610107421875,694.9760131835938,684.2849731445312,674.10498046875,665.3779907226562,652.614013671875,648.06201171875,645.5469970703125,643.3740234375,643.280029296875,644,644,644,644,644,644,644,644,660.1160278320312,658.0919799804688,658.0919799804688,658.0919799804688,583.4409790039062,558.489013671875,532.739013671875,478.85699462890625,447.8630065917969,418.5979919433594,386.33599853515625,358.3680114746094,301.1210021972656,273.6719970703125,245.97500610351562,219.33399963378906,193.33299255371094,146.95399475097656,126.40299987792969,106.63600158691406,90.35700225830078],"timestamp_mouse":[80,97,117,137,157,177,197,217,237,257,277,297,317,337,357,377,397,417,437,457,477,497,517,537,557,577,597,617,637,657,677,697,717,737,757,777,797,817,837,857,877,897,917,937,957,977,997,1017,1037,1057,1077,1097,1117,1137,1157,1177,1197,1217,1237,1257,1277,1297,1317,1337,1357,1377,1397,1417,1437,1458,1478,1497,1517,1537,1558,1577,1597,1617,1638,1658,1677,1697,1717,1737,1757,1777,1797,1817,1838,1858,1877,1897,1918,1938,1958,1978,1997,2017,2038,2058,2080,2097,2118,2138,2158,2178,2198,2218,2238,2258,2278,2298,2318,2338,2358,2379,2398,2418,2438],"xSR":350,"ySR":768,"xT1":30,"yT1":0,"xT2":670,"yT2":0,"toosoon":0,"cond_shown":"Incongruent","ratio_trial":300,"L_num":4,"L_den":20,"R_num":2,"R_den":4,"correct_side":2,"subjID":"15","gender":"No_gender","school":"No_school","age":"No_age"},{"start_time":1549308931808,"click_time":1549308936283,"finger_time":1549308933382,"fix_duration":364.0516129202272,"trial":4,"RT":1574,"MT":2901,"sideResp":2,"stimulus":[],"xmouse":[398.6669921875,398.6669921875,398.6669921875,397.968994140625,398,398,398,398,398,398,398,398,398,398,398,398.6669921875,398.6669921875,398.6669921875,398.6669921875,398.6669921875,398.6669921875,398.6669921875,398.6669921875,398,398,398,398,398,399,399,399,399,399,399,399,399,400,400,400,400,400,400,400,400,400,400,400,400,400,400,400,400,400,400,400,400,400,400,400,400,400,400,400,400,400,400.406005859375,400.6669921875,400.6669921875,400.6669921875,401.3330078125,401.3330078125,400.6669921875,400.6669921875,399.49200439453125,399.3330078125,397.99798583984375,396.92498779296875,395.843994140625,393.69500732421875,393.3330078125,392.22198486328125,392,391.3330078125,391.3330078125,391.3330078125,391.3330078125,391.989013671875,391.989013671875,391.989013671875,391.989013671875,391.989013671875,391.989013671875,391.989013671875,391.989013671875,393.3330078125,394,394.89300537109375,395.3030090332031,396.6669921875,397.8630065917969,398,399.3420104980469,400.4259948730469,401.9100036621094,402.989013671875,404.0679931640625,404.4679870605469,405.5469970703125,406,406,406,406,406,406,406,406,406,406,406,406,407.3330078125,407.3330078125,407.3330078125,407.3330078125,407.3330078125,407.3330078125,407.3330078125,407.3330078125,407.3330078125,407.3330078125,407.3330078125,407.3330078125,407.8500061035156,407.0639953613281,407.3330078125,407.3330078125,407.3330078125,407.3330078125,406.2030029296875,406,405.3869934082031,405,404.5669860839844,404.1600036621094,404.1600036621094,404.1600036621094,404.1600036621094,404.1600036621094,402,401,400,400,400.6669921875,400.6669921875,400.6669921875,400.6669921875,400.6669921875,400.6669921875,400.6669921875,400.6669921875,400,400,400,400.9779968261719,401.3330078125,402.2090148925781,402.6669921875,403.6940002441406,404.7659912109375,411.0299987792969,425.2510070800781,443.15899658203125,456.2690124511719,463.87200927734375,483.1629943847656,492.4200134277344,502.4729919433594,513.281982421875,525.5349731445312,551.5700073242188,564.3209838867188,574.6539916992188,583.8939819335938,592.5230102539062,606.864990234375,614.9849853515625,620.6719970703125,625.4550170898438,629.0759887695312,633.489990234375,635.6599731445312,637.8040161132812,639.9420166015625,642.0960083007812,645.2020263671875,646.2780151367188,647.3590087890625,648.8590087890625,650.1740112304688,653.3259887695312,654.072998046875,655.6300048828125,656.8880004882812,657.947998046875,660.10400390625,661.8590087890625,662.927001953125,664.6680297851562,666.8109741210938,670.4429931640625,672.5819702148438,674.7589721679688,676.906982421875,679.0599975585938,683.3610229492188,685.5150146484375,687.0009765625,688.2440185546875,690.5960083007812,696.3839721679688,699.6060180664062,702.8790283203125],"ymouse":[831.3330078125,830.6669921875,830.6669921875,830.6669921875,831,831,831,831,831,831,831,831,831,830,830,829.3330078125,829.3330078125,829.3330078125,829.3330078125,828.6669921875,828.6669921875,828.6669921875,828.6669921875,828,828,828,828,828,828,828,828,828,828,828,828,828,828,828,828,828,828,828,828,827,827,827,827,827,827,827,827,827,827,827,827,827,827,827,828,828,828,828,828,828,828,823.593994140625,821.677001953125,819.530029296875,815.2639770507812,812.427001953125,808.47802734375,804.1939697265625,798.56201171875,784.9539794921875,777.5180053710938,769.989013671875,762.4749755859375,754.906982421875,743.8090209960938,738.4569702148438,734.666015625,730,728.22802734375,725.2420043945312,724.833984375,724.6669921875,725.3330078125,725.3330078125,725.3330078125,725.3330078125,725.3330078125,725.3330078125,725.3330078125,725.3330078125,752.2760009765625,758,765.5880126953125,773.7890014648438,791.4819946289062,800.239990234375,808,816.0599975585938,822.7969970703125,832.39599609375,836.6209716796875,838.8720092773438,840.468017578125,842.427978515625,843,844,843,843,843,843,843,843,843,843,843,843,838.6669921875,838.6669921875,838.6669921875,838.6669921875,838.6669921875,838.6669921875,838.6669921875,838.6669921875,838.6669921875,838.6669921875,838.6669921875,825.885986328125,824.1500244140625,823.0640258789062,820.6669921875,819.8369750976562,819.3330078125,819.3330078125,818.6669921875,818,818.0540161132812,818,817.2329711914062,817.3330078125,817.3330078125,817.3330078125,817.3330078125,817.3330078125,816,816,816,816,816.9990234375,816.9990234375,816.9990234375,816.9990234375,816.9990234375,816.9990234375,816.9990234375,816.9990234375,814,813,812,810.7109985351562,808.4190063476562,807.125,805.385009765625,803.2789916992188,801.135009765625,794.302978515625,779.4210205078125,760.697021484375,744.6279907226562,732.1430053710938,695.7739868164062,675.6019897460938,652.2520141601562,630.1019897460938,603.2459716796875,547.1799926757812,517.697021484375,492.0320129394531,466.0539855957031,440.4320068359375,395.5660095214844,376.5150146484375,358.6520080566406,344.1029968261719,331.3760070800781,310.7860107421875,303.3599853515625,294.7829895019531,286.8699951171875,279.9989929199219,268.52398681640625,264.22198486328125,259.89599609375,256.0450134277344,251.9730224609375,243.3489990234375,239.7830047607422,235.88800048828125,231.7830047607422,228.20799255371094,219.5850067138672,214.56500244140625,210.2899932861328,205.32699584960938,200.37899780273438,191.11399841308594,186.83599853515625,181.81500244140625,176.8520050048828,171.6840057373047,160.26400756835938,153.36300659179688,146.4980010986328,138.0500030517578,130.281005859375,110.71900177001953,101.18099975585938,90.40299987792969],"timestamp_mouse":[13,87,93,113,135,153,173,193,213,233,253,273,293,313,333,353,373,393,413,433,453,473,493,513,533,553,573,593,613,633,653,673,693,713,733,753,773,793,813,833,853,873,893,913,933,953,973,993,1013,1033,1053,1073,1094,1113,1133,1153,1173,1193,1213,1234,1253,1273,1293,1314,1333,1353,1374,1394,1414,1434,1453,1473,1494,1514,1534,1554,1573,1594,1614,1634,1654,1674,1694,1717,1733,1754,1774,1794,1814,1837,1854,1874,1894,1914,1934,1953,1974,1994,2015,2034,2054,2074,2094,2114,2134,2154,2174,2194,2215,2234,2254,2274,2294,2317,2334,2354,2374,2394,2414,2434,2454,2474,2494,2514,2534,2554,2574,2594,2614,2636,2654,2674,2694,2714,2734,2754,2774,2794,2815,2834,2854,2874,2894,2914,2935,2954,2974,2994,3014,3034,3054,3074,3094,3114,3134,3154,3174,3194,3214,3234,3254,3274,3294,3314,3334,3354,3374,3394,3414,3434,3454,3474,3494,3514,3534,3554,3574,3594,3614,3634,3654,3674,3694,3714,3736,3764,3776,3794,3822,3837,3854,3874,3894,3914,3936,3954,3974,3994,4014,4036,4054,4074,4094,4114,4137,4154,4175,4194,4214,4236,4254,4274,4294,4314,4334,4354,4374,4394,4414,4437,4454,4475],"xSR":350,"ySR":768,"xT1":30,"yT1":0,"xT2":670,"yT2":0,"toosoon":0,"cond_shown":"Incongruent","ratio_trial":300,"L_num":3,"L_den":6,"R_num":4,"R_den":20,"correct_side":1,"subjID":"15","gender":"No_gender","school":"No_school","age":"No_age"},{"start_time":1549308938776,"click_time":1549308942083,"finger_time":1549308940463,"fix_duration":250,"trial":5,"RT":1687,"MT":1620,"sideResp":2,"stimulus":[],"xmouse":[391.3330078125,391.3330078125,391.3330078125,391.3330078125,391.3330078125,391.3330078125,391.3330078125,391.3330078125,391.3330078125,391.3330078125,391,391,391,391,391,391,391,391,391,391,391.3330078125,391.3330078125,391.3330078125,391.3330078125,391.3330078125,391.3330078125,391.3330078125,391.3330078125,391.3330078125,391.3330078125,391.3330078125,392.6669921875,392.6669921875,392.6669921875,392.6669921875,392.6669921875,392.6669921875,392.6669921875,392.6669921875,392.6669921875,392.6669921875,392.6669921875,392.6669921875,392.6669921875,392.6669921875,392.6669921875,392.6669921875,392.6669921875,392.6669921875,392.6669921875,392.6669921875,392,392,392,392,392,392,392,392,392,392,392.6669921875,392.6669921875,392.6669921875,392.6669921875,392.6669921875,392.6669921875,392.6669921875,392.6669921875,392.6669921875,392.6669921875,391.3290100097656,391.3290100097656,391.3290100097656,391.3290100097656,391.3290100097656,391.3290100097656,391.3290100097656,391.3290100097656,391.3290100097656,391.3290100097656,391.3290100097656,371.322998046875,371.322998046875,371.322998046875,371.322998046875,371.322998046875,371.322998046875,371.322998046875,371.322998046875,371.322998046875,371.322998046875,337.7130126953125,337.7130126953125,337.7130126953125,337.7130126953125,337.7130126953125,337.7130126953125,337.7130126953125,337.7130126953125,337.7130126953125,337.7130126953125,283.5119934082031,283.5119934082031,283.5119934082031,283.5119934082031,283.5119934082031,283.5119934082031,283.5119934082031,283.5119934082031,283.5119934082031,283.5119934082031,252.25999450683594,252.25999450683594,252.25999450683594,252.25999450683594,252.25999450683594,252.25999450683594,252.25999450683594,252.25999450683594,252.25999450683594,252.25999450683594,244.11599731445312,244.11599731445312,244.11599731445312,244.11599731445312,244.11599731445312,244.11599731445312,244.11599731445312,244.11599731445312,244.11599731445312,244.11599731445312,244.11599731445312,244.69900512695312,244.69900512695312,244.69900512695312,244.69900512695312,244.69900512695312,244.69900512695312,244.69900512695312,244.69900512695312,244.69900512695312,390.5849914550781,390.5849914550781,390.5849914550781,390.5849914550781,390.5849914550781,390.5849914550781,390.5849914550781,390.5849914550781,390.5849914550781,390.5849914550781,390.5849914550781,602.8040161132812,602.8040161132812,602.8040161132812,602.8040161132812,602.8040161132812,602.8040161132812,602.8040161132812,602.8040161132812,602.8040161132812,602.8040161132812,702.677978515625],"ymouse":[814.6669921875,814.6669921875,814.6669921875,814.6669921875,814.6669921875,814.6669921875,814.6669921875,814.6669921875,814.6669921875,814.6669921875,814,814,814,814,814,814,814,814,814,814,813.6439819335938,813.6439819335938,813.6439819335938,813.6439819335938,813.6439819335938,813.6439819335938,813.6439819335938,813.6439819335938,813.6439819335938,813.6439819335938,813.6439819335938,814.6669921875,814.6669921875,814.6669921875,814.6669921875,814.6669921875,814.6669921875,814.6669921875,814.6669921875,814.6669921875,814.6669921875,816.6669921875,816.6669921875,816.6669921875,816.6669921875,816.6669921875,816.6669921875,816.6669921875,816.6669921875,816.6669921875,816.6669921875,814,814,814,814,814,814,814,814,814,814,815.7520141601562,815.7520141601562,815.7520141601562,815.7520141601562,815.7520141601562,815.7520141601562,815.7520141601562,815.7520141601562,815.7520141601562,815.7520141601562,807.323974609375,807.323974609375,807.323974609375,807.323974609375,807.323974609375,807.323974609375,807.323974609375,807.323974609375,807.323974609375,807.323974609375,807.323974609375,719.958984375,719.958984375,719.958984375,719.958984375,719.958984375,719.958984375,719.958984375,719.958984375,719.958984375,719.958984375,620.52197265625,620.52197265625,620.52197265625,620.52197265625,620.52197265625,620.52197265625,620.52197265625,620.52197265625,620.52197265625,620.52197265625,477.447998046875,477.447998046875,477.447998046875,477.447998046875,477.447998046875,477.447998046875,477.447998046875,477.447998046875,477.447998046875,477.447998046875,399.7049865722656,399.7049865722656,399.7049865722656,399.7049865722656,399.7049865722656,399.7049865722656,399.7049865722656,399.7049865722656,399.7049865722656,399.7049865722656,371.45001220703125,371.45001220703125,371.45001220703125,371.45001220703125,371.45001220703125,371.45001220703125,371.45001220703125,371.45001220703125,371.45001220703125,371.45001220703125,371.45001220703125,357.9679870605469,357.9679870605469,357.9679870605469,357.9679870605469,357.9679870605469,357.9679870605469,357.9679870605469,357.9679870605469,357.9679870605469,272.7070007324219,272.7070007324219,272.7070007324219,272.7070007324219,272.7070007324219,272.7070007324219,272.7070007324219,272.7070007324219,272.7070007324219,272.7070007324219,272.7070007324219,144.8070068359375,144.8070068359375,144.8070068359375,144.8070068359375,144.8070068359375,144.8070068359375,144.8070068359375,144.8070068359375,144.8070068359375,144.8070068359375,40.654998779296875],"timestamp_mouse":[8,82,87,107,127,147,167,187,207,227,247,267,287,307,327,347,367,387,407,427,447,467,487,507,527,547,567,587,607,627,647,667,687,707,727,747,767,787,807,827,847,867,887,907,927,947,967,987,1007,1027,1047,1067,1087,1107,1127,1147,1167,1187,1207,1227,1247,1267,1287,1307,1327,1347,1367,1387,1407,1427,1447,1467,1487,1507,1527,1547,1567,1587,1607,1627,1647,1667,1687,1707,1727,1747,1767,1787,1807,1827,1847,1867,1887,1907,1927,1947,1967,1987,2007,2027,2047,2067,2087,2107,2127,2147,2167,2187,2207,2227,2247,2267,2288,2307,2327,2347,2367,2387,2407,2427,2447,2467,2489,2507,2527,2547,2567,2588,2607,2627,2647,2667,2687,2707,2727,2747,2767,2787,2807,2827,2847,2867,2889,2907,2927,2947,2967,2987,3007,3027,3047,3067,3087,3107,3127,3147,3167,3187,3207,3227,3247,3267,3287,3307],"xSR":350,"ySR":768,"xT1":30,"yT1":0,"xT2":670,"yT2":0,"toosoon":0,"cond_shown":"Congruent","ratio_trial":100,"L_num":6,"L_den":20,"R_num":5,"R_den":25,"correct_side":1,"subjID":"15","gender":"No_gender","school":"No_school","age":"No_age"},{"start_time":1549308943795,"click_time":1549308945604,"finger_time":1549308945004,"fix_duration":250,"trial":6,"RT":1209,"MT":600,"sideResp":1,"stimulus":[],"xmouse":[420,420,420,420,420,420,418,418,418,418,418,418,418,418,418,418,417.3330078125,417.3330078125,417.3330078125,417.3330078125,417.3330078125,417.3330078125,417.3330078125,417.3330078125,417.3330078125,417.3330078125,417.3330078125,416.6669921875,416.6669921875,416.6669921875,416.6669921875,416.6669921875,416.6669921875,416.6669921875,416.6669921875,416.6669921875,416.6669921875,415.3330078125,415.3330078125,415.3330078125,415.3330078125,415.3330078125,415.3330078125,415.3330078125,415.3330078125,415.3330078125,415.3330078125,415.3330078125,414.1929931640625,414.1929931640625,414.1929931640625,414.1929931640625,414.1929931640625,414.1929931640625,414.1929931640625,414.1929931640625,414.1929931640625,414.1929931640625,386.5450134277344,386.5450134277344,386.5450134277344,386.5450134277344,386.5450134277344,386.5450134277344,386.5450134277344,386.5450134277344,386.5450134277344,386.5450134277344,312.50299072265625,312.50299072265625,312.50299072265625,312.50299072265625,312.50299072265625,312.50299072265625,312.50299072265625,312.50299072265625,312.50299072265625,312.50299072265625,168.62600708007812,168.62600708007812,168.62600708007812,168.62600708007812,168.62600708007812,168.62600708007812,168.62600708007812,168.62600708007812,168.62600708007812,168.62600708007812,101.96499633789062],"ymouse":[816,816,816,816,816,816,816,816,816,816,816,816,816,816,816,816,819.3330078125,819.3330078125,819.3330078125,819.3330078125,819.3330078125,819.3330078125,819.3330078125,819.3330078125,819.3330078125,819.3330078125,819.3330078125,827.3330078125,827.3330078125,827.3330078125,827.3330078125,827.3330078125,827.3330078125,827.3330078125,827.3330078125,827.3330078125,827.3330078125,829.3330078125,829.3330078125,829.3330078125,829.3330078125,829.3330078125,829.3330078125,829.3330078125,829.3330078125,829.3330078125,829.3330078125,829.3330078125,825.2459716796875,825.2459716796875,825.2459716796875,825.2459716796875,825.2459716796875,825.2459716796875,825.2459716796875,825.2459716796875,825.2459716796875,825.2459716796875,729.7260131835938,729.7260131835938,729.7260131835938,729.7260131835938,729.7260131835938,729.7260131835938,729.7260131835938,729.7260131835938,729.7260131835938,729.7260131835938,560.7479858398438,560.7479858398438,560.7479858398438,560.7479858398438,560.7479858398438,560.7479858398438,560.7479858398438,560.7479858398438,560.7479858398438,560.7479858398438,264.4320068359375,264.4320068359375,264.4320068359375,264.4320068359375,264.4320068359375,264.4320068359375,264.4320068359375,264.4320068359375,264.4320068359375,264.4320068359375,90.12899780273438],"timestamp_mouse":[10,82,89,109,129,149,169,189,209,229,249,269,289,309,329,349,369,389,409,429,449,469,489,509,529,549,569,589,609,629,649,669,689,709,729,749,769,789,809,829,849,869,889,909,929,949,969,989,1009,1029,1049,1069,1089,1109,1129,1149,1169,1189,1209,1229,1249,1269,1289,1309,1329,1349,1369,1389,1409,1429,1449,1469,1489,1509,1529,1549,1569,1589,1609,1629,1649,1669,1689,1709,1729,1749,1769,1789,1809],"xSR":350,"ySR":768,"xT1":30,"yT1":0,"xT2":670,"yT2":0,"toosoon":0,"cond_shown":"Congruent","ratio_trial":300,"L_num":4,"L_den":5,"R_num":2,"R_den":4,"correct_side":1,"subjID":"15","gender":"No_gender","school":"No_school","age":"No_age"},{"start_time":1549308947894,"click_time":1549308950265,"finger_time":1549308949865,"fix_duration":748.9325456716282,"trial":7,"RT":1971,"MT":400,"sideResp":1,"stimulus":[],"xmouse":[384,384,384,384.0050048828125,384.0050048828125,384.0050048828125,384.0050048828125,384.0050048828125,384.0050048828125,384.0050048828125,384.0050048828125,384.0050048828125,384.0050048828125,384.0050048828125,383.3330078125,383.3330078125,383.3330078125,383.3330078125,383.3330078125,383.3330078125,383.3330078125,383.3330078125,383.3330078125,383.3330078125,384,384,384,384,384,384,384,384,384,384,384,384,384,384,384,384,384,384,384,384,384,384,384,384,384,384,384,384,384,384,384,384,384,384,384,384,384,384,384,384,384,383.3330078125,383.3330078125,383.3330078125,383.3330078125,383.3330078125,383.3330078125,383.3330078125,383.3330078125,383.3330078125,383.3330078125,384.6669921875,384.6669921875,384.6669921875,384.6669921875,384.6669921875,384.6669921875,384.6669921875,384.6669921875,384.6669921875,384.6669921875,386,386,386,386,386,386,386,386,386,386,386,343.5830078125,343.5830078125,343.5830078125,343.5830078125,343.5830078125,343.5830078125,343.5830078125,343.5830078125,343.5830078125,343.5830078125,127.08100128173828,127.08100128173828,127.08100128173828,127.08100128173828,127.08100128173828,127.08100128173828,127.08100128173828,127.08100128173828,127.08100128173828,127.08100128173828,40.40399932861328],"ymouse":[832,832,832,831.3330078125,831.3330078125,831.3330078125,831.3330078125,831.3330078125,831.3330078125,831.3330078125,831.3330078125,831.3330078125,831.3330078125,831.3330078125,829.3330078125,829.3330078125,829.3330078125,829.3330078125,829.3330078125,829.3330078125,829.3330078125,829.3330078125,829.3330078125,829.3330078125,829,829,829,829,829,829,829,829,829,829,828,828,828,828,828,828,828,828,828,828,828,829,829,829,829,829,829,829,829,829,829,829,829,829,829,829,829,829,829,829,829,828.6669921875,828.6669921875,828.6669921875,828.6669921875,828.6669921875,828.6669921875,828.6669921875,828.6669921875,828.6669921875,828.6669921875,812.9240112304688,812.9240112304688,812.9240112304688,812.9240112304688,812.9240112304688,812.9240112304688,812.9240112304688,812.9240112304688,812.9240112304688,812.9240112304688,810,810,810,810,810,810,810,810,810,810,810,681.2899780273438,681.2899780273438,681.2899780273438,681.2899780273438,681.2899780273438,681.2899780273438,681.2899780273438,681.2899780273438,681.2899780273438,681.2899780273438,242.5260009765625,242.5260009765625,242.5260009765625,242.5260009765625,242.5260009765625,242.5260009765625,242.5260009765625,242.5260009765625,242.5260009765625,242.5260009765625,71.35199737548828],"timestamp_mouse":[10,71,90,110,130,150,170,190,210,230,250,270,290,310,330,350,370,390,410,430,450,470,490,510,530,550,570,590,610,630,650,670,690,710,730,750,770,790,810,830,850,870,890,910,930,950,970,991,1010,1030,1050,1071,1091,1111,1131,1150,1170,1190,1211,1230,1251,1271,1291,1311,1331,1350,1371,1391,1411,1431,1450,1471,1491,1511,1531,1551,1571,1591,1611,1631,1651,1671,1691,1711,1731,1751,1771,1791,1811,1831,1851,1871,1891,1911,1931,1951,1971,1991,2011,2031,2051,2071,2091,2111,2131,2151,2171,2191,2211,2231,2251,2271,2291,2311,2331,2351,2371],"xSR":350,"ySR":768,"xT1":30,"yT1":0,"xT2":670,"yT2":0,"toosoon":0,"cond_shown":"Incongruent","ratio_trial":300,"L_num":7,"L_den":10,"R_num":8,"R_den":20,"correct_side":1,"subjID":"15","gender":"No_gender","school":"No_school","age":"No_age"},{"start_time":1549308952698,"click_time":1549308954866,"finger_time":1549308954447,"fix_duration":929.2405398945546,"trial":8,"RT":1749,"MT":419,"sideResp":1,"stimulus":[],"xmouse":[383.3330078125,383.3330078125,383.3330078125,383.3330078125,383.3330078125,382,382,382,382,382,382,382,382,382,382,382,382,382,382,382,382,382,382,382,382,380,380,380,380,380,380,380,380,380,380,380,380,380,380,380,380,380,380,380,380,380,380,380,380,380,380,380,380,380,380,380,380,380,380,380,380,380,380,380,380,380,379.5159912109375,379.5159912109375,379.5159912109375,379.5159912109375,379.5159912109375,379.5159912109375,379.5159912109375,379.5159912109375,379.5159912109375,379.5159912109375,380.6669921875,380.6669921875,380.6669921875,380.6669921875,380.6669921875,380.6669921875,380.6669921875,380.6669921875,380.6669921875,380.6669921875,329.8659973144531,329.8659973144531,329.8659973144531,329.8659973144531,329.8659973144531,329.8659973144531,329.8659973144531,329.8659973144531,329.8659973144531,329.8659973144531,190.4040069580078,190.4040069580078,190.4040069580078,190.4040069580078,190.4040069580078,190.4040069580078,190.4040069580078,190.4040069580078,190.4040069580078,190.4040069580078,190.4040069580078,102.24700164794922],"ymouse":[840.6669921875,840.6669921875,840.6669921875,840.6669921875,840.6669921875,841,841,841,841,841,841,841,841,841,841,844,844,844,844,844,844,844,844,844,844,840,840,840,840,840,840,840,840,840,840,840,840,840,840,840,840,840,840,840,840,840,842,842,842,842,842,842,842,842,842,842,842,842,842,842,842,842,842,842,842,842,836.5490112304688,836.5490112304688,836.5490112304688,836.5490112304688,836.5490112304688,836.5490112304688,836.5490112304688,836.5490112304688,836.5490112304688,836.5490112304688,790.8599853515625,790.8599853515625,790.8599853515625,790.8599853515625,790.8599853515625,790.8599853515625,790.8599853515625,790.8599853515625,790.8599853515625,790.8599853515625,517.4650268554688,517.4650268554688,517.4650268554688,517.4650268554688,517.4650268554688,517.4650268554688,517.4650268554688,517.4650268554688,517.4650268554688,517.4650268554688,184.14100646972656,184.14100646972656,184.14100646972656,184.14100646972656,184.14100646972656,184.14100646972656,184.14100646972656,184.14100646972656,184.14100646972656,184.14100646972656,184.14100646972656,51.0369987487793],"timestamp_mouse":[11,65,68,87,107,127,147,167,187,207,227,247,267,287,307,327,347,367,387,407,427,447,467,487,507,527,547,567,587,607,627,647,667,687,707,727,747,767,787,807,827,848,867,887,907,927,947,967,987,1007,1027,1047,1067,1087,1107,1127,1147,1167,1187,1207,1227,1247,1267,1287,1307,1327,1348,1367,1387,1407,1427,1447,1467,1488,1507,1527,1548,1567,1587,1607,1627,1647,1667,1687,1708,1728,1749,1767,1787,1808,1828,1848,1867,1888,1908,1928,1949,1968,1988,2008,2028,2048,2068,2088,2108,2128,2148,2168],"xSR":350,"ySR":768,"xT1":30,"yT1":0,"xT2":670,"yT2":0,"toosoon":0,"cond_shown":"Equal","ratio_trial":100,"L_num":6,"L_den":12,"R_num":6,"R_den":10,"correct_side":2,"subjID":"15","gender":"No_gender","school":"No_school","age":"No_age"},{"start_time":1549308957818,"click_time":1549308959607,"finger_time":1549308959186,"fix_duration":510.70391445494454,"trial":9,"RT":1368,"MT":421,"sideResp":2,"stimulus":[],"xmouse":[387,387,387,387,387,387,387,387,387,387,387,387,387,387,387,387,387,387,387,387,392,392,392,392,392,392,392,392,392,392,392,392,392,392,392,392,392,392,392,392,392,392.6669921875,392.6669921875,392.6669921875,392.6669921875,392.6669921875,392.6669921875,392.6669921875,392.6669921875,392.6669921875,392.6669921875,394,394,394,394,394,394,394,394,394,394,394.6669921875,394.6669921875,394.6669921875,394.6669921875,394.6669921875,421.5119934082031,432.2900085449219,444.68499755859375,461.83099365234375,480.0950012207031,518.52197265625,535.1929931640625,552.676025390625,569.39697265625,582.5980224609375,609.573974609375,621.4329833984375,631.322998046875,639.0960083007812,648.4810180664062,662.2789916992188,667.5910034179688,673.7890014648438,677.1480102539062,681.0369873046875,686.3250122070312,688.4580078125],"ymouse":[839,839,839,839,839,839,839,839,839,839,839,839,839,839,839,839,839,839,839,839,832,832,832,832,832,832,832,832,832,832,832,831,831,831,831,831,831,831,831,831,831,830.6669921875,830.6669921875,830.6669921875,830.6669921875,830.6669921875,830.6669921875,830.6669921875,830.6669921875,830.6669921875,830.6669921875,832,832,832,832,832,832,832,832,832,832,831.3330078125,831.3330078125,831.3330078125,831.3330078125,831.3330078125,746.7570190429688,716.2249755859375,682.6190185546875,642.1119995117188,599.22900390625,511.9229736328125,472.3380126953125,430.9779968261719,391.99200439453125,355.7510070800781,289.40399169921875,261.0880126953125,236.44700622558594,212.5570068359375,192.69000244140625,157.92300415039062,144.79600524902344,132.61000061035156,123.16200256347656,116.24700927734375,101.69000244140625,95.29299926757812],"timestamp_mouse":[68,68,88,108,128,148,168,188,208,228,248,268,288,308,328,348,368,388,408,428,448,468,488,508,528,548,568,588,608,628,648,668,688,708,728,748,768,788,808,828,848,869,888,908,928,948,971,988,1008,1029,1048,1068,1088,1108,1128,1148,1168,1188,1208,1228,1248,1269,1288,1308,1328,1348,1368,1388,1408,1428,1448,1469,1488,1508,1528,1548,1568,1588,1608,1628,1648,1669,1688,1708,1728,1748,1769,1788],"xSR":350,"ySR":768,"xT1":30,"yT1":0,"xT2":670,"yT2":0,"toosoon":0,"cond_shown":"Equal","ratio_trial":500,"L_num":6,"L_den":24,"R_num":6,"R_den":8,"correct_side":2,"subjID":"15","gender":"No_gender","school":"No_school","age":"No_age"},{"start_time":1549308964037,"click_time":1549308966131,"finger_time":1549308965708,"fix_duration":1088.700235057521,"trial":10,"RT":1671,"MT":423,"sideResp":1,"stimulus":[],"xmouse":[402.6669921875,402.6669921875,402.6669921875,402.6669921875,402.6669921875,402.6669921875,402.6669921875,404,404,404,404,404,404,404,404,404,404,406,406,406,406,406,406,406,406.6669921875,406.6669921875,406.6669921875,406.6669921875,407.3330078125,407.3330078125,407.3330078125,407.3330078125,407.3330078125,407.3330078125,407.3330078125,407.3330078125,407.3330078125,407.3330078125,407.3330078125,407.3330078125,407.3330078125,407,407,407,407,407,407,407,407,407,407,407,406.6669921875,406.6669921875,406.6669921875,406.6669921875,406.6669921875,406,406,406,406,406,406,406,406,406,406,406,406,404,404,404,404,403.0530090332031,401.96099853515625,400.8869934082031,399.8059997558594,398,396.59698486328125,391.5840148925781,385.22601318359375,371.62701416015625,355.1549987792969,323.1929931640625,306.27099609375,288.9549865722656,271.49798583984375,239.92599487304688,226.7100067138672,214.65199279785156,203.51800537109375,193.43600463867188,178.91799926757812,173.5489959716797,168.08200073242188,162.7270050048828,157.41000366210938,148.0279998779297,143.86599731445312,135.29400634765625,135.29400634765625,132.51600646972656,126.2550048828125],"ymouse":[830.6669921875,830.6669921875,830.6669921875,830.6669921875,830.6669921875,830.6669921875,830.6669921875,830,830,830,830,830,830,830,830,830,830,832,832,832,832,832,832,832,834.1119995117188,834.1119995117188,834.1119995117188,834.1119995117188,834.6669921875,834.6669921875,835.6279907226562,835.6279907226562,835.6279907226562,835.6279907226562,835.6279907226562,835.6279907226562,835.6279907226562,835.6279907226562,835.6279907226562,835.6279907226562,835.6279907226562,836,836,836,836,836,836,836,836,836,836,836,834.6669921875,834.6669921875,834.6669921875,834.6669921875,834.6669921875,834,834,833,833,833,833,833,833,833,833,833,833,832,832,832,832,826.1060180664062,822.551025390625,819.3270263671875,815.2249755859375,806,799.5139770507812,788.6859741210938,776.6920166015625,755.1190185546875,729.7849731445312,681.5170288085938,655.1309814453125,623.9810180664062,591.89599609375,526.698974609375,495.1059875488281,462.9939880371094,429.7590026855469,399.4320068359375,340.87298583984375,310.8059997558594,283.2279968261719,256.302001953125,232.33599853515625,187.44700622558594,167.7310028076172,135.20700073242188,135.20700073242188,120.83599853515625,96.48100280761719],"timestamp_mouse":[10,77,90,110,130,150,171,190,210,230,250,270,290,310,330,350,370,390,410,430,450,471,490,510,530,550,570,590,610,630,650,670,690,710,730,750,770,791,810,831,851,870,890,911,931,951,970,990,1010,1031,1051,1071,1090,1111,1131,1151,1171,1191,1211,1231,1251,1271,1291,1311,1331,1351,1371,1391,1411,1431,1451,1471,1491,1511,1531,1551,1571,1591,1611,1631,1651,1671,1691,1711,1731,1751,1771,1791,1811,1831,1851,1871,1891,1911,1931,1951,1971,1993,2011,2040,2051,2071,2094],"xSR":350,"ySR":768,"xT1":30,"yT1":0,"xT2":670,"yT2":0,"toosoon":0,"cond_shown":"Equal","ratio_trial":300,"L_num":9,"L_den":12,"R_num":9,"R_den":20,"correct_side":1,"subjID":"15","gender":"No_gender","school":"No_school","age":"No_age"},{"start_time":1549308969577,"click_time":1549308971749,"finger_time":1549308971109,"fix_duration":827.4697402541194,"trial":11,"RT":1532,"MT":640,"sideResp":2,"stimulus":[],"xmouse":[406,407,407,407,407,407,407,407,407,407,407,407,409.3330078125,409.3330078125,409.3330078125,409.3330078125,409.3330078125,409.3330078125,409.3330078125,409.3330078125,409.3330078125,409.3330078125,409.3330078125,409.3330078125,409.3330078125,409.3330078125,409.3330078125,409.3330078125,409.3330078125,409.3330078125,409.3330078125,409.3330078125,409.3330078125,410,410,410,410,410,410,410,410,410,410,410,410,410,410,410,410,410,410,410,410,410.6669921875,410.6669921875,410.6669921875,410.6669921875,410.6669921875,410.6669921875,410.6669921875,410.6669921875,410.6669921875,410.6669921875,410.6669921875,410.6669921875,410.6669921875,410.6669921875,410.6669921875,410.6669921875,410.6669921875,410.6669921875,410.6669921875,410.6669921875,410.6669921875,448.4840087890625,448.4840087890625,448.4840087890625,448.4840087890625,448.4840087890625,448.4840087890625,448.4840087890625,448.4840087890625,448.4840087890625,448.4840087890625,589.7529907226562,589.7529907226562,589.7529907226562,589.7529907226562,589.7529907226562,589.7529907226562,589.7529907226562,589.7529907226562,589.7529907226562,589.7529907226562,589.7529907226562,664.8480224609375,664.8480224609375,664.8480224609375,664.8480224609375,664.8480224609375,664.8480224609375,664.8480224609375,664.8480224609375,664.8480224609375,664.8480224609375,664.8480224609375,694.77197265625],"ymouse":[818,816,816,816,816,816,816,816,816,816,816,816,814.7529907226562,814.7529907226562,814.7529907226562,814.7529907226562,814.7529907226562,814.7529907226562,814.7529907226562,814.7529907226562,814.7529907226562,814.7529907226562,814.7529907226562,814.6669921875,814.6669921875,814.6669921875,814.6669921875,814.6669921875,814.6669921875,814.6669921875,814.6669921875,814.6669921875,814.6669921875,814,814,814,814,814,814,814,814,814,814,816,816,816,816,816,816,816,816,816,816,816.6669921875,816.6669921875,816.6669921875,816.6669921875,816.6669921875,816.6669921875,816.6669921875,816.6669921875,816.6669921875,816.6669921875,815.4559936523438,815.4559936523438,815.4559936523438,815.4559936523438,815.4559936523438,815.4559936523438,815.4559936523438,815.4559936523438,815.4559936523438,815.4559936523438,815.4559936523438,681.426025390625,681.426025390625,681.426025390625,681.426025390625,681.426025390625,681.426025390625,681.426025390625,681.426025390625,681.426025390625,681.426025390625,290.1210021972656,290.1210021972656,290.1210021972656,290.1210021972656,290.1210021972656,290.1210021972656,290.1210021972656,290.1210021972656,290.1210021972656,290.1210021972656,290.1210021972656,57.51499938964844,57.51499938964844,57.51499938964844,57.51499938964844,57.51499938964844,57.51499938964844,57.51499938964844,57.51499938964844,57.51499938964844,57.51499938964844,57.51499938964844,18.61400032043457],"timestamp_mouse":[11,81,91,111,131,151,171,191,211,231,251,271,291,312,331,351,371,391,412,432,452,471,492,512,532,552,572,592,612,632,652,672,692,712,732,752,772,792,812,832,852,872,892,912,932,952,972,992,1012,1032,1052,1072,1092,1112,1132,1152,1172,1192,1212,1232,1252,1272,1292,1312,1332,1352,1372,1392,1412,1432,1452,1472,1492,1512,1532,1552,1572,1592,1612,1632,1652,1672,1692,1712,1732,1752,1772,1792,1812,1832,1852,1872,1892,1912,1932,1952,1972,1992,2012,2032,2052,2072,2092,2112,2132,2152,2172],"xSR":350,"ySR":768,"xT1":30,"yT1":0,"xT2":670,"yT2":0,"toosoon":0,"cond_shown":"Congruent","ratio_trial":500,"L_num":3,"L_den":30,"R_num":6,"R_den":10,"correct_side":2,"subjID":"15","gender":"No_gender","school":"No_school","age":"No_age"},{"start_time":1549308974256,"click_time":1549308976093,"finger_time":1549308975690,"fix_duration":425.5259256733892,"trial":12,"RT":1434,"MT":403,"sideResp":1,"stimulus":[],"xmouse":[394,394,394,394,394,394,394,394,396,396,396,396,396,396,396,396,396,396,396,398,398,398,398,398,398,398,398,398,398,398.6669921875,398.6669921875,398.6669921875,398.6669921875,398.6669921875,398.6669921875,398.6669921875,398.6669921875,398.6669921875,398.6669921875,398,398,398,398,398,398,398,398,398,398,398,398,398,398,398,398,398,398,398,398,398,398,398,398,398,398,398,398,398,375.2590026855469,367.39300537109375,358.739013671875,348.3429870605469,336.9169921875,310.91900634765625,294.6059875488281,279.62701416015625,261.864990234375,243.6790008544922,209.69400024414062,193.50799560546875,178.89599609375,164.3699951171875,150.45799255371094,126.60700225830078,117.60700225830078,110.91500091552734,104.27799987792969,97.81500244140625,89.89800262451172],"ymouse":[829,829,829,829,829,829,829,829,830,830,830,830,830,830,830,830,830,830,830,831,831,831,832,832,832,832,832,832,832,832.3610229492188,832.3610229492188,832.3610229492188,832.3610229492188,832.3610229492188,832.3610229492188,832.3610229492188,832.3610229492188,832.3610229492188,832.3610229492188,831,831,831,831,831,831,831,831,831,831,832,832,832,832,832,832,832,832,832,832,830,830,830,830,830,830,830,830,830,758.06201171875,728.3259887695312,697.7639770507812,664.7960205078125,629.4920043945312,552.0479736328125,510.73699951171875,475.52899169921875,437.0450134277344,400.1809997558594,331.2829895019531,297.0849914550781,265.6910095214844,237.406005859375,209.58399963378906,162.4980010986328,143.29200744628906,126.72299194335938,114.06600952148438,101.72699737548828,87.12999725341797],"timestamp_mouse":[78,93,113,133,153,173,193,216,233,254,274,293,313,333,353,373,393,413,433,453,473,493,514,533,553,574,593,614,633,653,674,694,713,734,754,774,794,813,834,854,874,894,914,934,953,974,994,1014,1034,1054,1074,1094,1114,1134,1154,1174,1194,1214,1234,1254,1274,1294,1314,1335,1354,1374,1394,1414,1434,1454,1474,1494,1514,1536,1554,1574,1594,1614,1635,1654,1674,1694,1714,1735,1754,1774,1794,1814,1836],"xSR":350,"ySR":768,"xT1":30,"yT1":0,"xT2":670,"yT2":0,"toosoon":0,"cond_shown":"Incongruent","ratio_trial":100,"L_num":8,"L_den":16,"R_num":6,"R_den":10,"correct_side":2,"subjID":"15","gender":"No_gender","school":"No_school","age":"No_age"},{"start_time":1549308979925,"click_time":1549308983092,"finger_time":1549308981951,"fix_duration":1372.371410911983,"trial":13,"RT":2026,"MT":1141,"sideResp":2,"stimulus":[],"xmouse":[420,420,420,420,420,420,420,420,420,421,421,421,421,421,421,421,421,421,421,422,422,422,422,422,422,422,422,422,422,421.3330078125,421.3330078125,421.3330078125,421.3330078125,421.3330078125,421.3330078125,421.3330078125,421.3330078125,421.3330078125,421.3330078125,421.3330078125,421.3330078125,421.3330078125,421.3330078125,421.3330078125,421.3330078125,421.3330078125,421.3330078125,421.3330078125,421.3330078125,420,420,420,420,420,420,420,420,420,420,420,420.6669921875,420.6669921875,420.6669921875,420.6669921875,420.6669921875,420.6669921875,420.6669921875,420.6669921875,420.6669921875,420.6669921875,420,420,420,420,420,420,420,420,420,420,420,420,420,420,420,420,420.6669921875,420.6669921875,420.6669921875,420.6669921875,420.6669921875,420.6669921875,420.6669921875,425.3429870605469,426.4209899902344,427.4960021972656,428,428.99200439453125,432.239013671875,434.4219970703125,437.16900634765625,440.04998779296875,442.968994140625,448.77801513671875,451.3349914550781,453.8970031738281,457.1239929199219,465.1390075683594,484.4020080566406,492.06298828125,498.5159912109375,503.6759948730469,508.052001953125,516.6530151367188,520.0499877929688,523.2890014648438,526.114990234375,529.0679931640625,537.1719970703125,542.1400146484375,546.4229736328125,551.5889892578125,556.9819946289062,567.7130126953125,572.5900268554688,577.8099975585938,582.5040283203125,587.4970092773438,595.4550170898438,598.8300170898438,601.39501953125,603.5189819335938,605.656982421875,609.9550170898438,611.4409790039062,613.583984375,614.8690185546875,617.2109985351562,620.8670043945312,622.3140258789062,624.5130004882812,626.6220092773438,630.22802734375,643.1480102539062,649.8179931640625,656.2680053710938,661.781982421875,667.7919921875,678.7169799804688,684.510009765625,688.6370239257812,692.9509887695312,697.9500122070312,705.719970703125,710.1380004882812,712.6160278320312,716.073974609375],"ymouse":[834,834,834,834,834,834,834,834,834,832,832,832,832,832,832,832,832,832,832,831,831,831,831,831,831,831,831,831,831,830.4299926757812,830.4299926757812,830.4299926757812,830.4299926757812,830.4299926757812,830.4299926757812,830.4299926757812,830.4299926757812,830.4299926757812,830.4299926757812,831.9190063476562,831.9190063476562,831.9190063476562,831.9190063476562,831.9190063476562,831.9190063476562,831.9190063476562,831.9190063476562,831.9190063476562,831.9190063476562,832,832,832,832,832,832,832,832,832,832,832,830.6669921875,830.6669921875,830.6669921875,830.6669921875,830.6669921875,830.6669921875,830.6669921875,830.6669921875,830.6669921875,830.6669921875,830,830,830,830,830,830,830,830,830,830,830,830,830,830,830,830,829.6580200195312,829.6580200195312,829.6580200195312,829.6580200195312,829.6580200195312,829.6580200195312,829.6580200195312,808.6069946289062,803.8930053710938,798.52197265625,793,789.3670043945312,773.0159912109375,761.8920288085938,750.656005859375,737.0339965820312,724.125,692.1110229492188,677.323974609375,662.260009765625,644.7410278320312,620.0239868164062,567.0159912109375,546.6900024414062,527.1199951171875,512.8419799804688,499.177001953125,476.6929931640625,466.27899169921875,458.822998046875,452.3210144042969,444.26300048828125,426.02899169921875,416.4150085449219,406.7149963378906,397.0069885253906,387.29901123046875,369.39300537109375,361.48699951171875,353.7330017089844,346.9100036621094,340.12799072265625,328.0140075683594,322.61700439453125,317.89801025390625,313.6289978027344,310.1809997558594,303.0669860839844,299.8389892578125,297.0820007324219,294.05999755859375,290.8500061035156,285.79998779296875,283.1960144042969,280.82000732421875,276.0899963378906,270.0480041503906,250.6719970703125,240.60601806640625,230.2449951171875,220.65699768066406,210.97799682617188,189.20799255371094,176.2270050048828,166.40699768066406,155.6230010986328,144.79100036621094,124.04499816894531,115.19100952148438,106.2020034790039,98.46800231933594],"timestamp_mouse":[10,75,86,106,126,146,166,186,206,226,246,266,286,306,326,346,366,386,406,426,446,466,486,506,526,546,566,586,606,626,646,666,686,706,726,746,766,786,806,826,846,866,886,906,926,946,966,986,1006,1026,1046,1066,1086,1106,1126,1146,1166,1186,1206,1226,1246,1266,1286,1306,1326,1346,1366,1386,1406,1426,1446,1466,1486,1506,1526,1546,1566,1586,1606,1626,1646,1666,1686,1706,1726,1746,1766,1786,1806,1826,1846,1866,1886,1906,1926,1946,1966,1986,2006,2026,2046,2066,2086,2106,2126,2146,2166,2186,2206,2226,2246,2266,2286,2306,2326,2346,2366,2386,2406,2426,2446,2466,2486,2507,2526,2546,2566,2586,2606,2626,2646,2666,2686,2706,2726,2746,2766,2786,2806,2826,2846,2866,2886,2906,2926,2946,2966,2986,3007,3026,3046,3066,3086,3107,3126,3146,3166],"xSR":350,"ySR":768,"xT1":30,"yT1":0,"xT2":670,"yT2":0,"toosoon":0,"cond_shown":"Equal","ratio_trial":200,"L_num":3,"L_den":10,"R_num":3,"R_den":6,"correct_side":2,"subjID":"15","gender":"No_gender","school":"No_school","age":"No_age"},{"start_time":1549308985608,"click_time":1549308987712,"finger_time":1549308987212,"fix_duration":434.6085483488702,"trial":14,"RT":1604,"MT":500,"sideResp":1,"stimulus":[],"xmouse":[398.6669921875,398,398,398,398,398,398,398,395.9110107421875,395.9110107421875,395.0899963378906,395.0899963378906,395.0899963378906,395.0899963378906,395.0899963378906,395.0899963378906,395.0899963378906,395.0899963378906,395.0899963378906,395.0899963378906,393.3330078125,393.3330078125,392,392,392,392,392,392,392,392,392,392,392,392,392,392,392,392,392,392,392,392,392,392,392,392,392,392,392,392,392,392,392,391,391,391,391,391,391,391,391,391,391,390,390,390,390,390,390,390,390,390,390,392.6669921875,392.6669921875,392.6669921875,392.6669921875,392.6669921875,383.12200927734375,376.8810119628906,364.3299865722656,357.5360107421875,350.6029968261719,343.11199951171875,335.6419982910156,316.2120056152344,305.0929870605469,294.010986328125,279.79901123046875,267.7650146484375,241.21099853515625,229.19400024414062,216.76800537109375,204.92599487304688,193.1199951171875,171.19000244140625,160.42799377441406,151.5590057373047,143.68699645996094,134.24099731445312,120.6820068359375,113.75700378417969,108.08499908447266,102.76000213623047],"ymouse":[839.3330078125,838,838,838,838,838,838,838,829.9110107421875,829.9110107421875,828.4229736328125,828.4229736328125,828.4229736328125,828.4229736328125,828.4229736328125,828.4229736328125,828.4229736328125,828.4229736328125,828.4229736328125,828.4229736328125,824.6669921875,824.6669921875,824,824,824,824,824,824,824,824,824,824,824,824,824,824,824,824,824,824,824,824,824,824,824,824,824,824,824,824,824,824,824,824,824,824,824,824,824,824,824,824,824,824,824,824,824,824,824,824,824,824,824,810.0570068359375,810.0570068359375,810.0570068359375,810.0570068359375,810.0570068359375,757.822021484375,732.0040283203125,678.656982421875,654.9660034179688,630.6580200195312,606.2260131835938,582.8489990234375,533.926025390625,509.51904296875,483.625,456.281005859375,429.3810119628906,374.52301025390625,349.406005859375,325.5360107421875,302.9809875488281,280.4419860839844,237.0469970703125,215.5229949951172,195.78399658203125,176.4340057373047,159.17799377441406,130.031005859375,117.0469970703125,105.25399780273438,95.48300170898438],"timestamp_mouse":[4,71,84,104,124,144,164,184,204,224,244,264,284,304,324,344,364,384,404,424,444,464,484,504,524,544,564,584,604,624,644,664,684,704,724,744,764,784,804,824,844,864,884,904,924,944,964,984,1004,1024,1044,1064,1084,1104,1124,1144,1164,1184,1204,1224,1244,1264,1284,1304,1324,1344,1364,1384,1404,1425,1444,1464,1484,1504,1524,1549,1564,1584,1604,1624,1645,1664,1684,1704,1724,1745,1764,1784,1804,1824,1844,1865,1884,1904,1924,1945,1966,1984,2004,2024,2045,2064,2084,2104],"xSR":350,"ySR":768,"xT1":30,"yT1":0,"xT2":670,"yT2":0,"toosoon":0,"cond_shown":"Congruent","ratio_trial":500,"L_num":10,"L_den":13,"R_num":7,"R_den":26,"correct_side":1,"subjID":"15","gender":"No_gender","school":"No_school","age":"No_age"},{"start_time":1549308990367,"click_time":1549308992336,"finger_time":1549308992013,"fix_duration":692.9317239479566,"trial":15,"RT":1646,"MT":323,"sideResp":1,"stimulus":[],"xmouse":[410.8330078125,407,407,406.6669921875,406,406,406,406,406,406,406,406,406,406,406,406,406,406,406,406,406,406,406,409.0769958496094,409.0769958496094,409.0769958496094,409.0769958496094,409.0769958496094,409.0769958496094,409.0769958496094,409.0769958496094,409.0769958496094,409.0769958496094,412,412,412,412.6669921875,412.6669921875,412.6669921875,412.6669921875,412.6669921875,412.6669921875,412.6669921875,412.6669921875,412.6669921875,412.6669921875,412.6669921875,412.6669921875,413.302001953125,413.302001953125,413.302001953125,413.302001953125,413.302001953125,413.302001953125,413.302001953125,413.302001953125,413.302001953125,413.302001953125,414,414,414,414,414,414,414,414,414,414,414,414,414,414,414,414,414,414,414,414,402.73199462890625,381.0530090332031,365.7340087890625,349.45098876953125,331.49798583984375,292.77801513671875,272.4830017089844,252.60498046875,234.0229949951172,214.3769989013672,177.21200561523438,159.91600036621094,142.75900268554688,129.85800170898438,116.96900177001953,105.31999969482422,86.47899627685547,77.68000030517578,70.24800109863281],"ymouse":[830.1669921875,828,828,827.3330078125,826,826,826,826,826,826,826,826,826,827,827,827,827,827,827,827,827,827,827,831.7440185546875,831.7440185546875,831.7440185546875,831.7440185546875,831.7440185546875,831.7440185546875,831.7440185546875,831.7440185546875,831.7440185546875,831.7440185546875,838,838,838,838.6669921875,839.3519897460938,839.3519897460938,839.3519897460938,839.3519897460938,839.3519897460938,839.3519897460938,839.3519897460938,839.3519897460938,839.3519897460938,839.3519897460938,839.3519897460938,838.6669921875,838.6669921875,838.6669921875,838.6669921875,838.6669921875,838.6669921875,838.6669921875,838.6669921875,838.6669921875,838.6669921875,838,838,838,838,838,838,838,838,838,838,837,837,837,837,837,837,837,837,837,837,814.6510009765625,774.8159790039062,746.7219848632812,714.9030151367188,679.0850219726562,598.0189819335938,553.5380249023438,507.85595703125,466.8340148925781,423.6449890136719,342.87200927734375,304.1440124511719,268.85198974609375,234.91000366210938,203.2310028076172,175.66700744628906,128.197998046875,107.65399932861328,89.36499786376953],"timestamp_mouse":[10,76,87,106,126,146,166,186,206,226,246,266,286,306,326,346,366,386,406,426,446,466,486,507,526,546,566,586,606,626,646,666,686,706,726,746,766,786,807,826,846,866,886,907,926,946,966,986,1006,1026,1046,1066,1086,1106,1126,1146,1166,1186,1206,1226,1246,1266,1286,1306,1326,1346,1366,1386,1406,1426,1446,1466,1486,1506,1526,1546,1566,1586,1606,1626,1646,1666,1686,1707,1726,1746,1766,1786,1807,1826,1846,1866,1886,1906,1926,1946,1966],"xSR":350,"ySR":768,"xT1":30,"yT1":0,"xT2":670,"yT2":0,"toosoon":0,"cond_shown":"Incongruent","ratio_trial":200,"L_num":4,"L_den":5,"R_num":6,"R_den":10,"correct_side":1,"subjID":"15","gender":"No_gender","school":"No_school","age":"No_age"},{"start_time":1549308994885,"click_time":1549308997037,"finger_time":1549308996575,"fix_duration":250,"trial":16,"RT":1690,"MT":462,"sideResp":1,"stimulus":[],"xmouse":[410,410,411.3330078125,413.72198486328125,414.7869873046875,415.8559875488281,416.9209899902344,418,418,418,418,418,418,418,418,418,418,418,418,418,416.6669921875,416.6669921875,417.3330078125,417.3330078125,417.3330078125,417.3330078125,417.3330078125,417.3330078125,417.3330078125,417.3330078125,417.3330078125,417.3330078125,417.3330078125,417.3330078125,417.3330078125,417.3330078125,417.3330078125,417.3330078125,417.3330078125,417.3330078125,417.3330078125,417.3330078125,417.3330078125,417.3330078125,417.3330078125,417.3330078125,417.3330078125,417.3330078125,417.3330078125,417.3330078125,417,417,417,417,417,417,417,417,417,417,417.3330078125,417.3330078125,417.3330078125,417.3330078125,417.3330078125,417.3330078125,417.3330078125,417.3330078125,417.3330078125,417.3330078125,417,417,417,417,417,417,417,417,406.6289978027344,404.50299072265625,401.1730041503906,397.0320129394531,389.38800048828125,373.739990234375,364.343994140625,354.6300048828125,344.2040100097656,333.4519958496094,308.7030029296875,295.59100341796875,282.90301513671875,271.2179870605469,258.51800537109375,235.19200134277344,223.50999450683594,212.13400268554688,201.2989959716797,191.25900268554688,174.2519989013672,165.6219940185547,156.97999572753906,149.7790069580078,136.10299682617188,131.12100219726562,126.76499938964844],"ymouse":[819,819,820.2559814453125,823.4439697265625,825.573974609375,827.0460205078125,828.2540283203125,829,829,829,829,829,828,828,828,828,828,828,828,828,831.0380249023438,831.3330078125,832.9019775390625,832.6669921875,832.6669921875,832.6669921875,832.6669921875,832.6669921875,832.6669921875,832.6669921875,832.6669921875,832.6669921875,832.6669921875,832.6669921875,832.6669921875,832.6669921875,832.6669921875,832.6669921875,832.6669921875,831.7869873046875,831.7869873046875,831.7869873046875,831.7869873046875,831.7869873046875,831.7869873046875,831.7869873046875,831.7869873046875,831.7869873046875,831.7869873046875,831.7869873046875,832,832,832,832,832,832,832,832,832,832,832.6669921875,832.6669921875,832.6669921875,832.6669921875,832.6669921875,832.6669921875,832.6669921875,832.6669921875,832.6669921875,832.6669921875,832,832,832,832,832,832,832,832,792.8679809570312,784.6810302734375,775.02001953125,756.9760131835938,728.8610229492188,675.489013671875,648.8090209960938,619.8909912109375,590.0369873046875,559.9329833984375,500.26300048828125,468.14801025390625,436.5899963378906,408.6260070800781,381.4679870605469,326.21099853515625,300.1440124511719,274.7080078125,250.7230224609375,228.4929962158203,185.0659942626953,165.91000366210938,146.70599365234375,130.16200256347656,104.73300170898438,94.1510009765625,87.4800033569336],"timestamp_mouse":[79,89,110,129,149,173,189,209,229,249,269,289,310,329,349,369,389,409,429,449,470,489,511,530,549,569,589,609,629,649,669,689,709,729,749,769,790,809,829,850,869,890,911,929,949,970,989,1009,1029,1049,1070,1090,1109,1130,1150,1170,1190,1210,1230,1249,1270,1290,1310,1330,1350,1370,1390,1410,1430,1450,1470,1490,1510,1530,1550,1570,1590,1610,1630,1650,1670,1690,1710,1730,1750,1770,1790,1810,1830,1850,1870,1890,1910,1930,1950,1970,1990,2010,2030,2050,2070,2090,2112,2130,2150],"xSR":350,"ySR":768,"xT1":30,"yT1":0,"xT2":670,"yT2":0,"toosoon":0,"cond_shown":"Incongruent","ratio_trial":300,"L_num":2,"L_den":4,"R_num":6,"R_den":30,"correct_side":1,"subjID":"15","gender":"No_gender","school":"No_school","age":"No_age"},{"start_time":1549308999586,"click_time":1549309004458,"finger_time":1549309002538,"fix_duration":769.0853354504702,"trial":17,"RT":2952,"MT":1920,"sideResp":1,"stimulus":[],"xmouse":[420.1029968261719,420.1029968261719,420,419.3330078125,418.6669921875,418.6669921875,418.6669921875,418,418.6669921875,418,418,418,418,418,418,418,418,418,418,418,418,418,418,418,416.6669921875,416.6669921875,416.6669921875,416.6669921875,416.6669921875,416.6669921875,416,416,416,416,416,416,416,416,416,416,416,416,416,416,416,415.3330078125,415.3330078125,415.3330078125,415.3330078125,415.3330078125,415.3330078125,415.3330078125,415.3330078125,415.3330078125,415.3330078125,415.3330078125,414.07000732421875,414.07000732421875,414.07000732421875,414.07000732421875,414.07000732421875,414.07000732421875,414.07000732421875,414.07000732421875,414.07000732421875,414.07000732421875,414,414,414,414,414,414,414,414,414,414,414.6669921875,414.6669921875,414.6669921875,414.6669921875,414.6669921875,414.6669921875,414.6669921875,414.6669921875,414.6669921875,414.6669921875,415.0740051269531,415.0740051269531,415.0740051269531,415.0740051269531,415.0740051269531,415.0740051269531,415.0740051269531,415.0740051269531,415.0740051269531,415.0740051269531,414,414,414,414,414,414,414,414,411.3330078125,411.3330078125,411.3330078125,410.6669921875,410.6669921875,410,409,409.3330078125,409.3330078125,408.697998046875,408.697998046875,408.697998046875,408,408,408,407.3330078125,407,407.3330078125,406.6669921875,406.6669921875,406.6669921875,406.6669921875,406.6669921875,406.6669921875,406.6669921875,406.6669921875,406.6669921875,406.6669921875,406.6669921875,406.6669921875,406.6669921875,405.69000244140625,406,405.3330078125,404.4639892578125,402.9729919433594,401.9010009765625,400.30999755859375,399.0780029296875,394.6860046386719,384.4540100097656,379.364990234375,371.9429931640625,363.114013671875,355.5780029296875,341.10699462890625,336.65301513671875,333.09100341796875,330.2030029296875,328.2080078125,329.9590148925781,337.0880126953125,342.4540100097656,349.8290100097656,359.40399169921875,381.7439880371094,395.3819885253906,406.39300537109375,417.7279968261719,430.6159973144531,441.3479919433594,463.53900146484375,475.2340087890625,484.69000244140625,495.9859924316406,510.3710021972656,517.635986328125,524.4829711914062,531.0390014648438,538.8400268554688,544.531982421875,556.2249755859375,560.573974609375,564.8930053710938,568.7830200195312,572.031005859375,577.4110107421875,579.5640258789062,581.7069702148438,583.843017578125,585.9929809570312,590.291015625,592.4310302734375,594.5869750976562,596.7319946289062,598.2030029296875,601.844970703125,603,604.7360229492188,606.2969970703125,607.5460205078125,611.4119873046875,613.5599975585938,615.6849975585938,617.8900146484375,619.3619995117188,622.1669921875,623.2440185546875,624.3150024414062,624,625,627.2990112304688,628,628.7880249023438,629.3330078125,630.2760009765625,631,632,633.2529907226562,633.3330078125,634,634.6669921875,635,636,636,637.3330078125,637.322021484375,637.322021484375,637.322021484375,637.322021484375,637.322021484375,618.6179809570312,612.1699829101562,606.3350219726562,597.6279907226562,584.926025390625,532.843017578125,495.3349914550781,457.8089904785156,420.82000732421875,384.2850036621094,312.2179870605469,275.5320129394531,240.7530059814453,202.86199951171875,164.8159942626953,108.48799896240234],"ymouse":[829.1270141601562,829.1270141601562,830,832.0819702148438,834.18701171875,834.5809936523438,835.6669921875,836,837.3330078125,838,838,839,839,840,840,840,840,840,840,840,840,840,840,840,838.5670166015625,838.5670166015625,838.5670166015625,838.5670166015625,838.5670166015625,838.5670166015625,842,842,842,843,844,844,844,844,844,844,844,844,844,844,844,844.6669921875,844.6669921875,844.6669921875,844.6669921875,844.6669921875,844.6669921875,844.6669921875,844.6669921875,844.6669921875,844.6669921875,844.6669921875,844.6669921875,844.6669921875,844.6669921875,844.6669921875,844.6669921875,844.6669921875,844.6669921875,844.6669921875,844.6669921875,844.6669921875,844,844,844,844,844,844,844,844,844,844,842.6669921875,842.6669921875,842.6669921875,842.6669921875,842.6669921875,842.6669921875,842.6669921875,842.6669921875,842.6669921875,842.6669921875,841.3330078125,841.3330078125,841.3330078125,841.3330078125,841.3330078125,841.3330078125,841.3330078125,841.3330078125,841.3330078125,841.3330078125,835,835,835,835,835,835,835,835,826.6669921875,825.6589965820312,824.6069946289062,824.1900024414062,823.1190185546875,822,822,821.3330078125,820.43798828125,820.6669921875,820.6669921875,820.6669921875,818,818,817,816.1489868164062,816,815.3250122070312,815.3330078125,814.5159912109375,814.6669921875,814.6669921875,814.6669921875,814.6669921875,814.6669921875,814.6669921875,814.6669921875,814.6669921875,814.6669921875,812.2559814453125,809.4390258789062,807.3809814453125,805,803.7620239257812,801.594970703125,796.6119995117188,792.9390258789062,788.7750244140625,782.4669799804688,773.3759765625,745.947998046875,729.8619995117188,709.7509765625,682.676025390625,654.9710083007812,599.9810180664062,569.5640258789062,538.322021484375,509.67999267578125,477.1180114746094,449.74200439453125,391.61199951171875,366.18499755859375,340.3970031738281,317.8349914550781,277.14599609375,260.14898681640625,248.94000244140625,237.08700561523438,226.7689971923828,219.25599670410156,207.26499938964844,202.40899658203125,198.99400329589844,195.03500366210938,190.54299926757812,188.38999938964844,186.91000366210938,184.76499938964844,182.61700439453125,180.48899841308594,176.7550048828125,174.71299743652344,173.18299865722656,171.6999969482422,170.4340057373047,167.6280059814453,165.7689971923828,164.81300354003906,163.7449951171875,162.0030059814453,159.85499572753906,158.78500366210938,157.70599365234375,156.63400268554688,155.56500244140625,153.41099548339844,152,150.5970001220703,149.51800537109375,148.45399475097656,146.29400634765625,145.22000122070312,144.82400512695312,143.7220001220703,142.65199279785156,141.16700744628906,140.75599670410156,140.66700744628906,140,140,139.3679962158203,139,139.33299255371094,138.66700744628906,138.66700744628906,138,138,137.33299255371094,137.33299255371094,136,136.66700744628906,136,136,136,135.33299255371094,135.33299255371094,135.33299255371094,135.33299255371094,135.33299255371094,135.33299255371094,130.88099670410156,128.9459991455078,126.80099487304688,123.65399169921875,119.66999816894531,102.4280014038086,91.08599853515625,79.66000366210938,67.30899810791016,55.45600128173828,38.03900146484375,32.30099868774414,27.511001586914062,26.79800033569336,26.66699981689453,25.58599853515625],"timestamp_mouse":[81,89,109,129,149,169,189,209,230,249,269,289,309,329,349,369,389,409,429,449,469,489,509,529,549,569,589,609,629,649,669,689,709,729,749,770,789,809,829,849,869,889,909,929,949,969,989,1009,1029,1049,1069,1089,1109,1129,1149,1169,1189,1209,1229,1249,1269,1289,1309,1329,1349,1369,1389,1409,1429,1450,1469,1489,1509,1529,1549,1569,1589,1609,1630,1649,1669,1690,1710,1729,1750,1769,1790,1809,1830,1849,1869,1889,1910,1929,1951,1969,1990,2009,2030,2051,2069,2090,2110,2130,2150,2170,2190,2210,2230,2250,2270,2290,2310,2330,2349,2370,2390,2410,2430,2450,2470,2490,2510,2530,2550,2570,2590,2610,2630,2650,2670,2690,2710,2730,2750,2770,2790,2810,2830,2851,2870,2890,2910,2930,2952,2970,2990,3010,3030,3051,3070,3090,3110,3130,3150,3170,3190,3210,3230,3251,3270,3290,3310,3330,3350,3370,3390,3410,3430,3452,3470,3490,3510,3530,3550,3570,3590,3610,3630,3650,3670,3690,3710,3730,3750,3770,3790,3810,3830,3850,3870,3891,3910,3930,3950,3970,3990,4010,4030,4050,4070,4090,4110,4130,4150,4170,4190,4210,4230,4250,4270,4290,4310,4330,4350,4370,4390,4410,4431,4450,4471,4490,4510,4533,4550,4570,4590,4610,4630,4650,4670,4690,4710,4730,4750,4774,4790,4810,4830,4850,4870],"xSR":350,"ySR":768,"xT1":30,"yT1":0,"xT2":670,"yT2":0,"toosoon":0,"cond_shown":"Congruent","ratio_trial":300,"L_num":2,"L_den":20,"R_num":10,"R_den":25,"cor