[{"start_time":1549310355833,"click_time":1549310356472,"finger_time":1549310355849,"fix_duration":760.7281612327182,"trial":0,"RT":16,"MT":623,"sideResp":2,"stimulus":"img/900/equaldotsize/L/2_Ratio_900_L_20_R_18.png","xmouse":[410,410,410,410,410,408.66668701171875,408.66668701171875,408.66668701171875,408.66668701171875,408.66668701171875,408.66668701171875,408.66668701171875,408.66668701171875,408.66668701171875,408.66668701171875,410.66668701171875,411.3333435058594,422.66668701171875,434.66668701171875,460,473.3333435058594,510.66668701171875,541.3333740234375,556.6666870117188,584,598,634.6666870117188,657.3333740234375,668.6666870117188,689.3333740234375,709.3333740234375,731.3333740234375],"ymouse":[567.3333740234375,567.3333740234375,567.3333740234375,567.3333740234375,567.3333740234375,564.6666870117188,564.6666870117188,564.6666870117188,564.6666870117188,564.6666870117188,564.6666870117188,564.6666870117188,564.6666870117188,564.6666870117188,564.6666870117188,556,548,530.6666870117188,516,483.3333435058594,464,405.3333435058594,358,332.66668701171875,286.66668701171875,265.3333435058594,212,181.33334350585938,167.33334350585938,140.6666717529297,117.33334350585938,91.33333587646484],"timestamp_mouse":[15,35,55,75,94,115,135,155,175,195,215,237,255,274,295,315,336,355,375,395,415,435,455,475,495,515,535,555,574,595,615,638],"xSR":350,"ySR":508.79999999999995,"xT1":30,"yT1":0,"xT2":670,"yT2":0,"toosoon":0,"cond_shown":"equaldotsize","ratio_trial":900,"smaller_num":"18","larger_num":"20","correct_side":1,"subjID":"16","gender":"No_gender","age":"No_age","school":"No_school","test":{"fix_dur":[250,1500],"timestim":400,"targets_dim":[100,100],"targets_relative_coord":[0.1,0.9],"size_stim":[880,420],"start_dim":[100,100],"size_start":[300,300],"size_fix":60,"samplingrate":20,"img_types":["equaldotsize","equaldotanddens","randomdotsize","randomdotsizeEA"],"ratios":[250,500,750,900],"rep_conds":10,"nTrials":176,"trials_to_rest":500,"Trials_order":[172,34,19,70,93,0,54,27,1,105,135,29,101,148,13,88,55,6,71,33,139,61,68,170,162,59,119,175,130,169,122,37,140,76,174,75,96,9,112,72,2,58,89,25,173,159,127,142,90,141,62,138,99,114,40,98,145,36,143,120,66,4,46,128,73,153,166,95,14,85,86,146,16,165,158,3,113,106,47,22,74,18,43,32,97,80,79,151,41,39,129,50,161,67,147,57,100,168,8,64,160,103,52,69,11,48,108,84,23,60,5,154,38,111,107,45,167,83,144,30,104,109,17,164,121,117,123,87,42,65,152,94,44,31,157,136,28,124,163,126,91,102,24,133,10,20,132,26,118,110,12,78,56,155,92,150,137,156,53,49,131,21,63,116,7,171,51,82,134,77,81,125,115,15,35,149],"cond_shown":["equaldotsize","randomdotsize","randomdotsizeEA","randomdotsize","equaldotanddens","equaldotsize","randomdotsize","randomdotsizeEA","equaldotanddens","equaldotanddens","randomdotsizeEA","equaldotanddens","equaldotanddens","equaldotsize","equaldotanddens","equaldotsize","randomdotsizeEA","randomdotsize","randomdotsizeEA","equaldotanddens","randomdotsizeEA","equaldotanddens","equaldotsize","randomdotsize","randomdotsize","randomdotsizeEA","randomdotsizeEA","randomdotsizeEA","randomdotsize","equaldotanddens","randomdotsize","equaldotanddens","equaldotsize","equaldotsize","randomdotsize","randomdotsizeEA","equaldotsize","equaldotanddens","equaldotsize","equaldotsize","randomdotsize","randomdotsize","equaldotanddens","equaldotanddens","equaldotanddens","randomdotsizeEA","randomdotsizeEA","randomdotsize","randomdotsize","equaldotanddens","randomdotsize","randomdotsize","randomdotsizeEA","randomdotsize","equaldotsize","randomdotsize","equaldotanddens","equaldotsize","randomdotsizeEA","equaldotsize","randomdotsize","equaldotsize","randomdotsize","equaldotsize","equaldotanddens","equaldotanddens","randomdotsize","randomdotsizeEA","randomdotsize","equaldotanddens","randomdotsize","randomdotsize","equaldotsize","equaldotanddens","randomdotsize","randomdotsizeEA","equaldotanddens","randomdotsize","randomdotsizeEA","randomdotsize","randomdotsize","randomdotsize","randomdotsizeEA","equaldotsize","equaldotanddens","equaldotsize","randomdotsizeEA","randomdotsizeEA","equaldotanddens","randomdotsizeEA","equaldotanddens","randomdotsize","equaldotanddens","randomdotsizeEA","randomdotsizeEA","equaldotanddens","equaldotsize","equaldotsize","equaldotsize","equaldotsize","equaldotsize","randomdotsizeEA","equaldotsize","equaldotanddens","randomdotsizeEA","equaldotsize","equaldotsize","equaldotsize","randomdotsizeEA","equaldotsize","equaldotanddens","randomdotsize","randomdotsize","randomdotsizeEA","randomdotsizeEA","equaldotanddens","randomdotsizeEA","randomdotsizeEA","equaldotsize","randomdotsize","equaldotsize","equaldotanddens","equaldotanddens","equaldotsize","equaldotanddens","equaldotanddens","randomdotsizeEA","randomdotsizeEA","randomdotsize","equaldotanddens","equaldotsize","randomdotsize","equaldotsize","randomdotsizeEA","equaldotanddens","equaldotsize","equaldotsize","equaldotsize","randomdotsizeEA","randomdotsize","randomdotsizeEA","randomdotsize","equaldotsize","equaldotanddens","randomdotsize","equaldotsize","equaldotsize","randomdotsize","randomdotsize","randomdotsize","equaldotsize","randomdotsize","equaldotsize","randomdotsizeEA","equaldotsize","randomdotsize","equaldotanddens","equaldotsize","equaldotanddens","equaldotanddens","randomdotsizeEA","equaldotanddens","randomdotsizeEA","equaldotsize","randomdotsizeEA","randomdotsizeEA","randomdotsizeEA","randomdotsize","randomdotsize","equaldotanddens","equaldotanddens","equaldotanddens","randomdotsizeEA","randomdotsizeEA","randomdotsizeEA","equaldotanddens"],"ratio_trial":[900,250,250,500,900,250,500,750,250,750,500,900,500,500,900,750,500,500,500,250,750,900,500,750,250,750,500,900,250,750,750,500,900,900,900,750,250,750,250,750,250,750,750,750,900,900,900,900,750,900,900,750,250,250,750,250,250,500,900,750,250,500,900,250,750,750,500,900,900,500,500,250,250,500,900,250,250,750,900,500,750,250,750,250,250,250,900,500,750,500,250,250,250,250,250,750,500,750,750,250,250,500,500,500,750,250,900,500,500,900,500,750,500,900,750,900,500,250,250,900,750,900,250,500,750,500,750,500,750,250,750,900,900,900,900,750,900,900,250,900,750,500,750,500,750,500,500,750,500,900,900,900,750,750,900,500,750,900,500,250,250,500,900,500,500,750,250,250,500,900,250,900,250,900,250,500],"smaller_num":["18","3","5","1","9","3","6","12","2","18","2","9","2","1","18","3","10","2","1","3","3","9","9","15","2","6","9","18","1","15","6","4","9","9","18","3","2","15","2","18","3","15","15","12","18","18","9","9","3","9","18","3","4","3","15","4","6","9","18","3","3","10","9","3","3","3","5","9","18","4","9","2","3","2","9","3","6","6","9","10","15","2","3","2","6","3","9","9","3","1","2","2","3","3","5","3","2","3","3","3","6","10","1","2","9","6","18","2","2","18","9","6","5","18","6","9","9","6","5","18","6","9","3","6","3","6","6","9","3","6","3","18","18","18","9","3","18","18","1","18","15","6","15","9","3","3","5","12","6","9","9","9","3","3","18","2","18","18","9","6","3","2","18","9","1","6","2","6","4","9","4","18","1","9","3","3"],"larger_num":["20","12","20","2","10","12","12","16","8","24","4","10","4","2","20","4","20","4","2","12","4","10","18","20","8","8","18","20","4","20","8","8","10","10","20","4","8","20","8","24","12","20","20","16","20","20","10","10","4","10","20","4","16","12","20","16","24","18","20","4","12","20","10","12","4","4","10","10","20","8","18","8","12","4","10","12","24","8","10","20","20","8","4","8","24","12","10","18","4","2","8","8","12","12","20","4","4","4","4","12","24","20","2","4","12","24","20","4","4","20","18","8","10","20","8","10","18","24","20","20","8","10","12","12","4","12","8","18","4","24","4","20","20","20","10","4","20","20","4","20","20","12","20","18","4","6","10","16","12","10","10","10","4","4","20","4","24","20","18","24","12","4","20","18","2","8","8","24","8","10","16","20","4","10","12","6"],"correct_side":[1,1,2,2,1,1,1,2,1,1,1,1,1,2,1,1,2,2,2,2,1,1,1,1,1,1,2,1,2,2,2,1,1,2,2,2,1,2,2,1,2,2,2,2,2,1,2,2,2,2,1,2,1,2,2,1,2,1,2,2,2,2,2,2,1,1,2,2,2,1,2,1,1,1,2,1,2,1,1,2,2,1,1,1,1,2,2,1,1,2,1,1,2,2,2,2,2,2,2,1,2,2,2,2,2,1,1,1,1,2,1,1,1,1,1,2,2,1,2,2,1,2,2,1,1,1,1,1,2,1,1,2,1,2,1,2,1,1,2,2,2,1,1,2,1,2,2,2,1,2,1,2,1,1,2,2,1,2,1,1,1,1,2,1,2,1,2,2,1,2,1,1,2,1,2,2],"img_shown":["img/900/equaldotsize/L/2_Ratio_900_L_20_R_18.png","img/250/randomdotsize/L/15_Ratio_250_L_12_R_3.png","img/250/randomdotsizeEA/R/12_Ratio_250_L_5_R_20.png","img/500/randomdotsize/R/15_Ratio_500_L_1_R_2.png","img/900/equaldotanddens/L/1_Ratio_900_L_10_R_9.png","img/250/equaldotsize/L/15_Ratio_250_L_12_R_3.png","img/500/randomdotsize/L/11_Ratio_500_L_12_R_6.png","img/750/randomdotsizeEA/R/11_Ratio_750_L_12_R_16.png","img/250/equaldotanddens/L/3_Ratio_250_L_8_R_2.png","img/750/equaldotanddens/L/6_Ratio_750_L_24_R_18.png","img/500/randomdotsizeEA/L/5_Ratio_500_L_4_R_2.png","img/900/equaldotanddens/L/1_Ratio_900_L_10_R_9.png","img/500/equaldotanddens/L/5_Ratio_500_L_4_R_2.png","img/500/equaldotsize/R/15_Ratio_500_L_1_R_2.png","img/900/equaldotanddens/L/2_Ratio_900_L_20_R_18.png","img/750/equaldotsize/L/9_Ratio_750_L_4_R_3.png","img/500/randomdotsizeEA/R/3_Ratio_500_L_10_R_20.png","img/500/randomdotsize/R/9_Ratio_500_L_2_R_4.png","img/500/randomdotsizeEA/R/12_Ratio_500_L_1_R_2.png","img/250/equaldotanddens/R/4_Ratio_250_L_3_R_12.png","img/750/randomdotsizeEA/L/8_Ratio_750_L_4_R_3.png","img/900/equaldotanddens/L/1_Ratio_900_L_10_R_9.png","img/500/equaldotsize/L/4_Ratio_500_L_18_R_9.png","img/750/randomdotsize/L/1_Ratio_750_L_20_R_15.png","img/250/randomdotsize/L/1_Ratio_250_L_8_R_2.png","img/750/randomdotsizeEA/L/13_Ratio_750_L_8_R_6.png","img/500/randomdotsizeEA/R/6_Ratio_500_L_9_R_18.png","img/900/randomdotsizeEA/L/2_Ratio_900_L_20_R_18.png","img/250/randomdotsize/R/8_Ratio_250_L_1_R_4.png","img/750/equaldotanddens/R/3_Ratio_750_L_15_R_20.png","img/750/randomdotsize/R/2_Ratio_750_L_6_R_8.png","img/500/equaldotanddens/L/8_Ratio_500_L_8_R_4.png","img/900/equaldotsize/L/1_Ratio_900_L_10_R_9.png","img/900/equaldotsize/R/5_Ratio_900_L_9_R_10.png","img/900/randomdotsize/R/12_Ratio_900_L_18_R_20.png","img/750/randomdotsizeEA/R/12_Ratio_750_L_3_R_4.png","img/250/equaldotsize/L/1_Ratio_250_L_8_R_2.png","img/750/equaldotanddens/R/3_Ratio_750_L_15_R_20.png","img/250/equaldotsize/R/13_Ratio_250_L_2_R_8.png","img/750/equaldotsize/L/6_Ratio_750_L_24_R_18.png","img/250/randomdotsize/R/9_Ratio_250_L_3_R_12.png","img/750/randomdotsize/R/5_Ratio_750_L_15_R_20.png","img/750/equaldotanddens/R/5_Ratio_750_L_15_R_20.png","img/750/equaldotanddens/R/11_Ratio_750_L_12_R_16.png","img/900/equaldotanddens/R/12_Ratio_900_L_18_R_20.png","img/900/randomdotsizeEA/L/4_Ratio_900_L_20_R_18.png","img/900/randomdotsizeEA/R/5_Ratio_900_L_9_R_10.png","img/900/randomdotsize/R/3_Ratio_900_L_9_R_10.png","img/750/randomdotsize/R/12_Ratio_750_L_3_R_4.png","img/900/equaldotanddens/R/7_Ratio_900_L_9_R_10.png","img/900/randomdotsize/L/2_Ratio_900_L_20_R_18.png","img/750/randomdotsize/R/12_Ratio_750_L_3_R_4.png","img/250/randomdotsizeEA/L/2_Ratio_250_L_16_R_4.png","img/250/randomdotsize/R/11_Ratio_250_L_3_R_12.png","img/750/equaldotsize/R/4_Ratio_750_L_15_R_20.png","img/250/randomdotsize/L/2_Ratio_250_L_16_R_4.png","img/250/equaldotanddens/R/6_Ratio_250_L_6_R_24.png","img/500/equaldotsize/L/4_Ratio_500_L_18_R_9.png","img/900/randomdotsizeEA/R/14_Ratio_900_L_18_R_20.png","img/750/equaldotsize/R/7_Ratio_750_L_3_R_4.png","img/250/randomdotsize/R/4_Ratio_250_L_3_R_12.png","img/500/equaldotsize/R/3_Ratio_500_L_10_R_20.png","img/900/randomdotsize/R/3_Ratio_900_L_9_R_10.png","img/250/equaldotsize/R/4_Ratio_250_L_3_R_12.png","img/750/equaldotanddens/L/10_Ratio_750_L_4_R_3.png","img/750/equaldotanddens/L/9_Ratio_750_L_4_R_3.png","img/500/randomdotsize/R/14_Ratio_500_L_5_R_10.png","img/900/randomdotsizeEA/R/6_Ratio_900_L_9_R_10.png","img/900/randomdotsize/R/12_Ratio_900_L_18_R_20.png","img/500/equaldotanddens/L/8_Ratio_500_L_8_R_4.png","img/500/randomdotsize/R/6_Ratio_500_L_9_R_18.png","img/250/randomdotsize/L/7_Ratio_250_L_8_R_2.png","img/250/equaldotsize/L/15_Ratio_250_L_12_R_3.png","img/500/equaldotanddens/L/10_Ratio_500_L_4_R_2.png","img/900/randomdotsize/R/6_Ratio_900_L_9_R_10.png","img/250/randomdotsizeEA/L/14_Ratio_250_L_12_R_3.png","img/250/equaldotanddens/R/6_Ratio_250_L_6_R_24.png","img/750/randomdotsize/L/14_Ratio_750_L_8_R_6.png","img/900/randomdotsizeEA/L/1_Ratio_900_L_10_R_9.png","img/500/randomdotsize/R/3_Ratio_500_L_10_R_20.png","img/750/randomdotsize/R/3_Ratio_750_L_15_R_20.png","img/250/randomdotsize/L/1_Ratio_250_L_8_R_2.png","img/750/randomdotsizeEA/L/9_Ratio_750_L_4_R_3.png","img/250/equaldotsize/L/1_Ratio_250_L_8_R_2.png","img/250/equaldotanddens/L/5_Ratio_250_L_24_R_6.png","img/250/equaldotsize/R/11_Ratio_250_L_3_R_12.png","img/900/randomdotsizeEA/R/7_Ratio_900_L_9_R_10.png","img/500/randomdotsizeEA/L/4_Ratio_500_L_18_R_9.png","img/750/equaldotanddens/L/9_Ratio_750_L_4_R_3.png","img/500/randomdotsizeEA/R/12_Ratio_500_L_1_R_2.png","img/250/equaldotanddens/L/1_Ratio_250_L_8_R_2.png","img/250/randomdotsize/L/3_Ratio_250_L_8_R_2.png","img/250/equaldotanddens/R/9_Ratio_250_L_3_R_12.png","img/250/randomdotsizeEA/R/11_Ratio_250_L_3_R_12.png","img/250/randomdotsizeEA/R/12_Ratio_250_L_5_R_20.png","img/750/equaldotanddens/R/12_Ratio_750_L_3_R_4.png","img/500/equaldotsize/R/9_Ratio_500_L_2_R_4.png","img/750/equaldotsize/R/12_Ratio_750_L_3_R_4.png","img/750/equaldotsize/R/12_Ratio_750_L_3_R_4.png","img/250/equaldotsize/L/15_Ratio_250_L_12_R_3.png","img/250/equaldotsize/R/6_Ratio_250_L_6_R_24.png","img/500/randomdotsizeEA/R/3_Ratio_500_L_10_R_20.png","img/500/equaldotsize/R/15_Ratio_500_L_1_R_2.png","img/500/equaldotanddens/R/9_Ratio_500_L_2_R_4.png","img/750/randomdotsizeEA/R/15_Ratio_750_L_9_R_12.png","img/250/equaldotsize/L/5_Ratio_250_L_24_R_6.png","img/900/equaldotsize/L/8_Ratio_900_L_20_R_18.png","img/500/equaldotsize/L/5_Ratio_500_L_4_R_2.png","img/500/randomdotsizeEA/L/5_Ratio_500_L_4_R_2.png","img/900/equaldotsize/R/13_Ratio_900_L_18_R_20.png","img/500/equaldotanddens/L/4_Ratio_500_L_18_R_9.png","img/750/randomdotsize/L/13_Ratio_750_L_8_R_6.png","img/500/randomdotsize/L/7_Ratio_500_L_10_R_5.png","img/900/randomdotsizeEA/L/10_Ratio_900_L_20_R_18.png","img/750/randomdotsizeEA/L/14_Ratio_750_L_8_R_6.png","img/900/equaldotanddens/R/7_Ratio_900_L_9_R_10.png","img/500/randomdotsizeEA/R/6_Ratio_500_L_9_R_18.png","img/250/randomdotsizeEA/L/5_Ratio_250_L_24_R_6.png","img/250/equaldotsize/R/12_Ratio_250_L_5_R_20.png","img/900/randomdotsize/R/13_Ratio_900_L_18_R_20.png","img/750/equaldotsize/L/13_Ratio_750_L_8_R_6.png","img/900/equaldotanddens/R/6_Ratio_900_L_9_R_10.png","img/250/equaldotanddens/R/4_Ratio_250_L_3_R_12.png","img/500/equaldotsize/L/11_Ratio_500_L_12_R_6.png","img/750/equaldotanddens/L/9_Ratio_750_L_4_R_3.png","img/500/equaldotanddens/L/13_Ratio_500_L_12_R_6.png","img/750/randomdotsizeEA/L/13_Ratio_750_L_8_R_6.png","img/500/randomdotsizeEA/L/4_Ratio_500_L_18_R_9.png","img/750/randomdotsize/R/12_Ratio_750_L_3_R_4.png","img/250/equaldotanddens/L/5_Ratio_250_L_24_R_6.png","img/750/equaldotsize/L/10_Ratio_750_L_4_R_3.png","img/900/randomdotsize/R/9_Ratio_900_L_18_R_20.png","img/900/equaldotsize/L/4_Ratio_900_L_20_R_18.png","img/900/randomdotsizeEA/R/12_Ratio_900_L_18_R_20.png","img/900/equaldotanddens/L/1_Ratio_900_L_10_R_9.png","img/750/equaldotsize/R/12_Ratio_750_L_3_R_4.png","img/900/equaldotsize/L/4_Ratio_900_L_20_R_18.png","img/900/equaldotsize/L/8_Ratio_900_L_20_R_18.png","img/250/randomdotsizeEA/R/8_Ratio_250_L_1_R_4.png","img/900/randomdotsize/R/14_Ratio_900_L_18_R_20.png","img/750/randomdotsizeEA/R/5_Ratio_750_L_15_R_20.png","img/500/randomdotsize/L/13_Ratio_500_L_12_R_6.png","img/750/equaldotsize/L/1_Ratio_750_L_20_R_15.png","img/500/equaldotanddens/R/1_Ratio_500_L_9_R_18.png","img/750/randomdotsize/L/8_Ratio_750_L_4_R_3.png","img/500/equaldotsize/R/2_Ratio_500_L_3_R_6.png","img/500/equaldotsize/R/14_Ratio_500_L_5_R_10.png","img/750/randomdotsize/R/11_Ratio_750_L_12_R_16.png","img/500/randomdotsize/L/13_Ratio_500_L_12_R_6.png","img/900/randomdotsize/R/7_Ratio_900_L_9_R_10.png","img/900/equaldotsize/L/1_Ratio_900_L_10_R_9.png","img/900/randomdotsize/R/7_Ratio_900_L_9_R_10.png","img/750/equaldotsize/L/8_Ratio_750_L_4_R_3.png","img/750/randomdotsizeEA/L/10_Ratio_750_L_4_R_3.png","img/900/equaldotsize/R/9_Ratio_900_L_18_R_20.png","img/500/randomdotsize/R/9_Ratio_500_L_2_R_4.png","img/750/equaldotanddens/L/6_Ratio_750_L_24_R_18.png","img/900/equaldotsize/R/13_Ratio_900_L_18_R_20.png","img/500/equaldotanddens/L/4_Ratio_500_L_18_R_9.png","img/250/equaldotanddens/L/5_Ratio_250_L_24_R_6.png","img/250/randomdotsizeEA/L/15_Ratio_250_L_12_R_3.png","img/500/equaldotanddens/L/5_Ratio_500_L_4_R_2.png","img/900/randomdotsizeEA/R/9_Ratio_900_L_18_R_20.png","img/500/equaldotsize/L/4_Ratio_500_L_18_R_9.png","img/500/randomdotsizeEA/R/15_Ratio_500_L_1_R_2.png","img/750/randomdotsizeEA/L/14_Ratio_750_L_8_R_6.png","img/250/randomdotsizeEA/R/13_Ratio_250_L_2_R_8.png","img/250/randomdotsize/R/6_Ratio_250_L_6_R_24.png","img/500/randomdotsize/L/8_Ratio_500_L_8_R_4.png","img/900/equaldotanddens/R/15_Ratio_900_L_9_R_10.png","img/250/equaldotanddens/L/2_Ratio_250_L_16_R_4.png","img/900/equaldotanddens/L/2_Ratio_900_L_20_R_18.png","img/250/randomdotsizeEA/R/8_Ratio_250_L_1_R_4.png","img/900/randomdotsizeEA/L/1_Ratio_900_L_10_R_9.png","img/250/randomdotsizeEA/R/4_Ratio_250_L_3_R_12.png","img/500/equaldotanddens/R/2_Ratio_500_L_3_R_6.png"],"Rat0":[["12_Ratio_0_L_9_R_0.png","13_Ratio_0_L_6_R_0.png","5_Ratio_0_L_2_R_0.png","6_Ratio_0_L_4_R_0.png","8_Ratio_0_L_6_R_0.png"],["1_Ratio_0_L_0_R_17.png","10_Ratio_0_L_0_R_22.png","11_Ratio_0_L_0_R_1.png","14_Ratio_0_L_0_R_24.png","15_Ratio_0_L_0_R_4.png","2_Ratio_0_L_0_R_5.png","3_Ratio_0_L_0_R_17.png","4_Ratio_0_L_0_R_7.png","7_Ratio_0_L_0_R_19.png","9_Ratio_0_L_0_R_15.png"]],"Rat250":[["1_Ratio_250_L_8_R_2.png","14_Ratio_250_L_12_R_3.png","15_Ratio_250_L_12_R_3.png","2_Ratio_250_L_16_R_4.png","3_Ratio_250_L_8_R_2.png","5_Ratio_250_L_24_R_6.png","7_Ratio_250_L_8_R_2.png"],["10_Ratio_250_L_4_R_16.png","11_Ratio_250_L_3_R_12.png","12_Ratio_250_L_5_R_20.png","13_Ratio_250_L_2_R_8.png","4_Ratio_250_L_3_R_12.png","6_Ratio_250_L_6_R_24.png","8_Ratio_250_L_1_R_4.png","9_Ratio_250_L_3_R_12.png"]],"Rat500":[["10_Ratio_500_L_4_R_2.png","11_Ratio_500_L_12_R_6.png","13_Ratio_500_L_12_R_6.png","4_Ratio_500_L_18_R_9.png","5_Ratio_500_L_4_R_2.png","7_Ratio_500_L_10_R_5.png","8_Ratio_500_L_8_R_4.png"],["1_Ratio_500_L_9_R_18.png","12_Ratio_500_L_1_R_2.png","14_Ratio_500_L_5_R_10.png","15_Ratio_500_L_1_R_2.png","2_Ratio_500_L_3_R_6.png","3_Ratio_500_L_10_R_20.png","6_Ratio_500_L_9_R_18.png","9_Ratio_500_L_2_R_4.png"]],"Rat750":[["1_Ratio_750_L_20_R_15.png","10_Ratio_750_L_4_R_3.png","13_Ratio_750_L_8_R_6.png","14_Ratio_750_L_8_R_6.png","6_Ratio_750_L_24_R_18.png","8_Ratio_750_L_4_R_3.png","9_Ratio_750_L_4_R_3.png"],["11_Ratio_750_L_12_R_16.png","12_Ratio_750_L_3_R_4.png","15_Ratio_750_L_9_R_12.png","2_Ratio_750_L_6_R_8.png","3_Ratio_750_L_15_R_20.png","4_Ratio_750_L_15_R_20.png","5_Ratio_750_L_15_R_20.png","7_Ratio_750_L_3_R_4.png"]],"Rat900":[["1_Ratio_900_L_10_R_9.png","10_Ratio_900_L_20_R_18.png","2_Ratio_900_L_20_R_18.png","4_Ratio_900_L_20_R_18.png","8_Ratio_900_L_20_R_18.png"],["11_Ratio_900_L_18_R_20.png","12_Ratio_900_L_18_R_20.png","13_Ratio_900_L_18_R_20.png","14_Ratio_900_L_18_R_20.png","15_Ratio_900_L_9_R_10.png","3_Ratio_900_L_9_R_10.png","5_Ratio_900_L_9_R_10.png","6_Ratio_900_L_9_R_10.png","7_Ratio_900_L_9_R_10.png","9_Ratio_900_L_18_R_20.png"]],"Rat1000":[["10_Ratio_1000_L_16_R_16.png","11_Ratio_1000_L_6_R_6.png","12_Ratio_1000_L_14_R_14.png","13_Ratio_1000_L_20_R_20.png","15_Ratio_1000_L_15_R_15.png","2_Ratio_1000_L_17_R_17.png","4_Ratio_1000_L_9_R_9.png","5_Ratio_1000_L_6_R_6.png","6_Ratio_1000_L_19_R_19.png","8_Ratio_1000_L_14_R_14.png","9_Ratio_1000_L_25_R_25.png"],["1_Ratio_1000_L_1_R_1.png","14_Ratio_1000_L_17_R_17.png","3_Ratio_1000_L_17_R_17.png","7_Ratio_1000_L_6_R_6.png"]]}},{"start_time":1549310360561,"click_time":1549310361312,"finger_time":1549310360948,"fix_duration":1088.8370678809067,"trial":1,"RT":387,"MT":364,"sideResp":1,"stimulus":"img/250/randomdotsize/L/15_Ratio_250_L_12_R_3.png","xmouse":[363.3333435058594,363.3333435058594,363.3333435058594,362.66668701171875,362.66668701171875,362.66668701171875,362.66668701171875,362,362,362.66668701171875,362.66668701171875,362.66668701171875,362.66668701171875,362.66668701171875,362.66668701171875,362.66668701171875,360.66668701171875,358,349.3333435058594,340.66668701171875,314.66668701171875,274,252.66668701171875,242,218.6666717529297,208,174,153.33334350585938,144,130,123.33334350585938,103.33333587646484,94,91.33333587646484,84,76,70.66667175292969],"ymouse":[845.3333740234375,845.3333740234375,845.3333740234375,844.6666870117188,844.6666870117188,844.6666870117188,844.6666870117188,844.6666870117188,844.6666870117188,844.6666870117188,844,844,844,844,844,844,831.3333740234375,822,804,788,740,654,600.6666870117188,572.6666870117188,511.3333740234375,478.66668701171875,388.66668701171875,334.66668701171875,307.3333435058594,262.66668701171875,242,188,160.6666717529297,152.6666717529297,132,110,95.33333587646484],"timestamp_mouse":[41,47,67,87,107,127,147,167,187,207,227,247,267,287,307,327,347,367,387,407,427,447,467,487,507,527,547,567,587,607,627,647,667,688,711,733,750],"xSR":350,"ySR":768,"xT1":30,"yT1":0,"xT2":670,"yT2":0,"toosoon":0,"cond_shown":"randomdotsize","ratio_trial":250,"smaller_num":"3","larger_num":"12","correct_side":1,"subjID":"16","gender":"No_gender","age":"No_age","school":"No_school"},{"start_time":1549310364050,"click_time":1549310364888,"finger_time":1549310364528,"fix_duration":1351.0266778455389,"trial":2,"RT":478,"MT":360,"sideResp":1,"stimulus":"img/250/randomdotsizeEA/R/12_Ratio_250_L_5_R_20.png","xmouse":[370.66668701171875,370.66668701171875,370.66668701171875,370.66668701171875,370.66668701171875,370.66668701171875,370.66668701171875,370.66668701171875,370.66668701171875,370.66668701171875,370.66668701171875,370.66668701171875,370.66668701171875,370.66668701171875,370.66668701171875,370.66668701171875,370.66668701171875,370.66668701171875,370.66668701171875,370.66668701171875,370.66668701171875,370.66668701171875,370.66668701171875,370.66668701171875,287.3333435058594,270.66668701171875,237.33334350585938,220.6666717529297,188,152,144.6666717529297,132.6666717529297,126.66667175292969,116,108.66667175292969,107.33333587646484,103.33333587646484,100.66667175292969,94.66667175292969,86,80.66667175292969,79.33333587646484,76.66667175292969],"ymouse":[830.6666870117188,830.6666870117188,830.6666870117188,830.6666870117188,830.6666870117188,830.6666870117188,830.6666870117188,830.6666870117188,830.6666870117188,830.6666870117188,830.6666870117188,830.6666870117188,830.6666870117188,830.6666870117188,830,830,830,830,830,830,830,830,830,830,669.3333740234375,634.6666870117188,556,512.6666870117188,430,336.66668701171875,314.66668701171875,268,243.33334350585938,202,164.6666717529297,158,146,136,126,112.66667175292969,105.33333587646484,102.66667175292969,99.33333587646484],"timestamp_mouse":[6,18,38,59,78,98,118,139,158,178,198,218,238,258,278,298,318,338,358,377,398,418,437,458,477,498,519,538,558,578,598,618,638,658,678,698,718,738,758,782,798,818,838],"xSR":350,"ySR":768,"xT1":30,"yT1":0,"xT2":670,"yT2":0,"toosoon":0,"cond_shown":"randomdotsizeEA","ratio_trial":250,"smaller_num":"5","larger_num":"20","correct_side":2,"subjID":"16","gender":"No_gender","age":"No_age","school":"No_school"},{"start_time":1549310366800,"click_time":1549310367608,"finger_time":1549310367208,"fix_duration":250,"trial":3,"RT":408,"MT":400,"sideResp":1,"stimulus":"img/500/randomdotsize/R/15_Ratio_500_L_1_R_2.png","xmouse":[374.66668701171875,374,374,374,374,374,374.66668701171875,374.66668701171875,374,374.66668701171875,374.66668701171875,374,372.66668701171875,371.3333435058594,369.3333435058594,368,366,362.66668701171875,361.3333435058594,354.66668701171875,348.66668701171875,334.66668701171875,316.66668701171875,310.66668701171875,298,292,276,250,230.6666717529297,218.6666717529297,196,183.33334350585938,148,128.6666717529297,119.33333587646484,105.33333587646484,100.66667175292969,90,86.66667175292969,85.33333587646484,81.33333587646484],"ymouse":[845.3333740234375,845.3333740234375,845.3333740234375,845.3333740234375,845.3333740234375,845.3333740234375,845.3333740234375,845.3333740234375,844.6666870117188,844.6666870117188,844.6666870117188,844,842.6666870117188,842.6666870117188,841.3333740234375,840.6666870117188,838.6666870117188,834,830.6666870117188,816.6666870117188,802.6666870117188,764.6666870117188,703.3333740234375,682,633.3333740234375,605.3333740234375,550,468.66668701171875,416,388,334.66668701171875,308.66668701171875,240.66668701171875,202,186,156.6666717529297,147.33334350585938,119.33334350585938,108.66667175292969,104.66667175292969,96.66667175292969],"timestamp_mouse":[8,30,49,68,88,108,128,148,168,188,208,228,248,267,288,308,328,349,368,388,408,428,449,468,488,508,528,548,568,587,608,628,648,668,688,708,728,748,768,788,808],"xSR":350,"ySR":768,"xT1":30,"yT1":0,"xT2":670,"yT2":0,"toosoon":0,"cond_shown":"randomdotsize","ratio_trial":500,"smaller_num":"1","larger_num":"2","correct_side":2,"subjID":"16","gender":"No_gender","age":"No_age","school":"No_school"},{"start_time":1549310369728,"click_time":1549310370508,"finger_time":1549310370148,"fix_duration":418.20737446396373,"trial":4,"RT":420,"MT":360,"sideResp":2,"stimulus":"img/900/equaldotanddens/L/1_Ratio_900_L_10_R_9.png","xmouse":[388,388,388,388,388,388,388,388,388,388,390,390,394.66668701171875,396,398.66668701171875,400,402.66668701171875,405.3333435058594,408.66668701171875,411.3333435058594,417.3333435058594,422,444,461.3333435058594,470.66668701171875,489.3333435058594,498.66668701171875,528,547.3333740234375,556.6666870117188,576.6666870117188,587.3333740234375,618.6666870117188,638,648.6666870117188,664,681.3333740234375,698.6666870117188,704,712.6666870117188],"ymouse":[850,850,850,850,850,850,850,850,850,850,847.3333740234375,847.3333740234375,842.6666870117188,840.6666870117188,837.3333740234375,834.6666870117188,828.6666870117188,816,803.3333740234375,796,778.6666870117188,766.6666870117188,717.3333740234375,683.3333740234375,664.6666870117188,624,601.3333740234375,528,476.66668701171875,454,403.3333435058594,376.66668701171875,303.3333435058594,260.66668701171875,240,202,166,121.33334350585938,109.33333587646484,86.66667175292969],"timestamp_mouse":[1,20,39,60,80,100,120,139,160,180,200,220,240,260,280,300,320,339,359,380,400,420,440,460,480,500,520,543,559,580,600,620,642,660,680,700,720,742,760,780],"xSR":350,"ySR":768,"xT1":30,"yT1":0,"xT2":670,"yT2":0,"toosoon":0,"cond_shown":"equaldotanddens","ratio_trial":900,"smaller_num":"9","larger_num":"10","correct_side":1,"subjID":"16","gender":"No_gender","age":"No_age","school":"No_school"},{"start_time":1549310372760,"click_time":1549310373628,"finger_time":1549310373208,"fix_duration":250,"trial":5,"RT":448,"MT":420,"sideResp":1,"stimulus":"img/250/equaldotsize/L/15_Ratio_250_L_12_R_3.png","xmouse":[414,414.66668701171875,415.3333435058594,416.66668701171875,416.66668701171875,416.66668701171875,416.66668701171875,416.66668701171875,416.66668701171875,416.66668701171875,416.66668701171875,416.66668701171875,416.66668701171875,420.66668701171875,420.66668701171875,420.66668701171875,416,414,410,407.3333435058594,384,376,361.3333435058594,352.66668701171875,330.66668701171875,306,298,280,268.66668701171875,243.33334350585938,208.6666717529297,198.6666717529297,182,172,152,112.66667175292969,96.66667175292969,70,58,46.66666793823242,42.66666793823242,41.333335876464844,36],"ymouse":[834.6666870117188,834.6666870117188,835.3333740234375,835.3333740234375,835.3333740234375,835.3333740234375,835.3333740234375,835.3333740234375,835.3333740234375,835.3333740234375,835.3333740234375,835.3333740234375,835.3333740234375,838,838,838,832,830,824.6666870117188,820,782,766,735.3333740234375,719.3333740234375,686,638,620.6666870117188,582.6666870117188,562,519.3333740234375,458.66668701171875,438,399.3333435058594,378,340.66668701171875,279.3333435058594,258.66668701171875,219.33334350585938,200.6666717529297,162,116,103.33333587646484,80.66667175292969],"timestamp_mouse":[30,49,68,88,108,128,148,168,188,208,228,248,268,288,308,328,348,368,388,407,429,448,468,488,508,529,548,568,588,608,628,648,668,688,708,730,748,768,788,808,830,848,868],"xSR":350,"ySR":768,"xT1":30,"yT1":0,"xT2":670,"yT2":0,"toosoon":0,"cond_shown":"equaldotsize","ratio_trial":250,"smaller_num":"3","larger_num":"12","correct_side":1,"subjID":"16","gender":"No_gender","age":"No_age","school":"No_school"},{"start_time":1549310378824,"click_time":1549310379768,"finger_time":1549310379431,"fix_duration":1194.7683886591415,"trial":6,"RT":607,"MT":337,"sideResp":1,"stimulus":"img/500/randomdotsize/L/11_Ratio_500_L_12_R_6.png","xmouse":[414.66668701171875,414.66668701171875,414,414,414,413.3333435058594,413.3333435058594,412.66668701171875,412.66668701171875,412.66668701171875,412.66668701171875,412.66668701171875,412.66668701171875,413.3333435058594,413.3333435058594,413.3333435058594,413.3333435058594,413.3333435058594,413.3333435058594,413.3333435058594,413.3333435058594,413.3333435058594,413.3333435058594,413.3333435058594,413.3333435058594,408.66668701171875,404,400,400,400,347.3333435058594,332.66668701171875,324,304.66668701171875,291.3333435058594,261.3333435058594,215.33334350585938,186,172.6666717529297,145.33334350585938,104,92,72,62,47.333335876464844,42.66666793823242,32,31.333335876464844],"ymouse":[832.6666870117188,832.6666870117188,832,832,832,832,832,832,832,832,832,832,832,832,832,831.3333740234375,831.3333740234375,831.3333740234375,831.3333740234375,831.3333740234375,831.3333740234375,831.3333740234375,831.3333740234375,831.3333740234375,831.3333740234375,821.3333740234375,815.3333740234375,809.3333740234375,809.3333740234375,809.3333740234375,728,704,690,658,640,602,543.3333740234375,497.3333740234375,473.3333435058594,420,340.66668701171875,314,262,237.33334350585938,192,172,118.66667175292969,90.66667175292969],"timestamp_mouse":[9,35,44,64,84,104,124,144,164,184,204,224,244,264,284,304,324,344,364,384,405,424,444,464,484,505,523,544,564,584,607,625,644,664,684,704,723,744,764,784,806,826,843,864,884,904,925,944],"xSR":350,"ySR":768,"xT1":30,"yT1":0,"xT2":670,"yT2":0,"toosoon":0,"cond_shown":"randomdotsize","ratio_trial":500,"smaller_num":"6","larger_num":"12","correct_side":1,"subjID":"16","gender":"No_gender","age":"No_age","school":"No_school"},{"start_time":1549310382250,"click_time":1549310383149,"finger_time":1549310382728,"fix_duration":1098.770653866288,"trial":7,"RT":478,"MT":421,"sideResp":2,"stimulus":"img/750/randomdotsizeEA/R/11_Ratio_750_L_12_R_16.png","xmouse":[389.3333435058594,389.3333435058594,389.3333435058594,389.3333435058594,389.3333435058594,389.3333435058594,389.3333435058594,389.3333435058594,389.3333435058594,389.3333435058594,389.3333435058594,392.66668701171875,392.66668701171875,392.66668701171875,392.66668701171875,392.66668701171875,392.66668701171875,392.66668701171875,392.66668701171875,392.66668701171875,392.66668701171875,400,408.66668701171875,414,422,435.3333435058594,442,459.3333435058594,470,490.66668701171875,520,530.6666870117188,550.6666870117188,572,580,598.6666870117188,627.3333740234375,634.6666870117188,650,657.3333740234375,670.6666870117188,686.6666870117188,689.3333740234375,695.3333740234375,700,707.3333740234375],"ymouse":[817.3333740234375,817.3333740234375,817.3333740234375,817.3333740234375,817.3333740234375,817.3333740234375,817.3333740234375,817.3333740234375,817.3333740234375,817.3333740234375,817.3333740234375,821.3333740234375,821.3333740234375,821.3333740234375,821.3333740234375,821.3333740234375,821.3333740234375,821.3333740234375,821.3333740234375,821.3333740234375,821.3333740234375,798,782,771.3333740234375,754,725.3333740234375,710.6666870117188,669.3333740234375,646,598,526.6666870117188,501.3333740234375,450,399.3333435058594,378,331.3333435058594,269.3333435058594,252.66668701171875,220.6666717529297,204,174,139.33334350585938,130,116.66667175292969,104.66667175292969,88.66667175292969],"timestamp_mouse":[8,32,38,58,78,98,118,138,158,178,199,218,238,258,278,300,318,338,358,378,398,419,438,458,478,499,518,538,558,578,599,617,638,658,678,698,720,738,758,778,798,817,838,857,878,899],"xSR":350,"ySR":768,"xT1":30,"yT1":0,"xT2":670,"yT2":0,"toosoon":0,"cond_shown":"randomdotsizeEA","ratio_trial":750,"smaller_num":"12","larger_num":"16","correct_side":2,"subjID":"16","gender":"No_gender","age":"No_age","school":"No_school"},{"start_time":1549310385768,"click_time":1549310386528,"finger_time":1549310386148,"fix_duration":458.3319642034702,"trial":8,"RT":380,"MT":380,"sideResp":1,"stimulus":"img/250/equaldotanddens/L/3_Ratio_250_L_8_R_2.png","xmouse":[383.3333435058594,383.3333435058594,383.3333435058594,384.66668701171875,385.3333435058594,385.3333435058594,385.3333435058594,384.66668701171875,384,383.3333435058594,383.3333435058594,384,384,384,384.66668701171875,384.66668701171875,385.3333435058594,385.3333435058594,385.3333435058594,383.3333435058594,380.66668701171875,364,350.66668701171875,343.3333435058594,322,308.66668701171875,251.33334350585938,238,218,208,188,159.33334350585938,150,132.6666717529297,124,108.66667175292969,96,93.33333587646484,92],"ymouse":[804,804,804,802.6666870117188,802,801.3333740234375,801.3333740234375,801.3333740234375,801.3333740234375,801.3333740234375,801.3333740234375,801.3333740234375,801.3333740234375,800.6666870117188,800,798,797.3333740234375,794.6666870117188,790.6666870117188,766.6666870117188,748,694,667.3333740234375,652,614,590.6666870117188,492,468,427.3333435058594,407.3333435058594,365.3333435058594,300,277.3333435058594,235.33334350585938,214.6666717529297,174,120.66667175292969,108,84],"timestamp_mouse":[6,31,40,60,80,100,120,140,160,181,200,220,240,260,280,302,321,340,360,380,400,420,440,460,480,500,520,540,560,580,600,622,640,660,680,701,720,740,760],"xSR":350,"ySR":768,"xT1":30,"yT1":0,"xT2":670,"yT2":0,"toosoon":0,"cond_shown":"equaldotanddens","ratio_trial":250,"smaller_num":"2","larger_num":"8","correct_side":1,"subjID":"16","gender":"No_gender","age":"No_age","school":"No_school"},{"start_time":1549310388766,"click_time":1549310389388,"finger_time":1549310388828,"fix_duration":1196.5823103256464,"trial":9,"RT":62,"MT":560,"sideResp":1,"stimulus":"img/750/equaldotanddens/L/6_Ratio_750_L_24_R_18.png","xmouse":[364.66668701171875,361.3333435058594,361.3333435058594,360,359.3333435058594,358.66668701171875,358.66668701171875,358.66668701171875,358.66668701171875,358,357.3333435058594,357.3333435058594,357.3333435058594,356,354,348.66668701171875,344,324,303.3333435058594,292,269.3333435058594,247.33334350585938,208.6666717529297,196.6666717529297,171.33334350585938,158.6666717529297,136,109.33333587646484,100.66667175292969,84.66667175292969,78.66667175292969,65.33333587646484],"ymouse":[787.3333740234375,773.3333740234375,773.3333740234375,764,760.6666870117188,754.6666870117188,752,744.6666870117188,739.3333740234375,736.6666870117188,728.6666870117188,710.6666870117188,699.3333740234375,670,653.3333740234375,619.3333740234375,603.3333740234375,552,514,495.3333435058594,456.66668701171875,418,354,332.66668701171875,290,268.66668701171875,228,173.33334350585938,156,126,113.33334350585938,89.33333587646484],"timestamp_mouse":[2,41,41,62,82,102,122,142,162,182,202,224,243,262,282,302,322,342,362,381,402,422,442,462,482,502,522,541,562,582,601,622],"xSR":350,"ySR":768,"xT1":30,"yT1":0,"xT2":670,"yT2":0,"toosoon":0,"cond_shown":"equaldotanddens","ratio_trial":750,"smaller_num":"18","larger_num":"24","correct_side":1,"subjID":"16","gender":"No_gender","age":"No_age","school":"No_school"},{"start_time":1549310392017,"click_time":1549310393308,"finger_time":1549310393307,"fix_duration":1388.4159382510718,"trial":10,"RT":1290,"MT":1,"sideResp":1,"stimulus":"img/500/randomdotsizeEA/L/5_Ratio_500_L_4_R_2.png","xmouse":[393.3333435058594,393.3333435058594,396.66668701171875,396.66668701171875,396.66668701171875,396.66668701171875,393.3333435058594,393.3333435058594,393.3333435058594,393.3333435058594,393.3333435058594,393.3333435058594,393.3333435058594,393.3333435058594,393.3333435058594,393.3333435058594,393.3333435058594,393.3333435058594,393.3333435058594,393.3333435058594,393.3333435058594,393.3333435058594,393.3333435058594,393.3333435058594,393.3333435058594,393.3333435058594,393.3333435058594,393.3333435058594,393.3333435058594,393.3333435058594,393.3333435058594,393.3333435058594,393.3333435058594,393.3333435058594,393.3333435058594,393.3333435058594,393.3333435058594,393.3333435058594,393.3333435058594,393.3333435058594,393.3333435058594,393.3333435058594,393.3333435058594,393.3333435058594,393.3333435058594,393.3333435058594,393.3333435058594,393.3333435058594,393.3333435058594,393.3333435058594,393.3333435058594,393.3333435058594,393.3333435058594,393.3333435058594,393.3333435058594,393.3333435058594,393.3333435058594,393.3333435058594,393.3333435058594,393.3333435058594,393.3333435058594,393.3333435058594,393.3333435058594,393.3333435058594,73],"ymouse":[806.6666870117188,806.6666870117188,806,805.3333740234375,805.3333740234375,805.3333740234375,805.3333740234375,805.3333740234375,805.3333740234375,805.3333740234375,805.3333740234375,805.3333740234375,805.3333740234375,805.3333740234375,805.3333740234375,805.3333740234375,805.3333740234375,805.3333740234375,805.3333740234375,805.3333740234375,805.3333740234375,805.3333740234375,805.3333740234375,805.3333740234375,805.3333740234375,805.3333740234375,805.3333740234375,805.3333740234375,805.3333740234375,805.3333740234375,805.3333740234375,805.3333740234375,805.3333740234375,805.3333740234375,805.3333740234375,805.3333740234375,805.3333740234375,805.3333740234375,805.3333740234375,805.3333740234375,805.3333740234375,805.3333740234375,805.3333740234375,805.3333740234375,805.3333740234375,805.3333740234375,805.3333740234375,805.3333740234375,805.3333740234375,805.3333740234375,805.3333740234375,805.3333740234375,805.3333740234375,805.3333740234375,805.3333740234375,805.3333740234375,805.3333740234375,805.3333740234375,805.3333740234375,805.3333740234375,805.3333740234375,805.3333740234375,805.3333740234375,805.3333740234375,35],"timestamp_mouse":[30,31,50,71,91,111,131,151,171,191,211,231,251,271,291,311,331,351,371,391,410,431,451,471,491,511,531,551,571,591,611,631,651,671,691,711,731,751,771,791,811,831,851,871,891,911,931,951,971,992,1011,1031,1051,1071,1091,1111,1131,1151,1171,1191,1211,1231,1251,1271,1290],"xSR":350,"ySR":768,"xT1":30,"yT1":0,"xT2":670,"yT2":0,"toosoon":0,"cond_shown":"randomdotsizeEA","ratio_trial":500,"smaller_num":"2","larger_num":"4","correct_side":1,"subjID":"16","gender":"No_gender","age":"No_age","school":"No_school"},{"start_time":1549310395180,"click_time":1549310395828,"finger_time":1549310395828,"fix_duration":710.6390923175471,"trial":11,"RT":648,"MT":0,"sideResp":2,"stimulus":"img/900/equaldotanddens/L/1_Ratio_900_L_10_R_9.png","xmouse":[418,418,418,418,418,418,418,418,418,418,418,418,418,418,418,418,418,418,418,418,418,418,418,418,418,418,418,418,418,418,418,418,703],"ymouse":[813,813,813,813,813,813,813,813,813,813,813,813,813,813,813,813,813,813,813,813,813,813,813,813,813,813,813,813,813,813,813,813,70],"timestamp_mouse":[16,44,48,68,88,108,128,148,168,188,208,228,248,268,288,308,328,348,368,388,409,428,448,468,488,508,528,548,568,587,608,628,648],"xSR":350,"ySR":768,"xT1":30,"yT1":0,"xT2":670,"yT2":0,"toosoon":0,"cond_shown":"equaldotanddens","ratio_trial":900,"smaller_num":"9","larger_num":"10","correct_side":1,"subjID":"16","gender":"No_gender","age":"No_age","school":"No_school"},{"start_time":1549310398180,"click_time":1549310398668,"finger_time":1549310398668,"fix_duration":250,"trial":12,"RT":488,"MT":0,"sideResp":1,"stimulus":"img/500/equaldotanddens/L/5_Ratio_500_L_4_R_2.png","xmouse":[389,389,389,389,389,389,389,389,389,389,389,389,389,389,389,389,389,389,389,389,389,389,389,389,89],"ymouse":[785,785,785,785,785,785,785,785,785,785,785,785,785,785,785,785,785,785,785,785,785,785,785,785,50],"timestamp_mouse":[11,39,48,68,88,108,128,148,168,188,208,228,248,268,287,308,328,348,368,389,408,428,448,467,488],"xSR":350,"ySR":768,"xT1":30,"yT1":0,"xT2":670,"yT2":0,"toosoon":0,"cond_shown":"equaldotanddens","ratio_trial":500,"smaller_num":"2","larger_num":"4","correct_side":1,"subjID":"16","gender":"No_gender","age":"No_age","school":"No_school"},{"start_time":1549310411742,"click_time":1549310412228,"finger_time":1549310412227,"fix_duration":792.248523545621,"trial":13,"RT":485,"MT":1,"sideResp":1,"stimulus":"img/500/equaldotsize/R/15_Ratio_500_L_1_R_2.png","xmouse":[405,405,405,405,405,405,405,405,405,405,405,405,405,405,405,405,405,405,405,405,405,405,405,77],"ymouse":[819,819,819,819,819,819,819,819,819,819,819,819,819,819,819,819,819,819,819,819,819,819,819,84],"timestamp_mouse":[6,48,66,86,106,126,146,166,186,206,226,246,266,286,305,326,346,366,386,406,426,446,466,485],"xSR":350,"ySR":768,"xT1":30,"yT1":0,"xT2":670,"yT2":0,"toosoon":0,"cond_shown":"equaldotsize","ratio_trial":500,"smaller_num":"1","larger_num":"2","correct_side":2,"subjID":"16","gender":"No_gender","age":"No_age","school":"No_school"},{"start_time":1549310414542,"click_time":1549310415248,"finger_time":1549310415248,"fix_duration":651.9473619643,"trial":14,"RT":706,"MT":0,"sideResp":2,"stimulus":"img/900/equaldotanddens/L/2_Ratio_900_L_20_R_18.png","xmouse":[382,382,382,382,382,382,382,382,382,382,382,382,382,382,382,382,382,382,382,382,382,382,382,382,382,382,382,382,382,382,382,382,382,382,382,769],"ymouse":[812,812,812,812,812,812,812,812,812,812,812,812,812,812,812,812,812,812,812,812,812,812,812,812,812,812,812,812,812,812,812,812,812,812,812,30],"timestamp_mouse":[6,41,46,66,86,106,126,146,166,186,206,226,246,266,286,306,326,346,366,386,406,426,446,467,486,506,526,546,566,586,606,626,646,666,686,706],"xSR":350,"ySR":768,"xT1":30,"yT1":0,"xT2":670,"yT2":0,"toosoon":0,"cond_shown":"equaldotanddens","ratio_trial":900,"smaller_num":"18","larger_num":"20","correct_side":1,"subjID":"16","gender":"No_gender","age":"No_age","school":"No_school"},{"start_time":1549310417946,"click_time":1549310418448,"finger_time":1549310418448,"fix_duration":953.7840957745756,"trial":15,"RT":502,"MT":0,"sideResp":1,"stimulus":"img/750/equaldotsize/L/9_Ratio_750_L_4_R_3.png","xmouse":[383.3333435058594,383.3333435058594,383.3333435058594,383.3333435058594,383.3333435058594,383.3333435058594,383.3333435058594,383.3333435058594,383.3333435058594,383.3333435058594,383.3333435058594,383.3333435058594,383.3333435058594,383.3333435058594,383.3333435058594,383.3333435058594,383.3333435058594,383.3333435058594,383.3333435058594,383.3333435058594,383.3333435058594,383.3333435058594,383.3333435058594,383.3333435058594,76],"ymouse":[796.6666870117188,796.6666870117188,796.6666870117188,796.6666870117188,796.6666870117188,796.6666870117188,796.6666870117188,796.6666870117188,796.6666870117188,796.6666870117188,796.6666870117188,796.6666870117188,796.6666870117188,796.6666870117188,796.6666870117188,796.6666870117188,796.6666870117188,796.6666870117188,796.6666870117188,796.6666870117188,796.6666870117188,796.6666870117188,796.6666870117188,796.6666870117188,57],"timestamp_mouse":[2,43,62,82,102,122,142,162,182,202,222,242,262,282,302,322,342,362,382,402,422,442,462,481,502],"xSR":350,"ySR":768,"xT1":30,"yT1":0,"xT2":670,"yT2":0,"toosoon":0,"cond_shown":"equaldotsize","ratio_trial":750,"smaller_num":"3","larger_num":"4","correct_side":1,"subjID":"16","gender":"No_gender","age":"No_age","school":"No_school"},{"start_time":1549310420452,"click_time":1549310420888,"finger_time":1549310420888,"fix_duration":602.5958389799683,"trial":16,"RT":436,"MT":0,"sideResp":1,"stimulus":"img/500/randomdotsizeEA/R/3_Ratio_500_L_10_R_20.png","xmouse":[368,368,368,368,368,368,368,368,368,368,368,368,368,368,368,368,368,368,368,368,368,124],"ymouse":[815,815,815,815,815,815,815,815,815,815,815,815,815,815,815,815,815,815,815,815,815,45],"timestamp_mouse":[16,45,56,76,96,116,136,156,176,196,216,236,256,276,296,316,336,356,376,396,415,435],"xSR":350,"ySR":768,"xT1":30,"yT1":0,"xT2":670,"yT2":0,"toosoon":0,"cond_shown":"randomdotsizeEA","ratio_trial":500,"smaller_num":"10","larger_num":"20","correct_side":2,"subjID":"16","gender":"No_gender","age":"No_age","school":"No_school"},{"start_time":1549310423004,"click_time":1549310423429,"finger_time":1549310423428,"fix_duration":894.5127860895012,"trial":17,"RT":424,"MT":1,"sideResp":2,"stimulus":"img/500/randomdotsize/R/9_Ratio_500_L_2_R_4.png","xmouse":[394,394,394,394,394,394,394,394,394,394,394,394,394,394,394,394,394,394,394,394,394,729],"ymouse":[854,854,854,854,854,854,854,854,854,854,854,854,854,854,854,854,854,854,854,854,854,79],"timestamp_mouse":[4,25,49,64,84,104,124,144,164,184,204,224,244,264,284,304,324,344,364,384,404,424],"xSR":350,"ySR":768,"xT1":30,"yT1":0,"xT2":670,"yT2":0,"toosoon":0,"cond_shown":"randomdotsize","ratio_trial":500,"smaller_num":"2","larger_num":"4","correct_side":2,"subjID":"16","gender":"No_gender","age":"No_age","school":"No_school"},{"start_time":1549310425065,"click_time":1549310425568,"finger_time":1549310425567,"fix_duration":495.23730918940066,"trial":18,"RT":502,"MT":1,"sideResp":1,"stimulus":"img/500/randomdotsizeEA/R/12_Ratio_500_L_1_R_2.png","xmouse":[408,408,408,408,408,408,408,408,408,408,408,408,408,408,408,408,408,408,408,408,408,408,408,408,408,91],"ymouse":[842,842,842,842,842,842,842,842,842,842,842,842,842,842,842,842,842,842,842,842,842,842,842,842,842,80],"timestamp_mouse":[3,39,43,63,83,103,123,143,163,182,203,223,243,263,283,303,323,343,363,383,403,423,443,463,483,502],"xSR":350,"ySR":768,"xT1":30,"yT1":0,"xT2":670,"yT2":0,"toosoon":0,"cond_shown":"randomdotsizeEA","ratio_trial":500,"smaller_num":"1","larger_num":"2","correct_side":2,"subjID":"16","gender":"No_gender","age":"No_age","school":"No_school"},{"start_time":1549310427560,"click_time":1549310428388,"finger_time":1549310428388,"fix_duration":250,"trial":19,"RT":828,"MT":0,"sideResp":2,"stimulus":"img/250/equaldotanddens/R/4_Ratio_250_L_3_R_12.png","xmouse":[406.66668701171875,406.66668701171875,406.66668701171875,406.66668701171875,406.66668701171875,406.66668701171875,406.66668701171875,406.66668701171875,406.66668701171875,406.66668701171875,406.66668701171875,406.66668701171875,406.66668701171875,406.66668701171875,406.66668701171875,406.66668701171875,406.66668701171875,406.66668701171875,406.66668701171875,406.66668701171875,406.66668701171875,406.66668701171875,406.66668701171875,406.66668701171875,406.66668701171875,406.66668701171875,406.66668701171875,406.66668701171875,406.66668701171875,406.66668701171875,406.66668701171875,406.66668701171875,406.66668701171875,406.66668701171875,406.66668701171875,406.66668701171875,406.66668701171875,406.66668701171875,406.66668701171875,406.66668701171875,719],"ymouse":[816,816,816,816,816,816,816,816,816,816,816,816,816,816,816,816,816,816,816,816,816,816,816,816,816,816,816,816,816,816,816,816,816,816,816,816,816,816,816,816,77],"timestamp_mouse":[32,48,68,88,108,128,148,168,188,208,229,248,268,288,308,328,348,368,388,410,428,448,468,488,508,528,548,568,588,608,628,648,668,688,708,728,748,768,788,808,828],"xSR":350,"ySR":768,"xT1":30,"yT1":0,"xT2":670,"yT2":0,"toosoon":0,"cond_shown":"equaldotanddens","ratio_trial":250,"smaller_num":"3","larger_num":"12","correct_side":2,"subjID":"16","gender":"No_gender","age":"No_age","school":"No_school"},{"start_time":1549310429785,"click_time":1549310430448,"finger_time":1549310430448,"fix_duration":354.64444259066653,"trial":20,"RT":663,"MT":0,"sideResp":2,"stimulus":"img/750/randomdotsizeEA/L/8_Ratio_750_L_4_R_3.png","xmouse":[434,434,434,434,434,434,434,434,434,434,434,434,434,434,434,434,434,434,434,434,434,434,434,434,434,434,434,434,434,434,434,434,686],"ymouse":[853,853,853,853,853,853,853,853,853,853,853,853,853,853,853,853,853,853,853,853,853,853,853,853,853,853,853,853,853,853,853,853,35],"timestamp_mouse":[3,45,63,83,103,124,143,163,183,203,223,243,263,283,303,323,343,363,383,405,423,443,463,483,503,523,543,563,583,603,622,643,663],"xSR":350,"ySR":768,"xT1":30,"yT1":0,"xT2":670,"yT2":0,"toosoon":0,"cond_shown":"randomdotsizeEA","ratio_trial":750,"smaller_num":"3","larger_num":"4","correct_side":1,"subjID":"16","gender":"No_gender","age":"No_age","school":"No_school"},{"start_time":1549310432593,"click_time":1549310432908,"finger_time":1549310432908,"fix_duration":442.50177790917144,"trial":21,"RT":315,"MT":0,"sideResp":2,"stimulus":"img/900/equaldotanddens/L/1_Ratio_900_L_10_R_9.png","xmouse":[397,397,397,397,397,397,397,397,397,397,397,397,397,397,751],"ymouse":[789,789,789,789,789,789,789,789,789,789,789,789,789,789,27],"timestamp_mouse":[52,55,75,95,115,135,155,175,195,215,234,255,274,295,315],"xSR":350,"ySR":768,"xT1":30,"yT1":0,"xT2":670,"yT2":0,"toosoon":0,"cond_shown":"equaldotanddens","ratio_trial":900,"smaller_num":"9","larger_num":"10","correct_side":1,"subjID":"16","gender":"No_gender","age":"No_age","school":"No_school"},{"start_time":1549310433981,"click_time":1549310434388,"finger_time":1549310434388,"fix_duration":250,"trial":22,"RT":407,"MT":0,"sideResp":1,"stimulus":"img/500/equaldotsize/L/4_Ratio_500_L_18_R_9.png","xmouse":[389,389,389,389,389,389,389,389,389,389,389,389,389,389,389,389,389,389,389,389,67],"ymouse":[785,785,785,785,785,785,785,785,785,785,785,785,785,785,785,785,785,785,785,785,46],"timestamp_mouse":[15,40,48,67,87,107,127,147,167,187,207,227,247,267,287,307,327,347,367,387,407],"xSR":350,"ySR":768,"xT1":30,"yT1":0,"xT2":670,"yT2":0,"toosoon":0,"cond_shown":"equaldotsize","ratio_trial":500,"smaller_num":"9","larger_num":"18","correct_side":1,"subjID":"16","gender":"No_gender","age":"No_age","school":"No_school"},{"start_time":1549310435379,"click_time":1549310435789,"finger_time":1549310435788,"fix_duration":250,"trial":23,"RT":409,"MT":1,"sideResp":2,"stimulus":"img/750/randomdotsize/L/1_Ratio_750_L_20_R_15.png","xmouse":[395.3333435058594,395.3333435058594,395.3333435058594,395.3333435058594,395.3333435058594,395.3333435058594,395.3333435058594,395.3333435058594,395.3333435058594,395.3333435058594,395.3333435058594,395.3333435058594,395.3333435058594,395.3333435058594,395.3333435058594,395.3333435058594,395.3333435058594,395.3333435058594,395.3333435058594,395.3333435058594,741],"ymouse":[818,818,818,818,818,818,818,818,818,818,818,818,818,818,818,818,818,818,818,818,59],"timestamp_mouse":[13,35,49,69,89,109,129,149,169,189,209,229,249,269,289,309,329,349,369,389,408],"xSR":350,"ySR":768,"xT1":30,"yT1":0,"xT2":670,"yT2":0,"toosoon":0,"cond_shown":"randomdotsize","ratio_trial":750,"smaller_num":"15","larger_num":"20","correct_side":1,"subjID":"16","gender":"No_gender","age":"No_age","school":"No_school"},{"start_time":1549310437579,"click_time":1549310437988,"finger_time":1549310437988,"fix_duration":1069.3029041876582,"trial":24,"RT":409,"MT":0,"sideResp":1,"stimulus":"img/250/randomdotsize/L/1_Ratio_250_L_8_R_2.png","xmouse":[367,367,367,367,367,367,367,367,367,367,367,367,367,367,367,367,367,367,367,367,63],"ymouse":[791,791,791,791,791,791,791,791,791,791,791,791,791,791,791,791,791,791,791,791,39],"timestamp_mouse":[16,39,49,69,88,109,129,149,169,190,209,229,249,269,289,309,329,349,369,389,409],"xSR":350,"ySR":768,"xT1":30,"yT1":0,"xT2":670,"yT2":0,"toosoon":0,"cond_shown":"randomdotsize","ratio_trial":250,"smaller_num":"2","larger_num":"8","correct_side":1,"subjID":"16","gender":"No_gender","age":"No_age","school":"No_school"},{"start_time":1549310440150,"click_time":1549310440428,"finger_time":1549310440428,"fix_duration":1380.4578632463258,"trial":25,"RT":278,"MT":0,"sideResp":1,"stimulus":"img/750/randomdotsizeEA/L/13_Ratio_750_L_8_R_6.png","xmouse":[418.66668701171875,418.66668701171875,418.66668701171875,418.66668701171875,418.66668701171875,418.66668701171875,418.66668701171875,418.66668701171875,418.66668701171875,418.66668701171875,418.66668701171875,418.66668701171875,91],"ymouse":[823.3333740234375,823.3333740234375,823.3333740234375,823.3333740234375,823.3333740234375,823.3333740234375,823.3333740234375,823.3333740234375,823.3333740234375,823.3333740234375,823.3333740234375,823.3333740234375,24],"timestamp_mouse":[45,58,78,98,118,138,158,178,198,217,238,258,278],"xSR":350,"ySR":768,"xT1":30,"yT1":0,"xT2":670,"yT2":0,"toosoon":0,"cond_shown":"randomdotsizeEA","ratio_trial":750,"smaller_num":"6","larger_num":"8","correct_side":1,"subjID":"16","gender":"No_gender","age":"No_age","school":"No_school"},{"start_time":1549310441636,"click_time":1549310442008,"finger_time":1549310442008,"fix_duration":405.7538650304566,"trial":26,"RT":372,"MT":0,"sideResp":2,"stimulus":"img/500/randomdotsizeEA/R/6_Ratio_500_L_9_R_18.png","xmouse":[369.3333435058594,369.3333435058594,369.3333435058594,369.3333435058594,369.3333435058594,369.3333435058594,369.3333435058594,369.3333435058594,369.3333435058594,369.3333435058594,369.3333435058594,369.3333435058594,369.3333435058594,369.3333435058594,369.3333435058594,369.3333435058594,369.3333435058594,369.3333435058594,768],"ymouse":[824.6666870117188,824.6666870117188,824.6666870117188,824.6666870117188,824.6666870117188,824.6666870117188,824.6666870117188,824.6666870117188,824.6666870117188,824.6666870117188,824.6666870117188,824.6666870117188,824.6666870117188,824.6666870117188,824.6666870117188,824.6666870117188,824.6666870117188,824.6666870117188,33],"timestamp_mouse":[15,43,52,72,92,112,132,152,172,192,212,232,252,272,292,312,332,352,372],"xSR":350,"ySR":768,"xT1":30,"yT1":0,"xT2":670,"yT2":0,"toosoon":0,"cond_shown":"randomdotsizeEA","ratio_trial":500,"smaller_num":"9","larger_num":"18","correct_side":2,"subjID":"16","gender":"No_gender","age":"No_age","school":"No_school"},{"start_time":1549310444187,"click_time":1549310444628,"finger_time":1549310444628,"fix_duration":1216.2319772011542,"trial":27,"RT":441,"MT":0,"sideResp":1,"stimulus":"img/900/randomdotsizeEA/L/2_Ratio_900_L_20_R_18.png","xmouse":[405,405,405,405,405,405,405,405,405,405,405,405,405,405,405,405,405,405,405,405,405,82],"ymouse":[803,803,803,803,803,803,803,803,803,803,803,803,803,803,803,803,803,803,803,803,803,59.333335876464844],"timestamp_mouse":[2,46,61,81,101,121,141,161,181,201,221,241,261,281,301,321,341,361,380,402,421,441],"xSR":350,"ySR":768,"xT1":30,"yT1":0,"xT2":670,"yT2":0,"toosoon":0,"cond_shown":"randomdotsizeEA","ratio_trial":900,"smaller_num":"18","larger_num":"20","correct_side":1,"subjID":"16","gender":"No_gender","age":"No_age","school":"No_school"},{"start_time":1549310446470,"click_time":1549310446928,"finger_time":1549310446928,"fix_duration":1000.1692762826415,"trial":28,"RT":458,"MT":0,"sideResp":1,"stimulus":"img/250/randomdotsize/R/8_Ratio_250_L_1_R_4.png","xmouse":[420.66668701171875,420.66668701171875,420.66668701171875,420.66668701171875,420.66668701171875,420.66668701171875,420.66668701171875,420.66668701171875,420.66668701171875,420.66668701171875,420.66668701171875,420.66668701171875,420.66668701171875,420.66668701171875,420.66668701171875,420.66668701171875,420.66668701171875,420.66668701171875,420.66668701171875,420.66668701171875,420.66668701171875,420.66668701171875,51],"ymouse":[826.6666870117188,826.6666870117188,826.6666870117188,826.6666870117188,826.6666870117188,826.6666870117188,826.6666870117188,826.6666870117188,826.6666870117188,826.6666870117188,826.6666870117188,826.6666870117188,826.6666870117188,826.6666870117188,826.6666870117188,826.6666870117188,826.6666870117188,826.6666870117188,826.6666870117188,826.6666870117188,826.6666870117188,826.6666870117188,83],"timestamp_mouse":[19,40,58,78,99,118,138,158,178,198,218,238,258,278,298,318,337,358,378,398,418,438,458],"xSR":350,"ySR":768,"xT1":30,"yT1":0,"xT2":670,"yT2":0,"toosoon":0,"cond_shown":"randomdotsize","ratio_trial":250,"smaller_num":"1","larger_num":"4","correct_side":2,"subjID":"16","gender":"No_gender","age":"No_age","school":"No_school"},{"start_time":1549310448828,"click_time":1549310449368,"finger_time":1549310449368,"fix_duration":457.3596037811646,"trial":29,"RT":540,"MT":0,"sideResp":1,"stimulus":"img/750/equaldotanddens/R/3_Ratio_750_L_15_R_20.png","xmouse":[385,385,385,385,385,385,385,385,385,385,385,385,385,385,385,385,385,385,385,385,385,385,385,385,385,385,97],"ymouse":[813,813,813,813,813,813,813,813,813,813,813,813,813,813,813,813,813,813,813,813,813,813,813,813,813,813,28],"timestamp_mouse":[1,43,60,80,100,120,140,160,180,200,220,240,260,280,300,320,340,360,380,400,420,440,460,480,500,520,540],"xSR":350,"ySR":768,"xT1":30,"yT1":0,"xT2":670,"yT2":0,"toosoon":0,"cond_shown":"equaldotanddens","ratio_trial":750,"smaller_num":"15","larger_num":"20","correct_side":2,"subjID":"16","gender":"No_gender","age":"No_age","school":"No_school"},{"start_time":1549310450752,"click_time":1549310451168,"finger_time":1549310451168,"fix_duration":501.92720674463055,"trial":30,"RT":416,"MT":0,"sideResp":2,"stimulus":"img/750/randomdotsize/R/2_Ratio_750_L_6_R_8.png","xmouse":[401.3333435058594,401.3333435058594,401.3333435058594,401.3333435058594,401.3333435058594,401.3333435058594,401.3333435058594,401.3333435058594,401.3333435058594,401.3333435058594,401.3333435058594,401.3333435058594,401.3333435058594,401.3333435058594,401.3333435058594,401.3333435058594,401.3333435058594,401.3333435058594,401.3333435058594,711],"ymouse":[792,792,792,792,792,792,792,792,792,792,792,792,792,792,792,792,792,792,792,43],"timestamp_mouse":[39,56,76,96,116,136,156,176,196,216,236,256,276,296,316,336,356,376,396,416],"xSR":350,"ySR":768,"xT1":30,"yT1":0,"xT2":670,"yT2":0,"toosoon":0,"cond_shown":"randomdotsize","ratio_trial":750,"smaller_num":"6","larger_num":"8","correct_side":2,"subjID":"16","gender":"No_gender","age":"No_age","school":"No_school"},{"start_time":1549310452440,"click_time":1549310452848,"finger_time":1549310452848,"fix_duration":490.3023187676209,"trial":31,"RT":408,"MT":0,"sideResp":1,"stimulus":"img/500/equaldotanddens/L/8_Ratio_500_L_8_R_4.png","xmouse":[397.3333435058594,397.3333435058594,397.3333435058594,397.3333435058594,397.3333435058594,397.3333435058594,397.3333435058594,397.3333435058594,397.3333435058594,397.3333435058594,397.3333435058594,397.3333435058594,397.3333435058594,397.3333435058594,397.3333435058594,397.3333435058594,397.3333435058594,397.3333435058594,397.3333435058594,397.3333435058594,55],"ymouse":[780.6666870117188,780.6666870117188,780.6666870117188,780.6666870117188,780.6666870117188,780.6666870117188,780.6666870117188,780.6666870117188,780.6666870117188,780.6666870117188,780.6666870117188,780.6666870117188,780.6666870117188,780.6666870117188,780.6666870117188,780.6666870117188,780.6666870117188,780.6666870117188,780.6666870117188,780.6666870117188,40],"timestamp_mouse":[15,46,48,68,88,109,128,148,168,188,208,228,249,268,288,308,328,348,368,387,408],"xSR":350,"ySR":768,"xT1":30,"yT1":0,"xT2":670,"yT2":0,"toosoon":0,"cond_shown":"equaldotanddens","ratio_trial":500,"smaller_num":"4","larger_num":"8","correct_side":1,"subjID":"16","gender":"No_gender","age":"No_age","school":"No_school"},{"start_time":1549310454075,"click_time":1549310454509,"finger_time":1549310454508,"fix_duration":365.2251836904744,"trial":32,"RT":433,"MT":1,"sideResp":2,"stimulus":"img/900/equaldotsize/L/1_Ratio_900_L_10_R_9.png","xmouse":[446,446,446,446,446,446,446,446,446,446,446,446,446,446,446,446,446,446,446,446,446,678],"ymouse":[856.6666870117188,856.6666870117188,856.6666870117188,856.6666870117188,856.6666870117188,856.6666870117188,856.6666870117188,856.6666870117188,856.6666870117188,856.6666870117188,856.6666870117188,856.6666870117188,856.6666870117188,856.6666870117188,856.6666870117188,856.6666870117188,856.6666870117188,856.6666870117188,856.6666870117188,856.6666870117188,856.6666870117188,25],"timestamp_mouse":[12,39,54,73,93,113,133,153,173,193,213,233,253,273,293,313,333,353,373,392,413,433],"xSR":350,"ySR":768,"xT1":30,"yT1":0,"xT2":670,"yT2":0,"toosoon":0,"cond_shown":"equaldotsize","ratio_trial":900,"smaller_num":"9","larger_num":"10","correct_side":1,"subjID":"16","gender":"No_gender","age":"No_age","school":"No_school"},{"start_time":1549310456083,"click_time":1549310456588,"finger_time":1549310456587,"fix_duration":633.508353383194,"trial":33,"RT":504,"MT":1,"sideResp":1,"stimulus":"img/900/equaldotsize/R/5_Ratio_900_L_9_R_10.png","xmouse":[403.3333435058594,403.3333435058594,403.3333435058594,403.3333435058594,403.3333435058594,403.3333435058594,403.3333435058594,403.3333435058594,403.3333435058594,403.3333435058594,403.3333435058594,403.3333435058594,403.3333435058594,403.3333435058594,403.3333435058594,403.3333435058594,403.3333435058594,403.3333435058594,403.3333435058594,403.3333435058594,403.3333435058594,403.3333435058594,403.3333435058594,403.3333435058594,403.3333435058594,50],"ymouse":[774,774,774,774,774,774,774,774,774,774,774,774,774,774,774,774,774,774,774,774,774,774,774,774,774,65],"timestamp_mouse":[5,37,45,65,85,105,125,145,165,185,205,225,245,265,285,305,325,345,365,385,405,425,444,465,485,504],"xSR":350,"ySR":768,"xT1":30,"yT1":0,"xT2":670,"yT2":0,"toosoon":0,"cond_shown":"equaldotsize","ratio_trial":900,"smaller_num":"9","larger_num":"10","correct_side":2,"subjID":"16","gender":"No_gender","age":"No_age","school":"No_school"},{"start_time":1549310459484,"click_time":1549310459888,"finger_time":1549310459888,"fix_duration":1053.9092109255225,"trial":34,"RT":404,"MT":0,"sideResp":2,"stimulus":"img/900/randomdotsize/R/12_Ratio_900_L_18_R_20.png","xmouse":[392,392,392,392,392,392,392,392,392,392,392,392,392,392,392,392,392,392,392,392,734],"ymouse":[820,820,820,820,820,820,820,820,820,820,820,820,820,820,820,820,820,820,820,820,59],"timestamp_mouse":[4,43,44,64,84,104,124,144,164,184,204,224,244,264,284,304,324,344,364,384,404],"xSR":350,"ySR":768,"xT1":30,"yT1":0,"xT2":670,"yT2":0,"toosoon":0,"cond_shown":"randomdotsize","ratio_trial":900,"smaller_num":"18","larger_num":"20","correct_side":2,"subjID":"16","gender":"No_gender","age":"No_age","school":"No_school"},{"start_time":1549310461989,"click_time":1549310462408,"finger_time":1549310462408,"fix_duration":859.538203973166,"trial":35,"RT":419,"MT":0,"sideResp":1,"stimulus":"img/750/randomdotsizeEA/R/12_Ratio_750_L_3_R_4.png","xmouse":[403,403,403,403,403,403,403,403,403,403,403,403,403,403,403,403,403,403,403,403,403,55],"ymouse":[793,793,793,793,793,793,793,793,793,793,793,793,793,793,793,793,793,793,793,793,793,41],"timestamp_mouse":[3,20,44,59,79,100,119,139,159,179,199,219,239,259,279,299,319,339,359,379,399,419],"xSR":350,"ySR":768,"xT1":30,"yT1":0,"xT2":670,"yT2":0,"toosoon":0,"cond_shown":"randomdotsizeEA","ratio_trial":750,"smaller_num":"3","larger_num":"4","correct_side":2,"subjID":"16","gender":"No_gender","age":"No_age","school":"No_school"},{"start_time":1549310463567,"click_time":1549310464008,"finger_time":1549310464008,"fix_duration":297.56056334702,"trial":36,"RT":441,"MT":0,"sideResp":2,"stimulus":"img/250/equaldotsize/L/1_Ratio_250_L_8_R_2.png","xmouse":[403,403,403,403,403,403,403,403,403,403,403,403,403,403,403,403,403,403,403,403,403,403,723],"ymouse":[811,811,811,811,811,811,811,811,811,811,811,811,811,811,811,811,811,811,811,811,811,811,56],"timestamp_mouse":[2,38,41,61,81,101,121,141,161,181,201,221,241,261,281,301,321,341,360,381,401,421,441],"xSR":350,"ySR":768,"xT1":30,"yT1":0,"xT2":670,"yT2":0,"toosoon":0,"cond_shown":"equaldotsize","ratio_trial":250,"smaller_num":"2","larger_num":"8","correct_side":1,"subjID":"16","gender":"No_gender","age":"No_age","school":"No_school"},{"start_time":1549310466425,"click_time":1549310466828,"finger_time":1549310466828,"fix_duration":655.1471785295332,"trial":37,"RT":403,"MT":0,"sideResp":1,"stimulus":"img/750/equaldotanddens/R/3_Ratio_750_L_15_R_20.png","xmouse":[374,374,374,374,374,374,374,374,374,374,374,374,374,374,374,374,374,374,374,79],"ymouse":[819,819,819,819,819,819,819,819,819,819,819,819,819,819,819,819,819,819,819,50],"timestamp_mouse":[3,44,63,83,103,123,143,163,183,203,223,243,262,283,303,322,343,363,383,403],"xSR":350,"ySR":768,"xT1":30,"yT1":0,"xT2":670,"yT2":0,"toosoon":0,"cond_shown":"equaldotanddens","ratio_trial":750,"smaller_num":"15","larger_num":"20","correct_side":2,"subjID":"16","gender":"No_gender","age":"No_age","school":"No_school"},{"start_time":1549310469011,"click_time":1549310469348,"finger_time":1549310469348,"fix_duration":1461.41200605227,"trial":38,"RT":337,"MT":0,"sideResp":1,"stimulus":"img/250/equaldotsize/R/13_Ratio_250_L_2_R_8.png","xmouse":[442,442,442,442,442,442,442,442,442,442,442,442,442,442,442,442,65],"ymouse":[802,802,802,802,802,802,802,802,802,802,802,802,802,802,802,802,47],"timestamp_mouse":[18,44,57,77,97,117,137,157,177,197,217,236,257,277,297,317,337],"xSR":350,"ySR":768,"xT1":30,"yT1":0,"xT2":670,"yT2":0,"toosoon":0,"cond_shown":"equaldotsize","ratio_trial":250,"smaller_num":"2","larger_num":"8","correct_side":2,"subjID":"16","gender":"No_gender","age":"No_age","school":"No_school"},{"start_time":1549310470700,"click_time":1549310471168,"finger_time":1549310471168,"fix_duration":630.9705607720937,"trial":39,"RT":468,"MT":0,"sideResp":1,"stimulus":"img/750/equaldotsize/L/6_Ratio_750_L_24_R_18.png","xmouse":[410,410,410,410,410,410,410,410,410,410,410,410,410,410,410,410,410,410,410,410,410,410,410,78.66667175292969],"ymouse":[860,860,860,860,860,860,860,860,860,860,860,860,860,860,860,860,860,860,860,860,860,860,860,74],"timestamp_mouse":[9,44,48,68,88,108,128,148,168,188,208,228,248,268,288,309,328,348,368,388,408,428,447,468],"xSR":350,"ySR":768,"xT1":30,"yT1":0,"xT2":670,"yT2":0,"toosoon":0,"cond_shown":"equaldotsize","ratio_trial":750,"smaller_num":"18","larger_num":"24","correct_side":1,"subjID":"16","gender":"No_gender","age":"No_age","school":"No_school"},{"start_time":1549310472149,"click_time":1549310472608,"finger_time":1549310472608,"fix_duration":280.2778300106208,"trial":40,"RT":459,"MT":0,"sideResp":1,"stimulus":"img/250/randomdotsize/R/9_Ratio_250_L_3_R_12.png","xmouse":[425.3333435058594,425.3333435058594,425.3333435058594,425.3333435058594,425.3333435058594,425.3333435058594,425.3333435058594,425.3333435058594,425.3333435058594,425.3333435058594,425.3333435058594,425.3333435058594,425.3333435058594,425.3333435058594,425.3333435058594,425.3333435058594,425.3333435058594,425.3333435058594,425.3333435058594,425.3333435058594,425.3333435058594,425.3333435058594,113],"ymouse":[836.6666870117188,836.6666870117188,836.6666870117188,836.6666870117188,836.6666870117188,836.6666870117188,836.6666870117188,836.6666870117188,836.6666870117188,836.6666870117188,836.6666870117188,836.6666870117188,836.6666870117188,836.6666870117188,836.6666870117188,836.6666870117188,836.6666870117188,836.6666870117188,836.6666870117188,836.6666870117188,836.6666870117188,836.6666870117188,27],"timestamp_mouse":[19,39,59,79,99,119,139,159,179,199,219,239,259,279,299,318,339,359,379,399,418,439,459],"xSR":350,"ySR":768,"xT1":30,"yT1":0,"xT2":670,"yT2":0,"toosoon":0,"cond_shown":"randomdotsize","ratio_trial":250,"smaller_num":"3","larger_num":"12","correct_side":2,"subjID":"16","gender":"No_gender","age":"No_age","school":"No_school"},{"start_time":1549310474775,"click_time":1549310475368,"finger_time":1549310475368,"fix_duration":1443.2317907690265,"trial":41,"RT":593,"MT":0,"sideResp":1,"stimulus":"img/750/randomdotsize/R/5_Ratio_750_L_15_R_20.png","xmouse":[444.66668701171875,444.66668701171875,444.66668701171875,444.66668701171875,444.66668701171875,444.66668701171875,444.66668701171875,444.66668701171875,444.66668701171875,444.66668701171875,444.66668701171875,444.66668701171875,444.66668701171875,444.66668701171875,444.66668701171875,444.66668701171875,444.66668701171875,444.66668701171875,444.66668701171875,444.66668701171875,444.66668701171875,444.66668701171875,444.66668701171875,444.66668701171875,444.66668701171875,444.66668701171875,444.66668701171875,444.66668701171875,94],"ymouse":[770,770,770,770,770,770,770,770,770,770,770,770,770,770,770,770,770,770,770,770,770,770,770,770,770,770,770,770,49],"timestamp_mouse":[43,53,73,93,113,133,153,173,193,213,233,253,273,293,313,333,353,373,393,413,433,453,473,493,513,533,553,573,593],"xSR":350,"ySR":768,"xT1":30,"yT1":0,"xT2":670,"yT2":0,"toosoon":0,"cond_shown":"randomdotsize","ratio_trial":750,"smaller_num":"15","larger_num":"20","correct_side":2,"subjID":"16","gender":"No_gender","age":"No_age","school":"No_school"},{"start_time":1549310478347,"click_time":1549310478968,"finger_time":1549310478648,"fix_duration":1095.0729712265709,"trial":42,"RT":301,"MT":320,"sideResp":1,"stimulus":"img/750/equaldotanddens/R/5_Ratio_750_L_15_R_20.png","xmouse":[370.66668701171875,369.3333435058594,369.3333435058594,368,368,368,368,368.66668701171875,368.66668701171875,368.66668701171875,368.66668701171875,368.66668701171875,368.66668701171875,368.66668701171875,366,363.3333435058594,363.3333435058594,363.3333435058594,334,316,283.3333435058594,271.3333435058594,246.6666717529297,234,209.33334350585938,173.33334350585938,161.33334350585938,138,127.33334350585938,106.66667175292969,84,72.66667175292969],"ymouse":[792,790.6666870117188,790.6666870117188,790,789.3333740234375,788.6666870117188,788.6666870117188,788,786.6666870117188,786.6666870117188,786.6666870117188,786.6666870117188,786.6666870117188,786.6666870117188,771.3333740234375,761.3333740234375,761.3333740234375,761.3333740234375,656.6666870117188,611.3333740234375,529.3333740234375,498.66668701171875,438.66668701171875,411.3333435058594,356.66668701171875,280.66668701171875,255.33334350585938,213.33334350585938,191.33334350585938,152.6666717529297,108,86],"timestamp_mouse":[1,31,41,61,81,103,121,141,161,181,200,221,241,261,282,301,321,341,361,381,402,421,441,461,481,501,521,541,561,581,601,621],"xSR":350,"ySR":768,"xT1":30,"yT1":0,"xT2":670,"yT2":0,"toosoon":0,"cond_shown":"equaldotanddens","ratio_trial":750,"smaller_num":"15","larger_num":"20","correct_side":2,"subjID":"16","gender":"No_gender","age":"No_age","school":"No_school"},{"start_time":1549310497005,"click_time":1549310497428,"finger_time":1549310497428,"fix_duration":1235.4338853603524,"trial":43,"RT":423,"MT":0,"sideResp":1,"stimulus":"img/750/equaldotanddens/R/11_Ratio_750_L_12_R_16.png","xmouse":[388,388,388,388,388,388,388,388,388,388,388,388,388,388,388,388,388,388,388,388,50],"ymouse":[825,825,825,825,825,825,825,825,825,825,825,825,825,825,825,825,825,825,825,825,25],"timestamp_mouse":[3,44,63,83,103,123,143,163,183,203,223,243,263,283,303,323,343,362,383,403,423],"xSR":350,"ySR":768,"xT1":30,"yT1":0,"xT2":670,"yT2":0,"toosoon":0,"cond_shown":"equaldotanddens","ratio_trial":750,"smaller_num":"12","larger_num":"16","correct_side":2,"subjID":"16","gender":"No_gender","age":"No_age","school":"No_school"},{"start_time":1549310500321,"click_time":1549310500788,"finger_time":1549310500788,"fix_duration":250,"trial":44,"RT":467,"MT":0,"sideResp":1,"stimulus":"img/900/equaldotanddens/R/12_Ratio_900_L_18_R_20.png","xmouse":[406,406,406,406,406,406,406,406,406,406,406,406,406,406,406,406,406,406,406,406,406,406,406,96],"ymouse":[804,804,804,804,804,804,804,804,804,804,804,804,804,804,804,804,804,804,804,804,804,804,804,30],"timestamp_mouse":[8,41,47,67,87,107,127,147,166,187,207,227,247,267,287,307,327,347,367,387,406,427,447,467],"xSR":350,"ySR":768,"xT1":30,"yT1":0,"xT2":670,"yT2":0,"toosoon":0,"cond_shown":"equaldotanddens","ratio_trial":900,"smaller_num":"18","larger_num":"20","correct_side":2,"subjID":"16","gender":"No_gender","age":"No_age","school":"No_school"},{"start_time":1549310502527,"click_time":1549310502828,"finger_time":1549310502828,"fix_duration":857.5112773929027,"trial":45,"RT":301,"MT":0,"sideResp":1,"stimulus":"img/900/randomdotsizeEA/L/4_Ratio_900_L_20_R_18.png","xmouse":[393,393,393,393,393,393,393,393,393,393,393,393,393,393,43],"ymouse":[832,832,832,832,832,832,832,832,832,832,832,832,832,832,33],"timestamp_mouse":[2,42,61,81,101,121,141,161,181,201,222,241,261,281,301],"xSR":350,"ySR":768,"xT1":30,"yT1":0,"xT2":670,"yT2":0,"toosoon":0,"cond_shown":"randomdotsizeEA","ratio_trial":900,"smaller_num":"18","larger_num":"20","correct_side":1,"subjID":"16","gender":"No_gender","age":"No_age","school":"No_school"},{"start_time":1549310503840,"click_time":1549310504268,"finger_time":1549310504268,"fix_duration":250,"trial":46,"RT":428,"MT":0,"sideResp":1,"stimulus":"img/900/randomdotsizeEA/R/5_Ratio_900_L_9_R_10.png","xmouse":[374,374,374,374,374,374,374,374,374,374,374,374,374,374,374,374,374,374,374,374,374,92],"ymouse":[848,848,848,848,848,848,848,848,848,848,848,848,848,848,848,848,848,848,848,848,848,52.66667175292969],"timestamp_mouse":[10,32,48,68,88,108,128,148,168,188,208,228,248,268,288,308,328,348,368,388,408,428],"xSR":350,"ySR":768,"xT1":30,"yT1":0,"xT2":670,"yT2":0,"toosoon":0,"cond_shown":"randomdotsizeEA","ratio_trial":900,"smaller_num":"9","larger_num":"10","correct_side":2,"subjID":"16","gender":"No_gender","age":"No_age","school":"No_school"},{"start_time":1549310505436,"click_time":1549310505888,"finger_time":1549310505888,"fix_duration":266.1845004140443,"trial":47,"RT":452,"MT":0,"sideResp":1,"stimulus":"img/900/randomdotsize/R/3_Ratio_900_L_9_R_10.png","xmouse":[396,396,396,396,396,396,396,396,396,396,396,396,396,396,396,396,396,396,396,396,396,396,79],"ymouse":[775,775,775,775,775,775,775,775,775,775,775,775,775,775,775,775,775,775,775,775,775,775,81],"timestamp_mouse":[15,44,52,72,92,112,132,152,172,192,212,232,252,272,292,312,332,352,373,392,411,432,452],"xSR":350,"ySR":768,"xT1":30,"yT1":0,"xT2":670,"yT2":0,"toosoon":0,"cond_shown":"randomdotsize","ratio_trial":900,"smaller_num":"9","larger_num":"10","correct_side":2,"subjID":"16","gender":"No_gender","age":"No_age","school":"No_school"},{"start_time":1549310506900,"click_time":1549310507348,"finger_time":1549310507348,"fix_duration":250,"trial":48,"RT":448,"MT":0,"sideResp":1,"stimulus":"img/750/randomdotsize/R/12_Ratio_750_L_3_R_4.png","xmouse":[382,382,382,382,382,382,382,382,382,382,382,382,382,382,382,382,382,382,382,382,382,382,84],"ymouse":[803.3333740234375,803.3333740234375,803.3333740234375,803.3333740234375,803.3333740234375,803.3333740234375,803.3333740234375,803.3333740234375,803.3333740234375,803.3333740234375,803.3333740234375,803.3333740234375,803.3333740234375,803.3333740234375,803.3333740234375,803.3333740234375,803.3333740234375,803.3333740234375,803.3333740234375,803.3333740234375,803.3333740234375,803.3333740234375,67],"timestamp_mouse":[10,28,48,68,88,109,129,148,168,188,208,228,247,268,288,308,328,348,368,388,408,428,448],"xSR":350,"ySR":768,"xT1":30,"yT1":0,"xT2":670,"yT2":0,"toosoon":0,"cond_shown":"randomdotsize","ratio_trial":750,"smaller_num":"3","larger_num":"4","correct_side":2,"subjID":"16","gender":"No_gender","age":"No_age","school":"No_school"},{"start_time":1549310509566,"click_time":1549310510068,"finger_time":1549310510068,"fix_duration":1396.1216099757817,"trial":49,"RT":502,"MT":0,"sideResp":1,"stimulus":"img/900/equaldotanddens/R/7_Ratio_900_L_9_R_10.png","xmouse":[405,405,405,405,405,405,405,405,405,405,405,405,405,405,405,405,405,405,405,405,405,405,405,405,405,61],"ymouse":[822,822,822,822,822,822,822,822,822,822,822,822,822,822,822,822,822,822,822,822,822,822,822,822,822,42],"timestamp_mouse":[2,41,41,62,82,102,122,142,162,182,202,222,242,261,282,302,321,342,362,382,402,422,443,462,482,502],"xSR":350,"ySR":768,"xT1":30,"yT1":0,"xT2":670,"yT2":0,"toosoon":0,"cond_shown":"equaldotanddens","ratio_trial":900,"smaller_num":"9","larger_num":"10","correct_side":2,"subjID":"16","gender":"No_gender","age":"No_age","school":"No_school"},{"start_time":1549310518880,"click_time":1549310519328,"finger_time":1549310519328,"fix_duration":1391.1775455272086,"trial":50,"RT":448,"MT":0,"sideResp":1,"stimulus":"img/900/randomdotsize/L/2_Ratio_900_L_20_R_18.png","xmouse":[407,407,407,407,407,407,407,407,407,407,407,407,407,407,407,407,407,407,407,407,407,407,68],"ymouse":[807,807,807,807,807,807,807,807,807,807,807,807,807,807,807,807,807,807,807,807,807,807,53],"timestamp_mouse":[8,44,48,68,88,108,128,148,168,188,208,228,248,267,288,308,328,348,368,388,407,427,448],"xSR":350,"ySR":768,"xT1":30,"yT1":0,"xT2":670,"yT2":0,"toosoon":0,"cond_shown":"randomdotsize","ratio_trial":900,"smaller_num":"18","larger_num":"20","correct_side":1,"subjID":"16","gender":"No_gender","age":"No_age","school":"No_school"},{"start_time":1549310520580,"click_time":1549310520970,"finger_time":1549310520969,"fix_duration":570.8667866869285,"trial":51,"RT":389,"MT":1,"sideResp":1,"stimulus":"img/750/randomdotsize/R/12_Ratio_750_L_3_R_4.png","xmouse":[377,377,377,377,377,377,377,377,377,377,377,377,377,377,377,377,377,377,377,97],"ymouse":[848,848,848,848,848,848,848,848,848,848,848,848,848,848,848,848,848,848,848,39],"timestamp_mouse":[16,40,48,68,88,108,128,148,168,188,207,228,248,268,287,308,328,348,368,389],"xSR":350,"ySR":768,"xT1":30,"yT1":0,"xT2":670,"yT2":0,"toosoon":0,"cond_shown":"randomdotsize","ratio_trial":750,"smaller_num":"3","larger_num":"4","correct_side":2,"subjID":"16","gender":"No_gender","age":"No_age","school":"No_school"},{"start_time":1549310522898,"click_time":1549310523308,"finger_time":1549310523308,"fix_duration":1208.1711606358601,"trial":52,"RT":410,"MT":0,"sideResp":1,"stimulus":"img/250/randomdotsizeEA/L/2_Ratio_250_L_16_R_4.png","xmouse":[393,393,393,393,393,393,393,393,393,393,393,393,393,393,393,393,393,393,393,80],"ymouse":[825,825,825,825,825,825,825,825,825,825,825,825,825,825,825,825,825,825,825,35],"timestamp_mouse":[39,50,70,90,110,130,150,169,190,210,230,250,270,290,310,330,349,370,390,410],"xSR":350,"ySR":768,"xT1":30,"yT1":0,"xT2":670,"yT2":0,"toosoon":0,"cond_shown":"randomdotsizeEA","ratio_trial":250,"smaller_num":"4","larger_num":"16","correct_side":1,"subjID":"16","gender":"No_gender","age":"No_age","school":"No_school"},{"start_time":1549310524252,"click_time":1549310525708,"finger_time":1549310524747,"fix_duration":262.969450547076,"trial":53,"RT":495,"MT":961,"sideResp":1,"stimulus":"img/250/randomdotsize/R/11_Ratio_250_L_3_R_12.png","xmouse":[404,404,404,404,404,404,404,404,404,404,404,404,404,404,404,404,404,404,404,404,404,404,404,131,131,131,131,131,131,131,131,131,131,131,131,131,131,131,131,131,131,131,131,131,131,131,131,131,131,131,131,131,131,131,131,131,131,131,131,131,131,131,131,131,131,131,131,131,131,131,131,65],"ymouse":[797,797,797,797,797,797,797,797,797,797,797,797,797,797,797,797,797,797,797,797,797,797,797,88,88,88,88,88,88,88,88,88,88,88,88,88,88,88,88,88,88,88,88,88,88,88,88,88,88,88,88,88,88,88,88,88,88,88,88,88,88,88,88,88,88,88,88,88,88,88,88,33],"timestamp_mouse":[42,56,76,96,116,136,156,176,196,216,236,256,276,296,317,336,356,376,396,416,436,456,476,495,516,536,556,576,596,616,636,656,676,696,715,736,756,776,796,816,836,856,876,897,916,936,956,976,996,1016,1036,1056,1076,1096,1116,1136,1156,1176,1196,1216,1236,1257,1276,1296,1316,1336,1356,1376,1396,1416,1435,1456],"xSR":350,"ySR":768,"xT1":30,"yT1":0,"xT2":670,"yT2":0,"toosoon":0,"cond_shown":"randomdotsize","ratio_trial":250,"smaller_num":"3","larger_num":"12","correct_side":2,"subjID":"16","gender":"No_gender","age":"No_age","school":"No_school"},{"start_time":1549310527585,"click_time":1549310527989,"finger_time":1549310527989,"fix_duration":875.7630083430493,"trial":54,"RT":404,"MT":0,"sideResp":1,"stimulus":"img/750/equaldotsize/R/4_Ratio_750_L_15_R_20.png","xmouse":[415,415,415,415,415,415,415,415,415,415,415,415,415,415,415,415,415,415,415,73],"ymouse":[785,785,785,785,785,785,785,785,785,785,785,785,785,785,785,785,785,785,785,25],"timestamp_mouse":[3,43,63,83,103,123,143,163,183,203,223,243,263,283,303,323,343,363,383,404],"xSR":350,"ySR":768,"xT1":30,"yT1":0,"xT2":670,"yT2":0,"toosoon":0,"cond_shown":"equaldotsize","ratio_trial":750,"smaller_num":"15","larger_num":"20","correct_side":2,"subjID":"16","gender":"No_gender","age":"No_age","school":"No_school"},{"start_time":1549310530234,"click_time":1549310530628,"finger_time":1549310530628,"fix_duration":1384.4319240800596,"trial":55,"RT":394,"MT":0,"sideResp":1,"stimulus":"img/250/randomdotsize/L/2_Ratio_250_L_16_R_4.png","xmouse":[417,417,417,417,417,417,417,417,417,417,417,417,417,417,417,417,417,417,417,95],"ymouse":[795,795,795,795,795,795,795,795,795,795,795,795,795,795,795,795,795,795,795,71],"timestamp_mouse":[14,45,54,74,94,114,134,153,174,194,214,234,254,274,294,314,334,354,374,394],"xSR":350,"ySR":768,"xT1":30,"yT1":0,"xT2":670,"yT2":0,"toosoon":0,"cond_shown":"randomdotsize","ratio_trial":250,"smaller_num":"4","larger_num":"16","correct_side":1,"subjID":"16","gender":"No_gender","age":"No_age","school":"No_school"},{"start_time":1549310532410,"click_time":1549310532828,"finger_time":1549310532828,"fix_duration":979.1506906002231,"trial":56,"RT":418,"MT":0,"sideResp":1,"stimulus":"img/250/equaldotanddens/R/6_Ratio_250_L_6_R_24.png","xmouse":[414.66668701171875,414.66668701171875,414.66668701171875,414.66668701171875,414.66668701171875,414.66668701171875,414.66668701171875,414.66668701171875,414.66668701171875,414.66668701171875,414.66668701171875,414.66668701171875,414.66668701171875,414.66668701171875,414.66668701171875,414.66668701171875,414.66668701171875,414.66668701171875,414.66668701171875,414.66668701171875,73],"ymouse":[856,856,856,856,856,856,856,856,856,856,856,856,856,856,856,856,856,856,856,856,51],"timestamp_mouse":[1,39,58,78,98,118,138,158,178,197,217,238,258,278,298,318,338,358,378,397,418],"xSR":350,"ySR":768,"xT1":30,"yT1":0,"xT2":670,"yT2":0,"toosoon":0,"cond_shown":"equaldotanddens","ratio_trial":250,"smaller_num":"6","larger_num":"24","correct_side":2,"subjID":"16","gender":"No_gender","age":"No_age","school":"No_school"},{"start_time":1549310534682,"click_time":1549310535128,"finger_time":1549310535128,"fix_duration":1092.1567081797527,"trial":57,"RT":446,"MT":0,"sideResp":1,"stimulus":"img/500/equaldotsize/L/4_Ratio_500_L_18_R_9.png","xmouse":[411,411,411,411,411,411,411,411,411,411,411,411,411,411,411,411,411,411,411,411,411,411,74],"ymouse":[861,861,861,861,861,861,861,861,861,861,861,861,861,861,861,861,861,861,861,861,861,861,22],"timestamp_mouse":[7,41,46,66,85,106,126,146,166,186,206,226,246,266,286,306,326,346,366,386,406,426,446],"xSR":350,"ySR":768,"xT1":30,"yT1":0,"xT2":670,"yT2":0,"toosoon":0,"cond_shown":"equaldotsize","ratio_trial":500,"smaller_num":"9","larger_num":"18","correct_side":1,"subjID":"16","gender":"No_gender","age":"No_age","school":"No_school"},{"start_time":1549310536476,"click_time":1549310536888,"finger_time":1549310536888,"fix_duration":566.5760128658592,"trial":58,"RT":412,"MT":0,"sideResp":1,"stimulus":"img/900/randomdotsizeEA/R/14_Ratio_900_L_18_R_20.png","xmouse":[405,405,405,405,405,405,405,405,405,405,405,405,405,405,405,405,405,405,405,405,95],"ymouse":[827,827,827,827,827,827,827,827,827,827,827,827,827,827,827,827,827,827,827,827,59],"timestamp_mouse":[15,41,52,72,92,112,132,152,172,192,212,232,252,272,291,312,332,351,372,391,412],"xSR":350,"ySR":768,"xT1":30,"yT1":0,"xT2":670,"yT2":0,"toosoon":0,"cond_shown":"randomdotsizeEA","ratio_trial":900,"smaller_num":"18","larger_num":"20","correct_side":2,"subjID":"16","gender":"No_gender","age":"No_age","school":"No_school"},{"start_time":1549310537860,"click_time":1549310538488,"finger_time":1549310538488,"fix_duration":250,"trial":59,"RT":628,"MT":0,"sideResp":1,"stimulus":"img/750/equaldotsize/R/7_Ratio_750_L_3_R_4.png","xmouse":[394,394,394,394,394,394,394,394,394,394,394,394,394,394,394,394,394,394,394,394,394,394,394,394,394,394,394,394,394,394,394,97],"ymouse":[813.3333740234375,813.3333740234375,813.3333740234375,813.3333740234375,813.3333740234375,813.3333740234375,813.3333740234375,813.3333740234375,813.3333740234375,813.3333740234375,813.3333740234375,813.3333740234375,813.3333740234375,813.3333740234375,813.3333740234375,813.3333740234375,813.3333740234375,813.3333740234375,813.3333740234375,813.3333740234375,813.3333740234375,813.3333740234375,813.3333740234375,813.3333740234375,813.3333740234375,813.3333740234375,813.3333740234375,813.3333740234375,813.3333740234375,813.3333740234375,813.3333740234375,35],"timestamp_mouse":[11,37,48,68,88,108,128,148,168,188,208,228,248,268,288,308,328,348,368,388,408,429,448,468,488,508,528,548,568,588,608,628],"xSR":350,"ySR":768,"xT1":30,"yT1":0,"xT2":670,"yT2":0,"toosoon":0,"cond_shown":"equaldotsize","ratio_trial":750,"smaller_num":"3","larger_num":"4","correct_side":2,"subjID":"16","gender":"No_gender","age":"No_age","school":"No_school"},{"start_time":1549310540615,"click_time":1549310540968,"finger_time":1549310540968,"fix_duration":1404.6067525528154,"trial":60,"RT":353,"MT":0,"sideResp":1,"stimulus":"img/250/randomdotsize/R/4_Ratio_250_L_3_R_12.png","xmouse":[420,420,420,420,420,420,420,420,420,420,420,420,420,420,420,420,420,81],"ymouse":[831,831,831,831,831,831,831,831,831,831,831,831,831,831,831,831,831,70],"timestamp_mouse":[13,41,53,73,93,113,133,153,173,193,213,233,253,273,292,313,333,353],"xSR":350,"ySR":768,"xT1":30,"yT1":0,"xT2":670,"yT2":0,"toosoon":0,"cond_shown":"randomdotsize","ratio_trial":250,"smaller_num":"3","larger_num":"12","correct_side":2,"subjID":"16","gender":"No_gender","age":"No_age","school":"No_school"},{"start_time":1549310542200,"click_time":1549310542628,"finger_time":1549310542628,"fix_duration":470.37246205951624,"trial":61,"RT":428,"MT":0,"sideResp":1,"stimulus":"img/500/equaldotsize/R/3_Ratio_500_L_10_R_20.png","xmouse":[379,379,379,379,379,379,379,379,379,379,379,379,379,379,379,379,379,379,379,379,379,76],"ymouse":[819,819,819,819,819,819,819,819,819,819,819,819,819,819,819,819,819,819,819,819,819,46],"timestamp_mouse":[10,44,48,68,88,108,128,148,168,188,208,228,248,268,288,308,328,348,368,388,408,428],"xSR":350,"ySR":768,"xT1":30,"yT1":0,"xT2":670,"yT2":0,"toosoon":0,"cond_shown":"equaldotsize","ratio_trial":500,"smaller_num":"10","larger_num":"20","correct_side":2,"subjID":"16","gender":"No_gender","age":"No_age","school":"No_school"},{"start_time":1549310544247,"click_time":1549310544568,"finger_time":1549310544568,"fix_duration":477.1644331432796,"trial":62,"RT":321,"MT":0,"sideResp":1,"stimulus":"img/900/randomdotsize/R/3_Ratio_900_L_9_R_10.png","xmouse":[413.3333435058594,413.3333435058594,413.3333435058594,413.3333435058594,413.3333435058594,413.3333435058594,413.3333435058594,413.3333435058594,413.3333435058594,413.3333435058594,413.3333435058594,413.3333435058594,413.3333435058594,413.3333435058594,413.3333435058594,413.3333435058594,79],"ymouse":[830,830,830,830,830,830,830,830,830,830,830,830,830,830,830,830,31],"timestamp_mouse":[8,35,40,61,81,101,120,141,161,181,201,221,241,261,281,301,321],"xSR":350,"ySR":768,"xT1":30,"yT1":0,"xT2":670,"yT2":0,"toosoon":0,"cond_shown":"randomdotsize","ratio_trial":900,"smaller_num":"9","larger_num":"10","correct_side":2,"subjID":"16","gender":"No_gender","age":"No_age","school":"No_school"},{"start_time":1549310545539,"click_time":1549310545648,"finger_time":1549310545648,"fix_duration":250,"trial":63,"RT":109,"MT":0,"sideResp":1,"stimulus":"img/250/equaldotsize/R/4_Ratio_250_L_3_R_12.png","xmouse":[393.3333435058594,393.3333435058594,393.3333435058594,393.3333435058594,393.3333435058594,69],"ymouse":[803.3333740234375,803.3333740234375,803.3333740234375,803.3333740234375,803.3333740234375,27],"timestamp_mouse":[9,29,49,69,89,109],"xSR":350,"ySR":768,"xT1":30,"yT1":0,"xT2":670,"yT2":0,"toosoon":0,"cond_shown":"equaldotsize","ratio_trial":250,"smaller_num":"3","larger_num":"12","correct_side":2,"subjID":"16","gender":"No_gender","age":"No_age","school":"No_school"},{"start_time":1549310550738,"click_time":1549310551168,"finger_time":1549310551168,"fix_duration":1415.5881362924843,"trial":64,"RT":430,"MT":0,"sideResp":1,"stimulus":"img/750/equaldotanddens/L/10_Ratio_750_L_4_R_3.png","xmouse":[429,429,429,429,429,429,429,429,429,429,429,429,429,429,429,429,429,429,429,429,429,429,61],"ymouse":[800,800,800,800,800,800,800,800,800,800,800,800,800,800,800,800,800,800,800,800,800,800,55],"timestamp_mouse":[9,22,37,50,70,90,110,130,150,170,190,210,230,250,270,290,310,330,350,370,390,410,430],"xSR":350,"ySR":768,"xT1":30,"yT1":0,"xT2":670,"yT2":0,"toosoon":0,"cond_shown":"equaldotanddens","ratio_trial":750,"smaller_num":"3","larger_num":"4","correct_side":1,"subjID":"16","gender":"No_gender","age":"No_age","school":"No_school"},{"start_time":1549310552180,"click_time":1549310552768,"finger_time":1549310552767,"fix_duration":250,"trial":65,"RT":587,"MT":1,"sideResp":1,"stimulus":"img/750/equaldotanddens/L/9_Ratio_750_L_4_R_3.png","xmouse":[399,399,399,399,399,399,399,399,399,399,399,399,399,399,399,399,399,399,399,399,399,399,399,399,399,399,399,399,399,107],"ymouse":[797,797,797,797,797,797,797,797,797,797,797,797,797,797,797,797,797,797,797,797,797,797,797,797,797,797,797,797,797,67],"timestamp_mouse":[8,45,48,68,88,109,128,148,168,188,208,228,248,268,288,308,328,348,369,388,408,428,448,468,488,508,528,548,568,587],"xSR":350,"ySR":768,"xT1":30,"yT1":0,"xT2":670,"yT2":0,"toosoon":0,"cond_shown":"equaldotanddens","ratio_trial":750,"smaller_num":"3","larger_num":"4","correct_side":1,"subjID":"16","gender":"No_gender","age":"No_age","school":"No_school"},{"start_time":1549310555001,"click_time":1549310555448,"finger_time":1549310555448,"fix_duration":1471.768512265804,"trial":66,"RT":447,"MT":0,"sideResp":1,"stimulus":"img/500/randomdotsize/R/14_Ratio_500_L_5_R_10.png","xmouse":[418,418,418,418,418,418,418,418,418,418,418,418,418,418,418,418,418,418,418,418,418,418,80],"ymouse":[815,815,815,815,815,815,815,815,815,815,815,815,815,815,815,815,815,815,815,815,815,815,60],"timestamp_mouse":[7,41,47,67,87,107,127,147,167,187,207,227,247,267,287,307,327,347,368,387,407,427,447],"xSR":350,"ySR":768,"xT1":30,"yT1":0,"xT2":670,"yT2":0,"toosoon":0,"cond_shown":"randomdotsize","ratio_trial":500,"smaller_num":"5","larger_num":"10","correct_side":2,"subjID":"16","gender":"No_gender","age":"No_age","school":"No_school"},{"start_time":1549310557166,"click_time":1549310557628,"finger_time":1549310557628,"fix_duration":942.6111100611162,"trial":67,"RT":462,"MT":0,"sideResp":1,"stimulus":"img/900/randomdotsizeEA/R/6_Ratio_900_L_9_R_10.png","xmouse":[403.3333435058594,403.3333435058594,403.3333435058594,403.3333435058594,403.3333435058594,403.3333435058594,403.3333435058594,403.3333435058594,403.3333435058594,403.3333435058594,403.3333435058594,403.3333435058594,403.3333435058594,403.3333435058594,403.3333435058594,403.3333435058594,403.3333435058594,403.3333435058594,403.3333435058594,403.3333435058594,403.3333435058594,403.3333435058594,403.3333435058594,56],"ymouse":[826,826,826,826,826,826,826,826,826,826,826,826,826,826,826,826,826,826,826,826,826,826,826,13],"timestamp_mouse":[2,39,42,62,82,102,122,142,162,182,202,222,242,262,282,302,322,342,362,382,402,422,442,462],"xSR":350,"ySR":768,"xT1":30,"yT1":0,"xT2":670,"yT2":0,"toosoon":0,"cond_shown":"randomdotsizeEA","ratio_trial":900,"smaller_num":"9","larger_num":"10","correct_side":2,"subjID":"16","gender":"No_gender","age":"No_age","school":"No_school"},{"start_time":1549310558834,"click_time":1549310559468,"finger_time":1549310559468,"fix_duration":302.86274327682906,"trial":68,"RT":634,"MT":0,"sideResp":1,"stimulus":"img/900/randomdotsize/R/12_Ratio_900_L_18_R_20.png","xmouse":[391,391,391,391,391,391,391,391,391,391,391,391,391,391,391,391,391,391,391,391,391,391,391,391,391,391,391,391,391,391,391,110.66667175292969],"ymouse":[821,821,821,821,821,821,821,821,821,821,821,821,821,821,821,821,821,821,821,821,821,821,821,821,821,821,821,821,821,821,821,57.333335876464844],"timestamp_mouse":[15,46,54,74,94,114,134,154,174,194,214,234,254,274,294,314,334,354,374,394,414,435,454,474,494,514,534,554,573,594,614,634],"xSR":350,"ySR":768,"xT1":30,"yT1":0,"xT2":670,"yT2":0,"toosoon":0,"cond_shown":"randomdotsize","ratio_trial":900,"smaller_num":"18","larger_num":"20","correct_side":2,"subjID":"16","gender":"No_gender","age":"No_age","school":"No_school"},{"start_time":1549310560840,"click_time":1549310561309,"finger_time":1549310561308,"fix_duration":250,"trial":69,"RT":468,"MT":1,"sideResp":1,"stimulus":"img/500/equaldotanddens/L/8_Ratio_500_L_8_R_4.png","xmouse":[413,413,413,413,413,413,413,413,413,413,413,413,413,413,413,413,413,413,413,413,413,413,413,95.33333587646484],"ymouse":[841,841,841,841,841,841,841,841,841,841,841,841,841,841,841,841,841,841,841,841,841,841,841,53.333335876464844],"timestamp_mouse":[16,44,48,68,88,108,128,148,168,188,208,228,248,268,288,308,328,348,368,388,408,428,448,468],"xSR":350,"ySR":768,"xT1":30,"yT1":0,"xT2":670,"yT2":0,"toosoon":0,"cond_shown":"equaldotanddens","ratio_trial":500,"smaller_num":"4","larger_num":"8","correct_side":1,"subjID":"16","gender":"No_gender","age":"No_age","school":"No_school"},{"start_time":1549310563008,"click_time":1549310563368,"finger_time":1549310563368,"fix_duration":991.2766473991104,"trial":70,"RT":360,"MT":0,"sideResp":1,"stimulus":"img/500/randomdotsize/R/6_Ratio_500_L_9_R_18.png","xmouse":[414,414,414,414,414,414,414,414,414,414,414,414,414,414,414,414,414,75],"ymouse":[844,844,844,844,844,844,844,844,844,844,844,844,844,844,844,844,844,83],"timestamp_mouse":[5,41,60,80,100,120,140,160,180,200,220,240,260,280,300,320,340,360],"xSR":350,"ySR":768,"xT1":30,"yT1":0,"xT2":670,"yT2":0,"toosoon":0,"cond_shown":"randomdotsize","ratio_trial":500,"smaller_num":"9","larger_num":"18","correct_side":2,"subjID":"16","gender":"No_gender","age":"No_age","school":"No_school"},{"start_time":1549310564996,"click_time":1549310565488,"finger_time":1549310565488,"fix_duration":746.5764471010459,"trial":71,"RT":492,"MT":0,"sideResp":1,"stimulus":"img/250/randomdotsize/L/7_Ratio_250_L_8_R_2.png","xmouse":[399,399,399,399,399,399,399,399,399,399,399,399,399,399,399,399,399,399,399,399,399,399,399,399,105],"ymouse":[830,830,830,830,830,830,830,830,830,830,830,830,830,830,830,830,830,830,830,830,830,830,830,830,63],"timestamp_mouse":[16,42,52,72,92,112,132,152,172,191,212,232,252,272,292,312,332,352,372,392,412,432,452,472,492],"xSR":350,"ySR":768,"xT1":30,"yT1":0,"xT2":670,"yT2":0,"toosoon":0,"cond_shown":"randomdotsize","ratio_trial":250,"smaller_num":"2","larger_num":"8","correct_side":1,"subjID":"16","gender":"No_gender","age":"No_age","school":"No_school"},{"start_time":1549310566711,"click_time":1549310567189,"finger_time":1549310567188,"fix_duration":380.90954836357815,"trial":72,"RT":477,"MT":1,"sideResp":1,"stimulus":"img/250/equaldotsize/L/15_Ratio_250_L_12_R_3.png","xmouse":[376,376,376,376,376,376,376,376,376,376,376,376,376,376,376,376,376,376,376,376,376,376,376,95],"ymouse":[805,805,805,805,805,805,805,805,805,805,805,805,805,805,805,805,805,805,805,805,805,805,805,43],"timestamp_mouse":[17,44,57,77,97,117,137,157,177,197,217,237,257,277,297,317,337,357,377,397,417,437,456,477],"xSR":350,"ySR":768,"xT1":30,"yT1":0,"xT2":670,"yT2":0,"toosoon":0,"cond_shown":"equaldotsize","ratio_trial":250,"smaller_num":"3","larger_num":"12","correct_side":1,"subjID":"16","gender":"No_gender","age":"No_age","school":"No_school"},{"start_time":1549310568307,"click_time":1549310568829,"finger_time":1549310568829,"fix_duration":250,"trial":73,"RT":522,"MT":0,"sideResp":1,"stimulus":"img/500/equaldotanddens/L/10_Ratio_500_L_4_R_2.png","xmouse":[406,406,406,406,406,406,406,406,406,406,406,406,406,406,406,406,406,406,406,406,406,406,406,406,406,89],"ymouse":[825,825,825,825,825,825,825,825,825,825,825,825,825,825,825,825,825,825,825,825,825,825,825,825,825,79],"timestamp_mouse":[2,44,61,81,101,121,141,161,181,201,221,241,261,281,300,321,342,361,381,401,422,442,461,481,501,522],"xSR":350,"ySR":768,"xT1":30,"yT1":0,"xT2":670,"yT2":0,"toosoon":0,"cond_shown":"equaldotanddens","ratio_trial":500,"smaller_num":"2","larger_num":"4","correct_side":1,"subjID":"16","gender":"No_gender","age":"No_age","school":"No_school"},{"start_time":1549310570648,"click_time":1549310571068,"finger_time":1549310571068,"fix_duration":898.3928611718517,"trial":74,"RT":420,"MT":0,"sideResp":1,"stimulus":"img/900/randomdotsize/R/6_Ratio_900_L_9_R_10.png","xmouse":[407,407,407,407,407,407,407,407,407,407,407,407,407,407,407,407,407,407,407,407,407,88],"ymouse":[829,829,829,829,829,829,829,829,829,829,829,829,829,829,829,829,829,829,829,829,829,75],"timestamp_mouse":[2,21,44,60,80,100,120,140,159,180,200,220,240,260,280,300,319,340,360,380,400,420],"xSR":350,"ySR":768,"xT1":30,"yT1":0,"xT2":670,"yT2":0,"toosoon":0,"cond_shown":"randomdotsize","ratio_trial":900,"smaller_num":"9","larger_num":"10","correct_side":2,"subjID":"16","gender":"No_gender","age":"No_age","school":"No_school"},{"start_time":1549310572913,"click_time":1549310573308,"finger_time":1549310573308,"fix_duration":1023.0341662161072,"trial":75,"RT":395,"MT":0,"sideResp":2,"stimulus":"img/250/randomdotsizeEA/L/14_Ratio_250_L_12_R_3.png","xmouse":[424,424,424,424,424,424,424,424,424,424,424,424,424,424,424,424,424,424,738],"ymouse":[819,819,819,819,819,819,819,819,819,819,819,819,819,819,819,819,819,819,43],"timestamp_mouse":[42,55,75,95,115,135,155,175,195,215,235,255,275,295,315,335,355,375,395],"xSR":350,"ySR":768,"xT1":30,"yT1":0,"xT2":670,"yT2":0,"toosoon":0,"cond_shown":"randomdotsizeEA","ratio_trial":250,"smaller_num":"3","larger_num":"12","correct_side":1,"subjID":"16","gender":"No_gender","age":"No_age","school":"No_school"},{"start_time":1549310575715,"click_time":1549310576108,"finger_time":1549310576108,"fix_duration":1371.0077022920057,"trial":76,"RT":393,"MT":0,"sideResp":1,"stimulus":"img/250/equaldotanddens/R/6_Ratio_250_L_6_R_24.png","xmouse":[374.66668701171875,374.66668701171875,374.66668701171875,374.66668701171875,374.66668701171875,374.66668701171875,374.66668701171875,374.66668701171875,374.66668701171875,374.66668701171875,374.66668701171875,374.66668701171875,374.66668701171875,374.66668701171875,374.66668701171875,374.66668701171875,374.66668701171875,374.66668701171875,374.66668701171875,374.66668701171875,81.33333587646484],"ymouse":[805.3333740234375,805.3333740234375,805.3333740234375,805.3333740234375,805.3333740234375,805.3333740234375,805.3333740234375,805.3333740234375,805.3333740234375,805.3333740234375,805.3333740234375,805.3333740234375,805.3333740234375,805.3333740234375,805.3333740234375,805.3333740234375,805.3333740234375,805.3333740234375,805.3333740234375,805.3333740234375,64.66667175292969],"timestamp_mouse":[8,20,37,53,73,93,113,133,153,173,192,213,233,253,273,293,313,333,353,373,393],"xSR":350,"ySR":768,"xT1":30,"yT1":0,"xT2":670,"yT2":0,"toosoon":0,"cond_shown":"equaldotanddens","ratio_trial":250,"smaller_num":"6","larger_num":"24","correct_side":2,"subjID":"16","gender":"No_gender","age":"No_age","school":"No_school"},{"start_time":1549310577922,"click_time":1549310578348,"finger_time":1549310578348,"fix_duration":652.7559195664007,"trial":77,"RT":426,"MT":0,"sideResp":2,"stimulus":"img/750/randomdotsize/L/14_Ratio_750_L_8_R_6.png","xmouse":[386,386,386,386,386,386,386,386,386,386,386,386,386,386,386,386,386,386,386,386,386,708],"ymouse":[823,823,823,823,823,823,823,823,823,823,823,823,823,823,823,823,823,823,823,823,823,45],"timestamp_mouse":[12,45,47,66,87,106,126,146,166,186,206,226,246,266,286,306,326,346,366,386,407,425],"xSR":350,"ySR":768,"xT1":30,"yT1":0,"xT2":670,"yT2":0,"toosoon":0,"cond_shown":"randomdotsize","ratio_trial":750,"smaller_num":"6","larger_num":"8","correct_side":1,"subjID":"16","gender":"No_gender","age":"No_age","school":"No_school"},{"start_time":1549310580611,"click_time":1549310580908,"finger_time":1549310580908,"fix_duration":1201.4715355670485,"trial":78,"RT":297,"MT":0,"sideResp":1,"stimulus":"img/900/randomdotsizeEA/L/1_Ratio_900_L_10_R_9.png","xmouse":[413,413,413,413,413,413,413,413,413,413,413,413,413,413,68],"ymouse":[801,801,801,801,801,801,801,801,801,801,801,801,801,801,39],"timestamp_mouse":[18,41,57,77,97,117,137,157,177