[{"start_time":1549308964568,"click_time":1549308966494,"finger_time":1549308966133,"fix_duration":1148.5961567274271,"trial":0,"RT":1565,"MT":361,"sideResp":1,"stimulus":[],"xmouse":[475.8866882324219,476.71002197265625,476.71002197265625,476.71002197265625,476.71002197265625,477.5333557128906,477.5333557128906,478.356689453125,478.356689453125,480.00335693359375,481.6500244140625,482.4733581542969,483.29669189453125,484.1199951171875,484.1199951171875,484.1199951171875,484.943359375,484.943359375,484.943359375,484.943359375,484.1199951171875,484.1199951171875,484.943359375,484.943359375,485.7666931152344,485.7666931152344,486.5899963378906,486.5899963378906,485.7666931152344,484.943359375,484.1199951171875,484.1199951171875,483.29669189453125,483.29669189453125,483.29669189453125,483.29669189453125,482.4733581542969,482.4733581542969,482.4733581542969,482.4733581542969,482.4733581542969,482.4733581542969,483.29669189453125,483.29669189453125,483.29669189453125,484.1199951171875,484.943359375,485.7666931152344,485.7666931152344,486.5899963378906,488.2366943359375,489.05999755859375,489.05999755859375,489.88336181640625,489.88336181640625,489.88336181640625,489.88336181640625,489.88336181640625,489.88336181640625,489.88336181640625,489.88336181640625,489.05999755859375,489.05999755859375,488.2366943359375,487.4133605957031,485.7666931152344,485.7666931152344,484.943359375,484.1199951171875,484.1199951171875,484.1199951171875,484.1199951171875,484.1199951171875,483.29669189453125,482.4733581542969,478.356689453125,474.2400207519531,454.4800109863281,439.6600036621094,406.7266845703125,374.61669921875,367.2066955566406,344.1533508300781,330.15667724609375,299.693359375,267.5833435058594,256.8800048828125,237.12001037597656,223.94668579101562,198.42333984375,167.13668823242188,158.0800018310547,139.9666748046875,136.67333984375,119.38333892822266,102.09333801269531],"ymouse":[899.0800170898438,897.433349609375,897.433349609375,898.2567138671875,899.9033813476562,899.9033813476562,899.9033813476562,899.9033813476562,900.7267456054688,901.550048828125,902.3733520507812,902.3733520507812,902.3733520507812,902.3733520507812,902.3733520507812,902.3733520507812,902.3733520507812,902.3733520507812,901.550048828125,901.550048828125,900.7267456054688,899.9033813476562,899.0800170898438,897.433349609375,896.6100463867188,896.6100463867188,895.7867431640625,895.7867431640625,895.7867431640625,895.7867431640625,895.7867431640625,895.7867431640625,895.7867431640625,895.7867431640625,894.96337890625,893.3167114257812,893.3167114257812,892.4933471679688,891.6700439453125,890.8467407226562,889.2000122070312,888.376708984375,887.5534057617188,886.7300415039062,885.90673828125,884.260009765625,884.260009765625,883.4367065429688,882.6134033203125,881.7900390625,879.3200073242188,878.4967651367188,877.6734008789062,876.8500366210938,876.0267333984375,876.0267333984375,875.203369140625,874.3800048828125,874.3800048828125,874.3800048828125,874.3800048828125,873.5567626953125,873.5567626953125,872.7333984375,872.7333984375,871.9100341796875,871.9100341796875,871.0867309570312,871.0867309570312,870.2633666992188,869.4400024414062,868.6167602539062,867.7933959960938,866.9700317382812,866.146728515625,862.030029296875,858.7367553710938,834.8600463867188,814.2767333984375,773.1100463867188,739.3533935546875,730.2967529296875,696.5400390625,672.6633911132812,607.6199951171875,516.22998046875,485.7666931152344,424.8399963378906,388.6133728027344,325.2166748046875,241.23667907714844,219.8300018310547,169.606689453125,147.37667846679688,111.97334289550781,74.92333984375],"timestamp_mouse":[39,45,65,84,106,125,145,164,185,206,225,245,264,285,305,325,345,365,385,405,425,445,465,485,506,525,545,565,585,605,625,645,665,685,705,725,745,764,785,804,825,845,865,884,905,924,945,964,985,1004,1025,1045,1064,1085,1105,1125,1145,1165,1185,1205,1225,1245,1265,1285,1305,1327,1345,1365,1385,1405,1425,1445,1465,1485,1505,1525,1544,1565,1585,1605,1626,1646,1665,1685,1704,1727,1745,1765,1785,1805,1825,1845,1865,1885,1905,1925],"xSR":440,"ySR":852.6,"xT1":48,"yT1":0,"xT2":832,"yT2":0,"toosoon":0,"cond_shown":"Equal","ratio_trial":200,"L_num":3,"L_den":6,"R_num":3,"R_den":10,"correct_side":1,"subjID":"16","gender":"No_gender","age":"No_age","school":"No_school","test":{"fix_dur":[250,1500],"timestim":900,"targets_dim":[100,100],"targets_relative_coord":[0.1,0.9],"size_stim":[880,420],"start_dim":[100,100],"size_start":[300,300],"size_fix":60,"samplingrate":20,"img_types":["Congruent","Incongruent","Equal"],"ratios":[100,200,300,500],"rep_conds":15,"nTrials":192,"trials_to_rest":500,"Trials_order":[17,0,161,155,26,55,122,22,136,95,184,172,167,114,29,52,132,99,138,76,115,185,60,125,24,147,34,171,4,45,87,116,117,80,181,153,40,81,170,142,8,143,177,148,104,14,187,2,70,18,188,19,36,49,159,149,5,102,139,39,51,78,7,91,33,65,89,54,103,30,109,92,112,124,61,20,28,162,145,129,166,74,144,9,107,135,105,189,163,164,79,130,191,175,101,63,110,85,94,137,35,118,88,93,82,69,158,126,83,72,12,25,71,32,38,174,47,64,127,44,11,173,156,75,96,119,133,48,31,178,183,186,151,168,53,43,13,113,176,67,10,46,179,154,140,23,73,182,56,62,86,58,106,15,141,108,111,42,98,84,157,3,6,66,150,169,152,121,21,90,68,97,134,27,41,190,131,165,77,57,100,16,123,146,37,128,59,50,120,1,180,160],"cond_shown":["Equal","Congruent","Equal","Equal","Equal","Incongruent","Equal","Incongruent","Incongruent","Equal","Incongruent","Incongruent","Equal","Congruent","Equal","Incongruent","Congruent","Congruent","Congruent","Incongruent","Incongruent","Equal","Congruent","Equal","Congruent","Congruent","Incongruent","Congruent","Incongruent","Congruent","Congruent","Equal","Congruent","Equal","Incongruent","Congruent","Incongruent","Congruent","Equal","Incongruent","Equal","Equal","Congruent","Incongruent","Equal","Equal","Incongruent","Equal","Incongruent","Congruent","Equal","Incongruent","Congruent","Incongruent","Congruent","Equal","Equal","Congruent","Incongruent","Congruent","Congruent","Congruent","Incongruent","Incongruent","Congruent","Equal","Equal","Congruent","Incongruent","Congruent","Incongruent","Equal","Incongruent","Incongruent","Incongruent","Equal","Incongruent","Congruent","Incongruent","Congruent","Incongruent","Equal","Congruent","Congruent","Equal","Congruent","Congruent","Congruent","Incongruent","Equal","Incongruent","Incongruent","Equal","Incongruent","Equal","Congruent","Equal","Incongruent","Incongruent","Equal","Equal","Incongruent","Incongruent","Congruent","Incongruent","Congruent","Equal","Congruent","Equal","Congruent","Congruent","Incongruent","Equal","Equal","Equal","Congruent","Equal","Incongruent","Incongruent","Equal","Equal","Equal","Congruent","Congruent","Congruent","Equal","Incongruent","Congruent","Incongruent","Incongruent","Congruent","Congruent","Incongruent","Congruent","Equal","Incongruent","Incongruent","Equal","Equal","Incongruent","Incongruent","Incongruent","Equal","Incongruent","Equal","Equal","Incongruent","Equal","Equal","Equal","Equal","Incongruent","Incongruent","Congruent","Congruent","Congruent","Congruent","Congruent","Equal","Congruent","Incongruent","Congruent","Congruent","Congruent","Congruent","Incongruent","Equal","Incongruent","Congruent","Congruent","Equal","Incongruent","Equal","Congruent","Equal","Incongruent","Equal","Congruent","Equal","Congruent","Incongruent","Incongruent","Congruent","Equal","Incongruent","Equal","Equal","Equal","Congruent","Incongruent","Congruent","Incongruent"],"ratio_trial":[200,100,200,500,100,300,100,500,200,500,200,200,500,300,200,200,100,200,300,200,300,200,100,200,100,200,500,200,200,500,200,300,500,300,100,500,200,500,100,500,300,500,500,200,300,100,300,100,500,300,300,300,100,100,200,200,200,300,300,200,200,300,300,300,500,200,200,300,300,300,100,300,200,200,100,300,200,300,100,500,500,100,100,500,500,200,500,500,300,300,300,500,500,300,200,200,100,100,500,200,500,500,200,500,500,500,100,300,500,100,100,100,500,300,100,300,500,200,300,300,500,200,100,200,100,500,100,100,300,500,200,300,300,100,200,300,100,200,300,300,500,500,500,500,300,500,100,100,300,100,100,500,500,200,500,100,200,300,100,100,100,200,300,300,300,100,300,100,500,300,300,100,100,200,200,500,500,500,200,500,200,200,200,100,100,300,500,100,100,100,100,200],"left_num":[3,9,3,6,6,8,6,7,1,6,4,11,6,1,3,3,8,12,4,1,4,3,7,3,6,3,2,3,9,4,12,9,20,9,6,15,14,25,6,7,3,6,21,14,9,6,13,6,7,8,9,13,9,10,12,3,3,3,4,21,15,3,13,4,2,3,3,24,13,11,4,9,7,4,3,18,7,1,9,12,2,6,11,7,6,9,2,1,4,18,8,7,2,8,3,20,2,2,7,3,2,7,7,3,2,8,6,11,6,3,11,12,6,9,6,12,6,9,13,3,6,3,15,3,11,6,6,8,4,2,5,1,4,6,3,4,3,3,9,1,2,2,6,5,9,6,2,6,3,6,6,7,2,16,8,2,3,7,6,3,3,3,5,1,20,11,9,6,3,20,9,3,6,16,3,7,6,8,3,2,6,7,16,6,8,9,6,6,9,8,4,7],"right_num":[3,8,3,6,6,9,6,5,2,6,1,3,6,3,3,11,2,6,2,2,2,3,9,3,5,9,4,9,8,1,6,9,3,9,7,5,6,9,6,5,3,6,6,12,9,6,12,6,5,1,9,12,8,9,6,3,3,2,2,2,4,11,12,2,4,3,3,8,12,4,8,9,4,1,8,18,4,7,13,4,4,6,6,12,6,4,12,9,2,18,9,5,2,9,3,9,2,8,5,3,2,5,4,14,4,4,6,1,6,4,4,2,6,9,6,2,6,8,12,3,6,3,13,9,6,6,3,2,6,4,14,7,2,15,3,2,8,3,9,3,4,4,6,6,9,6,6,6,3,6,6,9,4,12,4,11,11,20,6,2,11,14,6,11,5,9,9,7,15,14,9,11,6,12,3,5,6,1,3,21,3,6,12,6,6,9,6,6,8,6,6,14],"left_den":[6,15,6,8,12,10,12,21,3,8,30,20,8,5,10,4,16,15,5,3,20,6,14,10,20,12,3,12,15,6,20,12,24,12,10,18,30,30,10,21,10,8,28,30,20,10,26,10,21,16,12,26,15,25,15,6,10,6,20,30,25,12,26,20,12,6,6,30,26,22,8,12,15,30,5,30,15,20,15,18,3,12,22,28,8,20,8,4,20,30,10,21,12,10,10,25,12,4,21,6,12,21,15,8,3,12,12,22,24,20,22,30,8,20,12,24,8,15,26,10,8,10,25,12,22,8,12,16,5,3,10,20,20,12,10,20,5,6,20,2,3,3,8,6,20,24,4,12,10,12,12,8,3,20,12,5,10,14,12,6,5,10,25,5,25,22,12,10,12,25,12,5,12,20,10,21,24,12,6,8,20,15,20,12,16,12,24,12,15,16,8,10],"right_den":[10,16,10,24,10,18,10,6,15,24,3,4,24,6,6,20,5,10,4,15,4,10,15,6,25,20,24,20,10,6,15,20,9,20,14,15,9,27,12,6,5,24,24,18,12,12,15,12,6,5,20,15,16,18,10,10,6,10,4,4,10,20,15,4,6,10,10,16,15,20,20,20,6,3,16,20,6,20,26,24,24,10,15,16,24,16,16,12,4,20,18,6,3,18,6,15,30,20,6,10,3,6,6,16,24,24,10,5,8,16,10,4,24,12,10,10,24,10,15,5,24,6,26,20,15,24,5,5,12,24,20,20,4,25,6,4,16,10,12,15,24,24,24,18,12,8,15,10,5,10,10,24,24,20,24,22,22,25,10,5,22,28,12,22,10,15,20,14,20,28,20,22,10,20,6,6,8,6,10,28,6,9,20,10,10,20,8,10,16,10,10,28],"correct_side":[1,1,1,1,2,1,2,2,1,1,2,2,1,2,2,1,1,1,1,1,2,1,2,2,1,2,1,2,2,1,1,1,1,1,1,1,2,1,1,2,2,1,1,2,2,1,2,1,2,1,1,2,1,2,1,1,2,1,2,1,1,2,2,2,2,1,1,1,2,1,1,1,2,2,1,2,2,2,1,1,1,2,1,2,1,1,2,2,2,2,1,2,2,1,2,1,1,1,2,1,2,2,2,2,1,1,2,1,2,2,1,2,1,2,2,1,1,2,2,2,1,2,1,2,1,1,2,1,1,1,2,2,2,2,2,2,1,1,2,1,1,1,1,1,2,2,1,2,2,2,2,1,1,1,1,2,2,2,2,1,1,2,2,2,1,2,1,1,2,1,1,1,2,1,2,2,2,1,1,2,2,2,1,2,2,1,2,2,1,2,2,1],"img_shown":["img2/200/Equal/L/E_Dist_200_LN_3_LD_6_RN_3_RD_10_0.png","img2/100/Congruent/L/C_Dist_100_LN_9_LD_15_RN_8_RD_16_0.png","img2/200/Equal/L/E_Dist_200_LN_3_LD_6_RN_3_RD_10_0.png","img2/500/Equal/L/E_Dist_500_LN_6_LD_8_RN_6_RD_24_0.png","img2/100/Equal/R/E_Dist_100_LN_6_LD_12_RN_6_RD_10_1.png","img2/300/Incongruent/L/I_Dist_300_LN_8_LD_10_RN_9_RD_18_0.png","img2/100/Equal/R/E_Dist_100_LN_6_LD_12_RN_6_RD_10_1.png","img2/500/Incongruent/R/I_Dist_500_LN_7_LD_21_RN_5_RD_6_1.png","img2/200/Incongruent/L/I_Dist_200_LN_1_LD_3_RN_2_RD_15_0.png","img2/500/Equal/L/E_Dist_500_LN_6_LD_8_RN_6_RD_24_0.png","img2/200/Incongruent/R/I_Dist_200_LN_4_LD_30_RN_1_RD_3_1.png","img2/200/Incongruent/R/I_Dist_200_LN_11_LD_20_RN_3_RD_4_1.png","img2/500/Equal/L/E_Dist_500_LN_6_LD_8_RN_6_RD_24_0.png","img2/300/Congruent/R/C_Dist_300_LN_1_LD_5_RN_3_RD_6_1.png","img2/200/Equal/R/E_Dist_200_LN_3_LD_10_RN_3_RD_6_1.png","img2/200/Incongruent/L/I_Dist_200_LN_3_LD_4_RN_11_RD_20_0.png","img2/100/Congruent/L/C_Dist_100_LN_8_LD_16_RN_2_RD_5_0.png","img2/200/Congruent/L/C_Dist_200_LN_12_LD_15_RN_6_RD_10_0.png","img2/300/Congruent/L/C_Dist_300_LN_4_LD_5_RN_2_RD_4_0.png","img2/200/Incongruent/L/I_Dist_200_LN_1_LD_3_RN_2_RD_15_0.png","img2/300/Incongruent/R/I_Dist_300_LN_4_LD_20_RN_2_RD_4_1.png","img2/200/Equal/L/E_Dist_200_LN_3_LD_6_RN_3_RD_10_0.png","img2/100/Congruent/R/C_Dist_100_LN_7_LD_14_RN_9_RD_15_1.png","img2/200/Equal/R/E_Dist_200_LN_3_LD_10_RN_3_RD_6_1.png","img2/100/Congruent/L/C_Dist_100_LN_6_LD_20_RN_5_RD_25_0.png","img2/200/Congruent/R/C_Dist_200_LN_3_LD_12_RN_9_RD_20_1.png","img2/500/Incongruent/L/I_Dist_500_LN_2_LD_3_RN_4_RD_24_0.png","img2/200/Congruent/R/C_Dist_200_LN_3_LD_12_RN_9_RD_20_1.png","img2/200/Incongruent/R/I_Dist_200_LN_9_LD_15_RN_8_RD_10_1.png","img2/500/Congruent/L/C_Dist_500_LN_4_LD_6_RN_1_RD_6_0.png","img2/200/Congruent/L/C_Dist_200_LN_12_LD_20_RN_6_RD_15_0.png","img2/300/Equal/L/E_Dist_300_LN_9_LD_12_RN_9_RD_20_0.png","img2/500/Congruent/L/C_Dist_500_LN_20_LD_24_RN_3_RD_9_0.png","img2/300/Equal/L/E_Dist_300_LN_9_LD_12_RN_9_RD_20_0.png","img2/100/Incongruent/L/I_Dist_100_LN_6_LD_10_RN_7_RD_14_0.png","img2/500/Congruent/L/C_Dist_500_LN_15_LD_18_RN_5_RD_15_0.png","img2/200/Incongruent/R/I_Dist_200_LN_14_LD_30_RN_6_RD_9_1.png","img2/500/Congruent/L/C_Dist_500_LN_25_LD_30_RN_9_RD_27_0.png","img2/100/Equal/L/E_Dist_100_LN_6_LD_10_RN_6_RD_12_0.png","img2/500/Incongruent/R/I_Dist_500_LN_7_LD_21_RN_5_RD_6_1.png","img2/300/Equal/R/E_Dist_300_LN_3_LD_10_RN_3_RD_5_1.png","img2/500/Equal/L/E_Dist_500_LN_6_LD_8_RN_6_RD_24_0.png","img2/500/Congruent/L/C_Dist_500_LN_21_LD_28_RN_6_RD_24_0.png","img2/200/Incongruent/R/I_Dist_200_LN_14_LD_30_RN_12_RD_18_1.png","img2/300/Equal/R/E_Dist_300_LN_9_LD_20_RN_9_RD_12_1.png","img2/100/Equal/L/E_Dist_100_LN_6_LD_10_RN_6_RD_12_0.png","img2/300/Incongruent/R/I_Dist_300_LN_13_LD_26_RN_12_RD_15_1.png","img2/100/Equal/L/E_Dist_100_LN_6_LD_10_RN_6_RD_12_0.png","img2/500/Incongruent/R/I_Dist_500_LN_7_LD_21_RN_5_RD_6_1.png","img2/300/Congruent/L/C_Dist_300_LN_8_LD_16_RN_1_RD_5_0.png","img2/300/Equal/L/E_Dist_300_LN_9_LD_12_RN_9_RD_20_0.png","img2/300/Incongruent/R/I_Dist_300_LN_13_LD_26_RN_12_RD_15_1.png","img2/100/Congruent/L/C_Dist_100_LN_9_LD_15_RN_8_RD_16_0.png","img2/100/Incongruent/R/I_Dist_100_LN_10_LD_25_RN_9_RD_18_1.png","img2/200/Congruent/L/C_Dist_200_LN_12_LD_15_RN_6_RD_10_0.png","img2/200/Equal/L/E_Dist_200_LN_3_LD_6_RN_3_RD_10_0.png","img2/200/Equal/R/E_Dist_200_LN_3_LD_10_RN_3_RD_6_1.png","img2/300/Congruent/L/C_Dist_300_LN_3_LD_6_RN_2_RD_10_0.png","img2/300/Incongruent/R/I_Dist_300_LN_4_LD_20_RN_2_RD_4_1.png","img2/200/Congruent/L/C_Dist_200_LN_21_LD_30_RN_2_RD_4_0.png","img2/200/Congruent/L/C_Dist_200_LN_15_LD_25_RN_4_RD_10_0.png","img2/300/Congruent/R/C_Dist_300_LN_3_LD_12_RN_11_RD_20_1.png","img2/300/Incongruent/R/I_Dist_300_LN_13_LD_26_RN_12_RD_15_1.png","img2/300/Incongruent/R/I_Dist_300_LN_4_LD_20_RN_2_RD_4_1.png","img2/500/Congruent/R/C_Dist_500_LN_2_LD_12_RN_4_RD_6_1.png","img2/200/Equal/L/E_Dist_200_LN_3_LD_6_RN_3_RD_10_0.png","img2/200/Equal/L/E_Dist_200_LN_3_LD_6_RN_3_RD_10_0.png","img2/300/Congruent/L/C_Dist_300_LN_24_LD_30_RN_8_RD_16_0.png","img2/300/Incongruent/R/I_Dist_300_LN_13_LD_26_RN_12_RD_15_1.png","img2/300/Congruent/L/C_Dist_300_LN_11_LD_22_RN_4_RD_20_0.png","img2/100/Incongruent/L/I_Dist_100_LN_4_LD_8_RN_8_RD_20_0.png","img2/300/Equal/L/E_Dist_300_LN_9_LD_12_RN_9_RD_20_0.png","img2/200/Incongruent/R/I_Dist_200_LN_7_LD_15_RN_4_RD_6_1.png","img2/200/Incongruent/R/I_Dist_200_LN_4_LD_30_RN_1_RD_3_1.png","img2/100/Incongruent/L/I_Dist_100_LN_3_LD_5_RN_8_RD_16_0.png","img2/300/Equal/R/E_Dist_300_LN_18_LD_30_RN_18_RD_20_1.png","img2/200/Incongruent/R/I_Dist_200_LN_7_LD_15_RN_4_RD_6_1.png","img2/300/Congruent/R/C_Dist_300_LN_1_LD_20_RN_7_RD_20_1.png","img2/100/Incongruent/L/I_Dist_100_LN_9_LD_15_RN_13_RD_26_0.png","img2/500/Congruent/L/C_Dist_500_LN_12_LD_18_RN_4_RD_24_0.png","img2/500/Incongruent/L/I_Dist_500_LN_2_LD_3_RN_4_RD_24_0.png","img2/100/Equal/R/E_Dist_100_LN_6_LD_12_RN_6_RD_10_1.png","img2/100/Congruent/L/C_Dist_100_LN_11_LD_22_RN_6_RD_15_0.png","img2/500/Congruent/R/C_Dist_500_LN_7_LD_28_RN_12_RD_16_1.png","img2/500/Equal/L/E_Dist_500_LN_6_LD_8_RN_6_RD_24_0.png","img2/200/Congruent/L/C_Dist_200_LN_9_LD_20_RN_4_RD_16_0.png","img2/500/Congruent/R/C_Dist_500_LN_2_LD_8_RN_12_RD_16_1.png","img2/500/Congruent/R/C_Dist_500_LN_1_LD_4_RN_9_RD_12_1.png","img2/300/Incongruent/R/I_Dist_300_LN_4_LD_20_RN_2_RD_4_1.png","img2/300/Equal/R/E_Dist_300_LN_18_LD_30_RN_18_RD_20_1.png","img2/300/Incongruent/L/I_Dist_300_LN_8_LD_10_RN_9_RD_18_0.png","img2/500/Incongruent/R/I_Dist_500_LN_7_LD_21_RN_5_RD_6_1.png","img2/500/Equal/R/E_Dist_500_LN_2_LD_12_RN_2_RD_3_1.png","img2/300/Incongruent/L/I_Dist_300_LN_8_LD_10_RN_9_RD_18_0.png","img2/200/Equal/R/E_Dist_200_LN_3_LD_10_RN_3_RD_6_1.png","img2/200/Congruent/L/C_Dist_200_LN_20_LD_25_RN_9_RD_15_0.png","img2/100/Equal/L/E_Dist_100_LN_2_LD_12_RN_2_RD_30_0.png","img2/100/Incongruent/L/I_Dist_100_LN_2_LD_4_RN_8_RD_20_0.png","img2/500/Incongruent/R/I_Dist_500_LN_7_LD_21_RN_5_RD_6_1.png","img2/200/Equal/L/E_Dist_200_LN_3_LD_6_RN_3_RD_10_0.png","img2/500/Equal/R/E_Dist_500_LN_2_LD_12_RN_2_RD_3_1.png","img2/500/Incongruent/R/I_Dist_500_LN_7_LD_21_RN_5_RD_6_1.png","img2/200/Incongruent/R/I_Dist_200_LN_7_LD_15_RN_4_RD_6_1.png","img2/500/Congruent/R/C_Dist_500_LN_3_LD_8_RN_14_RD_16_1.png","img2/500/Incongruent/L/I_Dist_500_LN_2_LD_3_RN_4_RD_24_0.png","img2/500/Congruent/L/C_Dist_500_LN_8_LD_12_RN_4_RD_24_0.png","img2/100/Equal/R/E_Dist_100_LN_6_LD_12_RN_6_RD_10_1.png","img2/300/Congruent/L/C_Dist_300_LN_11_LD_22_RN_1_RD_5_0.png","img2/500/Equal/R/E_Dist_500_LN_6_LD_24_RN_6_RD_8_1.png","img2/100/Congruent/R/C_Dist_100_LN_3_LD_20_RN_4_RD_16_1.png","img2/100/Congruent/L/C_Dist_100_LN_11_LD_22_RN_4_RD_10_0.png","img2/100/Incongruent/R/I_Dist_100_LN_12_LD_30_RN_2_RD_4_1.png","img2/500/Equal/L/E_Dist_500_LN_6_LD_8_RN_6_RD_24_0.png","img2/300/Equal/R/E_Dist_300_LN_9_LD_20_RN_9_RD_12_1.png","img2/100/Equal/R/E_Dist_100_LN_6_LD_12_RN_6_RD_10_1.png","img2/300/Congruent/L/C_Dist_300_LN_12_LD_24_RN_2_RD_10_0.png","img2/500/Equal/L/E_Dist_500_LN_6_LD_8_RN_6_RD_24_0.png","img2/200/Incongruent/R/I_Dist_200_LN_9_LD_15_RN_8_RD_10_1.png","img2/300/Incongruent/R/I_Dist_300_LN_13_LD_26_RN_12_RD_15_1.png","img2/300/Equal/R/E_Dist_300_LN_3_LD_10_RN_3_RD_5_1.png","img2/500/Equal/L/E_Dist_500_LN_6_LD_8_RN_6_RD_24_0.png","img2/200/Equal/R/E_Dist_200_LN_3_LD_10_RN_3_RD_6_1.png","img2/100/Congruent/L/C_Dist_100_LN_15_LD_25_RN_13_RD_26_0.png","img2/200/Congruent/R/C_Dist_200_LN_3_LD_12_RN_9_RD_20_1.png","img2/100/Congruent/L/C_Dist_100_LN_11_LD_22_RN_6_RD_15_0.png","img2/500/Equal/L/E_Dist_500_LN_6_LD_8_RN_6_RD_24_0.png","img2/100/Incongruent/R/I_Dist_100_LN_6_LD_12_RN_3_RD_5_1.png","img2/100/Congruent/L/C_Dist_100_LN_8_LD_16_RN_2_RD_5_0.png","img2/300/Incongruent/L/I_Dist_300_LN_4_LD_5_RN_6_RD_12_0.png","img2/500/Incongruent/L/I_Dist_500_LN_2_LD_3_RN_4_RD_24_0.png","img2/200/Congruent/R/C_Dist_200_LN_5_LD_10_RN_14_RD_20_1.png","img2/300/Congruent/R/C_Dist_300_LN_1_LD_20_RN_7_RD_20_1.png","img2/300/Incongruent/R/I_Dist_300_LN_4_LD_20_RN_2_RD_4_1.png","img2/100/Congruent/R/C_Dist_100_LN_6_LD_12_RN_15_RD_25_1.png","img2/200/Equal/R/E_Dist_200_LN_3_LD_10_RN_3_RD_6_1.png","img2/300/Incongruent/R/I_Dist_300_LN_4_LD_20_RN_2_RD_4_1.png","img2/100/Incongruent/L/I_Dist_100_LN_3_LD_5_RN_8_RD_16_0.png","img2/200/Equal/L/E_Dist_200_LN_3_LD_6_RN_3_RD_10_0.png","img2/300/Equal/R/E_Dist_300_LN_9_LD_20_RN_9_RD_12_1.png","img2/300/Incongruent/L/I_Dist_300_LN_1_LD_2_RN_3_RD_15_0.png","img2/500/Incongruent/L/I_Dist_500_LN_2_LD_3_RN_4_RD_24_0.png","img2/500/Incongruent/L/I_Dist_500_LN_2_LD_3_RN_4_RD_24_0.png","img2/500/Equal/L/E_Dist_500_LN_6_LD_8_RN_6_RD_24_0.png","img2/500/Incongruent/L/I_Dist_500_LN_5_LD_6_RN_6_RD_18_0.png","img2/300/Equal/R/E_Dist_300_LN_9_LD_20_RN_9_RD_12_1.png","img2/500/Equal/R/E_Dist_500_LN_6_LD_24_RN_6_RD_8_1.png","img2/100/Incongruent/L/I_Dist_100_LN_2_LD_4_RN_6_RD_15_0.png","img2/100/Equal/R/E_Dist_100_LN_6_LD_12_RN_6_RD_10_1.png","img2/300/Equal/R/E_Dist_300_LN_3_LD_10_RN_3_RD_5_1.png","img2/100/Equal/R/E_Dist_100_LN_6_LD_12_RN_6_RD_10_1.png","img2/100/Equal/R/E_Dist_100_LN_6_LD_12_RN_6_RD_10_1.png","img2/500/Incongruent/L/I_Dist_500_LN_7_LD_8_RN_9_RD_24_0.png","img2/500/Incongruent/L/I_Dist_500_LN_2_LD_3_RN_4_RD_24_0.png","img2/200/Congruent/L/C_Dist_200_LN_16_LD_20_RN_12_RD_20_0.png","img2/500/Congruent/L/C_Dist_500_LN_8_LD_12_RN_4_RD_24_0.png","img2/100/Congruent/R/C_Dist_100_LN_2_LD_5_RN_11_RD_22_1.png","img2/200/Congruent/R/C_Dist_200_LN_3_LD_10_RN_11_RD_22_1.png","img2/300/Congruent/R/C_Dist_300_LN_7_LD_14_RN_20_RD_25_1.png","img2/100/Equal/R/E_Dist_100_LN_6_LD_12_RN_6_RD_10_1.png","img2/100/Congruent/L/C_Dist_100_LN_3_LD_6_RN_2_RD_5_0.png","img2/100/Incongruent/L/I_Dist_100_LN_3_LD_5_RN_11_RD_22_0.png","img2/200/Congruent/R/C_Dist_200_LN_3_LD_10_RN_14_RD_28_1.png","img2/300/Congruent/R/C_Dist_300_LN_5_LD_25_RN_6_RD_12_1.png","img2/300/Congruent/R/C_Dist_300_LN_1_LD_5_RN_11_RD_22_1.png","img2/300/Congruent/L/C_Dist_300_LN_20_LD_25_RN_5_RD_10_0.png","img2/100/Incongruent/R/I_Dist_100_LN_11_LD_22_RN_9_RD_15_1.png","img2/300/Equal/L/E_Dist_300_LN_9_LD_12_RN_9_RD_20_0.png","img2/100/Incongruent/L/I_Dist_100_LN_6_LD_10_RN_7_RD_14_0.png","img2/500/Congruent/R/C_Dist_500_LN_3_LD_12_RN_15_RD_20_1.png","img2/300/Congruent/L/C_Dist_300_LN_20_LD_25_RN_14_RD_28_0.png","img2/300/Equal/L/E_Dist_300_LN_9_LD_12_RN_9_RD_20_0.png","img2/100/Incongruent/L/I_Dist_100_LN_3_LD_5_RN_11_RD_22_0.png","img2/100/Equal/R/E_Dist_100_LN_6_LD_12_RN_6_RD_10_1.png","img2/200/Congruent/L/C_Dist_200_LN_16_LD_20_RN_12_RD_20_0.png","img2/200/Equal/R/E_Dist_200_LN_3_LD_10_RN_3_RD_6_1.png","img2/500/Incongruent/R/I_Dist_500_LN_7_LD_21_RN_5_RD_6_1.png","img2/500/Equal/R/E_Dist_500_LN_6_LD_24_RN_6_RD_8_1.png","img2/500/Congruent/L/C_Dist_500_LN_8_LD_12_RN_1_RD_6_0.png","img2/200/Equal/L/E_Dist_200_LN_3_LD_6_RN_3_RD_10_0.png","img2/500/Congruent/R/C_Dist_500_LN_2_LD_8_RN_21_RD_28_1.png","img2/200/Incongruent/R/I_Dist_200_LN_6_LD_20_RN_3_RD_6_1.png","img2/200/Incongruent/R/I_Dist_200_LN_7_LD_15_RN_6_RD_9_1.png","img2/200/Congruent/L/C_Dist_200_LN_16_LD_20_RN_12_RD_20_0.png","img2/100/Equal/R/E_Dist_100_LN_6_LD_12_RN_6_RD_10_1.png","img2/100/Incongruent/R/I_Dist_100_LN_8_LD_16_RN_6_RD_10_1.png","img2/300/Equal/L/E_Dist_300_LN_9_LD_12_RN_9_RD_20_0.png","img2/500/Equal/R/E_Dist_500_LN_6_LD_24_RN_6_RD_8_1.png","img2/100/Equal/R/E_Dist_100_LN_6_LD_12_RN_6_RD_10_1.png","img2/100/Congruent/L/C_Dist_100_LN_9_LD_15_RN_8_RD_16_0.png","img2/100/Incongruent/R/I_Dist_100_LN_8_LD_16_RN_6_RD_10_1.png","img2/100/Congruent/R/C_Dist_100_LN_4_LD_8_RN_6_RD_10_1.png","img2/200/Incongruent/L/I_Dist_200_LN_7_LD_10_RN_14_RD_28_0.png"],"dist100_C":[["C_Dist_100_LN_10_LD_25_RN_3_RD_10_0.png","C_Dist_100_LN_11_LD_22_RN_4_RD_10_0.png","C_Dist_100_LN_11_LD_22_RN_6_RD_15_0.png","C_Dist_100_LN_15_LD_25_RN_13_RD_26_0.png","C_Dist_100_LN_3_LD_6_RN_2_RD_5_0.png","C_Dist_100_LN_6_LD_20_RN_5_RD_25_0.png","C_Dist_100_LN_8_LD_16_RN_2_RD_5_0.png","C_Dist_100_LN_9_LD_15_RN_8_RD_16_0.png"],["C_Dist_100_LN_1_LD_2_RN_18_RD_30_1.png","C_Dist_100_LN_1_LD_2_RN_3_RD_5_1.png","C_Dist_100_LN_12_LD_30_RN_13_RD_26_1.png","C_Dist_100_LN_2_LD_5_RN_11_RD_22_1.png","C_Dist_100_LN_2_LD_5_RN_6_RD_12_1.png","C_Dist_100_LN_3_LD_20_RN_4_RD_16_1.png","C_Dist_100_LN_4_LD_10_RN_15_RD_30_1.png","C_Dist_100_LN_4_LD_8_RN_6_RD_10_1.png","C_Dist_100_LN_6_LD_12_RN_15_RD_25_1.png","C_Dist_100_LN_7_LD_14_RN_15_RD_25_1.png","C_Dist_100_LN_7_LD_14_RN_9_RD_15_1.png"]],"dist100_I":[["I_Dist_100_LN_1_LD_2_RN_8_RD_20_0.png","I_Dist_100_LN_2_LD_4_RN_6_RD_15_0.png","I_Dist_100_LN_2_LD_4_RN_8_RD_20_0.png","I_Dist_100_LN_3_LD_5_RN_11_RD_22_0.png","I_Dist_100_LN_3_LD_5_RN_8_RD_16_0.png","I_Dist_100_LN_3_LD_6_RN_4_RD_10_0.png","I_Dist_100_LN_3_LD_9_RN_7_RD_30_0.png","I_Dist_100_LN_4_LD_8_RN_8_RD_20_0.png","I_Dist_100_LN_6_LD_10_RN_11_RD_22_0.png","I_Dist_100_LN_6_LD_10_RN_13_RD_26_0.png","I_Dist_100_LN_6_LD_10_RN_7_RD_14_0.png","I_Dist_100_LN_9_LD_10_RN_20_RD_25_0.png","I_Dist_100_LN_9_LD_15_RN_13_RD_26_0.png","I_Dist_100_LN_9_LD_15_RN_14_RD_28_0.png"],["I_Dist_100_LN_10_LD_25_RN_8_RD_16_1.png","I_Dist_100_LN_10_LD_25_RN_9_RD_18_1.png","I_Dist_100_LN_11_LD_22_RN_9_RD_15_1.png","I_Dist_100_LN_12_LD_24_RN_9_RD_15_1.png","I_Dist_100_LN_12_LD_30_RN_2_RD_4_1.png","I_Dist_100_LN_13_LD_26_RN_12_RD_20_1.png","I_Dist_100_LN_13_LD_26_RN_6_RD_10_1.png","I_Dist_100_LN_17_LD_30_RN_10_RD_15_1.png","I_Dist_100_LN_6_LD_12_RN_3_RD_5_1.png","I_Dist_100_LN_8_LD_16_RN_6_RD_10_1.png","I_Dist_100_LN_8_LD_20_RN_1_RD_2_1.png","I_Dist_100_LN_9_LD_18_RN_6_RD_10_1.png"]],"dist100_S":[["E_Dist_100_LN_2_LD_12_RN_2_RD_30_0.png","E_Dist_100_LN_6_LD_10_RN_6_RD_12_0.png"],["E_Dist_100_LN_6_LD_12_RN_6_RD_10_1.png"]],"dist200_C":[["C_Dist_200_LN_11_LD_22_RN_3_RD_10_0.png","C_Dist_200_LN_12_LD_15_RN_6_RD_10_0.png","C_Dist_200_LN_12_LD_20_RN_6_RD_15_0.png","C_Dist_200_LN_14_LD_28_RN_6_RD_20_0.png","C_Dist_200_LN_15_LD_25_RN_4_RD_10_0.png","C_Dist_200_LN_16_LD_20_RN_12_RD_20_0.png","C_Dist_200_LN_16_LD_30_RN_9_RD_27_0.png","C_Dist_200_LN_20_LD_25_RN_9_RD_15_0.png","C_Dist_200_LN_21_LD_30_RN_2_RD_4_0.png","C_Dist_200_LN_4_LD_10_RN_3_RD_15_0.png","C_Dist_200_LN_4_LD_8_RN_3_RD_10_0.png","C_Dist_200_LN_6_LD_15_RN_3_RD_15_0.png","C_Dist_200_LN_7_LD_21_RN_2_RD_15_0.png","C_Dist_200_LN_8_LD_15_RN_2_RD_6_0.png","C_Dist_200_LN_8_LD_15_RN_3_RD_9_0.png","C_Dist_200_LN_8_LD_15_RN_7_RD_21_0.png","C_Dist_200_LN_9_LD_20_RN_4_RD_16_0.png"],["C_Dist_200_LN_1_LD_2_RN_21_RD_30_1.png","C_Dist_200_LN_13_LD_26_RN_14_RD_20_1.png","C_Dist_200_LN_3_LD_10_RN_11_RD_22_1.png","C_Dist_200_LN_3_LD_10_RN_14_RD_28_1.png","C_Dist_200_LN_3_LD_10_RN_7_RD_14_1.png","C_Dist_200_LN_3_LD_12_RN_9_RD_20_1.png","C_Dist_200_LN_3_LD_6_RN_14_RD_20_1.png","C_Dist_200_LN_5_LD_10_RN_14_RD_20_1.png","C_Dist_200_LN_6_LD_12_RN_7_RD_10_1.png","C_Dist_200_LN_6_LD_20_RN_11_RD_22_1.png","C_Dist_200_LN_7_LD_15_RN_18_RD_27_1.png","C_Dist_200_LN_9_LD_30_RN_13_RD_26_1.png"]],"dist200_I":[["I_Dist_200_LN_1_LD_2_RN_3_RD_10_0.png","I_Dist_200_LN_1_LD_3_RN_2_RD_15_0.png","I_Dist_200_LN_3_LD_4_RN_11_RD_20_0.png","I_Dist_200_LN_4_LD_5_RN_6_RD_10_0.png","I_Dist_200_LN_4_LD_6_RN_14_RD_30_0.png","I_Dist_200_LN_7_LD_10_RN_12_RD_24_0.png","I_Dist_200_LN_7_LD_10_RN_14_RD_28_0.png","I_Dist_200_LN_7_LD_10_RN_8_RD_16_0.png"],["I_Dist_200_LN_11_LD_20_RN_3_RD_4_1.png","I_Dist_200_LN_14_LD_30_RN_12_RD_18_1.png","I_Dist_200_LN_14_LD_30_RN_6_RD_9_1.png","I_Dist_200_LN_3_LD_10_RN_1_RD_2_1.png","I_Dist_200_LN_4_LD_30_RN_1_RD_3_1.png","I_Dist_200_LN_6_LD_20_RN_3_RD_6_1.png","I_Dist_200_LN_7_LD_15_RN_4_RD_6_1.png","I_Dist_200_LN_7_LD_15_RN_6_RD_9_1.png","I_Dist_200_LN_9_LD_15_RN_8_RD_10_1.png"]],"dist200_S":[["E_Dist_200_LN_3_LD_6_RN_3_RD_10_0.png"],["E_Dist_200_LN_3_LD_10_RN_3_RD_6_1.png"]],"dist300_C":[["C_Dist_300_LN_11_LD_22_RN_1_RD_5_0.png","C_Dist_300_LN_11_LD_22_RN_2_RD_10_0.png","C_Dist_300_LN_11_LD_22_RN_4_RD_20_0.png","C_Dist_300_LN_12_LD_24_RN_2_RD_10_0.png","C_Dist_300_LN_18_LD_20_RN_9_RD_15_0.png","C_Dist_300_LN_20_LD_25_RN_13_RD_26_0.png","C_Dist_300_LN_20_LD_25_RN_14_RD_28_0.png","C_Dist_300_LN_20_LD_25_RN_5_RD_10_0.png","C_Dist_300_LN_20_LD_25_RN_8_RD_16_0.png","C_Dist_300_LN_20_LD_25_RN_9_RD_18_0.png","C_Dist_300_LN_24_LD_30_RN_2_RD_4_0.png","C_Dist_300_LN_24_LD_30_RN_8_RD_16_0.png","C_Dist_300_LN_3_LD_6_RN_2_RD_10_0.png","C_Dist_300_LN_4_LD_10_RN_1_RD_10_0.png","C_Dist_300_LN_4_LD_5_RN_2_RD_4_0.png","C_Dist_300_LN_8_LD_16_RN_1_RD_5_0.png","C_Dist_300_LN_9_LD_10_RN_3_RD_5_0.png"],["C_Dist_300_LN_1_LD_20_RN_7_RD_20_1.png","C_Dist_300_LN_1_LD_3_RN_19_RD_30_1.png","C_Dist_300_LN_1_LD_30_RN_8_RD_24_1.png","C_Dist_300_LN_1_LD_5_RN_11_RD_22_1.png","C_Dist_300_LN_1_LD_5_RN_3_RD_6_1.png","C_Dist_300_LN_1_LD_5_RN_6_RD_12_1.png","C_Dist_300_LN_2_LD_10_RN_12_RD_24_1.png","C_Dist_300_LN_2_LD_20_RN_10_RD_25_1.png","C_Dist_300_LN_3_LD_12_RN_11_RD_20_1.png","C_Dist_300_LN_3_LD_6_RN_4_RD_5_1.png","C_Dist_300_LN_4_LD_20_RN_13_RD_26_1.png","C_Dist_300_LN_5_LD_25_RN_6_RD_12_1.png","C_Dist_300_LN_5_LD_25_RN_7_RD_14_1.png","C_Dist_300_LN_7_LD_14_RN_20_RD_25_1.png","C_Dist_300_LN_8_LD_15_RN_10_RD_12_1.png"]],"dist300_I":[["I_Dist_300_LN_1_LD_2_RN_2_RD_10_0.png","I_Dist_300_LN_1_LD_2_RN_3_RD_15_0.png","I_Dist_300_LN_2_LD_4_RN_6_RD_30_0.png","I_Dist_300_LN_3_LD_6_RN_4_RD_20_0.png","I_Dist_300_LN_4_LD_5_RN_6_RD_12_0.png","I_Dist_300_LN_4_LD_5_RN_8_RD_16_0.png","I_Dist_300_LN_7_LD_10_RN_8_RD_20_0.png","I_Dist_300_LN_8_LD_10_RN_14_RD_28_0.png","I_Dist_300_LN_8_LD_10_RN_9_RD_18_0.png"],["I_Dist_300_LN_13_LD_26_RN_12_RD_15_1.png","I_Dist_300_LN_4_LD_20_RN_2_RD_4_1.png"]],"dist300_S":[["E_Dist_300_LN_9_LD_12_RN_9_RD_20_0.png"],["E_Dist_300_LN_18_LD_30_RN_18_RD_20_1.png","E_Dist_300_LN_3_LD_10_RN_3_RD_5_1.png","E_Dist_300_LN_9_LD_20_RN_9_RD_12_1.png"]],"dist500_C":[["C_Dist_500_LN_10_LD_13_RN_7_RD_26_0.png","C_Dist_500_LN_10_LD_15_RN_4_RD_24_0.png","C_Dist_500_LN_12_LD_16_RN_3_RD_12_0.png","C_Dist_500_LN_12_LD_18_RN_4_RD_24_0.png","C_Dist_500_LN_15_LD_18_RN_5_RD_15_0.png","C_Dist_500_LN_15_LD_20_RN_1_RD_4_0.png","C_Dist_500_LN_18_LD_27_RN_1_RD_6_0.png","C_Dist_500_LN_20_LD_24_RN_1_RD_3_0.png","C_Dist_500_LN_20_LD_24_RN_3_RD_9_0.png","C_Dist_500_LN_20_LD_24_RN_7_RD_21_0.png","C_Dist_500_LN_20_LD_28_RN_3_RD_14_0.png","C_Dist_500_LN_21_LD_28_RN_6_RD_24_0.png","C_Dist_500_LN_22_LD_28_RN_2_RD_7_0.png","C_Dist_500_LN_25_LD_30_RN_9_RD_27_0.png","C_Dist_500_LN_4_LD_6_RN_1_RD_6_0.png","C_Dist_500_LN_5_LD_6_RN_2_RD_6_0.png","C_Dist_500_LN_6_LD_9_RN_1_RD_6_0.png","C_Dist_500_LN_7_LD_10_RN_1_RD_5_0.png","C_Dist_500_LN_8_LD_12_RN_1_RD_6_0.png","C_Dist_500_LN_8_LD_12_RN_4_RD_24_0.png"],["C_Dist_500_LN_1_LD_4_RN_12_RD_16_1.png","C_Dist_500_LN_1_LD_4_RN_9_RD_12_1.png","C_Dist_500_LN_1_LD_9_RN_11_RD_18_1.png","C_Dist_500_LN_10_LD_24_RN_22_RD_24_1.png","C_Dist_500_LN_2_LD_12_RN_10_RD_15_1.png","C_Dist_500_LN_2_LD_12_RN_12_RD_18_1.png","C_Dist_500_LN_2_LD_12_RN_4_RD_6_1.png","C_Dist_500_LN_2_LD_24_RN_7_RD_12_1.png","C_Dist_500_LN_2_LD_5_RN_18_RD_20_1.png","C_Dist_500_LN_2_LD_5_RN_9_RD_10_1.png","C_Dist_500_LN_2_LD_8_RN_12_RD_16_1.png","C_Dist_500_LN_2_LD_8_RN_21_RD_28_1.png","C_Dist_500_LN_3_LD_10_RN_4_RD_5_1.png","C_Dist_500_LN_3_LD_12_RN_15_RD_20_1.png","C_Dist_500_LN_3_LD_30_RN_6_RD_10_1.png","C_Dist_500_LN_3_LD_8_RN_14_RD_16_1.png","C_Dist_500_LN_4_LD_16_RN_15_RD_20_1.png","C_Dist_500_LN_4_LD_24_RN_12_RD_18_1.png","C_Dist_500_LN_5_LD_14_RN_6_RD_7_1.png","C_Dist_500_LN_7_LD_21_RN_20_RD_24_1.png","C_Dist_500_LN_7_LD_28_RN_12_RD_16_1.png","C_Dist_500_LN_7_LD_28_RN_9_RD_12_1.png","C_Dist_500_LN_9_LD_27_RN_20_RD_24_1.png"]],"dist500_I":[["I_Dist_500_LN_2_LD_3_RN_4_RD_24_0.png","I_Dist_500_LN_5_LD_6_RN_6_RD_18_0.png","I_Dist_500_LN_7_LD_8_RN_9_RD_24_0.png"],["I_Dist_500_LN_7_LD_21_RN_5_RD_6_1.png"]],"dist500_S":[["E_Dist_500_LN_6_LD_8_RN_6_RD_24_0.png"],["E_Dist_500_LN_2_LD_12_RN_2_RD_3_1.png","E_Dist_500_LN_6_LD_24_RN_6_RD_8_1.png"]]}},{"start_time":1549308969653,"click_time":1549308970993,"finger_time":1549308970633,"fix_duration":292.4503087790877,"trial":1,"RT":980,"MT":360,"sideResp":1,"stimulus":[],"xmouse":[496.4700012207031,496.4700012207031,496.4700012207031,494,494,494,494,494,494,494,494.8233642578125,494.8233642578125,494.8233642578125,494.8233642578125,494.8233642578125,494.8233642578125,494,494,494,494.8233642578125,495.6466979980469,495.6466979980469,497.2933654785156,497.2933654785156,496.4700012207031,496.4700012207031,496.4700012207031,495.6466979980469,495.6466979980469,496.4700012207031,496.4700012207031,497.2933654785156,498.11669921875,500.5867004394531,502.2333679199219,502.2333679199219,503.05670166015625,503.05670166015625,502.2333679199219,502.2333679199219,501.4100036621094,500.5867004394531,499.76336669921875,498.94000244140625,497.2933654785156,497.2933654785156,496.4700012207031,496.4700012207031,494,484.1199951171875,473.41668701171875,441.30670166015625,426.4866943359375,406.7266845703125,389.4366760253906,382.8500061035156,367.2066955566406,355.67999267578125,316.9833679199219,293.92999267578125,271.70001220703125,260.9966735839844,236.2966766357422,225.5933380126953,186.8966827392578,165.49000549316406,156.433349609375,138.32000732421875],"ymouse":[896.6100463867188,896.6100463867188,896.6100463867188,896.6100463867188,896.6100463867188,896.6100463867188,896.6100463867188,896.6100463867188,896.6100463867188,896.6100463867188,894.1400146484375,894.1400146484375,894.1400146484375,894.1400146484375,894.1400146484375,894.1400146484375,894.1400146484375,894.1400146484375,894.1400146484375,893.3167114257812,891.6700439453125,890.8467407226562,889.2000122070312,886.7300415039062,885.90673828125,885.90673828125,885.0833740234375,885.0833740234375,884.260009765625,883.4367065429688,882.6134033203125,881.7900390625,879.3200073242188,876.0267333984375,874.3800048828125,873.5567626953125,871.9100341796875,871.0867309570312,870.2633666992188,870.2633666992188,869.4400024414062,869.4400024414062,868.6167602539062,867.7933959960938,865.3233642578125,864.5,862.030029296875,860.3833618164062,852.973388671875,830.7433471679688,810.1600341796875,751.703369140625,725.3567504882812,685.8367309570312,633.9667358398438,614.2066650390625,568.92333984375,540.106689453125,451.1866760253906,393.5533752441406,339.21337890625,311.2200012207031,252.7633514404297,227.24000549316406,156.433349609375,117.7366714477539,102.91667175292969,74.0999984741211],"timestamp_mouse":[1,20,40,60,80,100,120,140,160,180,200,220,240,260,280,299,320,340,360,380,400,420,440,461,481,500,520,540,560,579,600,620,640,661,679,699,720,740,761,780,800,820,840,860,880,900,920,940,962,980,1000,1020,1040,1060,1080,1100,1120,1140,1163,1180,1200,1219,1239,1260,1280,1299,1320,1339],"xSR":440,"ySR":852.6,"xT1":48,"yT1":0,"xT2":832,"yT2":0,"toosoon":0,"cond_shown":"Congruent","ratio_trial":100,"L_num":9,"L_den":15,"R_num":8,"R_den":16,"correct_side":1,"subjID":"16","gender":"No_gender","school":"No_school","age":"No_age"},{"start_time":1549308974105,"click_time":1549308975053,"finger_time":1549308974593,"fix_duration":250,"trial":2,"RT":488,"MT":460,"sideResp":1,"stimulus":[],"xmouse":[480,480,480,480,480,480,480,480,480,480,480,480,489.88336181640625,489.88336181640625,490.7066955566406,490.7066955566406,490.7066955566406,491.5299987792969,491.5299987792969,491.5299987792969,491.5299987792969,491.5299987792969,490.7066955566406,489.88336181640625,486.5899963378906,484.943359375,479.1800231933594,471.77001953125,469.3000183105469,466.0066833496094,465.1833801269531,462.71337890625,452.8333740234375,446.2466735839844,428.9566955566406,417.4300231933594,393.5533752441406,352.3866882324219,335.0966796875,300.5166931152344,281.58001708984375,251.94000244140625,220.65335083007812,211.5966796875,193.48333740234375,172.90000915527344,161.3733367919922,120.20667266845703],"ymouse":[898,898,898,898,898,898,898,898,898,898,898,898,894.1400146484375,893.3167114257812,893.3167114257812,892.4933471679688,891.6700439453125,888.376708984375,885.90673828125,881.7900390625,880.1433715820312,876.0267333984375,863.6767578125,856.2667236328125,840.6233520507812,831.5667114257812,809.3367309570312,778.8733520507812,765.7000122070312,744.2933959960938,734.4133911132812,704.7733764648438,638.0833740234375,615.8533935546875,567.2766723632812,541.7533569335938,489.88336181640625,413.3133544921875,386.14337158203125,331.8033752441406,304.6333312988281,255.23333740234375,201.71669006347656,185.25,154.7866668701172,123.5,106.20999908447266,56.810001373291016],"timestamp_mouse":[8,28,48,68,88,108,128,147,168,188,208,228,248,268,288,308,328,347,368,388,408,428,447,468,488,508,528,548,568,588,608,628,648,668,688,708,728,748,768,788,808,828,848,868,888,908,927,948],"xSR":440,"ySR":852.6,"xT1":48,"yT1":0,"xT2":832,"yT2":0,"toosoon":0,"cond_shown":"Equal","ratio_trial":200,"L_num":3,"L_den":6,"R_num":3,"R_den":10,"correct_side":1,"subjID":"16","gender":"No_gender","school":"No_school","age":"No_age"},{"start_time":1549308978631,"click_time":1549308979534,"finger_time":1549308979176,"fix_duration":1092.2701145392912,"trial":3,"RT":545,"MT":358,"sideResp":1,"stimulus":[],"xmouse":[496,496,496,496,496,496,496,496,496,496,496,496,496,496,496,496,496,496,496,496,496,496,496,496,498.11669921875,498.11669921875,498.11669921875,461.0666809082031,444.6000061035156,416.606689453125,396.8466796875,386.9666748046875,369.67669677734375,351.5633544921875,347.4466857910156,336.7433776855469,328.510009765625,311.2200012207031,279.1100158691406,269.2300109863281,251.94000244140625,242.05999755859375,217.36000061035156,158.90333557128906,132.55667114257812,104.56333923339844],"ymouse":[910,910,910,910,910,910,910,910,910,910,910,910,910,910,910,910,910,910,910,910,910,910,910,910,899.9033813476562,899.0800170898438,899.0800170898438,834.0367431640625,811.8067626953125,774.7567138671875,745.9400024414062,728.6500244140625,692.4234008789062,638.0833740234375,622.4400024414062,582.0966796875,558.2200317382812,506.3500061035156,421.54669189453125,392.7300109863281,339.21337890625,312.0433349609375,255.23333740234375,155.61000061035156,121.85334014892578,79.86334228515625],"timestamp_mouse":[2,27,42,62,82,102,122,142,162,182,201,222,243,262,281,302,322,341,362,382,402,422,442,462,482,502,522,545,562,582,602,622,641,662,682,702,722,742,762,782,802,822,842,862,882,902],"xSR":440,"ySR":852.6,"xT1":48,"yT1":0,"xT2":832,"yT2":0,"toosoon":0,"cond_shown":"Equal","ratio_trial":500,"L_num":6,"L_den":8,"R_num":6,"R_den":24,"correct_side":1,"subjID":"16","gender":"No_gender","school":"No_school","age":"No_age"},{"start_time":1549308982388,"click_time":1549308984314,"finger_time":1549308983033,"fix_duration":1054.0244533737534,"trial":4,"RT":645,"MT":1281,"sideResp":2,"stimulus":[],"xmouse":[487,487,487,487,487,487,487,487,487,487,487,487,487,487,487,487,496.4700012207031,496.4700012207031,497.2933654785156,498.11669921875,498.94000244140625,498.94000244140625,499.76336669921875,500.5867004394531,501.4100036621094,501.4100036621094,504.703369140625,508.82000732421875,511.2900085449219,517.0533447265625,519.5233764648438,531.8733520507812,542.57666015625,557.3966674804688,566.453369140625,587.8599853515625,619.1466674804688,630.6734008789062,651.2567138671875,665.2533569335938,694.0700073242188,737.7067260742188,752.5267333984375,779.6967163085938,792.0467529296875,817.5700073242188,851.3267211914062,860.3833618164062,879.3200073242188,888.376708984375,904.8433837890625,929.5433959960938,944.3634033203125,950.126708984375,961.6533813476562,963.300048828125,968.239990234375,969.0633544921875,969.0633544921875,969.0633544921875,968.239990234375,967.416748046875,967.416748046875,965.77001953125,964.1233520507812,964.1233520507812,964.1233520507812,964.1233520507812,964.1233520507812,964.1233520507812,964.1233520507812,964.1233520507812,964.1233520507812,964.1233520507812,964.1233520507812,964.1233520507812,964.1233520507812,964.1233520507812,964.1233520507812,964.1233520507812,964.1233520507812,964.1233520507812,964.1233520507812,964.1233520507812,964.1233520507812,964.1233520507812,964.1233520507812,964.1233520507812,964.1233520507812,964.1233520507812,964.1233520507812,964.1233520507812,964.1233520507812,964.1233520507812,964.1233520507812,964.1233520507812,897],"ymouse":[902,902,902,902,902,902,902,902,902,902,902,902,902,902,902,902,907.3133544921875,906.489990234375,905.666748046875,905.666748046875,904.8433837890625,904.8433837890625,904.02001953125,903.1967163085938,902.3733520507812,900.7267456054688,897.433349609375,894.96337890625,893.3167114257812,890.8467407226562,888.376708984375,876.8500366210938,859.5599975585938,834.8600463867188,815.9234008789062,776.4033813476562,717.1233520507812,698.1867065429688,661.13671875,641.376708984375,596.9166870117188,530.2266845703125,507.1733703613281,463.53668212890625,441.30670166015625,395.20001220703125,318.6300048828125,292.2833557128906,244.52999877929688,219.8300018310547,172.07667541503906,102.09333801269531,69.16000366210938,54.34000015258789,28.816667556762695,23.053335189819336,4.116666793823242,-5.763333797454834,-9.05666732788086,-13.173334121704102,-14.820000648498535,-16.46666717529297,-16.46666717529297,-15.64333438873291,-15.64333438873291,-15.64333438873291,-15.64333438873291,-15.64333438873291,-15.64333438873291,-15.64333438873291,-15.64333438873291,-15.64333438873291,-15.64333438873291,-15.64333438873291,-15.64333438873291,-15.64333438873291,-15.64333438873291,-15.64333438873291,-15.64333438873291,-15.64333438873291,-15.64333438873291,-15.64333438873291,-15.64333438873291,-15.64333438873291,-15.64333438873291,-15.64333438873291,-15.64333438873291,-15.64333438873291,-15.64333438873291,-15.64333438873291,-15.64333438873291,-15.64333438873291,-15.64333438873291,-15.64333438873291,-15.64333438873291,-15.64333438873291,46],"timestamp_mouse":[5,37,45,65,85,105,125,145,165,185,205,225,245,265,285,305,325,345,365,384,405,424,444,465,485,505,525,544,565,584,605,625,645,665,685,705,725,744,764,785,805,825,845,865,885,904,925,944,964,985,1005,1025,1045,1067,1085,1105,1125,1145,1165,1185,1205,1227,1245,1265,1285,1305,1325,1345,1365,1385,1405,1425,1445,1465,1485,1505,1525,1545,1565,1585,1605,1625,1644,1664,1684,1705,1725,1745,1765,1784,1805,1825,1845,1865,1885,1905,1925],"xSR":440,"ySR":852.6,"xT1":48,"yT1":0,"xT2":832,"yT2":0,"toosoon":0,"cond_shown":"Equal","ratio_trial":100,"L_num":6,"L_den":12,"R_num":6,"R_den":10,"correct_side":2,"subjID":"16","gender":"No_gender","school":"No_school","age":"No_age"},{"start_time":1549308986844,"click_time":1549308988053,"finger_time":1549308987573,"fix_duration":660.6771676192948,"trial":5,"RT":729,"MT":480,"sideResp":1,"stimulus":[],"xmouse":[509.64337158203125,509.64337158203125,510.4666748046875,510.4666748046875,511.2900085449219,512.1133422851562,512.1133422851562,512.9367065429688,512.9367065429688,513.760009765625,514.5833740234375,515.4066772460938,516.22998046875,517.0533447265625,518.7000122070312,520.3466796875,521.9933471679688,523.6400146484375,525.2866821289062,527.7567138671875,528.5800170898438,529.4033813476562,530.2266845703125,530.2266845703125,531.0499877929688,531.0499877929688,531.0499877929688,531.8733520507812,531.8733520507812,532.6967163085938,532.6967163085938,533.52001953125,533.52001953125,532.6967163085938,531.0499877929688,527.7567138671875,515.4066772460938,507.9967041015625,495.6466979980469,489.88336181640625,468.4766845703125,447.07000732421875,434.7200012207031,411.66668701171875,399.3166809082031,363.9133605957031,336.7433776855469,298.8699951171875,278.28668212890625,241.23667907714844,229.7100067138672,225.5933380126953,216.53668212890625,212.4199981689453,201.71669006347656,182.77999877929688,174.5466766357422,159.7266845703125,153.13999938964844,137.49667358398438,116.91334533691406],"ymouse":[909.7833862304688,909.7833862304688,908.9600219726562,908.9600219726562,907.3133544921875,907.3133544921875,906.489990234375,906.489990234375,905.666748046875,904.8433837890625,904.02001953125,903.1967163085938,902.3733520507812,902.3733520507812,901.550048828125,900.7267456054688,900.7267456054688,899.9033813476562,899.0800170898438,898.2567138671875,896.6100463867188,895.7867431640625,894.1400146484375,893.3167114257812,890.8467407226562,888.376708984375,885.90673828125,884.260009765625,880.9667358398438,876.8500366210938,876.0267333984375,873.5567626953125,871.9100341796875,869.4400024414062,860.3833618164062,853.7967529296875,832.3900146484375,820.0400390625,800.280029296875,791.223388671875,761.5833740234375,728.6500244140625,709.71337890625,669.3699951171875,648.7867431640625,587.0366821289062,540.9299926757812,484.1199951171875,452.8333740234375,393.5533752441406,369.67669677734375,359.79669189453125,333.45001220703125,316.9833679199219,280.7566833496094,226.41668701171875,206.65667724609375,169.606689453125,154.7866668701172,123.5,78.2166748046875],"timestamp_mouse":[21,29,55,69,91,109,129,149,169,189,209,229,250,269,291,309,329,349,369,390,409,428,448,468,491,509,529,549,569,590,609,629,649,669,690,709,729,749,769,788,809,829,849,869,888,909,928,949,969,991,1009,1028,1049,1069,1088,1108,1129,1149,1169,1189,1209],"xSR":440,"ySR":852.6,"xT1":48,"yT1":0,"xT2":832,"yT2":0,"toosoon":0,"cond_shown":"Incongruent","ratio_trial":300,"L_num":8,"L_den":10,"R_num":9,"R_den":18,"correct_side":1,"subjID":"16","gender":"No_gender","school":"No_school","age":"No_age"},{"start_time":1549308991578,"click_time":1549308992813,"finger_time":1549308992133,"fix_duration":603.1220904639097,"trial":6,"RT":555,"MT":680,"sideResp":1,"stimulus":[],"xmouse":[476,476,476,476,476,476,476,476,476,476,476,476,476,476,476,475.0633544921875,474.2400207519531,474.2400207519531,474.2400207519531,466.0066833496094,461.8900146484375,460.2433776855469,455.3033752441406,453.65667724609375,447.07000732421875,442.953369140625,441.30670166015625,437.19000244140625,435.5433654785156,429.7799987792969,428.9566955566406,428.13336181640625,428.13336181640625,428.9566955566406,429.7799987792969,428.9566955566406,428.13336181640625,426.4866943359375,423.193359375,412.4900207519531,404.2566833496094,380.3800048828125,367.2066955566406,339.21337890625,293.106689453125,277.4633483886719,246.1766815185547,213.24334716796875,198.42333984375,159.7266845703125,136.67333984375,124.3233413696289,107.85667419433594,100.44667053222656,89.74333953857422,85.62667083740234,85.62667083740234,81.51000213623047,80.6866683959961,72.45333862304688,69.16000366210938,65.86666870117188],"ymouse":[920,920,920,920,920,920,920,920,920,920,920,920,920,920,920,910.6067504882812,908.9600219726562,908.9600219726562,908.9600219726562,896.6100463867188,890.8467407226562,888.376708984375,882.6134033203125,879.3200073242188,871.0867309570312,864.5,862.030029296875,854.6199951171875,851.3267211914062,834.8600463867188,830.7433471679688,821.6867065429688,817.5700073242188,807.6900024414062,789.5767211914062,782.989990234375,768.9933471679688,763.2300415039062,750.0567626953125,725.3567504882812,710.5367431640625,676.780029296875,659.489990234375,624.086669921875,568.1000366210938,548.3400268554688,503.05670166015625,461.0666809082031,440.4833679199219,377.9100036621094,337.5666809082031,312.0433349609375,279.933349609375,265.9366760253906,227.24000549316406,197.60000610351562,186.07334899902344,159.7266845703125,151.49334716796875,119.38333892822266,102.91667175292969,93.86000061035156],"timestamp_mouse":[15,35,55,74,95,114,134,155,175,194,215,234,255,275,295,315,335,355,375,397,415,434,455,475,496,515,535,555,575,596,615,634,655,675,695,714,735,755,775,795,815,835,855,875,896,915,935,955,975,996,1015,1035,1055,1075,1096,1114,1135,1155,1175,1196,1214,1235],"xSR":440,"ySR":852.6,"xT1":48,"yT1":0,"xT2":832,"yT2":0,"toosoon":0,"cond_shown":"Equal","ratio_trial":100,"L_num":6,"L_den":12,"R_num":6,"R_den":10,"correct_side":2,"subjID":"16","gender":"No_gender","school":"No_school","age":"No_age"},{"start_time":1549308995553,"click_time":1549308996654,"finger_time":1549308996313,"fix_duration":879.3053838443874,"trial":7,"RT":760,"MT":341,"sideResp":2,"stimulus":[],"xmouse":[490.7066955566406,490.7066955566406,490.7066955566406,490.7066955566406,489.88336181640625,489.88336181640625,489.88336181640625,489.88336181640625,489.88336181640625,489.88336181640625,489.88336181640625,489.88336181640625,489.05999755859375,488.2366943359375,488.2366943359375,488.2366943359375,488.2366943359375,488.2366943359375,488.2366943359375,488.2366943359375,488.2366943359375,488.2366943359375,488.2366943359375,478.356689453125,478.356689453125,478.356689453125,476.71002197265625,476.71002197265625,477.5333557128906,477.5333557128906,478.356689453125,478.356689453125,481.6500244140625,484.1199951171875,485.7666931152344,490.7066955566406,497.2933654785156,503.05670166015625,536.8133544921875,559.86669921875,570.5700073242188,598.5633544921875,612.5599975585938,649.6099853515625,675.1333618164062,689.1300048828125,716.2999877929688,728.6500244140625,765.7000122070312,789.5767211914062,801.1033935546875,818.3933715820312,833.21337890625,856.2667236328125,863.6767578125,874.3800048828125],"ymouse":[895.7867431640625,895.7867431640625,895.7867431640625,895.7867431640625,895.7867431640625,895.7867431640625,895.7867431640625,895.7867431640625,895.7867431640625,895.7867431640625,895.7867431640625,895.7867431640625,896.6100463867188,896.6100463867188,896.6100463867188,896.6100463867188,896.6100463867188,896.6100463867188,896.6100463867188,896.6100463867188,896.6100463867188,896.6100463867188,896.6100463867188,895.7867431640625,895.7867431640625,895.7867431640625,894.1400146484375,892.4933471679688,891.6700439453125,890.8467407226562,890.0233764648438,889.2000122070312,887.5534057617188,885.90673828125,885.0833740234375,884.260009765625,880.9667358398438,877.6734008789062,836.5067138671875,790.4000244140625,765.7000122070312,712.183349609375,680.0733642578125,577.1566772460938,507.1733703613281,474.2400207519531,411.66668701171875,384.4966735839844,307.10333251953125,262.6433410644531,239.5900115966797,200.07000732421875,167.13668823242188,122.67667388916016,108.68000030517578,88.09667205810547],"timestamp_mouse":[2,20,43,59,80,100,120,140,160,180,199,220,240,263,280,300,320,340,360,380,400,420,440,462,480,499,521,542,560,580,600,619,643,660,679,700,720,740,760,780,800,820,840,861,880,900,920,940,960,980,1000,1019,1040,1061,1080,1100],"xSR":440,"ySR":852.6,"xT1":48,"yT1":0,"xT2":832,"yT2":0,"toosoon":0,"cond_shown":"Incongruent","ratio_trial":500,"L_num":7,"L_den":21,"R_num":5,"R_den":6,"correct_side":2,"subjID":"16","gender":"No_gender","school":"No_school","age":"No_age"},{"start_time":1549308999968,"click_time":1549309001213,"finger_time":1549309000593,"fix_duration":534.0900517206825,"trial":8,"RT":625,"MT":620,"sideResp":1,"stimulus":[],"xmouse":[475,475,475,475,475,475,475,475,475,475,475,475,475,475,475,475,475,475,475,475,475,475,475,479.1800231933594,479.1800231933594,479.1800231933594,479.1800231933594,477.5333557128906,474.2400207519531,472.5933532714844,467.65338134765625,464.3600158691406,452.8333740234375,416.606689453125,401.78668212890625,372.1466979980469,358.9733581542969,333.45001220703125,297.2233581542969,271.70001220703125,263.4666748046875,243.70668029785156,237.12001037597656,223.94668579101562,220.65335083007812,218.183349609375,214.06668090820312,210.77334594726562,197.60000610351562,181.1333465576172,169.606689453125,153.96334838867188,143.260009765625,125.14667510986328,116.09000396728516,112.79666900634766,109.50334167480469,108.68000030517578,104.56333923339844,102.09333801269531,100.44667053222656,99.62334442138672,97.97666931152344],"ymouse":[894,894,894,894,894,894,894,894,894,894,894,894,894,894,894,894,894,894,894,894,894,894,894,885.90673828125,884.260009765625,884.260009765625,884.260009765625,876.8500366210938,869.4400024414062,865.3233642578125,855.443359375,847.2100219726562,821.6867065429688,759.9367065429688,739.3533935546875,696.5400390625,673.4867553710938,626.5567016601562,550.8099975585938,496.4700012207031,477.5333557128906,437.19000244140625,419.0766906738281,377.9100036621094,358.1499938964844,345.8000183105469,325.2166748046875,312.0433349609375,280.7566833496094,251.94000244140625,242.8833465576172,221.4766845703125,210.77334594726562,178.66334533691406,158.90333557128906,152.31666564941406,144.08334350585938,139.9666748046875,121.02999877929688,110.32667541503906,107.03334045410156,100.44667053222656,94.68334197998047],"timestamp_mouse":[5,30,44,65,85,105,125,145,165,185,205,224,245,265,285,305,325,345,364,385,405,424,445,466,485,505,525,545,565,584,604,625,645,665,686,704,725,745,766,785,805,825,845,866,885,905,925,945,966,985,1005,1025,1045,1066,1085,1104,1125,1145,1167,1185,1205,1224,1245],"xSR":440,"ySR":852.6,"xT1":48,"yT1":0,"xT2":832,"yT2":0,"toosoon":0,"cond_shown":"Incongruent","ratio_trial":200,"L_num":1,"L_den":3,"R_num":2,"R_den":15,"correct_side":1,"subjID":"16","gender":"No_gender","school":"No_school","age":"No_age"},{"start_time":1549309008231,"click_time":1549309009933,"finger_time":1549309008996,"fix_duration":250,"trial":9,"RT":765,"MT":937,"sideResp":1,"stimulus":[],"xmouse":[498,498,498,498,498,498,498,498,498,498,498,498,498,498,498,498,498,498,498,498,498,498,498,498,498,498,498,498,498,498,489.88336181640625,489.88336181640625,488.2366943359375,485.7666931152344,482.4733581542969,480.8266906738281,476.71002197265625,473.41668701171875,440.4833679199219,400.96337890625,379.55670166015625,335.9200134277344,309.5733337402344,219.00668334960938,173.7233428955078,145.72999572753906,130.91000366210938,121.85334014892578,83.15666961669922,59.28000259399414,49.400001525878906,30.463335037231445,22.229999542236328,12.350000381469727,9.880000114440918,9.05666732788086,9.880000114440918,9.880000114440918,12.350000381469727,12.350000381469727,12.350000381469727,12.350000381469727,12.350000381469727,12.350000381469727,12.350000381469727,12.350000381469727,12.350000381469727,12.350000381469727,12.350000381469727,13.996667861938477,13.996667861938477,15.64333438873291,15.64333438873291,15.64333438873291,15.64333438873291,19.760000228881836,20.583335876464844,22.229999542236328,22.229999542236328,25.523334503173828,27.993335723876953,30.463335037231445,35.40333557128906,37.87333679199219,47.753334045410156,55.16333770751953],"ymouse":[915,915,915,915,915,915,915,915,915,915,915,915,915,915,915,915,915,915,915,915,915,915,915,915,915,915,915,915,915,915,909.7833862304688,909.7833862304688,907.3133544921875,902.3733520507812,898.2567138671875,895.7867431640625,890.0233764648438,885.0833740234375,825.8034057617188,755.8200073242188,724.5333862304688,663.6067504882812,625.7333984375,498.11669921875,428.13336181640625,361.443359375,323.57000732421875,288.9900207519531,195.95333862304688,148.1999969482422,122.67667388916016,77.3933334350586,55.986671447753906,9.880000114440918,-1.6466667652130127,-4.940000057220459,-11.526667594909668,-13.173334121704102,-16.46666717529297,-15.64333438873291,-15.64333438873291,-14.820000648498535,-14.820000648498535,-14.820000648498535,-14.820000648498535,-14.820000648498535,-14.820000648498535,-14.820000648498535,-14.820000648498535,-9.880000114440918,-9.880000114440918,-5.763333797454834,-5.763333797454834,-5.763333797454834,-5.763333797454834,8.233333587646484,8.233333587646484,9.880000114440918,10.703333854675293,13.173334121704102,13.996667861938477,14.820000648498535,16.46666717529297,18.11333465576172,21.406667709350586,26.346668243408203],"timestamp_mouse":[18,22,42,62,82,102,122,142,162,182,202,221,242,262,282,302,322,342,362,381,402,422,442,462,482,502,522,542,562,581,604,622,642,662,682,702,722,742,765,781,802,822,842,862,882,901,922,942,963,982,1002,1022,1041,1063,1082,1102,1122,1141,1164,1185,1202,1221,1242,1262,1281,1302,1322,1342,1361,1382,1402,1422,1442,1462,1482,1502,1522,1542,1562,1583,1602,1622,1642,1662,1685,1702],"xSR":440,"ySR":852.6,"xT1":48,"yT1":0,"xT2":832,"yT2":0,"toosoon":0,"cond_shown":"Equal","ratio_trial":500,"L_num":6,"L_den":8,"R_num":6,"R_den":24,"correct_side":1,"subjID":"16","gender":"No_gender","school":"No_school","age":"No_age"},{"start_time":1549309013502,"click_time":1549309014613,"finger_time":1549309014013,"fix_duration":1044.8467068074222,"trial":10,"RT":511,"MT":600,"sideResp":2,"stimulus":[],"xmouse":[494,494,494,494.8233642578125,494.8233642578125,494.8233642578125,495.6466979980469,495.6466979980469,495.6466979980469,496.4700012207031,497.2933654785156,497.2933654785156,497.2933654785156,498.11669921875,498.94000244140625,499.76336669921875,500.5867004394531,502.2333679199219,503.05670166015625,504.703369140625,506.3500061035156,507.1733703613281,507.1733703613281,505.5267028808594,498.11669921875,477.5333557128906,467.65338134765625,464.3600158691406,457.77337646484375,454.4800109863281,455.3033752441406,459.4200134277344,461.8900146484375,470.1233825683594,476.71002197265625,495.6466979980469,512.1133422851562,521.1699829101562,537.63671875,548.3400268554688,583.7433471679688,610.0900268554688,624.086669921875,647.96337890625,660.3133544921875,708.8900146484375,719.5933837890625,741,751.703369140625,775.5800170898438,803.5733642578125,809.3367309570312,818.3933715820312,824.9800415039062,837.3300170898438],"ymouse":[894.96337890625,894.1400146484375,894.1400146484375,893.3167114257812,893.3167114257812,893.3167114257812,892.4933471679688,892.4933471679688,892.4933471679688,892.4933471679688,891.6700439453125,891.6700439453125,891.6700439453125,891.6700439453125,890.8467407226562,889.2000122070312,888.376708984375,886.7300415039062,885.90673828125,883.4367065429688,878.4967651367188,876.0267333984375,870.2633666992188,861.2067260742188,815.9234008789062,745.9400024414062,715.4767456054688,700.65673828125,665.2533569335938,645.4933471679688,586.21337890625,559.0433959960938,547.5166625976562,523.6400146484375,507.1733703613281,461.0666809082031,428.13336181640625,414.1366882324219,387.7900085449219,377.0867004394531,343.33001708984375,318.6300048828125,307.92669677734375,285.6966857910156,276.6400146484375,226.41668701171875,211.5966796875,183.6033477783203,168.78334045410156,142.43667602539062,116.09000396728516,111.1500015258789,102.91667175292969,97.97666931152344,89.74333953857422],"timestamp_mouse":[31,51,70,91,111,131,151,170,190,211,231,251,271,291,311,331,351,371,391,411,430,450,471,491,511,531,550,571,590,611,631,651,671,691,711,731,751,771,791,811,833,851,871,891,910,932,951,971,991,1010,1032,1051,1071,1091,1110],"xSR":440,"ySR":852.6,"xT1":48,"yT1":0,"xT2":832,"yT2":0,"toosoon":0,"cond_shown":"Incongruent","ratio_trial":200,"L_num":4,"L_den":30,"R_num":1,"R_den":3,"correct_side":2,"subjID":"16","gender":"No_gender","school":"No_school","age":"No_age"},{"start_time":1549309018516,"click_time":1549309020353,"finger_time":1549309019353,"fix_duration":641.4875923167984,"trial":11,"RT":837,"MT":1000,"sideResp":2,"stimulus":[],"xmouse":[504,504,504,504,504,504,504,504,504,504,504,504,496.4700012207031,495.6466979980469,494.8233642578125,494,494,494,494,494,494,494.8233642578125,494.8233642578125,495.6466979980469,496.4700012207031,496.4700012207031,497.2933654785156,496.4700012207031,496.4700012207031,496.4700012207031,495.6466979980469,496.4700012207031,497.2933654785156,498.94000244140625,500.5867004394531,502.2333679199219,503.8800048828125,507.9967041015625,508.82000732421875,508.82000732421875,507.9967041015625,506.3500061035156,501.4100036621094,495.6466979980469,493.17669677734375,487.4133605957031,484.1199951171875,475.0633544921875,469.3000183105469,466.83001708984375,464.3600158691406,463.53668212890625,469.3000183105469,473.41668701171875,480.8266906738281,485.7666931152344,494,510.4666748046875,517.0533447265625,527.7567138671875,535.989990234375,549.1633911132812,577.9800415039062,591.9766845703125,622.4400024414062,635.6133422851562,661.13671875,700.65673828125,713.0067138671875,738.530029296875,750.8800048828125,771.46337890625,796.1633911132812,810.9833984375,815.1000366210938,821.6867065429688,824.15673828125,833.21337890625,840.6233520507812,843.916748046875,848.8567504882812,850.5033569335938,858.7367553710938,864.5,866.9700317382812,871.9100341796875,873.5567626953125,878.4967651367188,880.9667358398438,884.260009765625,885.0833740234375,886.7300415039062],"ymouse":[902,902,902,902,902,902,902,902,902,902,902,902,896.6100463867188,897.433349609375,897.433349609375,896.6100463867188,895.7867431640625,894.96337890625,894.1400146484375,893.3167114257812,892.4933471679688,890.8467407226562,889.2000122070312,887.5534057617188,885.90673828125,884.260009765625,880.9667358398438,876.8500366210938,874.3800048828125,873.5567626953125,871.9100341796875,870.2633666992188,866.9700317382812,865.3233642578125,863.6767578125,861.2067260742188,860.3833618164062,857.9133911132812,856.2667236328125,855.443359375,852.973388671875,852.1500244140625,846.38671875,843.0933837890625,839.7999877929688,832.3900146484375,827.4500122070312,810.1600341796875,796.9867553710938,790.4000244140625,778.0499877929688,768.9933471679688,758.2900390625,756.6433715820312,751.703369140625,750.0567626953125,745.9400024414062,735.2367553710938,730.2967529296875,719.5933837890625,710.5367431640625,695.7167358398438,664.4299926757812,649.6099853515625,616.6766967773438,601.856689453125,572.2166748046875,527.7567138671875,512.9367065429688,480.8266906738281,464.3600158691406,434.7200012207031,392.7300109863281,362.2666931152344,352.3866882324219,338.3900146484375,332.6266784667969,293.92999267578125,263.4666748046875,248.6466827392578,223.94668579101562,213.24334716796875,185.25,171.2533416748047,167.13668823242188,157.2566680908203,153.13999938964844,139.9666748046875,130.086669921875,117.7366714477539,111.1500015258789,98.80000305175781],"timestamp_mouse":[17,37,57,77,97,117,137,157,177,197,217,237,257,277,297,317,337,357,377,397,416,439,457,476,497,517,537,557,576,597,617,637,659,677,697,717,737,757,777,797,817,837,858,877,897,917,937,957,977,996,1017,1037,1058,1076,1096,1116,1136,1157,1177,1197,1217,1237,1257,1277,1297,1317,1337,1357,1377,1397,1417,1437,1458,1477,1497,1523,1537,1559,1577,1598,1617,1637,1659,1677,1697,1717,1737,1758,1777,1797,1817,1837],"xSR":440,"ySR":852.6,"xT1":48,"yT1":0,"xT2":832,"yT2":0,"toosoon":0,"cond_shown":"Incongruent","ratio_trial":200,"L_num":11,"L_den":20,"R_num":3,"R_den":4,"correct_side":2,"subjID":"16","gender":"No_gender","school":"No_school","age":"No_age"},{"start_time":1549309023899,"click_time":1549309024694,"finger_time":1549309024272,"fix_duration":1365.4477519349148,"trial":12,"RT":373,"MT":422,"sideResp":1,"stimulus":[],"xmouse":[491.5299987792969,491.5299987792969,491.5299987792969,491.5299987792969,491.5299987792969,491.5299987792969,491.5299987792969,491.5299987792969,491.5299987792969,491.5299987792969,490.7066955566406,489.88336181640625,489.05999755859375,488.2366943359375,484.943359375,482.4733581542969,480.8266906738281,466.83001708984375,454.4800109863281,412.4900207519531,395.20001220703125,386.9666748046875,371.3233642578125,363.0899963378906,327.6866760253906,307.92669677734375,298.8699951171875,279.933349609375,269.2300109863281,237.12001037597656,209.12667846679688,195.1300048828125,172.07667541503906,163.02000427246094,146.5533447265625,130.086669921875,126.79334259033203,121.85334014892578,118.56000518798828,111.1500015258789],"ymouse":[910.6067504882812,910.6067504882812,910.6067504882812,909.7833862304688,909.7833862304688,909.7833862304688,908.9600219726562,908.9600219726562,908.9600219726562,908.13671875,908.13671875,907.3133544921875,906.489990234375,905.666748046875,903.1967163085938,900.7267456054688,896.6100463867188,866.146728515625,839.7999877929688,751.703369140625,710.5367431640625,690.7767333984375,647.1400146484375,621.61669921875,537.63671875,489.88336181640625,470.1233825683594,426.4866943359375,401.78668212890625,329.3333740234375,277.4633483886719,251.94000244140625,209.12667846679688,194.3066864013672,166.31333923339844,135.85000610351562,129.26333618164062,116.91334533691406,107.85667419433594,90.5666732788086],"timestamp_mouse":[29,34,54,74,94,113,134,153,174,194,214,234,254,274,295,314,334,354,373,395,414,434,454,473,497,514,534,554,574,596,614,633,654,674,694,714,733,754,774,793],"xSR":440,"ySR":852.6,"xT1":48,"yT1":0,"xT2":832,"yT2":0,"toosoon":0,"cond_shown":"Equal","ratio_trial":500,"L_num":6,"L_den":8,"R_num":6,"R_den":24,"correct_side":1,"subjID":"16","gender":"No_gender","school":"No_school","age":"No_age"},{"start_time":1549309026753,"click_time":1549309028013,"finger_time":1549309027534,"fix_duration":250,"trial":13,"RT":781,"MT":479,"sideResp":1,"stimulus":[],"xmouse":[496.4700012207031,495.6466979980469,495.6466979980469,495.6466979980469,495.6466979980469,495.6466979980469,495.6466979980469,495.6466979980469,495.6466979980469,495.6466979980469,495.6466979980469,497.2933654785156,497.2933654785156,497.2933654785156,497.2933654785156,497.2933654785156,497.2933654785156,497.2933654785156,496.4700012207031,495.6466979980469,495.6466979980469,494.8233642578125,494,490.7066955566406,488.2366943359375,488.2366943359375,486.5899963378906,486.5899963378906,487.4133605957031,489.05999755859375,490.7066955566406,494,495.6466979980469,501.4100036621094,504.703369140625,505.5267028808594,507.1733703613281,507.9967041015625,506.3500061035156,502.2333679199219,498.94000244140625,491.5299987792969,482.4733581542969,454.4800109863281,443.7767028808594,423.193359375,413.3133544921875,386.9666748046875,343.33001708984375,327.6866760253906,296.3999938964844,281.58001708984375,252.7633514404297,210.77334594726562,196.7766876220703,171.2533416748047,160.5500030517578,142.43667602539062,124.3233413696289,120.20667266845703,112.79666900634766,108.68000030517578,99.62334442138672],"ymouse":[922.1333618164062,922.9567260742188,922.9567260742188,922.9567260742188,922.9567260742188,922.9567260742188,922.9567260742188,922.9567260742188,922.9567260742188,922.9567260742188,922.9567260742188,920.4867553710938,920.4867553710938,920.4867553710938,920.4867553710938,920.4867553710938,920.4867553710938,920.4867553710938,916.3699951171875,915.5467529296875,913.0767211914062,912.2533569335938,909.7833862304688,906.489990234375,904.02001953125,903.1967163085938,899.9033813476562,898.2567138671875,891.6700439453125,887.5534057617188,885.0833740234375,880.1433715820312,878.4967651367188,872.7333984375,868.6167602539062,866.9700317382812,861.2067260742188,858.7367553710938,847.2100219726562,835.683349609375,826.626708984375,810.1600341796875,787.1067504882812,732.7667236328125,715.4767456054688,681.7200317382812,663.6067504882812,623.2633666992188,554.9266967773438,531.8733520507812,484.1199951171875,462.71337890625,416.606689453125,346.62335205078125,322.7466735839844,279.933349609375,260.17333984375,223.1233367919922,177.83999633789062,163.8433380126953,134.20333862304688,117.7366714477539,85.62667083740234],"timestamp_mouse":[10,44,60,79,100,119,140,160,180,200,220,240,259,279,299,320,340,360,380,400,419,440,460,479,499,520,540,561,579,600,620,639,660,680,700,720,739,760,781,800,820,840,860,880,901,921,940,960,980,999,1020,1040,1060,1079,1100,1120,1140,1160,1180,1201,1220,1239,1260],"xSR":440,"ySR":852.6,"xT1":48,"yT1":0,"xT2":832,"yT2":0,"toosoon":0,"cond_shown":"Congruent","ratio_trial":300,"L_num":1,"L_den":5,"R_num":3,"R_den":6,"correct_side":2,"subjID":"16","gender":"No_gender","school":"No_school","age":"No_age"},{"start_time":1549309030164,"click_time":1549309031554,"finger_time":1549309030933,"fix_duration":250,"trial":14,"RT":769,"MT":621,"sideResp":2,"stimulus":[],"xmouse":[496,496,496,496,496,496,496,496,496,496,496,496,496,496,496,496,496,496,496,496,496,496,496,496,495.6466979980469,495.6466979980469,495.6466979980469,496.4700012207031,497.2933654785156,498.94000244140625,499.76336669921875,501.4100036621094,501.4100036621094,503.05670166015625,503.8800048828125,503.05670166015625,502.2333679199219,495.6466979980469,491.5299987792969,475.8866882324219,464.3600158691406,459.4200134277344,449.5400085449219,446.2466735839844,436.36669921875,432.25,431.42669677734375,432.25,433.8966979980469,444.6000061035156,454.4800109863281,459.4200134277344,474.2400207519531,484.943359375,528.5800170898438,557.3966674804688,571.3933715820312,599.38671875,614.2066650390625,680.896728515625,697.3634033203125,727.0033569335938,741.8233642578125,771.46337890625,804.396728515625,813.453369140625,829.9200439453125,838.1533813476562,850.5033569335938,862.8533935546875],"ymouse":[913,913,913,913,913,913,913,913,913,913,913,913,913,913,913,913,913,913,913,913,913,913,913,913,900.7267456054688,900.7267456054688,900.7267456054688,896.6100463867188,894.96337890625,891.6700439453125,890.0233764648438,888.376708984375,886.7300415039062,884.260009765625,880.1433715820312,878.4967651367188,872.7333984375,859.5599975585938,849.6799926757812,816.7467041015625,794.5167236328125,783.8133544921875,764.876708984375,756.6433715820312,732.7667236328125,717.1233520507812,710.5367431640625,697.3634033203125,692.4234008789062,671.8400268554688,657.8433837890625,651.2567138671875,632.3200073242188,619.9700317382812,565.6300048828125,523.6400146484375,503.05670166015625,465.1833801269531,444.6000061035156,361.443359375,341.6833801269531,304.6333312988281,287.3433532714844,249.47000122070312,200.89334106445312,186.8966827392578,161.3733367919922,148.1999969482422,121.85334014892578,88.91999816894531],"timestamp_mouse":[9,29,49,69,89,116,129,149,169,188,209,229,249,268,289,309,329,349,369,389,408,429,449,469,492,509,528,549,569,589,608,629,649,669,689,708,729,749,769,789,809,829,849,868,889,909,929,949,969,990,1009,1029,1049,1069,1089,1109,1129,1149,1169,1189,1209,1229,1249,1269,1290,1309,1329,1349,1368,1390],"xSR":440,"ySR":852.6,"xT1":48,"yT1":0,"xT2":832,"yT2":0,"toosoon":0,"cond_shown":"Equal","ratio_trial":200,"L_num":3,"L_den":10,"R_num":3,"R_den":6,"correct_side":2,"subjID":"16","gender":"No_gender","school":"No_school","age":"No_age"},{"start_time":1549309033685,"click_time":1549309034553,"finger_time":1549309034193,"fix_duration":250,"trial":15,"RT":508,"MT":360,"sideResp":1,"stimulus":[],"xmouse":[492,492,492,492,492,492,492,492,492,492,492,492,492,492,492,492,492,492,492,492,492,493.17669677734375,493.17669677734375,493.17669677734375,492.3533630371094,483.29669189453125,474.2400207519531,448.7166748046875,436.36669921875,387.7900085449219,376.26336669921875,349.91668701171875,335.0966796875,308.75,267.5833435058594,256.0566711425781,232.1800079345703,223.1233367919922,208.3033447265625,186.07334899902344,177.83999633789062,164.66668701171875,157.2566680908203,144.08334350585938],"ymouse":[899,899,899,899,899,899,899,899,899,899,899,899,899,899,899,899,899,899,899,899,899,887.5534057617188,883.4367065429688,877.6734008789062,866.146728515625,832.3900146484375,806.0433959960938,749.2333984375,724.5333862304688,631.4967041015625,605.973388671875,552.4566650390625,524.46337890625,466.83001708984375,376.26336669921875,349.0933532714844,293.92999267578125,270.8766784667969,229.7100067138672,173.7233428955078,156.433349609375,130.086669921875,115.26667022705078,95.50666809082031],"timestamp_mouse":[9,33,48,68,88,108,128,148,169,188,208,228,248,268,288,308,328,348,367,388,408,428,448,468,489,508,528,548,568,589,608,627,648,667,689,708,728,748,768,789,808,827,848,867],"xSR":440,"ySR":852.6,"xT1":48,"yT1":0,"xT2":832,"yT2":0,"toosoon":0,"cond_shown":"Incongruent","ratio_trial":200,"L_num":3,"L_den":4,"R_num":11,"R_den":20,"correct_side":1,"subjID":"16","gender":"No_gender","school":"No_school","age":"No_age"},{"start_time":1549309036817,"click_time":1549309037973,"finger_time":1549309037513,"fix_duration":641.5474455852512,"trial":16,"RT":696,"MT":460,"sideResp":2,"stimulus":[],"xmouse":[498.94000244140625,498.94000244140625,498.94000244140625,498.94000244140625,499.76336669921875,499.76336669921875,499.76336669921875,499.76336669921875,499.76336669921875,499.76336669921875,500.5867004394531,500.5867004394531,500.5867004394531,501.4100036621094,501.4100036621094,501.4100036621094,502.2333679199219,502.2333679199219,503.05670166015625,503.05670166015625,503.8800048828125,503.8800048828125,503.8800048828125,503.05670166015625,503.05670166015625,503.05670166015625,503.05670166015625,503.8800048828125,505.5267028808594,507.1733703613281,508.82000732421875,512.1133422851562,513.760009765625,519.5233764648438,535.1666870117188,543.4000244140625,563.1600341796875,574.6867065429688,601.0333862304688,615.8533935546875,622.4400024414062,635.6133422851562,642.2000122070312,661.9600219726562,672.6633911132812,677.6033935546875,690.7767333984375,697.3634033203125,727.0033569335938,736.0599975585938,753.3500366210938,763.2300415039062,779.6967163085938,803.5733642578125,810.9833984375,824.15673828125,831.5667114257812,843.916748046875],"ymouse":[897.433349609375,898.2567138671875,898.2567138671875,898.2567138671875,898.2567138671875,898.2567138671875,898.2567138671875,898.2567138671875,898.2567138671875,898.2567138671875,898.2567138671875,899.0800170898438,899.0800170898438,899.0800170898438,899.0800170898438,898.2567138671875,898.2567138671875,898.2567138671875,897.433349609375,896.6100463867188,895.7867431640625,893.3167114257812,892.4933471679688,888.376708984375,886.7300415039062,883.4367065429688,881.7900390625,878.4967651367188,874.3800048828125,872.7333984375,869.4400024414062,866.146728515625,863.6767578125,856.2667236328125,831.5667114257812,819.2167358398438,783.8133544921875,761.5833740234375,697.3634033203125,657.02001953125,637.260009765625,597.739990234375,577.9800415039062,518.7000122070312,482.4733581542969,465.1833801269531,427.30999755859375,409.1966857910156,341.6833801269531,324.39337158203125,289.8133544921875,271.70001220703125,233.82669067382812,176.19334411621094,156.433349609375,118.56000518798828,100.44667053222656,73.27667236328125],"timestamp_mouse":[16,36,56,76,96,116,136,156,175,196,216,235,256,275,296,315,336,356,376,396,416,436,455,476,496,516,536,556,576,596,616,636,656,676,696,716,736,756,778,796,816,836,855,878,895,916,936,956,978,997,1015,1036,1056,1078,1096,1116,1136,1156],"xSR":440,"ySR":852.6,"xT1":48,"yT1":0,"xT2":832,"yT2":0,"toosoon":0,"cond_shown":"Congruent","ratio_trial":100,"L_num":8,"L_den":16,"R_num":2,"R_den":5,"correct_side":1,"subjID":"16","gender":"No_gender","school":"No_school","age":"No_age"},{"start_time":1549309041260,"click_time":1549309042093,"finger_time":1549309041692,"fix_duration":1485.0362075907942,"trial":17,"RT":432,"MT":401,"sideResp":1,"stimulus":[],"xmouse":[491,491,491,491,491,491,491,491,491,491,491,491,491,491,491,491,493.17669677734375,494,494,490.7066955566406,487.4133605957031,475.8866882324219,467.65338134765625,433.0733642578125,410.8433532714844,400.96337890625,374.61669921875,361.443359375,310.3966979980469,282.4033508300781,271.70001220703125,251.11668395996094,242.05999755859375,219.00668334960938,201.71669006347656,193.48333740234375,177.0166778564453,160.5500030517578,147.37667846679688,136.67333984375,133.3800048828125,128.44000244140625],"ymouse":[913,913,913,913,913,913,913,913,913,913,913,913,913,913,913,913,903.1967163085938,901.550048828125,901.550048828125,877.6734008789062,864.5,832.3900146484375,812.6300048828125,749.2333984375,713.0067138671875,693.2467041015625,652.0800170898438,627.3800048828125,535.989990234375,480.00335693359375,456.95001220703125,412.4900207519531,390.260009765625,325.2166748046875,279.1100158691406,255.23333740234375,212.4199981689453,174.5466766357422,142.43667602539062,115.26667022705078,105.38667297363281,93.03667449951172],"timestamp_mouse":[13,33,53,73,93,113,133,153,173,193,212,233,253,273,293,313,333,353,373,392,413,432,453,472,493,513,533,553,573,593,613,633,653,673,693,712,733,753,773,793,813,833],"xSR":440,"ySR":852.6,"xT1":48,"yT1":0,"xT2":832,"yT2":0,"toosoon":0,"cond_shown":"Congruent","ratio_trial":200,"L_num":12,"L_den":15,"R_num":6,"R_den":10,"correct_side":1,"subjID":"16","gender":"No_gender","school":"No_school","age":"No_age"},{"start_time":1549309044103,"click_time":1549309044993,"finger_time":1549309044653,"fix_duration":606.0592828401437,"trial":18,"RT":550,"MT":340,"sideResp":1,"stimulus":[],"xmouse":[473.41668701171875,473.41668701171875,473.41668701171875,473.41668701171875,473.41668701171875,473.41668701171875,473.41668701171875,473.41668701171875,474.2400207519531,474.2400207519531,474.2400207519531,474.2400207519531,474.2400207519531,474.2400207519531,474.2400207519531,474.2400207519531,474.2400207519531,474.2400207519531,475.0633544921875,475.0633544921875,475.8866882324219,476.71002197265625,478.356689453125,477.5333557128906,475.0633544921875,471.77001953125,452.8333740234375,416.606689453125,405.90338134765625,383.6733703613281,372.1466979980469,349.0933532714844,313.69000244140625,305.4566955566406,284.87335205078125,275.8166809082031,254.41000366210938,220.65335083007812,209.9499969482422,191.01333618164062,181.95668029785156,167.13668823242188,150.6699981689453,144.90667724609375,134.20333862304688],"ymouse":[921.3099975585938,921.3099975585938,921.3099975585938,921.3099975585938,921.3099975585938,921.3099975585938,921.3099975585938,921.3099975585938,923.780029296875,923.780029296875,923.780029296875,923.780029296875,923.780029296875,923.780029296875,923.780029296875,923.780029296875,923.780029296875,923.780029296875,922.1333618164062,922.1333618164062,918.8400268554688,918.0167236328125,911.4299926757812,909.7833862304688,903.1967163085938,894.96337890625,858.7367553710938,790.4000244140625,769.8167114257812,728.6500244140625,708.0667114257812,662.7833862304688,579.626708984375,555.75,499.76336669921875,470.1233825683594,414.1366882324219,324.39337158203125,298.04669189453125,248.6466827392578,226.41668701171875,188.54335021972656,139.9666748046875,125.14667510986328,99.62334442138672],"timestamp_mouse":[11,30,50,70,90,110,132,150,170,190,210,230,250,269,290,310,330,350,370,390,410,429,450,469,490,509,529,550,570,590,610,630,649,670,689,710,730,750,770,790,810,830,849,869,889],"xSR":440,"ySR":852.6,"xT1":48,"yT1":0,"xT2":832,"yT2":0,"toosoon":0,"cond_shown":"Congruent","ratio_trial":300,"L_num":4,"L_den":5,"R_num":2,"R_den":4,"correct_side":1,"subjID":"16","gender":"No_gender","school":"No_school","age":"No_age"},{"start_time":1549309046785,"click_time":1549309047973,"finger_time":1549309047354,"fix_duration":250,"trial":19,"RT":569,"MT":619,"sideResp":2,"stimulus":[],"xmouse":[467.65338134765625,467.65338134765625,467.65338134765625,467.65338134765625,467.65338134765625,467.65338134765625,467.65338134765625,467.65338134765625,467.65338134765625,467.65338134765625,468.4766845703125,468.4766845703125,468.4766845703125,468.4766845703125,468.4766845703125,468.4766845703125,468.4766845703125,468.4766845703125,468.4766845703125,467.65338134765625,467.65338134765625,467.65338134765625,466.83001708984375,466.0066833496094,462.71337890625,461.0666809082031,455.3033752441406,449.5400085449219,433.0733642578125,419.0766906738281,412.4900207519531,409.1966857910156,396.8466796875,390.260009765625,377.9100036621094,373.7933654785156,372.9700012207031,372.1466979980469,372.9700012207031,378.7333679199219,386.14337158203125,391.0833740234375,401.78668212890625,409.1966857910156,438.01336669921875,460.2433776855469,473.41668701171875,503.05670166015625,518.7000122070312,574.6867065429688,609.2666625976562,626.5567016601562,660.3133544921875,694.0700073242188,744.2933959960938,761.5833740234375,792.8699951171875,806.0433959960938,827.4500122070312,854.6199951171875],"ymouse":[898.2567138671875,898.2567138671875,898.2567138671875,898.2567138671875,898.2567138671875,898.2567138671875,898.2567138671875,898.2567138671875,898.2567138671875,898.2567138671875,898.2567138671875,898.2567138671875,899.0800170898438,899.0800170898438,899.0800170898438,899.0800170898438,899.0800170898438,899.0800170898438,899.0800170898438,898.2567138671875,898.2567138671875,897.433349609375,897.433349609375,896.6100463867188,893.3167114257812,891.6700439453125,884.260009765625,875.203369140625,839.7999877929688,798.6333618164062,778.8733520507812,768.1700439453125,734.4133911132812,713.0067138671875,655.3733520507812,622.4400024414062,605.973388671875,573.8633422851562,555.75,504.703369140625,481.6500244140625,471.77001953125,452.8333740234375,443.7767028808594,410.8433532714844,391.0833740234375,381.203369140625,359.79669189453125,348.27001953125,308.75,280.7566833496094,265.9366760253906,239.5900115966797,214.06668090820312,178.66334533691406,166.31333923339844,142.43667602539062,133.3800048828125,114.44334411621094,91.38999938964844],"timestamp_mouse":[11,32,47,68,88,108,128,148,168,188,208,228,248,268,288,308,328,348,368,388,407,428,448,468,488,508,528,548,569,588,608,628,648,667,687,708,727,748,768,788,809,828,848,868,887,908,928,948,968,988,1008,1028,1048,1068,1089,1107,1128,1148,1168,1188],"xSR":440,"ySR":852.6,"xT1":48,"yT1":0,"xT2":832,"yT2":0,"toosoon":0,"cond_shown":"Incongruent","ratio_trial":200,"L_num":1,"L_den":3,"R_num":2,"R_den":15,"correct_side":1,"subjID":"16","gender":"No_gender","school":"No_school","age":"No_age"},{"start_time":1549309055155,"click_time":1549309056133,"finger_time":1549309055715,"fix_duration":1080.1931037083416,"trial":20,"RT":560,"MT":418,"sideResp":1,"stimulus":[],"xmouse":[472.5933532714844,472.5933532714844,472.5933532714844,472.5933532714844,472.5933532714844,472.5933532714844,472.5933532714844,471.77001953125,471.77001953125,471.77001953125,471.77001953125,471.77001953125,471.77001953125,471.77001953125,471.77001953125,471.77001953125,471.77001953125,471.77001953125,471.77001953125,471.77001953125,471.77001953125,471.77001953125,471.77001953125,471.77001953125,471.77001953125,471.77001953125,471.77001953125,286.52001953125,286.52001953125,286.52001953125,286.52001953125,286.52001953125,286.52001953125,286.52001953125,286.52001953125,286.52001953125,286.52001953125,286.52001953125,162.19668579101562,162.19668579101562,162.19668579101562,162.19668579101562,162.19668579101562,162.19668579101562,162.19668579101562,162.19668579101562,162.19668579101562,162.19668579101562,114.44334411621094],"ymouse":[894.1400146484375,894.1400146484375,894.1400146484375,894.1400146484375,894.1400146484375,894.1400146484375,894.1400146484375,894.1400146484375,894.1400146484375,894.1400146484375,894.1400146484375,894.1400146484375,894.1400146484375,894.1400146484375,894.1400146484375,894.1400146484375,894.1400146484375,889.2000122070312,889.2000122070312,889.2000122070312,889.2000122070312,889.2000122070312,889.2000122070312,889.2000122070312,889.2000122070312,889.2000122070312,889.2000122070312,619.9700317382812,619.9700317382812,619.9700317382812,619.9700317382812,619.9700317382812,619.9700317382812,619.9700317382812,619.9700317382812,619.9700317382812,619.9700317382812,619.9700317382812,242.05999755859375,242.05999755859375,242.05999755859375,242.05999755859375,242.05999755859375,242.05999755859375,242.05999755859375,242.05999755859375,242.05999755859375,242.05999755859375,69.98333740234375],"timestamp_mouse":[28,38,57,78,97,118,138,160,178,198,218,238,258,277,298,318,338,360,378,398,418,438,458,478,497,518,538,560,578,597,618,638,658,678,699,717,738,758,778,798,818,838,858,877,897,918,938,958,978],"xSR":440,"ySR":852.6,"xT1":48,"yT1":0,"xT2":832,"yT2":0,"toosoon":0,"cond_shown":"Incongruent","ratio_trial":300,"L_num":4,"L_den":20,"R_num":2,"R_den":4,"correct_side":2,"subjID":"16","gender":"No_gender","school":"No_school","age":"No_age"},{"start_time":1549309059306,"click_time":1549309060213,"finger_time":1549309059712,"fix_duration":1111.5394848361555,"trial":21,"RT":406,"MT":501,"sideResp":2,"stimulus":[],"xmouse":[500.5867004394531,500.5867004394531,502.2333679199219,503.05670166015625,503.05670166015625,503.8800048828125,503.8800048828125,504.703369140625,505.5267028808594,506.3500061035156,507.1733703613281,507.1733703613281,508.82000732421875,511.2900085449219,512.1133422851562,514.5833740234375,516.22998046875,523.6400146484375,532.6967163085938,537.63671875,552.4566650390625,570.5700073242188,580.4500122070312,596.0933837890625,618.3233642578125,626.5567016601562,647.1400146484375,677.6033935546875,688.3067016601562,708.8900146484375,717.9467163085938,739.3533935546875,768.1700439453125,776.4033813476562,791.223388671875,797.8099975585938,812.6300048828125,829.9200439453125,843.0933837890625,846.38671875,855.443359375,858.7367553710938,870.2633666992188,875.203369140625,877.6734008789062,880.1433715820312],"ymouse":[890.8467407226562,890.8467407226562,890.0233764648438,890.0233764648438,889.2000122070312,889.2000122070312,888.376708984375,887.5534057617188,886.7300415039062,885.90673828125,885.90673828125,885.0833740234375,884.260009765625,882.6134033203125,881.7900390625,879.3200073242188,878.4967651367188,871.9100341796875,860.3833618164062,853.7967529296875,834.8600463867188,809.3367309570312,796.1633911132812,773.933349609375,735.2367553710938,720.416748046875,681.7200317382812,621.61669921875,601.0333862304688,563.1600341796875,543.4000244140625,505.5267028808594,442.953369140625,421.54669189453125,382.02667236328125,362.2666931152344,321.9233703613281,264.2900085449219,231.356689453125,215.71334838867188,186.07334899902344,171.2533416748047,139.14334106445312,124.3233413696289,114.44334411621094,99.62334442138672],"timestamp_mouse":[9,28,47,67,86,107,127,147,167,187,207,227,247,267,287,307,327,347,367,387,406,427,447,467,487,506,527,547,567,588,607,627,648,667,687,707,727,747,767,787,807,827,847,867,887,907],"xSR":440,"ySR":852.6,"xT1":48,"yT1":0,"xT2":832,"yT2":0,"toosoon":0,"cond_shown":"Equal","ratio_trial":200,"L_num":3,"L_den":6,"R_num":3,"R_den":10,"correct_side":1,"subjID":"16","gender":"No_gender","school":"No_school","age":"No_age"},{"start_time":1549309063352,"click_time":1549309063993,"finger_time":1549309063653,"fix_duration":1157.627776543361,"trial":22,"RT":301,"MT":340,"sideResp":1,"stimulus":[],"xmouse":[488.2366943359375,488.2366943359375,488.2366943359375,488.2366943359375,488.2366943359375,488.2366943359375,487.4133605957031,486.5899963378906,485.7666931152344,485.7666931152344,484.943359375,484.1199951171875,481.6500244140625,480.00335693359375,466.83001708984375,452.010009765625,388.6133728027344,359.79669189453125,349.91668701171875,328.510009765625,316.1600036621094,283.2266845703125,267.5833435058594,260.9966735839844,245.3533477783203,235.4733428955078,216.53668212890625,191.83668518066406,170.4300079345703,170.4300079345703,135.02667236328125,125.97000122070312,99.62334442138672],"ymouse":[878.4967651367188,878.4967651367188,876.0267333984375,876.0267333984375,876.0267333984375,876.0267333984375,875.203369140625,875.203369140625,875.203369140625,874.3800048828125,873.5567626953125,872.7333984375,871.0867309570312,870.2633666992188,858.7367553710938,844.739990234375,774.7567138671875,741,724.5333862304688,675.9567260742188,643.8467407226562,543.4000244140625,487.4133605957031,461.0666809082031,408.37335205078125,380.3800048828125,331.8033752441406,265.9366760253906,217.36000061035156,217.36000061035156,153.96334838867188,138.32000732421875,94.68334197998047],"timestamp_mouse":[1,37,44,61,80,101,123,141,161,181,201,223,240,261,281,301,324,341,361,382,401,424,441,461,481,501,521,543,563,581,601,621,641],"xSR":440,"ySR":852.6,"xT1":48,"yT1":0,"xT2":832,"yT2":0,"toosoon":0,"cond_shown":"Congruent","ratio_trial":100,"L_num":7,"L_den":14,"R_num":9,"R_den":15,"correct_side":2,"subjID":"16","gender":"No_gender","school":"No_school","age":"No_age"},{"start_time":1549309067267,"click_time":1549309068073,"finger_time":1549309067653,"fix_duration":1012.0434004996822,"trial":23,"RT":386,"MT":420,"sideResp":2,"stimulus":[],"xmouse":[489.05999755859375,489.05999755859375,489.88336181640625,490.7066955566406,491.5299987792969,492.3533630371094,493.17669677734375,494,494.8233642578125,495.6466979980469,495.6466979980469,496.4700012207031,496.4700012207031,495.6466979980469,495.6466979980469,494.8233642578125,494.8233642578125,496.4700012207031,504.703369140625,519.5233764648438,526.933349609375,533.52001953125,554.1033935546875,573.8633422851562,593.6233520507812,600.2100219726562,613.3833618164062,634.7900390625,643.0233764648438,661.9600219726562,672.6633911132812,694.8933715820312,726.1799926757812,736.0599975585938,755.8200073242188,767.3467407226562,783.8133544921875,806.8667602539062,814.2767333984375,826.626708984375,837.3300170898438],"ymouse":[893.3167114257812,892.4933471679688,892.4933471679688,891.6700439453125,891.6700439453125,891.6700439453125,890.8467407226562,890.0233764648438,890.0233764648438,889.2000122070312,888.376708984375,888.376708984375,885.90673828125,884.260009765625,883.4367065429688,881.7900390625,880.1433715820312,876.0267333984375,860.3833618164062,834.0367431640625,820.0400390625,809.3367309570312,776.4033813476562,736.8833618164062,685.0133666992188,659.489990234375,615.030029296875,542.57666015625,517.876708984375,474.2400207519531,451.1866760253906,410.02001953125,344.9766845703125,322.7466735839844,275.8166809082031,253.58668518066406,209.9499969482422,157.2566680908203,142.43667602539062,113.62000274658203,93.03667449951172],"timestamp_mouse":[9,28,46,65,86,106,126,146,166,185,206,226,246,266,286,306,326,346,370,386,406,426,446,466,486,506,526,546,566,586,606,626,646,666,686,706,726,746,766,786,806],"xSR":440,"ySR":852.6,"xT1":48,"yT1":0,"xT2":832,"yT2":0,"toosoon":0,"cond_shown":"Equal","ratio_trial":200,"L_num":3,"L_den":10,"R_num":3,"R_den":6,"correct_side":2,"subjID":"16","gender":"No_gender","school":"No_school","age":"No_age"},{"start_time":1549309070519,"click_time":1549309071393,"finger_time":1549309071093,"fix_duration":563.2028316897636,"trial":24,"RT":574,"MT":300,"sideResp":1,"stimulus":[],"xmouse":[494,494,494,494,494,494,494,494,494,494,494,494,494,494,494,494,494,494,494,494,494,494,494,494,494,482.4733581542969,479.1800231933594,458.5966796875,444.6000061035156,415.7833557128906,384.4966735839844,373.7933654785156,351.5633544921875,328.510009765625,315.3367004394531,274.1700134277344,244.52999877929688,230.53334045410156,202.54000854492188,190.19000244140625,155.61000061035156,135.02667236328125,126.79334259033203,116.91334533691406],"ymouse":[910,910,910,910,910,910,910,910,910,910,910,910,910,910,910,910,910,910,910,910,910,910,910,910,910,904.02001953125,898.2567138671875,868.6167602539062,845.5633544921875,794.5167236328125,732.7667236328125,710.5367431640625,657.02001953125,593.6233520507812,561.5133666992188,455.3033752441406,379.55670166015625,345.8000183105469,285.6966857910156,256.8800048828125,174.5466766357422,133.3800048828125,116.91334533691406,97.1533432006836],"timestamp_mouse":[30,34,54,73,94,114,134,153,174,194,213,234,253,274,294,313,334,354,374,394,413,434,453,474,494,514,533,554,574,594,614,633,654,673,694,715,735,754,774,794,815,834,854,874],"xSR":440,"ySR":852.6,"xT1":48,"yT1":0,"xT2":832,"yT2":0,"toosoon":0,"cond_shown":"Congruent","ratio_trial":100,"L_num":6,"L_den":20,"R_num":5,"R_den":25,"correct_side":1,"subjID":"16","gender":"No_gender","school":"No_school","age":"No_age"},{"start_time":1549309073416,"click_time":1549309074673,"finger_time":1549309074293,"fix_duration":261.19646746981715,"trial":25,"RT":877,"MT":380,"sideResp":2,"stimulus":[],"xmouse":[504,504,504,504,504,504,504,504,504,504,504,504,504,504,504,504,504,504,504,504,504,504,504,504,504,504,504,496.4700012207031,495.6466979980469,494.8233642578125,494.8233642578125,494,494,494.8233642578125,495.6466979980469,496.4700012207031,498.94000244140625,501.4100036621094,504.703369140625,506.3500061035156,510.4666748046875,520.3466796875,524.46337890625,538.4600219726562,545.0466918945312,557.3966674804688,587.8599853515625,600.2100219726562,619.9700317382812,628.203369140625,647.1400146484375,675.1333618164062,685.8367309570312,706.4200439453125,731.1199951171875,740.1767578125,764.876708984375,777.2267456054688,785.4600219726562,802.75,810.1600341796875,829.0967407226562,841.4467163085938],"ymouse":[913,913,913,913,913,913,913,913,913,913,913,913,913,913,913,913,913,913,913,913,913,913,913,913,913,913,913,907.3133544921875,906.489990234375,906.489990234375,905.666748046875,904.8433837890625,904.8433837890625,904.02001953125,903.1967163085938,902.3733520507812,901.550048828125,900.7267456054688,898.2567138671875,897.433349609375,894.1400146484375,880.1433715820312,871.0867309570312,837.3300170898438,815.9234008789062,773.933349609375,697.3634033203125,664.4299926757812,602.6799926757812,575.510009765625,520.3466796875,438.01336669921875,412.4900207519531,361.443359375,310.3966979980469,286.52001953125,221.4766845703125,186.8966827392578,172.07667541503906,140.79000854492188,127.61666870117188,97.1533432006836,83.15666961669922],"timestamp_mouse":[17,37,57,77,97,117,137,156,177,197,217,236,257,277,297,317,337,357,377,397,417,437,457,477,497,517,537,557,577,597,617,638,657,677,697,717,738,757,776,797,817,838,857,876,897,916,938,957,977,997,1017,1039,1057,1077,1097,1117,1138,1157,1177,1197,1217,1238,1257],"xSR":440,"ySR":852.6,"xT1":48,"yT1":0,"xT2":832,"yT2":0,"toosoon":0,"cond_shown":"Congruent","ratio_trial":200,"L_num":3,"L_den":12,"R_num":9,"R_den":20,"correct_side":2,"subjID":"16","gender":"No_gender","school":"No_school","age":"No_age"},{"start_time":1549309077277,"click_time":1549309078176,"finger_time":1549309077875,"fix_duration":861.0065761893565,"trial":26,"RT":598,"MT":301,"sideResp":1,"stimulus":[],"xmouse":[475.8866882324219,475.8866882324219,475.8866882324219,475.8866882324219,475.8866882324219,475.0633544921875,475.0633544921875,475.0633544921875,475.0633544921875,475.0633544921875,475.0633544921875,474.2400207519531,474.2400207519531,474.2400207519531,473.41668701171875,473.41668701171875,472.5933532714844,472.5933532714844,472.5933532714844,471.77001953125,471.77001953125,470.9466857910156,470.9466857910156,470.1233825683594,471.77001953125,472.5933532714844,475.0633544921875,477.5333557128906,478.356689453125,466.0066833496094,448.7166748046875,437.19000244140625,410.02001953125,395.20001220703125,346.62335205078125,312.86669921875,297.2233581542969,265.11334228515625,247.82334899902344,202.54000854492188,173.7233428955078,159.7266845703125,137.49667358398438,128.44000244140625,110.32667541503906],"ymouse":[922.9567260742188,922.9567260742188,922.9567260742188,922.9567260742188,922.9567260742188,922.9567260742188,922.1333618164062,922.1333618164062,922.1333618164062,921.3099975585938,921.3099975585938,921.3099975585938,921.3099975585938,921.3099975585938,921.3099975585938,921.3099975585938,921.3099975585938,920.4867553710938,920.4867553710938,918.8400268554688,918.8400268554688,917.193359375,916.3699951171875,914.723388671875,907.3133544921875,903.1967163085938,892.4933471679688,883.4367065429688,852.973388671875,782.989990234375,734.4133911132812,711.3599853515625,664.4299926757812,638.90673828125,549.1633911132812,479.1800231933594,447.89337158203125,379.55670166015625,348.27001953125,262.6433410644531,208.3033447265625,187.72000122070312,149.8466796875,135.02667236328125,96.33000183105469],"timestamp_mouse":[29,36,56,75,96,115,136,155,176,196,216,236,256,276,296,316,336,356,375,397,416,436,456,476,498,516,536,556,575,598,616,636,656,675,698,716,736,756,776,799,816,835,855,876,898],"xSR":440,"ySR":852.6,"xT1":48,"yT1":0,"xT2":832,"yT2":0,"toosoon":0,"cond_shown":"Incongruent","ratio_trial":500,"L_num":2,"L_den":3,"R_num":4,"R_den":24,"correct_side":1,"subjID":"16","gender":"No_gender","school":"No_school","age":"No_age"},{"start_time":1549309081092,"click_time":1549309081773,"finger_time":1549309081512,"fix_duration":1357.527048462655,"trial":27,"RT":420,"MT":261,"sideResp":1,"stimulus":[],"xmouse":[480.8266906738281,480.8266906738281,480.00335693359375,479.1800231933594,479.1800231933594,479.1800231933594,480.00335693359375,480.00335693359375,480.8266906738281,480.8266906738281,480.8266906738281,480.8266906738281,480.8266906738281,480.8266906738281,480.00335693359375,480.00335693359375,480.00335693359375,479.1800231933594,478.356689453125,477.5333557128906,472.5933532714844,444.6000061035156,434.7200012207031,418.25335693359375,412.4900207519531,396.8466796875,363.9133605957031,350.7400207519531,319.453369140625,301.3399963378906,262.6433410644531,197.60000610351562,156.433349609375,140.79000854492188,111.1500015258789],"ymouse":[882.6134033203125,881.7900390625,881.7900390625,881.7900390625,881.7900390625,881.7900390625,881.7900390625,880.9667358398438,880.9667358398438,880.9667358398438,880.9667358398438,880.9667358398438,880.9667358398438,880.9667358398438,880.9667358398438,880.1433715820312,879.3200073242188,878.4967651367188,876.0267333984375,875.203369140625,868.6167602539062,819.2167358398438,792.0467529296875,726.1799926757812,691.6000366210938,627.3800048828125,526.1099853515625,487.4133605957031,405.08001708984375,370.5,296.3999938964844,189.36668395996094,130.086669921875,106.20999908447266,67.51333618164062],"timestamp_mouse":[11,20,40,61,81,101,121,141,161,181,201,221,241,261,281,301,321,340,361,381,401,420,441,461,481,500,521,541,561,581,600,621,641,660,681],"xSR":440,"ySR":852.6,"xT1":48,"yT1":0,"xT2":832,"yT2":0,"toosoon":0,"cond_shown":"Congruent","ratio_trial":200,"L_num":3,"L_den":12,"R_num":9,"R_den":20,"correct_side":2,"subjID":"16","gender":"No_gender","school":"No_school","age":"No_age"},{"start_time":1549309084073,"click_time":1549309084854,"finger_time":1549309084453,"fix_duration":250,"trial":28,"RT":380,"MT":401,"sideResp":2,"stimulus":[],"xmouse":[497,497,497,497,497,497,497,497,504.703369140625,504.703369140625,504.703369140625,504.703369140625,504.703369140625,504.703369140625,506.3500061035156,506.3500061035156,506.3500061035156,506.3500061035156,512.1133422851562,531.8733520507812,545.0466918945312,567.2766723632812,588.683349609375,628.203369140625,638.0833740234375,656.1967163085938,664.4299926757812,679.25,704.7733764648438,713.0067138671875,730.2967529296875,739.3533935546875,759.1134033203125,783.8133544921875,790.4000244140625,802.75,806.8667602539062,811.8067626953125,819.2167358398438,832.3900146484375],"ymouse":[901,901,901,901,901,901,901,901,893.3167114257812,892.4933471679688,892.4933471679688,892.4933471679688,892.4933471679688,892.4933471679688,888.376708984375,886.7300415039062,885.0833740234375,883.4367065429688,866.146728515625,824.15673828125,800.280029296875,764.876708984375,729.473388671875,650.433349609375,622.4400024414062,568.1000366210938,542.57666015625,486.5899963378906,398.4933776855469,370.5,322.7466735839844,299.693359375,253.58668518066406,193.48333740234375,178.66334533691406,152.31666564941406,143.260009765625,132.55667114257812,116.91334533691406,98.80000305175781],"timestamp_mouse":[1,24,40,60,80,100,120,140,161,180,199,220,241,260,280,299,320,340,360,380,400,420,440,460,480,500,520,540,560,580,600,620,640,660,680,699,720,740,760,781],"xSR":440,"ySR":852.6,"xT1":48,"yT1":0,"xT2":832,"yT2":0,"toosoon":0,"cond_shown":"Incongruent","ratio_trial":200,"L_num":9,"L_den":15,"R_num":8,"R_den":10,"correct_side":2,"subjID":"16","gender":"No_gender","school":"No_school","age":"No_age"},{"start_time":1549309087573,"click_time":1549309088456,"finger_time":1549309088153,"fix_duration":804.477737174378,"trial":29,"RT":580,"MT":303,"sideResp":1,"stimulus":[],"xmouse":[491.5299987792969,491.5299987792969,491.5299987792969,490.7066955566406,490.7066955566406,490.7066955566406,489.88336181640625,489.88336181640625,489.05999755859375,489.05999755859375,489.05999755859375,489.05999755859375,488.2366943359375,488.2366943359375,489.05999755859375,489.88336181640625,491.5299987792969,492.3533630371094,493.17669677734375,494.8233642578125,494.8233642578125,494.8233642578125,494.8233642578125,494.8233642578125,494.8233642578125,494,493.17669677734375,488.2366943359375,481.6500244140625,447.89337158203125,429.7799987792969,424.0166931152344,407.5500183105469,396.8466796875,366.38336181640625,334.27337646484375,315.3367004394531,262.6433410644531,214.06668090820312,178.66334533691406,168.78334045410156,150.6699981689453,140.79000854492188,120.20667266845703,95.50666809082031],"ymouse":[899.9033813476562,899.9033813476562,899.9033813476562,899.9033813476562,899.9033813476562,900.7267456054688,900.7267456054688,900.7267456054688,900.7267456054688,900.7267456054688,900.7267456054688,900.7267456054688,900.7267456054688,900.7267456054688,900.7267456054688,899.9033813476562,899.9033813476562,898.2567138671875,896.6100463867188,893.3167114257812,892.4933471679688,890.8467407226562,890.8467407226562,889.2000122070312,885.90673828125,883.4367065429688,881.7900390625,874.3800048828125,865.3233642578125,805.2200317382812,767.3467407226562,748.4100341796875,699.010009765625,670.193359375,586.21337890625,510.4666748046875,470.9466857910156,390.260009765625,327.6866760253906,260.9966735839844,237.94334411621094,197.60000610351562,175.37001037597656,132.55667114257812,85.62667083740234],"timestamp_mouse":[2,24,40,60,80,100,120,140,160,179,200,220,240,260,280,300,320,340,360,380,400,420,440,460,480,500,520,540,560,580,600,620,640,660,681,700,720,740,760,781,801,820,840,860,882],"xSR":440,"ySR":852.6,"xT1":48,"yT1":0,"xT2":832,"yT2":0,"toosoon":0,"cond_shown":"Congruent","ratio_trial":500,"L_num":4,"L_den":6,"R_num":1,"R_den":6,"correct_side":1,"subjID":"16","gender":"No_gender","school":"No_school","age":"No_age"},{"start_time":1549309090635,"click_time":1549309091594,"finger_time":1549309091173,"fix_duration":821.2410747302829,"trial":30,"RT":538,"MT":421,"sideResp":1,"stimulus":[],"xmouse":[491.5299987792969,491.5299987792969,491.5299987792969,491.5299987792969,491.5299987792969,491.5299987792969,491.52