[{"start_time":1549310008017,"click_time":1549310008777,"finger_time":1549310008022,"fix_duration":1018.3065740479738,"trial":0,"RT":5,"MT":755,"sideResp":2,"stimulus":"img/250/equaldotanddens/L/15_Ratio_250_L_12_R_3.png","xmouse":[398,398,398,398,398,398,398,398,398,398,398,398,398,398,398,398,398,398,398,398,398,398,398,398,405,405.3330078125,410,435,450,496,508,535,550,604,615.3330078125,636,645.3330078125,668,702],"ymouse":[560,560,560,560,560,560,560,560,560,560,560,560,560,560,560,560,560,560,560,560,560,560,560,560,556,554.6669921875,546,510,488,405,384,338,314,221,197.33299255371094,158,140.66700744628906,106,56],"timestamp_mouse":[5,17,36,57,77,97,117,137,157,177,197,217,237,257,277,297,317,337,357,377,396,417,437,457,477,497,517,537,557,578,597,617,637,659,678,697,717,737,759],"xSR":350,"ySR":508.79999999999995,"xT1":30,"yT1":0,"xT2":670,"yT2":0,"toosoon":0,"cond_shown":"equaldotanddens","ratio_trial":250,"smaller_num":"3","larger_num":"12","correct_side":1,"subjID":"17","gender":"No_gender","age":"No_age","school":"No_school","test":{"fix_dur":[250,1500],"timestim":400,"targets_dim":[100,100],"targets_relative_coord":[0.1,0.9],"size_stim":[880,420],"start_dim":[100,100],"size_start":[300,300],"size_fix":60,"samplingrate":20,"img_types":["equaldotsize","equaldotanddens","randomdotsize","randomdotsizeEA"],"ratios":[250,500,750,900],"rep_conds":10,"nTrials":176,"trials_to_rest":500,"Trials_order":[17,4,91,23,106,47,117,48,79,16,99,164,87,159,144,150,41,70,10,143,29,103,76,6,14,162,85,13,92,75,8,127,60,2,55,25,132,133,15,97,139,104,83,107,0,90,141,61,22,101,71,62,169,160,116,98,36,175,134,56,152,68,125,149,155,161,146,45,157,74,66,156,5,57,94,153,20,89,64,147,21,172,105,84,72,109,35,43,130,114,145,166,131,42,122,96,151,39,3,78,168,126,129,148,77,142,137,123,67,33,174,11,115,9,113,58,118,81,52,12,51,50,112,119,49,1,165,53,170,88,102,37,100,34,111,124,28,82,19,69,135,27,108,167,158,65,110,38,86,40,7,44,171,59,30,54,26,93,46,163,136,120,63,18,154,32,95,31,128,140,138,73,121,173,24,80],"cond_shown":["equaldotanddens","equaldotsize","randomdotsizeEA","randomdotsizeEA","randomdotsize","randomdotsizeEA","equaldotanddens","equaldotsize","randomdotsizeEA","equaldotsize","randomdotsizeEA","equaldotsize","randomdotsizeEA","randomdotsizeEA","equaldotsize","randomdotsize","equaldotanddens","randomdotsize","randomdotsize","randomdotsizeEA","equaldotanddens","randomdotsizeEA","equaldotsize","randomdotsize","randomdotsize","randomdotsize","equaldotanddens","equaldotanddens","equaldotsize","randomdotsizeEA","equaldotsize","randomdotsizeEA","equaldotsize","randomdotsize","randomdotsizeEA","equaldotanddens","equaldotsize","equaldotanddens","randomdotsizeEA","equaldotanddens","randomdotsizeEA","equaldotsize","randomdotsizeEA","randomdotsizeEA","equaldotsize","randomdotsize","equaldotanddens","equaldotanddens","randomdotsize","equaldotanddens","randomdotsizeEA","randomdotsize","equaldotanddens","equaldotsize","equaldotsize","randomdotsize","equaldotsize","randomdotsizeEA","randomdotsize","equaldotsize","equaldotsize","equaldotsize","equaldotanddens","equaldotanddens","randomdotsizeEA","equaldotanddens","randomdotsize","equaldotanddens","equaldotanddens","randomdotsize","randomdotsize","equaldotsize","equaldotanddens","equaldotanddens","randomdotsize","equaldotanddens","equaldotsize","equaldotanddens","equaldotsize","randomdotsizeEA","equaldotanddens","equaldotsize","equaldotanddens","equaldotsize","equaldotsize","equaldotanddens","randomdotsizeEA","randomdotsizeEA","randomdotsize","randomdotsize","equaldotanddens","randomdotsize","randomdotsizeEA","randomdotsize","randomdotsize","equaldotsize","randomdotsizeEA","randomdotsizeEA","randomdotsizeEA","randomdotsize","equaldotsize","randomdotsize","equaldotanddens","equaldotsize","equaldotanddens","randomdotsize","equaldotanddens","randomdotsizeEA","randomdotsizeEA","equaldotanddens","randomdotsize","randomdotsizeEA","randomdotsizeEA","equaldotanddens","equaldotanddens","randomdotsize","randomdotsize","equaldotanddens","equaldotsize","equaldotsize","randomdotsizeEA","randomdotsize","equaldotsize","randomdotsizeEA","equaldotanddens","equaldotanddens","equaldotanddens","equaldotanddens","randomdotsize","equaldotsize","randomdotsize","equaldotanddens","equaldotsize","randomdotsize","randomdotsizeEA","equaldotsize","equaldotsize","randomdotsize","randomdotsizeEA","equaldotanddens","randomdotsizeEA","randomdotsizeEA","equaldotsize","randomdotsizeEA","randomdotsize","equaldotanddens","randomdotsize","randomdotsize","randomdotsize","equaldotsize","randomdotsizeEA","equaldotsize","randomdotsizeEA","randomdotsizeEA","randomdotsize","randomdotsize","randomdotsize","equaldotanddens","randomdotsize","randomdotsizeEA","equaldotsize","equaldotsize","randomdotsizeEA","randomdotsize","randomdotsize","equaldotsize","randomdotsizeEA","randomdotsizeEA","equaldotsize","equaldotsize","randomdotsize","equaldotanddens","equaldotanddens","equaldotanddens","equaldotsize","equaldotsize"],"ratio_trial":[250,500,750,500,750,900,500,250,900,250,250,500,500,900,250,500,750,500,750,900,900,500,900,500,900,250,500,900,900,750,750,900,900,250,500,750,500,500,900,250,750,750,250,750,250,750,900,900,500,500,500,900,750,250,500,250,500,900,500,750,750,500,900,500,750,250,250,900,900,750,250,900,500,750,900,750,500,750,250,250,500,900,750,500,750,900,250,750,250,250,250,500,250,750,750,250,500,500,250,900,750,900,250,500,900,900,750,750,250,250,900,750,250,750,250,750,500,250,500,900,250,250,250,500,250,250,500,500,750,750,500,500,500,250,900,900,900,250,250,500,500,750,900,500,900,250,900,500,500,750,500,900,750,750,900,500,750,900,900,250,750,750,900,250,750,250,900,900,250,900,750,750,750,900,750,250],"smaller_num":["3","2","9","2","6","9","1","2","9","6","5","6","4","18","3","9","15","9","15","18","18","10","9","5","18","3","3","9","18","9","3","18","18","3","5","3","9","9","9","2","6","3","2","3","3","15","18","9","9","2","2","18","6","1","2","2","5","9","5","9","15","5","18","9","18","3","3","18","18","3","2","18","9","3","18","3","6","3","6","2","6","18","3","3","3","18","6","3","2","2","3","5","1","12","9","3","5","6","3","18","3","18","3","9","18","18","15","18","3","3","18","15","2","15","1","15","5","3","9","18","2","1","2","4","5","2","6","5","3","15","5","2","5","3","18","18","18","3","2","9","10","15","9","9","18","2","9","2","2","18","1","18","3","6","9","5","18","18","18","2","18","6","18","3","6","6","18","18","4","9","15","15","12","18","3","5"],"larger_num":["12","4","12","4","8","10","2","8","10","24","20","12","8","20","12","18","20","18","20","20","20","20","10","10","20","12","6","10","20","12","4","20","20","12","10","4","18","18","10","8","8","4","8","4","12","20","20","10","18","4","4","20","8","4","4","8","10","10","10","12","20","10","20","18","24","12","12","20","20","4","8","20","18","4","20","4","12","4","24","8","12","20","4","6","4","20","24","4","8","8","12","10","4","16","12","12","10","12","12","20","4","20","12","18","20","20","20","24","12","12","20","20","8","20","4","20","10","12","18","20","8","4","8","8","20","8","12","10","4","20","10","4","10","12","20","20","20","12","8","18","20","20","10","18","20","8","10","4","4","24","2","20","4","8","10","10","24","20","20","8","24","8","20","12","8","24","20","20","16","10","20","20","16","20","4","20"],"correct_side":[1,1,2,1,1,2,2,1,2,1,2,1,1,1,1,1,2,2,2,1,2,2,2,2,2,2,2,1,1,2,2,1,1,2,2,1,1,2,2,2,1,1,1,1,2,2,2,2,2,1,1,1,1,2,1,2,1,2,1,2,1,1,1,1,1,1,1,2,1,2,1,2,1,2,2,1,1,2,2,1,1,1,2,2,1,2,2,2,1,2,2,2,2,2,2,1,1,1,1,1,1,2,1,1,1,1,2,1,2,1,1,2,1,2,2,2,2,1,1,2,1,2,2,1,2,1,1,1,1,2,2,2,2,2,2,1,2,1,2,2,2,2,1,2,1,1,2,1,1,1,2,2,1,1,2,2,1,1,1,2,1,2,2,1,2,2,2,2,1,2,1,2,2,1,1,2],"img_shown":["img/250/equaldotanddens/L/15_Ratio_250_L_12_R_3.png","img/500/equaldotsize/L/10_Ratio_500_L_4_R_2.png","img/750/randomdotsizeEA/R/15_Ratio_750_L_9_R_12.png","img/500/randomdotsizeEA/L/5_Ratio_500_L_4_R_2.png","img/750/randomdotsize/L/14_Ratio_750_L_8_R_6.png","img/900/randomdotsizeEA/R/6_Ratio_900_L_9_R_10.png","img/500/equaldotanddens/R/12_Ratio_500_L_1_R_2.png","img/250/equaldotsize/L/3_Ratio_250_L_8_R_2.png","img/900/randomdotsizeEA/R/3_Ratio_900_L_9_R_10.png","img/250/equaldotsize/L/5_Ratio_250_L_24_R_6.png","img/250/randomdotsizeEA/R/12_Ratio_250_L_5_R_20.png","img/500/equaldotsize/L/13_Ratio_500_L_12_R_6.png","img/500/randomdotsizeEA/L/8_Ratio_500_L_8_R_4.png","img/900/randomdotsizeEA/L/2_Ratio_900_L_20_R_18.png","img/250/equaldotsize/L/15_Ratio_250_L_12_R_3.png","img/500/randomdotsize/L/4_Ratio_500_L_18_R_9.png","img/750/equaldotanddens/R/4_Ratio_750_L_15_R_20.png","img/500/randomdotsize/R/1_Ratio_500_L_9_R_18.png","img/750/randomdotsize/R/4_Ratio_750_L_15_R_20.png","img/900/randomdotsizeEA/L/2_Ratio_900_L_20_R_18.png","img/900/equaldotanddens/R/9_Ratio_900_L_18_R_20.png","img/500/randomdotsizeEA/R/3_Ratio_500_L_10_R_20.png","img/900/equaldotsize/R/7_Ratio_900_L_9_R_10.png","img/500/randomdotsize/R/14_Ratio_500_L_5_R_10.png","img/900/randomdotsize/R/9_Ratio_900_L_18_R_20.png","img/250/randomdotsize/R/11_Ratio_250_L_3_R_12.png","img/500/equaldotanddens/R/2_Ratio_500_L_3_R_6.png","img/900/equaldotanddens/L/1_Ratio_900_L_10_R_9.png","img/900/equaldotsize/L/10_Ratio_900_L_20_R_18.png","img/750/randomdotsizeEA/R/15_Ratio_750_L_9_R_12.png","img/750/equaldotsize/R/7_Ratio_750_L_3_R_4.png","img/900/randomdotsizeEA/L/2_Ratio_900_L_20_R_18.png","img/900/equaldotsize/L/10_Ratio_900_L_20_R_18.png","img/250/randomdotsize/R/4_Ratio_250_L_3_R_12.png","img/500/randomdotsizeEA/R/14_Ratio_500_L_5_R_10.png","img/750/equaldotanddens/L/9_Ratio_750_L_4_R_3.png","img/500/equaldotsize/L/4_Ratio_500_L_18_R_9.png","img/500/equaldotanddens/R/6_Ratio_500_L_9_R_18.png","img/900/randomdotsizeEA/R/15_Ratio_900_L_9_R_10.png","img/250/equaldotanddens/R/13_Ratio_250_L_2_R_8.png","img/750/randomdotsizeEA/L/13_Ratio_750_L_8_R_6.png","img/750/equaldotsize/L/8_Ratio_750_L_4_R_3.png","img/250/randomdotsizeEA/L/7_Ratio_250_L_8_R_2.png","img/750/randomdotsizeEA/L/8_Ratio_750_L_4_R_3.png","img/250/equaldotsize/R/9_Ratio_250_L_3_R_12.png","img/750/randomdotsize/R/4_Ratio_750_L_15_R_20.png","img/900/equaldotanddens/R/14_Ratio_900_L_18_R_20.png","img/900/equaldotanddens/R/3_Ratio_900_L_9_R_10.png","img/500/randomdotsize/R/1_Ratio_500_L_9_R_18.png","img/500/equaldotanddens/L/10_Ratio_500_L_4_R_2.png","img/500/randomdotsizeEA/L/10_Ratio_500_L_4_R_2.png","img/900/randomdotsize/L/8_Ratio_900_L_20_R_18.png","img/750/equaldotanddens/L/14_Ratio_750_L_8_R_6.png","img/250/equaldotsize/R/8_Ratio_250_L_1_R_4.png","img/500/equaldotsize/L/5_Ratio_500_L_4_R_2.png","img/250/randomdotsize/R/13_Ratio_250_L_2_R_8.png","img/500/equaldotsize/L/7_Ratio_500_L_10_R_5.png","img/900/randomdotsizeEA/R/5_Ratio_900_L_9_R_10.png","img/500/randomdotsize/L/7_Ratio_500_L_10_R_5.png","img/750/equaldotsize/R/15_Ratio_750_L_9_R_12.png","img/750/equaldotsize/L/1_Ratio_750_L_20_R_15.png","img/500/equaldotsize/L/7_Ratio_500_L_10_R_5.png","img/900/equaldotanddens/L/2_Ratio_900_L_20_R_18.png","img/500/equaldotanddens/L/4_Ratio_500_L_18_R_9.png","img/750/randomdotsizeEA/L/6_Ratio_750_L_24_R_18.png","img/250/equaldotanddens/L/14_Ratio_250_L_12_R_3.png","img/250/randomdotsize/L/14_Ratio_250_L_12_R_3.png","img/900/equaldotanddens/R/9_Ratio_900_L_18_R_20.png","img/900/equaldotanddens/L/4_Ratio_900_L_20_R_18.png","img/750/randomdotsize/R/12_Ratio_750_L_3_R_4.png","img/250/randomdotsize/L/1_Ratio_250_L_8_R_2.png","img/900/equaldotsize/R/13_Ratio_900_L_18_R_20.png","img/500/equaldotanddens/L/4_Ratio_500_L_18_R_9.png","img/750/equaldotanddens/R/12_Ratio_750_L_3_R_4.png","img/900/randomdotsize/R/9_Ratio_900_L_18_R_20.png","img/750/equaldotanddens/L/8_Ratio_750_L_4_R_3.png","img/500/equaldotsize/L/11_Ratio_500_L_12_R_6.png","img/750/equaldotanddens/R/7_Ratio_750_L_3_R_4.png","img/250/equaldotsize/R/6_Ratio_250_L_6_R_24.png","img/250/randomdotsizeEA/L/3_Ratio_250_L_8_R_2.png","img/500/equaldotanddens/L/11_Ratio_500_L_12_R_6.png","img/900/equaldotsize/L/2_Ratio_900_L_20_R_18.png","img/750/equaldotanddens/R/7_Ratio_750_L_3_R_4.png","img/500/equaldotsize/R/2_Ratio_500_L_3_R_6.png","img/750/equaldotsize/L/8_Ratio_750_L_4_R_3.png","img/900/equaldotanddens/R/13_Ratio_900_L_18_R_20.png","img/250/randomdotsizeEA/R/6_Ratio_250_L_6_R_24.png","img/750/randomdotsizeEA/R/7_Ratio_750_L_3_R_4.png","img/250/randomdotsize/L/7_Ratio_250_L_8_R_2.png","img/250/randomdotsize/R/13_Ratio_250_L_2_R_8.png","img/250/equaldotanddens/R/9_Ratio_250_L_3_R_12.png","img/500/randomdotsize/R/14_Ratio_500_L_5_R_10.png","img/250/randomdotsizeEA/R/8_Ratio_250_L_1_R_4.png","img/750/randomdotsize/R/11_Ratio_750_L_12_R_16.png","img/750/randomdotsize/R/15_Ratio_750_L_9_R_12.png","img/250/equaldotsize/L/15_Ratio_250_L_12_R_3.png","img/500/randomdotsizeEA/L/7_Ratio_500_L_10_R_5.png","img/500/randomdotsizeEA/L/11_Ratio_500_L_12_R_6.png","img/250/randomdotsizeEA/L/15_Ratio_250_L_12_R_3.png","img/900/randomdotsize/L/4_Ratio_900_L_20_R_18.png","img/750/equaldotsize/L/8_Ratio_750_L_4_R_3.png","img/900/randomdotsize/R/12_Ratio_900_L_18_R_20.png","img/250/equaldotanddens/L/14_Ratio_250_L_12_R_3.png","img/500/equaldotsize/L/4_Ratio_500_L_18_R_9.png","img/900/equaldotanddens/L/2_Ratio_900_L_20_R_18.png","img/900/randomdotsize/L/2_Ratio_900_L_20_R_18.png","img/750/equaldotanddens/R/4_Ratio_750_L_15_R_20.png","img/750/randomdotsizeEA/L/6_Ratio_750_L_24_R_18.png","img/250/randomdotsizeEA/R/9_Ratio_250_L_3_R_12.png","img/250/equaldotanddens/L/15_Ratio_250_L_12_R_3.png","img/900/randomdotsize/L/8_Ratio_900_L_20_R_18.png","img/750/randomdotsizeEA/R/4_Ratio_750_L_15_R_20.png","img/250/randomdotsizeEA/L/7_Ratio_250_L_8_R_2.png","img/750/equaldotanddens/R/4_Ratio_750_L_15_R_20.png","img/250/equaldotanddens/R/8_Ratio_250_L_1_R_4.png","img/750/randomdotsize/R/5_Ratio_750_L_15_R_20.png","img/500/randomdotsize/R/14_Ratio_500_L_5_R_10.png","img/250/equaldotanddens/L/14_Ratio_250_L_12_R_3.png","img/500/equaldotsize/L/4_Ratio_500_L_18_R_9.png","img/900/equaldotsize/R/12_Ratio_900_L_18_R_20.png","img/250/randomdotsizeEA/L/1_Ratio_250_L_8_R_2.png","img/250/randomdotsize/R/8_Ratio_250_L_1_R_4.png","img/250/equaldotsize/R/13_Ratio_250_L_2_R_8.png","img/500/randomdotsizeEA/L/8_Ratio_500_L_8_R_4.png","img/250/equaldotanddens/R/12_Ratio_250_L_5_R_20.png","img/250/equaldotanddens/L/3_Ratio_250_L_8_R_2.png","img/500/equaldotanddens/L/13_Ratio_500_L_12_R_6.png","img/500/equaldotanddens/L/7_Ratio_500_L_10_R_5.png","img/750/randomdotsize/L/10_Ratio_750_L_4_R_3.png","img/750/equaldotsize/R/5_Ratio_750_L_15_R_20.png","img/500/randomdotsize/R/14_Ratio_500_L_5_R_10.png","img/500/equaldotanddens/R/9_Ratio_500_L_2_R_4.png","img/500/equaldotsize/R/14_Ratio_500_L_5_R_10.png","img/250/randomdotsize/R/9_Ratio_250_L_3_R_12.png","img/900/randomdotsizeEA/R/14_Ratio_900_L_18_R_20.png","img/900/equaldotsize/L/10_Ratio_900_L_20_R_18.png","img/900/equaldotsize/R/14_Ratio_900_L_18_R_20.png","img/250/randomdotsize/L/15_Ratio_250_L_12_R_3.png","img/250/randomdotsizeEA/R/13_Ratio_250_L_2_R_8.png","img/500/equaldotanddens/R/1_Ratio_500_L_9_R_18.png","img/500/randomdotsizeEA/R/3_Ratio_500_L_10_R_20.png","img/750/randomdotsizeEA/R/5_Ratio_750_L_15_R_20.png","img/900/equaldotsize/L/1_Ratio_900_L_10_R_9.png","img/500/randomdotsizeEA/R/1_Ratio_500_L_9_R_18.png","img/900/randomdotsize/L/10_Ratio_900_L_20_R_18.png","img/250/equaldotanddens/L/7_Ratio_250_L_8_R_2.png","img/900/randomdotsize/R/15_Ratio_900_L_9_R_10.png","img/500/randomdotsize/L/10_Ratio_500_L_4_R_2.png","img/500/randomdotsize/L/5_Ratio_500_L_4_R_2.png","img/750/equaldotsize/L/6_Ratio_750_L_24_R_18.png","img/500/randomdotsizeEA/R/12_Ratio_500_L_1_R_2.png","img/900/equaldotsize/R/13_Ratio_900_L_18_R_20.png","img/750/randomdotsizeEA/L/8_Ratio_750_L_4_R_3.png","img/750/randomdotsizeEA/L/13_Ratio_750_L_8_R_6.png","img/900/randomdotsize/R/5_Ratio_900_L_9_R_10.png","img/500/randomdotsize/R/14_Ratio_500_L_5_R_10.png","img/750/randomdotsize/L/6_Ratio_750_L_24_R_18.png","img/900/equaldotanddens/L/4_Ratio_900_L_20_R_18.png","img/900/randomdotsize/L/10_Ratio_900_L_20_R_18.png","img/250/randomdotsizeEA/R/13_Ratio_250_L_2_R_8.png","img/750/equaldotsize/L/6_Ratio_750_L_24_R_18.png","img/750/equaldotsize/R/2_Ratio_750_L_6_R_8.png","img/900/randomdotsizeEA/R/9_Ratio_900_L_18_R_20.png","img/250/randomdotsize/L/15_Ratio_250_L_12_R_3.png","img/750/randomdotsize/R/2_Ratio_750_L_6_R_8.png","img/250/equaldotsize/R/6_Ratio_250_L_6_R_24.png","img/900/randomdotsizeEA/R/14_Ratio_900_L_18_R_20.png","img/900/randomdotsizeEA/R/13_Ratio_900_L_18_R_20.png","img/250/equaldotsize/L/2_Ratio_250_L_16_R_4.png","img/900/equaldotsize/R/6_Ratio_900_L_9_R_10.png","img/750/randomdotsize/L/1_Ratio_750_L_20_R_15.png","img/750/equaldotanddens/R/3_Ratio_750_L_15_R_20.png","img/750/equaldotanddens/R/11_Ratio_750_L_12_R_16.png","img/900/equaldotanddens/L/4_Ratio_900_L_20_R_18.png","img/750/equaldotsize/L/10_Ratio_750_L_4_R_3.png","img/250/equaldotsize/R/12_Ratio_250_L_5_R_20.png"],"Rat0":[["12_Ratio_0_L_9_R_0.png","13_Ratio_0_L_6_R_0.png","5_Ratio_0_L_2_R_0.png","6_Ratio_0_L_4_R_0.png","8_Ratio_0_L_6_R_0.png"],["1_Ratio_0_L_0_R_17.png","10_Ratio_0_L_0_R_22.png","11_Ratio_0_L_0_R_1.png","14_Ratio_0_L_0_R_24.png","15_Ratio_0_L_0_R_4.png","2_Ratio_0_L_0_R_5.png","3_Ratio_0_L_0_R_17.png","4_Ratio_0_L_0_R_7.png","7_Ratio_0_L_0_R_19.png","9_Ratio_0_L_0_R_15.png"]],"Rat250":[["1_Ratio_250_L_8_R_2.png","14_Ratio_250_L_12_R_3.png","15_Ratio_250_L_12_R_3.png","2_Ratio_250_L_16_R_4.png","3_Ratio_250_L_8_R_2.png","5_Ratio_250_L_24_R_6.png","7_Ratio_250_L_8_R_2.png"],["10_Ratio_250_L_4_R_16.png","11_Ratio_250_L_3_R_12.png","12_Ratio_250_L_5_R_20.png","13_Ratio_250_L_2_R_8.png","4_Ratio_250_L_3_R_12.png","6_Ratio_250_L_6_R_24.png","8_Ratio_250_L_1_R_4.png","9_Ratio_250_L_3_R_12.png"]],"Rat500":[["10_Ratio_500_L_4_R_2.png","11_Ratio_500_L_12_R_6.png","13_Ratio_500_L_12_R_6.png","4_Ratio_500_L_18_R_9.png","5_Ratio_500_L_4_R_2.png","7_Ratio_500_L_10_R_5.png","8_Ratio_500_L_8_R_4.png"],["1_Ratio_500_L_9_R_18.png","12_Ratio_500_L_1_R_2.png","14_Ratio_500_L_5_R_10.png","15_Ratio_500_L_1_R_2.png","2_Ratio_500_L_3_R_6.png","3_Ratio_500_L_10_R_20.png","6_Ratio_500_L_9_R_18.png","9_Ratio_500_L_2_R_4.png"]],"Rat750":[["1_Ratio_750_L_20_R_15.png","10_Ratio_750_L_4_R_3.png","13_Ratio_750_L_8_R_6.png","14_Ratio_750_L_8_R_6.png","6_Ratio_750_L_24_R_18.png","8_Ratio_750_L_4_R_3.png","9_Ratio_750_L_4_R_3.png"],["11_Ratio_750_L_12_R_16.png","12_Ratio_750_L_3_R_4.png","15_Ratio_750_L_9_R_12.png","2_Ratio_750_L_6_R_8.png","3_Ratio_750_L_15_R_20.png","4_Ratio_750_L_15_R_20.png","5_Ratio_750_L_15_R_20.png","7_Ratio_750_L_3_R_4.png"]],"Rat900":[["1_Ratio_900_L_10_R_9.png","10_Ratio_900_L_20_R_18.png","2_Ratio_900_L_20_R_18.png","4_Ratio_900_L_20_R_18.png","8_Ratio_900_L_20_R_18.png"],["11_Ratio_900_L_18_R_20.png","12_Ratio_900_L_18_R_20.png","13_Ratio_900_L_18_R_20.png","14_Ratio_900_L_18_R_20.png","15_Ratio_900_L_9_R_10.png","3_Ratio_900_L_9_R_10.png","5_Ratio_900_L_9_R_10.png","6_Ratio_900_L_9_R_10.png","7_Ratio_900_L_9_R_10.png","9_Ratio_900_L_18_R_20.png"]],"Rat1000":[["10_Ratio_1000_L_16_R_16.png","11_Ratio_1000_L_6_R_6.png","12_Ratio_1000_L_14_R_14.png","13_Ratio_1000_L_20_R_20.png","15_Ratio_1000_L_15_R_15.png","2_Ratio_1000_L_17_R_17.png","4_Ratio_1000_L_9_R_9.png","5_Ratio_1000_L_6_R_6.png","6_Ratio_1000_L_19_R_19.png","8_Ratio_1000_L_14_R_14.png","9_Ratio_1000_L_25_R_25.png"],["1_Ratio_1000_L_1_R_1.png","14_Ratio_1000_L_17_R_17.png","3_Ratio_1000_L_17_R_17.png","7_Ratio_1000_L_6_R_6.png"]]}},{"start_time":1549310011423,"click_time":1549310013274,"finger_time":1549310012934,"fix_duration":967.1387496663954,"trial":1,"RT":1511,"MT":340,"sideResp":1,"stimulus":"img/500/equaldotsize/L/10_Ratio_500_L_4_R_2.png","xmouse":[413,413,413,413,413,413,413,413,413,413,413,413,413,413,413,413,413,413,413,413,413,413,413,413,413,413,413,413,413,413,413,413,413,413,413,413,413,413,413,413,413,413,413,413,413,413,413,413,413,413,413,413,413,413,413,413,413,413,413,413,413,413,413,413,413,413,413,413,413,413,413,413,406,399,399,366.6669921875,358,338,316.6669921875,284,272,251,229,216,181,160,142.66700744628906,134,120,96,81,74,62],"ymouse":[810,810,810,810,810,810,810,810,810,810,810,810,810,810,810,810,810,810,810,810,810,810,810,810,810,810,810,810,810,810,810,810,810,810,810,810,810,810,810,810,810,810,810,810,810,810,810,810,810,810,810,810,810,810,810,810,810,810,810,810,810,810,810,810,810,810,810,810,810,810,810,810,804,790,790,704.6669921875,682,637,589.3330078125,513,488,438,390,368,306,268,232.66700744628906,214,182,142,120,110,94],"timestamp_mouse":[10,37,51,71,91,111,131,151,171,191,211,231,251,271,291,311,330,351,371,391,410,430,451,471,490,511,531,551,571,591,611,631,650,671,691,710,731,751,771,791,810,831,851,871,891,911,931,951,971,991,1010,1031,1051,1071,1091,1110,1131,1150,1171,1191,1211,1231,1251,1271,1291,1311,1330,1351,1371,1391,1410,1431,1451,1471,1490,1511,1531,1550,1571,1591,1612,1630,1650,1671,1693,1712,1731,1751,1770,1792,1810,1830,1851],"xSR":350,"ySR":768,"xT1":30,"yT1":0,"xT2":670,"yT2":0,"toosoon":0,"cond_shown":"equaldotsize","ratio_trial":500,"smaller_num":"2","larger_num":"4","correct_side":1,"subjID":"17","gender":"No_gender","age":"No_age","school":"No_school"},{"start_time":1549310016156,"click_time":1549310017514,"finger_time":1549310017253,"fix_duration":1140.9836781469774,"trial":2,"RT":1097,"MT":261,"sideResp":2,"stimulus":"img/750/randomdotsizeEA/R/15_Ratio_750_L_9_R_12.png","xmouse":[406,406,406,406,406,406,406,407.3330078125,407.3330078125,407.3330078125,407.3330078125,407.3330078125,407.3330078125,407.3330078125,407.3330078125,407.3330078125,407.3330078125,408,408,408,408,408,408,408,408,408,408,410,410,410,410,410,410,410,410,410,410,410.6669921875,410.6669921875,410.6669921875,410.6669921875,410.6669921875,410.6669921875,410.6669921875,410.6669921875,410.6669921875,410.6669921875,413.3330078125,413.3330078125,413.3330078125,413.3330078125,413.3330078125,413.3330078125,413.3330078125,475.3330078125,501.3330078125,510,530,551,586,596,614,635.3330078125,644.6669921875,672.6669921875,688,700,706.6669921875],"ymouse":[813,813,813,813,813,813,813,813.3330078125,813.3330078125,813.3330078125,813.3330078125,813.3330078125,813.3330078125,813.3330078125,813.3330078125,813.3330078125,813.3330078125,814,814,814,814,814,814,814,814,814,814,816,816,816,816,816,816,816,816,816,816,817.3330078125,817.3330078125,817.3330078125,817.3330078125,817.3330078125,817.3330078125,817.3330078125,817.3330078125,817.3330078125,817.3330078125,819.3330078125,819.3330078125,819.3330078125,819.3330078125,819.3330078125,819.3330078125,819.3330078125,708.6669921875,655.3330078125,628,571,510,416,388,330,274.6669921875,247.3330078125,175.33299255371094,134,102,87.33300018310547],"timestamp_mouse":[29,38,58,78,98,118,138,157,178,198,218,238,258,277,297,318,338,358,378,398,418,437,458,478,497,518,537,558,578,598,618,637,658,677,698,718,738,758,777,797,818,837,858,878,897,917,938,958,978,998,1018,1038,1058,1079,1097,1118,1138,1157,1178,1198,1218,1238,1258,1278,1298,1318,1338,1357],"xSR":350,"ySR":768,"xT1":30,"yT1":0,"xT2":670,"yT2":0,"toosoon":0,"cond_shown":"randomdotsizeEA","ratio_trial":750,"smaller_num":"9","larger_num":"12","correct_side":2,"subjID":"17","gender":"No_gender","age":"No_age","school":"No_school"},{"start_time":1549310020499,"click_time":1549310022394,"finger_time":1549310022153,"fix_duration":1444.6105345821777,"trial":3,"RT":1654,"MT":241,"sideResp":1,"stimulus":"img/500/randomdotsizeEA/L/5_Ratio_500_L_4_R_2.png","xmouse":[396.6669921875,396.6669921875,396.6669921875,398.6669921875,398.6669921875,398.6669921875,398.6669921875,398.6669921875,398.6669921875,398.6669921875,398.6669921875,398.6669921875,394.6669921875,394,394,394,394,394,394.6669921875,394.6669921875,394.6669921875,394.6669921875,394.6669921875,394.6669921875,394.6669921875,394.6669921875,394.6669921875,394.6669921875,394.6669921875,394.6669921875,394.6669921875,394.6669921875,394.6669921875,394.6669921875,394.6669921875,394.6669921875,394.6669921875,394.6669921875,394.6669921875,394.6669921875,396,396,396,396,396,396,396,396,396,396,395.3330078125,395.3330078125,395.3330078125,395.3330078125,395.3330078125,395.3330078125,395.3330078125,395.3330078125,395.3330078125,395.3330078125,398.6669921875,398.6669921875,398.6669921875,398.6669921875,398.6669921875,398.6669921875,398.6669921875,398.6669921875,398.6669921875,398.6669921875,398.6669921875,399.3330078125,399.3330078125,399.3330078125,399.3330078125,399.3330078125,399.3330078125,399.3330078125,399.3330078125,399.3330078125,379.3330078125,372.6669921875,356,331,312,302.6669921875,282,260,248,210,181.33299255371094,152,138,112,86],"ymouse":[819.3330078125,819.3330078125,819.3330078125,820.6669921875,820.6669921875,820.6669921875,820.6669921875,820.6669921875,820.6669921875,820.6669921875,820.6669921875,820.6669921875,813.3330078125,812,812,811,810,810,810.6669921875,810.6669921875,810.6669921875,810.6669921875,810.6669921875,810.6669921875,810.6669921875,810.6669921875,810.6669921875,810.6669921875,810.6669921875,810.6669921875,811.3330078125,811.3330078125,811.3330078125,811.3330078125,811.3330078125,811.3330078125,811.3330078125,811.3330078125,811.3330078125,811.3330078125,813,813,813,813,813,813,813,813,813,813,814.6669921875,814.6669921875,814.6669921875,814.6669921875,814.6669921875,814.6669921875,814.6669921875,814.6669921875,814.6669921875,814.6669921875,815.3330078125,815.3330078125,815.3330078125,815.3330078125,815.3330078125,815.3330078125,815.3330078125,815.3330078125,815.3330078125,815.3330078125,815.3330078125,815.3330078125,815.3330078125,815.3330078125,815.3330078125,815.3330078125,815.3330078125,815.3330078125,815.3330078125,815.3330078125,785.3330078125,773.3330078125,742,684,635,608.6669921875,550,484,449,348,279.3330078125,216,185,128,57],"timestamp_mouse":[15,42,55,74,95,115,135,155,175,195,215,235,255,275,295,315,334,355,374,395,415,435,455,475,495,515,535,555,575,595,615,634,655,675,695,715,735,755,774,794,815,835,855,875,895,914,935,955,975,995,1015,1035,1054,1075,1095,1115,1135,1154,1176,1195,1214,1235,1255,1275,1294,1314,1335,1355,1375,1395,1415,1435,1455,1475,1495,1514,1535,1554,1575,1595,1615,1635,1654,1676,1695,1715,1735,1754,1775,1795,1814,1834,1855,1875,1894],"xSR":350,"ySR":768,"xT1":30,"yT1":0,"xT2":670,"yT2":0,"toosoon":0,"cond_shown":"randomdotsizeEA","ratio_trial":500,"smaller_num":"2","larger_num":"4","correct_side":1,"subjID":"17","gender":"No_gender","age":"No_age","school":"No_school"},{"start_time":1549310024102,"click_time":1549310025474,"finger_time":1549310025214,"fix_duration":326.8611429469994,"trial":4,"RT":1112,"MT":260,"sideResp":1,"stimulus":"img/750/randomdotsize/L/14_Ratio_750_L_8_R_6.png","xmouse":[396,396,396,396,396,396,396,396,396,396,396,396,394,394,394,394,394,394,394,394,394,394,393.3330078125,393.3330078125,393.3330078125,393.3330078125,393.3330078125,393.3330078125,393.3330078125,393.3330078125,393.3330078125,393.3330078125,396,396,396,396,396,396,396,396,396,396,396.6669921875,396.6669921875,396.6669921875,396.6669921875,396.6669921875,396.6669921875,396.6669921875,396.6669921875,396.6669921875,396.6669921875,382,378,365,339.3330078125,321,302.6669921875,292,264,246,226,214.66700744628906,192,155.33299255371094,134.66700744628906,126,108,90.66699981689453],"ymouse":[832,832,831,831,831,831,831,831,831,831,831,831,830,830,830,830,830,830,830,830,830,830,830.6669921875,830.6669921875,830.6669921875,830.6669921875,830.6669921875,830.6669921875,830.6669921875,830.6669921875,830.6669921875,830.6669921875,835,835,835,835,835,835,835,835,835,835,836.6669921875,836.6669921875,836.6669921875,836.6669921875,836.6669921875,836.6669921875,836.6669921875,836.6669921875,836.6669921875,836.6669921875,820,810,772,708.6669921875,664,612.6669921875,586,498,439,381,352.6669921875,300,227.33299255371094,183.33299255371094,162,124,91.33300018310547],"timestamp_mouse":[27,31,52,71,91,112,132,152,172,191,211,232,252,272,291,312,332,352,372,391,412,432,452,472,492,512,532,552,572,592,611,632,652,672,692,711,732,752,771,792,812,831,852,872,893,912,932,952,971,992,1012,1032,1052,1072,1092,1112,1132,1152,1172,1195,1212,1232,1252,1272,1294,1311,1332,1352,1372],"xSR":350,"ySR":768,"xT1":30,"yT1":0,"xT2":670,"yT2":0,"toosoon":0,"cond_shown":"randomdotsize","ratio_trial":750,"smaller_num":"6","larger_num":"8","correct_side":1,"subjID":"17","gender":"No_gender","age":"No_age","school":"No_school"},{"start_time":1549310027803,"click_time":1549310028835,"finger_time":1549310028537,"fix_duration":1067.9455656418136,"trial":5,"RT":734,"MT":298,"sideResp":2,"stimulus":"img/900/randomdotsizeEA/R/6_Ratio_900_L_9_R_10.png","xmouse":[418.6669921875,418.6669921875,418,418,418,418,418,418,418,418,418,418,418,418,410,410,410,410,410,410,410,410,410,410,410,410,410,410,410,410,410,410,410,410,421.3330078125,444,462,470.6669921875,485.3330078125,510.6669921875,531.3330078125,541.3330078125,559,575.3330078125,586,617.3330078125,640,660.6669921875,669.3330078125,688.6669921875,713.3330078125],"ymouse":[848.6669921875,848.6669921875,848,848,846,846,846,846,846,846,846,846,846,846,845,845,845,845,845,845,845,845,845,845,847,847,847,847,847,847,847,847,847,847,791.3330078125,714,660,631.3330078125,572.6669921875,480.6669921875,418.6669921875,395.3330078125,346,302.6669921875,279,215.33299255371094,180,150.66700744628906,137.33299255371094,112.6669921875,84.66699981689453],"timestamp_mouse":[32,51,71,90,111,131,151,170,191,210,232,251,271,291,314,331,351,370,391,411,430,451,471,491,510,530,551,571,591,611,632,650,670,691,711,734,753,771,791,814,831,851,871,891,911,931,951,970,991,1011,1031],"xSR":350,"ySR":768,"xT1":30,"yT1":0,"xT2":670,"yT2":0,"toosoon":0,"cond_shown":"randomdotsizeEA","ratio_trial":900,"smaller_num":"9","larger_num":"10","correct_side":2,"subjID":"17","gender":"No_gender","age":"No_age","school":"No_school"},{"start_time":1549310030942,"click_time":1549310032094,"finger_time":1549310031873,"fix_duration":1166.7929824995927,"trial":6,"RT":931,"MT":221,"sideResp":2,"stimulus":"img/500/equaldotanddens/R/12_Ratio_500_L_1_R_2.png","xmouse":[418,418,418,418,419.3330078125,420,420,420,420,419,419,419,419,419,419,419,419,419,419,411.3330078125,411.3330078125,411.3330078125,410,410,409,409.3330078125,409.3330078125,409.3330078125,409.3330078125,410.6669921875,410.6669921875,410.6669921875,410.6669921875,410.6669921875,410.6669921875,410.6669921875,410.6669921875,410.6669921875,410.6669921875,417.3330078125,417.3330078125,417.3330078125,417.3330078125,417.3330078125,442.6669921875,450.6669921875,465,482.6669921875,491.3330078125,519,540,564,578,606,650,672,680.6669921875],"ymouse":[842,842,842,842,842.6669921875,842,842,842,842,842,842,842,842,842,842,842,842,842,842,841.3330078125,841.3330078125,841.3330078125,842,842,842,842.6669921875,842.6669921875,842.6669921875,842.6669921875,845.3330078125,845.3330078125,845.3330078125,845.3330078125,845.3330078125,845.3330078125,845.3330078125,845.3330078125,845.3330078125,845.3330078125,841.3330078125,841.3330078125,841.3330078125,841.3330078125,841.3330078125,782.6669921875,759.3330078125,702,633.3330078125,598.6669921875,490,418,350,314,246,154,112,97.33300018310547],"timestamp_mouse":[35,52,72,93,112,132,152,172,192,212,232,252,272,292,313,332,352,371,392,414,432,452,472,491,511,532,552,572,592,612,632,651,672,691,712,733,752,771,793,815,832,852,872,891,912,931,952,972,992,1012,1032,1052,1072,1092,1111,1132,1152],"xSR":350,"ySR":768,"xT1":30,"yT1":0,"xT2":670,"yT2":0,"toosoon":0,"cond_shown":"equaldotanddens","ratio_trial":500,"smaller_num":"1","larger_num":"2","correct_side":2,"subjID":"17","gender":"No_gender","age":"No_age","school":"No_school"},{"start_time":1549310037073,"click_time":1549310039414,"finger_time":1549310039174,"fix_duration":372.9425924029485,"trial":7,"RT":2101,"MT":240,"sideResp":1,"stimulus":"img/250/equaldotsize/L/3_Ratio_250_L_8_R_2.png","xmouse":[408,408,408,408,408,408,408,408,408,408,408,408,408,408,408,408,408,408,408,408,401,401.3330078125,401.3330078125,401.3330078125,402,402,402.6669921875,402.6669921875,402.6669921875,402.6669921875,402.6669921875,402.6669921875,402.6669921875,410.6669921875,410.6669921875,410.6669921875,410.6669921875,410.6669921875,410,410,410,410,410,410,410,411.3330078125,412,412.6669921875,413.3330078125,414,414,414.6669921875,414.6669921875,414.6669921875,414.6669921875,414.6669921875,414.6669921875,414.6669921875,414,414,414,414,414,414,414,414,414,414,414,410.6669921875,410.6669921875,410.6669921875,410.6669921875,410.6669921875,410.6669921875,410.6669921875,410.6669921875,410.6669921875,410.6669921875,406,406,406,406,405,405.3330078125,405.3330078125,405.3330078125,405.3330078125,405,405.3330078125,405,405.3330078125,405.3330078125,406,406,406.6669921875,406.6669921875,406.6669921875,406.6669921875,406.6669921875,406.6669921875,406.6669921875,406.6669921875,406.6669921875,398.6669921875,386.6669921875,365.3330078125,350,343.3330078125,328,318.6669921875,297.3330078125,256.6669921875,225.33299255371094,210,180,138.66700744628906,113],"ymouse":[822,822,822,822,822,822,822,822,822,822,822,822,822,822,822,822,822,822,822,822,828,827.3330078125,827.3330078125,827.3330078125,827,827,826.6669921875,826.6669921875,826.6669921875,826.6669921875,826.6669921875,826.6669921875,826.6669921875,826.6669921875,826.6669921875,826.6669921875,826.6669921875,827.3330078125,827,827,828,828,828,828,828,834.6669921875,836,837.3330078125,838.6669921875,838,839,839.3330078125,839.3330078125,839.3330078125,838.6669921875,838.6669921875,838.6669921875,838.6669921875,838,837,837,837,837,837,837,837,837,837,837,833.3330078125,833.3330078125,833.3330078125,833.3330078125,833.3330078125,833.3330078125,833.3330078125,833.3330078125,833.3330078125,833.3330078125,838,838,837,837,836,835.3330078125,834.6669921875,833.3330078125,832.6669921875,832,830.6669921875,830,829.3330078125,829.3330078125,829,829,829.3330078125,829.3330078125,829.3330078125,829.3330078125,829.3330078125,829.3330078125,829.3330078125,829.3330078125,829.3330078125,792.6669921875,749.3330078125,684.6669921875,635,607.3330078125,547,512.6669921875,445.3330078125,349.3330078125,284.6669921875,252,190,107.33300018310547,62],"timestamp_mouse":[7,21,41,61,81,101,121,141,161,181,201,221,241,261,280,301,321,340,361,381,401,421,441,461,481,503,521,541,561,581,600,621,641,661,681,701,721,741,760,781,801,821,841,861,880,900,921,940,961,981,1001,1020,1041,1061,1081,1101,1121,1140,1161,1180,1201,1221,1241,1261,1281,1301,1321,1341,1361,1381,1401,1422,1440,1461,1481,1501,1520,1540,1561,1581,1601,1621,1640,1661,1681,1701,1721,1741,1761,1781,1800,1821,1841,1861,1881,1901,1921,1941,1961,1981,2001,2021,2040,2061,2080,2101,2122,2141,2161,2181,2201,2221,2241,2261,2281,2301,2323,2341],"xSR":350,"ySR":768,"xT1":30,"yT1":0,"xT2":670,"yT2":0,"toosoon":0,"cond_shown":"equaldotsize","ratio_trial":250,"smaller_num":"2","larger_num":"8","correct_side":1,"subjID":"17","gender":"No_gender","age":"No_age","school":"No_school"},{"start_time":1549310041046,"click_time":1549310042216,"finger_time":1549310042034,"fix_duration":672.5815985432532,"trial":8,"RT":988,"MT":182,"sideResp":2,"stimulus":"img/900/randomdotsizeEA/R/3_Ratio_900_L_9_R_10.png","xmouse":[420,420,420,420,420,420,420,420,420,419.3330078125,419.3330078125,419.3330078125,419.3330078125,419.3330078125,419.3330078125,419.3330078125,419.3330078125,419.3330078125,419.3330078125,410,409.3330078125,406.6669921875,406,404,404,404,404,404,404,404,404,404,404,405,405,405,405,405,415.3330078125,416,418.6669921875,418.6669921875,418.6669921875,422.6669921875,422.6669921875,422.6669921875,422.6669921875,422.6669921875,422.6669921875,482,500,534,564,593,614,627.3330078125,661,682,746],"ymouse":[846,846,846,846,846,846,846,846,846,842.6669921875,842.6669921875,842.6669921875,842.6669921875,842.6669921875,842.6669921875,842.6669921875,842.6669921875,842.6669921875,842.6669921875,828,827.3330078125,827.3330078125,827,829,829,829,829,829,829,829,829,829,829,842,842,842,842,842,845.3330078125,846,846.6669921875,846.6669921875,846.6669921875,846.6669921875,846.6669921875,846.6669921875,846.6669921875,846.6669921875,846.6669921875,696,659,588,518,418,350,319.3330078125,250,212,93],"timestamp_mouse":[8,30,47,68,87,108,128,148,168,188,208,227,248,268,288,308,327,348,369,387,408,428,448,467,488,508,528,548,568,588,607,628,648,668,688,708,728,747,769,787,808,827,848,868,888,908,928,948,968,988,1008,1027,1048,1070,1088,1108,1128,1148,1170],"xSR":350,"ySR":768,"xT1":30,"yT1":0,"xT2":670,"yT2":0,"toosoon":0,"cond_shown":"randomdotsizeEA","ratio_trial":900,"smaller_num":"9","larger_num":"10","correct_side":2,"subjID":"17","gender":"No_gender","age":"No_age","school":"No_school"},{"start_time":1549310045064,"click_time":1549310046255,"finger_time":1549310046013,"fix_duration":1469.3845915743284,"trial":9,"RT":949,"MT":242,"sideResp":1,"stimulus":"img/250/equaldotsize/L/5_Ratio_250_L_24_R_6.png","xmouse":[411.3330078125,411.3330078125,411.3330078125,411.3330078125,419,420,420,420,420,419,418.6669921875,418.6669921875,418.6669921875,418.6669921875,418.6669921875,418.6669921875,418.6669921875,418.6669921875,418.6669921875,418.6669921875,407,407.3330078125,407.3330078125,407.3330078125,407.3330078125,407.3330078125,407.3330078125,407.3330078125,407.3330078125,407.3330078125,401.3330078125,401.3330078125,401.3330078125,401.3330078125,401.3330078125,401.3330078125,401.3330078125,401.3330078125,401.3330078125,401.3330078125,401.3330078125,401.3330078125,401.3330078125,401.3330078125,401.3330078125,398,382.6669921875,352,339,307,290.6669921875,276,269.3330078125,254,228,206,194,168.66700744628906,143.33299255371094,110],"ymouse":[842.6669921875,842.6669921875,842.6669921875,842.6669921875,848,848,848,848,848,848,847.3330078125,847.3330078125,847.3330078125,847.3330078125,847.3330078125,847.3330078125,847.3330078125,847.3330078125,847.3330078125,847.3330078125,836,836.6669921875,836.6669921875,836.6669921875,836.6669921875,836.6669921875,836.6669921875,836.6669921875,836.6669921875,836.6669921875,838.6669921875,838.6669921875,838.6669921875,838.6669921875,838.6669921875,838.6669921875,838.6669921875,838.6669921875,838.6669921875,838.6669921875,835.3330078125,835.3330078125,835.3330078125,835.3330078125,835.3330078125,825,797.3330078125,742,716,642,578.6669921875,502,462.6669921875,382,283,224,197,150.66700744628906,110.66699981689453,67],"timestamp_mouse":[13,41,50,70,90,110,131,150,169,190,210,230,250,270,291,310,330,350,370,390,410,430,450,471,490,510,530,550,570,591,612,629,650,670,690,710,730,751,779,791,810,830,850,870,890,909,930,949,970,990,1010,1030,1050,1070,1090,1110,1130,1150,1169,1190],"xSR":350,"ySR":768,"xT1":30,"yT1":0,"xT2":670,"yT2":0,"toosoon":0,"cond_shown":"equaldotsize","ratio_trial":250,"smaller_num":"6","larger_num":"24","correct_side":1,"subjID":"17","gender":"No_gender","age":"No_age","school":"No_school"},{"start_time":1549310058561,"click_time":1549310060214,"finger_time":1549310059954,"fix_duration":1285.5535566311996,"trial":10,"RT":1393,"MT":260,"sideResp":2,"stimulus":"img/250/randomdotsizeEA/R/12_Ratio_250_L_5_R_20.png","xmouse":[396.6669921875,396.6669921875,396.6669921875,396.6669921875,396.6669921875,396.6669921875,396.6669921875,396.6669921875,398.6669921875,398.6669921875,398.6669921875,398.6669921875,398.6669921875,398.6669921875,398.6669921875,398.6669921875,398.6669921875,398.6669921875,400,400,400,400,400,400,400,400,400,400,402,402,402,402,402,402,402,402,402,402,402,402,402,402,402,402,402,402,402,402,403.3330078125,403.3330078125,403.3330078125,403,403.3330078125,404,404.6669921875,404.6669921875,404.6669921875,404.6669921875,408.6669921875,408.6669921875,408.6669921875,408.6669921875,408.6669921875,408.6669921875,408.6669921875,408.6669921875,408.6669921875,408.6669921875,413.3330078125,433.3330078125,456,481.3330078125,492,508,526,544.6669921875,554,576.6669921875,600,640,653.3330078125,679,696],"ymouse":[826.6669921875,826.6669921875,826.6669921875,826.6669921875,826.6669921875,826.6669921875,826.6669921875,826.6669921875,825.3330078125,825.3330078125,825.3330078125,825.3330078125,825.3330078125,825.3330078125,825.3330078125,825.3330078125,825.3330078125,825.3330078125,824,824,824,824,824,824,824,824,824,824,823,823,823,823,823,823,823,823,823,823,822,822,822,822,822,822,822,822,822,822,810.6669921875,806.6669921875,804.6669921875,802,801.3330078125,800,800.6669921875,800.6669921875,800.6669921875,800.6669921875,810.6669921875,810.6669921875,810.6669921875,810.6669921875,810.6669921875,810.6669921875,810.6669921875,810.6669921875,810.6669921875,810.6669921875,793.3330078125,753.3330078125,706,655.3330078125,630,580,504,443.3330078125,416,358.6669921875,299,211,184.66700744628906,134,96],"timestamp_mouse":[13,42,53,73,92,113,133,153,173,193,213,233,253,273,292,313,333,353,373,393,413,433,453,473,493,513,533,553,573,593,612,633,653,675,693,712,733,753,773,793,813,833,853,873,892,913,933,953,975,993,1013,1033,1053,1073,1095,1113,1133,1153,1172,1193,1213,1233,1253,1273,1294,1312,1333,1353,1373,1393,1413,1433,1453,1474,1493,1513,1533,1553,1573,1592,1613,1632,1653],"xSR":350,"ySR":768,"xT1":30,"yT1":0,"xT2":670,"yT2":0,"toosoon":0,"cond_shown":"randomdotsizeEA","ratio_trial":250,"smaller_num":"5","larger_num":"20","correct_side":2,"subjID":"17","gender":"No_gender","age":"No_age","school":"No_school"},{"start_time":1549310062262,"click_time":1549310063414,"finger_time":1549310063114,"fix_duration":1187.5012624899887,"trial":11,"RT":852,"MT":300,"sideResp":1,"stimulus":"img/500/equaldotsize/L/13_Ratio_500_L_12_R_6.png","xmouse":[390,390,390,386.6669921875,386.6669921875,386.6669921875,386.6669921875,386.6669921875,386.6669921875,386.6669921875,386.6669921875,386.6669921875,386.6669921875,386.6669921875,386.6669921875,386.6669921875,386.6669921875,386.6669921875,387.3330078125,387.3330078125,388,388,388.6669921875,388.6669921875,390,390,390.6669921875,390.6669921875,391.3330078125,391.3330078125,391.3330078125,391.3330078125,391.3330078125,391.3330078125,391.3330078125,391.3330078125,391.3330078125,391.3330078125,393.3330078125,393.3330078125,384.6669921875,374,367.3330078125,350.6669921875,324,302.6669921875,288,260,228,178,161,132.66700744628906,108.66699981689453,99.33300018310547,78,68,61.33300018310547],"ymouse":[822,822,822,821.3330078125,821.3330078125,821.3330078125,821.3330078125,821.3330078125,821.3330078125,821.3330078125,821.3330078125,821.3330078125,821.3330078125,821.3330078125,821.3330078125,821.3330078125,824.6669921875,825.3330078125,826.6669921875,827.3330078125,828,828,828.6669921875,829.3330078125,829,829,829.3330078125,828.6669921875,828.6669921875,828.6669921875,828.6669921875,828.6669921875,828.6669921875,828.6669921875,828.6669921875,828.6669921875,828.6669921875,828.6669921875,816.6669921875,816.6669921875,775.3330078125,734,713.3330078125,670.6669921875,602,552.6669921875,526,470,416,342,318,273.3330078125,229.33299255371094,208.66700744628906,150,118,94.66699981689453],"timestamp_mouse":[32,52,72,92,112,132,152,171,191,212,232,252,272,292,312,332,352,372,392,412,432,452,472,492,513,532,552,572,592,612,632,651,671,692,713,732,752,772,791,811,832,852,872,892,912,932,952,972,992,1012,1032,1052,1072,1092,1114,1132,1151],"xSR":350,"ySR":768,"xT1":30,"yT1":0,"xT2":670,"yT2":0,"toosoon":0,"cond_shown":"equaldotsize","ratio_trial":500,"smaller_num":"6","larger_num":"12","correct_side":1,"subjID":"17","gender":"No_gender","age":"No_age","school":"No_school"},{"start_time":1549310064745,"click_time":1549310066134,"finger_time":1549310065854,"fix_duration":283.5218726413166,"trial":12,"RT":1109,"MT":280,"sideResp":1,"stimulus":"img/500/randomdotsizeEA/L/8_Ratio_500_L_8_R_4.png","xmouse":[404,404,398.6669921875,398,398,398,398.6669921875,398.6669921875,398.6669921875,398.6669921875,398.6669921875,398.6669921875,398.6669921875,398.6669921875,398.6669921875,398.6669921875,398.6669921875,398.6669921875,398.6669921875,398.6669921875,398.6669921875,398.6669921875,398.6669921875,398.6669921875,398.6669921875,398.6669921875,403.3330078125,403.3330078125,403.3330078125,403.3330078125,403.3330078125,403.3330078125,403.3330078125,403.3330078125,403.3330078125,403.3330078125,403.3330078125,403.3330078125,403.3330078125,403.3330078125,403.3330078125,403.3330078125,403.3330078125,406.6669921875,408,408,409,409,409.3330078125,408,408,408,405.3330078125,405.3330078125,405.3330078125,378,359.3330078125,331.3330078125,314,294.6669921875,284,262.6669921875,231,209.33299255371094,199.33299255371094,181.33299255371094,172,134,124,107.33300018310547],"ymouse":[807,807,809.3330078125,809,809,809,805.3330078125,805.3330078125,805.3330078125,805.3330078125,805.3330078125,805.3330078125,805.3330078125,805.3330078125,805.3330078125,805.3330078125,799.3330078125,799.3330078125,799.3330078125,799.3330078125,799.3330078125,799.3330078125,799.3330078125,799.3330078125,799.3330078125,799.3330078125,801.3330078125,801.3330078125,801.3330078125,801.3330078125,801.3330078125,801.3330078125,801.3330078125,801.3330078125,801.3330078125,801.3330078125,806.6669921875,806.6669921875,806.6669921875,806.6669921875,806.6669921875,806.6669921875,806.6669921875,816.6669921875,818,820,822,824,825.3330078125,826,826,825,822.6669921875,822.6669921875,822.6669921875,758,720.6669921875,666.6669921875,626,581.3330078125,556,504.6669921875,426,371.3330078125,343.3330078125,288.6669921875,260,152,128,88.66699981689453],"timestamp_mouse":[22,28,51,69,89,109,129,150,169,189,209,229,249,269,289,309,329,349,369,388,409,429,449,468,488,509,529,549,569,589,609,629,649,669,689,708,729,749,769,788,809,829,848,869,889,909,929,949,968,989,1009,1029,1050,1069,1089,1109,1128,1150,1169,1189,1209,1229,1249,1269,1289,1309,1329,1349,1369,1389],"xSR":350,"ySR":768,"xT1":30,"yT1":0,"xT2":670,"yT2":0,"toosoon":0,"cond_shown":"randomdotsizeEA","ratio_trial":500,"smaller_num":"4","larger_num":"8","correct_side":1,"subjID":"17","gender":"No_gender","age":"No_age","school":"No_school"},{"start_time":1549310068024,"click_time":1549310069316,"finger_time":1549310068993,"fix_duration":1027.6495265407932,"trial":13,"RT":969,"MT":323,"sideResp":2,"stimulus":"img/900/randomdotsizeEA/L/2_Ratio_900_L_20_R_18.png","xmouse":[385.3330078125,385.3330078125,385.3330078125,385.3330078125,385.3330078125,385.3330078125,386,386,386,386,386,386,386,386,385,385,385.3330078125,385.3330078125,385.3330078125,385,385,385,385,385,385,385,385,385,385,384.6669921875,384.6669921875,384.6669921875,384.6669921875,384,384,384,384,384,384,384,384,384,384,384,384,384,384,384,408,437.3330078125,445.3330078125,461.3330078125,484.6669921875,498,558,573.3330078125,596,607.3330078125,626.6669921875,646,657.3330078125,662,673,684,699.3330078125],"ymouse":[802.6669921875,802.6669921875,802.6669921875,802.6669921875,802.6669921875,802.6669921875,810,810,810,812,812,812,812,812,818,818,817.3330078125,817.3330078125,817.3330078125,814,814,814,814,814,814,814,814,814,814,817.3330078125,817.3330078125,817.3330078125,817.3330078125,819,820,820,820,820,820,821,820,820,820,820,820,820,820,820,752,694.6669921875,677.3330078125,637.3330078125,587.3330078125,559,443,412.6669921875,356,330.6669921875,279.3330078125,214,179.33299255371094,162,134,110,86.66699981689453],"timestamp_mouse":[13,44,50,70,91,110,130,150,170,191,209,230,250,270,290,310,329,350,370,391,410,430,450,470,490,510,529,549,570,590,610,630,649,670,689,710,730,749,770,790,810,830,850,870,891,909,930,950,969,991,1010,1030,1050,1070,1091,1110,1130,1150,1170,1191,1209,1230,1249,1270,1292],"xSR":350,"ySR":768,"xT1":30,"yT1":0,"xT2":670,"yT2":0,"toosoon":0,"cond_shown":"randomdotsizeEA","ratio_trial":900,"smaller_num":"18","larger_num":"20","correct_side":1,"subjID":"17","gender":"No_gender","age":"No_age","school":"No_school"},{"start_time":1549310071367,"click_time":1549310072454,"finger_time":1549310072154,"fix_duration":250,"trial":14,"RT":787,"MT":300,"sideResp":1,"stimulus":"img/250/equaldotsize/L/15_Ratio_250_L_12_R_3.png","xmouse":[390.6669921875,391.3330078125,393,393,393,393,393,400,400,399.3330078125,398.6669921875,398.6669921875,398,398,398,398,398,398,398,398,398,398,396,396,396,396,396,396,396,396,396,396,392,392,392,392,392,392,385,373.3330078125,366.6669921875,352,336,304,291,266,241,228,197.33299255371094,179.33299255371094,158,148,124.6669921875,92.66699981689453,77.33300018310547],"ymouse":[828.6669921875,828.6669921875,828,828,828,828,828,829,829,829.3330078125,828.6669921875,828.6669921875,828,828,828,828,828,828,828,828,828,828,820,820,820,820,820,820,820,820,820,820,824,824,824,824,824,824,782,750.6669921875,733.3330078125,698,657,581,554,500,450,422,345.3330078125,290.6669921875,236,210,163.33299255371094,103.33300018310547,74.66699981689453],"timestamp_mouse":[11,36,47,67,87,107,127,147,166,187,207,227,247,269,286,306,327,347,368,387,407,427,446,467,486,506,526,547,567,587,607,627,647,667,688,707,727,746,767,787,807,827,847,867,887,907,927,947,968,986,1006,1027,1047,1070,1087],"xSR":350,"ySR":768,"xT1":30,"yT1":0,"xT2":670,"yT2":0,"toosoon":0,"cond_shown":"equaldotsize","ratio_trial":250,"smaller_num":"3","larger_num":"12","correct_side":1,"subjID":"17","gender":"No_gender","age":"No_age","school":"No_school"},{"start_time":1549310074767,"click_time":1549310075814,"finger_time":1549310075574,"fix_duration":1392.6007431768226,"trial":15,"RT":807,"MT":240,"sideResp":1,"stimulus":"img/500/randomdotsize/L/4_Ratio_500_L_18_R_9.png","xmouse":[407.3330078125,407.3330078125,407.3330078125,407.3330078125,407.3330078125,407.3330078125,407.3330078125,407.3330078125,407.3330078125,407.3330078125,407.3330078125,407.3330078125,407.3330078125,407.3330078125,408,408,408,408,408,408,408,408,408,408,407.3330078125,407,407,407,407,407,407,407,407,407,407,396,394.6669921875,393,390.6669921875,390.6669921875,358.6669921875,340,330,308,262.6669921875,231.33299255371094,217.33299255371094,192.66700744628906,169.33299255371094,125.3330078125,109,80,54],"ymouse":[839.3330078125,839.3330078125,839.3330078125,839.3330078125,839.3330078125,839.3330078125,839.3330078125,839.3330078125,833.3330078125,833.3330078125,833.3330078125,833.3330078125,833.3330078125,833.3330078125,834,834,834,835,836,836,837,838,838,838,839.3330078125,840,840,840,840,840,840,840,840,840,840,832,828.6669921875,826,817.3330078125,817.3330078125,741.3330078125,698,678,630,542.6669921875,474.6669921875,439.3330078125,368.6669921875,297.3330078125,196.66700744628906,166,110,65],"timestamp_mouse":[9,36,47,66,87,107,127,147,166,187,207,227,247,267,287,307,326,347,366,386,407,427,447,466,489,506,527,547,567,588,607,626,647,667,687,707,727,747,766,787,807,827,847,867,888,906,926,946,967,988,1007,1027,1047],"xSR":350,"ySR":768,"xT1":30,"yT1":0,"xT2":670,"yT2":0,"toosoon":0,"cond_shown":"randomdotsize","ratio_trial":500,"smaller_num":"9","larger_num":"18","correct_side":1,"subjID":"17","gender":"No_gender","age":"No_age","school":"No_school"},{"start_time":1549310077068,"click_time":1549310078315,"finger_time":1549310078054,"fix_duration":412.29227291818285,"trial":16,"RT":986,"MT":261,"sideResp":2,"stimulus":"img/750/equaldotanddens/R/4_Ratio_750_L_15_R_20.png","xmouse":[403,403,403,403,403,403,426,427,428,428,428,428,428,428,428,428,420.6669921875,420.6669921875,420.6669921875,420.6669921875,415.3330078125,415.3330078125,415.3330078125,415.3330078125,415.3330078125,415.3330078125,407.3330078125,407.3330078125,407.3330078125,407.3330078125,407.3330078125,407.3330078125,406.6669921875,406.6669921875,406.6669921875,405,404,404,402,402,399,399,398,398,398,398,396.6669921875,394.6669921875,393.3330078125,394,394,442.6669921875,474,490.6669921875,529.3330078125,590,623.3330078125,640.6669921875,665.3330078125,685.3330078125,708,715.3330078125,732.6669921875],"ymouse":[808,808,808,808,808,808,812,812,811,811,811,811,811,811,811,811,813.3330078125,813.3330078125,813.3330078125,813.3330078125,815.3330078125,815.3330078125,815.3330078125,815.3330078125,815.3330078125,815.3330078125,810.6669921875,810.6669921875,810.6669921875,810.6669921875,810.6669921875,810.6669921875,811.3330078125,811.3330078125,811.3330078125,812,813,813,814,814,814,814,813,813,813,813,800.6669921875,790.6669921875,774.6669921875,762,762,665.3330078125,615,586.6669921875,525.3330078125,426,364.6669921875,330.6669921875,272.6669921875,221.33299255371094,152,131.33299255371094,97.33300018310547],"timestamp_mouse":[11,39,47,66,86,106,125,146,166,186,206,226,246,266,286,308,327,346,366,386,409,425,445,466,486,507,526,546,566,586,606,626,645,666,686,707,725,745,765,786,806,826,846,866,886,907,926,946,966,986,1006,1025,1046,1066,1086,1107,1126,1146,1166,1186,1207,1226,1246],"xSR":350,"ySR":768,"xT1":30,"yT1":0,"xT2":670,"yT2":0,"toosoon":0,"cond_shown":"equaldotanddens","ratio_trial":750,"smaller_num":"15","larger_num":"20","correct_side":2,"subjID":"17","gender":"No_gender","age":"No_age","school":"No_school"},{"start_time":1549310080740,"click_time":1549310081796,"finger_time":1549310081597,"fix_duration":1484.0393118739096,"trial":17,"RT":857,"MT":199,"sideResp":2,"stimulus":"img/500/randomdotsize/R/1_Ratio_500_L_9_R_18.png","xmouse":[378.6669921875,378.6669921875,378.6669921875,378.6669921875,378.6669921875,378.6669921875,378.6669921875,377.3330078125,377.3330078125,377.3330078125,377.3330078125,377.3330078125,377.3330078125,377.3330078125,377.3330078125,377.3330078125,377.3330078125,390,392.6669921875,393.3330078125,396,396.6669921875,399,400,400,400,400,400,400,400,400,400,400,400,400.6669921875,400,401.3330078125,401.3330078125,401.3330078125,401.3330078125,401.3330078125,420,461.3330078125,484,494.6669921875,516,538.6669921875,576.6669921875,602,615,644,658,699],"ymouse":[824.6669921875,824.6669921875,824.6669921875,824.6669921875,824.6669921875,824.6669921875,824.6669921875,825.3330078125,825.3330078125,825.3330078125,825.3330078125,825.3330078125,825.3330078125,825.3330078125,825.3330078125,825.3330078125,825.3330078125,833,833.3330078125,833.3330078125,833,833.3330078125,834,834,834,834,834,834,834,836,837,838,840,841,843.3330078125,844,844.6669921875,844.6669921875,844.6669921875,844.6669921875,844.6669921875,780,684.6669921875,622,592.6669921875,526,458.6669921875,354.6669921875,290,260,196,169,90],"timestamp_mouse":[14,38,54,74,94,114,134,155,174,194,214,233,254,274,294,314,334,355,374,394,413,433,456,474,493,514,534,555,574,593,614,634,654,674,693,714,734,756,774,794,814,834,857,874,894,914,934,955,975,994,1014,1034,1055],"xSR":350,"ySR":768,"xT1":30,"yT1":0,"xT2":670,"yT2":0,"toosoon":0,"cond_shown":"randomdotsize","ratio_trial":500,"smaller_num":"9","larger_num":"18","correct_side":2,"subjID":"17","gender":"No_gender","age":"No_age","school":"No_school"},{"start_time":1549310082966,"click_time":1549310083974,"finger_time":1549310083754,"fix_duration":250,"trial":18,"RT":788,"MT":220,"sideResp":2,"stimulus":"img/750/randomdotsize/R/4_Ratio_750_L_15_R_20.png","xmouse":[382,382,387,387.3330078125,387.3330078125,386,386.6669921875,385.3330078125,383.3330078125,382,381.3330078125,380,378.6669921875,377.3330078125,377.3330078125,377.3330078125,378,378.6669921875,378.6669921875,379,379,380,381.3330078125,381.3330078125,382,382,382,382,382,382,382,382,382,382,386,386,386,397.3330078125,404,422,435.3330078125,464,503,532.6669921875,563,576,600,640.6669921875,671.3330078125,685.3330078125,712],"ymouse":[848,848,840,839.3330078125,838.6669921875,838,837.3330078125,835.3330078125,834.6669921875,833,833.3330078125,833,833.3330078125,833.3330078125,833.3330078125,833.3330078125,832,832.6669921875,832.6669921875,832,832,832,832.6669921875,832.6669921875,832,832,832,832,832,832,832,832,832,832,832,832,832,804.6669921875,784,732,703.3330078125,643,546,474.6669921875,404,373,304,201.33299255371094,141.33299255371094,115.3330078125,74],"timestamp_mouse":[9,36,48,68,88,108,128,148,168,188,208,228,248,268,288,308,327,348,367,388,408,427,449,468,488,507,528,548,568,588,608,628,649,668,687,708,728,748,767,788,808,827,848,868,888,908,927,949,968,988,1008],"xSR":350,"ySR":768,"xT1":30,"yT1":0,"xT2":670,"yT2":0,"toosoon":0,"cond_shown":"randomdotsize","ratio_trial":750,"smaller_num":"15","larger_num":"20","correct_side":2,"subjID":"17","gender":"No_gender","age":"No_age","school":"No_school"},{"start_time":1549310086358,"click_time":1549310087574,"finger_time":1549310087354,"fix_duration":1441.0495291263817,"trial":19,"RT":996,"MT":220,"sideResp":2,"stimulus":"img/900/randomdotsizeEA/L/2_Ratio_900_L_20_R_18.png","xmouse":[416,416,416,416,412,412,411,411.3330078125,411.3330078125,411.3330078125,411.3330078125,407.3330078125,406.6669921875,406.6669921875,404,404,402,402,402,402,402,402,402,402,402,402,411.3330078125,411.3330078125,411.3330078125,411.3330078125,411.3330078125,411.3330078125,411.3330078125,411.3330078125,411.3330078125,411.3330078125,414,414,414,414,414,414,414,414,414,414,412,412,412,441,493.3330078125,518,558,602.6669921875,632.6669921875,646.6669921875,672,687.3330078125,703.3330078125,708.6669921875,716.6669921875],"ymouse":[818,818,818,818,811,812,812,812.6669921875,812.6669921875,812.6669921875,812.6669921875,814.6669921875,815.3330078125,815.3330078125,816,816,818,818,818,818,818,818,818,818,818,818,825.3330078125,825.3330078125,825.3330078125,825.3330078125,825.3330078125,825.3330078125,825.3330078125,825.3330078125,825.3330078125,825.3330078125,822,822,822,822,822,822,822,822,822,822,826,826,826,764,686.6669921875,645,571,464.6669921875,390.6669921875,354.6669921875,284,218.66700744628906,133.33299255371094,107.33300018310547,65.33300018310547],"timestamp_mouse":[32,36,56,75,96,116,136,156,177,196,216,236,255,276,296,315,336,356,376,395,416,436,456,476,496,516,536,555,576,597,616,636,656,676,696,715,736,756,777,796,816,836,856,876,896,916,936,956,976,996,1016,1035,1055,1077,1096,1116,1135,1155,1179,1196,1216],"xSR":350,"ySR":768,"xT1":30,"yT1":0,"xT2":670,"yT2":0,"toosoon":0,"cond_shown":"randomdotsizeEA","ratio_trial":900,"smaller_num":"18","larger_num":"20","correct_side":1,"subjID":"17","gender":"No_gender","age":"No_age","school":"No_school"},{"start_time":1549310090567,"click_time":1549310091734,"finger_time":1549310091473,"fix_duration":250,"trial":20,"RT":906,"MT":261,"sideResp":1,"stimulus":"img/900/equaldotanddens/R/9_Ratio_900_L_18_R_20.png","xmouse":[412,412,412.6669921875,412.6669921875,412.6669921875,412.6669921875,412.6669921875,412.6669921875,412.6669921875,412.6669921875,412.6669921875,412.6669921875,410,410,410,410,410,410,410,410,410,410,409,409,409,409,409,409,409,409,409,409,408,408,408,408,408,408,408,408,408,408,405.3330078125,405.3330078125,405.3330078125,382,374,352.6669921875,326.6669921875,314,275.3330078125,250,226.66700744628906,216.66700744628906,194,159,132,117,89.33300018310547],"ymouse":[854,854,853.3330078125,853.3330078125,853.3330078125,853.3330078125,853.3330078125,853.3330078125,853.3330078125,853.3330078125,853.3330078125,853.3330078125,850,850,850,850,850,850,850,850,850,850,848,848,848,848,848,848,848,848,848,848,842,842,842,842,842,842,842,842,842,842,842.6669921875,842.6669921875,842.6669921875,761,733,675.3330078125,616.6669921875,585,491.3330078125,424,358.6669921875,328.6669921875,264,180,132,112,76.66699981689453],"timestamp_mouse":[15,38,47,67,88,106,126,146,167,187,207,227,247,267,287,307,327,347,366,386,407,427,446,467,487,507,527,547,567,586,607,627,647,666,686,707,727,747,767,786,806,826,847,867,886,906,927,946,967,987,1008,1027,1047,1067,1087,1107,1127,1147,1167],"xSR":350,"ySR":768,"xT1":30,"yT1":0,"xT2":670,"yT2":0,"toosoon":0,"cond_shown":"equaldotanddens","ratio_trial":900,"smaller_num":"18","larger_num":"20","correct_side":2,"subjID":"17","gender":"No_gender","age":"No_age","school":"No_school"},{"start_time":1549310094051,"click_time":1549310095174,"finger_time":1549310094953,"fix_duration":1215.9494547798504,"trial":21,"RT":902,"MT":221,"sideResp":2,"stimulus":"img/500/randomdotsizeEA/R/3_Ratio_500_L_10_R_20.png","xmouse":[378,378,378,378,378,378,377.3330078125,376,376,376,375.3330078125,374.6669921875,374,374,373.3330078125,372.6669921875,372,372,372,372,372,372,372,372,372,372,372,374,374,374,374,374,374,374,374,374,374,376,376,376,376,376,376,386,396,426,457.3330078125,492,500,523.3330078125,551.3330078125,565.3330078125,602,632,666,683.3330078125,710.6669921875],"ymouse":[828,828,828,828,828,828,828.6669921875,830,830,830,833.3330078125,834.6669921875,836,836,836.6669921875,836.6669921875,836,836,836,836,836,836,836,836,836,836,836,829,829,829,829,829,829,829,829,829,829,833,833,833,833,833,833,798,774,714,653.3330078125,570,540,469.3330078125,386.6669921875,346.6669921875,252,192,136,110.66699981689453,66.66699981689453],"timestamp_mouse":[3,29,46,63,83,103,123,143,163,183,203,222,243,262,282,303,323,344,362,382,403,423,444,463,483,503,522,543,563,583,603,623,643,663,683,703,723,743,762,783,803,823,843,863,883,902,923,944,963,983,1003,1023,1044,1063,1083,1103,1123],"xSR":350,"ySR":768,"xT1":30,"yT1":0,"xT2":670,"yT2":0,"toosoon":0,"cond_shown":"randomdotsizeEA","ratio_trial":500,"smaller_num":"10","larger_num":"20","correct_side":2,"subjID":"17","gender":"No_gender","age":"No_age","school":"No_school"},{"start_time":1549310096285,"click_time":1549310097415,"finger_time":1549310097214,"fix_duration":250,"trial":22,"RT":929,"MT":201,"sideResp":2,"stimulus":"img/900/equaldotsize/R/7_Ratio_900_L_9_R_10.png","xmouse":[381.3330078125,381.3330078125,381.3330078125,382,382,381,381,381.3330078125,381.3330078125,380.6669921875,380,380,380,380.6669921875,380.6669921875,380.6669921875,380.6669921875,380.6669921875,380.6669921875,380.6669921875,380.6669921875,380.6669921875,380.6669921875,379,379,379,379,379,379,379,379,379,379,383,383,383,383,383,383,383,383,383,383,390.6669921875,390.6669921875,447.3330078125,464,496.6669921875,526,540.6669921875,608.6669921875,621.3330078125,647,658.6669921875,678,694],"ymouse":[836.6669921875,838.6669921875,839.3330078125,840,840,842,842,842.6669921875,842.6669921875,842.6669921875,842,842,842,841.3330078125,841.3330078125,841.3330078125,841.3330078125,841.3330078125,841.3330078125,841.3330078125,841.3330078125,841.3330078125,841.3330078125,834,834,834,834,834,834,834,834,834,834,834,834,834,834,834,834,834,834,834,834,833.3330078125,833.3330078125,708.6669921875,673,605.3330078125,534,497.3330078125,335.3330078125,300.6669921875,230,194.66700744628906,138,84],"timestamp_mouse":[31,49,68,89,109,129,149,169,189,208,228,249,269,289,309,331,349,369,389,409,429,450,469,489,509,529,549,569,589,609,629,649,669,689,709,729,749,769,788,809,829,849,869,889,908,929,949,969,989,1009,1031,1049,1069,1089,1109,1129],"xSR":350,"ySR":768,"xT1":30,"yT1":0,"xT2":670,"yT2":0,"toosoon":0,"cond_shown":"equaldotsize","ratio_trial":900,"smaller_num":"9","larger_num":"10","correct_side":2,"subjID":"17","gender":"No_gender","age":"No_age","school":"No_school"},{"start_time":1549310099101,"click_time":1549310100495,"finger_time":1549310100254,"fix_duration":486.9904541291236,"trial":23,"RT":1153,"MT":241,"sideResp":2,"stimulus":"img/500/randomdotsize/R/14_Ratio_500_L_5_R_10.png","xmouse":[422,422,422,422,422,422,422,422,422,422,422,422,422,422,422,422,422,422,422,422,422,422,422,426,426,426,426,426,426,428,428,427.3330078125,427.3330078125,426.6669921875,426.6669921875,426.6669921875,426.6669921875,426.6669921875,426.6669921875,426.6669921875,426.6669921875,426.6669921875,426.6669921875,424,424,424,424,424,424,424,424,424,424,425,425,425,425,469.3330078125,481.3330078125,498.6669921875,506,544,556.6669921875,586.6669921875,610,621.3330078125,654.6669921875,673.3330078125,694,705.3330078125],"ymouse":[798,800,802,803,803,804,804,803,803,802,802,800,800,800,800,800,800,800,800,800,800,800,800,798,798,798,798,798,798,804,805,805.3330078125,805.3330078125,804.6669921875,804.6669921875,804.6669921875,804.6669921875,804.6669921875,804.6669921875,804.6669921875,804.6669921875,804.6669921875,804.6669921875,798,798,798,798,798,798,798,798,798,798,794,794,794,794,698.6669921875,671.3330078125,619.3330078125,594,482,451.3330078125,382.6669921875,317,287.3330078125,198.66700744628906,150.66700744628906,108,89.33300018310547],"timestamp_mouse":[13,35,53,73,93,113,133,153,173,193,213,234,253,272,293,313,333,352,373,393,413,433,453,472,493,513,532,552,573,593,613,633,653,672,693,713,733,754,773,792,813,833,853,873,893,912,933,952,973,993,1013,1034,1053,1073,1093,1113,1133,1153,1173,1193,1213,1233,1253,1273,1292,1312,1334,1353,1373,1393],"xSR":350,"ySR":768,"xT1":30,"yT1":0,"xT2":670,"yT2":0,"toosoon":0,"cond_shown":"randomdotsize","ratio_trial":500,"smaller_num":"5","larger_num":"10","correct_side":2,"subjID":"17","gender":"No_gender","age":"No_age","school":"No_school"},{"start_time":1549310119831,"click_time":1549310121154,"finger_time":1549310120814,"fix_duration":436.6323173934715,"trial":24,"RT":983,"MT":340,"sideResp":2,"stimulus":"img/900/randomdotsize/R/9_Ratio_900_L_18_R_20.png","xmouse":[387.3330078125,387.3330078125,380,380,380,381,381,381,381,381,381,381,381,381,381,380.6669921875,380.6669921875,380.6669921875,380.6669921875,380.6669921875,378.6669921875,378,378,378,378,379.3330078125,379.3330078125,379.3330078125,379.3330078125,379.3330078125,379.3330078125,379.3330078125,379.3330078125,376,376.6669921875,376,376,375.3330078125,375.3330078125,375.3330078125,375.3330078125,375.3330078125,376,376,376,376,376,376,376,416.6669921875,426,438.6669921875,464,472.6669921875,488,500,507.3330078125,527,575,604,616,636,657.3330078125,668,677.3330078125,694.6669921875,717.3330078125],"ymouse":[834.6669921875,834.6669921875,838,838,838,838,838,838,838,838,838,838,838,838,838,837.3330078125,837.3330078125,837.3330078125,837.3330078125,837.3330078125,837.3330078125,838,838,838,838,839.3330078125,839.3330078125,839.3330078125,839.3330078125,839.3330078125,839.3330078125,839.3330078125,839.3330078125,842,842.6669921875,842,843,844.6669921875,845.3330078125,845.3330078125,845.3330078125,845.3330078125,845,844,844,844,844,844,844,743.3330078125,712,674.6669921875,606,582.6669921875,536,493,471.3330078125,420,332,276,252,210,166.66700744628906,144,136.66700744628906,117.3330078125,94.66699981689453],"timestamp_mouse":[2,31,43,63,83,102,123,143,163,183,203,223,243,263,282,303,323,343,363,383,403,423,443,463,482,503,522,543,563,583,603,623,642,663,683,702,723,744,763,783,803,823,843,864,883,903,922,943,962,983,1003,1023,1044,1063,1083,1103,1123,1143,1163,1184,1203,1223,1246,1262,1282,1303,1322],"xSR":350,"ySR":768,"xT1":30,"yT1":0,"xT2":670,"yT2":0,"toosoon":0,"cond_shown":"randomdotsize","ratio_trial":900,"smaller_num":"18","larger_num":"20","correct_side":2,"subjID":"17","gender":"No_gender","age":"No_age","school":"No_school"},{"start_time":1549310123940,"click_time":1549310125374,"finger_time":1549310125114,"fix_duration":1463.7969737224328,"trial":25,"RT":1174,"MT":260,"sideResp":2,"stimulus":"img/250/randomdotsize/R/11_Ratio_250_L_3_R_12.png","xmouse":[383.3330078125,383.3330078125,383,383.3330078125,384,384,384,384,384,384,384.6669921875,385.3330078125,385.3330078125,385.3330078125,385.3330078125,385.3330078125,385.3330078125,384.6669921875,384.6669921875,384.6669921875,384.6669921875,384,384,384,384,384,384.6669921875,384.6669921875,384,384,384,384,384,384,384,384,384,384,389,389,389,389,389,389,389,389,389,389,394.6669921875,394.6669921875,395.3330078125,396,396,396.6669921875,396.6669921875,397.3330078125,399.3330078125,404,438.6669921875,447,468,480,504.6669921875,548,572,596,608,631.3330078125,663,681.3330078125,687.3330078125,700],"ymouse":[836.6669921875,836.6669921875,838,838.6669921875,839,839,840,841,842,842,842.6669921875,843.3330078125,843.3330078125,843.3330078125,843.3330078125,843.3330078125,843.3330078125,843.3330078125,843.3330078125,843.3330078125,843.3330078125,843,843,843,843,843,842.6669921875,842.6669921875,842,842,842,842,842,842,842,842,842,842,834,834,834,834,834,834,834,834,834,834,826.6669921875,826.6669921875,826.6669921875,826,826,824.6669921875,821.3330078125,818.6669921875,807.3330078125,794,695.3330078125,668,613,585,526.6669921875,434,376,316,285,230.66700744628906,160,123.3330078125,107.33300018310547,84],"timestamp_mouse":[14,39,57,74,94,114,134,154,174,194,214,234,254,274,293,314,334,355,373,394,414,434,454,474,494,514,534,554,574,594,614,634,654,674,693,714,734,754,773,793,814,834,853,874,894,913,933,954,974,994,1014,1034,1054,1073,1094,1114,1134,1154,1174,1194,1213,1233,1254,1275,1294,1314,1334,1353,1375,1394,1414,1434],"xSR":350,"ySR":768,"xT1":30,"yT1":0,"xT2":670,"yT2":0,"toosoon":0,"cond_shown":"randomdotsize","ratio_trial":250,"smaller_num":"3","larger_num":"12","correct_side":2,"subjID":"17","gender":"No_gender","age":"No_age","school":"No_school"},{"start_time":1549310126724,"click_time":1549310127935,"finger_time":1549310127634,"fix_duration":489.77000531457327,"trial":26,"RT":910,"MT":301,"sideResp":2,"stimulus":"img/500/equaldotanddens/R/2_Ratio_500_L_3_R_6.png","xmouse":[397.3330078125,397.3330078125,396.6669921875,396.6669921875,396.6669921875,396.6669921875,396,396,396,396,396,396,396,396,396,396,394,394,394,394,394,394,394,394,394,394,399.3330078125,399.3330078125,399.3330078125,399.3330078125,399.3330078125,399.3330078125,399.3330078125,399.3330078125,399.3330078125,399.3330078125,394.6669921875,394.6669921875,394.6669921875,394.6669921875,394.6669921875,394.6669921875,394.6669921875,394.6669921875,394.6669921875,419,426,444,466,477.3330078125,524,536,559.3330078125,572,600.6669921875,659,698,720.6669921875,727,738.6669921875,748],"ymouse":[825.3330078125,825.3330078125,825.3330078125,825.3330078125,825.3330078125,824.6669921875,824,824,824,824,824,824,824,824,824,824,820,820,820,820,820,820,820,820,820,820,822.6669921875,822.6669921875,822.6669921875,822.6669921875,822.6669921875,822.6669921875,822.6669921875,822.6669921875,822.6669921875,822.6669921875,822.6669921875,822.6669921875,822.6669921875,822.6669921875,822.6669921875,822.6669921875,822.6669921875,822.6669921875,822.6669921875,728,706,658,605,578.6669921875,472,444,388.6669921875,364,312.6669921875,234,190,159.33299255371094,144,116.6669921875,78],"timestamp_mouse":[28,30,50,70,90,110,130,150,170,189,210,230,250,269,290,310,329,349,370,390,410,429,450,470,490,510,530,550,570,589,610,630,649,669,690,709,730,749,769,790,810,830,850,870,890,910,931,949,970,990,1011,1029,1049,1070,1090,1112,1131,1150,1170,1190,1210],"xSR":350,"ySR":768,"xT1":30,"yT1":0,"xT2":670,"yT2":0,"toosoon":0,"cond_shown":"equaldotanddens","ratio_trial":500,"smaller_num":"3","larger_num":"6","correct_side":2,"subjID":"17","gender":"No_gender","age":"No_age","school":"No_school"},{"start_time":1549310129848,"click_time":1549310130854,"finger_time":1549310130593,"fix_duration":793.1287041768323,"trial":27,"RT":745,"MT":261,"sideResp":2,"stimulus":"img/900/equaldotanddens/L/1_Ratio_900_L_10_R_9.png","xmouse":[398,398,398,398,399.3330078125,400,400,400,400,401,401,401,402,402,402,402,402,402,402.6669921875,402.6669921875,403.3330078125,404,404,404,404,404,404,404,404,404,404,406.6669921875,406.6669921875,406.6669921875,406.6669921875,406.6669921875,406.6669921875,437,462,476,528,542,572,586,608.6669921875,642.6669921875,667.3330078125,680.6669921875,702.6669921875,717,736],"ymouse":[818,818,818,818,819.3330078125,820,820,820,820,820,820,820,820,820,820,820,820,820,820.6669921875,820.6669921875,820.6669921875,820,820,820,820,820,820,820,820,820,820,820.6669921875,820.6669921875,817.3330078125,817.3330078125,817.3330078125,817.3330078125,748,694,666,546,515,453,423,368.6669921875,293.3330078125,246.6669921875,223.33299255371094,179.33299255371094,140,91],"timestamp_mouse":[11,39,46,66,88,106,125,146,166,189,206,226,246,266,285,306,326,345,366,386,406,426,446,466,485,506,526,546,566,586,605,626,645,666,685,707,726,745,766,785,806,826,846,866,886,906,926,946,966,986,1006],"xSR":350,"ySR":768,"xT1":30,"yT1":0,"xT2":670,"yT2":0,"toosoon":0,"cond_shown":"equaldotanddens","ratio_trial":900,"smaller_num":"9","larger_num":"10","correct_side":1,"subjID":"17","gender":"No_gender","age":"No_age","school":"No_school"},{"start_time":1549310133232,"click_time":1549310134514,"finger_time":1549310134213,"fix_duration":1275.1821823885655,"trial":28,"RT":981,"MT":301,"sideResp":1,"stimulus":"img/900/equaldotsize/L/10_Ratio_900_L_20_R_18.png","xmouse":[408,408,408,408,408,408,408,408,408,408,408,408,408,408,408,408,412,412,412,412,412,412,412,408,408,408,408,408,408.6669921875,408.6669921875,408.6669921875,409.3330078125,409.3330078125,409.3330078125,409.3330078125,409.3330078125,409.3330078125,409.3330078125,409.3330078125,409.3330078125,409.3330078125,411.3330078125,411.3330078125,411.3330078125,411.3330078125,411.3330078125,411.3330078125,411.3330078125,411.3330078125,406,399.3330078125,394,376,364,349,340,320.6669921875,285,261.3330078125,249,225.33299255371094,200,162,148,122],"ymouse":[826,826,826,826,826,826,826,826,826,826,826,826,826,826,826,826,827,827,827,827,827,827,827,830,830,830,830,830,829.3330078125,829.3330078125,829.3330078125,829.3330078125,829.3330078125,829.3330078125,829.3330078125,829.3330078125,829.3330078125,829.3330078125,829.3330078125,829.3330078125,829.3330078125,825.3330078125,825.3330078125,825.3330078125,825.3330078125,825.3330078125,825.3330078125,825.3330078125,825.3330078125,752,703.3330078125,681,616,572,524,500,452.6669921875,378,329.3330078125,304,254.6669921875,205,137,116,78],"timestamp_mouse":[2,22,43,62,82,102,122,144,162,182,202,222,242,262,282,302,322,341,361,382,401,422,442,462,482,502,522,542,562,581,602,621,642,662,682,702,722,742,762,781,802,821,842,862,882,901,921,944,962,981,1002,1022,1043,1062,1083,1102,1121,1143,1162,1182,1202,1222,1243,1261,1281],"xSR":350,"ySR":768,"xT1":30,"yT1":0,"xT2":670,"yT2":0,"toosoon":0,"cond_shown":"equaldotsize","ratio_trial":900,"smaller_num":"18","larger_num":"20","correct_side":1,"subjID":"17","gender":"No_gender","age":"No_age","school":"No_school"},{"start_time":1549310135607,"click_time":1549310136895,"finger_time":1549310136653,"fix_duration":250,"trial":29,"RT":1046,"MT":242,"sideResp":1,"stimulus":"img/750/randomdotsizeEA/R/15_Ratio_750_L_9_R_12.png","xmouse":[379.3330078125,379.3330078125,379.3330078125,380.6669921875,380.6669921875,380.6669921875,380.6669921875,380.6669921875,380.6669921875,380.6669921875,380.6669921875,380.6669921875,380.6669921875,382.6669921875,382.6669921875,382.6669921875,382.6669921875,382.6669921875,382.6669921875,382.6669921875,382.6669921875,382.6669921875,384,386,386.6669921875,386.6669921875,387.3330078125,387.3330078125,387.3330078125,387.3330078125,387.3330078125,387.3330078125,387.3330078125,387.3330078125,387.3330078125,388,388,388,388,388.6669921875,388,388,388,388,388,388,388,388,388,388,388,388,374,356,314,314,293,274,263.3330078125,228,202,175,160.66700744628906,136,106],"ymouse":[827.3330078125,827.3330078125,827.3330078125,826.6669921875,826.6669921875,826.6669921875,826.6669921875,826.6669921875,826.6669921875,826.6669921875,826.6669921875,826.6669921875,826.6669921875,827.3330078125,827.3330078125,827.3330078125,827.3330078125,827.3330078125,827.3330078125,827.3330078125,827.3330078125,827.3330078125,828,828,828.6669921875,828.6669921875,828.6669921875,828.6669921875,828.6669921875,828.6669921875,828.6669921875,828.6669921875,828.6669921875,828.6669921875,829.3330078125,829,829,829,829,829.3330078125,830,830,830,830,830,830,829,829,829,829,829,829,764,714,614,614,556,494,462.6669921875,372,315,258,228.66700744628906,169,77],"timestamp_mouse":[10,39,47,67,86,107,127,147,167,187,207,227,247,267,287,306,327,347,367,387,406,427,447,477,486,507,527,547,567,587,607,627,647,667,687,707,727,747,767,787,807,827,846,867,887,907,926,947,967,988,1007,1027,1046,1067,1100,1107,1127,1147,1167,1187,1207,1227,1247,1267,1288],"xSR":350,"ySR":768,"xT1":30,"yT1":0,"xT2":670,"yT2":0,"toosoon":0,"cond_shown":"randomdotsizeEA","ratio_trial":750,"smaller_num":"9","larger_num":"12","correct_side":2,"subjID":"17","gender":"No_gender","age":"No_age","school":"No_school"},{"start_time":1549310139029,"click_time":1549310140174,"finger_time":1549310139974,"fix_duration":1113.2568562050412,"trial":30,"RT":945,"MT":200,"sideResp":2,"stimulus":"img/750/equaldotsize/R/7_Ratio_750_L_3_R_4.png","xmouse":[411.3330078125,411.3330078125,411.3330078125,410.6669921875,410.6669921875,410.6669921875,410,410,410,410,410,409.3330078125,409.3330078125,409.3330078125,409.3330078125,409.3330078125,409.3330078125,409.3330078125,409.3330078125,408,408.6669921875,408,408,408,408,408,408,408,408,408,408,407.3330078125,407.3330078125,407.3330078125,407.3330078125,407.3330078125,407.3330078125,407.3330078125,407,407,407,407.3330078125,407.3330078125,407.3330078125,407.3330078125,407.3330078125,407.3330078125,439.3330078125,451.3330078125,493.3330078125,527.3330078125,570.6669921875,592,628,668,690.6669921875,702,724.6669921875],"ymouse":[830.6669921875,830.6669921875,830.6669921875,830.6669921875,831.3330078125,831.3330078125,831,831,831,831,831,831.3330078125,831.3330078125,831.3330078125,831.3330078125,831.3330078125,831.3330078125,831.3330078125,831.3330078125,832,832.6669921875,833,834,834,834,835,835,836,836,836,836,836.6669921875,836.6669921875,836.6669921875,836.6669921875,836.6669921875,836.6669921875,836.6669921875,836,836,836,835.3330078125,835.3330078125,835.3330078125,835.3330078125,835.3330078125,835.3330078125,741.3330078125,700.6669921875,579.3330078125,503.3330078125,427.3330078125,390,320,223,165.33299255371094,140,93.33300018310547],"timestamp_mouse":[5,35,45,65,85,104,125,145,165,185,205,224,245,265,284,305,325,345,365,386,406,424,444,464,485,505,524,544,565,585,605,626,644,665,685,705,725,745,765,784,805,825,845,865,885,904,924,945,965,986,1004,1025,1044,1064,1085,1105,1125,1145],"xSR":350,"ySR":768,"xT1":30,"yT1":0,"xT2":670,"yT2":0,"toosoon":0,"cond_shown":"equaldotsize","ratio_trial":750,"smaller_num":"3","larger_num":"4","correct_side":2,"subjID":"17","gender":"No_gender","age":"No_age","school":"No_school"},{"start_time":1549310142270,"click_time":1549310143414,"finger_time":1549310143174,"fix_duration":715.3856767837701,"trial":31,"RT":904,"MT":240,"sideResp":2,"stimulus":"img/900/randomdotsizeEA/L/2_Ratio_900_L_20_R_18.png","xmouse":[404.6669921875,404.6669921875,404.6669921875,404,404.6669921875,404.6669921875,404.6669921875,404.6669921875,404,404.6669921875,404.6669921875,405,405.3330078125,405.3330078125,405.3330078125,405,405,405,405,404,404,404,404,404,404.6669921875,404.6669921875,404.6669921875,404.6669921875,404.6669921875,404.6669921875,404.6669921875,404.6669921875,405.3330078125,405.3330078125,405.3330078125,406,406,406,406,406,406,406,406,406,406,436.6669921875,462,478.6669921875,554,574,607.3330078125,620.6669921875,642.6669921875,671.3330078125,689.3330078125,698.6669921875,715.3330078125,730],"ymouse":[845.3330078125,845.3330078125,845.3330078125,846,846.6669921875,846.6669921875,847.3330078125,847.3330078125,848,848.6669921875,849.3330078125,850,850.6669921875,851.3330078125,851.3330078125,852,852,852,852,852,852,852,852,852,852.6669921875,852.6669921875,852.6669921875,852.6669921875,852.6669921875,852.6669921875,852.6669921875,852.6669921875,852.6669921875,852.6669921875,852.6669921875,852,852,852,852,852,852,852,852,852,852,731.3330078125,660,626.6669921875,485,450,381.3330078125,346.6669921875,285.3330078125,205.33299255371094,158.66700744628906,137.33299255371094,100.66699981689453,74],"timestamp_mouse":[6,28,45,64,84,104,124,144,163,184,204,224,244,264,284,304,324,344,364,384,404,424,444,464,484,504,524,544,564,583,603,624,644,664,684,704,724,743,765,784,803,824,844,864,884,904,923,944,966,985,1004,1024,1044,1066,1084,1104,1124,1144],"xSR":350,"ySR":768,"xT1":30,"yT1":0,"xT2":670,"yT2":0,"toosoon":0,"cond_shown":"randomdotsizeEA","ratio_trial":900,"smaller_num":"18","larger_num":"20","correct_side":1,"subjID":"17","gender":"No_gender","age":"No_age","school":"No_school"},{"start_time":1549310144829,"click_time":1549310146077,"finger_time":1549310145755,"fix_duration":528.8372627097282,"trial":32,"RT":926,"MT":322,"sideResp":1,"stimulus":"img/900/equaldotsize/L/10_Ratio_900_L_20_R_18.png","xmouse":[404.6669921875,404.6669921875,404.6669921875,405.3330078125,405.3330078125,405,405,405.3330078125,405.3330078125,405.3330078125,405.3330078125,406,406,406,406,406,406,406,406.6669921875,406.6669921875,406.6669921875,407.3330078125,407.3330078125,406.6669921875,406.6669921875,406.6669921875,406.6669921875,406.6669921875,406.6669921875,407.3330078125,407.3330078125,407.3330078125,407.3330078125,407.3330078125,407.3330078125,407.3330078125,407.3330078125,407.3330078125,407.3330078125,407.3330078125,406.6669921875,406.6669921875,406.6669921875,406.6669921875,406.6669921875,406.6669921875,386.6669921875,379,356,332,320,292,274,252,240,216,179,153.33299255371094,142,124,112,108,102],"ymouse":[833.3330078125,833.3330078125,833.3330078125,833.3330078125,833.3330078125,834,834,834.6669921875,834.6669921875,834.6669921875,835.3330078125,835,836,836,836,836,836,836,836.6669921875,836.6669921875,836.6669921875,836.6669921875,836.6669921875,836.6669921875,836.6669921875,836.6669921875,836.6669921875,836.6669921875,836.6669921875,836.6669921875,836.6669921875,836.6669921875,836.6669921875,837.3330078125,837.3330078125,837.3330078125,837.3330078125,836.6669921875,836.6669921875,836.6669921875,836.6669921875,836.6669921875,836.6669921875,836.6669921875,836.6669921875,836.6669921875,729.3330078125,702,646,592,563,478,426,376,350,302,238,198.66700744628906,182,148,121,109,79],"timestamp_mouse":[18,41,45,65,85,105,125,145,165,185,206,224,245,265,285,305,324,345,365,385,405,424,445,465,485,504,524,545,565,584,605,625,645,667,685,705,725,745,765,785,805,826,844,865,885,905,926,945,965,985,1004,1026,1045,1066,1085,1105,1126,1145,1164,1184,1205,1224,1247],"xSR":350,"ySR":768,"xT1":30,"yT1":0,"xT2":670,"yT2":0,"toosoon":0,"cond_shown":"equaldotsize","ratio_trial":900,"smaller_num":"18","larger_num":"20","correct_side":1,"subjID":"17","gender":"No_gender","age":"No_age","school":"No_school"},{"start_time":1549310147797,"click_time":1549310149014,"finger_time":1549310148694,"fix_duration":922.0171670379016,"trial":33,"RT":897,"MT":320,"sideResp":2,"stimulus":"img/250/randomdotsize/R/4_Ratio_250_L_3_R_12.png","xmouse":[379.3330078125,379.3330078125,379.3330078125,379.3330078125,378,378,378,378,378,378,378,378,378,378,376,376,376,376,376,373.3330078125,373.3330078125,373.3330078125,372.6669921875,372,371,370,370,370,370,370,369,369,369,369,369,370,370,370,370,370,370,370,370,394.6669921875,406,430,443.3330078125,469.3330078125,502,528,558.6669921875,572,597.3330078125,636.6669921875,660,670,686,690,699,710.6669921875,715],"ymouse":[837.3330078125,837.3330078125,837.3330078125,837.3330078125,830,830,830,830,830,830,830,830,830,830,828,828,828,828,828,822.6669921875,822.6669921875,822.6669921875,823.3330078125,824,824,824,823,823,823,823,824,824,824,824,824,824,824,824,824,824,824,824,824,777.3330078125,759,715,691.3330078125,641.3330078125,560,500,440.6669921875,414,357.3330078125,276.6669921875,230,208,173,158,132,102.66699981689453,92],"timestamp_mouse":[30,36,57,77,97,117,137,157,177,197,216,237,257,277,297,317,337,357,377,397,417,437,457,479,497,516,537,556,578,597,617,637,657,677,697,717,737,757,778,798,817,837,857,879,897,917,938,957,978,997,1017,1037,1057,1078,1097,1116,1137,1157,1177,1197,1217],"xSR":350,"ySR":768,"xT1":30,"yT1":0,"xT2":670,"yT2":0,"toosoon":0,"cond_shown":"randomdotsize","ratio_trial":250,"smaller_num":"3","larger_num":"12","correct_side":2,"subjID":"17","gender":"No_gender","age":"No_age","school":"No_school"},{"start_time":1549310150162,"click_time":1549310151674,"finger_time":1549310151414,"fix_duration":366.5880536234376,"trial":34,"RT":1252,"MT":260,"sideResp":2,"stimulus":"img/500/randomdotsizeEA/R/14_Ratio_500_L_5_R_10.png","xmouse":[378,378,380,380,380,380,380,380,380,380,380,380,380,380,380,380,380,380,380.6669921875,380.6669921875,380.6669921875,380.6669921875,380.6669921875,380.6669921875,380.6669921875,381.3330078125,381.3330078125,381.3330078125,381.3330078125,381.3330078125,382,382,382,382,382,382,382,382,382,382,383.3330078125,383.3330078125,383.3330078125,383.3330078125,383.3330078125,383.3330078125,383.3330078125,383.3330078125,383.3330078125,383.3330078125,384,384,384,384,384,384,384,384,384,384,381,404,430,440,460,483.3330078125,520.6669921875,535.3330078125,566,602.6669921875,620,656,698,718,726,740],"ymouse":[856,856,856,856,856,856,856,856,856,856,856,856,857,857,857,857,857,857,857.3330078125,857.3330078125,857.3330078125,857.3330078125,857.3330078125,857.3330078125,857.3330078125,857.3330078125,857.3330078125,857.3330078125,857.3330078125,856.6669921875,856,856,856,856,856,856,856,856,856,856,854.6669921875,854.6669921875,854.6669921875,854.6669921875,854.6669921875,854.6669921875,854.6669921875,854.6669921875,854.6669921875,854.6669921875,854,854,854,854,854,854,854,854,854,854,826,768,726,708,666,612.6669921875,518.6669921875,485.3330078125,420,353.3330078125,320,254,170,126,107,80],"timestamp_mouse":[12,32,51,72,92,112,131,152,172,192,211,232,252,272,292,312,332,352,372,392,412,432,452,472,491,512,532,552,572,592,612,632,652,671,691,712,733,752,772,792,812,832,851,873,892,911,932,952,972,991,1012,1031,1052,1072,1092,1111,1132,1152,1172,1192,1212,1233,1252,1272,1292,1311,1333,1352,1372,1391,1412,1432,1454,1472,1493,1512],"xSR":350,"ySR":768,"xT1":30,"yT1":0,"xT2":670,"yT2":0,"toosoon":0,"cond_shown":"randomdotsizeEA","ratio_trial":500,"smaller_num":"5","larger_num":"10","correct_side":2,"subjID":"17","gender":"No_gender","age":"No_age","school":"No_school"},{"start_time":1549310152812,"click_time":1549310154374,"finger_time":1549310153714,"fix_duration":250,"trial":35,"RT":902,"MT":660,"sideResp":1,"stimulus":"img/750/equaldotanddens/L/9_Ratio_750_L_4_R_3.png","xmouse":[416.6669921875,416.6669921875,416.6669921875,416.6669921875,416.6669921875,416.6669921875,416.6669921875,416.6669921875,417,417.3330078125,417.3330078125,417.3330078125,417.3330078125,417.3330078125,417.3330078125,417,417,417.3330078125,417.3330078125,417.3330078125,416.6669921875,416,417,417,417,417,417,417,417,417,417,417,418.6669921875,418.6669921875,418.6669921875,418.6669921875,418.6669921875,418.6669921875,418.6669921875,418.6669921875,418.6669921875,418.6669921875,421,421,421,487.3330078125,496,512.6669921875,520,534,548,556,565.3330078125,568,576,589,600,604,612,618,623,624,623.3330078125,620,617,593.3330078125,578,546,526,480.6669921875,412.6669921875,352.6669921875,296.6669921875,270.6669921875,234,187.33299255371094,172,142,113.33300018310547],"ymouse":[801.3330078125,801.3330078125,801.3330078125,801.3330078125,801.3330078125,801.3330078125,801.3330078125,801.3330078125,802,802.6669921875,802.6669921875,802.6669921875,803.3330078125,803.3330078125,803.3330078125,804,804,804.6669921875,804.6669921875,804.6669921875,804.6669921875,804,804,804,804,804,804,804,804,804,804,804,803.3330078125,803.3330078125,803.3330078125,803.3330078125,803.3330078125,803.3330078125,803.3330078125,803.3330078125,803.3330078125,803.3330078125,794,794,794,688.6669921875,671,633.3330078125,614,577,529,499,471.3330078125,458,430,386,357,344,320,301,282,278,270.6669921875,264,262,243.3330078125,232,211,198,173.33299255371094,135.33299255371094,113.3330078125,92.66699981689453,80.66699981689453,54,24.66699981689453,22,20,21.33300018310547],"timestamp_mouse":[6,24,47,62,82,101,122,142,162,182,201,222,241,262,282,302,322,342,362,382,403,423,442,462,482,502,521,542,561,582,601,622,642,662,682,701,721,742,761,782,802,822,842,862,881,902,923,942,962,981,1002,1022,1042,1062,1082,1103,1122,1142,1162,1181,1204,1222,1242,1262,1282,1304,1322,1342,1362,1382,1406,1422,1442,1462,1481,1505,1522,1541,1561],"xSR":350,"ySR":768,"xT1":30,"yT1":0,"xT2":670,"yT2":0,"toosoon":0,"cond_shown":"equaldotanddens","ratio_trial":750,"smaller_num":"3","larger_num":"4","correct_side":1,"subjID":"17","gender":"No_gender","age":"No_age","school":"No_school"},{"start_time":1549310156003,"click_time":1549310157518,"finger_time":1549310157114,"fix_duration":267.8554870746238,"trial":36,"RT":1111,"MT":404,"sideResp":2,"stimulus":"img/500/equaldotsize/L/4_Ratio_500_L_18_R_9.png","xmouse":[381,381,381,381,381,381,381,375,375.3330078125,376,376,376,376,376,376,376,376,383.3330078125,383.3330078125,383.3330078125,383.3330078125,383.3330078125,383.3330078125,383.3330078125,383.3330078125,383.3330078125,383.3330078125,388,388,388,388,389.3330078125,389,389,388.6669921875,388,386,386,386.6669921875,386.6669921875,386.6669921875,386.6669921875,386.6669921875,386.6669921875,386.6669921875,386.6669921875,386.6669921875,386.6669921875,386,386,386,386,386,393.3330078125,398,402.6669921875,427,442.6669921875,456,459.3330078125,468.6669921875,488.6669921875,502,509.3330078125,523.3330078125,536.6669921875,558.6669921875,568,586,605.3330078125,615,639.3330078125,679.3330078125,702.6669921875,713.3330078125,733.3330078125],"ymouse":[800,800,800,800,800,800,800,792,791.3330078125,791,792,792,792,792,792,792,792,799.3330078125,799.3330078125,799.3330078125,799.3330078125,799.3330078125,799.3330078125,799.3330078125,799.3330078125,799.3330078125,799.3330078125,806,806,806,806,809.3330078125,810,810,810.6669921875,810,810,810,809.3330078125,809.3330078125,809.3330078125,809.3330078125,809.3330078125,809.3330078125,809.3330078125,809.3330078125,809.3330078125,809.3330078125,806,806,806,806,806,785.3330078125,776,767.3330078125,718,684.6669921875,655,641.3330078125,609.3330078125,555.3330078125,519,500.6669921875,467.3330078125,434.6669921875,386.6669921875,370,337,303.3330078125,286,249.3330078125,189.33299255371094,151.33299255371094,133.33299255371094,88.66699981689453],"timestamp_mouse":[11,33,51,71,91,111,130,151,171,191,211,231,251,271,291,311,332,351,370,391,411,430,450,471,491,511,531,552,571,591,610,631,651,671,690,711,732,751,771,791,811,832,852,870,890,910,931,951,970,991,1010,1033,1051,1070,1091,1111,1132,1151,1172,1191,1210,1232,1250,1272,1291,1311,1331,1351,1371,1391,1410,1431,1451,1473,1492,1511],"xSR":350,"ySR":768,"xT1":30,"yT1":0,"xT2":670,"yT2":0,"toosoon":0,"cond_shown":"equaldotsize","ratio_trial":500,"smaller_num":"9","larger_num":"18","correct_side":1,"subjID":"17","gender":"No_gender","age":"No_age","school":"No_school"},{"start_time":1549310158695,"click_time":1549310159834,"finger_time":1549310159574,"fix_duration":260.38999677183216,"trial":37,"RT":879,"MT":260,"sideResp":2,"stimulus":"img/500/equaldotanddens/R/6_Ratio_500_L_9_R_18.png","xmouse":[406.6669921875,406.6669921875,406.6669921875,406.6669921875,406.6669921875,406.6669921875,406.6669921875,408.6669921875,408.6669921875,408.6669921875,408.6669921875,408.6669921875,408.6669921875,408.6669921875,408.6669921875,408.6669921875,408.6669921875,412,412,412,412,412,412,412,412,412,412,414.6669921875,414.6669921875,414,414,414,414,414,414,414,414,414,414,414,414,414,418.6669921875,459.3330078125,486,506,516,550,579.3330078125,604,618,640,667.3330078125,680,684,689,697.3330078125],"ymouse":[845.3330078125,845.3330078125,845.3330078125,845.3330078125,845.3330078125,845.3330078125,845.3330078125,846.6669921875,846.6669921875,846.6669921875,846.6669921875,846.6669921875,846.6669921875,846.6669921875,846.6669921875,846.6669921875,846.6669921875,852,852,852,852,852,852,852,852,852,852,854.6669921875,854.6669921875,854,854,854,853,853,853,853,853,853,853,853,853,853,822.6669921875,759.3330078125,706,650,621,530,467.3330078125,409,378,322,240.6669921875,188,166,126,94.66699981689453],"timestamp_mouse":[33,38,60,78,99,119,139,159,179,199,219,239,259,279,299,319,339,361,379,399,419,439,458,478,498,519,539,559,579,599,619,639,658,679,698,719,739,758,779,799,819,839,859,879,899,919,939,961,979,999,1019,1039,1059,1079,1099,1118,1139],"xSR":350,"ySR":768,"xT1":30,"yT1":0,"xT2":670,"yT2":0,"toosoon":0,"cond_shown":"equaldotanddens","ratio_trial":500,"smaller_num":"9","larger_num":"18","correct_side":2,"subjID":"17","gender":"No_gender","age":"No_age","school":"No_school"},{"start_time":1549310161869,"click_time":1549310163355,"finger_time":1549310163175,"fix_duration":1254.6349444229206,"trial":38,"RT":1306,"MT":180,"sideResp":2,"stimulus":"img/900/randomdotsizeEA/R/15_Ratio_900_L_9_R_10.png","xmouse":[420,420,420,420,420,420,420,420,420,420,421.3330078125,421.3330078125,421.3330078125,421.3330078125,421.3330078125,421.3330078125,421.3330078125,421.3330078125,421.3330078125,421.3330078125,423.3330078125,423.3330078125,423.3330078125,423.3330078125,423.3330078125,423.3330078125,423.3330078125,423.3330078125,423.3330078125,423.3330078125,424,424,424,424,424,424,424,424,424,424,423.3330078125,423.3330078125,423.3330078125,423.3330078125,423.3330078125,423.3330078125,423.3330078125,423.3330078125,423.3330078125,423.3330078125,424.6669921875,424.6669921875,424.6669921875,424.6669921875,424.6669921875,424.6669921875,424.6669921875,424.6669921875,424.6669921875,424.6669921875,426,426,430.6669921875,430.6669921875,430.6669921875,496.6669921875,508,530,553.3330078125,568,604.6669921875,629.3330078125,657.3330078125,670,693],"ymouse":[828,828,828,828,828,828,828,828,828,828,828.6669921875,828.6669921875,828.6669921875,828.6669921875,828.6669921875,828.6669921875,828.6669921875,828.6669921875,828.6669921875,828.6669921875,830.6669921875,830.6669921875,830.6669921875,830.6669921875,830.6669921875,830.6669921875,830.6669921875,830.6669921875,830.6669921875,830.6669921875,832,832,832,832,832,832,832,832,832,832,831.3330078125,831.3330078125,831.3330078125,831.3330078125,831.3330078125,831.3330078125,831.3330078125,831.3330078125,831.3330078125,831.3330078125,831.3330078125,831.3330078125,831.3330078125,831.3330078125,831.3330078125,831.3330078125,831.3330078125,831.3330078125,831.3330078125,831.3330078125,829,829,821.3330078125,821.3330078125,821.3330078125,639.3330078125,604,536,461.3330078125,422,300.6669921875,222.66700744628906,147.33299255371094,115,62],"timestamp_mouse":[9,36,45,65,85,105,125,145,165,184,204,224,245,264,285,305,325,345,365,384,405,425,445,465,485,505,525,545,565,585,604,625,644,665,685,705,724,745,765,785,805,825,845,865,885,905,925,945,965,984,1005,1025,1044,1065,1085,1105,1125,1144,1165,1185,1206,1225,1245,1265,1284,1306,1325,1345,1365,1385,1407,1425,1445,1465,1485],"xSR":350,"ySR":768,"xT1":30,"yT1":0,"xT2":670,"yT2":0,"toosoon":0,"cond_shown":"randomdotsizeEA","ratio_trial":900,"smaller_num":"9","larger_num":"10","correct_side":2,"subjID":"17","gender":"No_gender","age":"No_age","school":"No_school"},{"start_time":1549310165379,"click_time":1549310166514,"finger_time":1549310166274,"fix_duration":843.8840067277691,"trial":39,"RT":895,"MT":240,"sideResp":2,"stimulus":"img/250/equaldotanddens/R/13_Ratio_250_L_2_R_8.png","xmouse":[419.3330078125,419.3330078125,419.3330078125,419.3330078125,419.3330078125,412,412,412,412,412,412,412,412,412,412,416,416,416,416,416,416,416,416,416,416,416,416,416,416,416,416,416,416,416,416,420,420,420,420,420,420,420,420,434,454.6669921875,490,499,520,552,572.6669921875,623.3330078125,645.3330078125,662,670,687.3330078125,710,716],"ymouse":[827.3330078125,827.3330078125,827.3330078125,827.3330078125,827.3330078125,824,824,824,824,824,824,824,824,824,824,823,823,823,823,823,823,823,823,823,823,826,826,826,826,826,826,826,826,826,826,823,823,823,823,823,823,823,823,772,707.3330078125,617,592,542,481,448.6669921875,353.3330078125,296.6669921875,242,217,168.66700744628906,108,76],"timestamp_mouse":[15,36,55,75,95,116,135,155,175,194,215,235,255,275,294,316,335,355,375,394,416,435,455,475,495,518,535,555,574,594,616,635,655,675,694,716,734,755,775,795,816,835,854,875,894,917,935,955,975,995,1016,1036,1055,1075,1094,1117,1135],"xSR":350,"ySR":768,"xT1":30,"yT1":0,"xT2":670,"yT2":0,"toosoon":0,"cond_shown":"equaldotanddens","ratio_trial":250,"smaller_num":"2","larger_num":"8","correct_side":2,"subjID":"17","gender":"No_gender","age":"No_age","school":"No_school"},{"start_time":1549310168180,"click_time":1549310169716,"finger_time":1549310169453,"fix_duration":905.0379637658635,"trial":40,"RT":1273,"MT":263,"sideResp":1,"stimulus":"img/750/randomdotsizeEA/L/13_Ratio_750_L_8_R_6.png","xmouse":[388,388,390,390,390,390,390,390,390,390,390,390,390,390,390,390,390,390,390,390,390,390,392,392,392,392,392,392,394,394,394,394,394,394.6669921875,394.6669921875,394.6669921875,394.6669921875,394,395,395,395.3330078125,396,396,396,396,396,396,396,396,396,396,396,396,396,396,396,396,397.3330078125,397.3330078125,396.6669921875,396.6669921875,390,390,368.6669921875,354,332.6669921875,319.3330078125,262,247.33299255371094,222,208.66700744628906,186.66700744628906,159,143.33299255371094,137.33299255371094,130,122],"ymouse":[848,848,849,849,849,849,849,849,849,849,849,850,850,850,850,850,850,850,850,850,850,850,847,847,847,847,847,847,852,852,852,852,852,852.6669921875,852.6669921875,852.6669921875,853.3330078125,854,854,854,854.6669921875,854,854,854,854,854,854,854,854,854,854,854,854,854,854,854,856,857.3330078125,857.3330078125,856.6669921875,856.6669921875,845,845,756.6669921875,696,633.3330078125,601.3330078125,479,448.6669921875,392,361.3330078125,306.6669921875,228,176.66700744628906,154.66700744628906,115,75],"timestamp_mouse":[14,33,54,74,94,114,134,154,174,194,214,234,254,274,294,314,334,354,374,394,413,434,453,474,494,514,534,553,574,594,614,634,653,674,694,714,734,754,774,794,814,834,854,874,894,913,934,953,973,994,1014,1034,1054,1074,1093,1114,1133,1154,1174,1194,1214,1234,1254,1273,1294,1314,1334,1354,1373,1394,1414,1434,1455,1474,1494,1513,1536],"xSR":350,"ySR":768,"xT1":30,"yT1":0,"xT2":670,"yT2":0,"toosoon":0,"cond_shown":"randomdotsizeEA","ratio_trial":750,"smaller_num":"6","larger_num":"8","correct_side":1,"subjID":"17","gender":"No_gender","age":"No_age","school":"No_school"},{"start_time":1549310170995,"click_time":1549310172373,"finger_time":1549310172074,"fix_duration":460.3827127971544,"trial":41,"RT":1079,"MT":299,"sideResp":1,"stimulus":"img/750/equaldotsize/L/8_Ratio_750_L_4_R_3.png","xmouse":[423,423,423,423,423,423,423,422,422,422,422,422,422,426,426,426,426,426,426,430.6669921875,430.6669921875,430,430,428,428,428,428,428,428,428,428,428,428,424,424,424,424,424,424,424,422,422,422,420,420,420,420,420,420,408,398.6669921875,386,381.3330078125,374.6669921875,365.3330078125,358,343.3330078125,319,300,290,270,230.66700744628906,204.66700744628906,188,159.33299255371094,132,118.66699981689453,73.33300018310547,63.33300018310547],"ymouse":[826,826,826,824,824,824,824,824,824,824,824,824,824,829,829,829,829,829,829,833.3330078125,833.3330078125,833,833,832,832,832,832,832,832,832,832,832,832,830,830,830,830,830,830,830,830,830,830,826,826,826,826,826,826,812,800.6669921875,784,777.3330078125,767.3330078125,751.3330078125,737,702.6669921875,640,596,572,519,433.3330078125,378.6669921875,347,289.3330078125,229,201.33299255371094,102.66699981689453,85.33300018310547],"timestamp_mouse":[19,42,59,79,99,119,139,159,179,199,219,240,259,278,299,319,338,359,378,399,419,439,459,478,499,519,556,559,579,599,619,639,658,679,698,719,739,759,778,799,819,839,859,879,899,918,939,959,979,999,1019,1040,1059,1079,1099,1118,1139,1159,1178,1199,1219,1241,1258,1279,1299,1319,1339,1363,1378],"xSR":350,"ySR":768,"xT1":30,"yT1":0,"xT2":670,"yT2":0,"toosoon":0,"cond_shown":"equaldotsize","ratio_trial":750,"smaller_num":"3","larger_num":"4","correct_side":1,"subjID":"17","gender":"No_gender","age":"No_age","school":"No_school"},{"start_time":1549310173511,"click_time":1549310174677,"finger_time":1549310174373,"fix_duration":296.51650603513303,"trial":42,"RT":862,"MT":304,"sideResp":1,"stimulus":"img/250/randomdotsizeEA/L/7_Ratio_250_L_8_R_2.png","xmouse":[397.3330078125,397.3330078125,404.6669921875,406,406,409,409,409,409,409,409,409,409,409,409,412,412,412,412,412,412,412,412,412,412,410,410,410,410,410,410,404.6669921875,404.6669921875,401,401,399.3330078125,399.3330078125,395,395,395,395,395,395,368,356.6669921875,352,344,330,318,311.3330078125,290.6669921875,267.3330078125,230,202,186.66700744628906,152.66700744628906,134,98,60.66699981689453],"ymouse":[792.6669921875,792.6669921875,804.6669921875,804,804,802,802,802,802,802,802,802,802,802,802,793,793,793,793,793,793,793,793,793,793,7