[{"start_time":1549308970200,"click_time":1549308971126,"finger_time":1549308970204,"fix_duration":250,"trial":0,"RT":4,"MT":922,"sideResp":2,"stimulus":[],"xmouse":[395.3330078125,395.3330078125,395.3330078125,395.3330078125,395,395,395.3330078125,395.3330078125,395.3330078125,395.3330078125,395,395,395,395,395.3330078125,395.3330078125,395.3330078125,395.3330078125,395,395.3330078125,395.3330078125,395.3330078125,395.3330078125,395.3330078125,395.3330078125,400,402.6669921875,404,416.6669921875,433.3330078125,448,460,464,478.6669921875,510,531,542,566,578,613.3330078125,622,644,652.6669921875,671,694.6669921875,697.3330078125,702],"ymouse":[507.3330078125,507.3330078125,507.3330078125,507.3330078125,508,508,508.6669921875,508.6669921875,509.3330078125,509.3330078125,510,510,510,510,510.6669921875,510.6669921875,510.6669921875,510.6669921875,510,509.3330078125,509.3330078125,509.3330078125,509.3330078125,509.3330078125,509.3330078125,487,483.3330078125,480,464.6669921875,441.3330078125,420,404,398,380.6669921875,340,314,300,270,256,201.33299255371094,188,160,149.33299255371094,128,103.33300018310547,100.66699981689453,95],"timestamp_mouse":[4,24,44,64,84,104,124,145,165,184,204,224,244,265,284,304,324,344,365,384,405,425,444,464,484,504,525,544,565,584,604,624,645,664,684,704,725,744,764,784,805,824,844,864,887,906,925],"xSR":350,"ySR":451.2,"xT1":30,"yT1":0,"xT2":670,"yT2":0,"toosoon":0,"cond_shown":"Congruent","ratio_trial":300,"L_num":18,"L_den":20,"R_num":9,"R_den":15,"correct_side":1,"subjID":"17","gender":"No_gender","age":"No_age","school":"No_school","test":{"fix_dur":[250,1500],"timestim":900,"targets_dim":[100,100],"targets_relative_coord":[0.1,0.9],"size_stim":[880,420],"start_dim":[100,100],"size_start":[300,300],"size_fix":60,"samplingrate":20,"img_types":["Congruent","Incongruent","Equal"],"ratios":[100,200,300,500],"rep_conds":15,"nTrials":192,"trials_to_rest":500,"Trials_order":[150,106,170,60,25,64,148,95,0,189,98,86,164,49,130,184,40,167,24,96,88,8,169,17,163,137,173,62,66,77,127,121,87,36,140,134,65,92,116,176,114,139,3,6,42,18,79,162,105,187,90,83,174,45,73,191,138,108,33,93,119,70,183,46,51,152,131,75,1,161,135,125,20,118,126,81,117,149,147,128,74,182,15,58,34,10,142,166,115,141,43,21,16,156,165,68,71,151,186,50,67,132,91,26,129,143,13,89,157,69,2,159,124,32,55,72,11,100,39,38,110,19,30,57,7,82,112,122,102,41,4,44,178,109,155,179,28,185,53,120,31,158,175,29,177,12,104,61,35,145,5,85,37,14,180,94,160,123,168,101,27,56,80,59,146,144,47,171,172,97,136,188,76,48,23,113,54,154,9,99,78,133,63,190,107,22,181,153,52,103,111,84],"cond_shown":["Congruent","Incongruent","Equal","Congruent","Incongruent","Incongruent","Incongruent","Equal","Congruent","Congruent","Equal","Equal","Equal","Incongruent","Incongruent","Incongruent","Incongruent","Equal","Congruent","Congruent","Incongruent","Equal","Incongruent","Equal","Incongruent","Equal","Equal","Equal","Congruent","Equal","Incongruent","Incongruent","Congruent","Congruent","Equal","Equal","Equal","Equal","Equal","Equal","Congruent","Incongruent","Congruent","Congruent","Congruent","Congruent","Incongruent","Congruent","Congruent","Incongruent","Congruent","Equal","Congruent","Congruent","Incongruent","Equal","Congruent","Congruent","Congruent","Congruent","Equal","Incongruent","Congruent","Incongruent","Congruent","Equal","Equal","Congruent","Incongruent","Equal","Congruent","Equal","Equal","Incongruent","Congruent","Congruent","Congruent","Equal","Congruent","Equal","Equal","Equal","Congruent","Incongruent","Incongruent","Incongruent","Incongruent","Incongruent","Incongruent","Congruent","Incongruent","Congruent","Incongruent","Congruent","Congruent","Equal","Equal","Incongruent","Congruent","Equal","Incongruent","Congruent","Incongruent","Equal","Congruent","Equal","Incongruent","Equal","Incongruent","Congruent","Equal","Congruent","Incongruent","Equal","Incongruent","Congruent","Equal","Incongruent","Congruent","Equal","Equal","Incongruent","Congruent","Congruent","Incongruent","Incongruent","Incongruent","Equal","Congruent","Equal","Incongruent","Equal","Incongruent","Incongruent","Equal","Equal","Incongruent","Equal","Equal","Congruent","Incongruent","Equal","Incongruent","Equal","Congruent","Congruent","Equal","Incongruent","Equal","Incongruent","Equal","Incongruent","Incongruent","Equal","Congruent","Incongruent","Incongruent","Congruent","Congruent","Equal","Congruent","Equal","Equal","Equal","Equal","Congruent","Equal","Congruent","Incongruent","Incongruent","Incongruent","Equal","Incongruent","Congruent","Equal","Equal","Congruent","Incongruent","Congruent","Congruent","Congruent","Incongruent","Congruent","Incongruent","Equal","Incongruent","Incongruent","Congruent","Incongruent","Incongruent","Congruent","Congruent"],"ratio_trial":[300,500,100,100,100,200,200,500,100,500,100,100,300,100,500,200,200,500,100,100,200,300,100,200,300,200,200,100,300,200,300,100,200,100,300,100,200,300,300,300,300,300,200,300,300,300,300,300,500,300,300,500,300,500,100,500,300,100,500,500,500,500,200,500,200,300,500,200,100,200,200,200,300,500,300,500,500,200,200,300,100,100,200,500,500,500,500,500,300,500,300,500,200,100,500,300,500,300,300,100,300,100,300,100,500,500,100,200,100,500,100,200,200,300,300,100,500,200,200,100,100,300,300,500,300,500,200,100,300,200,200,300,500,100,500,500,200,200,200,100,300,100,300,200,500,100,300,100,500,100,200,100,100,100,100,500,200,200,100,200,200,300,300,500,100,100,500,200,200,100,200,300,200,100,500,200,300,500,500,200,300,100,200,500,500,500,100,500,200,300,200,100],"left_num":[18,7,6,6,1,3,3,6,8,20,6,6,9,2,7,4,4,2,1,1,14,9,1,3,8,3,3,6,8,3,13,8,9,12,9,6,3,9,9,9,20,13,1,1,1,1,2,24,2,4,9,6,2,10,13,6,2,8,4,4,6,7,3,5,3,3,6,13,9,3,14,3,9,7,20,4,2,3,3,9,6,6,7,7,2,7,7,7,13,25,4,8,11,6,7,3,6,1,20,6,2,2,4,6,20,2,8,3,13,1,6,3,4,3,4,1,6,7,6,2,6,13,1,10,7,7,3,2,3,3,3,3,7,9,6,6,7,3,3,2,4,6,13,3,2,3,9,10,6,3,3,3,9,6,6,7,7,6,6,3,16,9,9,6,6,7,6,16,14,6,1,9,7,7,2,3,1,7,2,3,5,6,8,5,6,7,3,3,14,13,6,11],"right_num":[9,5,6,5,8,11,11,6,2,7,6,6,9,6,5,14,14,2,3,3,12,9,8,3,9,3,3,6,10,3,12,1,13,13,9,6,3,9,9,9,14,12,21,8,6,11,6,8,10,6,3,6,12,22,6,6,10,2,12,1,6,5,14,6,9,3,6,14,13,3,6,3,9,5,8,12,4,3,14,9,6,6,18,5,4,5,5,5,12,9,8,4,3,5,20,3,6,2,14,6,6,11,2,6,3,2,6,3,6,11,6,9,6,3,2,3,6,14,11,2,6,12,19,22,8,5,1,2,4,3,11,3,5,13,6,6,6,3,3,11,2,6,12,3,7,4,9,8,6,11,3,7,6,6,5,5,12,3,15,3,9,9,9,6,6,9,6,9,12,13,3,9,12,15,2,3,11,5,18,14,7,11,2,6,6,5,4,14,12,12,11,6],"left_den":[20,21,10,20,2,4,4,24,16,24,12,12,12,4,21,6,6,12,2,2,30,12,2,10,10,6,6,10,15,6,26,20,30,30,12,12,10,12,12,20,25,26,2,30,5,5,4,30,12,5,10,8,10,24,26,8,20,16,24,6,8,21,10,6,12,10,24,26,15,10,28,6,12,21,25,24,12,10,6,20,10,12,15,21,3,21,21,21,26,30,5,12,20,20,21,10,24,2,25,10,4,5,20,12,24,12,16,10,26,9,10,12,5,10,20,2,8,10,20,12,12,26,3,24,10,21,10,12,6,6,4,10,21,15,8,24,15,10,6,5,20,12,26,6,24,20,12,25,8,5,10,9,18,12,20,21,10,15,12,6,30,12,20,8,12,14,8,30,30,10,2,12,10,14,12,10,5,21,5,6,25,10,15,6,8,21,6,8,30,26,20,22],"right_den":[15,6,12,25,20,20,20,8,5,21,10,10,20,15,6,30,30,3,5,5,18,20,20,6,18,10,10,12,12,10,15,2,26,26,20,10,6,20,20,12,28,15,30,24,12,22,30,16,15,12,5,24,24,24,10,24,25,5,18,6,24,6,28,18,20,5,8,20,26,6,20,10,20,6,16,18,6,6,20,12,12,10,27,6,24,6,6,6,15,27,16,24,4,25,24,5,8,10,28,12,30,22,4,10,9,3,10,6,10,18,12,20,10,5,4,5,24,28,22,30,10,15,30,24,20,6,2,30,5,10,20,5,6,26,24,8,9,6,10,22,4,10,15,10,12,16,20,16,24,22,6,30,10,10,25,6,24,15,25,10,27,20,12,24,10,15,24,27,18,26,10,20,24,25,3,6,22,6,20,20,14,22,6,18,24,6,10,16,18,15,22,15],"correct_side":[1,2,1,1,1,1,1,2,1,1,2,2,1,1,2,1,1,2,2,2,2,1,1,2,1,1,1,1,2,1,2,2,2,2,1,2,2,1,1,2,1,2,2,2,2,2,1,1,2,1,1,1,2,2,2,1,2,1,2,1,1,2,2,1,2,2,2,2,1,2,1,1,1,2,1,2,2,2,2,2,1,2,2,2,1,2,2,2,2,1,1,1,2,1,2,2,2,1,1,1,1,2,2,2,1,2,2,2,2,2,1,2,1,2,2,2,1,1,2,1,2,2,2,2,1,2,2,1,2,1,1,2,2,1,1,2,2,2,1,2,2,2,2,1,2,2,1,2,1,1,2,1,2,2,1,2,1,1,2,1,1,1,2,1,2,2,1,1,2,1,1,1,1,2,2,2,2,2,2,2,2,1,1,1,1,2,1,2,2,2,2,1],"img_shown":["img2/300/Congruent/L/C_Dist_300_LN_18_LD_20_RN_9_RD_15_0.png","img2/500/Incongruent/R/I_Dist_500_LN_7_LD_21_RN_5_RD_6_1.png","img2/100/Equal/L/E_Dist_100_LN_6_LD_10_RN_6_RD_12_0.png","img2/100/Congruent/L/C_Dist_100_LN_6_LD_20_RN_5_RD_25_0.png","img2/100/Incongruent/L/I_Dist_100_LN_1_LD_2_RN_8_RD_20_0.png","img2/200/Incongruent/L/I_Dist_200_LN_3_LD_4_RN_11_RD_20_0.png","img2/200/Incongruent/L/I_Dist_200_LN_3_LD_4_RN_11_RD_20_0.png","img2/500/Equal/R/E_Dist_500_LN_6_LD_24_RN_6_RD_8_1.png","img2/100/Congruent/L/C_Dist_100_LN_8_LD_16_RN_2_RD_5_0.png","img2/500/Congruent/L/C_Dist_500_LN_20_LD_24_RN_7_RD_21_0.png","img2/100/Equal/R/E_Dist_100_LN_6_LD_12_RN_6_RD_10_1.png","img2/100/Equal/R/E_Dist_100_LN_6_LD_12_RN_6_RD_10_1.png","img2/300/Equal/L/E_Dist_300_LN_9_LD_12_RN_9_RD_20_0.png","img2/100/Incongruent/L/I_Dist_100_LN_2_LD_4_RN_6_RD_15_0.png","img2/500/Incongruent/R/I_Dist_500_LN_7_LD_21_RN_5_RD_6_1.png","img2/200/Incongruent/L/I_Dist_200_LN_4_LD_6_RN_14_RD_30_0.png","img2/200/Incongruent/L/I_Dist_200_LN_4_LD_6_RN_14_RD_30_0.png","img2/500/Equal/R/E_Dist_500_LN_2_LD_12_RN_2_RD_3_1.png","img2/100/Congruent/R/C_Dist_100_LN_1_LD_2_RN_3_RD_5_1.png","img2/100/Congruent/R/C_Dist_100_LN_1_LD_2_RN_3_RD_5_1.png","img2/200/Incongruent/R/I_Dist_200_LN_14_LD_30_RN_12_RD_18_1.png","img2/300/Equal/L/E_Dist_300_LN_9_LD_12_RN_9_RD_20_0.png","img2/100/Incongruent/L/I_Dist_100_LN_1_LD_2_RN_8_RD_20_0.png","img2/200/Equal/R/E_Dist_200_LN_3_LD_10_RN_3_RD_6_1.png","img2/300/Incongruent/L/I_Dist_300_LN_8_LD_10_RN_9_RD_18_0.png","img2/200/Equal/L/E_Dist_200_LN_3_LD_6_RN_3_RD_10_0.png","img2/200/Equal/L/E_Dist_200_LN_3_LD_6_RN_3_RD_10_0.png","img2/100/Equal/L/E_Dist_100_LN_6_LD_10_RN_6_RD_12_0.png","img2/300/Congruent/R/C_Dist_300_LN_8_LD_15_RN_10_RD_12_1.png","img2/200/Equal/L/E_Dist_200_LN_3_LD_6_RN_3_RD_10_0.png","img2/300/Incongruent/R/I_Dist_300_LN_13_LD_26_RN_12_RD_15_1.png","img2/100/Incongruent/R/I_Dist_100_LN_8_LD_20_RN_1_RD_2_1.png","img2/200/Congruent/R/C_Dist_200_LN_9_LD_30_RN_13_RD_26_1.png","img2/100/Congruent/R/C_Dist_100_LN_12_LD_30_RN_13_RD_26_1.png","img2/300/Equal/L/E_Dist_300_LN_9_LD_12_RN_9_RD_20_0.png","img2/100/Equal/R/E_Dist_100_LN_6_LD_12_RN_6_RD_10_1.png","img2/200/Equal/R/E_Dist_200_LN_3_LD_10_RN_3_RD_6_1.png","img2/300/Equal/L/E_Dist_300_LN_9_LD_12_RN_9_RD_20_0.png","img2/300/Equal/L/E_Dist_300_LN_9_LD_12_RN_9_RD_20_0.png","img2/300/Equal/R/E_Dist_300_LN_9_LD_20_RN_9_RD_12_1.png","img2/300/Congruent/L/C_Dist_300_LN_20_LD_25_RN_14_RD_28_0.png","img2/300/Incongruent/R/I_Dist_300_LN_13_LD_26_RN_12_RD_15_1.png","img2/200/Congruent/R/C_Dist_200_LN_1_LD_2_RN_21_RD_30_1.png","img2/300/Congruent/R/C_Dist_300_LN_1_LD_30_RN_8_RD_24_1.png","img2/300/Congruent/R/C_Dist_300_LN_1_LD_5_RN_6_RD_12_1.png","img2/300/Congruent/R/C_Dist_300_LN_1_LD_5_RN_11_RD_22_1.png","img2/300/Incongruent/L/I_Dist_300_LN_2_LD_4_RN_6_RD_30_0.png","img2/300/Congruent/L/C_Dist_300_LN_24_LD_30_RN_8_RD_16_0.png","img2/500/Congruent/R/C_Dist_500_LN_2_LD_12_RN_10_RD_15_1.png","img2/300/Incongruent/L/I_Dist_300_LN_4_LD_5_RN_6_RD_12_0.png","img2/300/Congruent/L/C_Dist_300_LN_9_LD_10_RN_3_RD_5_0.png","img2/500/Equal/L/E_Dist_500_LN_6_LD_8_RN_6_RD_24_0.png","img2/300/Congruent/R/C_Dist_300_LN_2_LD_10_RN_12_RD_24_1.png","img2/500/Congruent/R/C_Dist_500_LN_10_LD_24_RN_22_RD_24_1.png","img2/100/Incongruent/R/I_Dist_100_LN_13_LD_26_RN_6_RD_10_1.png","img2/500/Equal/L/E_Dist_500_LN_6_LD_8_RN_6_RD_24_0.png","img2/300/Congruent/R/C_Dist_300_LN_2_LD_20_RN_10_RD_25_1.png","img2/100/Congruent/L/C_Dist_100_LN_8_LD_16_RN_2_RD_5_0.png","img2/500/Congruent/R/C_Dist_500_LN_4_LD_24_RN_12_RD_18_1.png","img2/500/Congruent/L/C_Dist_500_LN_4_LD_6_RN_1_RD_6_0.png","img2/500/Equal/L/E_Dist_500_LN_6_LD_8_RN_6_RD_24_0.png","img2/500/Incongruent/R/I_Dist_500_LN_7_LD_21_RN_5_RD_6_1.png","img2/200/Congruent/R/C_Dist_200_LN_3_LD_10_RN_14_RD_28_1.png","img2/500/Incongruent/L/I_Dist_500_LN_5_LD_6_RN_6_RD_18_0.png","img2/200/Congruent/R/C_Dist_200_LN_3_LD_12_RN_9_RD_20_1.png","img2/300/Equal/R/E_Dist_300_LN_3_LD_10_RN_3_RD_5_1.png","img2/500/Equal/R/E_Dist_500_LN_6_LD_24_RN_6_RD_8_1.png","img2/200/Congruent/R/C_Dist_200_LN_13_LD_26_RN_14_RD_20_1.png","img2/100/Incongruent/L/I_Dist_100_LN_9_LD_15_RN_13_RD_26_0.png","img2/200/Equal/R/E_Dist_200_LN_3_LD_10_RN_3_RD_6_1.png","img2/200/Congruent/L/C_Dist_200_LN_14_LD_28_RN_6_RD_20_0.png","img2/200/Equal/L/E_Dist_200_LN_3_LD_6_RN_3_RD_10_0.png","img2/300/Equal/L/E_Dist_300_LN_9_LD_12_RN_9_RD_20_0.png","img2/500/Incongruent/R/I_Dist_500_LN_7_LD_21_RN_5_RD_6_1.png","img2/300/Congruent/L/C_Dist_300_LN_20_LD_25_RN_8_RD_16_0.png","img2/500/Congruent/R/C_Dist_500_LN_4_LD_24_RN_12_RD_18_1.png","img2/500/Congruent/R/C_Dist_500_LN_2_LD_12_RN_4_RD_6_1.png","img2/200/Equal/R/E_Dist_200_LN_3_LD_10_RN_3_RD_6_1.png","img2/200/Congruent/R/C_Dist_200_LN_3_LD_6_RN_14_RD_20_1.png","img2/300/Equal/R/E_Dist_300_LN_9_LD_20_RN_9_RD_12_1.png","img2/100/Equal/L/E_Dist_100_LN_6_LD_10_RN_6_RD_12_0.png","img2/100/Equal/R/E_Dist_100_LN_6_LD_12_RN_6_RD_10_1.png","img2/200/Congruent/R/C_Dist_200_LN_7_LD_15_RN_18_RD_27_1.png","img2/500/Incongruent/R/I_Dist_500_LN_7_LD_21_RN_5_RD_6_1.png","img2/500/Incongruent/L/I_Dist_500_LN_2_LD_3_RN_4_RD_24_0.png","img2/500/Incongruent/R/I_Dist_500_LN_7_LD_21_RN_5_RD_6_1.png","img2/500/Incongruent/R/I_Dist_500_LN_7_LD_21_RN_5_RD_6_1.png","img2/500/Incongruent/R/I_Dist_500_LN_7_LD_21_RN_5_RD_6_1.png","img2/300/Incongruent/R/I_Dist_300_LN_13_LD_26_RN_12_RD_15_1.png","img2/500/Congruent/L/C_Dist_500_LN_25_LD_30_RN_9_RD_27_0.png","img2/300/Incongruent/L/I_Dist_300_LN_4_LD_5_RN_8_RD_16_0.png","img2/500/Congruent/L/C_Dist_500_LN_8_LD_12_RN_4_RD_24_0.png","img2/200/Incongruent/R/I_Dist_200_LN_11_LD_20_RN_3_RD_4_1.png","img2/100/Congruent/L/C_Dist_100_LN_6_LD_20_RN_5_RD_25_0.png","img2/500/Congruent/R/C_Dist_500_LN_7_LD_21_RN_20_RD_24_1.png","img2/300/Equal/R/E_Dist_300_LN_3_LD_10_RN_3_RD_5_1.png","img2/500/Equal/R/E_Dist_500_LN_6_LD_24_RN_6_RD_8_1.png","img2/300/Incongruent/L/I_Dist_300_LN_1_LD_2_RN_2_RD_10_0.png","img2/300/Congruent/L/C_Dist_300_LN_20_LD_25_RN_14_RD_28_0.png","img2/100/Equal/L/E_Dist_100_LN_6_LD_10_RN_6_RD_12_0.png","img2/300/Incongruent/L/I_Dist_300_LN_2_LD_4_RN_6_RD_30_0.png","img2/100/Congruent/R/C_Dist_100_LN_2_LD_5_RN_11_RD_22_1.png","img2/300/Incongruent/R/I_Dist_300_LN_4_LD_20_RN_2_RD_4_1.png","img2/100/Equal/R/E_Dist_100_LN_6_LD_12_RN_6_RD_10_1.png","img2/500/Congruent/L/C_Dist_500_LN_20_LD_24_RN_3_RD_9_0.png","img2/500/Equal/R/E_Dist_500_LN_2_LD_12_RN_2_RD_3_1.png","img2/100/Incongruent/R/I_Dist_100_LN_8_LD_16_RN_6_RD_10_1.png","img2/200/Equal/R/E_Dist_200_LN_3_LD_10_RN_3_RD_6_1.png","img2/100/Incongruent/R/I_Dist_100_LN_13_LD_26_RN_6_RD_10_1.png","img2/500/Congruent/R/C_Dist_500_LN_1_LD_9_RN_11_RD_18_1.png","img2/100/Equal/L/E_Dist_100_LN_6_LD_10_RN_6_RD_12_0.png","img2/200/Congruent/R/C_Dist_200_LN_3_LD_12_RN_9_RD_20_1.png","img2/200/Incongruent/L/I_Dist_200_LN_4_LD_5_RN_6_RD_10_0.png","img2/300/Equal/R/E_Dist_300_LN_3_LD_10_RN_3_RD_5_1.png","img2/300/Incongruent/R/I_Dist_300_LN_4_LD_20_RN_2_RD_4_1.png","img2/100/Congruent/R/C_Dist_100_LN_1_LD_2_RN_3_RD_5_1.png","img2/500/Equal/L/E_Dist_500_LN_6_LD_8_RN_6_RD_24_0.png","img2/200/Incongruent/L/I_Dist_200_LN_7_LD_10_RN_14_RD_28_0.png","img2/200/Congruent/R/C_Dist_200_LN_6_LD_20_RN_11_RD_22_1.png","img2/100/Equal/L/E_Dist_100_LN_2_LD_12_RN_2_RD_30_0.png","img2/100/Equal/R/E_Dist_100_LN_6_LD_12_RN_6_RD_10_1.png","img2/300/Incongruent/R/I_Dist_300_LN_13_LD_26_RN_12_RD_15_1.png","img2/300/Congruent/R/C_Dist_300_LN_1_LD_3_RN_19_RD_30_1.png","img2/500/Congruent/R/C_Dist_500_LN_10_LD_24_RN_22_RD_24_1.png","img2/300/Incongruent/L/I_Dist_300_LN_7_LD_10_RN_8_RD_20_0.png","img2/500/Incongruent/R/I_Dist_500_LN_7_LD_21_RN_5_RD_6_1.png","img2/200/Incongruent/R/I_Dist_200_LN_3_LD_10_RN_1_RD_2_1.png","img2/100/Equal/L/E_Dist_100_LN_2_LD_12_RN_2_RD_30_0.png","img2/300/Congruent/R/C_Dist_300_LN_3_LD_6_RN_4_RD_5_1.png","img2/200/Equal/L/E_Dist_200_LN_3_LD_6_RN_3_RD_10_0.png","img2/200/Incongruent/L/I_Dist_200_LN_3_LD_4_RN_11_RD_20_0.png","img2/300/Equal/R/E_Dist_300_LN_3_LD_10_RN_3_RD_5_1.png","img2/500/Incongruent/R/I_Dist_500_LN_7_LD_21_RN_5_RD_6_1.png","img2/100/Incongruent/L/I_Dist_100_LN_9_LD_15_RN_13_RD_26_0.png","img2/500/Equal/L/E_Dist_500_LN_6_LD_8_RN_6_RD_24_0.png","img2/500/Equal/R/E_Dist_500_LN_6_LD_24_RN_6_RD_8_1.png","img2/200/Incongruent/R/I_Dist_200_LN_7_LD_15_RN_6_RD_9_1.png","img2/200/Equal/R/E_Dist_200_LN_3_LD_10_RN_3_RD_6_1.png","img2/200/Equal/L/E_Dist_200_LN_3_LD_6_RN_3_RD_10_0.png","img2/100/Congruent/R/C_Dist_100_LN_2_LD_5_RN_11_RD_22_1.png","img2/300/Incongruent/R/I_Dist_300_LN_4_LD_20_RN_2_RD_4_1.png","img2/100/Equal/R/E_Dist_100_LN_6_LD_12_RN_6_RD_10_1.png","img2/300/Incongruent/R/I_Dist_300_LN_13_LD_26_RN_12_RD_15_1.png","img2/200/Equal/L/E_Dist_200_LN_3_LD_6_RN_3_RD_10_0.png","img2/500/Congruent/R/C_Dist_500_LN_2_LD_24_RN_7_RD_12_1.png","img2/100/Congruent/R/C_Dist_100_LN_3_LD_20_RN_4_RD_16_1.png","img2/300/Equal/L/E_Dist_300_LN_9_LD_12_RN_9_RD_20_0.png","img2/100/Incongruent/R/I_Dist_100_LN_10_LD_25_RN_8_RD_16_1.png","img2/500/Equal/L/E_Dist_500_LN_6_LD_8_RN_6_RD_24_0.png","img2/100/Incongruent/L/I_Dist_100_LN_3_LD_5_RN_11_RD_22_0.png","img2/200/Equal/R/E_Dist_200_LN_3_LD_10_RN_3_RD_6_1.png","img2/100/Incongruent/L/I_Dist_100_LN_3_LD_9_RN_7_RD_30_0.png","img2/100/Incongruent/R/I_Dist_100_LN_9_LD_18_RN_6_RD_10_1.png","img2/100/Equal/R/E_Dist_100_LN_6_LD_12_RN_6_RD_10_1.png","img2/100/Congruent/L/C_Dist_100_LN_6_LD_20_RN_5_RD_25_0.png","img2/500/Incongruent/R/I_Dist_500_LN_7_LD_21_RN_5_RD_6_1.png","img2/200/Incongruent/L/I_Dist_200_LN_7_LD_10_RN_12_RD_24_0.png","img2/200/Congruent/L/C_Dist_200_LN_6_LD_15_RN_3_RD_15_0.png","img2/100/Congruent/R/C_Dist_100_LN_6_LD_12_RN_15_RD_25_1.png","img2/200/Equal/L/E_Dist_200_LN_3_LD_6_RN_3_RD_10_0.png","img2/200/Congruent/L/C_Dist_200_LN_16_LD_30_RN_9_RD_27_0.png","img2/300/Equal/L/E_Dist_300_LN_9_LD_12_RN_9_RD_20_0.png","img2/300/Equal/R/E_Dist_300_LN_9_LD_20_RN_9_RD_12_1.png","img2/500/Equal/L/E_Dist_500_LN_6_LD_8_RN_6_RD_24_0.png","img2/100/Equal/R/E_Dist_100_LN_6_LD_12_RN_6_RD_10_1.png","img2/100/Congruent/R/C_Dist_100_LN_7_LD_14_RN_9_RD_15_1.png","img2/500/Equal/L/E_Dist_500_LN_6_LD_8_RN_6_RD_24_0.png","img2/200/Congruent/L/C_Dist_200_LN_16_LD_30_RN_9_RD_27_0.png","img2/200/Incongruent/R/I_Dist_200_LN_14_LD_30_RN_12_RD_18_1.png","img2/100/Incongruent/L/I_Dist_100_LN_6_LD_10_RN_13_RD_26_0.png","img2/200/Incongruent/L/I_Dist_200_LN_1_LD_2_RN_3_RD_10_0.png","img2/300/Equal/L/E_Dist_300_LN_9_LD_12_RN_9_RD_20_0.png","img2/200/Incongruent/L/I_Dist_200_LN_7_LD_10_RN_12_RD_24_0.png","img2/100/Congruent/R/C_Dist_100_LN_7_LD_14_RN_15_RD_25_1.png","img2/500/Equal/R/E_Dist_500_LN_2_LD_12_RN_2_RD_3_1.png","img2/200/Equal/R/E_Dist_200_LN_3_LD_10_RN_3_RD_6_1.png","img2/300/Congruent/R/C_Dist_300_LN_1_LD_5_RN_11_RD_22_1.png","img2/500/Incongruent/R/I_Dist_500_LN_7_LD_21_RN_5_RD_6_1.png","img2/500/Congruent/R/C_Dist_500_LN_2_LD_5_RN_18_RD_20_1.png","img2/200/Congruent/R/C_Dist_200_LN_3_LD_6_RN_14_RD_20_1.png","img2/300/Congruent/R/C_Dist_300_LN_5_LD_25_RN_7_RD_14_1.png","img2/100/Incongruent/L/I_Dist_100_LN_6_LD_10_RN_11_RD_22_0.png","img2/200/Congruent/L/C_Dist_200_LN_8_LD_15_RN_2_RD_6_0.png","img2/500/Incongruent/L/I_Dist_500_LN_5_LD_6_RN_6_RD_18_0.png","img2/500/Equal/L/E_Dist_500_LN_6_LD_8_RN_6_RD_24_0.png","img2/500/Incongruent/R/I_Dist_500_LN_7_LD_21_RN_5_RD_6_1.png","img2/100/Incongruent/L/I_Dist_100_LN_3_LD_6_RN_4_RD_10_0.png","img2/500/Congruent/R/C_Dist_500_LN_3_LD_8_RN_14_RD_16_1.png","img2/200/Incongruent/R/I_Dist_200_LN_14_LD_30_RN_12_RD_18_1.png","img2/300/Incongruent/R/I_Dist_300_LN_13_LD_26_RN_12_RD_15_1.png","img2/200/Congruent/R/C_Dist_200_LN_6_LD_20_RN_11_RD_22_1.png","img2/100/Congruent/L/C_Dist_100_LN_11_LD_22_RN_6_RD_15_0.png"],"dist100_C":[["C_Dist_100_LN_10_LD_25_RN_3_RD_10_0.png","C_Dist_100_LN_11_LD_22_RN_4_RD_10_0.png","C_Dist_100_LN_11_LD_22_RN_6_RD_15_0.png","C_Dist_100_LN_15_LD_25_RN_13_RD_26_0.png","C_Dist_100_LN_3_LD_6_RN_2_RD_5_0.png","C_Dist_100_LN_6_LD_20_RN_5_RD_25_0.png","C_Dist_100_LN_8_LD_16_RN_2_RD_5_0.png","C_Dist_100_LN_9_LD_15_RN_8_RD_16_0.png"],["C_Dist_100_LN_1_LD_2_RN_18_RD_30_1.png","C_Dist_100_LN_1_LD_2_RN_3_RD_5_1.png","C_Dist_100_LN_12_LD_30_RN_13_RD_26_1.png","C_Dist_100_LN_2_LD_5_RN_11_RD_22_1.png","C_Dist_100_LN_2_LD_5_RN_6_RD_12_1.png","C_Dist_100_LN_3_LD_20_RN_4_RD_16_1.png","C_Dist_100_LN_4_LD_10_RN_15_RD_30_1.png","C_Dist_100_LN_4_LD_8_RN_6_RD_10_1.png","C_Dist_100_LN_6_LD_12_RN_15_RD_25_1.png","C_Dist_100_LN_7_LD_14_RN_15_RD_25_1.png","C_Dist_100_LN_7_LD_14_RN_9_RD_15_1.png"]],"dist100_I":[["I_Dist_100_LN_1_LD_2_RN_8_RD_20_0.png","I_Dist_100_LN_2_LD_4_RN_6_RD_15_0.png","I_Dist_100_LN_2_LD_4_RN_8_RD_20_0.png","I_Dist_100_LN_3_LD_5_RN_11_RD_22_0.png","I_Dist_100_LN_3_LD_5_RN_8_RD_16_0.png","I_Dist_100_LN_3_LD_6_RN_4_RD_10_0.png","I_Dist_100_LN_3_LD_9_RN_7_RD_30_0.png","I_Dist_100_LN_4_LD_8_RN_8_RD_20_0.png","I_Dist_100_LN_6_LD_10_RN_11_RD_22_0.png","I_Dist_100_LN_6_LD_10_RN_13_RD_26_0.png","I_Dist_100_LN_6_LD_10_RN_7_RD_14_0.png","I_Dist_100_LN_9_LD_10_RN_20_RD_25_0.png","I_Dist_100_LN_9_LD_15_RN_13_RD_26_0.png","I_Dist_100_LN_9_LD_15_RN_14_RD_28_0.png"],["I_Dist_100_LN_10_LD_25_RN_8_RD_16_1.png","I_Dist_100_LN_10_LD_25_RN_9_RD_18_1.png","I_Dist_100_LN_11_LD_22_RN_9_RD_15_1.png","I_Dist_100_LN_12_LD_24_RN_9_RD_15_1.png","I_Dist_100_LN_12_LD_30_RN_2_RD_4_1.png","I_Dist_100_LN_13_LD_26_RN_12_RD_20_1.png","I_Dist_100_LN_13_LD_26_RN_6_RD_10_1.png","I_Dist_100_LN_17_LD_30_RN_10_RD_15_1.png","I_Dist_100_LN_6_LD_12_RN_3_RD_5_1.png","I_Dist_100_LN_8_LD_16_RN_6_RD_10_1.png","I_Dist_100_LN_8_LD_20_RN_1_RD_2_1.png","I_Dist_100_LN_9_LD_18_RN_6_RD_10_1.png"]],"dist100_S":[["E_Dist_100_LN_2_LD_12_RN_2_RD_30_0.png","E_Dist_100_LN_6_LD_10_RN_6_RD_12_0.png"],["E_Dist_100_LN_6_LD_12_RN_6_RD_10_1.png"]],"dist200_C":[["C_Dist_200_LN_11_LD_22_RN_3_RD_10_0.png","C_Dist_200_LN_12_LD_15_RN_6_RD_10_0.png","C_Dist_200_LN_12_LD_20_RN_6_RD_15_0.png","C_Dist_200_LN_14_LD_28_RN_6_RD_20_0.png","C_Dist_200_LN_15_LD_25_RN_4_RD_10_0.png","C_Dist_200_LN_16_LD_20_RN_12_RD_20_0.png","C_Dist_200_LN_16_LD_30_RN_9_RD_27_0.png","C_Dist_200_LN_20_LD_25_RN_9_RD_15_0.png","C_Dist_200_LN_21_LD_30_RN_2_RD_4_0.png","C_Dist_200_LN_4_LD_10_RN_3_RD_15_0.png","C_Dist_200_LN_4_LD_8_RN_3_RD_10_0.png","C_Dist_200_LN_6_LD_15_RN_3_RD_15_0.png","C_Dist_200_LN_7_LD_21_RN_2_RD_15_0.png","C_Dist_200_LN_8_LD_15_RN_2_RD_6_0.png","C_Dist_200_LN_8_LD_15_RN_3_RD_9_0.png","C_Dist_200_LN_8_LD_15_RN_7_RD_21_0.png","C_Dist_200_LN_9_LD_20_RN_4_RD_16_0.png"],["C_Dist_200_LN_1_LD_2_RN_21_RD_30_1.png","C_Dist_200_LN_13_LD_26_RN_14_RD_20_1.png","C_Dist_200_LN_3_LD_10_RN_11_RD_22_1.png","C_Dist_200_LN_3_LD_10_RN_14_RD_28_1.png","C_Dist_200_LN_3_LD_10_RN_7_RD_14_1.png","C_Dist_200_LN_3_LD_12_RN_9_RD_20_1.png","C_Dist_200_LN_3_LD_6_RN_14_RD_20_1.png","C_Dist_200_LN_5_LD_10_RN_14_RD_20_1.png","C_Dist_200_LN_6_LD_12_RN_7_RD_10_1.png","C_Dist_200_LN_6_LD_20_RN_11_RD_22_1.png","C_Dist_200_LN_7_LD_15_RN_18_RD_27_1.png","C_Dist_200_LN_9_LD_30_RN_13_RD_26_1.png"]],"dist200_I":[["I_Dist_200_LN_1_LD_2_RN_3_RD_10_0.png","I_Dist_200_LN_1_LD_3_RN_2_RD_15_0.png","I_Dist_200_LN_3_LD_4_RN_11_RD_20_0.png","I_Dist_200_LN_4_LD_5_RN_6_RD_10_0.png","I_Dist_200_LN_4_LD_6_RN_14_RD_30_0.png","I_Dist_200_LN_7_LD_10_RN_12_RD_24_0.png","I_Dist_200_LN_7_LD_10_RN_14_RD_28_0.png","I_Dist_200_LN_7_LD_10_RN_8_RD_16_0.png"],["I_Dist_200_LN_11_LD_20_RN_3_RD_4_1.png","I_Dist_200_LN_14_LD_30_RN_12_RD_18_1.png","I_Dist_200_LN_14_LD_30_RN_6_RD_9_1.png","I_Dist_200_LN_3_LD_10_RN_1_RD_2_1.png","I_Dist_200_LN_4_LD_30_RN_1_RD_3_1.png","I_Dist_200_LN_6_LD_20_RN_3_RD_6_1.png","I_Dist_200_LN_7_LD_15_RN_4_RD_6_1.png","I_Dist_200_LN_7_LD_15_RN_6_RD_9_1.png","I_Dist_200_LN_9_LD_15_RN_8_RD_10_1.png"]],"dist200_S":[["E_Dist_200_LN_3_LD_6_RN_3_RD_10_0.png"],["E_Dist_200_LN_3_LD_10_RN_3_RD_6_1.png"]],"dist300_C":[["C_Dist_300_LN_11_LD_22_RN_1_RD_5_0.png","C_Dist_300_LN_11_LD_22_RN_2_RD_10_0.png","C_Dist_300_LN_11_LD_22_RN_4_RD_20_0.png","C_Dist_300_LN_12_LD_24_RN_2_RD_10_0.png","C_Dist_300_LN_18_LD_20_RN_9_RD_15_0.png","C_Dist_300_LN_20_LD_25_RN_13_RD_26_0.png","C_Dist_300_LN_20_LD_25_RN_14_RD_28_0.png","C_Dist_300_LN_20_LD_25_RN_5_RD_10_0.png","C_Dist_300_LN_20_LD_25_RN_8_RD_16_0.png","C_Dist_300_LN_20_LD_25_RN_9_RD_18_0.png","C_Dist_300_LN_24_LD_30_RN_2_RD_4_0.png","C_Dist_300_LN_24_LD_30_RN_8_RD_16_0.png","C_Dist_300_LN_3_LD_6_RN_2_RD_10_0.png","C_Dist_300_LN_4_LD_10_RN_1_RD_10_0.png","C_Dist_300_LN_4_LD_5_RN_2_RD_4_0.png","C_Dist_300_LN_8_LD_16_RN_1_RD_5_0.png","C_Dist_300_LN_9_LD_10_RN_3_RD_5_0.png"],["C_Dist_300_LN_1_LD_20_RN_7_RD_20_1.png","C_Dist_300_LN_1_LD_3_RN_19_RD_30_1.png","C_Dist_300_LN_1_LD_30_RN_8_RD_24_1.png","C_Dist_300_LN_1_LD_5_RN_11_RD_22_1.png","C_Dist_300_LN_1_LD_5_RN_3_RD_6_1.png","C_Dist_300_LN_1_LD_5_RN_6_RD_12_1.png","C_Dist_300_LN_2_LD_10_RN_12_RD_24_1.png","C_Dist_300_LN_2_LD_20_RN_10_RD_25_1.png","C_Dist_300_LN_3_LD_12_RN_11_RD_20_1.png","C_Dist_300_LN_3_LD_6_RN_4_RD_5_1.png","C_Dist_300_LN_4_LD_20_RN_13_RD_26_1.png","C_Dist_300_LN_5_LD_25_RN_6_RD_12_1.png","C_Dist_300_LN_5_LD_25_RN_7_RD_14_1.png","C_Dist_300_LN_7_LD_14_RN_20_RD_25_1.png","C_Dist_300_LN_8_LD_15_RN_10_RD_12_1.png"]],"dist300_I":[["I_Dist_300_LN_1_LD_2_RN_2_RD_10_0.png","I_Dist_300_LN_1_LD_2_RN_3_RD_15_0.png","I_Dist_300_LN_2_LD_4_RN_6_RD_30_0.png","I_Dist_300_LN_3_LD_6_RN_4_RD_20_0.png","I_Dist_300_LN_4_LD_5_RN_6_RD_12_0.png","I_Dist_300_LN_4_LD_5_RN_8_RD_16_0.png","I_Dist_300_LN_7_LD_10_RN_8_RD_20_0.png","I_Dist_300_LN_8_LD_10_RN_14_RD_28_0.png","I_Dist_300_LN_8_LD_10_RN_9_RD_18_0.png"],["I_Dist_300_LN_13_LD_26_RN_12_RD_15_1.png","I_Dist_300_LN_4_LD_20_RN_2_RD_4_1.png"]],"dist300_S":[["E_Dist_300_LN_9_LD_12_RN_9_RD_20_0.png"],["E_Dist_300_LN_18_LD_30_RN_18_RD_20_1.png","E_Dist_300_LN_3_LD_10_RN_3_RD_5_1.png","E_Dist_300_LN_9_LD_20_RN_9_RD_12_1.png"]],"dist500_C":[["C_Dist_500_LN_10_LD_13_RN_7_RD_26_0.png","C_Dist_500_LN_10_LD_15_RN_4_RD_24_0.png","C_Dist_500_LN_12_LD_16_RN_3_RD_12_0.png","C_Dist_500_LN_12_LD_18_RN_4_RD_24_0.png","C_Dist_500_LN_15_LD_18_RN_5_RD_15_0.png","C_Dist_500_LN_15_LD_20_RN_1_RD_4_0.png","C_Dist_500_LN_18_LD_27_RN_1_RD_6_0.png","C_Dist_500_LN_20_LD_24_RN_1_RD_3_0.png","C_Dist_500_LN_20_LD_24_RN_3_RD_9_0.png","C_Dist_500_LN_20_LD_24_RN_7_RD_21_0.png","C_Dist_500_LN_20_LD_28_RN_3_RD_14_0.png","C_Dist_500_LN_21_LD_28_RN_6_RD_24_0.png","C_Dist_500_LN_22_LD_28_RN_2_RD_7_0.png","C_Dist_500_LN_25_LD_30_RN_9_RD_27_0.png","C_Dist_500_LN_4_LD_6_RN_1_RD_6_0.png","C_Dist_500_LN_5_LD_6_RN_2_RD_6_0.png","C_Dist_500_LN_6_LD_9_RN_1_RD_6_0.png","C_Dist_500_LN_7_LD_10_RN_1_RD_5_0.png","C_Dist_500_LN_8_LD_12_RN_1_RD_6_0.png","C_Dist_500_LN_8_LD_12_RN_4_RD_24_0.png"],["C_Dist_500_LN_1_LD_4_RN_12_RD_16_1.png","C_Dist_500_LN_1_LD_4_RN_9_RD_12_1.png","C_Dist_500_LN_1_LD_9_RN_11_RD_18_1.png","C_Dist_500_LN_10_LD_24_RN_22_RD_24_1.png","C_Dist_500_LN_2_LD_12_RN_10_RD_15_1.png","C_Dist_500_LN_2_LD_12_RN_12_RD_18_1.png","C_Dist_500_LN_2_LD_12_RN_4_RD_6_1.png","C_Dist_500_LN_2_LD_24_RN_7_RD_12_1.png","C_Dist_500_LN_2_LD_5_RN_18_RD_20_1.png","C_Dist_500_LN_2_LD_5_RN_9_RD_10_1.png","C_Dist_500_LN_2_LD_8_RN_12_RD_16_1.png","C_Dist_500_LN_2_LD_8_RN_21_RD_28_1.png","C_Dist_500_LN_3_LD_10_RN_4_RD_5_1.png","C_Dist_500_LN_3_LD_12_RN_15_RD_20_1.png","C_Dist_500_LN_3_LD_30_RN_6_RD_10_1.png","C_Dist_500_LN_3_LD_8_RN_14_RD_16_1.png","C_Dist_500_LN_4_LD_16_RN_15_RD_20_1.png","C_Dist_500_LN_4_LD_24_RN_12_RD_18_1.png","C_Dist_500_LN_5_LD_14_RN_6_RD_7_1.png","C_Dist_500_LN_7_LD_21_RN_20_RD_24_1.png","C_Dist_500_LN_7_LD_28_RN_12_RD_16_1.png","C_Dist_500_LN_7_LD_28_RN_9_RD_12_1.png","C_Dist_500_LN_9_LD_27_RN_20_RD_24_1.png"]],"dist500_I":[["I_Dist_500_LN_2_LD_3_RN_4_RD_24_0.png","I_Dist_500_LN_5_LD_6_RN_6_RD_18_0.png","I_Dist_500_LN_7_LD_8_RN_9_RD_24_0.png"],["I_Dist_500_LN_7_LD_21_RN_5_RD_6_1.png"]],"dist500_S":[["E_Dist_500_LN_6_LD_8_RN_6_RD_24_0.png"],["E_Dist_500_LN_2_LD_12_RN_2_RD_3_1.png","E_Dist_500_LN_6_LD_24_RN_6_RD_8_1.png"]]}},{"start_time":1549308975151,"click_time":1549308989025,"finger_time":1549308988864,"fix_duration":385.0104731619679,"trial":1,"RT":13713,"MT":161,"sideResp":2,"stimulus":[],"xmouse":[409.3330078125,409.3330078125,409.3330078125,409.3330078125,409.3330078125,409.3330078125,409.3330078125,410,410,410,410,410,410,410,410,410,410,410,410,410,410,410,410,410,410,410,410,410,410,410,410,410,410,410,410,410,410,410,410,410,410,410,410,410,410,410,410,410,410,410,410,410,410,410,409,409,409,409,409,409,409,409,409,409,410.6669921875,410.6669921875,410.6669921875,410.6669921875,410.6669921875,410.6669921875,410.6669921875,410.6669921875,410.6669921875,410.6669921875,410,410,410,410,410,410,410,410,410,410,410,410,410,410,410,410,410,410,410,410,409,409,409,409,409,409,409,409,409,409,408.6669921875,408.6669921875,408.6669921875,408.6669921875,408.6669921875,408.6669921875,408.6669921875,408.6669921875,408.6669921875,408.6669921875,409.3330078125,409.3330078125,409.3330078125,409.3330078125,409.3330078125,409.3330078125,409.3330078125,409.3330078125,409.3330078125,409.3330078125,408.6669921875,408.6669921875,408.6669921875,408.6669921875,408.6669921875,408.6669921875,408.6669921875,408.6669921875,408.6669921875,408.6669921875,409.3330078125,409.3330078125,409.3330078125,409.3330078125,409.3330078125,409.3330078125,409.3330078125,409.3330078125,409.3330078125,409.3330078125,408.6669921875,408.6669921875,408.6669921875,408.6669921875,408.6669921875,408.6669921875,408.6669921875,408.6669921875,408.6669921875,408.6669921875,408,408,408,408,408,408,408,408,408,408,408.6669921875,408.6669921875,408.6669921875,408.6669921875,408.6669921875,408.6669921875,408.6669921875,408.6669921875,408.6669921875,408.6669921875,408.6669921875,408.6669921875,408.6669921875,408.6669921875,408.6669921875,408.6669921875,408.6669921875,408.6669921875,408,408,408,408,408,408,408,408,408,408,408,408,408,408,408,408,408,408,408,408,408,408,408,408,407.3330078125,407.3330078125,407.3330078125,407.3330078125,407.3330078125,407.3330078125,407.3330078125,407.3330078125,407.3330078125,407.3330078125,408,408,408,408,408,408,408,408,408,408,408,408,408,408,408,408,408,408,408,408,407,407,407,407,407,407,407,407,407,407,407,407,407,407,407,407,407.3330078125,407.3330078125,407.3330078125,407.3330078125,407.3330078125,407.3330078125,407.3330078125,407.3330078125,407.3330078125,407.3330078125,409.3330078125,409.3330078125,409.3330078125,409.3330078125,409.3330078125,409.3330078125,409.3330078125,409.3330078125,409.3330078125,409.3330078125,409,409,409,409,409,409,409,409,409,409,409,409,409,409,409,409,409,409,409,409,408.6669921875,408.6669921875,408.6669921875,408.6669921875,408.6669921875,408.6669921875,408.6669921875,408.6669921875,408.6669921875,408.6669921875,408.6669921875,408.6669921875,408.6669921875,408.6669921875,408.6669921875,408.6669921875,408.6669921875,408.6669921875,408.6669921875,408.6669921875,408,408,408,408,408,408,408,408,408,408,408,408,408,408,407.3330078125,407.3330078125,407.3330078125,407.3330078125,407.3330078125,407.3330078125,407.3330078125,407.3330078125,407.3330078125,408,408,408,408,408,408,408,408,408,408,408,408,408,408,408,408,408,408,408,408,408.6669921875,408.6669921875,408.6669921875,408.6669921875,408.6669921875,408.6669921875,408.6669921875,408.6669921875,408.6669921875,408.6669921875,408,408,408,408,408,408,408,408,408,408,407.3330078125,407.3330078125,407.3330078125,407.3330078125,407.3330078125,407.3330078125,407.3330078125,407.3330078125,407.3330078125,407.3330078125,406.6669921875,406.6669921875,406.6669921875,406.6669921875,406.6669921875,406.6669921875,406.6669921875,406.6669921875,406.6669921875,406.6669921875,406.6669921875,406.6669921875,406.6669921875,406.6669921875,406.6669921875,406,406,406,406,406,406,406,406,406,406,406,406,406,406,406,406,406,406,406,406,406,404,404,404,404,404,404,404,404,404,403.3330078125,403.3330078125,403.3330078125,403.3330078125,403.3330078125,403.3330078125,403.3330078125,403.3330078125,403.3330078125,403.3330078125,403.3330078125,401.3330078125,401.3330078125,401,401,401,401,401,401,401,401,403,403,403,403,403,403,403,403,403,403,403.3330078125,403.3330078125,403.3330078125,403.3330078125,403.3330078125,403.3330078125,403.3330078125,403.3330078125,403.3330078125,403.3330078125,401,401,401,401,401,401,401,401,401,401,402.6669921875,402.6669921875,402.6669921875,402.6669921875,402.6669921875,402.6669921875,402.6669921875,402.6669921875,402.6669921875,402.6669921875,402.6669921875,402.6669921875,402.6669921875,402.6669921875,402.6669921875,402.6669921875,402.6669921875,402.6669921875,402.6669921875,402.6669921875,403.3330078125,403.3330078125,403.3330078125,403.3330078125,403.3330078125,403.3330078125,403.3330078125,403.3330078125,403.3330078125,403.3330078125,403.3330078125,403.3330078125,403.3330078125,403.3330078125,403.3330078125,403.3330078125,403.3330078125,403.3330078125,403.3330078125,403.3330078125,403,403,403,403,403,403,403,403,403,403,403.3330078125,403.3330078125,403.3330078125,403.3330078125,403.3330078125,403.3330078125,403.3330078125,403.3330078125,403.3330078125,403.3330078125,403.3330078125,403,403,403,403,403,403,403,403,403,403.3330078125,403.3330078125,403.3330078125,403.3330078125,403.3330078125,403.3330078125,403.3330078125,403.3330078125,403.3330078125,403.3330078125,402,402,402,402,402,402,402,402,402,402,402,402,402,402,402,402,402,402,402,402,402,402,402,402,402,402,402,402,402,402,402,404,404,404,404,404,404,404,404,404,404,403.3330078125,403.3330078125,403.3330078125,403.3330078125,403.3330078125,403.3330078125,403.3330078125,403.3330078125,403.3330078125,403.3330078125,403.3330078125,403.3330078125,403.3330078125,403.3330078125,403.3330078125,403.3330078125,403.3330078125,403.3330078125,403.3330078125,403.3330078125,403,403,403,403,403,403,403,403,403,403,402.6669921875,402.6669921875,402.6669921875,402.6669921875,402.6669921875,402.6669921875,402.6669921875,402.6669921875,402.6669921875,402.6669921875,402.6669921875,402.6669921875,402.6669921875,402.6669921875,402.6669921875,402.6669921875,402,402,402,402,402,402,402,402,402,402,402.6669921875,402.6669921875,402.6669921875,402.6669921875,402.6669921875,402.6669921875,402.6669921875,402.6669921875,402.6669921875,402.6669921875,402,402,402,402,402,402,402,402,404,404.6669921875,406,406,406,406,407,407,407,450,484,528,560,596,613.3330078125,640,671.3330078125,686.6669921875],"ymouse":[815.3330078125,815.3330078125,815.3330078125,815.3330078125,815.3330078125,815.3330078125,815.3330078125,815,815,815,815,815,815,815,815,815,815,815,815,815,815,815,815,815,816,816,816,816,816,816,816,816,816,816,815,815,815,815,815,815,815,815,815,815,815,815,815,815,815,815,815,815,815,815,816,816,816,816,816,816,816,816,816,816,816.6669921875,816.6669921875,816.6669921875,816.6669921875,816.6669921875,816.6669921875,816.6669921875,816.6669921875,816.6669921875,816.6669921875,814,814,814,814,814,814,814,814,814,814,816,816,816,816,816,816,816,816,816,816,816,816,816,816,816,816,816,816,816,816,815.3330078125,815.3330078125,815.3330078125,815.3330078125,815.3330078125,815.3330078125,815.3330078125,815.3330078125,815.3330078125,815.3330078125,817.3330078125,817.3330078125,817.3330078125,817.3330078125,817.3330078125,817.3330078125,817.3330078125,817.3330078125,817.3330078125,817.3330078125,815.3330078125,815.3330078125,815.3330078125,815.3330078125,815.3330078125,815.3330078125,815.3330078125,815.3330078125,815.3330078125,815.3330078125,815.3330078125,815.3330078125,815.3330078125,815.3330078125,815.3330078125,815.3330078125,815.3330078125,815.3330078125,815.3330078125,815.3330078125,814.6669921875,814.6669921875,814.6669921875,814.6669921875,814.6669921875,814.6669921875,814.6669921875,814.6669921875,814.6669921875,814.6669921875,814,814,814,814,814,814,814,814,814,814,813.3330078125,813.3330078125,813.3330078125,813.3330078125,813.3330078125,813.3330078125,813.3330078125,813.3330078125,813.3330078125,813.3330078125,813.3330078125,813.3330078125,813.3330078125,813.3330078125,813.3330078125,813.3330078125,813.3330078125,813.3330078125,813,813,813,813,813,813,813,813,813,813,813,813,813,813,812,812,812,812,812,812,812,812,812,812,812.6669921875,812.6669921875,812.6669921875,812.6669921875,812.6669921875,812.6669921875,812.6669921875,812.6669921875,812.6669921875,812.6669921875,812,812,812,812,812,812,812,812,812,812,812,812,812,812,812,812,812,812,812,812,812,812,812,812,812,812,812,812,812,812,812,812,812,812,812,812,811.3330078125,811.3330078125,811.3330078125,811.3330078125,811.3330078125,811.3330078125,811.3330078125,811.3330078125,811.3330078125,811.3330078125,811.3330078125,811.3330078125,811.3330078125,811.3330078125,811.3330078125,811.3330078125,811.3330078125,811.3330078125,811.3330078125,811.3330078125,812,812,812,812,812,812,812,812,812,812,810,810,810,810,810,810,810,810,810,810,811.3330078125,811.3330078125,811.3330078125,811.3330078125,811.3330078125,811.3330078125,811.3330078125,811.3330078125,811.3330078125,811.3330078125,810.6669921875,810.6669921875,810.6669921875,810.6669921875,810.6669921875,810.6669921875,810.6669921875,810.6669921875,810.6669921875,810.6669921875,811,811,811,811,811,811,811,811,811,811,811,811,811,811,811.3330078125,811.3330078125,811.3330078125,811.3330078125,811.3330078125,811.3330078125,811.3330078125,811.3330078125,811.3330078125,810,810,810,810,810,810,810,810,810,810,811,811,811,811,811,811,811,811,811,811,811.3330078125,811.3330078125,811.3330078125,811.3330078125,811.3330078125,811.3330078125,811.3330078125,811.3330078125,811.3330078125,811.3330078125,811,811,811,811,811,811,811,811,811,811,811.3330078125,811.3330078125,811.3330078125,811.3330078125,811.3330078125,811.3330078125,811.3330078125,811.3330078125,811.3330078125,811.3330078125,810.6669921875,810.6669921875,810.6669921875,810.6669921875,810.6669921875,810.6669921875,810.6669921875,810.6669921875,810.6669921875,810.6669921875,810.6669921875,810.6669921875,810.6669921875,810.6669921875,810.6669921875,810,810,810,810,810,810,810,810,810,810,810,810,810,810,810,810,810,810,810,810,810,807,807,807,807,807,807,807,807,807,807.3330078125,807.3330078125,807.3330078125,807.3330078125,807.3330078125,807.3330078125,807.3330078125,807.3330078125,807.3330078125,807.3330078125,807.3330078125,809.3330078125,809.3330078125,810,810,810,810,810,810,810,810,808,808,808,808,808,808,808,808,808,808,809.3330078125,809.3330078125,809.3330078125,809.3330078125,809.3330078125,809.3330078125,809.3330078125,809.3330078125,809.3330078125,809.3330078125,808,808,808,808,808,808,808,808,808,808,808.6669921875,808.6669921875,808.6669921875,808.6669921875,808.6669921875,808.6669921875,808.6669921875,808.6669921875,808.6669921875,808.6669921875,809.3330078125,809.3330078125,809.3330078125,809.3330078125,809.3330078125,809.3330078125,809.3330078125,809.3330078125,809.3330078125,809.3330078125,809.3330078125,809.3330078125,809.3330078125,809.3330078125,809.3330078125,809.3330078125,809.3330078125,809.3330078125,809.3330078125,809.3330078125,808.6669921875,808.6669921875,808.6669921875,808.6669921875,808.6669921875,808.6669921875,808.6669921875,808.6669921875,808.6669921875,808.6669921875,808,808,808,808,808,808,808,808,808,808,808.6669921875,808.6669921875,808.6669921875,808.6669921875,808.6669921875,808.6669921875,808.6669921875,808.6669921875,808.6669921875,808.6669921875,808.6669921875,806,806,806,806,806,806,806,806,806,804.6669921875,804.6669921875,804.6669921875,804.6669921875,804.6669921875,804.6669921875,804.6669921875,804.6669921875,804.6669921875,804.6669921875,806,806,806,806,806,806,806,806,806,806,806,806,806,806,806,806,806,806,806,806,806,805,805,805,805,805,805,805,805,805,805,806,806,806,806,806,806,806,806,806,806,805.3330078125,805.3330078125,805.3330078125,805.3330078125,805.3330078125,805.3330078125,805.3330078125,805.3330078125,805.3330078125,805.3330078125,805.3330078125,805.3330078125,805.3330078125,805.3330078125,805.3330078125,805.3330078125,805.3330078125,805.3330078125,805.3330078125,805.3330078125,806,806,806,806,806,806,806,806,806,806,805.3330078125,805.3330078125,805.3330078125,805.3330078125,805.3330078125,805.3330078125,805.3330078125,805.3330078125,805.3330078125,805.3330078125,805.3330078125,805.3330078125,805.3330078125,805.3330078125,805.3330078125,805.3330078125,806,806,806,806,806,806,806,806,806,806,805.3330078125,805.3330078125,805.3330078125,805.3330078125,805.3330078125,805.3330078125,805.3330078125,805.3330078125,805.3330078125,805.3330078125,804,804,804,804,804,804,804,804,802,801.3330078125,800,800,800,800,784,784,784,680,604,489,408,324,283.3330078125,214,123.3330078125,76.66699981689453],"timestamp_mouse":[13,41,53,73,93,113,133,153,173,193,213,233,254,273,293,313,333,354,373,394,414,433,453,473,493,513,533,553,573,593,613,633,653,673,693,713,733,753,773,793,813,834,853,873,893,913,933,953,973,993,1013,1033,1053,1073,1093,1113,1133,1153,1174,1193,1213,1233,1253,1273,1293,1313,1333,1354,1373,1393,1413,1433,1453,1473,1493,1513,1533,1553,1574,1593,1614,1633,1653,1673,1693,1713,1733,1753,1773,1794,1813,1834,1854,1873,1893,1914,1933,1953,1973,1994,2014,2033,2053,2073,2093,2113,2133,2153,2173,2193,2213,2233,2253,2273,2293,2313,2333,2353,2374,2393,2413,2433,2453,2473,2493,2513,2533,2553,2573,2593,2614,2633,2653,2673,2693,2714,2734,2753,2773,2793,2813,2833,2853,2873,2893,2913,2933,2953,2973,2993,3013,3033,3053,3073,3093,3114,3133,3153,3173,3193,3213,3233,3253,3274,3293,3313,3333,3353,3373,3393,3413,3433,3453,3473,3493,3513,3533,3553,3573,3593,3614,3634,3653,3673,3693,3713,3733,3753,3773,3793,3813,3833,3854,3873,3893,3914,3933,3954,3973,3993,4013,4033,4053,4073,4093,4113,4134,4153,4173,4193,4214,4233,4253,4273,4293,4313,4334,4353,4373,4393,4413,4433,4453,4473,4493,4514,4533,4553,4574,4593,4613,4633,4653,4673,4693,4713,4733,4753,4773,4793,4813,4833,4853,4873,4893,4913,4933,4953,4973,4993,5013,5033,5053,5073,5094,5113,5133,5153,5173,5194,5213,5233,5253,5273,5293,5313,5333,5353,5373,5393,5413,5433,5453,5473,5493,5513,5533,5553,5573,5594,5613,5633,5653,5673,5693,5713,5734,5754,5773,5793,5813,5833,5853,5873,5893,5913,5933,5953,5973,5993,6013,6033,6053,6073,6093,6113,6133,6153,6173,6194,6213,6233,6253,6273,6293,6313,6334,6353,6373,6394,6413,6433,6453,6474,6493,6513,6533,6553,6573,6593,6613,6633,6653,6673,6693,6713,6733,6754,6774,6793,6813,6833,6853,6874,6893,6913,6933,6953,6973,6993,7013,7033,7053,7073,7093,7113,7133,7153,7173,7194,7213,7233,7254,7273,7293,7313,7333,7353,7373,7394,7413,7433,7453,7473,7493,7513,7533,7553,7573,7593,7613,7633,7653,7673,7693,7713,7733,7753,7773,7793,7813,7833,7853,7873,7893,7913,7933,7953,7973,7993,8015,8033,8053,8073,8093,8113,8133,8154,8174,8193,8214,8234,8253,8274,8294,8315,8333,8353,8373,8393,8413,8433,8453,8474,8493,8513,8534,8553,8573,8593,8615,8634,8653,8673,8693,8713,8733,8753,8773,8793,8813,8834,8854,8874,8893,8913,8933,8953,8973,8993,9013,9034,9053,9073,9093,9114,9133,9153,9173,9193,9213,9233,9254,9273,9293,9313,9333,9353,9373,9393,9413,9433,9453,9473,9493,9513,9533,9553,9573,9593,9613,9633,9653,9673,9693,9713,9733,9753,9773,9793,9813,9833,9854,9873,9893,9913,9933,9953,9973,9994,10013,10033,10053,10073,10093,10113,10133,10153,10173,10193,10213,10233,10253,10273,10294,10313,10333,10353,10373,10394,10414,10433,10454,10473,10493,10513,10533,10553,10573,10594,10613,10636,10653,10673,10693,10713,10733,10753,10774,10793,10813,10833,10853,10874,10893,10913,10933,10953,10973,10994,11013,11034,11053,11073,11093,11113,11133,11154,11173,11193,11213,11236,11253,11273,11293,11313,11333,11353,11373,11393,11413,11435,11453,11473,11493,11513,11534,11553,11573,11593,11613,11634,11653,11673,11693,11714,11733,11753,11773,11793,11814,11833,11853,11874,11893,11913,11934,11954,11973,11993,12014,12034,12053,12073,12093,12113,12133,12153,12173,12193,12213,12233,12253,12273,12293,12313,12333,12353,12373,12394,12413,12433,12454,12473,12493,12513,12534,12553,12574,12593,12614,12634,12653,12674,12693,12713,12734,12753,12773,12793,12813,12833,12853,12873,12894,12913,12933,12953,12973,12993,13014,13033,13053,13073,13094,13114,13133,13154,13173,13194,13213,13233,13253,13273,13293,13313,13333,13353,13373,13393,13413,13434,13454,13473,13493,13513,13533,13554,13574,13593,13613,13633,13654,13673,13693,13713,13733,13754,13773,13793,13814,13833,13854,13873],"xSR":350,"ySR":768,"xT1":30,"yT1":0,"xT2":670,"yT2":0,"toosoon":0,"cond_shown":"Incongruent","ratio_trial":500,"L_num":7,"L_den":21,"R_num":5,"R_den":6,"correct_side":2,"subjID":"17","gender":"No_gender","school":"No_school","age":"No_age"},{"start_time":1549308994991,"click_time":1549308997066,"finger_time":1549308996845,"fix_duration":265.8480809421591,"trial":2,"RT":1854,"MT":221,"sideResp":1,"stimulus":[],"xmouse":[400,400,400,400,400,400,400,400,403.3330078125,403.3330078125,403.3330078125,403.3330078125,403.3330078125,403.3330078125,403.3330078125,403.3330078125,403.3330078125,404,404,404,404,404,404,404,404,404,404,404,404,404,404,404,404,404,404,404,404,404,404,404,404,404,404,404,404,404,404,404,404.6669921875,404.6669921875,404.6669921875,404.6669921875,404.6669921875,404.6669921875,404.6669921875,404.6669921875,404.6669921875,404.6669921875,405,405,405,405,405,406,406,406,406,406,406.6669921875,406.6669921875,406.6669921875,406.6669921875,406.6669921875,406.6669921875,406.6669921875,406.6669921875,406.6669921875,406.6669921875,406.6669921875,406.6669921875,406.6669921875,406.6669921875,406.6669921875,407.3330078125,406.6669921875,406.6669921875,406.6669921875,406.6669921875,406.6669921875,406.6669921875,406.6669921875,406.6669921875,363.3330078125,326,296,281.3330078125,252,238,188.66700744628906,176.66700744628906,152,142,126,110.66699981689453],"ymouse":[818,818,818,818,818,818,818,818,824.6669921875,824.6669921875,824.6669921875,824.6669921875,824.6669921875,824.6669921875,824.6669921875,824.6669921875,824.6669921875,824,824,824,824,824,824,824,824,824,824,824,824,824,824,824,824,824,824,824,824,824,824,824,824,824,824,824,824,824,824,824,825.3330078125,825.3330078125,825.3330078125,825.3330078125,825.3330078125,825.3330078125,825.3330078125,825.3330078125,825.3330078125,825.3330078125,826,826,826,826,826,826,826,826,826,826,827.3330078125,827.3330078125,827.3330078125,827.3330078125,827.3330078125,827.3330078125,827.3330078125,827.3330078125,827.3330078125,827.3330078125,827.3330078125,827.3330078125,827.3330078125,827.3330078125,827.3330078125,827.3330078125,827.3330078125,827.3330078125,827.3330078125,826.6669921875,826.6669921875,826.6669921875,826.6669921875,826.6669921875,706.6669921875,618,557,524.6669921875,458,426,294.6669921875,261.3330078125,200,172,115,36.66699981689453],"timestamp_mouse":[13,40,53,73,93,113,133,153,173,193,213,233,254,273,293,313,333,355,373,393,413,434,453,473,493,513,534,553,573,593,613,634,653,673,693,713,733,753,773,793,813,834,853,873,894,913,933,953,973,993,1013,1033,1053,1073,1093,1113,1133,1153,1174,1193,1213,1234,1253,1273,1293,1313,1333,1353,1374,1393,1413,1433,1454,1473,1493,1513,1533,1553,1573,1593,1613,1633,1654,1673,1694,1713,1734,1753,1774,1793,1813,1834,1854,1873,1893,1913,1934,1953,1974,1993,2013,2033,2053,2074],"xSR":350,"ySR":768,"xT1":30,"yT1":0,"xT2":670,"yT2":0,"toosoon":0,"cond_shown":"Equal","ratio_trial":100,"L_num":6,"L_den":10,"R_num":6,"R_den":12,"correct_side":1,"subjID":"17","gender":"No_gender","school":"No_school","age":"No_age"},{"start_time":1549309000371,"click_time":1549309002385,"finger_time":1549309002104,"fix_duration":1204.6399625166448,"trial":3,"RT":1733,"MT":281,"sideResp":2,"stimulus":[],"xmouse":[413,413,413,413,413,413,413,413,413.3330078125,413.3330078125,413.3330078125,413.3330078125,413.3330078125,413.3330078125,413.3330078125,413.3330078125,413.3330078125,413.3330078125,414,414,414,414,414,414,414.6669921875,414.6669921875,414.6669921875,414,414,414,414.6669921875,414.6669921875,414.6669921875,414.6669921875,414.6669921875,414.6669921875,415.3330078125,415.3330078125,415.3330078125,415.3330078125,415.3330078125,415.3330078125,415.3330078125,415.3330078125,415.3330078125,415.3330078125,415.3330078125,415.3330078125,415.3330078125,415.3330078125,415.3330078125,415.3330078125,415.3330078125,415.3330078125,415.3330078125,415.3330078125,415.3330078125,415.3330078125,415.3330078125,415.3330078125,415.3330078125,415.3330078125,415.3330078125,415.3330078125,415,415,415.3330078125,415.3330078125,415.3330078125,415.3330078125,415.3330078125,415.3330078125,416,416,416,416,416,416,416,416,416.6669921875,416,416,416,416,416,446,454.6669921875,475,497.3330078125,508.6669921875,544,572,598,612.6669921875,637.3330078125,667.3330078125,685.3330078125,694,712,723.3330078125],"ymouse":[818,818,818,818,818,818,818,818,817.3330078125,817.3330078125,817.3330078125,817.3330078125,817.3330078125,817.3330078125,817.3330078125,817.3330078125,817.3330078125,817.3330078125,816,816,816,816,816,816,817.3330078125,817.3330078125,817.3330078125,818,818,818,818.6669921875,818.6669921875,818.6669921875,818.6669921875,818.6669921875,818.6669921875,818.6669921875,818.6669921875,818.6669921875,818.6669921875,818.6669921875,818.6669921875,818.6669921875,818.6669921875,818.6669921875,818.6669921875,818.6669921875,818.6669921875,818.6669921875,818.6669921875,818.6669921875,818.6669921875,818.6669921875,818.6669921875,818.6669921875,819.3330078125,819.3330078125,819.3330078125,819.3330078125,819.3330078125,819.3330078125,819.3330078125,819.3330078125,819.3330078125,820,820,819.3330078125,819.3330078125,819.3330078125,819.3330078125,819.3330078125,819.3330078125,819,819,819,819,819,818,818,817,816.6669921875,814,814,814,814,814,674,649.3330078125,594,534.6669921875,505.3330078125,419,362,308,282.6669921875,234.66700744628906,174.66700744628906,140.66700744628906,126,101,82.66699981689453],"timestamp_mouse":[32,33,53,73,93,113,133,153,173,193,213,233,253,273,293,313,333,353,373,393,414,433,453,473,493,513,533,553,573,593,614,633,653,673,693,713,733,753,773,793,813,833,853,873,893,913,933,953,973,994,1014,1033,1053,1073,1094,1113,1133,1153,1173,1193,1213,1233,1253,1273,1293,1313,1334,1353,1373,1394,1414,1433,1453,1473,1493,1513,1535,1553,1573,1593,1613,1634,1653,1673,1693,1713,1733,1753,1773,1793,1813,1835,1854,1873,1893,1913,1934,1953,1973,1993,2013],"xSR":350,"ySR":768,"xT1":30,"yT1":0,"xT2":670,"yT2":0,"toosoon":0,"cond_shown":"Congruent","ratio_trial":100,"L_num":6,"L_den":20,"R_num":5,"R_den":25,"correct_side":1,"subjID":"17","gender":"No_gender","school":"No_school","age":"No_age"},{"start_time":1549309006349,"click_time":1549309008225,"finger_time":1549309007904,"fix_duration":664.2368647549334,"trial":4,"RT":1555,"MT":321,"sideResp":1,"stimulus":[],"xmouse":[392,392,392,393,394,394,394,394,394,394,394.6669921875,394.6669921875,394.6669921875,394.6669921875,394,394,394,394,394,395,395,395,395,395,395,395.3330078125,395.3330078125,395.3330078125,395.3330078125,395.3330078125,395.3330078125,395.3330078125,395.3330078125,395.3330078125,395.3330078125,395.3330078125,395.3330078125,395.3330078125,395.3330078125,395,396,396,396,396,396,396,396,396,396,396,396,396,396,396,396,396,396,396,396,396,396,396,396,396,396,396,396,396,396,396,396,396,396,396,379,376,376,352.6669921875,346.6669921875,321.3330078125,313.3330078125,296,287.3330078125,268,240,222,212,193.33299255371094,174,146.66700744628906,138.66700744628906,124,112,106.66699981689453],"ymouse":[826,826,826,826,826,826,826,826,826,826,826.6669921875,826.6669921875,826.6669921875,826.6669921875,826,826,826,826,826,826,826,826,826,826,826,826.6669921875,826.6669921875,826.6669921875,826.6669921875,826.6669921875,826.6669921875,826.6669921875,826.6669921875,826.6669921875,826.6669921875,826.6669921875,826.6669921875,826.6669921875,826.6669921875,826,826,826,826,826,826,826,826,826,826,826,826,826,826,826,826,826,826,826,826,825,825,825,826,826,826,826,827,827,827,827,827,827,827,827,798,792,792,738.6669921875,721.3330078125,645.3330078125,623.3330078125,577,553.3330078125,502,426,376,350,299.3330078125,254,192.66700744628906,175.33299255371094,141,112,99.33300018310547],"timestamp_mouse":[29,36,56,77,95,115,135,155,175,195,215,235,255,276,296,315,335,355,375,395,415,435,455,475,495,516,535,555,575,595,615,635,655,675,695,715,735,755,775,795,815,835,855,875,895,915,935,955,975,996,1015,1035,1055,1076,1097,1115,1135,1155,1175,1196,1215,1236,1255,1275,1295,1315,1335,1356,1375,1398,1415,1436,1455,1475,1495,1515,1535,1555,1575,1597,1616,1635,1656,1676,1695,1715,1735,1755,1776,1795,1815,1835,1855,1875],"xSR":350,"ySR":768,"xT1":30,"yT1":0,"xT2":670,"yT2":0,"toosoon":0,"cond_shown":"Incongruent","ratio_trial":100,"L_num":1,"L_den":2,"R_num":8,"R_den":20,"correct_side":1,"subjID":"17","gender":"No_gender","school":"No_school","age":"No_age"},{"start_time":1549309010523,"click_time":1549309012345,"finger_time":1549309012045,"fix_duration":257.8805292475149,"trial":5,"RT":1522,"MT":300,"sideResp":1,"stimulus":[],"xmouse":[394.6669921875,394.6669921875,394.6669921875,394.6669921875,394.6669921875,394.6669921875,394.6669921875,394.6669921875,395.3330078125,395.3330078125,395.3330078125,396,396.6669921875,397,397,398,398,398.6669921875,398.6669921875,398.6669921875,398.6669921875,398.6669921875,398.6669921875,398.6669921875,398.6669921875,398.6669921875,398.6669921875,400,400,400,400,400.6669921875,400.6669921875,400.6669921875,400.6669921875,400.6669921875,400.6669921875,400.6669921875,400.6669921875,400.6669921875,400.6669921875,400.6669921875,400.6669921875,400.6669921875,400.6669921875,401.3330078125,401.3330078125,401.3330078125,401.3330078125,401.3330078125,401.3330078125,401.3330078125,401.3330078125,401.3330078125,401.3330078125,401.3330078125,401.3330078125,401,401,400,400,400,400,400,400,400,400,400,400,391.3330078125,391.3330078125,391.3330078125,379.3330078125,379.3330078125,379.3330078125,379.3330078125,350,336,312,293.3330078125,284.6669921875,266.6669921875,240,225.33299255371094,218,204.66700744628906,198,186,166.66700744628906,151.33299255371094,144,128],"ymouse":[826.6669921875,826.6669921875,826.6669921875,826.6669921875,826.6669921875,826.6669921875,826.6669921875,826.6669921875,826.6669921875,826.6669921875,826.6669921875,827,827.3330078125,828,828,827,827,827.3330078125,827.3330078125,827.3330078125,827.3330078125,827.3330078125,827.3330078125,827.3330078125,827.3330078125,827.3330078125,827.3330078125,828,828,828,828,828.6669921875,828.6669921875,828.6669921875,828.6669921875,828.6669921875,828.6669921875,828.6669921875,828.6669921875,828.6669921875,828.6669921875,828.6669921875,828.6669921875,828.6669921875,828.6669921875,828.6669921875,828.6669921875,828.6669921875,828.6669921875,828.6669921875,828.6669921875,828.6669921875,828.6669921875,828.6669921875,828.6669921875,828.6669921875,828.6669921875,828,828,828,828,828,828,828,828,828,828,828,828,818.6669921875,818.6669921875,818.6669921875,804.6669921875,804.6669921875,804.6669921875,804.6669921875,708,668,604,559.3330078125,535.3330078125,488.6669921875,419,374.6669921875,352,303.3330078125,280,234,171.33299255371094,135.33299255371094,118,86],"timestamp_mouse":[6,21,41,61,81,102,122,141,161,181,202,221,242,261,281,301,321,341,361,382,401,421,441,461,481,502,522,541,561,581,601,622,642,661,681,701,721,742,761,781,801,822,841,861,881,901,921,941,961,982,1001,1021,1042,1061,1081,1101,1122,1142,1161,1181,1201,1221,1241,1261,1281,1301,1321,1341,1361,1381,1401,1421,1443,1462,1481,1501,1522,1541,1561,1581,1601,1621,1643,1661,1681,1701,1721,1741,1761,1781,1801,1822],"xSR":350,"ySR":768,"xT1":30,"yT1":0,"xT2":670,"yT2":0,"toosoon":0,"cond_shown":"Incongruent","ratio_trial":200,"L_num":3,"L_den":4,"R_num":11,"R_den":20,"correct_side":1,"subjID":"17","gender":"No_gender","school":"No_school","age":"No_age"},{"start_time":1549309014742,"click_time":1549309016485,"finger_time":1549309016144,"fix_duration":394.78994745167904,"trial":6,"RT":1402,"MT":341,"sideResp":1,"stimulus":[],"xmouse":[408,408,408,408,408,408,408,408,408,408,408,408,408,408,408,408,408,408,408,408,408,408,408,408,408,408,408,408,408,408,408,408,408,408,408,408,408,408,408,408,408,408,408,408,408,408,408,408,408,408,408,408,408,408,408,408,408,408,408,408,408,408,408,408,408,408.6669921875,407,407,407,407,377.3330078125,368,352,329.3330078125,314.6669921875,307,289,269,236,217,207.33299255371094,188,178,144,137,124,117.33300018310547,103.33300018310547],"ymouse":[820,820,820,820,820,820,820,820,820,820,820,820,820,820,820,820,820,820,820,820,820,820,820,820,820,820,820,820,820,820,820,820,820,820,820,820,820,820,820,820,820,820,820,820,820,820,820,820,820,820,820,820,820,820,820,820,820,820,820,820,820,820,820,820,820,811.3330078125,810,810,810,810,746.6669921875,732,705,657.3330078125,618.6669921875,598,556,516,448,400,375.3330078125,326,304,207,184,142,123.3330078125,89.33300018310547],"timestamp_mouse":[6,27,42,62,82,102,122,143,162,182,203,222,242,262,282,302,322,342,363,383,402,422,442,462,482,502,522,542,562,582,602,622,642,662,682,702,722,742,763,782,803,822,842,862,882,902,922,942,962,982,1002,1023,1043,1062,1082,1102,1122,1142,1162,1182,1202,1222,1242,1262,1282,1302,1323,1342,1362,1382,1402,1422,1442,1462,1482,1502,1522,1542,1562,1582,1603,1622,1642,1663,1683,1702,1722,1742],"xSR":350,"ySR":768,"xT1":30,"yT1":0,"xT2":670,"yT2":0,"toosoon":0,"cond_shown":"Incongruent","ratio_trial":200,"L_num":3,"L_den":4,"R_num":11,"R_den":20,"correct_side":1,"subjID":"17","gender":"No_gender","school":"No_school","age":"No_age"},{"start_time":1549309019453,"click_time":1549309021485,"finger_time":1549309021164,"fix_duration":1287.4407925174173,"trial":7,"RT":1711,"MT":321,"sideResp":1,"stimulus":[],"xmouse":[397,397,397,397,397,397,397,398,398,398,398,398,398,398,398,398,398,398,398,398,398,398,398,398,398,398,398,398.6669921875,398.6669921875,398.6669921875,398.6669921875,398.6669921875,398.6669921875,398.6669921875,398.6669921875,398.6669921875,398.6669921875,398.6669921875,398.6669921875,398.6669921875,398.6669921875,398.6669921875,398.6669921875,398.6669921875,398.6669921875,398.6669921875,398.6669921875,398.6669921875,398.6669921875,398.6669921875,399,399,399,399,399,399,399,399,399,399,399,399,399,399,399,399,399,399,399,399,400,400,400,400,400,400,400,400,400,400,396,396,396,396,396,382,366,356,336,308,289.3330078125,280,261.3330078125,240.66700744628906,214,206.66700744628906,191.33299255371094,174.66700744628906,166,139.33299255371094,123.3330078125,110.66699981689453],"ymouse":[822,822,822,822,822,822,822,818,818,818,818,818,818,818,818,818,818,819,819,819,819,819,819,819,819,819,819,821.3330078125,821.3330078125,821.3330078125,821.3330078125,821.3330078125,821.3330078125,821.3330078125,821.3330078125,821.3330078125,821.3330078125,821.3330078125,821.3330078125,821.3330078125,820.6669921875,820.6669921875,820.6669921875,820.6669921875,820.6669921875,820.6669921875,820.6669921875,820.6669921875,820.6669921875,820.6669921875,820,820,820,820,820,820,820,820,820,820,820,820,820,820,820,820,820,820,820,820,819,819,819,819,819,819,819,819,819,819,818,818,818,818,818,767,723,702,660,594,543.3330078125,516,462.6669921875,408.6669921875,330,305.3330078125,256.6669921875,212.66700744628906,193,145.33299255371094,117.3330078125,92.66699981689453],"timestamp_mouse":[11,37,51,71,91,112,132,151,171,191,211,231,251,271,291,311,331,352,371,391,412,431,452,472,491,511,531,551,571,592,612,631,651,671,691,711,731,751,771,791,812,832,852,872,891,911,931,951,971,991,1011,1031,1052,1071,1091,1111,1132,1152,1172,1191,1211,1231,1252,1271,1291,1311,1331,1351,1371,1391,1411,1431,1451,1472,1491,1511,1531,1551,1571,1592,1611,1631,1651,1671,1691,1711,1731,1751,1772,1791,1811,1831,1851,1871,1891,1911,1931,1952,1972,1991,2012,2031],"xSR":350,"ySR":768,"xT1":30,"yT1":0,"xT2":670,"yT2":0,"toosoon":0,"cond_shown":"Equal","ratio_trial":500,"L_num":6,"L_den":24,"R_num":6,"R_den":8,"correct_side":2,"subjID":"17","gender":"No_gender","school":"No_school","age":"No_age"},{"start_time":1549309024325,"click_time":1549309025944,"finger_time":1549309025667,"fix_duration":560.1974643138102,"trial":8,"RT":1342,"MT":277,"sideResp":2,"stimulus":[],"xmouse":[393.3330078125,393.3330078125,393.3330078125,393.3330078125,393,393,393,393,393,392,392,392,392,392,392,392,392,392,392,392,392.6669921875,392.6669921875,392.6669921875,392.6669921875,392.6669921875,392.6669921875,392.6669921875,392.6669921875,392.6669921875,392.6669921875,391.3330078125,391.3330078125,391.3330078125,391.3330078125,391.3330078125,391.3330078125,391.3330078125,391.3330078125,391.3330078125,391.3330078125,392,392,392,392,392,392,392,392,392,392,393,393,393,393,393,393,393,393,393,393,390,390,390,390,390,390,441.3330078125,472.6669921875,502,516,546,581.3330078125,595.3330078125,601.3330078125,614.6669921875,631,655.3330078125,663.3330078125,678,691,698],"ymouse":[827.3330078125,827.3330078125,827.3330078125,827.3330078125,828,828,828,828,828,828,828,828,828,828,828,828,828,828,828,828,827.3330078125,827.3330078125,827.3330078125,827.3330078125,827.3330078125,827.3330078125,827.3330078125,827.3330078125,827.3330078125,827.3330078125,827.3330078125,827.3330078125,827.3330078125,827.3330078125,827.3330078125,827.3330078125,827.3330078125,827.3330078125,827.3330078125,827.3330078125,827,827,827,827,827,827,827,827,827,827,828,828,828,828,828,828,828,828,828,828,834,834,834,834,834,834,713.3330078125,650.6669921875,590,558,495,409.3330078125,361.3330078125,340.6669921875,292.6669921875,248,186.66700744628906,168.66700744628906,134,104,90],"timestamp_mouse":[20,41,59,79,99,119,139,160,179,199,219,239,259,279,302,319,339,360,379,399,419,439,459,479,499,519,539,560,579,599,619,639,660,679,699,719,740,760,779,799,819,839,859,879,899,919,939,959,979,1000,1019,1040,1060,1079,1099,1119,1139,1159,1179,1199,1219,1239,1259,1279,1299,1320,1342,1361,1379,1399,1419,1441,1459,1479,1499,1519,1541,1560,1580,1599,1619],"xSR":350,"ySR":768,"xT1":30,"yT1":0,"xT2":670,"yT2":0,"toosoon":0,"cond_shown":"Congruent","ratio_trial":100,"L_num":8,"L_den":16,"R_num":2,"R_den":5,"correct_side":1,"subjID":"17","gender":"No_gender","school":"No_school","age":"No_age"},{"start_time":1549309030301,"click_time":1549309032105,"finger_time":1549309031806,"fix_duration":694.9218773857344,"trial":9,"RT":1505,"MT":299,"sideResp":2,"stimulus":[],"xmouse":[400,400,400,400,400,400,400,400,400,400,400,400,400,400,400,400,400,400,400,401.3330078125,401.3330078125,401.3330078125,401.3330078125,401.3330078125,401.3330078125,401.3330078125,401.3330078125,401.3330078125,401.3330078125,401.3330078125,401.3330078125,401.3330078125,401.3330078125,401.3330078125,401.3330078125,401.3330078125,401.3330078125,401.3330078125,401.3330078125,401.3330078125,401.3330078125,401.3330078125,401.3330078125,401.3330078125,401.3330078125,401.3330078125,401.3330078125,401.3330078125,401.3330078125,401.3330078125,401.3330078125,401.3330078125,401.3330078125,402,402,402,402.6669921875,402.6669921875,402.6669921875,402.6669921875,402.6669921875,402.6669921875,403.3330078125,402.6669921875,402.6669921875,402.6669921875,402.6669921875,402.6669921875,402.6669921875,402.6669921875,404,404,405.3330078125,405.3330078125,405.3330078125,472,484,508,522,547,571.3330078125,599.3330078125,614,621.3330078125,636,663.3330078125,681.3330078125,687.3330078125,698,702.6669921875,710],"ymouse":[826,826,826,826,826,826,826,826,826,826,826,826,826,826,826,826,826,826,826,827.3330078125,827.3330078125,827.3330078125,827.3330078125,827.3330078125,827.3330078125,827.3330078125,827.3330078125,827.3330078125,827.3330078125,827.3330078125,827.3330078125,827.3330078125,827.3330078125,827.3330078125,827.3330078125,827.3330078125,827.3330078125,827.3330078125,827.3330078125,827.3330078125,827.3330078125,827.3330078125,827.3330078125,827.3330078125,827.3330078125,827.3330078125,827.3330078125,827.3330078125,827.3330078125,827.3330078125,827.3330078125,827.3330078125,827.3330078125,827,827,827,827.3330078125,827.3330078125,827.3330078125,827.3330078125,827.3330078125,827.3330078125,827.3330078125,827.3330078125,827.3330078125,826.6669921875,826.6669921875,826.6669921875,826.6669921875,826.6669921875,821,818,814.6669921875,814.6669921875,814.6669921875,684,662,616,590,538,485.3330078125,411.3330078125,362,338.6669921875,290,221.33299255371094,177.33299255371094,158.66700744628906,124,110.66699981689453,87],"timestamp_mouse":[9,38,43,63,83,103,123,143,163,183,203,223,243,263,283,304,323,343,363,383,403,423,443,463,483,503,523,543,564,583,603,624,644,664,683,704,723,743,764,783,803,823,844,863,883,903,923,943,963,983,1004,1023,1043,1063,1083,1103,1123,1143,1164,1184,1203,1223,1243,1264,1283,1303,1324,1343,1363,1383,1405,1423,1443,1463,1483,1505,1523,1543,1563,1583,1603,1623,1643,1663,1683,1705,1723,1743,1763,1784,1803],"xSR":350,"ySR":768,"xT1":30,"yT1":0,"xT2":670,"yT2":0,"toosoon":0,"cond_shown":"Congruent","ratio_trial":500,"L_num":20,"L_den":24,"R_num":7,"R_den":21,"correct_side":1,"subjID":"17","gender":"No_gender","school":"No_school","age":"No_age"},{"start_time":1549309036346,"click_time":1549309039266,"finger_time":1549309038984,"fix_duration":1437.3986505940209,"trial":10,"RT":2638,"MT":282,"sideResp":2,"stimulus":[],"xmouse":[403.3330078125,403.3330078125,403.3330078125,403.3330078125,405,405,405,405,405,406,406,406,406,406,405,405,405,405,405,405,405,405,405,405,404,404,404,404,404,404,404,404,404,404,404.6669921875,404.6669921875,404.6669921875,404.6669921875,404.6669921875,404.6669921875,404.6669921875,404.6669921875,404.6669921875,404.6669921875,404,404,404,404,404,404,404,404,404,404,404,404,404,404,404,404,404,404,404,404,404,404,404,404,404,404,404,404,404,404,404,404,404,404,404,404,404,404,404,404,404,404,404,404,404,404,404,404,404,404,404,404,404,404,404,404,404.6669921875,404.6669921875,404.6669921875,404.6669921875,404.6669921875,404.6669921875,404.6669921875,404.6669921875,404.6669921875,404.6669921875,404.6669921875,404.6669921875,406,406,406,406,406,406,406,406,406,406,407.3330078125,407.3330078125,407.3330078125,408.6669921875,408.6669921875,408.6669921875,408.6669921875,408.6669921875,416,420.6669921875,433,439,452,480,510.6669921875,540.6669921875,554.6669921875,580.6669921875,622.6669921875,654,668,691.3330078125,701.3330078125,734.6669921875],"ymouse":[805.3330078125,805.3330078125,805.3330078125,805.3330078125,808,808,808,808,808,810,810,810,810,810,808,808,808,808,808,808,808,808,808,808,804,804,804,804,804,804,804,804,804,804,803.3330078125,803.3330078125,803.3330078125,803.3330078125,803.3330078125,803.3330078125,803.3330078125,803.3330078125,803.3330078125,803.3330078125,803,803,803,803,803,803,803,803,803,803,803,803,803,803,803,803,803,803,803,803,803,803,803,803,803,803,803,803,803,803,803,803,803,803,803,803,803,803,802,802,802,802,802,802,802,802,802,802,800,800,800,800,800,800,800,800,798.6669921875,798.6669921875,799.3330078125,799.3330078125,799.3330078125,799.3330078125,799.3330078125,799.3330078125,799.3330078125,799.3330078125,799.3330078125,799.3330078125,800,800,800,800,800,800,800,800,800,800,800.6669921875,800.6669921875,800.6669921875,799.3330078125,799.3330078125,799.3330078125,799.3330078125,799.3330078125,778,761.3330078125,720,700,660,589,524.6669921875,460.6669921875,429.3330078125,371.3330078125,281.3330078125,224,200,155.33299255371094,134.66700744628906,71.33300018310547],"timestamp_mouse":[33,39,58,78,99,118,138,158,179,200,218,238,258,278,298,318,338,359,378,398,418,438,458,478,498,518,538,558,578,598,618,638,658,678,698,718,738,759,778,798,818,838,858,879,899,921,938,958,978,997,1018,1039,1058,1078,1098,1118,1138,1158,1178,1198,1218,1238,1258,1278,1298,1319,1338,1358,1379,1398,1417,1438,1458,1478,1498,1518,1538,1558,1578,1598,1618,1638,1658,1678,1698,1718,1738,1759,1778,1798,1818,1838,1858,1878,1898,1918,1938,1958,1978,1998,2018,2038,2058,2078,2098,2118,2138,2158,2178,2198,2219,2238,2258,2278,2298,2320,2339,2359,2379,2398,2418,2438,2458,2478,2498,2520,2538,2558,2578,2598,2621,2638,2658,2678,2699,2719,2738,2758,2778,2798,2819,2838,2858,2878,2898,2920],"xSR":350,"ySR":768,"xT1":30,"yT1":0,"xT2":670,"yT2":0,"toosoon":0,"cond_shown":"Equal","ratio_trial":100,"L_num":6,"L_den":12,"R_num":6,"R_den":10,"correct_side":2,"subjID":"17","gender":"No_gender","school":"No_school","age":"No_age"},{"start_time":1549309041684,"click_time":1549309044024,"finger_time":1549309043744,"fix_duration":337.8033468111996,"trial":11,"RT":2060,"MT":280,"sideResp":1,"stimulus":[],"xmouse":[390,390,390,390,390,390,390,390,390,390,390,390,390,390,390,390,390,390,390,390,390,390,390,390,390,390,390,390,390,390,390,390,390,390,390,390,390,390,390,390,390,390,397.3330078125,397.3330078125,397,397,397,397,397,397,397,397,397,397,397.3330078125,397.3330078125,397.3330078125,397.3330078125,397.3330078125,397.3330078125,397.3330078125,397.3330078125,397.3330078125,397.3330078125,397.3330078125,397,397,397,397,397,397,397,397,397,397,398,398,398,398,398,398,398,398,398,398,396,396,395.3330078125,395,395.3330078125,395.3330078125,395.3330078125,395.3330078125,396,396,396,396,396,396,396,396,396,396,348.6669921875,339,320.6669921875,294.6669921875,279.3330078125,269,252,233,205.33299255371094,185.33299255371094,176,155.33299255371094,146.66700744628906,114.66699981689453,106.66699981689453],"ymouse":[814,814,814,814,814,814,814,814,814,814,814,814,814,814,814,814,814,814,814,814,814,814,814,814,814,814,814,814,814,814,814,814,814,814,814,814,814,814,814,814,814,814,809.3330078125,809.3330078125,810,810,810,810,810,810,810,810,810,810,808.6669921875,808.6669921875,808.6669921875,808.6669921875,808.6669921875,808.6669921875,808.6669921875,808.6669921875,808.6669921875,808.6669921875,808.6669921875,808,808,808,808,808,808,808,808,808,808,808,808,808,808,808,808,808,808,808,808,804,803,802.6669921875,802,801.3330078125,801.3330078125,801.3330078125,800.6669921875,800,800,800,800,800,800,800,800,800,800,688.6669921875,672,638.6669921875,580.6669921875,532.6669921875,508,459,410,338.6669921875,287.3330078125,262,213.33299255371094,190.66700744628906,109.33300018310547,92.66699981689453],"timestamp_mouse":[4,31,40,61,80,100,120,140,160,180,200,220,241,260,280,300,320,340,360,380,400,420,440,460,480,500,520,540,560,580,600,620,640,660,681,700,720,740,760,780,801,820,840,860,880,901,920,940,960,980,1000,1020,1041,1061,1080,1101,1120,1140,1160,1180,1201,1220,1240,1261,1280,1301,1320,1341,1360,1380,1401,1420,1440,1460,1480,1500,1520,1540,1560,1580,1600,1620,1640,1661,1680,1700,1720,1740,1761,1781,1800,1821,1840,1860,1880,1900,1920,1940,1960,1980,2001,2020,2040,2060,2081,2101,2121,2141,2161,2180,2200,2220,2241,2260,2280,2300,2320,2340],"xSR":350,"ySR":768,"xT1":30,"yT1":0,"xT2":670,"yT2":0,"toosoon":0,"cond_shown":"Equal","ratio_trial":100,"L_num":6,"L_den":12,"R_num":6,"R_den":10,"correct_side":2,"subjID":"17","gender":"No_gender","school":"No_school","age":"No_age"},{"start_time":1549309048762,"click_time":1549309051484,"finger_time":1549309051224,"fix_duration":1396.847545004803,"trial":12,"RT":2462,"MT":260,"sideResp":2,"stimulus":[],"xmouse":[412,412,412,412,412,412,412,412,412,412,412,412,412,412,412,412,412,412,412,412,412,412,412,412,412,412,412,412,412,412,412,412,412,412,412,412,412,412.6669921875,412.6669921875,412.6669921875,413.3330078125,413.3330078125,413.3330078125,413.3330078125,413.3330078125,413.3330078125,413.3330078125,413.3330078125,413.3330078125,413.3330078125,413.3330078125,413.3330078125,412.6669921875,412.6669921875,412.6669921875,412.6669921875,412.6669921875,412.6669921875,412.6669921875,412.6669921875,412.6669921875,412.6669921875,412.6669921875,412.6669921875,412.6669921875,412.6669921875,412.6669921875,412.6669921875,412.6669921875,412.6669921875,412.6669921875,412.6669921875,412.6669921875,412.6669921875,412.6669921875,412.6669921875,412.6669921875,412.6669921875,412.6669921875,412,412,412,412,412,412,412,412,412,412,411,411,411,411,411,411,411,411,411,411,411,411,411,411,411,411,411,411,411,411,409.3330078125,409.3330078125,409.3330078125,409.3330078125,409.3330078125,409.3330078125,409.3330078125,409.3330078125,409.3330078125,409.3330078125,409.3330078125,409,409,409,436,462,477.3330078125,488.6669921875,517,551,594.6669921875,616,626.6669921875,646,654,684,689,703],"ymouse":[819,819,819,819,819,819,819,820,820,820,820,820,820,820,820,820,820,819,819,819,819,819,819,819,819,819,819,819,819,819,819,819,819,819,819,819,819,820.6669921875,820.6669921875,820.6669921875,820.6669921875,821.3330078125,821.3330078125,821.3330078125,821.3330078125,821.3330078125,821.3330078125,821.3330078125,821.3330078125,821.3330078125,821.3330078125,821.3330078125,821.3330078125,821.3330078125,821.3330078125,821.3330078125,820.6669921875,820.6669921875,820.6669921875,820.6669921875,820.6669921875,820.6669921875,820.6669921875,820.6669921875,820.6669921875,820.6669921875,820.6669921875,820.6669921875,820.6669921875,820.6669921875,820.6669921875,820.6669921875,820.6669921875,820.6669921875,820.6669921875,820.6669921875,820.6669921875,820.6669921875,820.6669921875,820,820,820,820,820,820,820,820,820,820,820,820,820,820,820,820,820,820,820,820,820,820,820,820,820,820,820,820,820,820,818.6669921875,818.6669921875,818.6669921875,818.6669921875,818.6669921875,818.6669921875,818.6669921875,818.6669921875,818.6669921875,818.6669921875,818.6669921875,812,812,812,730,657,610.6669921875,585.3330078125,526,466,380.6669921875,326,301.3330078125,249,224,136,118,86],"timestamp_mouse":[3,32,42,62,82,103,123,142,163,182,202,223,242,263,282,302,322,343,363,383,403,422,442,462,482,502,522,542,562,582,602,623,642,662,682,702,722,742,762,782,802,822,843,863,882,902,922,942,962,983,1002,1023,1042,1062,1082,1102,1123,1142,1162,1182,1202,1222,1242,1262,1282,1303,1322,1342,1362,1382,1402,1422,1442,1462,1482,1502,1522,1542,1562,1583,1602,1622,1643,1663,1682,1702,1722,1742,1763,1782,1802,1822,1842,1863,1883,1902,1922,1942,1962,1983,2002,2022,2042,2062,2082,2103,2122,2142,2162,2184,2202,2222,2242,2262,2282,2302,2322,2342,2362,2383,2403,2422,2442,2462,2484,2502,2522,2542,2562,2584,2603,2623,2642,2662,2684,2703,2722],"xSR":350,"ySR":768,"xT1":30,"yT1":0,"xT2":670,"yT2":0,"toosoon":0,"cond_shown":"Equal","ratio_trial":300,"L_num":9,"L_den":12,"R_num":9,"R_den":20,"correct_side":1,"subjID":"17","gender":"No_gender","school":"No_school","age":"No_age"},{"start_time":1549309054360,"click_time":1549309056024,"finger_time":1549309055724,"fix_duration":1194.2619604979818,"trial":13,"RT":1364,"MT":300,"sideResp":1,"stimulus":[],"xmouse":[400.6669921875,400,400,400,400,400,400,400,400,400,400,396.6669921875,396.6669921875,396.6669921875,396.6669921875,396.6669921875,396.6669921875,396.6669921875,396.6669921875,396.6669921875,396.6669921875,397.3330078125,397.3330078125,397.3330078125,397.3330078125,397.3330078125,397.3330078125,397.3330078125,397.3330078125,397.3330078125,397.3330078125,396,396,396,396,396,396,396,396,396,396,394.6669921875,394.6669921875,394.6669921875,394.6669921875,394.6669921875,394.6669921875,394.6669921875,394.6669921875,394.6669921875,394.6669921875,393,393,393,393,393,393,393,393,393,393,393.3330078125,393.3330078125,393.3330078125,393.3330078125,393.3330078125,393.3330078125,393.3330078125,370,348,327.3330078125,307,302.6669921875,292,276.6669921875,266.6669921875,230.66700744628906,206.66700744628906,182.66700744628906,170.66700744628906,146,108.66699981689453,85,75.33300018310547],"ymouse":[820.6669921875,819,819,819,819,819,819,819,819,819,819,819.3330078125,819.3330078125,819.3330078125,819.3330078125,819.3330078125,819.3330078125,819.3330078125,819.3330078125,819.3330078125,819.3330078125,818.6669921875,818.6669921875,818.6669921875,818.6669921875,818.6669921875,818.6669921875,818.6669921875,818.6669921875,818.6669921875,818.6669921875,818,818,818,818,818,818,818,818,818,818,819.3330078125,819.3330078125,819.3330078125,819.3330078125,819.3330078125,819.3330078125,819.3330078125,819.3330078125,819.3330078125,819.3330078125,820,820,820,820,820,820,820,820,820,820,820.6669921875,820.6669921875,820.6669921875,820.6669921875,820.6669921875,820.6669921875,820.6669921875,750,709,670.6669921875,602,576.6669921875,522,468.6669921875,444.6669921875,360.6669921875,309.3330078125,261.3330078125,238.66700744628906,196,143.33299255371094,112,96.66699981689453],"timestamp_mouse":[4,43,47,64,84,104,125,144,164,184,204,225,244,264,284,304,324,344,364,384,404,424,444,464,485,504,524,544,564,584,604,624,644,665,684,704,724,744,764,784,804,825,844,864,884,905,924,944,964,984,1005,1025,1044,1064,1085,1104,1124,1144,1164,1184,1204,1225,1244,1264,1284,1304,1326,1344,1364,1384,1404,1425,1444,1464,1484,1504,1525,1545,1564,1584,1604,1624,1644,1664],"xSR":350,"ySR":768,"xT1":30,"yT1":0,"xT2":670,"yT2":0,"toosoon":0,"cond_shown":"Incongruent","ratio_trial":100,"L_num":2,"L_den":4,"R_num":6,"R_den":15,"correct_side":1,"subjID":"17","gender":"No_gender","school":"No_school","age":"No_age"},{"start_time":1549309058039,"click_time":1549309059825,"finger_time":1549309059524,"fix_duration":749.0803360908651,"trial":14,"RT":1485,"MT":301,"sideResp":2,"stimulus":[],"xmouse":[407.3330078125,407.3330078125,407.3330078125,407.3330078125,407.3330078125,407.3330078125,407.3330078125,407.3330078125,407.3330078125,407.3330078125,407.3330078125,407.3330078125,407.3330078125,408,408,408,408,408,408,408,408,408,408,408,408,408,408,408,408,408,408,408,408,409,409,409,409,409,409,409,409,409,409,409,409,409.3330078125,409.3330078125,409.3330078125,409.3330078125,409.3330078125,409.3330078125,409.3330078125,409.3330078125,409.3330078125,409.3330078125,409,409,409,409,409,409,409,409,410.6669921875,411.3330078125,411.3330078125,411.3330078125,412,412.6669921875,414,414.6669921875,416.6669921875,419.3330078125,422,436,471,494.6669921875,505,524,553.3330078125,574,585.3330078125,604,629,646.6669921875,662.6669921875,670,686,706,716.6669921875],"ymouse":[820.6669921875,820.6669921875,820.6669921875,819.3330078125,819.3330078125,819.3330078125,819.3330078125,819.3330078125,819.3330078125,819.3330078125,819.3330078125,819.3330078125,819.3330078125,818,818,818,818,818,818,818,818,818,818,820,820,820,820,820,820,820,820,820,820,820,820,820,820,820,820,820,820,820,820,820,820,820.6669921875,820.6669921875,820.6669921875,820.6669921875,820.6669921875,820.6669921875,820.6669921875,820.6669921875,820.6669921875,820.6669921875,820,820,820,820,820,820,820,820,821.3330078125,821.3330078125,821.3330078125,821.3330078125,821,820.6669921875,818,817.3330078125,813.3330078125,805.3330078125,795,758,688,641.3330078125,618,572,499.3330078125,451,424.6669921875,375,308,264.6669921875,222.66700744628906,202,162,110,81.33300018310547],"timestamp_mouse":[6,32,45,65,85,105,125,145,165,185,205,225,245,265,285,305,325,345,366,385,405,425,445,465,485,505,526,546,565,585,605,625,645,665,686,705,725,745,765,785,805,825,845,865,885,905,925,945,965,985,1005,1025,1045,1067,1085,1105,1125,1145,1166,1186,1205,1225,1245,1266,1285,1305,1326,1345,1367,1386,1405,1425,1446,1465,1485,1505,1526,1545,1566,1585,1606,1625,1645,1667,1685,1705,1725,1745,1767,1786],"xSR":350,"ySR":768,"xT1":30,"yT1":0,"xT2":670,"yT2":0,"toosoon":0,"cond_shown":"Incongruent","ratio_trial":500,"L_num":7,"L_den":21,"R_num":5,"R_den":6,"correct_side":2,"subjID":"17","gender":"No_gender","school":"No_school","age":"No_age"},{"start_time":1549309061550,"click_time":1549309063346,"finger_time":1549309063004,"fix_duration":464.77557464001416,"trial":15,"RT":1454,"MT":342,"sideResp":1,"stimulus":[],"xmouse":[397.3330078125,396.6669921875,396.6669921875,396.6669921875,396.6669921875,396.6669921875,396.6669921875,396.6669921875,396.6669921875,396.6669921875,396.6669921875,397.3330078125,397.3330078125,397.3330078125,397.3330078125,397.3330078125,397.3330078125,397.3330078125,397.3330078125,397.3330078125,397.3330078125,397.3330078125,397.3330078125,397.3330078125,397.3330078125,397.3330078125,397.3330078125,397.3330078125,397.3330078125,397.3330078125,397.3330078125,397.3330078125,397.3330078125,397.3330078125,397.3330078125,397.3330078125,397.3330078125,397.3330078125,397.3330078125,397.3330078125,397.3330078125,397,397,397,397,397,397,397,397,397,397,396.6669921875,396.6669921875,396.6669921875,396.6669921875,396.6669921875,396.6669921875,396.6669921875,396.6669921875,396.6669921875,396.6669921875,396.6669921875,396.6669921875,396.6669921875,396.6669921875,396.6669921875,396.6669921875,396.6669921875,396.6669921875,383,374,368,352,344,320,314,298.6669921875,290,269.3330078125,237.33299255371094,216,206,188,173.33299255371094,151.33299255371094,138,132,120,114,97],"ymouse":[817.3330078125,816.6669921875,816.6669921875,816.6669921875,816.6669921875,816.6669921875,816.6669921875,816.6669921875,816.6669921875,816.6669921875,816.6669921875,815.3330078125,815.3330078125,815.3330078125,815.3330078125,815.3330078125,815.3330078125,815.3330078125,815.3330078125,815.3330078125,815.3330078125,815.3330078125,815.3330078125,815.3330078125,815.3330078125,815.3330078125,815.3330078125,815.3330078125,815.3330078125,815.3330078125,815.3330078125,816.6669921875,816.6669921875,816.6669921875,816.6669921875,816.6669921875,816.6669921875,816.6669921875,816.6669921875,816.6669921875,816.6669921875,816,816,816,816,816,816,816,816,816,816,815.3330078125,815.3330078125,815.3330078125,815.3330078125,815.3330078125,815.3330078125,815.3330078125,815.3330078125,815.3330078125,815.3330078125,814.6669921875,814.6669921875,814.6669921875,814.6669921875,814.6669921875,814.6669921875,814.6669921875,814.6669921875,798,788,780,753,736,666,646,605.3330078125,584,539.3330078125,472.6669921875,425,400,352,304.6669921875,239.33299255371094,200,182,149,134,90],"timestamp_mouse":[14,43,54,75,94,114,134,154,175,195,215,234,254,274,294,314,334,354,374,394,414,434,454,474,494,514,534,554,575,594,614,634,654,674,694,714,734,755,774,795,814,834,854,874,895,914,935,954,974,994,1014,1034,1054,1074,1095,1114,1134,1154,1174,1194,1215,1234,1254,1274,1294,1314,1334,1354,1374,1394,1414,1434,1454,1474,1494,1515,1534,1554,1574,1594,1614,1635,1655,1674,1694,1714,1734,1754,1774,1796],"xSR":350,"ySR":768,"xT1":30,"yT1":0,"xT2":670,"yT2":0,"toosoon":0,"cond_shown":"Incongruent","ratio_trial":200,"L_num":4,"L_den":6,"R_num":14,"R_den":30,"correct_side":1,"subjID":"17","gender":"No_gender","school":"No_school","age":"No_age"},{"start_time":1549309065797,"click_time":1549309067404,"finger_time":1549309067065,"fix_duration":787.0528648780434,"trial":16,"RT":1268,"MT":339,"sideResp":1,"stimulus":[],"xmouse":[394,394,394,394,394,394,394,394,394,394,394,394,394,394,394,394,394,394,394,394,394,394,394,394,394,394,394,394,394,394,394,394,394,394,394,394.6669921875,394.6669921875,394.6669921875,394.6669921875,394.6669921875,394.6669921875,394.6669921875,394.6669921875,394.6669921875,394.6669921875,393.3330078125,393.3330078125,393.3330078125,393.3330078125,393.3330078125,393.3330078125,393.3330078125,393.3330078125,393.3330078125,393.3330078125,392,392,392,392,386,382,382,382,355,342.6669921875,328.6669921875,321.3330078125,307,282,263,252.6669921875,232.66700744628906,211,183,175.33299255371094,158,145,138.66700744628906,128,114.66699981689453,108],"ymouse":[806,806,806,806,806,807,807,807,807,807,807,807,807,807,807,810,810,810,810,810,810,810,810,810,810,810,810,810,810,810,810,810,810,810,810,811.3330078125,811.3330078125,811.3330078125,811.3330078125,811.3330078125,811.3330078125,811.3330078125,811.3330078125,811.3330078125,811.3330078125,811.3330078125,811.3330078125,811.3330078125,811.3330078125,811.3330078125,811.3330078125,811.3330078125,811.3330078125,811.3330078125,811.3330078125,808,808,808,808,794,782,782,782,686,648.6669921875,608.6669921875,587.3330078125,540,468,420,395.3330078125,348.6669921875,304,246,229.33299255371094,198,170,157.33299255371094,132,104.66699981689453,90],"timestamp_mouse":[7,34,47,67,88,107,127,147,168,187,207,228,248,267,287,307,327,347,368,387,407,427,447,467,487,507,528,548,568,587,607,627,647,667,687,707,727,747,767,787,807,827,847,867,887,908,927,947,968,987,1007,1027,1047,1067,1088,1107,1127,1147,1167,1187,1207,1228,1247,1268,1287,1307,1328,1347,1367,1388,1408,1427,1447,1467,1487,1507,1527,1547,1568,1587,1607],"xSR":350,"ySR":768,"xT1":30,"yT1":0,"xT2":670,"yT2":0,"toosoon":0,"cond_shown":"Incongruent","ratio_trial":200,"L_num":4,"L_den":6,"R_num":14,"R_den":30,"correct_side":1,"subjID":"17","gender":"No_gender","school":"No_school","age":"No_age"},{"start_time":1549309070299,"click_time":1549309084906,"finger_time":1549309084564,"fix_duration":1493.8431053510956,"trial":17,"RT":14265,"MT":342,"sideResp":2,"stimulus":[],"xmouse":[402,402,402,402,402,402,402,402,402,402,402,402,402,402,402,402,402,402,402,402,402,402,402,402,402,402,402,402,402,402,402,402,402,402,402,402,402,402,402,402,402,402,402,402,402,402,402.6669921875,402.6669921875,402.6669921875,402.6669921875,402.6669921875,402.6669921875,402.6669921875,402.6669921875,402.6669921875,402.6669921875,402.6669921875,402.6669921875,402.6669921875,402.6669921875,402.6669921875,402.6669921875,402.6669921875,402.6669921875,402.6669921875,402.6669921875,403.3330078125,403.3330078125,403.3330078125,403.3330078125,403.3330078125,403.3330078125,403,403,403,403,403,403,403,403,403,403,403,403,403.3330078125,403.3330078125,403.3330078125,403.3330078125,403.3330078125,403.3330078125,403.3330078125,403.3330078125,403,403,403,403,403,403.3330078125,403.3330078125,403.3330078125,403.3330078125,404,404,404,404,404,404,404,404,404,404,404,402,402,402,402,402,402,402,402,402,402,402,402,402,402,402,402,402,402,402,402,402.6669921875,402.6669921875,402.6669921875,402.6669921875,402.6669921875,402.6669921875,402.6669921875,402.6669921875,402.6669921875,402.6669921875,404,404,404,404,404,404,404,404,404,404,404,404,404,404,404,404,404,404,404,404,404,404,404,404,404,404,404,404,404,404,401.3330078125,401.3330078125,401.3330078125,401.3330078125,401.3330078125,401.3330078125,401.3330078125,401.3330078125,401.3330078125,401.3330078125,400,400,400,400,400,400,400,400,400,400,400,400,400,400,400,400,400,400,400,400,403.3330078125,403.3330078125,403.3330078125,403.3330078125,403.3330078125,403.3330078125,403.3330078125,403.3330078125,403.3330078125,403.3330078125,404,404,404,404,404,404,404,404,404,404,402.6669921875,402.6669921875,402.6669921875,402.6669921875,402.6669921875,402.6669921875,402.6669921875,402.6669921875,402.6669921875,402.6669921875,401.3330078125,401.3330078125,401.3330078125,401.3330078125,401.3330078125,401.3330078125,401.3330078125,401.3330078125,401.3330078125,401.3330078125,400,400,400,400,400,400,400,400,400,400,400,400,400,400,400,400,400,400,400,400,396,396,396,396,396,396,396,396,396,396,397.3330078125,397.3330078125,397.3330078125,397.3330078125,397.3330078125,397.3330078125,397.3330078125,397.3330078125,397.3330078125,397.3330078125,400.6669921875,400.6669921875,400.6669921875,400.6669921875,400.6669921875,400.6669921875,400.6669921875,400.6669921875,400.6669921875,400.6669921875,404,404.6669921875,404,404,404,404,405,405,405,406,406,406,406,406,406,406,406,406,406,406,406,406,405.3330078125,405.3330078125,405.3330078125,404,404.6669921875,404,404,404,402,402,402,402,402,402,402,402,402.6669921875,402.6669921875,402.6669921875,402.6669921875,402.6669921875,402,402,402,402,402,402,402,402,402,402,402,402,402,401.3330078125,401.3330078125,400.6669921875,400,400,400,400,400,400,400,400,400,400,400,400,400,400,400,400,400,400,400,400,400,400,400,400,400,400,400,400,400,400,400,400,400,400,400,400,400,400,400,400,400,400,400,400,400,400,400,400,400,400,400,400,402,402,402,402,402,402,402,402,402,402,405.3330078125,405.3330078125,405.3330078125,405.3330078125,406.6669921875,406.6669921875,406.6669921875,406.6669921875,406.6669921875,406.6669921875,406,406,406,406.6669921875,406,406.6669921875,406.6669921875,406,406,406,406,406,406,406,406,406,406,406,406,406,405.3330078125,405.3330078125,405.3330078125,405.3330078125,405.3330078125,405.3330078125,405.3330078125,405.3330078125,405.3330078125,405.3330078125,402.6669921875,402.6669921875,402.6669921875,402.6669921875,402.6669921875,402.6669921875,402.6669921875,402.6669921875,402.6669921875,402.6669921875,404,404,404,404,404,410,410,411,411,411,408,408,408,408,408,408,408,408,408,408,402.6669921875,402.6669921875,402.6669921875,402.6669921875,402.6669921875,402.6669921875,402.6669921875,402.6669921875,402.6669921875,402.6669921875,405.3330078125,405.3330078125,405.3330078125,405.3330078125,405.3330078125,405.3330078125,405.3330078125,405.3330078125,405.3330078125,405.3330078125,405.3330078125,407,407,407,407,407,407,407,407,407,407,407,407,407,407,407,407,407,407,407,406,406,406,406,406,406,406,406,406,406,403.3330078125,403.3330078125,403.3330078125,403.3330078125,403.3330078125,403.3330078125,403.3330078125,403.3330078125,403.3330078125,403.3330078125,406,406,406,406,406,406,406,406,406,406,404.6669921875,404.6669921875,404.6669921875,404.6669921875,404.6669921875,404.6669921875,404.6669921875,404.6669921875,404.6669921875,404.6669921875,404,404,404,404,404,404,404,404,404,404,403,403,403,403,403,403,403,403,402,402,402,402,402,402,402,402,402,402,402,402,402,402,402,401.3330078125,401.3330078125,401.3330078125,401.3330078125,401.3330078125,401.3330078125,401.3330078125,401.3330078125,401.3330078125,401.3330078125,401.3330078125,401.3330078125,401.3330078125,401.3330078125,401.3330078125,401.3330078125,401.3330078125,400,400,400,400,400,400,400,400,400,400,400,400,400,400.6669921875,400.6669921875,400.6669921875,400.6669921875,400.6669921875,400.6669921875,400.6669921875,400.6669921875,400.6669921875,400.6669921875,406,406,406,406,406,406,406,406,406,406,405,405,405,405,405,405,405,405,405,405,407.3330078125,407.3330078125,407.3330078125,407.3330078125,407.3330078125,407.3330078125,407.3330078125,407.3330078125,407.3330078125,407.3330078125,406.6669921875,406.6669921875,406.6669921875,406.6669921875,406.6669921875,406.6669921875,406.6669921875,406.6669921875,406.6669921875,406.6669921875,405.3330078125,405.3330078125,405.3330078125,405.3330078125,405.3330078125,405.3330078125,405.3330078125,405.3330078125,405.3330078125,405.3330078125,404,404,404,404,404,404,404,404,404,404,408,408,408,408,408,408,408,408,408,408,410.6669921875,410.6669921875,410.6669921875,410.6669921875,416,417.3330078125,420,424.6669921875,456,463.3330078125,479.3330078125,488,508,538.6669921875,556,563,580,597.3330078125,624,640,647.3330078125,660.6669921875,664.6669921875,676.6669921875,688],"ymouse":[826,826,826,826,826,826,826,826,826,826,826,826,826,826,826,826,825,825,825,825,825,825,825,825,825,825,825,825,825,825,825,825,825,825,825,825,824,824,824,824,824,824,824,824,824,824,824.6669921875,824.6669921875,824.6669921875,824.6669921875,824.6669921875,824.6669921875,824.6669921875,824.6669921875,824.6669921875,824.6669921875,823.3330078125,823.3330078125,823.3330078125,823.3330078125,823.3330078125,823.3330078125,823.3330078125,823.3330078125,823.3330078125,823.3330078125,823.3330078125,823.3330078125,823.3330078125,823.3330078125,823.3330078125,823.3330078125,822,822,822,822,822,822,822,822,822,822,822,822,822.6669921875,822.6669921875,822.6669921875,822.6669921875,822.6669921875,822.6669921875,822.6669921875,822.6669921875,822,822,822,822,822,822.6669921875,822.6669921875,822.6669921875,822.6669921875,822,822,822,822,822,822,822,822,822,822,822,820,820,820,820,820,820,820,820,820,820,820,820,820,820,820,820,820,820,820,820,819.3330078125,819.3330078125,819.3330078125,819.3330078125,819.3330078125,819.3330078125,819.3330078125,819.3330078125,819.3330078125,819.3330078125,816,816,816,816,816,816,816,816,816,816,820,820,820,820,820,820,820,820,820,820,822,822,822,822,822,822,822,822,822,822,827.3330078125,827.3330078125,827.3330078125,827.3330078125,827.3330078125,827.3330078125,827.3330078125,827.3330078125,827.3330078125,827.3330078125,821,821,821,821,821,821,821,821,821,821,822,822,822,822,822,822,822,822,822,822,824.6669921875,824.6669921875,824.6669921875,824.6669921875,824.6669921875,824.6669921875,824.6669921875,824.6669921875,824.6669921875,824.6669921875,827,827,827,827,827,827,827,827,827,827,826.6669921875,826.6669921875,826.6669921875,826.6669921875,826.6669921875,826.6669921875,826.6669921875,826.6669921875,826.6669921875,826.6669921875,826.6669921875,826.6669921875,826.6669921875,826.6669921875,826.6669921875,826.6669921875,826.6669921875,826.6669921875,826.6669921875,826.6669921875,825,825,825,825,825,825,825,825,825,825,828,828,828,828,828,828,828,828,828,828,832,832,832,832,832,832,832,832,832,832,830.6669921875,830.6669921875,830.6669921875,830.6669921875,830.6669921875,830.6669921875,830.6669921875,830.6669921875,830.6669921875,830.6669921875,824.6669921875,824.6669921875,824.6669921875,824.6669921875,824.6669921875,824.6669921875,824.6669921875,824.6669921875,824.6669921875,824.6669921875,820,820.6669921875,820,820,820,820,820,820,820,820,820,820,821,821,821,821,821,821,821,821,821,821,818.6669921875,818.6669921875,818.6669921875,818,817.3330078125,817,817,816,816,816,816,816,816,816,816,816,815.3330078125,815.3330078125,815.3330078125,815.3330078125,815.3330078125,814,813,813,813,813,812,812,812,812,812,812,811,810,810.6669921875,809.3330078125,808.6669921875,808,808,808,806,806,806,806,806,806,806,806,806,806,806,806,806,806,806,806,806,806,806,806,806,806,806,806,806,806,806,806,806,807,807,807,807,807,807,807,807,807,807,806,806,806,806,806,806,806,806,806,806,806,806,806,806,806,806,806,806,806,806,805.3330078125,805.3330078125,805.3330078125,805.3330078125,806.6669921875,806.6669921875,806.6669921875,806.6669921875,806.6669921875,806.6669921875,805,805,805,803.3330078125,802,801.3330078125,800.6669921875,800,800,800,801,801,801,801,801,801,801,801,801,801,807.3330078125,807.3330078125,807.3330078125,807.3330078125,807.3330078125,807.3330078125,807.3330078125,807.3330078125,807.3330078125,807.3330078125,805.3330078125,805.3330078125,805.3330078125,805.3330078125,805.3330078125,805.3330078125,805.3330078125,805.3330078125,805.3330078125,805.3330078125,807,807,807,807,807,808,808,808,808,808,809,809,809,809,809,809,809,809,809,809,802.6669921875,802.6669921875,802.6669921875,802.6669921875,802.6669921875,802.6669921875,802.6669921875,802.6669921875,802.6669921875,802.6669921875,806.6669921875,806.6669921875,806.6669921875,806.6669921875,806.6669921875,806.6669921875,806.6669921875,806.6669921875,806.6669921875,806.6669921875,806.6669921875,810,810,810,810,810,810,810,810,810,812,812,812,812,812,812,812,812,812,812,810,810,810,810,810,810,810,810,810,810,807.3330078125,807.3330078125,807.3330078125,807.3330078125,807.3330078125,807.3330078125,807.3330078125,807.3330078125,807.3330078125,807.3330078125,811,811,811,811,811,811,811,811,811,811,808.6669921875,808.6669921875,808.6669921875,808.6669921875,808.6669921875,808.6669921875,808.6669921875,808.6669921875,808.6669921875,808.6669921875,808,808,808,808,808,808,808,808,808,808,808,808,808,808,808,808,808,808,807,807,807,807,807,806,806,806,806,806,806,806,806,806,806,806.6669921875,806.6669921875,806.6669921875,806.6669921875,806.6669921875,806.6669921875,806.6669921875,806.6669921875,806.6669921875,806.6669921875,807.3330078125,807.3330078125,807.3330078125,807.3330078125,807.3330078125,807.3330078125,807.3330078125,806,806,806,806,806,806,806,806,805,805,805,805,805,802.6669921875,802.6669921875,802.6669921875,802.6669921875,802.6669921875,802.6669921875,802.6669921875,802.6669921875,802.6669921875,802.6669921875,806,806,806,806,806,806,806,806,806,806,804,804,804,804,804,804,804,804,804,804,805.3330078125,805.3330078125,805.3330078125,805.3330078125,805.3330078125,805.3330078125,805.3330078125,805.3330078125,805.3330078125,805.3330078125,803.3330078125,803.3330078125,803.3330078125,803.3330078125,803.3330078125,803.3330078125,803.3330078125,803.3330078125,803.3330078125,803.3330078125,805.3330078125,805.3330078125,805.3330078125,805.3330078125,805.3330078125,805.3330078125,805.3330078125,805.3330078125,805.3330078125,805.3330078125,802,802,802,802,802,802,802,802,802,802,804,804,804,804,804,804,804,804,804,804,806.6669921875,806.6669921875,806.6669921875,806.6669921875,788,784.6669921875,769,754.6669921875,688,672.6669921875,634.6669921875,612,559,470.6669921875,413,388,332,278.6669921875,207,169,152.66700744628906,127.3330078125,116.6669921875,100.66699981689453,86],"timestamp_mouse":[9,34,45,66,85,105,125,145,166,185,205,225,245,265,285,305,325,346,366,385,405,426,445,465,486,505,525,545,565,585,605,625,645,665,685,706,726,745,765,785,805,825,845,865,886,905,925,945,965,985,1005,1025,1045,1065,1085,1105,1125,1146,1165,1185,1205,1226,1245,1265,1286,1305,1325,1345,1365,1385,1406,1425,1445,1465,1486,1505,1525,1545,1565,1585,1605,1625,1645,1665,1686,1705,1725,1746,1765,1786,1806,1825,1845,1865,1887,1905,1925,1946,1965,1985,2005,2025,2045,2065,2086,2105,2125,2145,2165,2185,2205,2225,2245,2265,2285,2305,2326,2345,2365,2385,2405,2425,2445,2465,2485,2506,2525,2545,2566,2585,2605,2625,2646,2665,2685,2705,2725,2745,2765,2785,2805,2825,2845,2865,2885,2905,2925,2945,2965,2985,3005,3025,3045,3065,3085,3107,3125,3145,3165,3185,3205,3225,3245,3265,3285,3306,3325,3345,3365,3385,3406,3425,3445,3466,3485,3506,3525,3545,3565,3585,3605,3626,3645,3666,3686,3705,3726,3746,3766,3786,3805,3825,3846,3865,3885,3905,3925,3946,3965,3985,4006,4026,4045,4065,4085,4105,4125,4146,4165,4185,4205,4225,4245,4265,4285,4305,4325,4345,4365,4385,4405,4425,4446,4465,4485,4505,4526,4545,4565,4585,4606,4625,4645,4665,4685,4705,4725,4746,4766,4786,4805,4825,4845,4865,4885,4905,4925,4945,4965,4985,5005,5025,5045,5065,5085,5105,5126,5145,5165,5185,5205,5225,5245,5265,5285,5306,5325,5346,5365,5385,5406,5425,5446,5465,5485,5505,5526,5545,5565,5586,5605,5625,5647,5665,5685,5705,5725,5745,5765,5785,5805,5825,5845,5865,5885,5905,5925,5945,5965,5985,6005,6026,6045,6065,6085,6105,6126,6145,6165,6186,6205,6226,6245,6266,6285,6305,6325,6345,6365,6385,6405,6426,6445,6465,6485,6505,6526,6545,6566,6585,6605,6625,6645,6665,6686,6705,6730,6745,6765,6785,6805,6825,6845,6865,6885,6905,6925,6945,6965,6985,7006,7025,7045,7065,7085,7106,7125,7145,7165,7185,7205,7225,7245,7265,7285,7305,7325,7345,7365,7386,7405,7425,7445,7466,7486,7505,7525,7545,7565,7585,7605,7625,7645,7665,7685,7705,7725,7745,7765,7786,7805,7825,7845,7865,7885,7905,7925,7945,7965,7985,8005,8025,8045,8066,8085,8106,8128,8145,8165,8185,8205,8226,8247,8265,8285,8305,8326,8347,8365,8385,8405,8425,8445,8466,8485,8505,8525,8545,8566,8586,8605,8625,8646,8666,8685,8705,8726,8750,8765,8785,8805,8825,8846,8866,8885,8905,8925,8945,8966,8985,9005,9025,9045,9065,9085,9105,9125,9146,9165,9185,9205,9226,9245,9266,9285,9305,9325,9345,9365,9385,9405,9425,9447,9468,9485,9505,9525,9545,9566,9585,9605,9625,9645,9667,9685,9705,9726,9746,9765,9786,9805,9825,9846,9865,9885,9906,9925,9945,9965,9985,10005,10025,10046,10067,10085,10105,10125,10146,10165,10185,10205,10225,10245,10270,10285,10305,10325,10346,10365,10385,10406,10425,10445,10467,10485,10505,10526,10545,10565,10585,10605,10625,10645,10665,10685,10705,10725,10745,10766,10785,10805,10825,10845,10870,10885,10905,10925,10945,10965,10985,11006,11026,11045,11065,11085,11105,11125,11145,11166,11185,11205,11225,11245,11265,11285,11305,11325,11345,11365,11385,11405,11425,11445,11466,11486,11505,11525,11545,11565,11586,11605,11626,11645,11665,11685,11705,11725,11745,11765,11785,11805,11825,11845,11865,11885,11905,11925,11945,11965,12019,12019,12025,12045,12065,12086,12105,12125,12146,12165,12185,12205,12225,12245,12267,12285,12305,12325,12345,12365,12385,12405,12425,12445,12467,12486,12505,12525,12545,12565,12586,12605,12625,12645,12665,12685,12705,12725,12745,12765,12785,12805,12825,12845,12866,12885,12905,12925,12945,12965,12985,13005,13025,13045,13065,13086,13105,13125,13145,13166,13186,13205,13225,13245,13265,13286,13305,13326,13345,13365,13385,13405,13425,13445,13465,13485,13505,13525,13546,13565,13585,13605,13625,13645,13665,13687,13705,13725,13745,13765,13785,13805,13826,13845,13865,13887,13905,13925,13945,13965,13986,14005,14025,14045,14065,14086,14106,14125,14145,14165,14186,14205,14225,14245,14265,14287,14305,14325,14345,14366,14387,14405,14425,14445,14466,14486,14508,14525,14545,14565,14585,14607],"xSR":350,"ySR":768,"xT1":30,"yT1":0,"xT2":670,"yT2":0,"toosoon":0,"cond_shown":"Equal","ratio_trial":500,"L_num":2,"L_den":12,"R_num":2,"R_den":3,"correct_side":2,"subjID":"17","gender":"No_gender","school":"No_sch