[{"start_time":1549308877925,"click_time":1549308880753,"finger_time":1549308877935,"fix_duration":804.6163585174503,"trial":0,"RT":10,"MT":2818,"sideResp":1,"stimulus":[],"xmouse":[392.66668701171875,392.66668701171875,392.66668701171875,392.66668701171875,392.66668701171875,392.66668701171875,392.66668701171875,392.66668701171875,392.66668701171875,391.3333435058594,391.3333435058594,391.3333435058594,391.3333435058594,391.3333435058594,391.3333435058594,391.3333435058594,391.3333435058594,391.3333435058594,391.3333435058594,390.66668701171875,390.66668701171875,390.66668701171875,390.66668701171875,390.66668701171875,390.66668701171875,390.66668701171875,390.66668701171875,390.66668701171875,390.66668701171875,390.66668701171875,390.66668701171875,390.66668701171875,390.66668701171875,390.66668701171875,390.66668701171875,390.66668701171875,390.66668701171875,390.66668701171875,390.66668701171875,389.3333435058594,389.3333435058594,389.3333435058594,389.3333435058594,389.3333435058594,389.3333435058594,388.66668701171875,388.66668701171875,388.66668701171875,388.66668701171875,388.66668701171875,388.66668701171875,389.3333435058594,389.3333435058594,389.3333435058594,390,390.66668701171875,391.3333435058594,392,392.66668701171875,393.3333435058594,394.66668701171875,395.3333435058594,396,396.66668701171875,396.66668701171875,398.66668701171875,399.3333435058594,400,400,400,400.66668701171875,400.66668701171875,400.66668701171875,401.3333435058594,402,402.66668701171875,403.3333435058594,403.3333435058594,404,404.66668701171875,404.66668701171875,405.3333435058594,406,406,406,406.66668701171875,406.66668701171875,407.3333435058594,408,408,408.66668701171875,409.3333435058594,409.3333435058594,409.3333435058594,409.3333435058594,409.3333435058594,409.3333435058594,409.3333435058594,409.3333435058594,409.3333435058594,409.3333435058594,409.3333435058594,409.3333435058594,409.3333435058594,409.3333435058594,409.3333435058594,409.3333435058594,410,410,410.66668701171875,410.66668701171875,411.3333435058594,411.3333435058594,410.66668701171875,410.66668701171875,409.3333435058594,409.3333435058594,409.3333435058594,409.3333435058594,409.3333435058594,409.3333435058594,409.3333435058594,409.3333435058594,409.3333435058594,409.3333435058594,409.3333435058594,409.3333435058594,409.3333435058594,409.3333435058594,409.3333435058594,409.3333435058594,409.3333435058594,409.3333435058594,409.3333435058594,409.3333435058594,409.3333435058594,409.3333435058594,409.3333435058594,409.3333435058594,409.3333435058594,409.3333435058594,53],"ymouse":[744,744,744,744,744,744,744,744,744,746.6666870117188,746.6666870117188,746.6666870117188,746.6666870117188,746.6666870117188,746.6666870117188,746.6666870117188,746.6666870117188,746.6666870117188,746.6666870117188,748.6666870117188,748.6666870117188,748.6666870117188,748.6666870117188,748.6666870117188,748.6666870117188,748.6666870117188,748.6666870117188,748.6666870117188,748.6666870117188,750.6666870117188,750.6666870117188,750.6666870117188,750.6666870117188,750.6666870117188,750.6666870117188,750.6666870117188,750.6666870117188,750.6666870117188,750.6666870117188,755.3333740234375,755.3333740234375,755.3333740234375,755.3333740234375,755.3333740234375,759.3333740234375,760.6666870117188,762.6666870117188,763.3333740234375,765.3333740234375,766,769.3333740234375,774.6666870117188,778.6666870117188,780.6666870117188,784.6666870117188,790.6666870117188,794.6666870117188,796,798.6666870117188,800.6666870117188,803.3333740234375,804,805.3333740234375,806.6666870117188,807.3333740234375,809.3333740234375,810,811.3333740234375,812,813.3333740234375,815.3333740234375,816.6666870117188,817.3333740234375,818,819.3333740234375,820,820.6666870117188,820.6666870117188,820.6666870117188,820.6666870117188,821.3333740234375,822,822,822.6666870117188,824,825.3333740234375,826,826.6666870117188,827.3333740234375,828,828.6666870117188,829.3333740234375,829.3333740234375,829.3333740234375,830,830.6666870117188,832,832.6666870117188,834,835.3333740234375,838,838.6666870117188,839.3333740234375,840.6666870117188,841.3333740234375,842,844,844.6666870117188,845.3333740234375,846,846.6666870117188,847.3333740234375,846.6666870117188,846.6666870117188,846.6666870117188,844,844,844,844,844,844,844,844,844,844,844,844,844,844,844,844,844,844,844,844,844,844,844,844,844,844,27],"timestamp_mouse":[10,27,46,67,87,106,127,147,167,187,207,227,247,267,287,307,327,347,367,387,407,426,447,466,488,507,527,547,567,586,607,627,647,667,686,707,727,747,767,786,808,827,847,867,887,911,929,947,967,987,1007,1027,1047,1067,1087,1107,1126,1147,1167,1187,1207,1226,1246,1267,1286,1309,1327,1348,1367,1387,1410,1427,1446,1467,1487,1507,1530,1546,1567,1587,1608,1627,1647,1666,1687,1709,1727,1747,1767,1787,1807,1827,1847,1867,1886,1907,1928,1947,1967,1986,2010,2027,2047,2066,2087,2107,2128,2147,2167,2187,2207,2227,2248,2267,2287,2307,2328,2347,2366,2387,2407,2427,2446,2467,2486,2507,2527,2547,2566,2587,2607,2627,2647,2666,2687,2707,2726,2747,2767,2787,2807,2827],"xSR":350,"ySR":696,"xT1":30,"yT1":0,"xT2":670,"yT2":0,"toosoon":0,"cond_shown":"Equal","ratio_trial":200,"L_num":3,"L_den":6,"R_num":3,"R_den":10,"correct_side":1,"subjID":"1","gender":"No_gender","age":"No_age","school":"No_school","test":{"fix_dur":[250,1500],"timestim":900,"targets_dim":[100,100],"targets_relative_coord":[0.1,0.9],"size_stim":[880,420],"start_dim":[100,100],"size_start":[300,300],"size_fix":60,"samplingrate":20,"img_types":["Congruent","Incongruent","Equal"],"ratios":[100,200,300,500],"rep_conds":15,"nTrials":192,"trials_to_rest":500,"Trials_order":[113,88,138,131,123,61,148,37,14,130,1,105,175,41,66,164,36,176,133,158,161,135,10,22,31,96,159,70,62,112,4,185,11,153,34,188,178,78,181,116,73,139,72,142,111,171,64,80,59,2,124,60,94,173,56,95,63,5,146,172,26,99,177,129,81,92,93,71,6,69,53,168,152,109,184,55,122,7,151,84,136,91,44,190,170,48,30,97,24,40,162,83,140,67,127,108,186,23,98,155,87,115,16,137,106,183,33,121,119,28,156,74,42,86,189,90,82,27,25,49,65,114,51,174,15,110,147,144,165,169,125,29,76,191,102,100,143,180,182,145,32,166,3,179,58,107,13,157,21,77,134,120,43,154,38,9,160,8,103,126,132,39,128,149,118,17,101,45,117,163,104,68,18,19,50,141,52,12,35,187,57,150,54,79,20,46,89,167,0,47,85,75],"cond_shown":["Equal","Incongruent","Congruent","Equal","Congruent","Incongruent","Incongruent","Incongruent","Equal","Incongruent","Incongruent","Congruent","Incongruent","Equal","Congruent","Equal","Congruent","Equal","Incongruent","Equal","Equal","Congruent","Incongruent","Incongruent","Incongruent","Congruent","Congruent","Incongruent","Equal","Incongruent","Incongruent","Equal","Equal","Congruent","Incongruent","Equal","Incongruent","Congruent","Incongruent","Equal","Incongruent","Incongruent","Congruent","Incongruent","Congruent","Congruent","Incongruent","Equal","Equal","Equal","Incongruent","Congruent","Incongruent","Equal","Equal","Equal","Congruent","Equal","Equal","Incongruent","Equal","Congruent","Congruent","Congruent","Congruent","Equal","Congruent","Equal","Congruent","Congruent","Equal","Congruent","Equal","Incongruent","Incongruent","Incongruent","Equal","Incongruent","Incongruent","Congruent","Incongruent","Incongruent","Equal","Incongruent","Equal","Congruent","Congruent","Incongruent","Congruent","Incongruent","Congruent","Equal","Equal","Incongruent","Incongruent","Congruent","Congruent","Equal","Equal","Equal","Congruent","Incongruent","Incongruent","Equal","Incongruent","Congruent","Congruent","Incongruent","Equal","Incongruent","Congruent","Equal","Congruent","Equal","Congruent","Congruent","Incongruent","Congruent","Incongruent","Incongruent","Equal","Congruent","Congruent","Congruent","Congruent","Equal","Congruent","Congruent","Congruent","Incongruent","Equal","Equal","Incongruent","Equal","Congruent","Incongruent","Equal","Congruent","Equal","Incongruent","Equal","Incongruent","Congruent","Equal","Incongruent","Equal","Incongruent","Incongruent","Congruent","Equal","Equal","Congruent","Incongruent","Incongruent","Equal","Congruent","Incongruent","Equal","Incongruent","Congruent","Congruent","Congruent","Equal","Equal","Incongruent","Equal","Equal","Congruent","Congruent","Incongruent","Equal","Equal","Congruent","Incongruent","Equal","Congruent","Incongruent","Congruent","Equal","Incongruent","Congruent","Congruent","Congruent","Incongruent","Equal","Incongruent","Equal","Equal","Congruent","Equal","Incongruent","Congruent"],"ratio_trial":[200,200,300,500,200,100,200,100,100,500,100,500,300,200,300,300,100,300,100,100,200,200,500,500,300,100,200,500,100,200,200,200,500,500,500,300,500,300,100,300,100,300,100,500,200,200,200,300,500,100,200,100,500,200,300,500,200,200,100,200,100,200,500,500,500,300,500,500,300,500,200,100,300,100,200,300,100,300,300,100,200,300,300,500,100,100,300,100,100,200,300,500,300,300,300,100,300,500,100,500,200,300,200,200,500,200,500,100,500,200,100,100,300,100,500,300,500,200,100,100,200,300,200,300,200,100,200,100,500,100,200,200,200,500,300,200,500,100,100,100,300,500,200,500,500,500,100,100,500,200,100,100,300,500,100,500,200,300,300,300,100,200,300,200,500,200,200,500,500,300,300,300,300,300,100,500,200,100,500,300,500,300,300,300,300,500,200,500,100,500,100,200],"left_num":[3,7,11,6,9,9,14,10,2,7,3,20,8,3,2,3,3,9,2,6,3,8,2,7,4,10,11,5,6,7,1,3,2,2,7,18,5,1,8,9,1,4,8,5,3,20,11,9,6,6,9,7,7,3,9,2,12,3,6,3,6,3,8,2,4,9,25,2,20,10,3,2,9,11,6,2,2,4,1,6,4,4,3,7,2,12,20,4,8,3,1,6,9,4,8,9,11,6,6,6,5,3,3,3,7,7,1,9,6,4,4,6,11,6,4,11,7,3,2,8,3,7,9,1,4,2,3,10,4,9,3,3,7,6,8,7,6,4,2,10,9,7,4,6,7,6,9,9,10,3,6,12,4,7,2,8,14,9,13,20,4,6,3,3,7,3,3,2,3,4,9,9,1,8,6,8,7,3,6,4,1,4,1,1,9,2,3,6,9,6,4,8],"right_num":[3,6,4,6,4,20,12,8,2,9,7,1,9,3,12,3,4,9,6,6,3,7,4,9,2,3,3,6,6,8,3,3,2,21,5,18,6,6,1,9,8,2,2,6,14,9,3,9,6,6,8,15,5,3,9,2,6,3,6,1,6,14,4,9,1,9,9,2,13,7,3,6,9,9,3,6,2,6,3,15,6,2,3,9,2,13,13,8,2,11,3,6,9,2,9,8,4,6,6,6,14,4,1,3,5,18,12,13,6,14,15,6,2,6,12,1,5,9,8,1,3,20,13,8,3,2,7,3,12,6,3,3,12,6,1,8,6,15,2,8,9,9,3,6,5,6,6,13,7,3,6,13,2,9,2,4,12,9,12,8,6,11,3,3,5,3,3,18,15,2,9,9,11,14,6,4,6,2,6,2,11,1,6,3,9,4,3,6,8,6,8,3],"left_den":[6,15,22,24,20,10,30,25,12,8,9,24,10,6,10,10,20,20,4,12,6,15,3,8,20,25,22,6,12,10,2,10,12,8,21,30,6,5,20,20,2,20,16,6,10,25,20,12,24,10,15,14,21,6,12,12,20,6,12,10,10,6,12,5,6,20,30,12,25,13,10,5,20,22,20,4,12,5,2,12,5,20,10,8,12,30,25,8,16,4,5,24,12,20,10,15,22,8,12,24,10,6,10,6,21,15,4,15,24,6,10,12,22,12,24,22,21,12,4,20,6,14,30,30,10,12,10,25,24,18,6,6,10,8,16,10,8,10,12,25,12,8,8,8,21,24,18,15,13,6,12,30,20,8,12,12,30,12,26,25,8,20,10,10,21,10,10,5,12,20,12,12,5,10,12,12,15,6,24,20,9,10,5,2,12,3,6,8,15,8,8,15],"right_den":[10,9,20,8,16,25,18,16,30,24,30,3,18,10,24,5,16,12,15,10,10,21,24,24,4,10,10,18,10,16,10,6,3,28,6,20,18,12,2,12,20,4,5,18,28,15,4,20,8,12,10,25,6,10,20,3,15,10,10,2,12,20,24,10,6,12,27,3,26,26,6,12,12,15,6,30,30,12,15,25,10,4,5,24,30,26,26,20,5,20,6,8,20,4,18,16,20,24,10,8,20,20,2,10,6,27,16,26,8,30,30,10,10,10,18,5,6,20,20,2,10,25,26,24,15,30,14,10,18,10,10,10,24,24,5,16,24,30,30,16,20,24,10,24,6,8,10,26,26,10,10,26,4,24,30,24,18,20,15,16,10,22,5,6,6,6,6,20,20,4,20,20,22,28,10,24,9,5,8,4,18,10,12,15,20,24,10,24,16,24,20,9],"correct_side":[1,2,1,2,1,1,2,2,1,1,1,1,1,1,2,2,2,2,1,2,1,1,1,1,2,1,1,1,2,1,1,2,2,2,2,2,1,2,2,2,1,2,1,1,2,1,2,1,2,1,2,2,2,1,1,2,1,1,2,2,1,2,1,2,1,2,1,2,1,1,2,2,2,2,2,1,1,1,1,2,1,2,2,1,1,2,1,1,1,1,2,2,1,2,1,1,1,1,2,2,2,1,2,1,2,2,2,1,2,1,2,2,1,2,2,1,2,2,1,2,1,2,2,2,1,1,2,1,2,2,1,1,1,1,1,1,1,2,1,2,1,1,1,1,2,2,2,1,1,1,2,2,2,1,1,1,2,1,2,1,2,2,2,2,2,2,2,2,2,2,1,1,2,1,2,1,2,1,2,2,2,1,2,1,1,1,1,1,1,1,1,1],"img_shown":["img2/200/Equal/L/E_Dist_200_LN_3_LD_6_RN_3_RD_10_0.png","img2/200/Incongruent/R/I_Dist_200_LN_7_LD_15_RN_6_RD_9_1.png","img2/300/Congruent/L/C_Dist_300_LN_11_LD_22_RN_4_RD_20_0.png","img2/500/Equal/R/E_Dist_500_LN_6_LD_24_RN_6_RD_8_1.png","img2/200/Congruent/L/C_Dist_200_LN_9_LD_20_RN_4_RD_16_0.png","img2/100/Incongruent/L/I_Dist_100_LN_9_LD_10_RN_20_RD_25_0.png","img2/200/Incongruent/R/I_Dist_200_LN_14_LD_30_RN_12_RD_18_1.png","img2/100/Incongruent/R/I_Dist_100_LN_10_LD_25_RN_8_RD_16_1.png","img2/100/Equal/L/E_Dist_100_LN_2_LD_12_RN_2_RD_30_0.png","img2/500/Incongruent/L/I_Dist_500_LN_7_LD_8_RN_9_RD_24_0.png","img2/100/Incongruent/L/I_Dist_100_LN_3_LD_9_RN_7_RD_30_0.png","img2/500/Congruent/L/C_Dist_500_LN_20_LD_24_RN_1_RD_3_0.png","img2/300/Incongruent/L/I_Dist_300_LN_8_LD_10_RN_9_RD_18_0.png","img2/200/Equal/L/E_Dist_200_LN_3_LD_6_RN_3_RD_10_0.png","img2/300/Congruent/R/C_Dist_300_LN_2_LD_10_RN_12_RD_24_1.png","img2/300/Equal/R/E_Dist_300_LN_3_LD_10_RN_3_RD_5_1.png","img2/100/Congruent/R/C_Dist_100_LN_3_LD_20_RN_4_RD_16_1.png","img2/300/Equal/R/E_Dist_300_LN_9_LD_20_RN_9_RD_12_1.png","img2/100/Incongruent/L/I_Dist_100_LN_2_LD_4_RN_6_RD_15_0.png","img2/100/Equal/R/E_Dist_100_LN_6_LD_12_RN_6_RD_10_1.png","img2/200/Equal/L/E_Dist_200_LN_3_LD_6_RN_3_RD_10_0.png","img2/200/Congruent/L/C_Dist_200_LN_8_LD_15_RN_7_RD_21_0.png","img2/500/Incongruent/L/I_Dist_500_LN_2_LD_3_RN_4_RD_24_0.png","img2/500/Incongruent/L/I_Dist_500_LN_7_LD_8_RN_9_RD_24_0.png","img2/300/Incongruent/R/I_Dist_300_LN_4_LD_20_RN_2_RD_4_1.png","img2/100/Congruent/L/C_Dist_100_LN_10_LD_25_RN_3_RD_10_0.png","img2/200/Congruent/L/C_Dist_200_LN_11_LD_22_RN_3_RD_10_0.png","img2/500/Incongruent/L/I_Dist_500_LN_5_LD_6_RN_6_RD_18_0.png","img2/100/Equal/R/E_Dist_100_LN_6_LD_12_RN_6_RD_10_1.png","img2/200/Incongruent/L/I_Dist_200_LN_7_LD_10_RN_8_RD_16_0.png","img2/200/Incongruent/L/I_Dist_200_LN_1_LD_2_RN_3_RD_10_0.png","img2/200/Equal/R/E_Dist_200_LN_3_LD_10_RN_3_RD_6_1.png","img2/500/Equal/R/E_Dist_500_LN_2_LD_12_RN_2_RD_3_1.png","img2/500/Congruent/R/C_Dist_500_LN_2_LD_8_RN_21_RD_28_1.png","img2/500/Incongruent/R/I_Dist_500_LN_7_LD_21_RN_5_RD_6_1.png","img2/300/Equal/R/E_Dist_300_LN_18_LD_30_RN_18_RD_20_1.png","img2/500/Incongruent/L/I_Dist_500_LN_5_LD_6_RN_6_RD_18_0.png","img2/300/Congruent/R/C_Dist_300_LN_1_LD_5_RN_6_RD_12_1.png","img2/100/Incongruent/R/I_Dist_100_LN_8_LD_20_RN_1_RD_2_1.png","img2/300/Equal/R/E_Dist_300_LN_9_LD_20_RN_9_RD_12_1.png","img2/100/Incongruent/L/I_Dist_100_LN_1_LD_2_RN_8_RD_20_0.png","img2/300/Incongruent/R/I_Dist_300_LN_4_LD_20_RN_2_RD_4_1.png","img2/100/Congruent/L/C_Dist_100_LN_8_LD_16_RN_2_RD_5_0.png","img2/500/Incongruent/L/I_Dist_500_LN_5_LD_6_RN_6_RD_18_0.png","img2/200/Congruent/R/C_Dist_200_LN_3_LD_10_RN_14_RD_28_1.png","img2/200/Congruent/L/C_Dist_200_LN_20_LD_25_RN_9_RD_15_0.png","img2/200/Incongruent/R/I_Dist_200_LN_11_LD_20_RN_3_RD_4_1.png","img2/300/Equal/L/E_Dist_300_LN_9_LD_12_RN_9_RD_20_0.png","img2/500/Equal/R/E_Dist_500_LN_6_LD_24_RN_6_RD_8_1.png","img2/100/Equal/L/E_Dist_100_LN_6_LD_10_RN_6_RD_12_0.png","img2/200/Incongruent/R/I_Dist_200_LN_9_LD_15_RN_8_RD_10_1.png","img2/100/Congruent/R/C_Dist_100_LN_7_LD_14_RN_15_RD_25_1.png","img2/500/Incongruent/R/I_Dist_500_LN_7_LD_21_RN_5_RD_6_1.png","img2/200/Equal/L/E_Dist_200_LN_3_LD_6_RN_3_RD_10_0.png","img2/300/Equal/L/E_Dist_300_LN_9_LD_12_RN_9_RD_20_0.png","img2/500/Equal/R/E_Dist_500_LN_2_LD_12_RN_2_RD_3_1.png","img2/200/Congruent/L/C_Dist_200_LN_12_LD_20_RN_6_RD_15_0.png","img2/200/Equal/L/E_Dist_200_LN_3_LD_6_RN_3_RD_10_0.png","img2/100/Equal/R/E_Dist_100_LN_6_LD_12_RN_6_RD_10_1.png","img2/200/Incongruent/R/I_Dist_200_LN_3_LD_10_RN_1_RD_2_1.png","img2/100/Equal/L/E_Dist_100_LN_6_LD_10_RN_6_RD_12_0.png","img2/200/Congruent/R/C_Dist_200_LN_3_LD_6_RN_14_RD_20_1.png","img2/500/Congruent/L/C_Dist_500_LN_8_LD_12_RN_4_RD_24_0.png","img2/500/Congruent/R/C_Dist_500_LN_2_LD_5_RN_9_RD_10_1.png","img2/500/Congruent/L/C_Dist_500_LN_4_LD_6_RN_1_RD_6_0.png","img2/300/Equal/R/E_Dist_300_LN_9_LD_20_RN_9_RD_12_1.png","img2/500/Congruent/L/C_Dist_500_LN_25_LD_30_RN_9_RD_27_0.png","img2/500/Equal/R/E_Dist_500_LN_2_LD_12_RN_2_RD_3_1.png","img2/300/Congruent/L/C_Dist_300_LN_20_LD_25_RN_13_RD_26_0.png","img2/500/Congruent/L/C_Dist_500_LN_10_LD_13_RN_7_RD_26_0.png","img2/200/Equal/R/E_Dist_200_LN_3_LD_10_RN_3_RD_6_1.png","img2/100/Congruent/R/C_Dist_100_LN_2_LD_5_RN_6_RD_12_1.png","img2/300/Equal/R/E_Dist_300_LN_9_LD_20_RN_9_RD_12_1.png","img2/100/Incongruent/R/I_Dist_100_LN_11_LD_22_RN_9_RD_15_1.png","img2/200/Incongruent/R/I_Dist_200_LN_6_LD_20_RN_3_RD_6_1.png","img2/300/Incongruent/L/I_Dist_300_LN_2_LD_4_RN_6_RD_30_0.png","img2/100/Equal/L/E_Dist_100_LN_2_LD_12_RN_2_RD_30_0.png","img2/300/Incongruent/L/I_Dist_300_LN_4_LD_5_RN_6_RD_12_0.png","img2/300/Incongruent/L/I_Dist_300_LN_1_LD_2_RN_3_RD_15_0.png","img2/100/Congruent/R/C_Dist_100_LN_6_LD_12_RN_15_RD_25_1.png","img2/200/Incongruent/L/I_Dist_200_LN_4_LD_5_RN_6_RD_10_0.png","img2/300/Incongruent/R/I_Dist_300_LN_4_LD_20_RN_2_RD_4_1.png","img2/300/Equal/R/E_Dist_300_LN_3_LD_10_RN_3_RD_5_1.png","img2/500/Incongruent/L/I_Dist_500_LN_7_LD_8_RN_9_RD_24_0.png","img2/100/Equal/L/E_Dist_100_LN_2_LD_12_RN_2_RD_30_0.png","img2/100/Congruent/R/C_Dist_100_LN_12_LD_30_RN_13_RD_26_1.png","img2/300/Congruent/L/C_Dist_300_LN_20_LD_25_RN_13_RD_26_0.png","img2/100/Incongruent/L/I_Dist_100_LN_4_LD_8_RN_8_RD_20_0.png","img2/100/Congruent/L/C_Dist_100_LN_8_LD_16_RN_2_RD_5_0.png","img2/200/Incongruent/L/I_Dist_200_LN_3_LD_4_RN_11_RD_20_0.png","img2/300/Congruent/R/C_Dist_300_LN_1_LD_5_RN_3_RD_6_1.png","img2/500/Equal/R/E_Dist_500_LN_6_LD_24_RN_6_RD_8_1.png","img2/300/Equal/L/E_Dist_300_LN_9_LD_12_RN_9_RD_20_0.png","img2/300/Incongruent/R/I_Dist_300_LN_4_LD_20_RN_2_RD_4_1.png","img2/300/Incongruent/L/I_Dist_300_LN_8_LD_10_RN_9_RD_18_0.png","img2/100/Congruent/L/C_Dist_100_LN_9_LD_15_RN_8_RD_16_0.png","img2/300/Congruent/L/C_Dist_300_LN_11_LD_22_RN_4_RD_20_0.png","img2/500/Equal/L/E_Dist_500_LN_6_LD_8_RN_6_RD_24_0.png","img2/100/Equal/R/E_Dist_100_LN_6_LD_12_RN_6_RD_10_1.png","img2/500/Equal/R/E_Dist_500_LN_6_LD_24_RN_6_RD_8_1.png","img2/200/Congruent/R/C_Dist_200_LN_5_LD_10_RN_14_RD_20_1.png","img2/300/Incongruent/L/I_Dist_300_LN_3_LD_6_RN_4_RD_20_0.png","img2/200/Incongruent/R/I_Dist_200_LN_3_LD_10_RN_1_RD_2_1.png","img2/200/Equal/L/E_Dist_200_LN_3_LD_6_RN_3_RD_10_0.png","img2/500/Incongruent/R/I_Dist_500_LN_7_LD_21_RN_5_RD_6_1.png","img2/200/Congruent/R/C_Dist_200_LN_7_LD_15_RN_18_RD_27_1.png","img2/500/Congruent/R/C_Dist_500_LN_1_LD_4_RN_12_RD_16_1.png","img2/100/Incongruent/L/I_Dist_100_LN_9_LD_15_RN_13_RD_26_0.png","img2/500/Equal/R/E_Dist_500_LN_6_LD_24_RN_6_RD_8_1.png","img2/200/Incongruent/L/I_Dist_200_LN_4_LD_6_RN_14_RD_30_0.png","img2/100/Congruent/R/C_Dist_100_LN_4_LD_10_RN_15_RD_30_1.png","img2/100/Equal/R/E_Dist_100_LN_6_LD_12_RN_6_RD_10_1.png","img2/300/Congruent/L/C_Dist_300_LN_11_LD_22_RN_2_RD_10_0.png","img2/100/Equal/R/E_Dist_100_LN_6_LD_12_RN_6_RD_10_1.png","img2/500/Congruent/R/C_Dist_500_LN_4_LD_24_RN_12_RD_18_1.png","img2/300/Congruent/L/C_Dist_300_LN_11_LD_22_RN_1_RD_5_0.png","img2/500/Incongruent/R/I_Dist_500_LN_7_LD_21_RN_5_RD_6_1.png","img2/200/Congruent/R/C_Dist_200_LN_3_LD_12_RN_9_RD_20_1.png","img2/100/Incongruent/L/I_Dist_100_LN_2_LD_4_RN_8_RD_20_0.png","img2/100/Incongruent/R/I_Dist_100_LN_8_LD_20_RN_1_RD_2_1.png","img2/200/Equal/L/E_Dist_200_LN_3_LD_6_RN_3_RD_10_0.png","img2/300/Congruent/R/C_Dist_300_LN_7_LD_14_RN_20_RD_25_1.png","img2/200/Congruent/R/C_Dist_200_LN_9_LD_30_RN_13_RD_26_1.png","img2/300/Congruent/R/C_Dist_300_LN_1_LD_30_RN_8_RD_24_1.png","img2/200/Congruent/L/C_Dist_200_LN_4_LD_10_RN_3_RD_15_0.png","img2/100/Equal/L/E_Dist_100_LN_2_LD_12_RN_2_RD_30_0.png","img2/200/Congruent/R/C_Dist_200_LN_3_LD_10_RN_7_RD_14_1.png","img2/100/Congruent/L/C_Dist_100_LN_10_LD_25_RN_3_RD_10_0.png","img2/500/Congruent/R/C_Dist_500_LN_4_LD_24_RN_12_RD_18_1.png","img2/100/Incongruent/R/I_Dist_100_LN_9_LD_18_RN_6_RD_10_1.png","img2/200/Equal/L/E_Dist_200_LN_3_LD_6_RN_3_RD_10_0.png","img2/200/Equal/L/E_Dist_200_LN_3_LD_6_RN_3_RD_10_0.png","img2/200/Incongruent/L/I_Dist_200_LN_7_LD_10_RN_12_RD_24_0.png","img2/500/Equal/L/E_Dist_500_LN_6_LD_8_RN_6_RD_24_0.png","img2/300/Congruent/L/C_Dist_300_LN_8_LD_16_RN_1_RD_5_0.png","img2/200/Incongruent/L/I_Dist_200_LN_7_LD_10_RN_8_RD_16_0.png","img2/500/Equal/L/E_Dist_500_LN_6_LD_8_RN_6_RD_24_0.png","img2/100/Congruent/R/C_Dist_100_LN_4_LD_10_RN_15_RD_30_1.png","img2/100/Equal/L/E_Dist_100_LN_2_LD_12_RN_2_RD_30_0.png","img2/100/Incongruent/R/I_Dist_100_LN_10_LD_25_RN_8_RD_16_1.png","img2/300/Equal/L/E_Dist_300_LN_9_LD_12_RN_9_RD_20_0.png","img2/500/Incongruent/L/I_Dist_500_LN_7_LD_8_RN_9_RD_24_0.png","img2/200/Congruent/L/C_Dist_200_LN_4_LD_8_RN_3_RD_10_0.png","img2/500/Equal/L/E_Dist_500_LN_6_LD_8_RN_6_RD_24_0.png","img2/500/Incongruent/R/I_Dist_500_LN_7_LD_21_RN_5_RD_6_1.png","img2/500/Equal/R/E_Dist_500_LN_6_LD_24_RN_6_RD_8_1.png","img2/100/Incongruent/R/I_Dist_100_LN_9_LD_18_RN_6_RD_10_1.png","img2/100/Incongruent/L/I_Dist_100_LN_9_LD_15_RN_13_RD_26_0.png","img2/500/Congruent/L/C_Dist_500_LN_10_LD_13_RN_7_RD_26_0.png","img2/200/Equal/L/E_Dist_200_LN_3_LD_6_RN_3_RD_10_0.png","img2/100/Equal/R/E_Dist_100_LN_6_LD_12_RN_6_RD_10_1.png","img2/100/Congruent/R/C_Dist_100_LN_12_LD_30_RN_13_RD_26_1.png","img2/300/Incongruent/R/I_Dist_300_LN_4_LD_20_RN_2_RD_4_1.png","img2/500/Incongruent/L/I_Dist_500_LN_7_LD_8_RN_9_RD_24_0.png","img2/100/Equal/L/E_Dist_100_LN_2_LD_12_RN_2_RD_30_0.png","img2/500/Congruent/L/C_Dist_500_LN_8_LD_12_RN_4_RD_24_0.png","img2/200/Incongruent/R/I_Dist_200_LN_14_LD_30_RN_12_RD_18_1.png","img2/300/Equal/L/E_Dist_300_LN_9_LD_12_RN_9_RD_20_0.png","img2/300/Incongruent/R/I_Dist_300_LN_13_LD_26_RN_12_RD_15_1.png","img2/300/Congruent/L/C_Dist_300_LN_20_LD_25_RN_8_RD_16_0.png","img2/100/Congruent/R/C_Dist_100_LN_4_LD_8_RN_6_RD_10_1.png","img2/200/Congruent/R/C_Dist_200_LN_6_LD_20_RN_11_RD_22_1.png","img2/300/Equal/R/E_Dist_300_LN_3_LD_10_RN_3_RD_5_1.png","img2/200/Equal/R/E_Dist_200_LN_3_LD_10_RN_3_RD_6_1.png","img2/500/Incongruent/R/I_Dist_500_LN_7_LD_21_RN_5_RD_6_1.png","img2/200/Equal/R/E_Dist_200_LN_3_LD_10_RN_3_RD_6_1.png","img2/200/Equal/R/E_Dist_200_LN_3_LD_10_RN_3_RD_6_1.png","img2/500/Congruent/R/C_Dist_500_LN_2_LD_5_RN_18_RD_20_1.png","img2/500/Congruent/R/C_Dist_500_LN_3_LD_12_RN_15_RD_20_1.png","img2/300/Incongruent/R/I_Dist_300_LN_4_LD_20_RN_2_RD_4_1.png","img2/300/Equal/L/E_Dist_300_LN_9_LD_12_RN_9_RD_20_0.png","img2/300/Equal/L/E_Dist_300_LN_9_LD_12_RN_9_RD_20_0.png","img2/300/Congruent/R/C_Dist_300_LN_1_LD_5_RN_11_RD_22_1.png","img2/300/Incongruent/L/I_Dist_300_LN_8_LD_10_RN_14_RD_28_0.png","img2/100/Equal/R/E_Dist_100_LN_6_LD_12_RN_6_RD_10_1.png","img2/500/Congruent/L/C_Dist_500_LN_8_LD_12_RN_4_RD_24_0.png","img2/200/Incongruent/R/I_Dist_200_LN_7_LD_15_RN_6_RD_9_1.png","img2/100/Congruent/L/C_Dist_100_LN_3_LD_6_RN_2_RD_5_0.png","img2/500/Equal/R/E_Dist_500_LN_6_LD_24_RN_6_RD_8_1.png","img2/300/Incongruent/R/I_Dist_300_LN_4_LD_20_RN_2_RD_4_1.png","img2/500/Congruent/R/C_Dist_500_LN_1_LD_9_RN_11_RD_18_1.png","img2/300/Congruent/L/C_Dist_300_LN_4_LD_10_RN_1_RD_10_0.png","img2/300/Congruent/R/C_Dist_300_LN_1_LD_5_RN_6_RD_12_1.png","img2/300/Incongruent/L/I_Dist_300_LN_1_LD_2_RN_3_RD_15_0.png","img2/300/Equal/L/E_Dist_300_LN_9_LD_12_RN_9_RD_20_0.png","img2/500/Incongruent/L/I_Dist_500_LN_2_LD_3_RN_4_RD_24_0.png","img2/200/Equal/L/E_Dist_200_LN_3_LD_6_RN_3_RD_10_0.png","img2/500/Equal/L/E_Dist_500_LN_6_LD_8_RN_6_RD_24_0.png","img2/100/Congruent/L/C_Dist_100_LN_9_LD_15_RN_8_RD_16_0.png","img2/500/Equal/L/E_Dist_500_LN_6_LD_8_RN_6_RD_24_0.png","img2/100/Incongruent/L/I_Dist_100_LN_4_LD_8_RN_8_RD_20_0.png","img2/200/Congruent/L/C_Dist_200_LN_8_LD_15_RN_3_RD_9_0.png"],"dist100_C":[["C_Dist_100_LN_10_LD_25_RN_3_RD_10_0.png","C_Dist_100_LN_11_LD_22_RN_4_RD_10_0.png","C_Dist_100_LN_11_LD_22_RN_6_RD_15_0.png","C_Dist_100_LN_15_LD_25_RN_13_RD_26_0.png","C_Dist_100_LN_3_LD_6_RN_2_RD_5_0.png","C_Dist_100_LN_6_LD_20_RN_5_RD_25_0.png","C_Dist_100_LN_8_LD_16_RN_2_RD_5_0.png","C_Dist_100_LN_9_LD_15_RN_8_RD_16_0.png"],["C_Dist_100_LN_1_LD_2_RN_18_RD_30_1.png","C_Dist_100_LN_1_LD_2_RN_3_RD_5_1.png","C_Dist_100_LN_12_LD_30_RN_13_RD_26_1.png","C_Dist_100_LN_2_LD_5_RN_11_RD_22_1.png","C_Dist_100_LN_2_LD_5_RN_6_RD_12_1.png","C_Dist_100_LN_3_LD_20_RN_4_RD_16_1.png","C_Dist_100_LN_4_LD_10_RN_15_RD_30_1.png","C_Dist_100_LN_4_LD_8_RN_6_RD_10_1.png","C_Dist_100_LN_6_LD_12_RN_15_RD_25_1.png","C_Dist_100_LN_7_LD_14_RN_15_RD_25_1.png","C_Dist_100_LN_7_LD_14_RN_9_RD_15_1.png"]],"dist100_I":[["I_Dist_100_LN_1_LD_2_RN_8_RD_20_0.png","I_Dist_100_LN_2_LD_4_RN_6_RD_15_0.png","I_Dist_100_LN_2_LD_4_RN_8_RD_20_0.png","I_Dist_100_LN_3_LD_5_RN_11_RD_22_0.png","I_Dist_100_LN_3_LD_5_RN_8_RD_16_0.png","I_Dist_100_LN_3_LD_6_RN_4_RD_10_0.png","I_Dist_100_LN_3_LD_9_RN_7_RD_30_0.png","I_Dist_100_LN_4_LD_8_RN_8_RD_20_0.png","I_Dist_100_LN_6_LD_10_RN_11_RD_22_0.png","I_Dist_100_LN_6_LD_10_RN_13_RD_26_0.png","I_Dist_100_LN_6_LD_10_RN_7_RD_14_0.png","I_Dist_100_LN_9_LD_10_RN_20_RD_25_0.png","I_Dist_100_LN_9_LD_15_RN_13_RD_26_0.png","I_Dist_100_LN_9_LD_15_RN_14_RD_28_0.png"],["I_Dist_100_LN_10_LD_25_RN_8_RD_16_1.png","I_Dist_100_LN_10_LD_25_RN_9_RD_18_1.png","I_Dist_100_LN_11_LD_22_RN_9_RD_15_1.png","I_Dist_100_LN_12_LD_24_RN_9_RD_15_1.png","I_Dist_100_LN_12_LD_30_RN_2_RD_4_1.png","I_Dist_100_LN_13_LD_26_RN_12_RD_20_1.png","I_Dist_100_LN_13_LD_26_RN_6_RD_10_1.png","I_Dist_100_LN_17_LD_30_RN_10_RD_15_1.png","I_Dist_100_LN_6_LD_12_RN_3_RD_5_1.png","I_Dist_100_LN_8_LD_16_RN_6_RD_10_1.png","I_Dist_100_LN_8_LD_20_RN_1_RD_2_1.png","I_Dist_100_LN_9_LD_18_RN_6_RD_10_1.png"]],"dist100_S":[["E_Dist_100_LN_2_LD_12_RN_2_RD_30_0.png","E_Dist_100_LN_6_LD_10_RN_6_RD_12_0.png"],["E_Dist_100_LN_6_LD_12_RN_6_RD_10_1.png"]],"dist200_C":[["C_Dist_200_LN_11_LD_22_RN_3_RD_10_0.png","C_Dist_200_LN_12_LD_15_RN_6_RD_10_0.png","C_Dist_200_LN_12_LD_20_RN_6_RD_15_0.png","C_Dist_200_LN_14_LD_28_RN_6_RD_20_0.png","C_Dist_200_LN_15_LD_25_RN_4_RD_10_0.png","C_Dist_200_LN_16_LD_20_RN_12_RD_20_0.png","C_Dist_200_LN_16_LD_30_RN_9_RD_27_0.png","C_Dist_200_LN_20_LD_25_RN_9_RD_15_0.png","C_Dist_200_LN_21_LD_30_RN_2_RD_4_0.png","C_Dist_200_LN_4_LD_10_RN_3_RD_15_0.png","C_Dist_200_LN_4_LD_8_RN_3_RD_10_0.png","C_Dist_200_LN_6_LD_15_RN_3_RD_15_0.png","C_Dist_200_LN_7_LD_21_RN_2_RD_15_0.png","C_Dist_200_LN_8_LD_15_RN_2_RD_6_0.png","C_Dist_200_LN_8_LD_15_RN_3_RD_9_0.png","C_Dist_200_LN_8_LD_15_RN_7_RD_21_0.png","C_Dist_200_LN_9_LD_20_RN_4_RD_16_0.png"],["C_Dist_200_LN_1_LD_2_RN_21_RD_30_1.png","C_Dist_200_LN_13_LD_26_RN_14_RD_20_1.png","C_Dist_200_LN_3_LD_10_RN_11_RD_22_1.png","C_Dist_200_LN_3_LD_10_RN_14_RD_28_1.png","C_Dist_200_LN_3_LD_10_RN_7_RD_14_1.png","C_Dist_200_LN_3_LD_12_RN_9_RD_20_1.png","C_Dist_200_LN_3_LD_6_RN_14_RD_20_1.png","C_Dist_200_LN_5_LD_10_RN_14_RD_20_1.png","C_Dist_200_LN_6_LD_12_RN_7_RD_10_1.png","C_Dist_200_LN_6_LD_20_RN_11_RD_22_1.png","C_Dist_200_LN_7_LD_15_RN_18_RD_27_1.png","C_Dist_200_LN_9_LD_30_RN_13_RD_26_1.png"]],"dist200_I":[["I_Dist_200_LN_1_LD_2_RN_3_RD_10_0.png","I_Dist_200_LN_1_LD_3_RN_2_RD_15_0.png","I_Dist_200_LN_3_LD_4_RN_11_RD_20_0.png","I_Dist_200_LN_4_LD_5_RN_6_RD_10_0.png","I_Dist_200_LN_4_LD_6_RN_14_RD_30_0.png","I_Dist_200_LN_7_LD_10_RN_12_RD_24_0.png","I_Dist_200_LN_7_LD_10_RN_14_RD_28_0.png","I_Dist_200_LN_7_LD_10_RN_8_RD_16_0.png"],["I_Dist_200_LN_11_LD_20_RN_3_RD_4_1.png","I_Dist_200_LN_14_LD_30_RN_12_RD_18_1.png","I_Dist_200_LN_14_LD_30_RN_6_RD_9_1.png","I_Dist_200_LN_3_LD_10_RN_1_RD_2_1.png","I_Dist_200_LN_4_LD_30_RN_1_RD_3_1.png","I_Dist_200_LN_6_LD_20_RN_3_RD_6_1.png","I_Dist_200_LN_7_LD_15_RN_4_RD_6_1.png","I_Dist_200_LN_7_LD_15_RN_6_RD_9_1.png","I_Dist_200_LN_9_LD_15_RN_8_RD_10_1.png"]],"dist200_S":[["E_Dist_200_LN_3_LD_6_RN_3_RD_10_0.png"],["E_Dist_200_LN_3_LD_10_RN_3_RD_6_1.png"]],"dist300_C":[["C_Dist_300_LN_11_LD_22_RN_1_RD_5_0.png","C_Dist_300_LN_11_LD_22_RN_2_RD_10_0.png","C_Dist_300_LN_11_LD_22_RN_4_RD_20_0.png","C_Dist_300_LN_12_LD_24_RN_2_RD_10_0.png","C_Dist_300_LN_18_LD_20_RN_9_RD_15_0.png","C_Dist_300_LN_20_LD_25_RN_13_RD_26_0.png","C_Dist_300_LN_20_LD_25_RN_14_RD_28_0.png","C_Dist_300_LN_20_LD_25_RN_5_RD_10_0.png","C_Dist_300_LN_20_LD_25_RN_8_RD_16_0.png","C_Dist_300_LN_20_LD_25_RN_9_RD_18_0.png","C_Dist_300_LN_24_LD_30_RN_2_RD_4_0.png","C_Dist_300_LN_24_LD_30_RN_8_RD_16_0.png","C_Dist_300_LN_3_LD_6_RN_2_RD_10_0.png","C_Dist_300_LN_4_LD_10_RN_1_RD_10_0.png","C_Dist_300_LN_4_LD_5_RN_2_RD_4_0.png","C_Dist_300_LN_8_LD_16_RN_1_RD_5_0.png","C_Dist_300_LN_9_LD_10_RN_3_RD_5_0.png"],["C_Dist_300_LN_1_LD_20_RN_7_RD_20_1.png","C_Dist_300_LN_1_LD_3_RN_19_RD_30_1.png","C_Dist_300_LN_1_LD_30_RN_8_RD_24_1.png","C_Dist_300_LN_1_LD_5_RN_11_RD_22_1.png","C_Dist_300_LN_1_LD_5_RN_3_RD_6_1.png","C_Dist_300_LN_1_LD_5_RN_6_RD_12_1.png","C_Dist_300_LN_2_LD_10_RN_12_RD_24_1.png","C_Dist_300_LN_2_LD_20_RN_10_RD_25_1.png","C_Dist_300_LN_3_LD_12_RN_11_RD_20_1.png","C_Dist_300_LN_3_LD_6_RN_4_RD_5_1.png","C_Dist_300_LN_4_LD_20_RN_13_RD_26_1.png","C_Dist_300_LN_5_LD_25_RN_6_RD_12_1.png","C_Dist_300_LN_5_LD_25_RN_7_RD_14_1.png","C_Dist_300_LN_7_LD_14_RN_20_RD_25_1.png","C_Dist_300_LN_8_LD_15_RN_10_RD_12_1.png"]],"dist300_I":[["I_Dist_300_LN_1_LD_2_RN_2_RD_10_0.png","I_Dist_300_LN_1_LD_2_RN_3_RD_15_0.png","I_Dist_300_LN_2_LD_4_RN_6_RD_30_0.png","I_Dist_300_LN_3_LD_6_RN_4_RD_20_0.png","I_Dist_300_LN_4_LD_5_RN_6_RD_12_0.png","I_Dist_300_LN_4_LD_5_RN_8_RD_16_0.png","I_Dist_300_LN_7_LD_10_RN_8_RD_20_0.png","I_Dist_300_LN_8_LD_10_RN_14_RD_28_0.png","I_Dist_300_LN_8_LD_10_RN_9_RD_18_0.png"],["I_Dist_300_LN_13_LD_26_RN_12_RD_15_1.png","I_Dist_300_LN_4_LD_20_RN_2_RD_4_1.png"]],"dist300_S":[["E_Dist_300_LN_9_LD_12_RN_9_RD_20_0.png"],["E_Dist_300_LN_18_LD_30_RN_18_RD_20_1.png","E_Dist_300_LN_3_LD_10_RN_3_RD_5_1.png","E_Dist_300_LN_9_LD_20_RN_9_RD_12_1.png"]],"dist500_C":[["C_Dist_500_LN_10_LD_13_RN_7_RD_26_0.png","C_Dist_500_LN_10_LD_15_RN_4_RD_24_0.png","C_Dist_500_LN_12_LD_16_RN_3_RD_12_0.png","C_Dist_500_LN_12_LD_18_RN_4_RD_24_0.png","C_Dist_500_LN_15_LD_18_RN_5_RD_15_0.png","C_Dist_500_LN_15_LD_20_RN_1_RD_4_0.png","C_Dist_500_LN_18_LD_27_RN_1_RD_6_0.png","C_Dist_500_LN_20_LD_24_RN_1_RD_3_0.png","C_Dist_500_LN_20_LD_24_RN_3_RD_9_0.png","C_Dist_500_LN_20_LD_24_RN_7_RD_21_0.png","C_Dist_500_LN_20_LD_28_RN_3_RD_14_0.png","C_Dist_500_LN_21_LD_28_RN_6_RD_24_0.png","C_Dist_500_LN_22_LD_28_RN_2_RD_7_0.png","C_Dist_500_LN_25_LD_30_RN_9_RD_27_0.png","C_Dist_500_LN_4_LD_6_RN_1_RD_6_0.png","C_Dist_500_LN_5_LD_6_RN_2_RD_6_0.png","C_Dist_500_LN_6_LD_9_RN_1_RD_6_0.png","C_Dist_500_LN_7_LD_10_RN_1_RD_5_0.png","C_Dist_500_LN_8_LD_12_RN_1_RD_6_0.png","C_Dist_500_LN_8_LD_12_RN_4_RD_24_0.png"],["C_Dist_500_LN_1_LD_4_RN_12_RD_16_1.png","C_Dist_500_LN_1_LD_4_RN_9_RD_12_1.png","C_Dist_500_LN_1_LD_9_RN_11_RD_18_1.png","C_Dist_500_LN_10_LD_24_RN_22_RD_24_1.png","C_Dist_500_LN_2_LD_12_RN_10_RD_15_1.png","C_Dist_500_LN_2_LD_12_RN_12_RD_18_1.png","C_Dist_500_LN_2_LD_12_RN_4_RD_6_1.png","C_Dist_500_LN_2_LD_24_RN_7_RD_12_1.png","C_Dist_500_LN_2_LD_5_RN_18_RD_20_1.png","C_Dist_500_LN_2_LD_5_RN_9_RD_10_1.png","C_Dist_500_LN_2_LD_8_RN_12_RD_16_1.png","C_Dist_500_LN_2_LD_8_RN_21_RD_28_1.png","C_Dist_500_LN_3_LD_10_RN_4_RD_5_1.png","C_Dist_500_LN_3_LD_12_RN_15_RD_20_1.png","C_Dist_500_LN_3_LD_30_RN_6_RD_10_1.png","C_Dist_500_LN_3_LD_8_RN_14_RD_16_1.png","C_Dist_500_LN_4_LD_16_RN_15_RD_20_1.png","C_Dist_500_LN_4_LD_24_RN_12_RD_18_1.png","C_Dist_500_LN_5_LD_14_RN_6_RD_7_1.png","C_Dist_500_LN_7_LD_21_RN_20_RD_24_1.png","C_Dist_500_LN_7_LD_28_RN_12_RD_16_1.png","C_Dist_500_LN_7_LD_28_RN_9_RD_12_1.png","C_Dist_500_LN_9_LD_27_RN_20_RD_24_1.png"]],"dist500_I":[["I_Dist_500_LN_2_LD_3_RN_4_RD_24_0.png","I_Dist_500_LN_5_LD_6_RN_6_RD_18_0.png","I_Dist_500_LN_7_LD_8_RN_9_RD_24_0.png"],["I_Dist_500_LN_7_LD_21_RN_5_RD_6_1.png"]],"dist500_S":[["E_Dist_500_LN_6_LD_8_RN_6_RD_24_0.png"],["E_Dist_500_LN_2_LD_12_RN_2_RD_3_1.png","E_Dist_500_LN_6_LD_24_RN_6_RD_8_1.png"]]}},{"start_time":1549308883028,"click_time":1549308885934,"finger_time":1549308884373,"fix_duration":250,"trial":1,"RT":1345,"MT":1561,"sideResp":2,"stimulus":[],"xmouse":[403.3333435058594,403.3333435058594,403.3333435058594,403.3333435058594,403.3333435058594,405.3333435058594,406,406,406,406,406,406,404,404,404,404,404,404,404,404,404,404,402,402,402,402,402,402,402,402,402,402,400.66668701171875,400.66668701171875,400.66668701171875,400.66668701171875,400.66668701171875,400.66668701171875,400.66668701171875,400.66668701171875,400.66668701171875,400.66668701171875,390.66668701171875,389.3333435058594,389.3333435058594,389.3333435058594,389.3333435058594,389.3333435058594,389.3333435058594,376.66668701171875,373.3333435058594,367.3333435058594,364,362,359.3333435058594,359.3333435058594,359.3333435058594,359.3333435058594,355.3333435058594,355.3333435058594,354.66668701171875,353.3333435058594,352,352,350.66668701171875,350,347.3333435058594,346.66668701171875,345.3333435058594,344.66668701171875,343.3333435058594,341.3333435058594,340,339.3333435058594,338.66668701171875,338,338,338,338,338,337.3333435058594,336,335.3333435058594,334.66668701171875,333.3333435058594,332.66668701171875,332,332,332.66668701171875,334,335.3333435058594,335.3333435058594,335.3333435058594,335.3333435058594,338,338,338,339.3333435058594,339.3333435058594,339.3333435058594,339.3333435058594,343.3333435058594,346.66668701171875,349.3333435058594,350,352,355.3333435058594,358.66668701171875,360.66668701171875,365.3333435058594,367.3333435058594,376,381.3333435058594,388.66668701171875,392.66668701171875,401.3333435058594,406.66668701171875,431.3333435058594,436.66668701171875,446,450.66668701171875,462,482,488,500,516.6666870117188,524,545.3333740234375,559.3333740234375,570,575.3333740234375,585.3333740234375,605.3333740234375,612,624,630,643.3333740234375,661.3333740234375,671.3333740234375,676.6666870117188,685.3333740234375,694,698.6666870117188,700,703.3333740234375],"ymouse":[842.6666870117188,842.6666870117188,829.3333740234375,829.3333740234375,829.3333740234375,828.6666870117188,829.3333740234375,829.3333740234375,829.3333740234375,829.3333740234375,829.3333740234375,829.3333740234375,837.3333740234375,837.3333740234375,837.3333740234375,837.3333740234375,837.3333740234375,837.3333740234375,837.3333740234375,837.3333740234375,837.3333740234375,837.3333740234375,838.6666870117188,838.6666870117188,838.6666870117188,838.6666870117188,838.6666870117188,838.6666870117188,838.6666870117188,838.6666870117188,838.6666870117188,838.6666870117188,837.3333740234375,837.3333740234375,837.3333740234375,837.3333740234375,837.3333740234375,837.3333740234375,837.3333740234375,837.3333740234375,837.3333740234375,837.3333740234375,840,838,838,838,838,838,838,822,818,815.3333740234375,815.3333740234375,816,816.6666870117188,816.6666870117188,816.6666870117188,816.6666870117188,808,806,802.6666870117188,799.3333740234375,796.6666870117188,796,794.6666870117188,793.3333740234375,789.3333740234375,787.3333740234375,784,782,778,772.6666870117188,770.6666870117188,769.3333740234375,768,767.3333740234375,766.6666870117188,764,762,760.6666870117188,757.3333740234375,752,750.6666870117188,747.3333740234375,744.6666870117188,742.6666870117188,740.6666870117188,737.3333740234375,736.6666870117188,736.6666870117188,736.6666870117188,736.6666870117188,736.6666870117188,736.6666870117188,732,730.6666870117188,730.6666870117188,726.6666870117188,726,726,726,723.3333740234375,720,716,714,709.3333740234375,702.6666870117188,698,694.6666870117188,688,684,669.3333740234375,658,642,634,618,609.3333740234375,567.3333740234375,558.6666870117188,544,537.3333740234375,520.6666870117188,488,479.3333435058594,459.3333435058594,434,422.66668701171875,388,364,345.3333435058594,336.66668701171875,318.66668701171875,285.3333435058594,275.3333435058594,254,242.66668701171875,219.33334350585938,186,166.6666717529297,156.6666717529297,137.33334350585938,121.33334350585938,112.66667175292969,107.33333587646484,98],"timestamp_mouse":[4,55,65,84,103,124,144,164,184,205,225,244,266,284,303,324,344,363,384,403,424,444,466,484,504,524,544,564,584,604,623,643,663,684,703,723,743,765,784,803,824,844,864,884,904,924,944,964,984,1004,1024,1045,1064,1083,1103,1124,1144,1164,1184,1204,1224,1245,1264,1284,1304,1324,1345,1365,1383,1404,1424,1446,1465,1485,1504,1527,1544,1564,1583,1604,1624,1647,1664,1684,1704,1723,1744,1764,1783,1806,1824,1843,1864,1884,1904,1924,1944,1969,1983,2004,2024,2044,2065,2084,2103,2124,2146,2166,2184,2203,2223,2247,2264,2285,2304,2324,2344,2368,2384,2405,2423,2444,2465,2483,2504,2524,2544,2566,2583,2604,2624,2644,2665,2683,2704,2724,2745,2765,2784,2803,2824,2846,2866,2884,2905],"xSR":350,"ySR":768,"xT1":30,"yT1":0,"xT2":670,"yT2":0,"toosoon":0,"cond_shown":"Incongruent","ratio_trial":200,"L_num":7,"L_den":15,"R_num":6,"R_den":9,"correct_side":2,"subjID":"1","gender":"No_gender","school":"No_school","age":"No_age"},{"start_time":1549308888264,"click_time":1549308890916,"finger_time":1549308890214,"fix_duration":250,"trial":2,"RT":1950,"MT":702,"sideResp":1,"stimulus":[],"xmouse":[395.3333435058594,395.3333435058594,395.3333435058594,395.3333435058594,395.3333435058594,395.3333435058594,395.3333435058594,395.3333435058594,395.3333435058594,395.3333435058594,394.66668701171875,394.66668701171875,394.66668701171875,394.66668701171875,394.66668701171875,394.66668701171875,394.66668701171875,394.66668701171875,394.66668701171875,394.66668701171875,396,396,396,396,396,396,396,396,396,396,394,394,394,394,394,394,394,394,394,394,395.3333435058594,395.3333435058594,394.66668701171875,394.66668701171875,394.66668701171875,394.66668701171875,394.66668701171875,394.66668701171875,394.66668701171875,394.66668701171875,396.66668701171875,398,398.66668701171875,399.3333435058594,399.3333435058594,399.3333435058594,399.3333435058594,399.3333435058594,399.3333435058594,399.3333435058594,399.3333435058594,399.3333435058594,399.3333435058594,398,398,398,398,398,398,398,398,398,398,398,398,398,398,398,398,398,398,398,398,397.3333435058594,397.3333435058594,397.3333435058594,397.3333435058594,397.3333435058594,391.3333435058594,391.3333435058594,391.3333435058594,390,388,384.66668701171875,382.66668701171875,378,372,362.66668701171875,360,354.66668701171875,351.3333435058594,343.3333435058594,311.3333435058594,298,275.3333435058594,264,243.33334350585938,210,200,194.6666717529297,182.6666717529297,172.6666717529297,164,161.33334350585938,158,150,147.33334350585938,140.6666717529297,132,130,125.33334350585938,123.33334350585938,119.33333587646484,113.33333587646484,110.66667175292969,109.33333587646484,106,100,99.33333587646484,96,92.66667175292969,91.33333587646484,86.66667175292969],"ymouse":[821.3333740234375,821.3333740234375,821.3333740234375,821.3333740234375,821.3333740234375,821.3333740234375,821.3333740234375,821.3333740234375,821.3333740234375,821.3333740234375,822,822,822,822,822,822,822,822,822,822,823.3333740234375,823.3333740234375,823.3333740234375,823.3333740234375,823.3333740234375,823.3333740234375,823.3333740234375,823.3333740234375,823.3333740234375,823.3333740234375,821.3333740234375,821.3333740234375,821.3333740234375,821.3333740234375,821.3333740234375,821.3333740234375,821.3333740234375,821.3333740234375,821.3333740234375,821.3333740234375,831.3333740234375,831.3333740234375,830.6666870117188,830.6666870117188,830.6666870117188,830.6666870117188,830.6666870117188,830.6666870117188,830.6666870117188,830.6666870117188,834,835.3333740234375,834.6666870117188,834,834,834,834,834,834,834,834,834,834,830.6666870117188,830.6666870117188,830.6666870117188,830.6666870117188,830.6666870117188,830.6666870117188,830.6666870117188,830.6666870117188,830.6666870117188,830.6666870117188,828,828,828,828,828,828,828,828,828,828,824.6666870117188,824.6666870117188,824.6666870117188,824.6666870117188,824.6666870117188,818,818,817.3333740234375,815.3333740234375,810,802.6666870117188,798,788,777.3333740234375,762.6666870117188,758,747.3333740234375,740,724.6666870117188,682.6666870117188,666,631.3333740234375,612,571.3333740234375,512.6666870117188,495.3333435058594,480,454,428.66668701171875,394,385.3333435058594,372,338.66668701171875,329.3333435058594,305.3333435058594,272.66668701171875,261.3333435058594,242.66668701171875,231.33334350585938,214.6666717529297,190.6666717529297,177.33334350585938,172,159.33334350585938,141.33334350585938,137.33334350585938,128,118,112.66667175292969,96],"timestamp_mouse":[11,43,49,68,89,108,128,148,167,188,208,228,248,268,289,308,327,347,368,388,408,428,448,468,488,507,529,548,568,588,608,627,648,668,688,708,729,748,767,787,808,828,849,868,888,908,928,950,968,988,1008,1027,1047,1068,1087,1108,1128,1148,1168,1187,1208,1227,1248,1269,1288,1308,1327,1349,1368,1388,1408,1428,1447,1471,1488,1508,1528,1548,1568,1588,1608,1627,1650,1673,1688,1708,1728,1748,1768,1787,1808,1828,1850,1868,1888,1908,1928,1950,1969,1987,2009,2028,2051,2069,2088,2110,2127,2150,2168,2188,2208,2228,2249,2268,2288,2308,2328,2347,2369,2388,2407,2428,2448,2467,2488,2507,2528,2550,2569,2587,2608,2627,2652],"xSR":350,"ySR":768,"xT1":30,"yT1":0,"xT2":670,"yT2":0,"toosoon":0,"cond_shown":"Congruent","ratio_trial":300,"L_num":11,"L_den":22,"R_num":4,"R_den":20,"correct_side":1,"subjID":"1","gender":"No_gender","school":"No_school","age":"No_age"},{"start_time":1549308894601,"click_time":1549308900052,"finger_time":1549308895632,"fix_duration":1426.1592899558734,"trial":3,"RT":1031,"MT":4420,"sideResp":2,"stimulus":[],"xmouse":[394,394,394,394.66668701171875,394.66668701171875,394.66668701171875,394.66668701171875,394.66668701171875,394.66668701171875,394.66668701171875,394.66668701171875,394.66668701171875,393.3333435058594,393.3333435058594,393.3333435058594,393.3333435058594,392.66668701171875,392,391.3333435058594,391.3333435058594,390,388.66668701171875,386,385.3333435058594,384,383.3333435058594,382.66668701171875,382,381.3333435058594,381.3333435058594,381.3333435058594,381.3333435058594,382,382,382,382,382,382,388.66668701171875,388.66668701171875,390.66668701171875,392,394,394.66668701171875,396.66668701171875,398,398.66668701171875,400.66668701171875,402,403.3333435058594,404.66668701171875,406,408,408.66668701171875,409.3333435058594,410,410,410.66668701171875,411.3333435058594,412.66668701171875,413.3333435058594,414.66668701171875,417.3333435058594,418,420,420.66668701171875,422.66668701171875,424.66668701171875,429.3333435058594,430.66668701171875,434,435.3333435058594,438.66668701171875,444,448,450.66668701171875,450.66668701171875,450.66668701171875,450.66668701171875,450.66668701171875,450.66668701171875,450.66668701171875,450.66668701171875,450.66668701171875,450.66668701171875,450.66668701171875,450.66668701171875,450.66668701171875,450.66668701171875,450.66668701171875,450.66668701171875,450.66668701171875,450.66668701171875,450.66668701171875,450.66668701171875,450.66668701171875,450.66668701171875,450.66668701171875,450.66668701171875,450.66668701171875,450.66668701171875,450.66668701171875,450.66668701171875,450.66668701171875,450.66668701171875,450.66668701171875,450.66668701171875,450.66668701171875,450.66668701171875,450.66668701171875,450.66668701171875,450.66668701171875,450.66668701171875,450.66668701171875,450.66668701171875,450.66668701171875,450.66668701171875,450.66668701171875,450.66668701171875,450.66668701171875,450.66668701171875,450.66668701171875,450.66668701171875,450.66668701171875,450.66668701171875,450.66668701171875,450.66668701171875,450.66668701171875,450.66668701171875,450.66668701171875,450.66668701171875,450.66668701171875,450.66668701171875,450.66668701171875,450.66668701171875,450.66668701171875,450.66668701171875,450.66668701171875,450.66668701171875,450.66668701171875,450.66668701171875,450.66668701171875,450.66668701171875,450.66668701171875,450.66668701171875,450.66668701171875,450.66668701171875,450.66668701171875,450.66668701171875,450.66668701171875,450.66668701171875,450.66668701171875,450.66668701171875,450.66668701171875,450.66668701171875,450.66668701171875,450.66668701171875,450.66668701171875,450.66668701171875,450.66668701171875,450.66668701171875,450.66668701171875,450.66668701171875,450.66668701171875,450.66668701171875,450.66668701171875,450.66668701171875,450.66668701171875,450.66668701171875,450.66668701171875,450.66668701171875,450.66668701171875,450.66668701171875,450.66668701171875,450.66668701171875,450.66668701171875,450.66668701171875,450.66668701171875,450.66668701171875,450.66668701171875,450.66668701171875,450.66668701171875,450.66668701171875,450.66668701171875,450.66668701171875,450.66668701171875,450.66668701171875,450.66668701171875,450.66668701171875,450.66668701171875,450.66668701171875,450.66668701171875,450.66668701171875,450.66668701171875,450.66668701171875,450.66668701171875,450.66668701171875,450.66668701171875,450.66668701171875,450.66668701171875,450.66668701171875,450.66668701171875,450.66668701171875,450.66668701171875,450.66668701171875,450.66668701171875,450.66668701171875,450.66668701171875,368.66668701171875,376,377.3333435058594,380,381.3333435058594,384,384.66668701171875,384.66668701171875,384.66668701171875,384.66668701171875,384.66668701171875,384.66668701171875,384.66668701171875,391.3333435058594,394,402,408,410,414.66668701171875,418,421.3333435058594,422.66668701171875,424.66668701171875,425.3333435058594,426.66668701171875,429.3333435058594,432.66668701171875,434,437.3333435058594,440,446,451.3333435058594,454,459.3333435058594,462,470.66668701171875,478.66668701171875,484,493.3333435058594,499.3333435058594,512.6666870117188,524.6666870117188,541.3333740234375,547.3333740234375,558,564,584,594,604.6666870117188,618.6666870117188,623.3333740234375,632,639.3333740234375,642.6666870117188,649.3333740234375,662,667.3333740234375,670.6666870117188,676.6666870117188,684,692,693.3333740234375,696.6666870117188,699.3333740234375],"ymouse":[834,834,834.6666870117188,834,833.3333740234375,833.3333740234375,833.3333740234375,833.3333740234375,833.3333740234375,833.3333740234375,833.3333740234375,833.3333740234375,832,832,831.3333740234375,831.3333740234375,830,829.3333740234375,828.6666870117188,828.6666870117188,828,828.6666870117188,830,831.3333740234375,832.6666870117188,834.6666870117188,834.6666870117188,835.3333740234375,834.6666870117188,834.6666870117188,830.6666870117188,828.6666870117188,827.3333740234375,827.3333740234375,827.3333740234375,827.3333740234375,827.3333740234375,827.3333740234375,808,808,801.3333740234375,798.6666870117188,794.6666870117188,793.3333740234375,790,786.6666870117188,785.3333740234375,779.3333740234375,776,772,770,766,758.6666870117188,756,750.6666870117188,746.6666870117188,745.3333740234375,740.6666870117188,738.6666870117188,736,734.6666870117188,731.3333740234375,725.3333740234375,722,716,712.6666870117188,706.6666870117188,701.3333740234375,693.3333740234375,690,683.3333740234375,679.3333740234375,672,657.3333740234375,646,640,640,640,640,640,640,640,640,640,640,640,640,640,640,640,640,640,640,640,640,640,640,640,640,640,640,640,640,640,640,640,640,640,640,640,640,640,640,640,640,640,640,640,640,640,640,640,640,640,640,640,640,640,640,640,640,640,640,640,640,640,640,640,640,640,640,640,640,640,640,640,640,640,640,640,640,640,640,640,640,640,640,640,640,640,640,640,640,640,640,640,640,640,640,640,640,640,640,640,640,640,640,640,640,640,640,640,640,640,640,640,640,640,640,640,640,640,640,640,640,640,640,640,640,640,640,640,640,640,640,640,640,640,826.6666870117188,828,829.3333740234375,832,833.3333740234375,837.3333740234375,840.6666870117188,842.6666870117188,844,844,844,844,844,840,837.3333740234375,830,824,820.6666870117188,814.6666870117188,809.3333740234375,802.6666870117188,800.6666870117188,796.6666870117188,794.6666870117188,790,783.3333740234375,780,778.6666870117188,776,774.6666870117188,766.6666870117188,758,754,744,738.6666870117188,722.6666870117188,707.3333740234375,697.3333740234375,678.6666870117188,666,633.3333740234375,603.3333740234375,565.3333740234375,552,526,512.6666870117188,462,437.3333435058594,411.3333435058594,370.66668701171875,356.66668701171875,328.66668701171875,302,288,260.66668701171875,222.6666717529297,197.33334350585938,184.6666717529297,161.33334350585938,141.33334350585938,118,112.66667175292969,102,94],"timestamp_mouse":[15,31,55,70,91,110,130,151,171,191,211,231,252,271,293,311,331,351,370,390,411,431,452,471,491,511,531,551,571,591,611,631,652,673,691,710,730,751,771,791,810,831,851,871,891,910,931,952,971,991,1011,1031,1052,1071,1091,1111,1130,1156,1171,1192,1211,1231,1252,1271,1291,1310,1332,1351,1372,1391,1411,1431,1451,1473,1491,1511,1530,1550,1571,1591,1610,1631,1650,1670,1691,1710,1731,1750,1771,1791,1811,1830,1851,1870,1891,1911,1931,1952,1970,1991,2011,2031,2051,2071,2091,2111,2130,2151,2171,2191,2211,2231,2251,2270,2291,2311,2331,2351,2370,2391,2411,2431,2450,2471,2491,2511,2531,2551,2571,2590,2611,2631,2651,2671,2690,2711,2731,2751,2771,2791,2811,2831,2851,2871,2891,2911,2931,2951,2971,2990,3011,3030,3052,3071,3091,3111,3131,3151,3171,3191,3210,3231,3251,3270,3291,3311,3331,3351,3371,3390,3411,3430,3450,3471,3491,3511,3530,3551,3570,3590,3611,3631,3651,3671,3691,3710,3731,3751,3771,3791,3810,3831,3851,3871,3890,3910,3931,3951,3971,3991,4011,4031,4050,4071,4091,4111,4131,4151,4170,4191,4211,4231,4251,4274,4291,4311,4331,4351,4373,4391,4411,4431,4451,4474,4497,4510,4530,4550,4571,4591,4611,4631,4650,4671,4691,4710,4730,4751,4775,4790,4810,4831,4850,4874,4891,4911,4930,4951,4971,4991,5012,5031,5051,5070,5091,5133,5151,5173,5190,5211,5231,5251,5271,5291,5311,5331,5350,5371,5392,5417,5433,5450],"xSR":350,"ySR":768,"xT1":30,"yT1":0,"xT2":670,"yT2":0,"toosoon":0,"cond_shown":"Equal","ratio_trial":500,"L_num":6,"L_den":24,"R_num":6,"R_den":8,"correct_side":2,"subjID":"1","gender":"No_gender","school":"No_school","age":"No_age"},{"start_time":1549308907058,"click_time":1549308909754,"finger_time":1549308908013,"fix_duration":503.77239277878635,"trial":4,"RT":955,"MT":1741,"sideResp":1,"stimulus":[],"xmouse":[384,384,384,384,384,384,384,384,384,388.66668701171875,388.66668701171875,388.66668701171875,388.66668701171875,388.66668701171875,388.66668701171875,388.66668701171875,388.66668701171875,388.66668701171875,388.66668701171875,387.3333435058594,387.3333435058594,387.3333435058594,387.3333435058594,387.3333435058594,387.3333435058594,387.3333435058594,387.3333435058594,387.3333435058594,387.3333435058594,387.3333435058594,387.3333435058594,387.3333435058594,387.3333435058594,387.3333435058594,387.3333435058594,387.3333435058594,387.3333435058594,386.66668701171875,386.66668701171875,384,384,382.66668701171875,382.66668701171875,382.66668701171875,382.66668701171875,382.66668701171875,381.3333435058594,380.66668701171875,378.66668701171875,376.66668701171875,375.3333435058594,372,369.3333435058594,364.66668701171875,363.3333435058594,360.66668701171875,358.66668701171875,357.3333435058594,356,354,354,352.66668701171875,352.66668701171875,353.3333435058594,353.3333435058594,354.66668701171875,354.66668701171875,354.66668701171875,354.66668701171875,358,358,358,358.66668701171875,358.66668701171875,358.66668701171875,359.3333435058594,360,360.66668701171875,360.66668701171875,362.66668701171875,363.3333435058594,364.66668701171875,365.3333435058594,366,366.66668701171875,366.66668701171875,366.66668701171875,366.66668701171875,366,364,364,364,364,364,358,357.3333435058594,347.3333435058594,330,321.3333435058594,300.66668701171875,290,286,280,274.66668701171875,265.3333435058594,262,256.66668701171875,250,246.6666717529297,238.6666717529297,226.6666717529297,222,209.33334350585938,194,175.33334350585938,172,165.33334350585938,160.6666717529297,153.33334350585938,146,142,140,135.33334350585938,132.6666717529297,127.33334350585938,120.66667175292969,116.66667175292969,114.66667175292969,111.33333587646484,105.33333587646484,103.33333587646484,100,96,94.66667175292969,90.66667175292969],"ymouse":[837.3333740234375,837.3333740234375,837.3333740234375,837.3333740234375,837.3333740234375,837.3333740234375,837.3333740234375,837.3333740234375,837.3333740234375,832.6666870117188,832.6666870117188,832.6666870117188,832.6666870117188,832.6666870117188,832.6666870117188,832.6666870117188,832.6666870117188,832.6666870117188,832.6666870117188,830,830,830,830,830,830,830,830,830,830,817.3333740234375,817.3333740234375,817.3333740234375,817.3333740234375,817.3333740234375,817.3333740234375,817.3333740234375,817.3333740234375,794.6666870117188,794.6666870117188,788.6666870117188,788.6666870117188,786,783.3333740234375,778.6666870117188,777.3333740234375,772.6666870117188,768.6666870117188,766,759.3333740234375,754.6666870117188,752.6666870117188,746.6666870117188,741.3333740234375,733.3333740234375,730.6666870117188,726,722,720,716,712.6666870117188,711.3333740234375,710.6666870117188,710,709.3333740234375,708,706.6666870117188,706.6666870117188,706.6666870117188,706.6666870117188,702,702,702,699.3333740234375,698.6666870117188,697.3333740234375,695.3333740234375,694.6666870117188,693.3333740234375,692.6666870117188,690.6666870117188,690,688,687.3333740234375,686,683.3333740234375,682,681.3333740234375,681.3333740234375,679.3333740234375,678,678,678,678,678,666,662,642,613.3333740234375,600.6666870117188,567.3333740234375,550,541.3333740234375,526,513.3333740234375,492.66668701171875,485.3333435058594,472,457.3333435058594,449.3333435058594,433.3333435058594,407.3333435058594,396.66668701171875,368,335.3333435058594,298.66668701171875,290.66668701171875,276,266.66668701171875,250,232,223.33334350585938,218,206.6666717529297,200.6666717529297,189.33334350585938,174,164,159.33334350585938,149.33334350585938,134,129.33334350585938,120.66667175292969,112,108.66667175292969,97.33333587646484],"timestamp_mouse":[16,47,53,74,94,114,134,154,173,194,214,234,254,277,294,314,334,354,375,398,414,434,454,473,494,514,534,554,574,593,614,634,654,674,693,714,734,754,773,799,814,834,854,876,894,915,934,955,976,995,1014,1033,1054,1076,1096,1113,1133,1153,1174,1196,1214,1234,1254,1274,1294,1316,1333,1354,1374,1396,1413,1434,1454,1474,1495,1515,1534,1554,1575,1596,1614,1634,1653,1674,1693,1714,1733,1754,1774,1794,1813,1834,1854,1874,1896,1914,1933,1954,1974,1994,2014,2035,2054,2073,2094,2114,2134,2153,2174,2194,2214,2233,2254,2274,2296,2314,2334,2354,2375,2396,2414,2433,2454,2474,2494,2515,2534,2554,2574,2595,2614,2634,2653,2674,2696],"xSR":350,"ySR":768,"xT1":30,"yT1":0,"xT2":670,"yT2":0,"toosoon":0,"cond_shown":"Congruent","ratio_trial":200,"L_num":9,"L_den":20,"R_num":4,"R_den":16,"correct_side":1,"subjID":"1","gender":"No_gender","school":"No_school","age":"No_age"},{"start_time":1549308913138,"click_time":1549308915512,"finger_time":1549308914772,"fix_duration":1240.0561403146294,"trial":5,"RT":1634,"MT":740,"sideResp":2,"stimulus":[],"xmouse":[396,396,396,396,396,396,395.3333435058594,395.3333435058594,395.3333435058594,395.3333435058594,395.3333435058594,395.3333435058594,395.3333435058594,395.3333435058594,395.3333435058594,395.3333435058594,396,396,396,396,396,396,396,396,396,396,394,394,394,394,392,391.3333435058594,391.3333435058594,391.3333435058594,391.3333435058594,391.3333435058594,390.66668701171875,390,390,390,390,388,388,388,388,388,387.3333435058594,386.66668701171875,385.3333435058594,384.66668701171875,384,384,384,384,384,384,384,384,384,383.3333435058594,383.3333435058594,382.66668701171875,382.66668701171875,382.66668701171875,382.66668701171875,383.3333435058594,383.3333435058594,384,384,384,384,384,384,384,384,393.3333435058594,397.3333435058594,399.3333435058594,400.66668701171875,402.66668701171875,403.3333435058594,408.66668701171875,410,412,412,413.3333435058594,415.3333435058594,419.3333435058594,421.3333435058594,427.3333435058594,434,438,448.66668701171875,456,459.3333435058594,467.3333435058594,478.66668701171875,498.66668701171875,504.66668701171875,515.3333740234375,521.3333740234375,534,551.3333740234375,564,568,579.3333740234375,596.6666870117188,607.3333740234375,614,625.3333740234375,630,652,656.6666870117188,666,670,678.6666870117188,686,689.3333740234375],"ymouse":[822.6666870117188,822.6666870117188,822.6666870117188,822.6666870117188,822.6666870117188,822.6666870117188,822.6666870117188,822.6666870117188,822.6666870117188,822.6666870117188,822.6666870117188,822.6666870117188,822.6666870117188,822.6666870117188,822.6666870117188,822.6666870117188,821.3333740234375,821.3333740234375,821.3333740234375,821.3333740234375,821.3333740234375,821.3333740234375,821.3333740234375,821.3333740234375,821.3333740234375,821.3333740234375,816.6666870117188,816.6666870117188,816.6666870117188,816.6666870117188,814.6666870117188,814,813.3333740234375,812.6666870117188,812,811.3333740234375,810.6666870117188,809.3333740234375,809.3333740234375,809.3333740234375,809.3333740234375,804,803.3333740234375,802,801.3333740234375,800.6666870117188,800,799.3333740234375,799.3333740234375,799.3333740234375,799.3333740234375,799.3333740234375,799.3333740234375,799.3333740234375,799.3333740234375,800,800,800,800,798.6666870117188,798,797.3333740234375,796.6666870117188,796,796,796,796,796,796,796,796,796,796,796,796,788,783.3333740234375,778.6666870117188,776.6666870117188,770.6666870117188,767.3333740234375,752,748,740,736.6666870117188,728.6666870117188,716,703.3333740234375,696,682,667.3333740234375,658,631.3333740234375,614.6666870117188,606,588.6666870117188,564.6666870117188,517.3333740234375,504.66668701171875,480,467.3333435058594,442.66668701171875,404,377.3333435058594,365.3333435058594,340,303.3333435058594,280,269.3333435058594,245.33334350585938,233.33334350585938,185.33334350585938,174.6666717529297,155.33334350585938,144.6666717529297,127.33334350585938,103.33333587646484,94],"timestamp_mouse":[18,55,74,93,114,134,153,174,194,213,234,254,273,294,314,333,358,374,394,415,435,454,473,494,514,534,553,574,593,614,633,654,674,693,714,733,753,774,794,814,835,854,874,894,914,934,954,974,994,1014,1034,1054,1074,1094,1114,1134,1154,1173,1194,1214,1234,1254,1275,1296,1314,1334,1354,1374,1394,1414,1434,1454,1474,1494,1514,1534,1554,1574,1594,1613,1634,1655,1674,1694,1713,1734,1756,1774,1794,1814,1834,1854,1875,1894,1914,1935,1954,1974,1994,2014,2033,2054,2074,2094,2114,2134,2158,2174,2194,2214,2234,2255,2274,2294,2314,2334,2355,2374],"xSR":350,"ySR":768,"xT1":30,"yT1":0,"xT2":670,"yT2":0,"toosoon":0,"cond_shown":"Incongruent","ratio_trial":100,"L_num":9,"L_den":10,"R_num":20,"R_den":25,"correct_side":1,"subjID":"1","gender":"No_gender","school":"No_school","age":"No_age"},{"start_time":1549308919420,"click_time":1549308922173,"finger_time":1549308921633,"fix_duration":305.7048210286126,"trial":6,"RT":2213,"MT":540,"sideResp":2,"stimulus":[],"xmouse":[401.3333435058594,401.3333435058594,401.3333435058594,401.3333435058594,401.3333435058594,406,406,406,406,406,406,406,406,406,406,400.66668701171875,400.66668701171875,400.66668701171875,400.66668701171875,400.66668701171875,400.66668701171875,400.66668701171875,400.66668701171875,400.66668701171875,399.3333435058594,399.3333435058594,400,400,400,400,400,400,400,400,400.66668701171875,400.66668701171875,400.66668701171875,400.66668701171875,400.66668701171875,400.66668701171875,400.66668701171875,400.66668701171875,400.66668701171875,400.66668701171875,400,400,400,400,400,400,400,400,400,400,400,400,400,400,400,400,400,400,400,400,400,400,400,400,400,400,400,400,400,400,400,400,400,400,400,396,396,396,396,396,396,396,396,396,396,392,392,392,392,392,392,392,392,392,392,389.3333435058594,389.3333435058594,389.3333435058594,389.3333435058594,388,386,382,381.3333435058594,380.66668701171875,382,384,392.66668701171875,392.66668701171875,412,429.3333435058594,436.66668701171875,460,476,490.66668701171875,498,511.3333740234375,518,540.6666870117188,546.6666870117188,558.6666870117188,564.6666870117188,577.3333740234375,594.6666870117188,607.3333740234375,612.6666870117188,624.6666870117188,638,656.6666870117188,662.6666870117188,671.3333740234375,675.3333740234375,682.6666870117188,693.3333740234375,698.6666870117188],"ymouse":[822,822,822,822,822,818,818,818,818,818,818,818,818,818,818,823.3333740234375,823.3333740234375,823.3333740234375,823.3333740234375,823.3333740234375,823.3333740234375,823.3333740234375,823.3333740234375,823.3333740234375,825.3333740234375,826,826,825.3333740234375,825.3333740234375,825.3333740234375,825.3333740234375,825.3333740234375,825.3333740234375,825.3333740234375,825.3333740234375,825.3333740234375,825.3333740234375,825.3333740234375,825.3333740234375,825.3333740234375,825.3333740234375,825.3333740234375,825.3333740234375,825.3333740234375,826,826,826,826,826,826,826,826,826,826,826.6666870117188,826.6666870117188,826.6666870117188,826.6666870117188,826.6666870117188,826.6666870117188,826.6666870117188,826.6666870117188,826.6666870117188,826.6666870117188,826.6666870117188,827.3333740234375,827.3333740234375,826.6666870117188,826.6666870117188,826,826,826,826,826,826,826,826,826,826,824.6666870117188,824.6666870117188,824.6666870117188,824.6666870117188,824.6666870117188,824.6666870117188,824.6666870117188,824.6666870117188,824.6666870117188,824.6666870117188,824,824,824,824,824,824,824,824,824,824,815.3333740234375,815.3333740234375,815.3333740234375,815.3333740234375,808.6666870117188,807.3333740234375,800.6666870117188,795.3333740234375,792.6666870117188,786.6666870117188,779.3333740234375,762.6666870117188,762.6666870117188,730.6666870117188,701.3333740234375,688,650.6666870117188,625.3333740234375,600.6666870117188,588.6666870117188,564,554,506,493.3333435058594,469.3333435058594,456,428.66668701171875,384,352.66668701171875,336.66668701171875,304.66668701171875,272,226,212,185.33334350585938,173.33334350585938,148,114.66667175292969,97.33333587646484],"timestamp_mouse":[19,46,52,71,92,111,132,151,171,192,212,232,252,272,292,312,332,352,371,392,411,432,452,472,492,512,532,552,572,592,612,632,652,672,692,712,731,752,771,792,811,831,852,871,892,913,932,952,972,992,1012,1031,1052,1072,1092,1112,1133,1152,1171,1191,1212,1232,1252,1272,1291,1312,1332,1351,1372,1392,1411,1431,1451,1472,1492,1512,1532,1552,1571,1592,1613,1632,1652,1671,1692,1711,1732,1751,1771,1792,1812,1831,1852,1872,1892,1914,1933,1952,1972,1992,2012,2032,2052,2072,2092,2112,2132,2152,2172,2192,2213,2232,2252,2273,2291,2315,2332,2351,2372,2392,2412,2433,2452,2471,2492,2512,2532,2551,2572,2592,2612,2633,2652,2671,2692,2712,2732,2752],"xSR":350,"ySR":768,"xT1":30,"yT1":0,"xT2":670,"yT2":0,"toosoon":0,"cond_shown":"Incongruent","ratio_trial":200,"L_num":14,"L_den":30,"R_num":12,"R_den":18,"correct_side":2,"subjID":"1","gender":"No_gender","school":"No_school","age":"No_age"},{"start_time":1549308925152,"click_time":1549308927213,"finger_time":1549308926672,"fix_duration":831.8896584660334,"trial":7,"RT":1520,"MT":541,"sideResp":2,"stimulus":[],"xmouse":[393.3333435058594,393.3333435058594,393.3333435058594,393.3333435058594,392.66668701171875,392.66668701171875,392,392,392,392,392,392,392,392.66668701171875,392.66668701171875,392.66668701171875,392.66668701171875,392.66668701171875,392.66668701171875,392.66668701171875,392.66668701171875,392.66668701171875,392.66668701171875,392.66668701171875,392,392,391.3333435058594,391.3333435058594,391.3333435058594,392,392,392,392,392,392,392,392,392,392,392,392,392,392,392,392,392,392,392,392,392,391.3333435058594,391.3333435058594,391.3333435058594,391.3333435058594,392,392,392,392,392,392,392,392,392,396.66668701171875,396.66668701171875,396.66668701171875,396.66668701171875,396.66668701171875,396.66668701171875,396.66668701171875,396.66668701171875,403.3333435058594,404.66668701171875,406.66668701171875,410,420,426,439.3333435058594,446.66668701171875,460.66668701171875,480.66668701171875,494,500.66668701171875,515.3333740234375,528.6666870117188,548.6666870117188,554.6666870117188,566.6666870117188,582.6666870117188,582.6666870117188,593.3333740234375,602.6666870117188,616.6666870117188,620.6666870117188,628,632,643.3333740234375,650,656,658.6666870117188,664.6666870117188,672,677.3333740234375],"ymouse":[816.6666870117188,816,816,816,816,816,816,816,816,816,816,816,816,816,816,816,816,816,816,816,816,816,816,816,815.3333740234375,815.3333740234375,815.3333740234375,815.3333740234375,815.3333740234375,814.6666870117188,814.6666870117188,814.6666870117188,814.6666870117188,814.6666870117188,814.6666870117188,814,813.3333740234375,813.3333740234375,813.3333740234375,813.3333740234375,813.3333740234375,813.3333740234375,812.6666870117188,812.6666870117188,812.6666870117188,812.6666870117188,812,812,812,812,812,812,812,811.3333740234375,811.3333740234375,811.3333740234375,811.3333740234375,811.3333740234375,811.3333740234375,811.3333740234375,811.3333740234375,811.3333740234375,811.3333740234375,809.3333740234375,809.3333740234375,807.3333740234375,806.6666870117188,806.6666870117188,806.6666870117188,806.6666870117188,806.6666870117188,798,796.6666870117188,791.3333740234375,782.6666870117188,760,748.6666870117188,717.3333740234375,700.6666870117188,672.6666870117188,631.3333740234375,600.6666870117188,585.3333740234375,554,524.6666870117188,478.66668701171875,464.66668701171875,435.3333435058594,393.3333435058594,393.3333435058594,366,340,300.66668701171875,289.3333435058594,264.66668701171875,252.66668701171875,217.33334350585938,196,174.6666717529297,163.33334350585938,143.33334350585938,112.66667175292969,96.66667175292969],"timestamp_mouse":[10,44,60,79,99,120,140,160,179,200,220,239,260,280,300,320,340,360,380,401,419,440,460,480,504,519,540,560,580,601,620,640,659,680,700,720,740,759,780,800,820,840,859,879,900,920,940,960,980,1000,1021,1040,1059,1080,1100,1120,1140,1160,1180,1200,1221,1240,1260,1279,1300,1321,1339,1360,1380,1401,1422,1439,1460,1480,1500,1520,1540,1560,1580,1600,1622,1641,1659,1679,1700,1721,1739,1760,1798,1800,1821,1840,1859,1880,1900,1920,1939,1960,1979,2000,2020,2041,2060],"xSR":350,"ySR":768,"xT1":30,"yT1":0,"xT2":670,"yT2":0,"toosoon":0,"cond_shown":"Incongruent","ratio_trial":100,"L_num":10,"L_den":25,"R_num":8,"R_den":16,"correct_side":2,"subjID":"1","gender":"No_gender","school":"No_school","age":"No_age"},{"start_time":1549308928846,"click_time":1549308931173,"finger_time":1549308930694,"fix_duration":250,"trial":8,"RT":1848,"MT":479,"sideResp":1,"stimulus":[],"xmouse":[404.66668701171875,404.66668701171875,404,404,404,404,404,404,404,404,404,404,400.66668701171875,400.66668701171875,400.66668701171875,400.66668701171875,400.66668701171875,400.66668701171875,400.66668701171875,400.66668701171875,400.66668701171875,400.66668701171875,398,398,398,398,398,398,398,395.3333435058594,394.66668701171875,394,393.3333435058594,392.66668701171875,392,391.3333435058594,391.3333435058594,390.66668701171875,390,389.3333435058594,389.3333435058594,388.66668701171875,388,388,387.3333435058594,386.66668701171875,386,385.3333435058594,384.66668701171875,384.66668701171875,384.66668701171875,384.66668701171875,384,384,384,384,384,383.3333435058594,383.3333435058594,383.3333435058594,382.66668701171875,382.66668701171875,382,382,382,382,382,382,381.3333435058594,381.3333435058594,381.3333435058594,381.3333435058594,381.3333435058594,381.3333435058594,381.3333435058594,382,382,382,381.3333435058594,381.3333435058594,381.3333435058594,380.66668701171875,380.66668701171875,380,380,380,380,380,380,380,380,379.3333435058594,373.3333435058594,362,345.3333435058594,338,324,317.3333435058594,299.3333435058594,289.3333435058594,283.3333435058594,274.66668701171875,264,250,244.6666717529297,235.33334350585938,224,218.6666717529297,200.6666717529297,189.33334350585938,179.33334350585938,164.6666717529297,145.33334350585938,134,128,114.66667175292969,109.33333587646484],"ymouse":[850,850,849.3333740234375,849.3333740234375,849.3333740234375,849.3333740234375,849.3333740234375,849.3333740234375,849.3333740234375,849.3333740234375,849.3333740234375,849.3333740234375,838.6666870117188,838.6666870117188,838.6666870117188,838.6666870117188,838.6666870117188,838.6666870117188,838.6666870117188,838.6666870117188,838.6666870117188,838.6666870117188,834,834,834,834,834,834,834,829.3333740234375,828.6666870117188,828.6666870117188,828,827.3333740234375,826.6666870117188,826,826,824.6666870117188,824,823.3333740234375,822.6666870117188,822,821.3333740234375,820.6666870117188,820.6666870117188,820,820,819.3333740234375,819.3333740234375,818.6666870117188,818,818,817.3333740234375,817.3333740234375,816.6666870117188,816,816,815.3333740234375,815.3333740234375,814.6666870117188,814,814,813.3333740234375,813.3333740234375,812.6666870117188,812.6666870117188,812.6666870117188,812,811.3333740234375,810.6666870117188,810,809.3333740234375,808.6666870117188,807.3333740234375,806.6666870117188,806.6666870117188,806,804.6666870117188,804,804,804,802.6666870117188,802,800.6666870117188,800.6666870117188,800,798.6666870117188,796,794.6666870117188,792.6666870117188,788,784,761.3333740234375,731.3333740234375,692.6666870117188,674,640.6666870117188,624,571.3333740234375,535.3333740234375,518.6666870117188,486,452,402,386.66668701171875,356,325.3333435058594,312,270.66668701171875,242.66668701171875,228,197.33334350585938,159.33334350585938,136.6666717529297,125.33334350585938,104.66667175292969,95.33333587646484],"timestamp_mouse":[5,26,56,67,86,106,126,146,166,186,206,226,247,266,286,305,326,346,366,386,406,426,446,466,486,506,526,547,565,586,606,626,646,665,686,706,726,747,766,786,805,826,847,866,886,906,926,946,966,986,1006,1026,1047,1066,1086,1105,1125,1148,1165,1186,1206,1225,1247,1266,1288,1306,1326,1346,1365,1386,1406,1426,1446,1467,1487,1506,1526,1550,1569,1585,1605,1626,1646,1667,1687,1706,1725,1747,1766,1786,1806,1826,1848,1871,1890,1906,1926,1946,1966,1986,2005,2026,2046,2069,2086,2106,2125,2146,2167,2186,2206,2225,2249,2268,2286,2306,2326],"xSR":350,"ySR":768,"xT1":30,"yT1":0,"xT2":670,"yT2":0,"toosoon":0,"cond_shown":"Equal","ratio_trial":100,"L_num":2,"L_den":12,"R_num":2,"R_den":30,"correct_side":1,"subjID":"1","gender":"No_gender","school":"No_school","age":"No_age"},{"start_time":1549308933788,"click_time":1549308935655,"finger_time":1549308935133,"fix_duration":1474.8301298278775,"trial":9,"RT":1345,"MT":522,"sideResp":1,"stimulus":[],"xmouse":[392.66668701171875,392,392,392,392,392,392,392,392,392,392,392,392,392,392,392,392,392,392,392,392,392,392,392,392,392,392,391.3333435058594,391.3333435058594,391.3333435058594,391.3333435058594,391.3333435058594,391.3333435058594,391.3333435058594,391.3333435058594,391.3333435058594,391.3333435058594,392,392,392,392,392,392,392,392,392,392,391.3333435058594,391.3333435058594,391.3333435058594,390.66668701171875,390.66668701171875,390.66668701171875,390.66668701171875,390.66668701171875,390.66668701171875,381.3333435058594,379.3333435058594,378.66668701171875,378.66668701171875,379.3333435058594,379.3333435058594,379.3333435058594,379.3333435058594,373.3333435058594,370,364,339.3333435058594,318.66668701171875,310,292,284,252.66668701171875,246.6666717529297,233.33334350585938,228,217.33334350585938,202.6666717529297,190.6666717529297,184,170,164,150,132,118.66667175292969,114,101.33333587646484,88.66667175292969,72.66667175292969,70,63.333335876464844,61.333335876464844,58,52.66666793823242],"ymouse":[833.3333740234375,833.3333740234375,833.3333740234375,833.3333740234375,833.3333740234375,833.3333740234375,833.3333740234375,833.3333740234375,833.3333740234375,833.3333740234375,833.3333740234375,833.3333740234375,833.3333740234375,833.3333740234375,833.3333740234375,833.3333740234375,832.6666870117188,832.6666870117188,832.6666870117188,832.6666870117188,832.6666870117188,832.6666870117188,832.6666870117188,832.6666870117188,832.6666870117188,832.6666870117188,832.6666870117188,832.6666870117188,832.6666870117188,832.6666870117188,832.6666870117188,832.6666870117188,832.6666870117188,832.6666870117188,832.6666870117188,832.6666870117188,832.6666870117188,832,832,832,832,832,832,832,832,832,832,832,832,832,833.3333740234375,833.3333740234375,833.3333740234375,833.3333740234375,833.3333740234375,833.3333740234375,836.6666870117188,834.6666870117188,832.6666870117188,832,829.3333740234375,829.3333740234375,829.3333740234375,829.3333740234375,806,799.3333740234375,783.3333740234375,730.6666870117188,688.6666870117188,670.6666870117188,634.6666870117188,614.6666870117188,536.6666870117188,517.3333740234375,484,466,436,396.66668701171875,368.66668701171875,356,329.3333435058594,317.3333435058594,294,258,234.6666717529297,222.6666717529297,198,175.33334350585938,144,135.33334350585938,124.66667175292969,120,109.33333587646484,94.66667175292969],"timestamp_mouse":[4,23,49,64,84,103,124,144,164,184,204,223,244,264,284,304,328,344,364,384,404,423,445,464,484,503,524,544,563,584,603,624,644,664,683,703,724,744,764,784,804,823,844,864,883,904,924,944,964,983,1005,1024,1044,1064,1084,1104,1124,1145,1163,1184,1204,1224,1245,1263,1284,1304,1324,1345,1364,1383,1403,1424,1445,1464,1484,1503,1523,1545,1564,1584,1604,1624,1643,1667,1684,1704,1723,1743,1767,1783,1804,1823,1844,1866],"xSR":350,"ySR":768,"xT1":30,"yT1":0,"xT2":670,"yT2":0,"toosoon":0,"cond_shown":"Incongruent","ratio_trial":500,"L_num":7,"L_den":8,"R_num":9,"R_den":24,"correct_side":1,"subjID":"1","gender":"No_gender","school":"No_school","age":"No_age"},{"start_time":1549308937057,"click_time":1549308938473,"finger_time":1549308937853,"fix_duration":321.69027385588913,"trial":10,"RT":796,"MT":620,"sideResp":2,"stimulus":[],"xmouse":[397.3333435058594,397.3333435058594,397.3333435058594,396.66668701171875,396,395.3333435058594,395.3333435058594,395.3333435058594,394.66668701171875,394.66668701171875,394.66668701171875,394,394,394,393.3333435058594,393.3333435058594,392.66668701171875,392.66668701171875,392.66668701171875,392.66668701171875,392.66668701171875,392.66668701171875,392,390.66668701171875,388.66668701171875,385.3333435058594,381.3333435058594,379.3333435058594,375.3333435058594,373.3333435058594,373.3333435058594,374,376,376,376,376,376,376,386,396.66668701171875,405.3333435058594,410.66668701171875,422.66668701171875,429.3333435058594,450.66668701171875,464.66668701171875,481.3333435058594,486.66668701171875,502.66668701171875,524.6666870117188,540.6666870117188,547.3333740234375,562,568.6666870117188,580.6666870117188,598,607.3333740234375,613.3333740234375,622,628.6666870117188,637.3333740234375,639.3333740234375,644.6666870117188,646.6666870117188,650.6666870117188,656,660,662,666.6666870117188,669.3333740234375,682],"ymouse":[828,828,828,828,827.3333740234375,827.3333740234375,827.3333740234375,826.6666870117188,826.6666870117188,827.3333740234375,827.3333740234375,826.6666870117188,826.6666870117188,826.6666870117188,826.6666870117188,826.6666870117188,826.6666870117188,826.6666870117188,826.6666870117188,826.6666870117188,826.6666870117188,826.6666870117188,826.6666870117188,827.3333740234375,827.3333740234375,829.3333740234375,830.6666870117188,831.3333740234375,832.6666870117188,833.3333740234375,832.6666870117188,831.3333740234375,828.6666870117188,828.6666870117188,828.6666870117188,828.6666870117188,828.6666870117188,828.6666870117188,796.6666870117188,757.3333740234375,716,696,657.3333740234375,637.3333740234375,576,535.3333740234375,494,476.66668701171875,438.66668701171875,386,353.3333435058594,337.3333435058594,306.66668701171875,293.3333435058594,267.3333435058594,232.6666717529297,210.6666717529297,201.33334350585938,184,168,150.6666717529297,146.6666717529297,136,131.33334350585938,123.33334350585938,111.33333587646484,104,100.66667175292969,92.66667175292969,88,66.66667175292969],"timestamp_mouse":[17,53,54,74,94,114,134,155,175,196,215,235,255,275,295,314,334,355,374,395,415,434,455,475,497,515,535,555,575,596,615,635,655,675,694,715,735,755,775,796,816,835,855,875,896,915,934,955,975,996,1016,1035,1054,1074,1095,1116,1135,1154,1175,1195,1217,1235,1255,1275,1295,1318,1335,1355,1375,1395,1416],"xSR":350,"ySR":768,"xT1":30,"yT1":0,"xT2":670,"yT2":0,"toosoon":0,"cond_shown":"Incongruent","ratio_trial":100,"L_num":3,"L_den":9,"R_num":7,"R_den":30,"correct_side":1,"subjID":"1","gender":"No_gender","school":"No_school","age":"No_age"},{"start_time":1549308941507,"click_time":1549308943615,"finger_time":1549308942912,"fix_duration":872.4378045031434,"trial":11,"RT":1405,"MT":703,"sideResp":2,"stimulus":[],"xmouse":[398.66668701171875,398.66668701171875,398.66668701171875,397.3333435058594,397.3333435058594,397.3333435058594,397.3333435058594,397.3333435058594,397.3333435058594,397.3333435058594,397.3333435058594,397.3333435058594,397.3333435058594,396.66668701171875,396.66668701171875,396.66668701171875,396.66668701171875,396.66668701171875,396.66668701171875,396.66668701171875,396.66668701171875,396.66668701171875,396.66668701171875,396.66668701171875,396.66668701171875,396.66668701171875,396.66668701171875,396.66668701171875,396.66668701171875,396.66668701171875,396.66668701171875,396.66668701171875,396.66668701171875,398,398,398,398,398,398,398,398,398,398,398,398,398,398,398,398,398,398,398,398,399.3333435058594,399.3333435058594,399.3333435058594,399.3333435058594,399.3333435058594,399.3333435058594,399.3333435058594,399.3333435058594,399.3333435058594,399.3333435058594,400,400,400,400,400,400,402,404,414,419.3333435058594,429.3333435058594,443.3333435058594,462,468,479.3333435058594,482.66668701171875,502.66668701171875,507.3333740234375,516.6666870117188,521.3333740234375,521.3333740234375,546,555.3333740234375,560.6666870117188,570,581.3333740234375,586.6666870117188,601.3333740234375,610.6666870117188,615.3333740234375,625.3333740234375,638.6666870117188,646.6666870117188,652.6666870117188,655.3333740234375,662,668.6666870117188,670.6666870117188,676,681.3333740234375,683.3333740234375,687.3333740234375,689.3333740234375],"ymouse":[833.3333740234375,833.3333740234375,833.3333740234375,836.6666870117188,836,836,836,836,836,836,836,836,836,836.6666870117188,836.6666870117188,836.6666870117188,836.6666870117188,836.6666870117188,836.6666870117188,836.6666870117188,836.6666870117188,836.6666870117188,836.6666870117188,836,836,836,836,836,836,836,836,836,836,834.6666870117188,834.6666870117188,834.6666870117188,834.6666870117188,834.6666870117188,834.6666870117188,834.6666870117188,834.6666870117188,834.6666870117188,834.6666870117188,835.3333740234375,835.3333740234375,835.3333740234375,835.3333740234375,835.3333740234375,835.3333740234375,835.3333740234375,835.3333740234375,835.3333740234375,835.3333740234375,836,836,836,836,836,836,836,836,836,836,833.3333740234375,833.3333740234375,833.3333740234375,824.6666870117188,819.3333740234375,816,776.6666870117188,760.6666870117188,732,720,701.3333740234375,676.6666870117188,639.3333740234375,628,604.6666870117188,593.3333740234375,552,541.3333740234375,520.6666870117188,510,510,455.3333435058594,432,422,400,376,364,328.66668701171875,304,292.66668701171875,269.3333435058594,236.6666717529297,215.33334350585938,196,186.6666717529297,170,150.6666717529297,146,135.33334350585938,124.66667175292969,120,106,96.66667175292969],"timestamp_mouse":[10,38,45,65,84,105,125,145,164,185,205,224,245,265,284,305,324,344,364,385,405,425,445,465,485,504,525,545,565,584,605,625,645,665,685,704,724,745,765,785,804,824,844,865,885,904,925,945,965,985,1005,1025,1045,1065,1085,1105,1125,1145,1167,1185,1204,1225,1245,1266,1286,1305,1325,1345,1365,1385,1405,1425,1445,1465,1485,1505,1525,1545,1565,1585,1604,1626,1645,1665,1687,1705,1724,1745,1765,1785,1806,1825,1845,1865,1888,1905,1925,1945,1965,1987,2005,2025,2045,2065,2086,2105],"xSR":350,"ySR":768,"xT1":30,"yT1":0,"xT2":670,"yT2":0,"toosoon":0,"cond_shown":"Congruent","ratio_trial":500,"L_num":20,"L_den":24,"R_num":1,"R_den":3,"correct_side":1,"subjID":"1","gender":"No_gender","school":"No_school","age":"No_age"},{"start_time":1549308946839,"click_time":1549308949672,"finger_time":1549308949152,"fix_duration":1324.374943836141,"trial":12,"RT":2313,"MT":520,"sideResp":1,"stimulus":[],"xmouse":[403.3333435058594,403.3333435058594,403.3333435058594,401.3333435058594,401.3333435058594,401.3333435058594,401.3333435058594,401.3333435058594,401.3333435058594,401.3333435058594,401.3333435058594,401.3333435058594,401.3333435058594,397.3333435058594,397.3333435058594,397.3333435058594,397.3333435058594,397.3333435058594,397.3333435058594,397.3333435058594,397.3333435058594,397.3333435058594,397.3333435058594,398,398,398,398,398,398,398,398,398,398,398.66668701171875,398.66668701171875,398.66668701171875,398.66668701171875,398.66668701171875,398.66668701171875,398.66668701171875,398.66668701171875,398.66668701171875,398.66668701171875,398.66668701171875,398.66668701171875,398.66668701171875,398.66668701171875,398.66668701171875,398.66668701171875,398.66668701171875,398.66668701171875,398.66668701171875,398.66668701171875,399.3333435058594,399.3333435058594,399.3333435058594,399.3333435058594,399.3333435058594,399.3333435058594,399.3333435058594,399.3333435058594,399.3333435058594,399.3333435058594,399.3333435058594,399.3333435058594,399.3333435058594,399.3333435058594,399.3333435058594,399.3333435058594,399.3333435058594,399.3333435058594,399.3333435058594,399.3333435058594,399.3333435058594,399.3333435058594,399.3333435058594,399.3333435058594,399.3333435058594,399.3333435058594,399.3333435058594,396,396,396,396,396,396,396,395.3333435058594,395.3333435058594,395.3333435058594,395.3333435058594,395.3333435058594,395.3333435058594,395.3333435058594,395.3333435058594,395.3333435058594,395.3333435058594,395.3333435058594,395.3333435058594,395.3333435058594,394.66668701171875,394,392.66668701171875,392,388.66668701171875,385.3333435058594,383.3333435058594,382,381.3333435058594,382.66668701171875,382.66668701171875,382.66668701171875,382.66668701171875,382.66668701171875,382.66668701171875,357.3333435058594,346.66668701171875,342,333.3333435058594,320,312,306,297.3333435058594,292,270,263.3333435058594,251.33334350585938,244.6666717529297,230.6666717529297,207.33334350585938,192,184,169.33334350585938,162.6666717529297,148,130,120,116.66667175292969,110.66667175292969,108,98.66667175292969,96.66667175292969],"ymouse":[838.6666870117188,838.6666870117188,838.6666870117188,839.3333740234375,839.3333740234375,839.3333740234375,839.3333740234375,839.3333740234375,839.3333740234375,839.3333740234375,839.3333740234375,839.3333740234375,839.3333740234375,842.6666870117188,842.6666870117188,842.6666870117188,842.6666870117188,842.6666870117188,842.6666870117188,842.6666870117188,842.6666870117188,842.6666870117188,842.6666870117188,842,842,842,842,842,842,842,842,842,842,841.3333740234375,841.3333740234375,841.3333740234375,841.3333740234375,841.3333740234375,841.3333740234375,841.3333740234375,841.3333740234375,841.3333740234375,841.3333740234375,840.6666870117188,840.6666870117188,840.6666870117188,840.6666870117188,840.6666870117188,840.6666870117188,840.6666870117188,840.6666870117188,840.6666870117188,840.6666870117188,840,840,840,840,840,840,840,840,840,840,840,840,840,840,840,840,840,839.3333740234375,839.3333740234375,839.3333740234375,839.3333740234375,839.3333740234375,839.3333740234375,839.3333740234375,839.3333740234375,839.3333740234375,839.3333740234375,838.6666870117188,838.6666870117188,838.6666870117188,838.6666870117188,838.6666870117188,838.6666870117188,838.6666870117188,838,838,838,838,838,838,838,838,838,838,838,837.3333740234375,836.6666870117188,836.6666870117188,836,834.6666870117188,834,832.6666870117188,832,832,832,830.6666870117188,826,826,826,826,826,826,709.3333740234375,679.3333740234375,666,637.3333740234375,593.3333740234375,564,546,514.6666870117188,498,432,416,384,368,335.3333435058594,288,258,244.66668701171875,218.6666717529297,206.6666717529297,184,156.6666717529297,140.6666717529297,133.33334350585938,123.33334350585938,119.33334350585938,100,96.66667175292969],"timestamp_mouse":[18,42,54,73,93,112,132,152,173,193,213,233,253,275,292,312,333,353,373,392,413,433,453,473,493,514,532,553,574,593,613,633,653,674,693,713,733,753,773,793,813,833,853,874,893,913,933,953,973,993,1012,1033,1052,1073,1092,1113,1133,1153,1173,1193,1212,1232,1253,1273,1293,1312,1333,1353,1373,1392,1413,1433,1453,1473,1494,1513,1533,1553,1572,1593,1613,1633,1653,1673,1692,1713,1733,1753,1773,1792,1813,1833,1853,1872,1892,1912,1933,1953,1973,1995,2013,2033,2053,2073,2097,2113,2133,2153,2173,2201,2213,2233,2252,2273,2292,2313,2333,2354,2373,2396,2413,2433,2453,2473,2495,2512,2533,2553,2572,2595,2614,2633,2652,2673,2693,2713,2733,2753,2773,2793,2815,2833],"xSR":350,"ySR":768,"xT1":30,"yT1":0,"xT2":670,"yT2":0,"toosoon":0,"cond_shown":"Incongruent","ratio_trial":300,"L_num":8,"L_den":10,"R_num":9,"R_den":18,"correct_side":1,"subjID":"1","gender":"No_gender","school":"No_school","age":"No_age"},{"start_time":1549308951768,"click_time":1549308954332,"finger_time":1549308953632,"fix_duration":612.2805685778922,"trial":13,"RT":1864,"MT":700,"sideResp":2,"stimulus":[],"xmouse":[428,427.3333435058594,427.3333435058594,425.3333435058594,425.3333435058594,425.3333435058594,425.3333435058594,425.3333435058594,425.3333435058594,425.3333435058594,425.3333435058594,425.3333435058594,425.3333435058594,402.66668701171875,402.66668701171875,402.66668701171875,402.66668701171875,402.66668701171875,402.66668701171875,402.66668701171875,402.66668701171875,402.66668701171875,402.66668701171875,400,400,400,400,400,400,400,400,400,400,400,400.66668701171875,400,400,400,400,400,400,400,400,400,400,400,400,400,400,400,400,400,399.3333435058594,399.3333435058594,399.3333435058594,399.3333435058594,399.3333435058594,398.66668701171875,398.66668701171875,398.66668701171875,398.66668701171875,399.3333435058594,399.3333435058594,399.3333435058594,399.3333435058594,399.3333435058594,399.3333435058594,399.3333435058594,399.3333435058594,399.3333435058594,399.3333435058594,399.3333435058594,399.3333435058594,399.3333435058594,399.3333435058594,399.3333435058594,399.3333435058594,399.3333435058594,399.3333435058594,397.3333435058594,397.3333435058594,396.66668701171875,395.3333435058594,394.66668701171875,394,394,394.66668701171875,394.66668701171875,394.66668701171875,394.66668701171875,395.3333435058594,397.3333435058594,398.66668701171875,402.66668701171875,405.3333435058594,410,424,429.3333435058594,441.3333435058594,446.66668701171875,460.66668701171875,469.3333435058594,474,482.66668701171875,492.66668701171875,506,510.66668701171875,520.6666870117188,525.3333740234375,534,549.3333740234375,558.6666870117188,562,572.6666870117188,582.6666870117188,594.6666870117188,600,607.3333740234375,615.3333740234375,622.6666870117188,632,639.3333740234375,642.6666870117188,648.6666870117188,657.3333740234375,663.3333740234375,666,669.3333740234375,672],"ymouse":[833.3333740234375,833.3333740234375,833.3333740234375,834,834,834,834,834,834,834,834,834,834,843.3333740234375,843.3333740234375,843.3333740234375,843.3333740234375,843.3333740234375,843.3333740234375,843.3333740234375,843.3333740234375,843.3333740234375,843.3333740234375,833.3333740234375,833.3333740234375,832,831.3333740234375,830.6666870117188,830,830,830,829.3333740234375,829.3333740234375,829.3333740234375,829.3333740234375,829.3333740234375,829.3333740234375,830,830,830,830,830,830,830,830.6666870117188,830.6666870117188,830.6666870117188,830.6666870117188,830.6666870117188,830.6666870117188,830.6666870117188,830.6666870117188,830.6666870117188,830.6666870117188,830.6666870117188,830.6666870117188,830,830,830,829.3333740234375,830,830,830,830,830,830,829.3333740234375,829.3333740234375,829.3333740234375,830,830,830.6666870117188,831.3333740234375,832,832,832,832,832,832,827.3333740234375,826.6666870117188,826,824.6666870117188,824,822.6666870117188,821.3333740234375,818.6666870117188,817.3333740234375,812.6666870117188,803.3333740234375,800,791.3333740234375,785.3333740234375,766.6666870117188,757.3333740234375,738.6666870117188,698,685.3333740234375,652.6666870117188,636.6666870117188,596.6666870117188,571.3333740234375,559.3333740234375,534,510,475.3333435058594,463.3333435058594,440.66668701171875,429.3333435058594,407.3333435058594,374.66668701171875,354,345.3333435058594,324,303.3333435058594,274,261.3333435058594,243.33334350585938,226,212.6666717529297,188.6666717529297,172,164.6666717529297,148.6666717529297,127.33334350585938,113.33334350585938,106.66667175292969,97.33333587646484,88.66667175292969],"timestamp_mouse":[22,27,43,67,87,105,124,143,164,184,203,224,244,263,283,303,324,344,363,384,405,423,444,464,483,503,524,544,563,583,604,624,644,664,683,704,723,744,764,784,804,824,843,864,884,904,923,944,964,994,1004,1024,1044,1064,1084,1104,1123,1144,1164,1186,1207,1224,1244,1263,1284,1304,1324,1344,1364,1386,1405,1424,1444,1464,1485,1504,1523,1544,1564,1587,1604,1624,1644,1664,1686,1704,1724,1744,1763,1787,1804,1824,1843,1863,1883,1904,1924,1943,1963,1984,2005,2024,2044,2064,2083,2104,2124,2144,2164,2184,2206,2224,2244,2264,2284,2303,2324,2343,2364,2384,2404,2424,2444,2464,2488,2505,2524,2544,2564],"xSR":350,"ySR":768,"xT1":30,"yT1":0,"xT2":670,"yT2":0,"toosoon":0,"cond_shown":"Equal","ratio_trial":200,"L_num":3,"L_den":6,"R_num":3,"R_den":10,"correct_side":1,"subjID":"1","gender":"No_gender","school":"No_school","age":"No_age"},{"start_time":1549308957569,"click_time":1549308960114,"finger_time":1549308959392,"fix_duration":1413.908002569784,"trial":14,"RT":1823,"MT":722,"sideResp":1,"stimulus":[],"xmouse":[387.3333435058594,387.3333435058594,387.3333435058594,387.3333435058594,387.3333435058594,387.3333435058594,387.3333435058594,387.3333435058594,387.3333435058594,387.3333435058594,387.3333435058594,387.3333435058594,387.3333435058594,387.3333435058594,387.3333435058594,387.3333435058594,387.3333435058594,387.3333435058594,387.3333435058594,387.3333435058594,387.3333435058594,386.66668701171875,386.66668701171875,386.66668701171875,386.66668701171875,386.66668701171875,386.66668701171875,386.66668701171875,386.66668701171875,386.66668701171875,386.66668701171875,386,386,386,386,386,386,386,386,386,386,386,386,386,386,386,386,386,386,386,386,386,386.66668701171875,386.66668701171875,386.66668701171875,388,390.66668701171875,391.3333435058594,392.66668701171875,393.3333435058594,394,394.66668701171875,395.3333435058594,395.3333435058594,395.3333435058594,396,396,398,398,398,398,398,408.66668701171875,409.3333435058594,408.66668701171875,408,404,400.66668701171875,398.66668701171875,395.3333435058594,393.3333435058594,391.3333435058594,391.3333435058594,391.3333435058594,390.66668701171875,390,388.66668701171875,388,387.3333435058594,386.66668701171875,385.3333435058594,383.3333435058594,372.66668701171875,348.66668701171875,340.66668701171875,324.66668701171875,312.66668701171875,304.66668701171875,302.66668701171875,298.66668701171875,296.66668701171875,295.3333435058594,290.66668701171875,285.3333435058594,279.3333435058594,266,258,230.6666717529297,224.6666717529297,215.33334350585938,213.33334350585938,200.6666717529297,192.6666717529297,182,176.6666717529297,166,160,144,132,122,116,106,94,87.33333587646484,84.66667175292969,79.33333587646484,77.33333587646484,71.33333587646484],"ymouse":[832,829.3333740234375,829.3333740234375,829.3333740234375,829.3333740234375,829.3333740234375,829.3333740234375,829.3333740234375,829.3333740234375,829.3333740234375,829.3333740234375,829.3333740234375,829.3333740234375,829.3333740234375,829.3333740234375,829.3333740234375,829.3333740234375,829.3333740234375,829.3333740234375,829.3333740234375,829.3333740234375,830.6666870117188,830.6666870117188,830.6666870117188,830.6666870117188,830.6666870117188,830.6666870117188,830.6666870117188,830.6666870117188,830.6666870117188,830.6666870117188,832.6666870117188,832.6666870117188,832.6666870117188,834,834,834,834,834,834.6666870117188,834.6666870117188,834.6666870117188,834.6666870117188,834.6666870117188,834.6666870117188,834.6666870117188,834.6666870117188,834.6666870117188,834.6666870117188,834.6666870117188,834.6666870117188,835.3333740234375,835.3333740234375,836,837.3333740234375,838.6666870117188,841.3333740234375,842,845.3333740234375,846.6666870117188,850,853.3333740234375,855.3333740234375,856,857.3333740234375,858,858,856,856,856,856,856,834.6666870117188,828.6666870117188,823.3333740234375,820,813.3333740234375,810,808,805.3333740234375,802,797.3333740234375,796,792.6666870117188,790,788.6666870117188,784.6666870117188,781.3333740234375,780,776,771.3333740234375,766.6666870117188,744,695.3333740234375,681.3333740234375,656,636.6666870117188,620,616,608,601.3333740234375,598.6666870117188,590.6666870117188,579.3333740234375,568.6666870117188,538.6666870117188,523.3333740234375,468,455.3333435058594,433.3333435058594,425.3333435058594,398,377.3333435058594,354.66668701171875,343.3333435058594,317.3333435058594,304,266,240.66668701171875,215.33334350585938,203.33334350585938,180.6666717529297,152.6666717529297,134.6666717529297,128,116,110.66667175292969,96],"timestamp_mouse":[3,23,44,63,83,103,123,142,163,183,203,223,242,263,282,303,323,342,363,383,403,423,443,462,483,502,522,542,563,583,603,623,643,662,682,703,723,742,763,783,802,825,843,863,883,903,923,942,963,983,1003,1025,1043,1062,1083,1103,1125,1143,1163,1183,1202,1224,1244,1263,1283,1303,1323,1344,1363,1383,1403,1423,1444,1463,1483,1503,1526,1542,1563,1582,1603,1625,1642,1663,1683,1703,1726,1743,1763,1783,1803,1823,1843,1865,1883,1903,1922,1943,1963,1983,2003,2023,2046,2063,2083,2102,2123,2144,2163,2183,2202,2226,2245,2263,2283,2302,2322,2344,2363,2383,2403,2422,2443,2463,2485,2504,2523,2544],"xSR":350,"ySR":768,"xT1":30,"yT1":0,"xT2":670,"yT2":0,"toosoon":0,"cond_shown":"Congruent","ratio_trial":300,"L_num":2,"L_den":10,"R_num":12,"R_den":24,"correct_side":2,"subjID":"1","gender":"No_gender","school":"No_school","age":"No_age"},{"start_time":1549308963625,"click_time":1549308966276,"finger_time":1549308965755,"fix_duration":1108.0902269832263,"trial":15,"RT":2130,"MT":521,"sideResp":1,"stimulus":[],"xmouse":[401.3333435058594,401.3333435058594,399.3333435058594,399.3333435058594,398.66668701171875,398,397.3333435058594,396.66668701171875,396.66668701171875,396,395.3333435058594,394.66668701171875,394,394,394,394,394,393.3333435058594,393.3333435058594,393.3333435058594,393.3333435058594,393.3333435058594,393.3333435058594,392.66668701171875,392,392,391.3333435058594,391.3333435058594,391.3333435058594,390.66668701171875,390.66668701171875,390,389.3333435058594,389.3333435058594,388.66668701171875,388.66668701171875,388.66668701171875,387.3333435058594,386.66668701171875,386.66668701171875,386.66668701171875,386.66668701171875,386.66668701171875,386.66668701171875,385.3333435058594,385.3333435058594,384.66668701171875,384.66668701171875,384.66668701171875,384.66668701171875,384.66668701171875,384.66668701171875,384.66668701171875,384.66668701171875,384.66668701171875,384.66668701171875,384.66668701171875,384.66668701171875,385.3333435058594,385.3333435058594,385.3333435058594,388,388,388,388,391.3333435058594,391.3333435058594,394,394,394.66668701171875,394,394,394,394,394,394,394,394,394,394,394,387.3333435058594,387.3333435058594,387.3333435058594,387.3333435058594,387.3333435058594,386,385.3333435058594,385.3333435058594,385.3333435058594,384.66668701171875,384.66668701171875,384,384,384,384,383.3333435058594,383.3333435058594,384.66668701171875,384.66668701171875,386,386,386,386,386,332,313.3333435058594,305.3333435058594,291.3333435058594,282,272.66668701171875,270,263.3333435058594,258.66668701171875,248,232.6666717529297,220.6666717529297,215.33334350585938,206,202.6666717529297,183.33334350585938,178.6666717529297,168,156,149.33334350585938,138,120.66667175292969,114.66667175292969,107.33333587646484,102,93.33333587646484,74],"ymouse":[836.6666870117188,836.6666870117188,834,833.3333740234375,832.6666870117188,832,831.3333740234375,830.6666870117188,830.6666870117188,830,829.3333740234375,829.3333740234375,829.3333740234375,828.6666870117188,828.6666870117188,828,828,828,827.3333740234375,827.3333740234375,826.6666870117188,826.6666870117188,826.6666870117188,826.6666870117188,826,826,826,826,826,826,826,826,826,826,826.6666870117188,826.6666870117188,826.6666870117188,826.6666870117188,826.6666870117188,827.3333740234375,827.3333740234375,827.3333740234375,827.3333740234375,827.3333740234375,827.3333740234375,827.3333740234375,827.3333740234375,827.3333740234375,827.3333740234375,827.3333740234375,826.6666870117188,826.6666870117188,826.6666870117188,826.6666870117188,826.6666870117188,826.6666870117188,826.6666870117188,826.6666870117188,825.3333740234375,825.3333740234375,825.3333740234375,822,822,822,822,818.6666870117188,818.6666870117188,816,815.3333740234375,815.3333740234375,813.3333740234375,813.3333740234375,813.3333740234375,813.3333740234375,813.3333740234375,813.3333740234375,813.3333740234375,813.3333740234375,813.3333740234375,813.3333740234375,813.3333740234375,808,808,808,808,808,806.6666870117188,806.6666870117188,806,806,805.3333740234375,805.3333740234375,804.6666870117188,804.6666870117188,804.6666870117188,804,804,804,802,802,800.6666870117188,791.3333740234375,791.3333740234375,791.3333740234375,791.3333740234375,674.6666870117188,642,628.6666870117188,604.6666870117188,587.3333740234375,563.3333740234375,555.3333740234375,536,524.6666870117188,501.3333740234375,461.3333435058594,436,422,396.66668701171875,384.66668701171875,332.66668701171875,318.66668701171875,291.3333435058594,263.3333435058594,250,225.33334350585938,189.33334350585938,179.33334350585938,158.6666717529297,148.6666717529297,127.33334350585938,84.66667175292969],"timestamp_mouse":[7,48,67,87,107,127,148,171,187,207,227,247,267,286,307,326,346,367,387,407,427,446,467,486,510,527,547,567,587,610,627,647,668,687,707,726,746,766,787,807,827,847,867,887,910,927,946,966,987,1007,1027,1046,1067,1087,1107,1127,1147,1166,1187,1207,1226,1249,1266,1287,1308,1330,1347,1367,1387,1407,1429,1446,1467,1486,1507,1527,1547,1566,1587,1608,1627,1656,1668,1687,1707,1727,1747,1767,1787,1807,1827,1846,1867,1890,1907,1929,1947,1967,1987,2007,2027,2050,2067,2088,2107,2130,2146,2166,2187,2207,2227,2247,2267,2287,2307,2328,2347,2367,2386,2407,2429,2448,2466,2487,2507,2527,2547,2567,2587,2606,2627,2651],"xSR":350,"ySR":768,"xT1":30,"yT1":0,"xT2":670,"yT2":0,"toosoon":0,"cond_shown":"Equal","ratio_trial":300,"L_num":3,"L_den":10,"R_num":3,"R_den":5,"correct_side":2,"subjID":"1","gender":"No_gender","school":"No_school","age":"No_age"},{"start_time":1549308968895,"click_time":1549308971952,"finger_time":1549308970811,"fix_duration":861.1760479683406,"trial":16,"RT":1916,"MT":1141,"sideResp":2,"stimulus":[],"xmouse":[384,384,384,383.3333435058594,383.3333435058594,384,384,384,384.66668701171875,384.66668701171875,384.66668701171875,384.66668701171875,384.66668701171875,384.66668701171875,384.66668701171875,384.66668701171875,384.66668701171875,384.66668701171875,384.66668701171875,384.66668701171875,384.66668701171875,384.66668701171875,384.66668701171875,384.66668701171875,384.66668701171875,384.66668701171875,384.66668701171875,384.66668701171875,384.66668701171875,384.66668701171875,384.66668701171875,384.66668701171875,384.66668701171875,384.66668701171875,384.66668701171875,384.66668701171875,384.66668701171875,384.66668701171875,382.66668701171875,382.66668701171875,382.66668701171875,382.66668701171875,382.66668701171875,382.66668701171875,382,382,382,382,382,382,382,381.3333435058594,381.3333435058594,381.3333435058594,381.3333435058594,381.3333435058594,381.3333435058594,380.66668701171875,380.66668701171875,380.66668701171875,380.66668701171875,380.66668701171875,380.66668701171875,380,380,380,380,380,380,380,380,380,380,380,380,379.3333435058594,379.3333435058594,379.3333435058594,379.3333435058594,379.3333435058594,379.3333435058594,379.3333435058594,379.3333435058594,379.3333435058594,379.3333435058594,376.66668701171875,377.3333435058594,377.3333435058594,377.3333435058594,376.66668701171875,376.66668701171875,376,376,374.66668701171875,372,372,372,374,375.3333435058594,380,382.66668701171875,386,388.66668701171875,394,405.3333435058594,410.66668701171875,423.3333435058594,437.3333435058594,442.66668701171875,462.66668701171875,475.3333435058594,487.3333435058594,492.66668701171875,501.3333435058594,514,517.3333740234375,524.6666870117188,531.3333740234375,534.6666870117188,542.6666870117188,548,553.3333740234375,556,564.6666870117188,576.6666870117188,583.3333740234375,586.6666870117188,593.3333740234375,596.6666870117188,608.6666870117188,611.3333740234375,617.3333740234375,620.6666870117188,6