[{"start_time":1549309165022,"click_time":1549309171960,"finger_time":1549309165116,"fix_duration":1392.900498732431,"trial":0,"RT":94,"MT":6844,"sideResp":1,"stimulus":[],"xmouse":[376.3330078125,376.3330078125,376.3330078125,376.3330078125,376.3330078125,376.3330078125,376.3330078125,376.3330078125,376.3330078125,376.3330078125,376.3330078125,376.3330078125,376.3330078125,376.3330078125,376.3330078125,376.3330078125,376.3330078125,376.3330078125,376.3330078125,376.3330078125,376.3330078125,376.3330078125,376.3330078125,376.3330078125,376.3330078125,376.3330078125,376.3330078125,376.3330078125,376.3330078125,376.3330078125,376.3330078125,376.3330078125,376.3330078125,376.3330078125,376.3330078125,376.3330078125,376.3330078125,376.3330078125,376.3330078125,376.3330078125,376.3330078125,376.3330078125,376.3330078125,376.3330078125,376.3330078125,376.3330078125,376.3330078125,376.3330078125,376.3330078125,376.3330078125,376.3330078125,376.3330078125,376.3330078125,376.3330078125,376.3330078125,376.3330078125,376.3330078125,376.3330078125,376.3330078125,376.3330078125,376.3330078125,376.3330078125,376.3330078125,376.3330078125,376.3330078125,398.77099609375,399.1659851074219,399.1659851074219,399.1659851074219,399.1659851074219,399.1659851074219,399.1659851074219,399.1659851074219,399.1659851074219,399.1659851074219,399.1659851074219,402,402,402,402,402,402,402,402,402,402,401.3330078125,401.3330078125,401.3330078125,401.3330078125,401.3330078125,401.3330078125,401.3330078125,401.3330078125,401.3330078125,401.3330078125,403.18499755859375,403.18499755859375,403.18499755859375,403.18499755859375,403.18499755859375,403.18499755859375,403.18499755859375,403.18499755859375,403.18499755859375,403.18499755859375,404.6669921875,404.6669921875,404.6669921875,404.6669921875,404.6669921875,404.6669921875,404.6669921875,404.6669921875,404.6669921875,404.6669921875,404.6669921875,404.6669921875,404.6669921875,404.6669921875,404.6669921875,404.6669921875,404.6669921875,404.6669921875,404.6669921875,404.6669921875,404.6669921875,404.6669921875,404.6669921875,404.6669921875,404.6669921875,404.1830139160156,404.1830139160156,404.1830139160156,404.1830139160156,404.1830139160156,404.1830139160156,404.1830139160156,404.1830139160156,404.1830139160156,404.1830139160156,404,404,404,404,404,404,404,404,404,404,404,404,404,404,404,404,404,404,404,404,404,404,404,404,404,404,404,394.2200012207031,394.2200012207031,394.2200012207031,394.2200012207031,394.2200012207031,394.2200012207031,394.2200012207031,394.2200012207031,394.2200012207031,394.2200012207031,394.2200012207031,394.2200012207031,394.2200012207031,394.2200012207031,394.2200012207031,394.2200012207031,394.2200012207031,394.2200012207031,394.2200012207031,394.2200012207031,394.2200012207031,394.2200012207031,394.2200012207031,394.2200012207031,394.2200012207031,394.2200012207031,394.2200012207031,394.2200012207031,394.2200012207031,394.2200012207031,394.2200012207031,394.2200012207031,394.2200012207031,394.2200012207031,394.2200012207031,394.2200012207031,394.2200012207031,394.2200012207031,394.2200012207031,394.2200012207031,394.2200012207031,394.2200012207031,394.2200012207031,394.2200012207031,400,400,400,400,400,400,400,400,400,400,400,400.6669921875,400.6669921875,400.6669921875,400.6669921875,400.6669921875,400.6669921875,400.6669921875,400.6669921875,400.6669921875,400.6669921875,401.3330078125,401.3330078125,401.3330078125,401.3330078125,401.3330078125,401.3330078125,401.3330078125,401.3330078125,401.3330078125,401.3330078125,401,401,401,401,401,401,401,401,401,401,402,402,402,402,402,402,402,402,402,402,402,402,402,402,402,402,402,402,402,402,404,404,404,404,404,404,404,404,404,404,406.6669921875,406.6669921875,406.6669921875,406.6669921875,406.6669921875,406.6669921875,406.6669921875,406.6669921875,406.6669921875,406.6669921875,404,404,404,404,404,404,404,404,404,404,402,402,402,402,402,402,402,402,402,402,370.60198974609375,370.60198974609375,370.60198974609375,370.60198974609375,370.60198974609375,370.60198974609375,370.60198974609375,370.60198974609375,370.60198974609375,370.60198974609375,284.99798583984375,284.99798583984375,284.99798583984375,284.99798583984375,284.99798583984375,284.99798583984375,284.99798583984375,284.99798583984375,284.99798583984375,284.99798583984375,115.61199951171875,115.61199951171875,115.61199951171875,115.61199951171875,115.61199951171875,115.61199951171875,115.61199951171875,115.61199951171875,115.61199951171875,115.61199951171875,67.072998046875],"ymouse":[474.3330078125,474.3330078125,474.3330078125,474.3330078125,474.3330078125,474.3330078125,474.3330078125,474.3330078125,474.3330078125,474.3330078125,474.3330078125,474.3330078125,474.3330078125,474.3330078125,474.3330078125,474.3330078125,474.3330078125,474.3330078125,474.3330078125,474.3330078125,474.3330078125,474.3330078125,474.3330078125,474.3330078125,474.3330078125,474.3330078125,474.3330078125,474.3330078125,474.3330078125,474.3330078125,474.3330078125,474.3330078125,474.3330078125,474.3330078125,474.3330078125,474.3330078125,474.3330078125,474.3330078125,474.3330078125,474.3330078125,474.3330078125,474.3330078125,474.3330078125,474.3330078125,474.3330078125,474.3330078125,474.3330078125,474.3330078125,474.3330078125,474.3330078125,474.3330078125,474.3330078125,474.3330078125,474.3330078125,474.3330078125,474.3330078125,474.3330078125,474.3330078125,474.3330078125,474.3330078125,474.3330078125,474.3330078125,474.3330078125,474.3330078125,474.3330078125,809.43798828125,811.166015625,811.166015625,811.166015625,811.166015625,811.166015625,811.166015625,811.166015625,811.166015625,811.166015625,811.166015625,820,820,820,820,820,820,820,820,820,820,821.3330078125,821.3330078125,821.3330078125,821.3330078125,821.3330078125,821.3330078125,821.3330078125,821.3330078125,821.3330078125,821.3330078125,827.1849975585938,827.1849975585938,827.1849975585938,827.1849975585938,827.1849975585938,827.1849975585938,827.1849975585938,827.1849975585938,827.1849975585938,827.1849975585938,829.3330078125,829.3330078125,829.3330078125,829.3330078125,829.3330078125,829.3330078125,829.3330078125,829.3330078125,829.3330078125,829.3330078125,829.3330078125,829.3330078125,829.3330078125,829.3330078125,829.3330078125,829.3330078125,829.3330078125,829.3330078125,829.3330078125,829.3330078125,829.3330078125,829.3330078125,829.3330078125,829.3330078125,829.3330078125,829.3330078125,829.3330078125,829.3330078125,829.3330078125,829.3330078125,829.3330078125,829.3330078125,829.3330078125,829.3330078125,829.3330078125,829,829,829,829,829,829,829,829,829,829,829,829,829,829,829,829,829,829,829,829,829,829,829,828,828,828,828,799.9929809570312,799.9929809570312,799.9929809570312,799.9929809570312,799.9929809570312,799.9929809570312,799.9929809570312,799.9929809570312,799.9929809570312,799.9929809570312,799.9929809570312,799.9929809570312,799.9929809570312,799.9929809570312,799.9929809570312,799.9929809570312,799.9929809570312,799.9929809570312,799.9929809570312,799.9929809570312,799.9929809570312,799.9929809570312,799.9929809570312,799.9929809570312,799.9929809570312,799.9929809570312,799.9929809570312,799.9929809570312,799.9929809570312,799.9929809570312,799.9929809570312,799.9929809570312,799.9929809570312,799.9929809570312,799.9929809570312,799.9929809570312,799.9929809570312,799.9929809570312,799.9929809570312,799.9929809570312,799.9929809570312,799.9929809570312,799.9929809570312,799.9929809570312,810,810,810,810,810,810,810,810,810,810,810,811.3330078125,811.3330078125,811.3330078125,811.3330078125,811.3330078125,811.3330078125,811.3330078125,811.3330078125,811.3330078125,811.3330078125,813.3330078125,813.3330078125,813.3330078125,813.3330078125,813.3330078125,813.3330078125,813.3330078125,813.3330078125,813.3330078125,813.3330078125,814,814,814,814,814,814,814,814,814,814,815,815,815,815,815,815,815,815,815,815,818,818,818,818,818,818,818,818,818,818,824,824,824,824,824,824,824,824,824,824,835.8189697265625,835.8189697265625,835.8189697265625,835.8189697265625,835.8189697265625,835.8189697265625,835.8189697265625,835.8189697265625,835.8189697265625,835.8189697265625,839,839,839,839,839,839,839,839,839,839,833,833,833,833,833,833,833,833,833,833,733.1389770507812,733.1389770507812,733.1389770507812,733.1389770507812,733.1389770507812,733.1389770507812,733.1389770507812,733.1389770507812,733.1389770507812,733.1389770507812,492.4599914550781,492.4599914550781,492.4599914550781,492.4599914550781,492.4599914550781,492.4599914550781,492.4599914550781,492.4599914550781,492.4599914550781,492.4599914550781,136.86900329589844,136.86900329589844,136.86900329589844,136.86900329589844,136.86900329589844,136.86900329589844,136.86900329589844,136.86900329589844,136.86900329589844,136.86900329589844,24.927000045776367],"timestamp_mouse":[94,98,116,136,156,176,196,216,236,256,276,296,316,336,356,376,396,416,436,456,476,496,516,536,556,576,596,616,636,656,676,696,716,736,756,776,796,816,836,856,876,896,916,936,956,976,996,1016,1036,1056,1076,1096,1116,1136,1156,1176,1196,1216,1236,1256,1276,1296,1316,1336,1356,1376,1396,1416,1436,1456,1476,1496,1516,1536,1556,1576,1596,1616,1636,1656,1676,1696,1716,1736,1756,1776,1796,1816,1836,1856,1876,1896,1916,1936,1956,1976,1996,2016,2036,2056,2076,2096,2116,2136,2156,2176,2196,2216,2236,2256,2276,2296,2316,2336,2356,2376,2396,2416,2436,2456,2476,2496,2516,2536,2556,2576,2596,2616,2636,2656,2676,2696,2716,2736,2756,2776,2796,2816,2836,2856,2876,2896,2916,2936,2956,2976,2996,3016,3036,3056,3076,3096,3116,3136,3156,3176,3196,3216,3236,3256,3276,3296,3316,3336,3356,3376,3396,3416,3436,3456,3476,3496,3516,3536,3556,3576,3596,3616,3636,3656,3676,3696,3716,3736,3756,3776,3796,3816,3836,3856,3876,3896,3916,3936,3956,3976,3997,4016,4036,4056,4076,4096,4116,4136,4156,4176,4196,4216,4236,4257,4277,4297,4316,4336,4356,4376,4397,4416,4436,4456,4476,4496,4516,4537,4557,4577,4596,4616,4637,4657,4677,4696,4717,4737,4757,4777,4797,4817,4837,4857,4877,4897,4917,4937,4957,4977,4997,5017,5037,5057,5077,5097,5117,5137,5157,5177,5197,5217,5237,5257,5277,5297,5317,5337,5357,5377,5397,5417,5437,5457,5477,5497,5517,5537,5557,5577,5597,5617,5637,5657,5677,5697,5717,5737,5757,5777,5797,5817,5837,5857,5877,5897,5917,5937,5957,5977,5997,6017,6037,6057,6077,6097,6117,6137,6157,6177,6197,6217,6237,6257,6277,6297,6317,6337,6357,6377,6397,6417,6437,6457,6477,6497,6517,6537,6557,6577,6597,6617,6637,6657,6677,6698,6717,6737,6757,6777,6797,6817,6837,6857,6877,6897,6917,6937],"xSR":350,"ySR":451.2,"xT1":30,"yT1":0,"xT2":670,"yT2":0,"toosoon":0,"cond_shown":"Equal","ratio_trial":300,"L_num":9,"L_den":12,"R_num":9,"R_den":20,"correct_side":1,"subjID":"2","gender":"No_gender","age":"No_age","school":"No_school","test":{"fix_dur":[250,1500],"timestim":900,"targets_dim":[100,100],"targets_relative_coord":[0.1,0.9],"size_stim":[880,420],"start_dim":[100,100],"size_start":[300,300],"size_fix":60,"samplingrate":20,"img_types":["Congruent","Incongruent","Equal"],"ratios":[100,200,300,500],"rep_conds":15,"nTrials":192,"trials_to_rest":500,"Trials_order":[92,41,96,171,91,167,89,161,23,67,75,39,180,85,84,22,25,159,77,191,117,103,29,34,165,131,144,187,6,73,102,93,20,185,80,140,58,9,98,97,142,50,90,59,120,49,83,14,147,3,114,68,173,116,64,160,5,82,106,128,183,113,94,101,108,16,156,33,188,121,79,62,134,88,109,130,111,69,87,190,32,54,152,46,1,125,139,189,164,155,150,44,31,53,70,60,170,36,158,175,129,71,162,66,99,47,123,186,119,37,169,146,24,7,51,104,177,45,13,100,8,55,107,48,141,18,133,126,65,21,178,12,136,86,72,81,179,95,15,17,76,38,57,154,35,56,30,26,115,148,105,166,151,149,63,52,124,182,61,27,0,143,2,28,174,112,11,118,110,168,122,176,43,40,138,181,157,78,184,163,145,74,137,42,153,4,172,10,132,135,127,19],"cond_shown":["Equal","Equal","Congruent","Congruent","Incongruent","Equal","Equal","Equal","Equal","Incongruent","Congruent","Congruent","Congruent","Incongruent","Congruent","Incongruent","Incongruent","Congruent","Equal","Equal","Congruent","Incongruent","Equal","Incongruent","Congruent","Equal","Congruent","Incongruent","Congruent","Incongruent","Congruent","Congruent","Equal","Equal","Equal","Equal","Incongruent","Congruent","Equal","Incongruent","Incongruent","Equal","Congruent","Equal","Congruent","Incongruent","Equal","Equal","Congruent","Congruent","Congruent","Equal","Equal","Equal","Incongruent","Incongruent","Equal","Incongruent","Incongruent","Equal","Congruent","Equal","Incongruent","Equal","Congruent","Incongruent","Congruent","Congruent","Equal","Incongruent","Incongruent","Equal","Equal","Incongruent","Incongruent","Incongruent","Congruent","Congruent","Congruent","Incongruent","Equal","Congruent","Equal","Incongruent","Incongruent","Equal","Incongruent","Congruent","Equal","Equal","Congruent","Equal","Incongruent","Equal","Incongruent","Congruent","Equal","Congruent","Equal","Incongruent","Congruent","Equal","Congruent","Congruent","Congruent","Equal","Congruent","Congruent","Equal","Incongruent","Incongruent","Equal","Congruent","Incongruent","Congruent","Equal","Congruent","Congruent","Incongruent","Incongruent","Equal","Incongruent","Equal","Congruent","Congruent","Congruent","Incongruent","Congruent","Equal","Congruent","Incongruent","Congruent","Incongruent","Equal","Congruent","Congruent","Equal","Equal","Congruent","Equal","Incongruent","Equal","Congruent","Incongruent","Equal","Equal","Congruent","Equal","Incongruent","Incongruent","Congruent","Incongruent","Incongruent","Equal","Congruent","Incongruent","Incongruent","Equal","Incongruent","Congruent","Congruent","Equal","Equal","Incongruent","Congruent","Incongruent","Equal","Incongruent","Equal","Congruent","Equal","Equal","Incongruent","Incongruent","Congruent","Incongruent","Incongruent","Congruent","Incongruent","Incongruent","Incongruent","Equal","Equal","Congruent","Congruent","Incongruent","Incongruent","Incongruent","Congruent","Congruent","Incongruent","Incongruent"],"ratio_trial":[300,200,100,200,300,500,200,200,500,300,200,200,100,100,100,500,100,200,200,500,500,300,200,500,500,500,100,300,300,100,300,500,300,200,300,300,500,500,100,100,500,100,300,500,100,100,500,100,200,200,300,300,200,300,200,200,200,500,500,300,200,200,500,200,100,200,100,500,300,100,300,100,100,200,100,500,200,500,200,500,300,300,300,500,100,200,300,500,300,500,300,300,300,200,500,100,100,100,100,300,500,500,300,300,200,500,200,300,500,100,100,100,100,300,200,300,500,500,100,200,300,300,500,100,500,300,100,300,200,500,500,100,200,100,100,500,500,500,200,200,200,100,500,500,500,300,300,100,300,200,500,500,300,200,200,200,200,100,100,200,100,500,100,200,300,200,500,500,100,100,100,300,300,200,300,100,100,300,200,300,100,100,200,300,500,200,200,500,100,200,300,300],"left_num":[9,3,4,3,13,6,3,3,2,4,3,3,1,3,6,7,3,12,3,6,3,13,3,7,3,2,10,2,20,12,11,2,9,3,9,9,5,20,6,2,7,6,3,6,4,12,2,6,3,15,4,9,3,9,3,7,3,7,7,9,9,3,7,3,4,7,15,7,9,2,1,6,6,14,13,2,3,5,16,5,18,3,9,7,12,3,4,5,9,6,18,9,4,3,7,11,2,3,2,4,15,6,4,24,12,2,21,12,6,8,3,6,2,8,3,9,1,12,6,14,18,4,6,8,2,1,10,12,3,2,7,15,4,2,1,20,6,6,3,3,1,6,2,7,6,9,11,2,8,1,2,7,1,3,12,9,1,6,3,3,7,2,6,7,4,1,6,7,6,11,6,3,2,7,7,9,11,3,4,13,10,6,3,1,9,4,4,7,4,9,2,4],"right_num":[9,3,6,7,12,6,3,3,2,6,14,7,18,8,5,9,7,6,3,6,14,12,3,5,4,2,3,6,14,2,2,12,9,3,9,9,6,3,6,8,9,6,11,6,15,2,2,6,14,4,2,9,3,9,11,4,3,5,5,9,4,3,5,3,15,14,13,1,9,6,3,6,6,12,12,4,7,2,12,6,18,11,9,9,9,3,2,2,9,6,9,9,6,3,5,4,2,4,2,8,5,6,1,2,6,2,2,2,6,6,4,6,6,9,14,9,12,3,7,12,18,2,6,2,21,3,9,2,3,7,5,13,14,2,3,7,6,6,7,3,3,6,10,9,6,9,1,2,9,3,9,5,3,3,6,8,2,6,4,9,9,2,6,12,2,2,6,5,6,4,6,3,6,4,20,6,9,2,6,12,8,6,3,7,20,14,6,5,6,4,6,2],"left_den":[12,6,8,10,26,8,6,10,12,5,6,10,2,5,20,8,9,15,10,8,8,26,6,21,10,12,25,4,25,30,22,12,12,10,20,12,6,24,10,4,8,12,12,24,10,30,12,12,6,25,5,12,6,20,4,15,10,21,21,12,20,10,21,10,10,10,25,10,12,4,2,12,12,30,26,3,10,6,20,6,30,12,12,8,24,10,20,6,12,24,20,12,5,6,21,22,12,20,12,5,18,8,10,30,20,12,30,24,8,16,6,12,5,10,6,12,4,16,10,30,30,20,24,16,8,5,25,24,6,24,21,25,6,12,2,24,8,24,10,10,2,10,12,8,8,12,22,12,10,2,5,21,2,10,20,15,3,12,6,12,14,12,12,10,5,3,8,21,10,22,12,10,4,15,14,18,22,6,5,26,25,12,10,20,27,6,5,21,8,20,4,20],"right_den":[20,10,10,14,15,24,10,6,3,12,20,14,30,16,25,24,30,10,6,24,16,15,10,6,5,3,10,30,28,4,10,18,20,6,12,20,18,9,12,20,24,10,20,8,30,4,3,10,20,10,4,20,10,12,20,6,6,6,6,20,16,6,6,6,30,28,26,5,20,15,15,10,10,18,20,24,14,6,20,18,20,20,20,24,15,6,4,6,20,8,15,20,12,10,6,10,30,16,30,16,15,24,10,4,15,3,4,10,24,10,10,10,12,18,20,20,16,12,14,18,20,4,8,5,28,6,18,10,10,12,6,26,30,30,5,21,24,8,14,6,10,12,15,24,24,20,5,30,18,10,10,6,15,6,15,10,15,10,10,20,15,3,10,24,4,15,24,6,12,10,10,5,30,6,25,10,15,10,10,15,16,10,6,20,24,30,10,6,10,16,30,4],"correct_side":[1,1,2,2,2,1,1,2,2,1,2,2,2,1,1,1,1,1,2,1,2,2,1,2,2,2,1,1,1,2,1,2,1,2,2,1,1,1,1,1,1,2,2,2,2,2,2,2,2,1,1,1,1,2,1,2,2,2,2,1,1,2,2,2,2,1,1,1,1,1,1,2,2,2,2,1,2,1,1,1,2,2,1,1,2,2,2,1,1,2,1,1,1,1,2,1,1,2,1,1,1,1,1,1,1,2,1,1,1,2,1,2,2,1,2,1,2,1,1,2,2,2,2,1,2,2,2,1,1,2,2,1,1,1,2,1,1,2,2,2,1,1,2,1,1,1,1,1,1,1,2,2,1,2,1,2,1,2,1,2,2,2,2,1,1,1,1,2,1,1,2,2,1,2,2,2,2,1,1,2,2,2,2,2,2,1,1,2,2,1,1,2],"img_shown":["img2/300/Equal/L/E_Dist_300_LN_9_LD_12_RN_9_RD_20_0.png","img2/200/Equal/L/E_Dist_200_LN_3_LD_6_RN_3_RD_10_0.png","img2/100/Congruent/R/C_Dist_100_LN_4_LD_8_RN_6_RD_10_1.png","img2/200/Congruent/R/C_Dist_200_LN_3_LD_10_RN_7_RD_14_1.png","img2/300/Incongruent/R/I_Dist_300_LN_13_LD_26_RN_12_RD_15_1.png","img2/500/Equal/L/E_Dist_500_LN_6_LD_8_RN_6_RD_24_0.png","img2/200/Equal/L/E_Dist_200_LN_3_LD_6_RN_3_RD_10_0.png","img2/200/Equal/R/E_Dist_200_LN_3_LD_10_RN_3_RD_6_1.png","img2/500/Equal/R/E_Dist_500_LN_2_LD_12_RN_2_RD_3_1.png","img2/300/Incongruent/L/I_Dist_300_LN_4_LD_5_RN_6_RD_12_0.png","img2/200/Congruent/R/C_Dist_200_LN_3_LD_6_RN_14_RD_20_1.png","img2/200/Congruent/R/C_Dist_200_LN_3_LD_10_RN_7_RD_14_1.png","img2/100/Congruent/R/C_Dist_100_LN_1_LD_2_RN_18_RD_30_1.png","img2/100/Incongruent/L/I_Dist_100_LN_3_LD_5_RN_8_RD_16_0.png","img2/100/Congruent/L/C_Dist_100_LN_6_LD_20_RN_5_RD_25_0.png","img2/500/Incongruent/L/I_Dist_500_LN_7_LD_8_RN_9_RD_24_0.png","img2/100/Incongruent/L/I_Dist_100_LN_3_LD_9_RN_7_RD_30_0.png","img2/200/Congruent/L/C_Dist_200_LN_12_LD_15_RN_6_RD_10_0.png","img2/200/Equal/R/E_Dist_200_LN_3_LD_10_RN_3_RD_6_1.png","img2/500/Equal/L/E_Dist_500_LN_6_LD_8_RN_6_RD_24_0.png","img2/500/Congruent/R/C_Dist_500_LN_3_LD_8_RN_14_RD_16_1.png","img2/300/Incongruent/R/I_Dist_300_LN_13_LD_26_RN_12_RD_15_1.png","img2/200/Equal/L/E_Dist_200_LN_3_LD_6_RN_3_RD_10_0.png","img2/500/Incongruent/R/I_Dist_500_LN_7_LD_21_RN_5_RD_6_1.png","img2/500/Congruent/R/C_Dist_500_LN_3_LD_10_RN_4_RD_5_1.png","img2/500/Equal/R/E_Dist_500_LN_2_LD_12_RN_2_RD_3_1.png","img2/100/Congruent/L/C_Dist_100_LN_10_LD_25_RN_3_RD_10_0.png","img2/300/Incongruent/L/I_Dist_300_LN_2_LD_4_RN_6_RD_30_0.png","img2/300/Congruent/L/C_Dist_300_LN_20_LD_25_RN_14_RD_28_0.png","img2/100/Incongruent/R/I_Dist_100_LN_12_LD_30_RN_2_RD_4_1.png","img2/300/Congruent/L/C_Dist_300_LN_11_LD_22_RN_2_RD_10_0.png","img2/500/Congruent/R/C_Dist_500_LN_2_LD_12_RN_12_RD_18_1.png","img2/300/Equal/L/E_Dist_300_LN_9_LD_12_RN_9_RD_20_0.png","img2/200/Equal/R/E_Dist_200_LN_3_LD_10_RN_3_RD_6_1.png","img2/300/Equal/R/E_Dist_300_LN_9_LD_20_RN_9_RD_12_1.png","img2/300/Equal/L/E_Dist_300_LN_9_LD_12_RN_9_RD_20_0.png","img2/500/Incongruent/L/I_Dist_500_LN_5_LD_6_RN_6_RD_18_0.png","img2/500/Congruent/L/C_Dist_500_LN_20_LD_24_RN_3_RD_9_0.png","img2/100/Equal/L/E_Dist_100_LN_6_LD_10_RN_6_RD_12_0.png","img2/100/Incongruent/L/I_Dist_100_LN_2_LD_4_RN_8_RD_20_0.png","img2/500/Incongruent/L/I_Dist_500_LN_7_LD_8_RN_9_RD_24_0.png","img2/100/Equal/R/E_Dist_100_LN_6_LD_12_RN_6_RD_10_1.png","img2/300/Congruent/R/C_Dist_300_LN_3_LD_12_RN_11_RD_20_1.png","img2/500/Equal/R/E_Dist_500_LN_6_LD_24_RN_6_RD_8_1.png","img2/100/Congruent/R/C_Dist_100_LN_4_LD_10_RN_15_RD_30_1.png","img2/100/Incongruent/R/I_Dist_100_LN_12_LD_30_RN_2_RD_4_1.png","img2/500/Equal/R/E_Dist_500_LN_2_LD_12_RN_2_RD_3_1.png","img2/100/Equal/R/E_Dist_100_LN_6_LD_12_RN_6_RD_10_1.png","img2/200/Congruent/R/C_Dist_200_LN_3_LD_6_RN_14_RD_20_1.png","img2/200/Congruent/L/C_Dist_200_LN_15_LD_25_RN_4_RD_10_0.png","img2/300/Congruent/L/C_Dist_300_LN_4_LD_5_RN_2_RD_4_0.png","img2/300/Equal/L/E_Dist_300_LN_9_LD_12_RN_9_RD_20_0.png","img2/200/Equal/L/E_Dist_200_LN_3_LD_6_RN_3_RD_10_0.png","img2/300/Equal/R/E_Dist_300_LN_9_LD_20_RN_9_RD_12_1.png","img2/200/Incongruent/L/I_Dist_200_LN_3_LD_4_RN_11_RD_20_0.png","img2/200/Incongruent/R/I_Dist_200_LN_7_LD_15_RN_4_RD_6_1.png","img2/200/Equal/R/E_Dist_200_LN_3_LD_10_RN_3_RD_6_1.png","img2/500/Incongruent/R/I_Dist_500_LN_7_LD_21_RN_5_RD_6_1.png","img2/500/Incongruent/R/I_Dist_500_LN_7_LD_21_RN_5_RD_6_1.png","img2/300/Equal/L/E_Dist_300_LN_9_LD_12_RN_9_RD_20_0.png","img2/200/Congruent/L/C_Dist_200_LN_9_LD_20_RN_4_RD_16_0.png","img2/200/Equal/R/E_Dist_200_LN_3_LD_10_RN_3_RD_6_1.png","img2/500/Incongruent/R/I_Dist_500_LN_7_LD_21_RN_5_RD_6_1.png","img2/200/Equal/R/E_Dist_200_LN_3_LD_10_RN_3_RD_6_1.png","img2/100/Congruent/R/C_Dist_100_LN_4_LD_10_RN_15_RD_30_1.png","img2/200/Incongruent/L/I_Dist_200_LN_7_LD_10_RN_14_RD_28_0.png","img2/100/Congruent/L/C_Dist_100_LN_15_LD_25_RN_13_RD_26_0.png","img2/500/Congruent/L/C_Dist_500_LN_7_LD_10_RN_1_RD_5_0.png","img2/300/Equal/L/E_Dist_300_LN_9_LD_12_RN_9_RD_20_0.png","img2/100/Incongruent/L/I_Dist_100_LN_2_LD_4_RN_6_RD_15_0.png","img2/300/Incongruent/L/I_Dist_300_LN_1_LD_2_RN_3_RD_15_0.png","img2/100/Equal/R/E_Dist_100_LN_6_LD_12_RN_6_RD_10_1.png","img2/100/Equal/R/E_Dist_100_LN_6_LD_12_RN_6_RD_10_1.png","img2/200/Incongruent/R/I_Dist_200_LN_14_LD_30_RN_12_RD_18_1.png","img2/100/Incongruent/R/I_Dist_100_LN_13_LD_26_RN_12_RD_20_1.png","img2/500/Incongruent/L/I_Dist_500_LN_2_LD_3_RN_4_RD_24_0.png","img2/200/Congruent/R/C_Dist_200_LN_3_LD_10_RN_7_RD_14_1.png","img2/500/Congruent/L/C_Dist_500_LN_5_LD_6_RN_2_RD_6_0.png","img2/200/Congruent/L/C_Dist_200_LN_16_LD_20_RN_12_RD_20_0.png","img2/500/Incongruent/L/I_Dist_500_LN_5_LD_6_RN_6_RD_18_0.png","img2/300/Equal/R/E_Dist_300_LN_18_LD_30_RN_18_RD_20_1.png","img2/300/Congruent/R/C_Dist_300_LN_3_LD_12_RN_11_RD_20_1.png","img2/300/Equal/L/E_Dist_300_LN_9_LD_12_RN_9_RD_20_0.png","img2/500/Incongruent/L/I_Dist_500_LN_7_LD_8_RN_9_RD_24_0.png","img2/100/Incongruent/R/I_Dist_100_LN_12_LD_24_RN_9_RD_15_1.png","img2/200/Equal/R/E_Dist_200_LN_3_LD_10_RN_3_RD_6_1.png","img2/300/Incongruent/R/I_Dist_300_LN_4_LD_20_RN_2_RD_4_1.png","img2/500/Congruent/L/C_Dist_500_LN_5_LD_6_RN_2_RD_6_0.png","img2/300/Equal/L/E_Dist_300_LN_9_LD_12_RN_9_RD_20_0.png","img2/500/Equal/R/E_Dist_500_LN_6_LD_24_RN_6_RD_8_1.png","img2/300/Congruent/L/C_Dist_300_LN_18_LD_20_RN_9_RD_15_0.png","img2/300/Equal/L/E_Dist_300_LN_9_LD_12_RN_9_RD_20_0.png","img2/300/Incongruent/L/I_Dist_300_LN_4_LD_5_RN_6_RD_12_0.png","img2/200/Equal/L/E_Dist_200_LN_3_LD_6_RN_3_RD_10_0.png","img2/500/Incongruent/R/I_Dist_500_LN_7_LD_21_RN_5_RD_6_1.png","img2/100/Congruent/L/C_Dist_100_LN_11_LD_22_RN_4_RD_10_0.png","img2/100/Equal/L/E_Dist_100_LN_2_LD_12_RN_2_RD_30_0.png","img2/100/Congruent/R/C_Dist_100_LN_3_LD_20_RN_4_RD_16_1.png","img2/100/Equal/L/E_Dist_100_LN_2_LD_12_RN_2_RD_30_0.png","img2/300/Incongruent/L/I_Dist_300_LN_4_LD_5_RN_8_RD_16_0.png","img2/500/Congruent/L/C_Dist_500_LN_15_LD_18_RN_5_RD_15_0.png","img2/500/Equal/L/E_Dist_500_LN_6_LD_8_RN_6_RD_24_0.png","img2/300/Congruent/L/C_Dist_300_LN_4_LD_10_RN_1_RD_10_0.png","img2/300/Congruent/L/C_Dist_300_LN_24_LD_30_RN_2_RD_4_0.png","img2/200/Congruent/L/C_Dist_200_LN_12_LD_20_RN_6_RD_15_0.png","img2/500/Equal/R/E_Dist_500_LN_2_LD_12_RN_2_RD_3_1.png","img2/200/Congruent/L/C_Dist_200_LN_21_LD_30_RN_2_RD_4_0.png","img2/300/Congruent/L/C_Dist_300_LN_12_LD_24_RN_2_RD_10_0.png","img2/500/Equal/L/E_Dist_500_LN_6_LD_8_RN_6_RD_24_0.png","img2/100/Incongruent/R/I_Dist_100_LN_8_LD_16_RN_6_RD_10_1.png","img2/100/Incongruent/L/I_Dist_100_LN_3_LD_6_RN_4_RD_10_0.png","img2/100/Equal/R/E_Dist_100_LN_6_LD_12_RN_6_RD_10_1.png","img2/100/Congruent/R/C_Dist_100_LN_2_LD_5_RN_6_RD_12_1.png","img2/300/Incongruent/L/I_Dist_300_LN_8_LD_10_RN_9_RD_18_0.png","img2/200/Congruent/R/C_Dist_200_LN_3_LD_6_RN_14_RD_20_1.png","img2/300/Equal/L/E_Dist_300_LN_9_LD_12_RN_9_RD_20_0.png","img2/500/Congruent/R/C_Dist_500_LN_1_LD_4_RN_12_RD_16_1.png","img2/500/Congruent/L/C_Dist_500_LN_12_LD_16_RN_3_RD_12_0.png","img2/100/Incongruent/L/I_Dist_100_LN_6_LD_10_RN_7_RD_14_0.png","img2/200/Incongruent/R/I_Dist_200_LN_14_LD_30_RN_12_RD_18_1.png","img2/300/Equal/R/E_Dist_300_LN_18_LD_30_RN_18_RD_20_1.png","img2/300/Incongruent/R/I_Dist_300_LN_4_LD_20_RN_2_RD_4_1.png","img2/500/Equal/R/E_Dist_500_LN_6_LD_24_RN_6_RD_8_1.png","img2/100/Congruent/L/C_Dist_100_LN_8_LD_16_RN_2_RD_5_0.png","img2/500/Congruent/R/C_Dist_500_LN_2_LD_8_RN_21_RD_28_1.png","img2/300/Congruent/R/C_Dist_300_LN_1_LD_5_RN_3_RD_6_1.png","img2/100/Incongruent/R/I_Dist_100_LN_10_LD_25_RN_9_RD_18_1.png","img2/300/Congruent/L/C_Dist_300_LN_12_LD_24_RN_2_RD_10_0.png","img2/200/Equal/L/E_Dist_200_LN_3_LD_6_RN_3_RD_10_0.png","img2/500/Congruent/R/C_Dist_500_LN_2_LD_24_RN_7_RD_12_1.png","img2/500/Incongruent/R/I_Dist_500_LN_7_LD_21_RN_5_RD_6_1.png","img2/100/Congruent/L/C_Dist_100_LN_15_LD_25_RN_13_RD_26_0.png","img2/200/Incongruent/L/I_Dist_200_LN_4_LD_6_RN_14_RD_30_0.png","img2/100/Equal/L/E_Dist_100_LN_2_LD_12_RN_2_RD_30_0.png","img2/100/Congruent/R/C_Dist_100_LN_1_LD_2_RN_3_RD_5_1.png","img2/500/Congruent/L/C_Dist_500_LN_20_LD_24_RN_7_RD_21_0.png","img2/500/Equal/L/E_Dist_500_LN_6_LD_8_RN_6_RD_24_0.png","img2/500/Equal/R/E_Dist_500_LN_6_LD_24_RN_6_RD_8_1.png","img2/200/Congruent/R/C_Dist_200_LN_3_LD_10_RN_7_RD_14_1.png","img2/200/Equal/R/E_Dist_200_LN_3_LD_10_RN_3_RD_6_1.png","img2/200/Incongruent/L/I_Dist_200_LN_1_LD_2_RN_3_RD_10_0.png","img2/100/Equal/L/E_Dist_100_LN_6_LD_10_RN_6_RD_12_0.png","img2/500/Congruent/R/C_Dist_500_LN_2_LD_12_RN_10_RD_15_1.png","img2/500/Incongruent/L/I_Dist_500_LN_7_LD_8_RN_9_RD_24_0.png","img2/500/Equal/L/E_Dist_500_LN_6_LD_8_RN_6_RD_24_0.png","img2/300/Equal/L/E_Dist_300_LN_9_LD_12_RN_9_RD_20_0.png","img2/300/Congruent/L/C_Dist_300_LN_11_LD_22_RN_1_RD_5_0.png","img2/100/Equal/L/E_Dist_100_LN_2_LD_12_RN_2_RD_30_0.png","img2/300/Incongruent/L/I_Dist_300_LN_8_LD_10_RN_9_RD_18_0.png","img2/200/Incongruent/L/I_Dist_200_LN_1_LD_2_RN_3_RD_10_0.png","img2/500/Congruent/R/C_Dist_500_LN_2_LD_5_RN_9_RD_10_1.png","img2/500/Incongruent/R/I_Dist_500_LN_7_LD_21_RN_5_RD_6_1.png","img2/300/Incongruent/L/I_Dist_300_LN_1_LD_2_RN_3_RD_15_0.png","img2/200/Equal/R/E_Dist_200_LN_3_LD_10_RN_3_RD_6_1.png","img2/200/Congruent/L/C_Dist_200_LN_12_LD_20_RN_6_RD_15_0.png","img2/200/Incongruent/R/I_Dist_200_LN_9_LD_15_RN_8_RD_10_1.png","img2/200/Incongruent/L/I_Dist_200_LN_1_LD_3_RN_2_RD_15_0.png","img2/100/Equal/R/E_Dist_100_LN_6_LD_12_RN_6_RD_10_1.png","img2/100/Incongruent/L/I_Dist_100_LN_3_LD_6_RN_4_RD_10_0.png","img2/200/Congruent/R/C_Dist_200_LN_3_LD_12_RN_9_RD_20_1.png","img2/100/Congruent/R/C_Dist_100_LN_7_LD_14_RN_9_RD_15_1.png","img2/500/Equal/R/E_Dist_500_LN_2_LD_12_RN_2_RD_3_1.png","img2/100/Equal/R/E_Dist_100_LN_6_LD_12_RN_6_RD_10_1.png","img2/200/Incongruent/L/I_Dist_200_LN_7_LD_10_RN_12_RD_24_0.png","img2/300/Congruent/L/C_Dist_300_LN_4_LD_5_RN_2_RD_4_0.png","img2/200/Incongruent/L/I_Dist_200_LN_1_LD_3_RN_2_RD_15_0.png","img2/500/Equal/L/E_Dist_500_LN_6_LD_8_RN_6_RD_24_0.png","img2/500/Incongruent/R/I_Dist_500_LN_7_LD_21_RN_5_RD_6_1.png","img2/100/Equal/L/E_Dist_100_LN_6_LD_10_RN_6_RD_12_0.png","img2/100/Congruent/L/C_Dist_100_LN_11_LD_22_RN_4_RD_10_0.png","img2/100/Equal/R/E_Dist_100_LN_6_LD_12_RN_6_RD_10_1.png","img2/300/Equal/R/E_Dist_300_LN_3_LD_10_RN_3_RD_5_1.png","img2/300/Incongruent/L/I_Dist_300_LN_2_LD_4_RN_6_RD_30_0.png","img2/200/Incongruent/R/I_Dist_200_LN_7_LD_15_RN_4_RD_6_1.png","img2/300/Congruent/R/C_Dist_300_LN_7_LD_14_RN_20_RD_25_1.png","img2/100/Incongruent/R/I_Dist_100_LN_9_LD_18_RN_6_RD_10_1.png","img2/100/Incongruent/R/I_Dist_100_LN_11_LD_22_RN_9_RD_15_1.png","img2/300/Congruent/L/C_Dist_300_LN_3_LD_6_RN_2_RD_10_0.png","img2/200/Incongruent/L/I_Dist_200_LN_4_LD_5_RN_6_RD_10_0.png","img2/300/Incongruent/R/I_Dist_300_LN_13_LD_26_RN_12_RD_15_1.png","img2/100/Incongruent/R/I_Dist_100_LN_10_LD_25_RN_8_RD_16_1.png","img2/100/Equal/R/E_Dist_100_LN_6_LD_12_RN_6_RD_10_1.png","img2/200/Equal/R/E_Dist_200_LN_3_LD_10_RN_3_RD_6_1.png","img2/300/Congruent/R/C_Dist_300_LN_1_LD_20_RN_7_RD_20_1.png","img2/500/Congruent/R/C_Dist_500_LN_9_LD_27_RN_20_RD_24_1.png","img2/200/Incongruent/L/I_Dist_200_LN_4_LD_6_RN_14_RD_30_0.png","img2/200/Incongruent/L/I_Dist_200_LN_4_LD_5_RN_6_RD_10_0.png","img2/500/Incongruent/R/I_Dist_500_LN_7_LD_21_RN_5_RD_6_1.png","img2/100/Congruent/R/C_Dist_100_LN_4_LD_8_RN_6_RD_10_1.png","img2/200/Congruent/L/C_Dist_200_LN_9_LD_20_RN_4_RD_16_0.png","img2/300/Incongruent/L/I_Dist_300_LN_2_LD_4_RN_6_RD_30_0.png","img2/300/Incongruent/R/I_Dist_300_LN_4_LD_20_RN_2_RD_4_1.png"],"dist100_C":[["C_Dist_100_LN_10_LD_25_RN_3_RD_10_0.png","C_Dist_100_LN_11_LD_22_RN_4_RD_10_0.png","C_Dist_100_LN_11_LD_22_RN_6_RD_15_0.png","C_Dist_100_LN_15_LD_25_RN_13_RD_26_0.png","C_Dist_100_LN_3_LD_6_RN_2_RD_5_0.png","C_Dist_100_LN_6_LD_20_RN_5_RD_25_0.png","C_Dist_100_LN_8_LD_16_RN_2_RD_5_0.png","C_Dist_100_LN_9_LD_15_RN_8_RD_16_0.png"],["C_Dist_100_LN_1_LD_2_RN_18_RD_30_1.png","C_Dist_100_LN_1_LD_2_RN_3_RD_5_1.png","C_Dist_100_LN_12_LD_30_RN_13_RD_26_1.png","C_Dist_100_LN_2_LD_5_RN_11_RD_22_1.png","C_Dist_100_LN_2_LD_5_RN_6_RD_12_1.png","C_Dist_100_LN_3_LD_20_RN_4_RD_16_1.png","C_Dist_100_LN_4_LD_10_RN_15_RD_30_1.png","C_Dist_100_LN_4_LD_8_RN_6_RD_10_1.png","C_Dist_100_LN_6_LD_12_RN_15_RD_25_1.png","C_Dist_100_LN_7_LD_14_RN_15_RD_25_1.png","C_Dist_100_LN_7_LD_14_RN_9_RD_15_1.png"]],"dist100_I":[["I_Dist_100_LN_1_LD_2_RN_8_RD_20_0.png","I_Dist_100_LN_2_LD_4_RN_6_RD_15_0.png","I_Dist_100_LN_2_LD_4_RN_8_RD_20_0.png","I_Dist_100_LN_3_LD_5_RN_11_RD_22_0.png","I_Dist_100_LN_3_LD_5_RN_8_RD_16_0.png","I_Dist_100_LN_3_LD_6_RN_4_RD_10_0.png","I_Dist_100_LN_3_LD_9_RN_7_RD_30_0.png","I_Dist_100_LN_4_LD_8_RN_8_RD_20_0.png","I_Dist_100_LN_6_LD_10_RN_11_RD_22_0.png","I_Dist_100_LN_6_LD_10_RN_13_RD_26_0.png","I_Dist_100_LN_6_LD_10_RN_7_RD_14_0.png","I_Dist_100_LN_9_LD_10_RN_20_RD_25_0.png","I_Dist_100_LN_9_LD_15_RN_13_RD_26_0.png","I_Dist_100_LN_9_LD_15_RN_14_RD_28_0.png"],["I_Dist_100_LN_10_LD_25_RN_8_RD_16_1.png","I_Dist_100_LN_10_LD_25_RN_9_RD_18_1.png","I_Dist_100_LN_11_LD_22_RN_9_RD_15_1.png","I_Dist_100_LN_12_LD_24_RN_9_RD_15_1.png","I_Dist_100_LN_12_LD_30_RN_2_RD_4_1.png","I_Dist_100_LN_13_LD_26_RN_12_RD_20_1.png","I_Dist_100_LN_13_LD_26_RN_6_RD_10_1.png","I_Dist_100_LN_17_LD_30_RN_10_RD_15_1.png","I_Dist_100_LN_6_LD_12_RN_3_RD_5_1.png","I_Dist_100_LN_8_LD_16_RN_6_RD_10_1.png","I_Dist_100_LN_8_LD_20_RN_1_RD_2_1.png","I_Dist_100_LN_9_LD_18_RN_6_RD_10_1.png"]],"dist100_S":[["E_Dist_100_LN_2_LD_12_RN_2_RD_30_0.png","E_Dist_100_LN_6_LD_10_RN_6_RD_12_0.png"],["E_Dist_100_LN_6_LD_12_RN_6_RD_10_1.png"]],"dist200_C":[["C_Dist_200_LN_11_LD_22_RN_3_RD_10_0.png","C_Dist_200_LN_12_LD_15_RN_6_RD_10_0.png","C_Dist_200_LN_12_LD_20_RN_6_RD_15_0.png","C_Dist_200_LN_14_LD_28_RN_6_RD_20_0.png","C_Dist_200_LN_15_LD_25_RN_4_RD_10_0.png","C_Dist_200_LN_16_LD_20_RN_12_RD_20_0.png","C_Dist_200_LN_16_LD_30_RN_9_RD_27_0.png","C_Dist_200_LN_20_LD_25_RN_9_RD_15_0.png","C_Dist_200_LN_21_LD_30_RN_2_RD_4_0.png","C_Dist_200_LN_4_LD_10_RN_3_RD_15_0.png","C_Dist_200_LN_4_LD_8_RN_3_RD_10_0.png","C_Dist_200_LN_6_LD_15_RN_3_RD_15_0.png","C_Dist_200_LN_7_LD_21_RN_2_RD_15_0.png","C_Dist_200_LN_8_LD_15_RN_2_RD_6_0.png","C_Dist_200_LN_8_LD_15_RN_3_RD_9_0.png","C_Dist_200_LN_8_LD_15_RN_7_RD_21_0.png","C_Dist_200_LN_9_LD_20_RN_4_RD_16_0.png"],["C_Dist_200_LN_1_LD_2_RN_21_RD_30_1.png","C_Dist_200_LN_13_LD_26_RN_14_RD_20_1.png","C_Dist_200_LN_3_LD_10_RN_11_RD_22_1.png","C_Dist_200_LN_3_LD_10_RN_14_RD_28_1.png","C_Dist_200_LN_3_LD_10_RN_7_RD_14_1.png","C_Dist_200_LN_3_LD_12_RN_9_RD_20_1.png","C_Dist_200_LN_3_LD_6_RN_14_RD_20_1.png","C_Dist_200_LN_5_LD_10_RN_14_RD_20_1.png","C_Dist_200_LN_6_LD_12_RN_7_RD_10_1.png","C_Dist_200_LN_6_LD_20_RN_11_RD_22_1.png","C_Dist_200_LN_7_LD_15_RN_18_RD_27_1.png","C_Dist_200_LN_9_LD_30_RN_13_RD_26_1.png"]],"dist200_I":[["I_Dist_200_LN_1_LD_2_RN_3_RD_10_0.png","I_Dist_200_LN_1_LD_3_RN_2_RD_15_0.png","I_Dist_200_LN_3_LD_4_RN_11_RD_20_0.png","I_Dist_200_LN_4_LD_5_RN_6_RD_10_0.png","I_Dist_200_LN_4_LD_6_RN_14_RD_30_0.png","I_Dist_200_LN_7_LD_10_RN_12_RD_24_0.png","I_Dist_200_LN_7_LD_10_RN_14_RD_28_0.png","I_Dist_200_LN_7_LD_10_RN_8_RD_16_0.png"],["I_Dist_200_LN_11_LD_20_RN_3_RD_4_1.png","I_Dist_200_LN_14_LD_30_RN_12_RD_18_1.png","I_Dist_200_LN_14_LD_30_RN_6_RD_9_1.png","I_Dist_200_LN_3_LD_10_RN_1_RD_2_1.png","I_Dist_200_LN_4_LD_30_RN_1_RD_3_1.png","I_Dist_200_LN_6_LD_20_RN_3_RD_6_1.png","I_Dist_200_LN_7_LD_15_RN_4_RD_6_1.png","I_Dist_200_LN_7_LD_15_RN_6_RD_9_1.png","I_Dist_200_LN_9_LD_15_RN_8_RD_10_1.png"]],"dist200_S":[["E_Dist_200_LN_3_LD_6_RN_3_RD_10_0.png"],["E_Dist_200_LN_3_LD_10_RN_3_RD_6_1.png"]],"dist300_C":[["C_Dist_300_LN_11_LD_22_RN_1_RD_5_0.png","C_Dist_300_LN_11_LD_22_RN_2_RD_10_0.png","C_Dist_300_LN_11_LD_22_RN_4_RD_20_0.png","C_Dist_300_LN_12_LD_24_RN_2_RD_10_0.png","C_Dist_300_LN_18_LD_20_RN_9_RD_15_0.png","C_Dist_300_LN_20_LD_25_RN_13_RD_26_0.png","C_Dist_300_LN_20_LD_25_RN_14_RD_28_0.png","C_Dist_300_LN_20_LD_25_RN_5_RD_10_0.png","C_Dist_300_LN_20_LD_25_RN_8_RD_16_0.png","C_Dist_300_LN_20_LD_25_RN_9_RD_18_0.png","C_Dist_300_LN_24_LD_30_RN_2_RD_4_0.png","C_Dist_300_LN_24_LD_30_RN_8_RD_16_0.png","C_Dist_300_LN_3_LD_6_RN_2_RD_10_0.png","C_Dist_300_LN_4_LD_10_RN_1_RD_10_0.png","C_Dist_300_LN_4_LD_5_RN_2_RD_4_0.png","C_Dist_300_LN_8_LD_16_RN_1_RD_5_0.png","C_Dist_300_LN_9_LD_10_RN_3_RD_5_0.png"],["C_Dist_300_LN_1_LD_20_RN_7_RD_20_1.png","C_Dist_300_LN_1_LD_3_RN_19_RD_30_1.png","C_Dist_300_LN_1_LD_30_RN_8_RD_24_1.png","C_Dist_300_LN_1_LD_5_RN_11_RD_22_1.png","C_Dist_300_LN_1_LD_5_RN_3_RD_6_1.png","C_Dist_300_LN_1_LD_5_RN_6_RD_12_1.png","C_Dist_300_LN_2_LD_10_RN_12_RD_24_1.png","C_Dist_300_LN_2_LD_20_RN_10_RD_25_1.png","C_Dist_300_LN_3_LD_12_RN_11_RD_20_1.png","C_Dist_300_LN_3_LD_6_RN_4_RD_5_1.png","C_Dist_300_LN_4_LD_20_RN_13_RD_26_1.png","C_Dist_300_LN_5_LD_25_RN_6_RD_12_1.png","C_Dist_300_LN_5_LD_25_RN_7_RD_14_1.png","C_Dist_300_LN_7_LD_14_RN_20_RD_25_1.png","C_Dist_300_LN_8_LD_15_RN_10_RD_12_1.png"]],"dist300_I":[["I_Dist_300_LN_1_LD_2_RN_2_RD_10_0.png","I_Dist_300_LN_1_LD_2_RN_3_RD_15_0.png","I_Dist_300_LN_2_LD_4_RN_6_RD_30_0.png","I_Dist_300_LN_3_LD_6_RN_4_RD_20_0.png","I_Dist_300_LN_4_LD_5_RN_6_RD_12_0.png","I_Dist_300_LN_4_LD_5_RN_8_RD_16_0.png","I_Dist_300_LN_7_LD_10_RN_8_RD_20_0.png","I_Dist_300_LN_8_LD_10_RN_14_RD_28_0.png","I_Dist_300_LN_8_LD_10_RN_9_RD_18_0.png"],["I_Dist_300_LN_13_LD_26_RN_12_RD_15_1.png","I_Dist_300_LN_4_LD_20_RN_2_RD_4_1.png"]],"dist300_S":[["E_Dist_300_LN_9_LD_12_RN_9_RD_20_0.png"],["E_Dist_300_LN_18_LD_30_RN_18_RD_20_1.png","E_Dist_300_LN_3_LD_10_RN_3_RD_5_1.png","E_Dist_300_LN_9_LD_20_RN_9_RD_12_1.png"]],"dist500_C":[["C_Dist_500_LN_10_LD_13_RN_7_RD_26_0.png","C_Dist_500_LN_10_LD_15_RN_4_RD_24_0.png","C_Dist_500_LN_12_LD_16_RN_3_RD_12_0.png","C_Dist_500_LN_12_LD_18_RN_4_RD_24_0.png","C_Dist_500_LN_15_LD_18_RN_5_RD_15_0.png","C_Dist_500_LN_15_LD_20_RN_1_RD_4_0.png","C_Dist_500_LN_18_LD_27_RN_1_RD_6_0.png","C_Dist_500_LN_20_LD_24_RN_1_RD_3_0.png","C_Dist_500_LN_20_LD_24_RN_3_RD_9_0.png","C_Dist_500_LN_20_LD_24_RN_7_RD_21_0.png","C_Dist_500_LN_20_LD_28_RN_3_RD_14_0.png","C_Dist_500_LN_21_LD_28_RN_6_RD_24_0.png","C_Dist_500_LN_22_LD_28_RN_2_RD_7_0.png","C_Dist_500_LN_25_LD_30_RN_9_RD_27_0.png","C_Dist_500_LN_4_LD_6_RN_1_RD_6_0.png","C_Dist_500_LN_5_LD_6_RN_2_RD_6_0.png","C_Dist_500_LN_6_LD_9_RN_1_RD_6_0.png","C_Dist_500_LN_7_LD_10_RN_1_RD_5_0.png","C_Dist_500_LN_8_LD_12_RN_1_RD_6_0.png","C_Dist_500_LN_8_LD_12_RN_4_RD_24_0.png"],["C_Dist_500_LN_1_LD_4_RN_12_RD_16_1.png","C_Dist_500_LN_1_LD_4_RN_9_RD_12_1.png","C_Dist_500_LN_1_LD_9_RN_11_RD_18_1.png","C_Dist_500_LN_10_LD_24_RN_22_RD_24_1.png","C_Dist_500_LN_2_LD_12_RN_10_RD_15_1.png","C_Dist_500_LN_2_LD_12_RN_12_RD_18_1.png","C_Dist_500_LN_2_LD_12_RN_4_RD_6_1.png","C_Dist_500_LN_2_LD_24_RN_7_RD_12_1.png","C_Dist_500_LN_2_LD_5_RN_18_RD_20_1.png","C_Dist_500_LN_2_LD_5_RN_9_RD_10_1.png","C_Dist_500_LN_2_LD_8_RN_12_RD_16_1.png","C_Dist_500_LN_2_LD_8_RN_21_RD_28_1.png","C_Dist_500_LN_3_LD_10_RN_4_RD_5_1.png","C_Dist_500_LN_3_LD_12_RN_15_RD_20_1.png","C_Dist_500_LN_3_LD_30_RN_6_RD_10_1.png","C_Dist_500_LN_3_LD_8_RN_14_RD_16_1.png","C_Dist_500_LN_4_LD_16_RN_15_RD_20_1.png","C_Dist_500_LN_4_LD_24_RN_12_RD_18_1.png","C_Dist_500_LN_5_LD_14_RN_6_RD_7_1.png","C_Dist_500_LN_7_LD_21_RN_20_RD_24_1.png","C_Dist_500_LN_7_LD_28_RN_12_RD_16_1.png","C_Dist_500_LN_7_LD_28_RN_9_RD_12_1.png","C_Dist_500_LN_9_LD_27_RN_20_RD_24_1.png"]],"dist500_I":[["I_Dist_500_LN_2_LD_3_RN_4_RD_24_0.png","I_Dist_500_LN_5_LD_6_RN_6_RD_18_0.png","I_Dist_500_LN_7_LD_8_RN_9_RD_24_0.png"],["I_Dist_500_LN_7_LD_21_RN_5_RD_6_1.png"]],"dist500_S":[["E_Dist_500_LN_6_LD_8_RN_6_RD_24_0.png"],["E_Dist_500_LN_2_LD_12_RN_2_RD_3_1.png","E_Dist_500_LN_6_LD_24_RN_6_RD_8_1.png"]]}},{"start_time":1549309174732,"click_time":1549309176980,"finger_time":1549309176320,"fix_duration":609.750761842445,"trial":1,"RT":1588,"MT":660,"sideResp":1,"stimulus":[],"xmouse":[398.739990234375,398.739990234375,398.739990234375,398.739990234375,395.3330078125,395.3330078125,395.3330078125,395.3330078125,395.3330078125,395.3330078125,393.4419860839844,392.6669921875,392.6669921875,392.6669921875,392.6669921875,392.6669921875,392.6669921875,392.6669921875,392.6669921875,392.6669921875,392.6669921875,392,392,392,392,392,392,392,392,392,392,391.3330078125,391.3330078125,391.3330078125,391.3330078125,391.3330078125,391.3330078125,391.3330078125,391.3330078125,391.3330078125,391.3330078125,390,390,390,390,390,390,390,390,390,390,390,390,390,390,390,390,390,390,390,390,390.6669921875,390.6669921875,390.6669921875,390.6669921875,390.6669921875,390.6669921875,390.6669921875,390.6669921875,390.6669921875,390.6669921875,390,390,390,390,381.1889953613281,379.7179870605469,376.6289978027344,374.427001953125,371.3940124511719,368.114990234375,359.68701171875,355.9289855957031,351.6159973144531,348.62799072265625,343.0060119628906,339.61700439453125,337.3760070800781,333.17401123046875,328.7879943847656,319.5249938964844,314.1990051269531,308.02099609375,301.71099853515625,293.2510070800781,282.0260009765625,263.5159912109375,254.36500549316406,245.64599609375,235.69500732421875,227.35000610351562,209.87100219726562,201.29200744628906,191.94900512695312,182.53199768066406,173.51100158691406,153.9459991455078,145.78399658203125,135.93899536132812,128.1510009765625,119.97599792480469,110.01599884033203],"ymouse":[825.3330078125,825.3330078125,825.3330078125,825.3330078125,827.3330078125,827.3330078125,827.3330078125,827.3330078125,827.3330078125,827.3330078125,828.6669921875,829.1719970703125,829.1719970703125,829.1719970703125,829.1719970703125,829.1719970703125,829.1719970703125,829.1719970703125,829.1719970703125,829.1719970703125,829.1719970703125,829,829,829,829,829,829,829,829,829,829,829.3330078125,829.3330078125,829.3330078125,829.3330078125,829.3330078125,829.3330078125,829.3330078125,829.3330078125,829.3330078125,829.3330078125,828,828,828,828,828,828,828,828,828,828,828,828,828,828,828,828,828,828,828,828,826.6669921875,826.6669921875,826.6669921875,826.6669921875,826.6669921875,826.6669921875,826.6669921875,826.6669921875,826.6669921875,826.6669921875,824,824,824,824,794.7559814453125,781.281982421875,768.2890014648438,758.375,747.1099853515625,734.5180053710938,713.0599975585938,702.8209838867188,692.0390014648438,681.8829956054688,662.5260009765625,652.8499755859375,639.2760009765625,624.5889892578125,610.56298828125,577.9450073242188,561.2109985351562,544.385009765625,528.239013671875,508.386962890625,482.06298828125,433.5010070800781,409.8550109863281,386.1940002441406,361.9209899902344,337.59600830078125,291.97198486328125,268.56201171875,244.83099365234375,222.58299255371094,200.7779998779297,160.85000610351562,141.06500244140625,125.97900390625,112.83000183105469,100.61900329589844,84.5199966430664],"timestamp_mouse":[8,61,67,87,107,127,147,167,187,207,227,248,267,287,307,327,347,367,387,407,428,447,467,487,507,527,547,567,587,607,627,647,667,687,707,727,747,767,787,807,829,847,867,887,907,930,947,967,987,1007,1027,1047,1067,1087,1107,1127,1147,1168,1187,1207,1227,1248,1268,1287,1307,1327,1348,1367,1387,1408,1427,1449,1469,1487,1507,1530,1547,1567,1587,1607,1628,1647,1668,1688,1707,1733,1748,1768,1788,1808,1831,1848,1868,1888,1908,1928,1948,1968,1988,2008,2028,2048,2068,2088,2108,2128,2148,2171,2188,2208,2228,2248],"xSR":350,"ySR":768,"xT1":30,"yT1":0,"xT2":670,"yT2":0,"toosoon":0,"cond_shown":"Equal","ratio_trial":200,"L_num":3,"L_den":6,"R_num":3,"R_den":10,"correct_side":1,"subjID":"2","gender":"No_gender","school":"No_school","age":"No_age"},{"start_time":1549309179153,"click_time":1549309180386,"finger_time":1549309179982,"fix_duration":250,"trial":2,"RT":829,"MT":404,"sideResp":2,"stimulus":[],"xmouse":[424,424,424,424,424,424,424,424,424,424,424,424,424,424,424,424,424,424,424,424,424,424,424,424,424,424,424,424,424,424,424,424,424,424.1260070800781,425.1449890136719,425.1449890136719,425.1449890136719,425.1449890136719,436.7590026855469,450.2430114746094,459.3739929199219,470.86199951171875,486.5299987792969,503.0509948730469,535.0969848632812,550.3800048828125,558.801025390625,565.7269897460938,571.7739868164062,586.7650146484375,598.364990234375,607.8920288085938,618.3900146484375,629.9010009765625,652.3900146484375,663.2410278320312,673.9959716796875,685.5980224609375,693.9669799804688,710.0059814453125],"ymouse":[834,834,834,834,834,834,834,834,834,834,834,834,834,834,834,834,834,834,834,834,834,834,834,834,834,834,834,834,834,834,834,834,834,825.2069702148438,823.0440063476562,823.0440063476562,823.0440063476562,823.0440063476562,805.5289916992188,786.968994140625,770.1370239257812,743.47802734375,709.6610107421875,678.6610107421875,614.77001953125,578.3150024414062,540.0789794921875,501.552001953125,464.3909912109375,393.3009948730469,356.99798583984375,322.2980041503906,291.07000732421875,262.2590026855469,207.86300659179688,184.5229949951172,162.00799560546875,141.05799865722656,120.74800109863281,80.6500015258789],"timestamp_mouse":[66,68,89,109,129,149,169,189,209,229,249,269,289,309,329,349,369,389,409,429,449,469,489,509,529,549,569,589,609,629,649,669,689,709,729,749,769,789,809,829,849,869,889,909,929,949,969,989,1009,1033,1049,1069,1089,1109,1132,1149,1169,1189,1209,1233],"xSR":350,"ySR":768,"xT1":30,"yT1":0,"xT2":670,"yT2":0,"toosoon":0,"cond_shown":"Congruent","ratio_trial":100,"L_num":4,"L_den":8,"R_num":6,"R_den":10,"correct_side":2,"subjID":"2","gender":"No_gender","school":"No_school","age":"No_age"},{"start_time":1549309182761,"click_time":1549309184723,"finger_time":1549309184282,"fix_duration":717.5397411981072,"trial":3,"RT":1521,"MT":441,"sideResp":1,"stimulus":[],"xmouse":[430,430,430,430,430,430,430,430,430,430,430,430,430,430,426.3370056152344,426,426,426,426,426,426,426,426,426,426,422.218994140625,422.218994140625,422.218994140625,422.218994140625,422.218994140625,422.218994140625,419.3330078125,418.4549865722656,418.04901123046875,416.9570007324219,414.1340026855469,413.0539855957031,411.2909851074219,409.5459899902344,407.6000061035156,404.9670104980469,403.88299560546875,402.135009765625,401.0400085449219,400.62799072265625,398.47900390625,397.37799072265625,396.3030090332031,395.2239990234375,394.17999267578125,392.0140075683594,390.9389953613281,390.6669921875,389.4389953613281,389.3330078125,389.7869873046875,390,390,390,390,390,390,390,390.6669921875,390.6669921875,390.6669921875,390,390,390,390,390,390,390,383.7959899902344,382.4859924316406,377.3219909667969,374.40399169921875,369.5769958496094,363.177001953125,352.8190002441406,331.2919921875,320.5190124511719,307.8559875488281,294.2619934082031,281.6369934082031,254.2760009765625,236.70700073242188,218.75100708007812,200.44500732421875,181.28900146484375,181.28900146484375,143.70599365234375,135.46099853515625,129.01100158691406,124.64498901367188,120.73300170898438,115.62000274658203],"ymouse":[865,865,865,865,865,865,865,865,865,865,865,865,865,865,857.6699829101562,858,858,858,858,858,858,858,858,858,858,850.885986328125,850.885986328125,850.885986328125,850.885986328125,850.885986328125,850.885986328125,837.7750244140625,836.4550170898438,834.0969848632812,831.9140014648438,828.2680053710938,826.1079711914062,823.2080078125,820.6370239257812,817.4000244140625,810.9010009765625,808.4320068359375,805.0700073242188,802.7479858398438,800.6279907226562,796.2919921875,794.7570190429688,792.6069946289062,790.448974609375,788.3590087890625,784.0280151367188,781.8779907226562,780.5139770507812,778.7730102539062,778.6669921875,777.3330078125,778,778,778,778,778,778,778,781.5009765625,781.5009765625,781.5009765625,782,781,781,781,781,781,781,770.6939697265625,766.6099853515625,755.6270141601562,746.5449829101562,732.0640258789062,712.8660278320312,685.7570190429688,629.093017578125,598.2230224609375,565.9730224609375,531.6710205078125,493.1210021972656,417.10198974609375,377.75,341.50201416015625,306.0409851074219,272.3680114746094,272.3680114746094,182.99899291992188,158.78199768066406,138.09100341796875,121.9169921875,108.68900299072266,88.572998046875],"timestamp_mouse":[1,67,81,101,121,141,161,181,201,221,241,261,281,301,321,341,361,381,401,421,443,461,481,501,521,541,561,581,601,621,642,661,681,701,721,742,761,781,801,821,842,861,881,902,921,943,961,981,1001,1021,1042,1061,1081,1101,1121,1142,1163,1181,1201,1221,1242,1261,1281,1301,1321,1341,1361,1381,1401,1421,1441,1462,1481,1501,1521,1543,1562,1581,1601,1621,1644,1662,1681,1701,1721,1744,1762,1781,1801,1821,1841,1861,1881,1901,1921,1941,1961],"xSR":350,"ySR":768,"xT1":30,"yT1":0,"xT2":670,"yT2":0,"toosoon":0,"cond_shown":"Congruent","ratio_trial":200,"L_num":3,"L_den":10,"R_num":7,"R_den":14,"correct_side":2,"subjID":"2","gender":"No_gender","school":"No_school","age":"No_age"},{"start_time":1549309186634,"click_time":1549309187764,"finger_time":1549309187764,"fix_duration":250,"trial":4,"RT":1130,"MT":0,"sideResp":2,"stimulus":[],"xmouse":[406,406,406,406,406,406,406,406,406,406,406,406,405.3330078125,405.3330078125,405.3330078125,405.3330078125,405.3330078125,405.3330078125,405.3330078125,405.3330078125,403,403,403,403,403,403,403,403,403,403,403,403,403,403,403,403,403,403,403,403,403,403,403,403,403,403,403,403,403,403,403,403,403,403,740],"ymouse":[823,823,823,823,823,823,823,823,823,823,823,823,823.3330078125,823.3330078125,822.6669921875,822.6669921875,822.6669921875,822.6669921875,822.6669921875,822.6669921875,820,820,820,820,820,820,820,820,820,820,820,820,820,820,820,820,820,820,820,820,820,820,820,820,820,820,820,820,820,820,820,820,820,820,57],"timestamp_mouse":[9,80,89,109,129,149,169,189,209,229,249,269,289,309,329,349,369,389,409,429,449,469,489,509,529,549,569,589,609,629,649,669,689,709,729,749,769,789,809,829,849,869,889,909,929,949,969,989,1009,1029,1049,1069,1089,1109,1130],"xSR":350,"ySR":768,"xT1":30,"yT1":0,"xT2":670,"yT2":0,"toosoon":0,"cond_shown":"Incongruent","ratio_trial":300,"L_num":13,"L_den":26,"R_num":12,"R_den":15,"correct_side":2,"subjID":"2","gender":"No_gender","school":"No_school","age":"No_age"},{"start_time":1549309190014,"click_time":1549309191365,"finger_time":1549309190823,"fix_duration":869.3427751463189,"trial":5,"RT":809,"MT":542,"sideResp":1,"stimulus":[],"xmouse":[413.8380126953125,413.4280090332031,413.4280090332031,413.4280090332031,413.4280090332031,413.4280090332031,413.4280090332031,413.4280090332031,413.4280090332031,413.4280090332031,410.6669921875,410.6669921875,410.6669921875,410.6669921875,410.6669921875,410.6669921875,410.6669921875,410.6669921875,410.6669921875,410.6669921875,410,410,410,410,410,410,410,410,410,410,412.1369934082031,412.1369934082031,412.1369934082031,412.1369934082031,406.7229919433594,403.27398681640625,400.3299865722656,398.94000244140625,396.7959899902344,393.9639892578125,387.33099365234375,383.6700134277344,379.01300048828125,373.614990234375,366.4389953613281,360.8659973144531,345.5849914550781,336.9840087890625,328.3500061035156,319.7919921875,309.7569885253906,289.9649963378906,279.4580078125,271.7980041503906,263.4580078125,254.47698974609375,233.91000366210938,222.1540069580078,210.36599731445312,198.5709991455078,186.63600158691406,164.63999938964844,153.9340057373047,145.59100341796875,136.98899841308594,128.41000366210938,113.03700256347656],"ymouse":[839.3330078125,838.6669921875,838.6669921875,838.6669921875,838.6669921875,838.6669921875,838.6669921875,838.6669921875,838.6669921875,838.6669921875,836.6669921875,836.6669921875,836.6669921875,836.6669921875,836.6669921875,836.6669921875,836.6669921875,836.6669921875,836.6669921875,836.6669921875,836,836,836,836,836,836,836,836,836,836,833.8629760742188,833.8629760742188,833.8629760742188,833.8629760742188,818.1129760742188,802.791015625,793.6580200195312,785.0919799804688,776.5189819335938,765.8930053710938,744.9940185546875,736.0910034179688,726.3560180664062,715.1530151367188,701.5460205078125,689.5040283203125,643.9840087890625,616.030029296875,589.177001953125,563.375,538.1069946289062,493.0740051269531,472.33599853515625,449.0790100097656,428.67401123046875,407.7590026855469,358.7179870605469,332.9419860839844,306.468994140625,279.3009948730469,253.447998046875,202.73800659179688,180.53500366210938,160.19400024414062,139.76499938964844,122.78700256347656,97.02200317382812],"timestamp_mouse":[9,65,69,89,109,129,149,169,189,209,229,249,269,289,309,329,349,369,389,409,429,449,469,489,509,532,549,569,589,609,629,649,669,689,709,731,749,769,789,809,831,852,869,889,909,929,950,969,989,1009,1029,1051,1069,1089,1109,1129,1150,1169,1189,1209,1229,1250,1269,1289,1309,1329,1351],"xSR":350,"ySR":768,"xT1":30,"yT1":0,"xT2":670,"yT2":0,"toosoon":0,"cond_shown":"Equal","ratio_trial":500,"L_num":6,"L_den":8,"R_num":6,"R_den":24,"correct_side":1,"subjID":"2","gender":"No_gender","school":"No_school","age":"No_age"},{"start_time":1549309193115,"click_time":1549309194984,"finger_time":1549309194184,"fix_duration":250,"trial":6,"RT":1069,"MT":800,"sideResp":1,"stimulus":[],"xmouse":[424.6669921875,423.3330078125,423.3330078125,423.3330078125,423.3330078125,423.3330078125,423.3330078125,423.3330078125,423.3330078125,423.3330078125,423.3330078125,420.6669921875,420.6669921875,420.6669921875,420.6669921875,420.6669921875,420.6669921875,420.6669921875,420.6669921875,420.6669921875,420.6669921875,418.8890075683594,418.8890075683594,418.8890075683594,418.8890075683594,418.8890075683594,418.8890075683594,418.8890075683594,418.8890075683594,418.8890075683594,418.8890075683594,417.3330078125,417.3330078125,417.3330078125,417.3330078125,417.3330078125,417.3330078125,417.3330078125,417.3330078125,417.3330078125,417.3330078125,422.27398681640625,422.27398681640625,422.27398681640625,422.27398681640625,422.27398681640625,422.27398681640625,422.27398681640625,422.27398681640625,422.27398681640625,422.27398681640625,428.29998779296875,428.29998779296875,428.29998779296875,428.29998779296875,428.29998779296875,428.29998779296875,428.29998779296875,428.29998779296875,428.29998779296875,428.29998779296875,344.697998046875,344.697998046875,344.697998046875,344.697998046875,344.697998046875,344.697998046875,344.697998046875,344.697998046875,344.697998046875,344.697998046875,183.51300048828125,183.51300048828125,183.51300048828125,183.51300048828125,183.51300048828125,183.51300048828125,183.51300048828125,183.51300048828125,183.51300048828125,183.51300048828125,112.79900360107422,112.79900360107422,112.79900360107422,112.79900360107422,112.79900360107422,112.79900360107422,112.79900360107422,112.79900360107422,112.79900360107422,112.79900360107422,84],"ymouse":[824.6690063476562,829.3330078125,829.3330078125,829.3330078125,829.3330078125,829.3330078125,829.3330078125,829.3330078125,829.3330078125,829.3330078125,829.3330078125,829.3330078125,829.3330078125,829.3330078125,829.3330078125,829.3330078125,829.3330078125,829.3330078125,829.3330078125,829.3330078125,829.3330078125,828.2219848632812,828.2219848632812,828.2219848632812,828.2219848632812,828.2219848632812,828.2219848632812,828.2219848632812,828.2219848632812,828.2219848632812,828.2219848632812,812.6740112304688,812.6740112304688,812.6740112304688,812.6740112304688,812.6740112304688,812.6740112304688,812.6740112304688,812.6740112304688,812.6740112304688,812.6740112304688,801.1790161132812,801.1790161132812,801.1790161132812,801.1790161132812,801.1790161132812,801.1790161132812,801.1790161132812,801.1790161132812,801.1790161132812,801.1790161132812,763.2670288085938,763.2670288085938,763.2670288085938,763.2670288085938,763.2670288085938,763.2670288085938,763.2670288085938,763.2670288085938,763.2670288085938,763.2670288085938,608.8359985351562,608.8359985351562,608.8359985351562,608.8359985351562,608.8359985351562,608.8359985351562,608.8359985351562,608.8359985351562,608.8359985351562,608.8359985351562,282.697998046875,282.697998046875,282.697998046875,282.697998046875,282.697998046875,282.697998046875,282.697998046875,282.697998046875,282.697998046875,282.697998046875,119.12999725341797,119.12999725341797,119.12999725341797,119.12999725341797,119.12999725341797,119.12999725341797,119.12999725341797,119.12999725341797,119.12999725341797,119.12999725341797,46],"timestamp_mouse":[9,72,89,109,129,149,169,189,209,229,249,269,289,309,329,349,369,389,409,429,449,469,489,509,529,549,569,589,609,629,649,669,689,709,729,749,769,789,809,829,849,869,889,909,929,949,969,989,1009,1029,1049,1069,1089,1109,1129,1149,1169,1189,1209,1229,1249,1269,1289,1309,1329,1349,1369,1389,1409,1429,1449,1469,1489,1509,1529,1549,1569,1589,1609,1629,1649,1669,1689,1709,1729,1749,1769,1789,1809,1829,1849,1869],"xSR":350,"ySR":768,"xT1":30,"yT1":0,"xT2":670,"yT2":0,"toosoon":0,"cond_shown":"Equal","ratio_trial":200,"L_num":3,"L_den":6,"R_num":3,"R_den":10,"correct_side":1,"subjID":"2","gender":"No_gender","school":"No_school","age":"No_age"},{"start_time":1549309198354,"click_time":1549309199725,"finger_time":1549309198924,"fix_duration":887.3538126539521,"trial":7,"RT":570,"MT":801,"sideResp":2,"stimulus":[],"xmouse":[408.6669921875,408.6669921875,408.6669921875,408.6669921875,408.6669921875,408.6669921875,408.6669921875,407,407,407,407,407,407,407,407,407,407,407.08099365234375,407.08099365234375,407.08099365234375,407.08099365234375,407.08099365234375,407.08099365234375,407.08099365234375,407.08099365234375,407.08099365234375,407.08099365234375,455.885986328125,455.885986328125,455.885986328125,455.885986328125,455.885986328125,455.885986328125,455.885986328125,455.885986328125,455.885986328125,455.885986328125,433.1969909667969,433.1969909667969,433.1969909667969,433.1969909667969,433.1969909667969,433.1969909667969,433.1969909667969,433.1969909667969,433.1969909667969,433.1969909667969,451.9259948730469,451.9259948730469,451.9259948730469,451.9259948730469,451.9259948730469,451.9259948730469,451.9259948730469,451.9259948730469,451.9259948730469,451.9259948730469,623.9429931640625,623.9429931640625,623.9429931640625,623.9429931640625,623.9429931640625,623.9429931640625,623.9429931640625,623.9429931640625,623.9429931640625,623.9429931640625,722.7940063476562],"ymouse":[838.6669921875,838.6669921875,838.6669921875,838.6669921875,838.6669921875,838.6669921875,838.6669921875,840,840,840,840,840,840,840,840,840,840,836.2520141601562,836.2520141601562,836.2520141601562,836.2520141601562,836.2520141601562,836.2520141601562,836.2520141601562,836.2520141601562,836.2520141601562,836.2520141601562,786.8179931640625,786.8179931640625,786.8179931640625,786.8179931640625,786.8179931640625,786.8179931640625,786.8179931640625,786.8179931640625,786.8179931640625,786.8179931640625,743.7269897460938,743.7269897460938,743.7269897460938,743.7269897460938,743.7269897460938,743.7269897460938,743.7269897460938,743.7269897460938,743.7269897460938,743.7269897460938,682.656005859375,682.656005859375,682.656005859375,682.656005859375,682.656005859375,682.656005859375,682.656005859375,682.656005859375,682.656005859375,682.656005859375,348.1130065917969,348.1130065917969,348.1130065917969,348.1130065917969,348.1130065917969,348.1130065917969,348.1130065917969,348.1130065917969,348.1130065917969,348.1130065917969,79.77400207519531],"timestamp_mouse":[10,30,87,90,110,130,150,170,190,210,230,250,270,290,310,330,350,370,390,410,430,450,470,490,510,530,550,570,590,610,630,650,670,690,710,730,750,770,790,810,831,850,870,890,910,930,950,970,990,1010,1030,1050,1070,1090,1110,1130,1150,1170,1191,1210,1230,1250,1270,1290,1310,1330,1350,1370],"xSR":350,"ySR":768,"xT1":30,"yT1":0,"xT2":670,"yT2":0,"toosoon":0,"cond_shown":"Equal","ratio_trial":200,"L_num":3,"L_den":10,"R_num":3,"R_den":6,"correct_side":2,"subjID":"2","gender":"No_gender","school":"No_school","age":"No_age"},{"start_time":1549309203670,"click_time":1549309205265,"finger_time":1549309204665,"fix_duration":543.1866429958977,"trial":8,"RT":995,"MT":600,"sideResp":2,"stimulus":[],"xmouse":[396,396,396,396,396,396,396,394.63299560546875,394.63299560546875,394.63299560546875,394.63299560546875,394.63299560546875,394.63299560546875,394.63299560546875,394.63299560546875,394.63299560546875,394.63299560546875,390,390,390,390,390,390,390,390,390,390,389.7449951171875,389.7449951171875,389.7449951171875,389.7449951171875,389.7449951171875,389.7449951171875,389.7449951171875,389.7449951171875,389.7449951171875,389.7449951171875,408.2669982910156,408.2669982910156,408.2669982910156,408.2669982910156,408.2669982910156,408.2669982910156,408.2669982910156,408.2669982910156,408.2669982910156,408.2669982910156,512.041015625,512.041015625,512.041015625,512.041015625,512.041015625,512.041015625,512.041015625,512.041015625,512.041015625,512.041015625,637.4550170898438,637.4550170898438,637.4550170898438,637.4550170898438,637.4550170898438,637.4550170898438,637.4550170898438,637.4550170898438,637.4550170898438,637.4550170898438,687.27197265625,687.27197265625,687.27197265625,687.27197265625,687.27197265625,687.27197265625,687.27197265625,687.27197265625,687.27197265625,687.27197265625,730.64501953125],"ymouse":[817,817,817,817,817,817,817,820.6669921875,820.6669921875,820.6669921875,820.6669921875,820.6669921875,820.6669921875,820.6669921875,820.6669921875,820.6669921875,820.6669921875,817,817,817,817,817,817,817,817,817,817,799.177001953125,799.177001953125,799.177001953125,799.177001953125,799.177001953125,799.177001953125,799.177001953125,799.177001953125,799.177001953125,799.177001953125,771.9329833984375,771.9329833984375,771.9329833984375,771.9329833984375,771.9329833984375,771.9329833984375,771.9329833984375,771.9329833984375,771.9329833984375,771.9329833984375,536.5640258789062,536.5640258789062,536.5640258789062,536.5640258789062,536.5640258789062,536.5640258789062,536.5640258789062,536.5640258789062,536.5640258789062,536.5640258789062,271.1180114746094,271.1180114746094,271.1180114746094,271.1180114746094,271.1180114746094,271.1180114746094,271.1180114746094,271.1180114746094,271.1180114746094,271.1180114746094,149.94200134277344,149.94200134277344,149.94200134277344,149.94200134277344,149.94200134277344,149.94200134277344,149.94200134277344,149.94200134277344,149.94200134277344,149.94200134277344,61.39799880981445],"timestamp_mouse":[75,77,95,115,135,155,175,195,215,235,255,275,295,315,335,355,375,395,415,435,455,475,495,515,535,555,575,595,615,635,655,675,695,715,735,755,775,795,815,835,855,875,895,915,935,955,975,995,1015,1035,1055,1075,1095,1115,1135,1155,1175,1195,1215,1235,1255,1275,1295,1315,1335,1355,1375,1395,1415,1435,1456,1475,1495,1515,1535,1556,1575,1595],"xSR":350,"ySR":768,"xT1":30,"yT1":0,"xT2":670,"yT2":0,"toosoon":0,"cond_shown":"Equal","ratio_trial":500,"L_num":2,"L_den":12,"R_num":2,"R_den":3,"correct_side":2,"subjID":"2","gender":"No_gender","school":"No_school","age":"No_age"},{"start_time":1549309206537,"click_time":1549309209106,"finger_time":1549309207906,"fix_duration":250,"trial":9,"RT":1369,"MT":1200,"sideResp":1,"stimulus":[],"xmouse":[421.4620056152344,421.4620056152344,421.4620056152344,421.4620056152344,421.4620056152344,421.4620056152344,420.6669921875,420.6669921875,420.6669921875,420.6669921875,420.6669921875,420.6669921875,420.6669921875,420.6669921875,420.6669921875,420.6669921875,420,420,420,420,420,420,420,420,420,420,419.3330078125,419.3330078125,419.3330078125,419.3330078125,419.3330078125,419.3330078125,419.3330078125,419.3330078125,419.3330078125,419.3330078125,414.6669921875,414.6669921875,414.6669921875,414.6669921875,414.6669921875,414.6669921875,414.6669921875,414.6669921875,414.6669921875,414.6669921875,406.66400146484375,406.66400146484375,406.66400146484375,406.66400146484375,406.66400146484375,406.66400146484375,406.66400146484375,406.66400146484375,406.66400146484375,406.66400146484375,385.7279968261719,385.7279968261719,385.7279968261719,385.7279968261719,385.7279968261719,385.7279968261719,385.7279968261719,385.7279968261719,385.7279968261719,385.7279968261719,359.5459899902344,359.5459899902344,359.5459899902344,359.5459899902344,359.5459899902344,359.5459899902344,359.5459899902344,359.5459899902344,359.5459899902344,359.5459899902344,326.7300109863281,326.7300109863281,326.7300109863281,326.7300109863281,326.7300109863281,326.7300109863281,326.7300109863281,326.7300109863281,326.7300109863281,326.7300109863281,291.5559997558594,291.5559997558594,291.5559997558594,291.5559997558594,291.5559997558594,291.5559997558594,291.5559997558594,291.5559997558594,291.5559997558594,291.5559997558594,244.4010009765625,244.4010009765625,244.4010009765625,244.4010009765625,244.4010009765625,244.4010009765625,244.4010009765625,244.4010009765625,244.4010009765625,244.4010009765625,172.9219970703125,172.9219970703125,172.9219970703125,172.9219970703125,172.9219970703125,172.9219970703125,172.9219970703125,172.9219970703125,172.9219970703125,172.9219970703125,124.19000244140625,124.19000244140625,124.19000244140625,124.19000244140625,124.19000244140625,124.19000244140625,124.19000244140625,124.19000244140625,124.19000244140625,124.19000244140625,97.33300018310547],"ymouse":[847.3330078125,847.3330078125,847.3330078125,847.3330078125,847.3330078125,847.3330078125,850.2139892578125,850.2139892578125,850.2139892578125,850.2139892578125,850.2139892578125,850.2139892578125,850.2139892578125,850.2139892578125,850.2139892578125,850.2139892578125,850,850,850,850,850,850,850,850,850,850,849.3330078125,849.3330078125,849.3330078125,849.3330078125,849.3330078125,849.3330078125,849.3330078125,849.3330078125,849.3330078125,849.3330078125,841.5029907226562,841.5029907226562,841.5029907226562,841.5029907226562,841.5029907226562,841.5029907226562,841.5029907226562,841.5029907226562,841.5029907226562,841.5029907226562,816.6610107421875,816.6610107421875,816.6610107421875,816.6610107421875,816.6610107421875,816.6610107421875,816.6610107421875,816.6610107421875,816.6610107421875,816.6610107421875,769.4559936523438,769.4559936523438,769.4559936523438,769.4559936523438,769.4559936523438,769.4559936523438,769.4559936523438,769.4559936523438,769.4559936523438,769.4559936523438,699.3040161132812,699.3040161132812,699.3040161132812,699.3040161132812,699.3040161132812,699.3040161132812,699.3040161132812,699.3040161132812,699.3040161132812,699.3040161132812,612.9199829101562,612.9199829101562,612.9199829101562,612.9199829101562,612.9199829101562,612.9199829101562,612.9199829101562,612.9199829101562,612.9199829101562,612.9199829101562,526.0750122070312,526.0750122070312,526.0750122070312,526.0750122070312,526.0750122070312,526.0750122070312,526.0750122070312,526.0750122070312,526.0750122070312,526.0750122070312,400.989013671875,400.989013671875,400.989013671875,400.989013671875,400.989013671875,400.989013671875,400.989013671875,400.989013671875,400.989013671875,400.989013671875,214.22900390625,214.22900390625,214.22900390625,214.22900390625,214.22900390625,214.22900390625,214.22900390625,214.22900390625,214.22900390625,214.22900390625,118.90399932861328,118.90399932861328,118.90399932861328,118.90399932861328,118.90399932861328,118.90399932861328,118.90399932861328,118.90399932861328,118.90399932861328,118.90399932861328,71.33300018310547],"timestamp_mouse":[8,28,49,119,128,148,169,189,208,228,249,269,289,308,328,348,368,389,409,428,449,469,489,509,528,549,569,589,609,629,649,669,689,709,729,749,769,789,809,829,849,869,889,909,929,949,969,989,1009,1029,1049,1069,1089,1109,1129,1149,1169,1189,1209,1229,1249,1269,1289,1309,1329,1349,1369,1389,1409,1429,1449,1469,1489,1509,1529,1549,1569,1589,1609,1629,1649,1669,1689,1709,1729,1749,1769,1789,1809,1829,1849,1869,1889,1909,1929,1949,1969,1989,2009,2029,2049,2069,2089,2109,2129,2149,2169,2189,2209,2229,2249,2269,2289,2309,2329,2349,2369,2389,2409,2429,2449,2469,2489,2509,2529,2549,2569],"xSR":350,"ySR":768,"xT1":30,"yT1":0,"xT2":670,"yT2":0,"toosoon":0,"cond_shown":"Incongruent","ratio_trial":300,"L_num":4,"L_den":5,"R_num":6,"R_den":12,"correct_side":1,"subjID":"2","gender":"No_gender","school":"No_school","age":"No_age"},{"start_time":1549309210985,"click_time":1549309212987,"finger_time":1549309211986,"fix_duration":816.0360042955526,"trial":10,"RT":1001,"MT":1001,"sideResp":2,"stimulus":[],"xmouse":[396,396,396,396,396,396,396,396,396,391.822998046875,391.822998046875,391.822998046875,391.822998046875,391.822998046875,391.822998046875,391.822998046875,391.822998046875,391.822998046875,391.822998046875,388,388,388,388,388,388,388,388,388,388,382.9209899902344,382.9209899902344,382.9209899902344,382.9209899902344,382.9209899902344,382.9209899902344,382.9209899902344,382.9209899902344,382.9209899902344,382.9209899902344,378,378,378,378,378,378,378,378,378,378,384.6029968261719,384.6029968261719,384.6029968261719,384.6029968261719,384.6029968261719,384.6029968261719,384.6029968261719,384.6029968261719,384.6029968261719,384.6029968261719,400.6960144042969,400.6960144042969,400.6960144042969,400.6960144042969,400.6960144042969,400.6960144042969,400.6960144042969,400.6960144042969,400.6960144042969,400.6960144042969,477.9289855957031,477.9289855957031,477.9289855957031,477.9289855957031,477.9289855957031,477.9289855957031,477.9289855957031,477.9289855957031,477.9289855957031,477.9289855957031,684.3359985351562,684.3359985351562,684.3359985351562,684.3359985351562,684.3359985351562,684.3359985351562,684.3359985351562,684.3359985351562,684.3359985351562,684.3359985351562,718,718,718,718,718,718,718,718,718,718,720],"ymouse":[851,851,851,851,851,851,851,851,851,847.3330078125,847.3330078125,847.3330078125,847.3330078125,847.3330078125,847.3330078125,847.3330078125,847.3330078125,847.3330078125,847.3330078125,835,835,835,835,835,835,835,835,835,835,821.1740112304688,821.1740112304688,821.1740112304688,821.1740112304688,821.1740112304688,821.1740112304688,821.1740112304688,821.1740112304688,821.1740112304688,821.1740112304688,797,797,797,797,797,797,797,797,797,797,766.1920166015625,766.1920166015625,766.1920166015625,766.1920166015625,766.1920166015625,766.1920166015625,766.1920166015625,766.1920166015625,766.1920166015625,766.1920166015625,734.6090087890625,734.6090087890625,734.6090087890625,734.6090087890625,734.6090087890625,734.6090087890625,734.6090087890625,734.6090087890625,734.6090087890625,734.6090087890625,608.6510009765625,608.6510009765625,608.6510009765625,608.6510009765625,608.6510009765625,608.6510009765625,608.6510009765625,608.6510009765625,608.6510009765625,608.6510009765625,280.4960021972656,280.4960021972656,280.4960021972656,280.4960021972656,280.4960021972656,280.4960021972656,280.4960021972656,280.4960021972656,280.4960021972656,280.4960021972656,132,132,132,132,132,132,132,132,132,132,69],"timestamp_mouse":[6,21,41,61,81,137,141,161,181,201,221,241,261,281,301,321,341,361,381,401,421,441,461,481,501,521,541,561,581,601,621,641,661,681,701,721,741,761,781,801,821,841,861,881,902,921,941,961,981,1001,1021,1041,1061,1081,1101,1121,1141,1161,1181,1201,1221,1241,1261,1281,1301,1321,1341,1361,1381,1401,1421,1441,1461,1481,1501,1521,1542,1561,1581,1601,1621,1641,1661,1681,1701,1721,1741,1761,1781,1801,1821,1841,1861,1881,1901,1921,1941,1961,1981,2001],"xSR":350,"ySR":768,"xT1":30,"yT1":0,"xT2":670,"yT2":0,"toosoon":0,"cond_shown":"Congruent","ratio_trial":200,"L_num":3,"L_den":6,"R_num":14,"R_den":20,"correct_side":2,"subjID":"2","gender":"No_gender","school":"No_school","age":"No_age"},{"start_time":1549309215319,"click_time":1549309217127,"finger_time":1549309216308,"fix_duration":1427.473321933513,"trial":11,"RT":989,"MT":819,"sideResp":2,"stimulus":[],"xmouse":[384.3699951171875,384.3699951171875,384.3699951171875,384.3699951171875,384.3699951171875,384.3699951171875,384.3699951171875,382.6669921875,382.6669921875,382.6669921875,382.6669921875,382.6669921875,382.6669921875,382.6669921875,382.6669921875,382.6669921875,382.6669921875,380,380,380,380,380,380,380,380,380,380,379.3330078125,379.3330078125,379.3330078125,379.3330078125,379.3330078125,379.3330078125,379.3330078125,379.3330078125,379.3330078125,379.3330078125,380.07501220703125,380.07501220703125,380.07501220703125,380.07501220703125,380.07501220703125,380.07501220703125,380.07501220703125,380.07501220703125,380.07501220703125,380.07501220703125,403.843994140625,403.843994140625,403.843994140625,403.843994140625,403.843994140625,403.843994140625,403.843994140625,403.843994140625,403.843994140625,403.843994140625,403.843994140625,450.3190002441406,450.3190002441406,450.3190002441406,450.3190002441406,450.3190002441406,450.3190002441406,450.3190002441406,450.3190002441406,450.3190002441406,450.3190002441406,610.4719848632812,610.4719848632812,610.4719848632812,610.4719848632812,610.4719848632812,610.4719848632812,610.4719848632812,610.4719848632812,610.4719848632812,610.4719848632812,671.9409790039062,671.9409790039062,671.9409790039062,671.9409790039062,671.9409790039062,671.9409790039062,671.9409790039062,671.9409790039062,671.9409790039062,671.9409790039062,707.8679809570312],"ymouse":[825.0369873046875,825.0369873046875,825.0369873046875,825.0369873046875,825.0369873046875,825.0369873046875,825.0369873046875,818.93798828125,818.93798828125,818.93798828125,818.93798828125,818.93798828125,818.93798828125,818.93798828125,818.93798828125,818.93798828125,818.93798828125,809,809,809,809,809,809,809,809,809,809,800.6669921875,800.6669921875,800.6669921875,800.6669921875,800.6669921875,800.6669921875,800.6669921875,800.6669921875,800.6669921875,800.6669921875,789.9249877929688,789.9249877929688,789.9249877929688,789.9249877929688,789.9249877929688,789.9249877929688,789.9249877929688,789.9249877929688,789.9249877929688,789.9249877929688,754.6519775390625,754.6519775390625,754.6519775390625,754.6519775390625,754.6519775390625,754.6519775390625,754.6519775390625,754.6519775390625,754.6519775390625,754.6519775390625,754.6519775390625,659.9600219726562,659.9600219726562,659.9600219726562,659.9600219726562,659.9600219726562,659.9600219726562,659.9600219726562,659.9600219726562,659.9600219726562,659.9600219726562,362.135986328125,362.135986328125,362.135986328125,362.135986328125,362.135986328125,362.135986328125,362.135986328125,362.135986328125,362.135986328125,362.135986328125,144.3260040283203,144.3260040283203,144.3260040283203,144.3260040283203,144.3260040283203,144.3260040283203,144.3260040283203,144.3260040283203,144.3260040283203,144.3260040283203,61.95399856567383],"timestamp_mouse":[13,70,88,108,128,148,168,188,208,228,248,268,288,308,328,348,368,388,408,428,448,468,488,508,528,548,568,588,608,628,648,668,688,708,728,748,768,789,808,828,848,868,888,908,928,948,968,989,1008,1028,1048,1068,1088,1108,1128,1148,1168,1188,1208,1228,1248,1268,1288,1308,1328,1348,1368,1388,1408,1428,1448,1468,1488,1508,1528,1548,1568,1588,1608,1628,1648,1668,1688,1708,1728,1748,1768,1788,1808],"xSR":350,"ySR":768,"xT1":30,"yT1":0,"xT2":670,"yT2":0,"toosoon":0,"cond_shown":"Congruent","ratio_trial":200,"L_num":3,"L_den":10,"R_num":7,"R_den":14,"correct_side":2,"subjID":"2","gender":"No_gender","school":"No_school","age":"No_age"},{"start_time":1549309218299,"click_time":1549309220068,"finger_time":1549309218467,"fix_duration":250,"trial":12,"RT":168,"MT":1601,"sideResp":2,"stimulus":[],"xmouse":[405.3330078125,405.3330078125,405.3330078125,405.3330078125,405.3330078125,405.3330078125,405.3330078125,405.3330078125,405.3330078125,405.3330078125,405.3330078125,405.3330078125,405.3330078125,405.3330078125,405.3330078125,405.3330078125,408.6669921875,408.6669921875,408.6669921875,408.6669921875,408.6669921875,408.6669921875,408.6669921875,408.6669921875,408.6669921875,408.6669921875,408.6669921875,408.6669921875,408.6669921875,408.6669921875,408.6669921875,408.6669921875,408.6669921875,408.6669921875,408.6669921875,408.6669921875,413.2449951171875,413.2449951171875,413.2449951171875,413.2449951171875,413.2449951171875,413.2449951171875,413.2449951171875,413.2449951171875,413.2449951171875,413.2449951171875,438.1239929199219,438.1239929199219,438.1239929199219,438.1239929199219,438.1239929199219,438.1239929199219,438.1239929199219,438.1239929199219,438.1239929199219,438.1239929199219,489.89801025390625,489.89801025390625,489.89801025390625,489.89801025390625,489.89801025390625,489.89801025390625,489.89801025390625,489.89801025390625,489.89801025390625,489.89801025390625,578.5469970703125,578.5469970703125,578.5469970703125,578.5469970703125,578.5469970703125,578.5469970703125,578.5469970703125,578.5469970703125,578.5469970703125,578.5469970703125,676.5900268554688,676.5900268554688,676.5900268554688,676.5900268554688,676.5900268554688,676.5900268554688,676.5900268554688,676.5900268554688,676.5900268554688,676.5900268554688,716.7490234375],"ymouse":[866.6669921875,866.6669921875,866.6669921875,866.6669921875,866.6669921875,866.6669921875,869.3330078125,869.3330078125,869.3330078125,869.3330078125,869.3330078125,869.3330078125,869.3330078125,869.3330078125,869.3330078125,869.3330078125,869.3330078125,869.3330078125,869.3330078125,869.3330078125,869.3330078125,869.3330078125,869.3330078125,869.3330078125,869.3330078125,869.3330078125,868.6669921875,868.6669921875,868.6669921875,868.6669921875,868.6669921875,868.6669921875,868.6669921875,868.6669921875,868.6669921875,868.6669921875,857.5089721679688,857.5089721679688,857.5089721679688,857.5089721679688,857.5089721679688,857.5089721679688,857.5089721679688,857.5089721679688,857.5089721679688,857.5089721679688,795.6690063476562,795.6690063476562,795.6690063476562,795.6690063476562,795.6690063476562,795.6690063476562,795.6690063476562,795.6690063476562,795.6690063476562,795.6690063476562,652.1669921875,652.1669921875,652.1669921875,652.1669921875,652.1669921875,652.1669921875,652.1669921875,652.1669921875,652.1669921875,652.1669921875,431.6029968261719,431.6029968261719,431.6029968261719,431.6029968261719,431.6029968261719,431.6029968261719,431.6029968261719,431.6029968261719,431.6029968261719,431.6029968261719,166.11399841308594,166.11399841308594,166.11399841308594,166.11399841308594,166.11399841308594,166.11399841308594,166.11399841308594,166.11399841308594,166.11399841308594,166.11399841308594,52.58399963378906],"timestamp_mouse":[8,28,48,122,128,148,168,188,208,228,248,268,288,308,328,348,368,388,408,428,448,468,488,508,528,548,568,588,608,628,648,668,688,708,728,748,768,788,808,828,848,868,888,908,928,948,968,988,1008,1028,1048,1068,1088,1108,1128,1148,1168,1188,1208,1228,1248,1268,1288,1308,1328,1348,1368,1388,1408,1428,1448,1468,1488,1508,1528,1548,1568,1588,1608,1628,1648,1668,1688,1708,1728,1748,1768],"xSR":350,"ySR":768,"xT1":30,"yT1":0,"xT2":670,"yT2":0,"toosoon":0,"cond_shown":"Congruent","ratio_trial":100,"L_num":1,"L_den":2,"R_num":18,"R_den":30,"correct_side":2,"subjID":"2","gender":"No_gender","school":"No_school","age":"No_age"},{"start_time":1549309222179,"click_time":1549309224148,"finger_time":1549309223768,"fix_duration":1290.0408447822542,"trial":13,"RT":1589,"MT":380,"sideResp":1,"stimulus":[],"xmouse":[410,410,410,410,410,410,409.3330078125,409.3330078125,409.3330078125,409.3330078125,409.3330078125,409.3330078125,409.3330078125,409.3330078125,409.3330078125,409.3330078125,408,408,408,408,408,408,408,408,408,408,407.3330078125,407.3330078125,407.3330078125,407.3330078125,407.3330078125,407.3330078125,407.3330078125,407.3330078125,407.3330078125,407.3330078125,401.3330078125,401.3330078125,401.3330078125,401.3330078125,401.3330078125,401.3330078125,401.3330078125,400,399.29998779296875,399,398.5,398,398,396,395.17498779296875,394.77801513671875,393.9809875488281,394,393.1889953613281,393,393.3330078125,392.26800537109375,392,391.4739990234375,391.3330078125,390,389.8810119628906,390,389.0870056152344,388.6910095214844,388.6669921875,387.5150146484375,387.3330078125,386.6669921875,386,385.23699951171875,383.10400390625,381.4230041503906,380.31201171875,379.24700927734375,377.0199890136719,370.77899169921875,367.2120056152344,363.739013671875,358.79998779296875,352.55999755859375,331.2640075683594,319.4809875488281,308.385009765625,296.5820007324219,282.89801025390625,255.6790008544922,240.66799926757812,226.6540069580078,208.75900268554688,191.01800537109375,156.14599609375,140.86099243164062,126.62899780273438,113.51599884033203,101.76399993896484],"ymouse":[838,838,838,838,838,838,838.6669921875,838.6669921875,838.6669921875,838.6669921875,838.6669921875,838.6669921875,838.6669921875,838.6669921875,838.6669921875,838.6669921875,838,838,838,838,838,838,838,838,838,838,836.6669921875,836.6669921875,836.6669921875,836.6669921875,836.6669921875,836.6669921875,836.6669921875,836.6669921875,836.6669921875,836.6669921875,830.614990234375,830.614990234375,830.614990234375,830.614990234375,830.614990234375,830.614990234375,830.614990234375,823,822.6669921875,822,821.1669921875,821,821,819,819.3330078125,818.1119995117188,817.3330078125,816,816.6669921875,816,815.0910034179688,814.2680053710938,814,813.3330078125,812.4119873046875,812,810.6669921875,809,808.4199829101562,807.3569946289062,806.9619750976562,804.8489990234375,803.7570190429688,802.7160034179688,801,799.8060302734375,795.97900390625,793.4669799804688,789.2490234375,784.2340087890625,775.5910034179688,749.1530151367188,735.27099609375,721.5360107421875,706.906982421875,690.1610107421875,638.0859985351562,611.3040161132812,584.7269897460938,555.9140014648438,523.2169799804688,450.96099853515625,411.9549865722656,377.09698486328125,335.56500244140625,293.39599609375,215.6739959716797,176.8820037841797,141.90499877929688,111.66000366210938,84.43299865722656],"timestamp_mouse":[9,29,89,109,129,149,169,189,209,229,249,269,289,309,329,349,369,389,409,429,449,469,489,509,529,549,569,589,609,629,649,669,689,709,729,749,769,789,809,829,849,869,889,909,929,949,969,989,1009,1029,1049,1069,1089,1109,1129,1149,1169,1189,1209,1229,1249,1269,1289,1309,1330,1349,1369,1389,1409,1429,1449,1469,1489,1509,1529,1549,1569,1589,1609,1629,1649,1669,1690,1709,1729,1749,1769,1791,1809,1829,1849,1869,1890,1909,1929,1950,1969],"xSR":350,"ySR":768,"xT1":30,"yT1":0,"xT2":670,"yT2":0,"toosoon":0,"cond_shown":"Incongruent","ratio_trial":100,"L_num":3,"L_den":5,"R_num":8,"R_den":16,"correct_side":1,"subjID":"2","gender":"No_gender","school":"No_school","age":"No_age"},{"start_time":1549309225551,"click_time":1549309228029,"finger_time":1549309227228,"fix_duration":541.8621400212832,"trial":14,"RT":1677,"MT":801,"sideResp":1,"stimulus":[],"xmouse":[412,412.6669921875,412.6669921875,412.6669921875,412.6669921875,412.6669921875,412.6669921875,412.6669921875,412.6669921875,412.6669921875,412.6669921875,410.6669921875,410.6669921875,410.6669921875,410.6669921875,410.6669921875,410.6669921875,410.6669921875,410.6669921875,410.6669921875,410.6669921875,410,410,410,410,410,410,410,410,410,410,405.5780029296875,405.5780029296875,405.5780029296875,405.5780029296875,405.5780029296875,405.5780029296875,405.5780029296875,405.5780029296875,405.5780029296875,405.5780029296875,400.6669921875,400.6669921875,400.6669921875,400.6669921875,400.6669921875,400.6669921875,400.6669921875,400.6669921875,400.6669921875,400.6669921875,396,396,396,396,396,396,396,396,396,396,393.3330078125,393.3330078125,393.3330078125,393.3330078125,393.3330078125,393.3330078125,393.3330078125,393.3330078125,393.3330078125,393.3330078125,375.9490051269531,375.9490051269531,375.9490051269531,375.9490051269531,375.9490051269531,375.9490051269531,375.9490051269531,375.9490051269531,375.9490051269531,375.9490051269531,355.7040100097656,355.7040100097656,355.7040100097656,355.7040100097656,355.7040100097656,355.7040100097656,355.7040100097656,355.7040100097656,355.7040100097656,355.7040100097656,332.7820129394531,332.7820129394531,332.7820129394531,332.7820129394531,332.7820129394531,332.7820129394531,332.7820129394531,332.7820129394531,332.7820129394531,332.7820129394531,293.8580017089844,293.8580017089844,293.8580017089844,293.8580017089844,293.8580017089844,293.8580017089844,293.8580017089844,293.8580017089844,293.8580017089844,293.8580017089844,185.7310028076172,185.7310028076172,185.7310028076172,185.7310028076172,185.7310028076172,185.7310028076172,185.7310028076172,185.7310028076172,185.7310028076172,185.7310028076172,50.470001220703125],"ymouse":[858,859.3330078125,859.3330078125,859.3330078125,859.3330078125,859.3330078125,859.3330078125,859.3330078125,859.3330078125,859.3330078125,859.3330078125,858.6669921875,858.6669921875,858.6669921875,858.6669921875,858.6669921875,858.6669921875,858.6669921875,858.6669921875,858.6669921875,858.6669921875,858,858,858,858,858,858,858,858,858,858,852.2449951171875,852.2449951171875,852.2449951171875,852.2449951171875,852.2449951171875,852.2449951171875,852.2449951171875,852.2449951171875,852.2449951171875,852.2449951171875,845.43701171875,845.43701171875,845.43701171875,845.43701171875,845.43701171875,845.43701171875,845.43701171875,845.43701171875,845.43701171875,845.43701171875,839,839,839,839,839,839,839,839,839,839,833.7949829101562,833.7949829101562,833.7949829101562,833.7949829101562,833.7949829101562,833.7949829101562,833.7949829101562,833.7949829101562,833.7949829101562,833.7949829101562,795.22998046875,795.22998046875,795.22998046875,795.22998046875,795.22998046875,795.22998046875,795.22998046875,795.22998046875,795.22998046875,795.22998046875,742.927001953125,742.927001953125,742.927001953125,742.927001953125,742.927001953125,742.927001953125,742.927001953125,742.927001953125,742.927001953125,742.927001953125,684.9539794921875,684.9539794921875,684.9539794921875,684.9539794921875,684.9539794921875,684.9539794921875,684.9539794921875,684.9539794921875,684.9539794921875,684.9539794921875,594.4110107421875,594.4110107421875,594.4110107421875,594.4110107421875,594.4110107421875,594.4110107421875,594.4110107421875,594.4110107421875,594.4110107421875,594.4110107421875,343.010009765625,343.010009765625,343.010009765625,343.010009765625,343.010009765625,343.010009765625,343.010009765625,343.010009765625,343.010009765625,343.010009765625,43.606998443603516],"timestamp_mouse":[76,78,97,117,137,157,177,197,217,237,257,277,297,317,337,357,377,397,417,437,457,477,497,517,537,557,577,597,617,637,657,677,697,717,737,757,777,797,817,837,857,877,897,917,937,957,977,997,1017,1037,1057,1077,1097,1117,1137,1157,1177,1197,1217,1237,1257,1277,1297,1317,1337,1357,1377,1397,1417,1437,1457,1477,1497,1517,1537,1557,1577,1597,1617,1637,1657,1677,1697,1717,1737,1757,1777,1797,1817,1837,1857,1877,1897,1917,1937,1957,1977,1997,2017,2037,2057,2077,2097,2117,2137,2157,2177,2197,2217,2237,2257,2277,2297,2317,2337,2357,2377,2397,2417,2437,2457,2477],"xSR":350,"ySR":768,"xT1":30,"yT1":0,"xT2":670,"yT2":0,"toosoon":0,"cond_shown":"Congruent","ratio_trial":100,"L_num":6,"L_den":20,"R_num":5,"R_den":25,"correct_side":1,"subjID":"2","gender":"No_gender","school":"No_school","age":"No_age"},{"start_time":1549309230022,"click_time":1549309231669,"finger_time":1549309231269,"fix_duration":1172.615015619695,"trial":15,"RT":1247,"MT":400,"sideResp":1,"stimulus":[],"xmouse":[379.3330078125,378.6669921875,378.6669921875,378.6669921875,378.6669921875,378.6669921875,378.6669921875,378.6669921875,378.6669921875,378.6669921875,376,376,376,376,376,376,376,376,376,376,372.12701416015625,372.12701416015625,372.12701416015625,372.12701416015625,372.12701416015625,372.12701416015625,372.12701416015625,372.12701416015625,372.12701416015625,372.12701416015625,370,370,370,370,370,370,370,370,370,370,365.1910095214844,365.1910095214844,365.1910095214844,365.1910095214844,365.1910095214844,365.1910095214844,365.1910095214844,365.1910095214844,365.1910095214844,365.1910095214844,359.7449951171875,359.7449951171875,359.7449951171875,359.7449951171875,359.7449951171875,359.7449951171875,359.7449951171875,359.7449951171875,359.7449951171875,359.7449951171875,269.4219970703125,269.4219970703125,269.4219970703125,269.4219970703125,269.4219970703125,269.4219970703125,269.4219970703125,269.4219970703125,269.4219970703125,269.4219970703125,148.5760040283203,148.5760040283203,148.5760040283203,148.5760040283203,148.5760040283203,148.5760040283203,148.5760040283203,148.5760040283203,148.5760040283203,148.5760040283203,92.56700134277344],"ymouse":[837.72900390625,834.9920043945312,834.9920043945312,834.9920043945312,834.9920043945312,834.9920043945312,834.9920043945312,834.9920043945312,834.9920043945312,834.9920043945312,830,830,830,830,830,830,830,830,830,830,826.1270141601562,826.1270141601562,826.1270141601562,826.1270141601562,826.1270141601562,826.1270141601562,826.1270141601562,826.1270141601562,826.1270141601562,826.1270141601562,824,824,824,824,824,824,824,824,824,824,813.8579711914062,813.8579711914062,813.8579711914062,813.8579711914062,813.8579711914062,813.8579711914062,813.8579711914062,813.8579711914062,813.8579711914062,813.8579711914062,792.97900390625,792.97900390625,792.97900390625,792.97900390625,792.97900390625,792.97900390625,792.97900390625,792.97900390625,792.97900390625,792.97900390625,559.322998046875,559.322998046875,559.322998046875,559.322998046875,559.322998046875,559.322998046875,559.322998046875,559.322998046875,559.322998046875,559.322998046875,151.5469970703125,151.5469970703125,151.5469970703125,151.5469970703125,151.5469970703125,151.5469970703125,151.5469970703125,151.5469970703125,151.5469970703125,151.5469970703125,34.66699981689453],"timestamp_mouse":[10,75,87,107,127,147,167,187,207,227,247,267,287,307,327,347,367,387,407,427,447,467,487,507,527,547,567,587,607,627,647,667,687,707,727,747,767,787,807,827,847,867,887,907,927,947,967,987,1007,1027,1047,1067,1087,1107,1127,1147,1167,1187,1207,1227,1247,1267,1287,1307,1327,1347,1367,1387,1407,1427,1447,1467,1487,1507,1527,1547,1567,1587,1607,1627,1647],"xSR":350,"ySR":768,"xT1":30,"yT1":0,"xT2":670,"yT2":0,"toosoon":0,"cond_shown":"Incongruent","ratio_trial":500,"L_num":7,"L_den":8,"R_num":9,"R_den":24,"correct_side":1,"subjID":"2","gender":"No_gender","school":"No_school","age":"No_age"},{"start_time":1549309232879,"click_time":1549309235170,"finger_time":1549309233969,"fix_duration":326.41514305962727,"trial":16,"RT":1090,"MT":1201,"sideResp":2,"stimulus":[],"xmouse":[411.3330078125,411.3330078125,411.3330078125,411.3330078125,411.3330078125,411.3330078125,411.3330078125,411.3330078125,411.3330078125,411.3330078125,411.3330078125,411.3330078125,411.3330078125,410,410,410,410,410,410,410,410,410,410,409.3330078125,409.3330078125,409.3330078125,409.3330078125,409.3330078125,409.3330078125,409.3330078125,409.3330078125,409.3330078125,409.3330078125,401.3330078125,401.3330078125,401.3330078125,401.3330078125,401.3330078125,401.3330078125,401.3330078125,401.3330078125,401.3330078125,401.3330078125,393.15399169921875,393.15399169921875,393.15399169921875,393.15399169921875,393.15399169921875,393.15399169921875,393.15399169921875,393.15399169921875,393.15399169921875,393.15399169921875,370.9639892578125,370.9639892578125,370.9639892578125,370.9639892578125,370.9639892578125,370.9639892578125,370.9639892578125,370.9639892578125,370.9639892578125,370.9639892578125,328.5740051269531,328.5740051269531,328.5740051269531,328.5740051269531,328.5740051269531,328.5740051269531,328.5740051269531,328.5740051269531,328.5740051269531,328.5740051269531,315.9580078125,315.9580078125,315.9580078125,315.9580078125,315.9580078125,315.9580078125,315.9580078125,315.9580078125,315.9580078125,315.9580078125,544.1240234375,544.1240234375,544.1240234375,544.1240234375,544.1240234375,544.1240234375,544.1240234375,544.1240234375,544.1240234375,544.1240234375,581.3330078125,581.3330078125,581.3330078125,581.3330078125,581.3330078125,581.3330078125,581.3330078125,581.3330078125,581.3330078125,581.3330078125,678.614990234375,678.614990234375,678.614990234375,678.614990234375,678.614990234375,678.614990234375,678.614990234375,678.614990234375,678.614990234375,678.614990234375,724.9609985351562],"ymouse":[831.3330078125,831.3330078125,831.3330078125,830.6669921875,830.6669921875,830.6669921875,830.6669921875,830.6669921875,830.6669921875,830.6669921875,830.6669921875,830.6669921875,830.6669921875,830,830,830,830,830,830,830,830,830,830,829.3330078125,829.3330078125,829.3330078125,829.3330078125,829.3330078125,829.3330078125,829.3330078125,829.3330078125,829.3330078125,829.3330078125,818.625,818.625,818.625,818.625,818.625,818.625,818.625,818.625,818.625,818.625,800.9749755859375,800.9749755859375,800.9749755859375,800.9749755859375,800.9749755859375,800.9749755859375,800.9749755859375,800.9749755859375,800.9749755859375,800.9749755859375,751.260986328125,751.260986328125,751.260986328125,751.260986328125,751.260986328125,751.260986328125,751.260986328125,751.260986328125,751.260986328125,751.260986328125,653.6229858398438,653.6229858398438,653.6229858398438,653.6229858398438,653.6229858398438,653.6229858398438,653.6229858398438,653.6229858398438,653.6229858398438,653.6229858398438,614.166015625,614.166015625,614.166015625,614.166015625,614.166015625,614.166015625,614.166015625,614.166015625,614.166015625,614.166015625,374.22900390625,374.22900390625,374.22900390625,374.22900390625,374.22900390625,374.22900390625,374.22900390625,374.22900390625,374.22900390625,374.22900390625,297.2030029296875,297.2030029296875,297.2030029296875,297.2030029296875,297.2030029296875,297.2030029296875,297.2030029296875,297.2030029296875,297.2030029296875,297.2030029296875,147.41299438476562,147.41299438476562,147.41299438476562,147.41299438476562,147.41299438476562,147.41299438476562,147.41299438476562,147.41299438476562,147.41299438476562,147.41299438476562,48.5260009765625],"timestamp_mouse":[14,64,73,90,110,130,150,170,190,210,230,250,270,290,310,330,350,370,390,410,430,450,470,490,510,530,550,570,590,610,630,650,670,690,710,730,750,770,790,810,830,850,870,890,910,930,950,970,990,1010,1030,1050,1070,1090,1110,1130,1150,1170,1190,1210,1230,1250,1270,1290,1310,1330,1350,1370,1390,1410,1430,1450,1470,1490,1510,1530,1550,1570,1590,1610,1630,1650,1670,1690,1710,1730,1750,1770,1790,1810,1830,1850,1870,1890,1910,1930,1950,1970,1990,2010,2030,2050,2070,2091,2110,2130,2150,2170,2190,2210,2230,2250,2270,2290],"xSR":350,"ySR":768,"xT1":30,"yT1":0,"xT2":670,"yT2":0,"toosoon":0,"cond_shown":"Incongruent","ratio_trial":100,"L_num":3,"L_den":9,"R_num":7,"R_den":30,"correct_side":1,"subjID":"2","gender":"No_gender","school":"No_school","age":"No_age"},{"start_time":1549309237300,"click_time":1549309238730,"finger_time":1549309238130,"fix_duration":1188.896852849966,"trial":17,"RT":830,"MT":600,"sideResp":1,"stimulus":[],"xmouse":[392,392,392,392,392,392,392,392,392,394,394,394,394,394,394,394,394,394,394,390.6669921875,390.6669921875,390.6669921875,390.6669921875,390.6669921875,390.6669921875,390.6669921875,390.6669921875,390.6669921875,390.6669921875,378.86199951171875,378.86199951171875,378.86199951171875,378.86199951171875,378.86199951171875,378.86199951171875,378.86199951171875,378.86199951171875,378.86199951171875,378.86199951171875,335.7229919433594,335.7229919433594,335.7229919433594,335.7229919433594,335.7229919433594,335.7229919433594,335.7229919433594,335.7229919433594,335.7229919433594,335.7229919433594,244.39599609375,244.39599609375,244.39599609375,244.39599609375,244.39599609375,244.39599609375,244.39599609375,244.39599609375,244.39599609375,244.39599609375,139.66799926757812,139.66799926757812,139.66799926757812,139.66799926757812,139.66799926757812,139.66799926757812,139.66799926757812,139.66799926757812,139.66799926757812,139.66799926757812,105.44499969482422],"ymouse":[847,842,842,842,842,842,842,842,842,836,836,836,836,836,836,836,836,836,836,829.3330078125,829.3330078125,829.3330078125,829.3330078125,829.3330078125,829.3330078125,829.3330078125,829.3330078125,829.3330078125,829.3330078125,809.2509765625,809.2509765625,809.2509765625,809.2509765625,809.2509765625,809.2509765625,809.2509765625,809.2509765625,809.2509765625,809.2509765625,699.2239990234375,699.2239990234375,699.2239990234375,699.2239990234375,699.2239990234375,699.2239990234375,699.2239990234375,699.2239990234375,699.2239990234375,699.2239990234375,442.98699951171875,442.98699951171875,442.98699951171875,442.98699951171875,442.98699951171875,442.98699951171875,442.98699951171875,442.98699951171875,442.98699951171875,442.98699951171875,130.55799865722656,130.55799865722656,130.55799865722656,130.55799865722656,130.55799865722656,130.55799865722656,130.55799865722656,130.55799865722656,130.55799865722656,130.55799865722656,51.555999755859375],"timestamp_mouse":[10,74,90,110,130,150,170,190,210,230,250,270,290,310,330,350,370,390,410,430,450,470,490,510,530,550,570,590,610,630,650,670,690,710,730,750,770,790,810,830,850,870,890,910,930,950,970,990,1010,1030,1050,1070,1090,1110,1130,1150,1170,1190,1210,1230,1250,1270,1290,1310,1330,1350,1370,1390,1410,1430],"xSR":350,"ySR":768,"xT1":30,"yT1":0,"xT2":670,"yT2":0,"toosoon":0,"cond_shown":"Congruent","ratio_trial":200,"L_num":12,"L_den":15,"R_num":6,"R_den":10,"correct_side":1,"subjID":"2","gender":"No_gender","school":"No_school","age":"No_age"},{"start_time":1549309240096,"click_time":1549309241911,"finger_time":1549309240910,"fix_duration":404.2809019549434,"trial":18,"RT":814,"MT":1001,"sideResp":2,"stimulus":[],"xmouse":[392.6669921875,392.6669921875,392.6669921875,392.6669921875,392.6669921875,392.6669921875,392.6669921875,392.6669921875,392,392,392,392,392,392,392,392,392,392,393.072998046875,393.072998046875,393.072998046875,393.072998046875,393.072998046875,393.072998046875,393.072998046875,393.072998046875,393.072998046875,393.072998046875,399.4129943847656,399.4129943847656,399.4129943847656,399.4129943847656,399.4129943847656,399.4129943847656,399.4129943847656,399.4129943847656,399.4129943847656,399.4129943847656,432.5429992675781,432.5429992675781,432.5429992675781,432.5429992675781,432.5429992675781,432.5429992675781,432.5429992675781,432.5429992675781,432.5429992675781,432.5429992675781,576.0540161132812,576.0540161132812,576.0540161132812,576.0540161132812,576.0540161132812,576.0540161132812,576.0540161132812,576.0540161132812,576.0540161132812,576.0540161132812,671.5770263671875,671.5770263671875,671.5770263671875,671.5770263671875,671.5770263671875,671.5770263671875,671.5770263671875,671.5770263671875,671.5770263671875,671.5770263671875,680,680,680,680,680,680,680,680,680,680,684.52001953125,684.52001953125,684.52001953125,684.52001953125,684.52001953125,684.52001953125,684.52001953125,684.52001953125,684.52001953125,684.52001953125,712.1580200195312],"ymouse":[815.3330078125,815.3330078125,815.3330078125,815.3330078125,815.3330078125,815.3330078125,815.3330078125,815.3330078125,813,813,813,813,813,813,813,813,813,813,813.072998046875,813.072998046875,813.072998046875,813.072998046875,813.072998046875,813.072998046875,813.072998046875,813.072998046875,813.072998046875,813.072998046875,803.6270141601562,803.6270141601562,803.6270141601562,803.6270141601562,803.6270141601562,803.6270141601562,803.6270141601562,803.6270141601562,803.6270141601562,803.6270141601562,756.3670043945312,756.3670043945312,756.3670043945312,756.3670043945312,756.3670043945312,756.3670043945312,756.3670043945312,756.3670043945312,756.3670043945312,756.3670043945312,481.2250061035156,481.2250061035156,481.2250061035156,481.2250061035156,481.2250061035156,481.2250061035156,481.2250061035156,481.2250061035156,481.2250061035156,481.2250061035156,185.80999755859375,185.80999755859375,185.80999755859375,185.80999755859375,185.80999755859375,185.80999755859375,185.80999755859375,185.80999755859375,185.80999755859375,185.80999755859375,112,112,112,112,112,112,112,112,112,112,103.62799835205078,103.62799835205078,103.62799835205078,103.62799835205078,103.62799835205078,103.62799835205078,103.62799835205078,103.62799835205078,103.62799835205078,103.62799835205078,53.76300048828125],"timestamp_mouse":[64,74,94,114,134,154,174,194,214,234,254,274,294,314,334,354,374,394,414,434,454,474,494,514,534,554,574,594,614,634,654,674,694,714,734,754,774,794,814,834,854,874,894,914,934,954,975,994,1014,1034,1054,1074,1094,1114,1134,1154,1174,1194,1214,1234,1254,1274,1294,1314,1334,1354,1374,1394,1414,1434,1454,1474,1494,1514,1534,1554,1574,1595,1614,1634,1654,1674,1694,1714,1734,1754,1774,1794,1814],"xSR":350,"ySR":768,"xT1":30,"yT1":0,"xT2":670,"yT2":0,"toosoon":0,"cond_shown":"Equal","ratio_trial":200,"L_num":3,"L_den":10,"R_num":3,"R_den":6,"correct_side":2,"subjID":"2","gender":"No_gender","school":"No_school","age":"No_age"},{"start_time":1549309243043,"click_time":1549309244611,"finger_time":1549309244011,"fix_duration":250,"trial":19,"RT":968,"MT":600,"sideResp":1,"stimulus":[],"xmouse":[403.3330078125,403.3330078125,403.3330078125,403.3330078125,403.3330078125,403.3330078125,403.3330078125,408,408,408,408,408,408,408,408,408,408,407.3330078125,407.3330078125,407.3330078125,407.3330078125,407.3330078125,407.3330078125,407.3330078125,407.3330078125,407.3330078125,407.3330078125,404,404,404,404,404,404,404,404,404,404,392.7080078125,392.7080078125,392.7080078125,392.7080078125,392.7080078125,392.7080078125,392.7080078125,392.7080078125,392.7080078125,392.7080078125,355.0580139160156,355.0580139160156,355.0580139160156,355.0580139160156,355.0580139160156,355.0580139160156,355.0580139160156,355.0580139160156,355.0580139160156,355.0580139160156,259.0790100097656,259.0790100097656,259.0790100097656,259.0790100097656,259.0790100097656,259.0790100097656,259.0790100097656,259.0790100097656,259.0790100097656,259.0790100097656,143.6790008544922,143.6790008544922,143.6790008544922,143.6790008544922,143.6790008544922,143.6790008544922,143.6790008544922,143.6790008544922,143.6790008544922,143.6790008544922,109.51499938964844],"ymouse":[835.3330078125,835.3330078125,835.3330078125,835.3330078125,835.3330078125,835.3330078125,835.3330078125,838,838,838,838,838,838,838,838,838,838,838.6669921875,838.6669921875,838.6669921875,838.6669921875,838.6669921875,838.6669921875,838.6669921875,838.6669921875,838.6669921875,838.6669921875,836,836,836,836,836,836,836,836,836,836,820.083984375,820.083984375,820.083984375,820.083984375,820.083984375,820.083984375,820.083984375,820.083984375,820.083984375,820.083984375,721.8419799804688,721.8419799804688,721.8419799804688,721.8419799804688,721.8419799804688,721.8419799804688,721.8419799804688,721.8419799804688,721.8419799804688,721.8419799804688,402.39300537109375,402.39300537109375,402.39300537109375,402.39300537109375,402.39300537109375,402.39300537109375,402.39300537109375,402.39300537109375,402.39300537109375,402.39300537109375,85.35399627685547,85.35399627685547,85.35399627685547,85.35399627685547,85.35399627685547,85.35399627685547,85.35399627685547,85.35399627685547,85.35399627685547,85.35399627685547,33.87900161743164],"timestamp_mouse":[20,28,88,88,108,128,148,168,188,208,228,248,268,288,308,328,348,368,388,408,428,448,468,488,508,528,548,568,588,608,628,648,668,688,708,728,748,768,788,808,828,848,868,888,908,928,948,968,988,1008,1028,1048,1068,1088,1108,1128,1148,1168,1188,1208,1228,1248,1268,1288,1308,1328,1348,1368,1388,1408,1428,1448,1468,1488,1508,1528,1548,1568],"xSR":350,"ySR":768,"xT