[{"start_time":1549309868719,"click_time":1549309872509,"finger_time":1549309868728,"fix_duration":445.06606314402285,"trial":0,"RT":9,"MT":3781,"sideResp":1,"stimulus":"img/250/randomdotsizeEA/L/15_Ratio_250_L_12_R_3.png","xmouse":[402,402,402,402,402,402,402,402,402,402,402,402,402,402,402,402,402,402,402,402,402,402,402,402,402,402,402,402,402,402,402,402,402,402,402,402,402,402,402.6666564941406,402.6666564941406,402.6666564941406,402.6666564941406,402.6666564941406,402.6666564941406,402.6666564941406,402.6666564941406,402.6666564941406,402.6666564941406,403.3333435058594,403.3333435058594,403.3333435058594,403.3333435058594,403.3333435058594,403.3333435058594,403.3333435058594,403.3333435058594,403.3333435058594,403.3333435058594,403.3333435058594,403.3333435058594,403.3333435058594,403.3333435058594,403.3333435058594,403.3333435058594,403.3333435058594,403.3333435058594,403.3333435058594,403.3333435058594,403.3333435058594,403.3333435058594,403.3333435058594,404,404,404,404,404,404,404,404,404,404,404,404,404,404,404,404,404,404,404,404,404,404,404,404,404,404,404,404,404,404,404,404,404,404,404,404,404,404,404,404,404,404,404,404,404,404,404,404,404,404,404,404,404,404,404,404,404,404,404,404,404,404,404,404,404,404,404,404,404,404,404,404,404,404,404,404,404,404,404,404,404,404,404,404,404,404,404,404,404,404,404,404,379.3333435058594,379.3333435058594,379.3333435058594,355.3333435058594,350.66668701171875,326,301.3333435058594,288.66668701171875,267.3333435058594,258,234.6666717529297,217.33334350585938,209.33334350585938,194,187.33334350585938,168.6666717529297,155.33334350585938,146,128.6666717529297,113.33333587646484,101.33333587646484,92.66667175292969,88,80,74,67.33333587646484,62.66667175292969],"ymouse":[754.6666870117188,754.6666870117188,754.6666870117188,754.6666870117188,754.6666870117188,754.6666870117188,754.6666870117188,754.6666870117188,755.3333740234375,755.3333740234375,755.3333740234375,755.3333740234375,755.3333740234375,755.3333740234375,755.3333740234375,755.3333740234375,755.3333740234375,755.3333740234375,756.6666870117188,756.6666870117188,756.6666870117188,756.6666870117188,756.6666870117188,756.6666870117188,756.6666870117188,756.6666870117188,756.6666870117188,756.6666870117188,757.3333740234375,757.3333740234375,757.3333740234375,757.3333740234375,757.3333740234375,757.3333740234375,757.3333740234375,757.3333740234375,757.3333740234375,757.3333740234375,757.3333740234375,757.3333740234375,757.3333740234375,757.3333740234375,757.3333740234375,757.3333740234375,757.3333740234375,757.3333740234375,757.3333740234375,757.3333740234375,760.6666870117188,760.6666870117188,760.6666870117188,760.6666870117188,760.6666870117188,760.6666870117188,760.6666870117188,760.6666870117188,760.6666870117188,760.6666870117188,761.3333740234375,761.3333740234375,761.3333740234375,761.3333740234375,761.3333740234375,761.3333740234375,761.3333740234375,761.3333740234375,761.3333740234375,761.3333740234375,760.6666870117188,760.6666870117188,760.6666870117188,757.3333740234375,757.3333740234375,757.3333740234375,757.3333740234375,757.3333740234375,757.3333740234375,757.3333740234375,757.3333740234375,757.3333740234375,757.3333740234375,757.3333740234375,757.3333740234375,757.3333740234375,757.3333740234375,757.3333740234375,757.3333740234375,757.3333740234375,757.3333740234375,757.3333740234375,757.3333740234375,757.3333740234375,757.3333740234375,757.3333740234375,757.3333740234375,757.3333740234375,757.3333740234375,757.3333740234375,757.3333740234375,757.3333740234375,757.3333740234375,757.3333740234375,757.3333740234375,757.3333740234375,757.3333740234375,757.3333740234375,757.3333740234375,757.3333740234375,757.3333740234375,757.3333740234375,757.3333740234375,757.3333740234375,757.3333740234375,757.3333740234375,757.3333740234375,757.3333740234375,757.3333740234375,757.3333740234375,757.3333740234375,757.3333740234375,757.3333740234375,757.3333740234375,757.3333740234375,757.3333740234375,757.3333740234375,757.3333740234375,757.3333740234375,757.3333740234375,757.3333740234375,757.3333740234375,757.3333740234375,757.3333740234375,757.3333740234375,757.3333740234375,757.3333740234375,757.3333740234375,757.3333740234375,757.3333740234375,757.3333740234375,757.3333740234375,757.3333740234375,757.3333740234375,757.3333740234375,757.3333740234375,757.3333740234375,757.3333740234375,757.3333740234375,757.3333740234375,757.3333740234375,757.3333740234375,757.3333740234375,757.3333740234375,757.3333740234375,757.3333740234375,757.3333740234375,757.3333740234375,757.3333740234375,757.3333740234375,757.3333740234375,757.3333740234375,757.3333740234375,757.3333740234375,757.3333740234375,807.3333740234375,807.3333740234375,807.3333740234375,786,781.3333740234375,747.3333740234375,702.6666870117188,680,639.3333740234375,620,562.6666870117188,518.6666870117188,496,456,434.66668701171875,382,345.3333435058594,321.3333435058594,279.3333435058594,245.33334350585938,211.33334350585938,181.33334350585938,168.6666717529297,143.33334350585938,123.33334350585938,106.66667175292969,92.66667175292969],"timestamp_mouse":[9,30,50,69,90,109,130,149,169,190,210,230,249,269,289,310,330,349,369,389,410,430,450,470,490,510,530,549,569,589,609,630,650,670,689,709,729,750,770,789,810,830,850,869,889,909,930,950,970,989,1009,1030,1049,1069,1089,1110,1130,1149,1170,1189,1209,1230,1249,1269,1290,1309,1330,1349,1370,1389,1410,1430,1450,1470,1490,1510,1529,1550,1569,1590,1609,1630,1650,1670,1689,1709,1730,1749,1770,1790,1809,1829,1849,1870,1890,1909,1930,1950,1970,1990,2009,2030,2050,2069,2089,2110,2129,2150,2170,2189,2210,2229,2250,2270,2289,2310,2329,2349,2370,2390,2410,2429,2450,2469,2489,2510,2529,2550,2569,2589,2610,2630,2650,2670,2690,2709,2729,2749,2769,2790,2809,2829,2850,2870,2890,2909,2930,2950,2969,2990,3009,3029,3050,3070,3089,3109,3130,3149,3169,3189,3210,3229,3250,3273,3289,3310,3329,3350,3369,3389,3409,3429,3449,3471,3489,3509,3529,3549,3570,3589,3610,3630,3649,3672,3690,3710,3730,3749,3773,3789],"xSR":350,"ySR":696,"xT1":30,"yT1":0,"xT2":670,"yT2":0,"toosoon":0,"cond_shown":"randomdotsizeEA","ratio_trial":250,"smaller_num":"3","larger_num":"12","correct_side":1,"subjID":"4","gender":"No_gender","age":"No_age","school":"No_school","test":{"fix_dur":[250,1500],"timestim":400,"targets_dim":[100,100],"targets_relative_coord":[0.1,0.9],"size_stim":[880,420],"start_dim":[100,100],"size_start":[300,300],"size_fix":60,"samplingrate":20,"img_types":["equaldotsize","equaldotanddens","randomdotsize","randomdotsizeEA"],"ratios":[250,500,750,900],"rep_conds":10,"nTrials":176,"trials_to_rest":500,"Trials_order":[147,16,148,138,22,76,149,72,68,93,40,167,44,4,71,17,32,96,174,89,159,3,18,166,146,117,99,6,127,128,15,95,81,53,156,100,56,175,131,106,28,129,77,116,67,123,162,63,151,10,46,112,78,102,74,61,47,73,48,145,66,144,161,126,25,9,29,8,41,39,30,109,36,153,21,12,88,60,172,103,111,86,31,125,35,90,155,0,115,38,80,70,130,64,114,24,83,137,87,97,34,58,2,54,75,84,134,154,65,122,50,107,42,105,11,133,59,49,140,33,121,101,150,141,91,160,62,165,92,136,1,52,85,164,43,13,119,26,124,51,135,158,27,113,19,69,55,7,23,5,168,132,82,45,20,79,110,152,14,108,104,173,139,163,157,57,118,170,142,143,94,98,120,37,169,171],"cond_shown":["randomdotsizeEA","equaldotsize","equaldotsize","randomdotsize","randomdotsize","equaldotsize","equaldotanddens","equaldotsize","equaldotsize","equaldotanddens","equaldotsize","randomdotsizeEA","equaldotsize","equaldotsize","randomdotsizeEA","equaldotanddens","equaldotsize","equaldotsize","randomdotsize","equaldotanddens","randomdotsizeEA","randomdotsizeEA","randomdotsize","randomdotsize","randomdotsize","equaldotanddens","randomdotsizeEA","randomdotsize","randomdotsizeEA","equaldotsize","randomdotsizeEA","randomdotsizeEA","equaldotanddens","equaldotanddens","equaldotsize","equaldotsize","equaldotsize","randomdotsizeEA","randomdotsizeEA","randomdotsize","equaldotsize","equaldotanddens","equaldotanddens","equaldotsize","randomdotsizeEA","randomdotsizeEA","randomdotsize","randomdotsizeEA","randomdotsizeEA","randomdotsize","randomdotsize","equaldotsize","randomdotsize","randomdotsize","randomdotsize","equaldotanddens","randomdotsizeEA","equaldotanddens","equaldotsize","equaldotanddens","randomdotsize","equaldotsize","equaldotanddens","randomdotsize","equaldotanddens","equaldotanddens","equaldotanddens","equaldotsize","equaldotanddens","randomdotsizeEA","randomdotsize","equaldotanddens","equaldotsize","equaldotanddens","equaldotanddens","equaldotsize","equaldotsize","equaldotsize","equaldotsize","randomdotsizeEA","randomdotsizeEA","randomdotsize","randomdotsizeEA","equaldotanddens","randomdotsizeEA","randomdotsize","randomdotsizeEA","equaldotsize","randomdotsizeEA","randomdotsize","equaldotsize","randomdotsize","randomdotsize","equaldotsize","randomdotsize","equaldotsize","randomdotsizeEA","equaldotanddens","randomdotsizeEA","equaldotanddens","randomdotsize","randomdotsize","randomdotsize","randomdotsize","randomdotsizeEA","equaldotsize","randomdotsize","randomdotsize","equaldotanddens","randomdotsize","randomdotsize","randomdotsizeEA","randomdotsize","equaldotanddens","randomdotsizeEA","equaldotanddens","randomdotsizeEA","equaldotanddens","equaldotsize","equaldotanddens","equaldotanddens","equaldotanddens","randomdotsize","equaldotanddens","randomdotsizeEA","equaldotsize","randomdotsize","equaldotanddens","equaldotsize","equaldotsize","equaldotanddens","equaldotsize","equaldotanddens","equaldotsize","randomdotsizeEA","equaldotanddens","randomdotsizeEA","randomdotsize","equaldotsize","randomdotsizeEA","randomdotsizeEA","randomdotsize","randomdotsizeEA","equaldotanddens","randomdotsizeEA","equaldotanddens","randomdotsizeEA","randomdotsizeEA","randomdotsizeEA","equaldotanddens","equaldotsize","equaldotsize","randomdotsize","equaldotanddens","equaldotsize","randomdotsizeEA","randomdotsize","equaldotsize","randomdotsize","equaldotsize","equaldotsize","equaldotanddens","randomdotsizeEA","randomdotsizeEA","equaldotanddens","equaldotanddens","randomdotsize","randomdotsize","randomdotsize","randomdotsizeEA","randomdotsize","randomdotsize","equaldotsize","equaldotanddens","equaldotanddens","randomdotsizeEA"],"ratio_trial":[250,250,500,750,500,900,500,750,500,900,750,500,900,500,500,250,250,250,900,750,900,250,250,500,250,500,250,500,900,250,900,900,250,500,900,500,750,900,250,750,900,250,900,500,250,750,250,900,500,750,900,250,900,500,750,900,900,750,250,250,250,250,250,900,750,750,900,750,750,500,900,900,500,750,500,900,750,900,900,500,900,500,900,900,250,750,750,250,250,500,250,500,250,250,250,750,250,750,500,250,250,750,250,500,750,500,500,750,250,750,250,750,750,750,750,500,750,250,900,250,750,500,500,900,750,250,900,500,900,750,250,500,500,500,750,900,500,750,900,250,500,900,750,250,250,500,500,500,500,500,750,500,250,900,500,900,900,750,900,900,750,900,750,250,900,750,500,750,900,900,900,250,750,500,750,750],"smaller_num":["3","3","2","3","6","9","3","3","6","18","18","2","9","9","4","4","3","4","18","3","18","2","2","2","3","6","6","6","18","3","18","9","3","2","9","1","15","9","5","6","18","3","18","6","2","3","3","18","2","15","18","4","9","9","6","18","18","15","4","2","2","3","2","18","15","6","18","6","9","2","9","9","1","3","6","9","9","9","9","6","9","2","18","9","3","18","15","3","2","9","3","9","3","4","1","15","6","15","2","3","2","6","3","10","15","2","6","6","2","15","1","3","18","6","18","9","6","2","9","4","15","6","1","18","3","2","9","9","18","18","3","9","9","2","6","9","5","6","18","2","6","18","15","1","1","5","4","10","6","3","15","2","4","9","2","9","18","3","18","9","6","9","15","4","9","6","4","3","18","18","18","4","3","2","6","3"],"larger_num":["12","12","4","4","12","10","6","4","12","20","24","4","10","18","8","16","12","16","20","4","20","8","8","4","12","12","24","12","20","12","20","10","12","4","10","2","20","10","20","8","20","12","20","12","8","4","12","20","4","20","20","16","10","18","8","20","20","20","16","8","8","12","8","20","20","8","20","8","12","4","10","10","2","4","12","10","12","10","10","12","10","4","20","10","12","24","20","12","8","18","12","18","12","16","4","20","24","20","4","12","8","8","12","20","20","4","12","8","8","20","4","4","24","8","24","18","8","8","10","16","20","12","2","20","4","8","10","18","20","24","12","18","18","4","8","10","10","8","20","8","12","20","20","4","4","10","8","20","12","6","20","4","16","10","4","10","20","4","20","10","8","10","20","16","10","8","8","4","20","20","20","16","4","4","8","4"],"correct_side":[1,1,1,1,1,1,2,1,1,1,1,1,2,2,1,2,1,2,1,2,1,1,1,1,1,1,1,1,2,2,2,1,1,1,2,2,2,2,2,1,1,2,1,1,1,1,2,1,2,2,1,2,2,2,1,1,1,2,1,2,2,1,1,1,1,1,1,2,2,1,1,1,2,1,1,1,2,2,2,1,1,1,1,2,2,1,1,2,1,1,2,2,2,2,2,2,2,2,2,2,1,2,1,2,2,1,1,2,1,2,2,2,1,1,1,1,1,1,2,1,2,1,2,1,1,1,1,1,2,1,1,2,2,1,1,2,2,2,2,1,1,1,2,2,2,1,1,2,1,2,1,1,2,2,2,1,2,1,1,1,1,1,2,1,2,1,1,1,1,1,1,2,1,2,1,2],"img_shown":["img/250/randomdotsizeEA/L/15_Ratio_250_L_12_R_3.png","img/250/equaldotsize/L/14_Ratio_250_L_12_R_3.png","img/500/equaldotsize/L/5_Ratio_500_L_4_R_2.png","img/750/randomdotsize/L/10_Ratio_750_L_4_R_3.png","img/500/randomdotsize/L/11_Ratio_500_L_12_R_6.png","img/900/equaldotsize/L/1_Ratio_900_L_10_R_9.png","img/500/equaldotanddens/R/2_Ratio_500_L_3_R_6.png","img/750/equaldotsize/L/8_Ratio_750_L_4_R_3.png","img/500/equaldotsize/L/11_Ratio_500_L_12_R_6.png","img/900/equaldotanddens/L/8_Ratio_900_L_20_R_18.png","img/750/equaldotsize/L/6_Ratio_750_L_24_R_18.png","img/500/randomdotsizeEA/L/5_Ratio_500_L_4_R_2.png","img/900/equaldotsize/R/7_Ratio_900_L_9_R_10.png","img/500/equaldotsize/R/1_Ratio_500_L_9_R_18.png","img/500/randomdotsizeEA/L/8_Ratio_500_L_8_R_4.png","img/250/equaldotanddens/R/10_Ratio_250_L_4_R_16.png","img/250/equaldotsize/L/15_Ratio_250_L_12_R_3.png","img/250/equaldotsize/R/10_Ratio_250_L_4_R_16.png","img/900/randomdotsize/L/4_Ratio_900_L_20_R_18.png","img/750/equaldotanddens/R/12_Ratio_750_L_3_R_4.png","img/900/randomdotsizeEA/L/8_Ratio_900_L_20_R_18.png","img/250/randomdotsizeEA/L/7_Ratio_250_L_8_R_2.png","img/250/randomdotsize/L/1_Ratio_250_L_8_R_2.png","img/500/randomdotsize/L/10_Ratio_500_L_4_R_2.png","img/250/randomdotsize/L/14_Ratio_250_L_12_R_3.png","img/500/equaldotanddens/L/11_Ratio_500_L_12_R_6.png","img/250/randomdotsizeEA/L/5_Ratio_250_L_24_R_6.png","img/500/randomdotsize/L/13_Ratio_500_L_12_R_6.png","img/900/randomdotsizeEA/R/14_Ratio_900_L_18_R_20.png","img/250/equaldotsize/R/11_Ratio_250_L_3_R_12.png","img/900/randomdotsizeEA/R/14_Ratio_900_L_18_R_20.png","img/900/randomdotsizeEA/L/1_Ratio_900_L_10_R_9.png","img/250/equaldotanddens/L/15_Ratio_250_L_12_R_3.png","img/500/equaldotanddens/L/10_Ratio_500_L_4_R_2.png","img/900/equaldotsize/R/3_Ratio_900_L_9_R_10.png","img/500/equaldotsize/R/15_Ratio_500_L_1_R_2.png","img/750/equaldotsize/R/5_Ratio_750_L_15_R_20.png","img/900/randomdotsizeEA/R/3_Ratio_900_L_9_R_10.png","img/250/randomdotsizeEA/R/12_Ratio_250_L_5_R_20.png","img/750/randomdotsize/L/13_Ratio_750_L_8_R_6.png","img/900/equaldotsize/L/4_Ratio_900_L_20_R_18.png","img/250/equaldotanddens/R/11_Ratio_250_L_3_R_12.png","img/900/equaldotanddens/L/2_Ratio_900_L_20_R_18.png","img/500/equaldotsize/L/11_Ratio_500_L_12_R_6.png","img/250/randomdotsizeEA/L/7_Ratio_250_L_8_R_2.png","img/750/randomdotsizeEA/L/10_Ratio_750_L_4_R_3.png","img/250/randomdotsize/R/11_Ratio_250_L_3_R_12.png","img/900/randomdotsizeEA/L/4_Ratio_900_L_20_R_18.png","img/500/randomdotsizeEA/R/9_Ratio_500_L_2_R_4.png","img/750/randomdotsize/R/5_Ratio_750_L_15_R_20.png","img/900/randomdotsize/L/2_Ratio_900_L_20_R_18.png","img/250/equaldotsize/R/10_Ratio_250_L_4_R_16.png","img/900/randomdotsize/R/7_Ratio_900_L_9_R_10.png","img/500/randomdotsize/R/1_Ratio_500_L_9_R_18.png","img/750/randomdotsize/L/14_Ratio_750_L_8_R_6.png","img/900/equaldotanddens/L/10_Ratio_900_L_20_R_18.png","img/900/randomdotsizeEA/L/10_Ratio_900_L_20_R_18.png","img/750/equaldotanddens/R/5_Ratio_750_L_15_R_20.png","img/250/equaldotsize/L/2_Ratio_250_L_16_R_4.png","img/250/equaldotanddens/R/13_Ratio_250_L_2_R_8.png","img/250/randomdotsize/R/13_Ratio_250_L_2_R_8.png","img/250/equaldotsize/L/15_Ratio_250_L_12_R_3.png","img/250/equaldotanddens/L/1_Ratio_250_L_8_R_2.png","img/900/randomdotsize/L/8_Ratio_900_L_20_R_18.png","img/750/equaldotanddens/L/1_Ratio_750_L_20_R_15.png","img/750/equaldotanddens/L/14_Ratio_750_L_8_R_6.png","img/900/equaldotanddens/L/4_Ratio_900_L_20_R_18.png","img/750/equaldotsize/R/2_Ratio_750_L_6_R_8.png","img/750/equaldotanddens/R/15_Ratio_750_L_9_R_12.png","img/500/randomdotsizeEA/L/5_Ratio_500_L_4_R_2.png","img/900/randomdotsize/L/1_Ratio_900_L_10_R_9.png","img/900/equaldotanddens/L/1_Ratio_900_L_10_R_9.png","img/500/equaldotsize/R/12_Ratio_500_L_1_R_2.png","img/750/equaldotanddens/L/9_Ratio_750_L_4_R_3.png","img/500/equaldotanddens/L/11_Ratio_500_L_12_R_6.png","img/900/equaldotsize/L/1_Ratio_900_L_10_R_9.png","img/750/equaldotsize/R/15_Ratio_750_L_9_R_12.png","img/900/equaldotsize/R/6_Ratio_900_L_9_R_10.png","img/900/equaldotsize/R/6_Ratio_900_L_9_R_10.png","img/500/randomdotsizeEA/L/11_Ratio_500_L_12_R_6.png","img/900/randomdotsizeEA/L/1_Ratio_900_L_10_R_9.png","img/500/randomdotsize/L/5_Ratio_500_L_4_R_2.png","img/900/randomdotsizeEA/L/10_Ratio_900_L_20_R_18.png","img/900/equaldotanddens/R/3_Ratio_900_L_9_R_10.png","img/250/randomdotsizeEA/R/11_Ratio_250_L_3_R_12.png","img/750/randomdotsize/L/6_Ratio_750_L_24_R_18.png","img/750/randomdotsizeEA/L/1_Ratio_750_L_20_R_15.png","img/250/equaldotsize/R/4_Ratio_250_L_3_R_12.png","img/250/randomdotsizeEA/L/1_Ratio_250_L_8_R_2.png","img/500/randomdotsize/L/4_Ratio_500_L_18_R_9.png","img/250/equaldotsize/R/11_Ratio_250_L_3_R_12.png","img/500/randomdotsize/R/6_Ratio_500_L_9_R_18.png","img/250/randomdotsize/R/11_Ratio_250_L_3_R_12.png","img/250/equaldotsize/R/10_Ratio_250_L_4_R_16.png","img/250/randomdotsize/R/8_Ratio_250_L_1_R_4.png","img/750/equaldotsize/R/5_Ratio_750_L_15_R_20.png","img/250/randomdotsizeEA/R/6_Ratio_250_L_6_R_24.png","img/750/equaldotanddens/R/4_Ratio_750_L_15_R_20.png","img/500/randomdotsizeEA/R/9_Ratio_500_L_2_R_4.png","img/250/equaldotanddens/R/9_Ratio_250_L_3_R_12.png","img/250/randomdotsize/L/3_Ratio_250_L_8_R_2.png","img/750/randomdotsize/R/2_Ratio_750_L_6_R_8.png","img/250/randomdotsize/L/15_Ratio_250_L_12_R_3.png","img/500/randomdotsize/R/3_Ratio_500_L_10_R_20.png","img/750/randomdotsizeEA/R/5_Ratio_750_L_15_R_20.png","img/500/equaldotsize/L/5_Ratio_500_L_4_R_2.png","img/500/randomdotsize/L/13_Ratio_500_L_12_R_6.png","img/750/randomdotsize/R/2_Ratio_750_L_6_R_8.png","img/250/equaldotanddens/L/3_Ratio_250_L_8_R_2.png","img/750/randomdotsize/R/5_Ratio_750_L_15_R_20.png","img/250/randomdotsize/R/8_Ratio_250_L_1_R_4.png","img/750/randomdotsizeEA/R/12_Ratio_750_L_3_R_4.png","img/750/randomdotsize/L/6_Ratio_750_L_24_R_18.png","img/750/equaldotanddens/L/14_Ratio_750_L_8_R_6.png","img/750/randomdotsizeEA/L/6_Ratio_750_L_24_R_18.png","img/500/equaldotanddens/L/4_Ratio_500_L_18_R_9.png","img/750/randomdotsizeEA/L/14_Ratio_750_L_8_R_6.png","img/250/equaldotanddens/L/7_Ratio_250_L_8_R_2.png","img/900/equaldotsize/R/15_Ratio_900_L_9_R_10.png","img/250/equaldotanddens/L/2_Ratio_250_L_16_R_4.png","img/750/equaldotanddens/R/4_Ratio_750_L_15_R_20.png","img/500/equaldotanddens/L/13_Ratio_500_L_12_R_6.png","img/500/randomdotsize/R/12_Ratio_500_L_1_R_2.png","img/900/equaldotanddens/L/2_Ratio_900_L_20_R_18.png","img/750/randomdotsizeEA/L/9_Ratio_750_L_4_R_3.png","img/250/equaldotsize/L/3_Ratio_250_L_8_R_2.png","img/900/randomdotsize/L/1_Ratio_900_L_10_R_9.png","img/500/equaldotanddens/L/4_Ratio_500_L_18_R_9.png","img/900/equaldotsize/R/13_Ratio_900_L_18_R_20.png","img/750/equaldotsize/L/6_Ratio_750_L_24_R_18.png","img/250/equaldotanddens/L/15_Ratio_250_L_12_R_3.png","img/500/equaldotsize/R/1_Ratio_500_L_9_R_18.png","img/500/equaldotanddens/R/1_Ratio_500_L_9_R_18.png","img/500/equaldotsize/L/5_Ratio_500_L_4_R_2.png","img/750/randomdotsizeEA/L/13_Ratio_750_L_8_R_6.png","img/900/equaldotanddens/R/5_Ratio_900_L_9_R_10.png","img/500/randomdotsizeEA/R/14_Ratio_500_L_5_R_10.png","img/750/randomdotsize/R/2_Ratio_750_L_6_R_8.png","img/900/equaldotsize/R/14_Ratio_900_L_18_R_20.png","img/250/randomdotsizeEA/L/1_Ratio_250_L_8_R_2.png","img/500/randomdotsizeEA/L/11_Ratio_500_L_12_R_6.png","img/900/randomdotsize/L/4_Ratio_900_L_20_R_18.png","img/750/randomdotsizeEA/R/5_Ratio_750_L_15_R_20.png","img/250/equaldotanddens/R/8_Ratio_250_L_1_R_4.png","img/250/randomdotsizeEA/R/8_Ratio_250_L_1_R_4.png","img/500/equaldotanddens/L/7_Ratio_500_L_10_R_5.png","img/500/randomdotsizeEA/L/8_Ratio_500_L_8_R_4.png","img/500/randomdotsizeEA/R/3_Ratio_500_L_10_R_20.png","img/500/randomdotsizeEA/L/11_Ratio_500_L_12_R_6.png","img/500/equaldotanddens/R/2_Ratio_500_L_3_R_6.png","img/750/equaldotsize/L/1_Ratio_750_L_20_R_15.png","img/500/equaldotsize/L/10_Ratio_500_L_4_R_2.png","img/250/randomdotsize/R/10_Ratio_250_L_4_R_16.png","img/900/equaldotanddens/R/15_Ratio_900_L_9_R_10.png","img/500/equaldotsize/R/9_Ratio_500_L_2_R_4.png","img/900/randomdotsizeEA/L/1_Ratio_900_L_10_R_9.png","img/900/randomdotsize/R/12_Ratio_900_L_18_R_20.png","img/750/equaldotsize/L/9_Ratio_750_L_4_R_3.png","img/900/randomdotsize/L/2_Ratio_900_L_20_R_18.png","img/900/equaldotsize/L/1_Ratio_900_L_10_R_9.png","img/750/equaldotsize/L/14_Ratio_750_L_8_R_6.png","img/900/equaldotanddens/L/1_Ratio_900_L_10_R_9.png","img/750/randomdotsizeEA/R/5_Ratio_750_L_15_R_20.png","img/250/randomdotsizeEA/L/2_Ratio_250_L_16_R_4.png","img/900/equaldotanddens/R/5_Ratio_900_L_9_R_10.png","img/750/equaldotanddens/L/13_Ratio_750_L_8_R_6.png","img/500/randomdotsize/L/8_Ratio_500_L_8_R_4.png","img/750/randomdotsize/L/10_Ratio_750_L_4_R_3.png","img/900/randomdotsize/L/8_Ratio_900_L_20_R_18.png","img/900/randomdotsizeEA/L/4_Ratio_900_L_20_R_18.png","img/900/randomdotsize/L/8_Ratio_900_L_20_R_18.png","img/250/randomdotsize/R/10_Ratio_250_L_4_R_16.png","img/750/equaldotsize/L/9_Ratio_750_L_4_R_3.png","img/500/equaldotanddens/R/9_Ratio_500_L_2_R_4.png","img/750/equaldotanddens/L/13_Ratio_750_L_8_R_6.png","img/750/randomdotsizeEA/R/12_Ratio_750_L_3_R_4.png"],"Rat0":[["12_Ratio_0_L_9_R_0.png","13_Ratio_0_L_6_R_0.png","5_Ratio_0_L_2_R_0.png","6_Ratio_0_L_4_R_0.png","8_Ratio_0_L_6_R_0.png"],["1_Ratio_0_L_0_R_17.png","10_Ratio_0_L_0_R_22.png","11_Ratio_0_L_0_R_1.png","14_Ratio_0_L_0_R_24.png","15_Ratio_0_L_0_R_4.png","2_Ratio_0_L_0_R_5.png","3_Ratio_0_L_0_R_17.png","4_Ratio_0_L_0_R_7.png","7_Ratio_0_L_0_R_19.png","9_Ratio_0_L_0_R_15.png"]],"Rat250":[["1_Ratio_250_L_8_R_2.png","14_Ratio_250_L_12_R_3.png","15_Ratio_250_L_12_R_3.png","2_Ratio_250_L_16_R_4.png","3_Ratio_250_L_8_R_2.png","5_Ratio_250_L_24_R_6.png","7_Ratio_250_L_8_R_2.png"],["10_Ratio_250_L_4_R_16.png","11_Ratio_250_L_3_R_12.png","12_Ratio_250_L_5_R_20.png","13_Ratio_250_L_2_R_8.png","4_Ratio_250_L_3_R_12.png","6_Ratio_250_L_6_R_24.png","8_Ratio_250_L_1_R_4.png","9_Ratio_250_L_3_R_12.png"]],"Rat500":[["10_Ratio_500_L_4_R_2.png","11_Ratio_500_L_12_R_6.png","13_Ratio_500_L_12_R_6.png","4_Ratio_500_L_18_R_9.png","5_Ratio_500_L_4_R_2.png","7_Ratio_500_L_10_R_5.png","8_Ratio_500_L_8_R_4.png"],["1_Ratio_500_L_9_R_18.png","12_Ratio_500_L_1_R_2.png","14_Ratio_500_L_5_R_10.png","15_Ratio_500_L_1_R_2.png","2_Ratio_500_L_3_R_6.png","3_Ratio_500_L_10_R_20.png","6_Ratio_500_L_9_R_18.png","9_Ratio_500_L_2_R_4.png"]],"Rat750":[["1_Ratio_750_L_20_R_15.png","10_Ratio_750_L_4_R_3.png","13_Ratio_750_L_8_R_6.png","14_Ratio_750_L_8_R_6.png","6_Ratio_750_L_24_R_18.png","8_Ratio_750_L_4_R_3.png","9_Ratio_750_L_4_R_3.png"],["11_Ratio_750_L_12_R_16.png","12_Ratio_750_L_3_R_4.png","15_Ratio_750_L_9_R_12.png","2_Ratio_750_L_6_R_8.png","3_Ratio_750_L_15_R_20.png","4_Ratio_750_L_15_R_20.png","5_Ratio_750_L_15_R_20.png","7_Ratio_750_L_3_R_4.png"]],"Rat900":[["1_Ratio_900_L_10_R_9.png","10_Ratio_900_L_20_R_18.png","2_Ratio_900_L_20_R_18.png","4_Ratio_900_L_20_R_18.png","8_Ratio_900_L_20_R_18.png"],["11_Ratio_900_L_18_R_20.png","12_Ratio_900_L_18_R_20.png","13_Ratio_900_L_18_R_20.png","14_Ratio_900_L_18_R_20.png","15_Ratio_900_L_9_R_10.png","3_Ratio_900_L_9_R_10.png","5_Ratio_900_L_9_R_10.png","6_Ratio_900_L_9_R_10.png","7_Ratio_900_L_9_R_10.png","9_Ratio_900_L_18_R_20.png"]],"Rat1000":[["10_Ratio_1000_L_16_R_16.png","11_Ratio_1000_L_6_R_6.png","12_Ratio_1000_L_14_R_14.png","13_Ratio_1000_L_20_R_20.png","15_Ratio_1000_L_15_R_15.png","2_Ratio_1000_L_17_R_17.png","4_Ratio_1000_L_9_R_9.png","5_Ratio_1000_L_6_R_6.png","6_Ratio_1000_L_19_R_19.png","8_Ratio_1000_L_14_R_14.png","9_Ratio_1000_L_25_R_25.png"],["1_Ratio_1000_L_1_R_1.png","14_Ratio_1000_L_17_R_17.png","3_Ratio_1000_L_17_R_17.png","7_Ratio_1000_L_6_R_6.png"]]}},{"start_time":1549309875199,"click_time":1549309876530,"finger_time":1549309876149,"fix_duration":969.1661228925822,"trial":1,"RT":950,"MT":381,"sideResp":1,"stimulus":"img/250/equaldotsize/L/14_Ratio_250_L_12_R_3.png","xmouse":[405.3333435058594,405.3333435058594,405.3333435058594,405.3333435058594,405.3333435058594,405.3333435058594,405.3333435058594,405.3333435058594,405.3333435058594,405.3333435058594,405.3333435058594,405.3333435058594,405.3333435058594,405.3333435058594,405.3333435058594,405.3333435058594,405.3333435058594,405.3333435058594,405.3333435058594,405.3333435058594,405.3333435058594,405.3333435058594,405.3333435058594,405.3333435058594,405.3333435058594,406,406,406,406,406,406,406,406,406,406,406,406,406,406,406,406,406,406,402.66668701171875,402,399.3333435058594,396.66668701171875,395.3333435058594,387.3333435058594,382,362,348.66668701171875,342,325.3333435058594,317.3333435058594,288.66668701171875,269.3333435058594,257.3333435058594,234.6666717529297,224,201.33334350585938,168,157.33334350585938,135.33334350585938,126,106.66667175292969,80],"ymouse":[802.6666870117188,802.6666870117188,802.6666870117188,802.6666870117188,802.6666870117188,803.3333129882812,803.3333129882812,803.3333129882812,803.3333129882812,803.3333129882812,803.3333129882812,803.3333129882812,803.3333129882812,803.3333129882812,803.3333129882812,804,804,804,804,804,804,804,804,804,804,803.3333129882812,803.3333129882812,803.3333129882812,803.3333129882812,803.3333129882812,803.3333129882812,803.3333129882812,803.3333129882812,803.3333129882812,803.3333129882812,803.3333129882812,803.3333129882812,803.3333129882812,803.3333129882812,803.3333129882812,803.3333129882812,803.3333129882812,803.3333129882812,786.6666870117188,784,775.3333740234375,768,763.3333740234375,744,730.6666870117188,680.6666870117188,649.3333740234375,631.3333740234375,592.6666870117188,574,510.66668701171875,466.66668701171875,441.3333435058594,394.66668701171875,371.3333435058594,324.66668701171875,252,229.33334350585938,183.33334350585938,162,119.33334350585938,68],"timestamp_mouse":[13,43,49,69,90,110,129,150,170,190,210,230,249,269,289,309,329,349,369,389,410,430,450,470,489,509,529,549,570,590,609,630,650,670,689,709,730,749,769,790,810,831,849,870,889,910,929,950,969,990,1012,1030,1049,1070,1090,1111,1129,1150,1170,1189,1210,1230,1250,1269,1290,1309,1331],"xSR":350,"ySR":768,"xT1":30,"yT1":0,"xT2":670,"yT2":0,"toosoon":0,"cond_shown":"equaldotsize","ratio_trial":250,"smaller_num":"3","larger_num":"12","correct_side":1,"subjID":"4","gender":"No_gender","age":"No_age","school":"No_school"},{"start_time":1549309879290,"click_time":1549309880488,"finger_time":1549309880068,"fix_duration":920.5426188686554,"trial":2,"RT":778,"MT":420,"sideResp":1,"stimulus":"img/500/equaldotsize/L/5_Ratio_500_L_4_R_2.png","xmouse":[392.66668701171875,392.66668701171875,392.66668701171875,392.66668701171875,392.66668701171875,392.66668701171875,392.66668701171875,392.66668701171875,392.66668701171875,392.66668701171875,392.66668701171875,392.66668701171875,393.3333435058594,393.3333435058594,393.3333435058594,393.3333435058594,393.3333435058594,393.3333435058594,393.3333435058594,393.3333435058594,393.3333435058594,393.3333435058594,391.3333435058594,391.3333435058594,391.3333435058594,391.3333435058594,391.3333435058594,384,382.66668701171875,382,381.3333435058594,380.66668701171875,380.66668701171875,381.3333435058594,380.66668701171875,380.66668701171875,378.66668701171875,377.3333435058594,375.3333435058594,374,370,367.3333435058594,352,337.3333435058594,330,315.3333435058594,306.66668701171875,278,256.66668701171875,245.33334350585938,225.33334350585938,214,184.6666717529297,176.6666717529297,161.33334350585938,154.6666717529297,136,102,92.66667175292969,76.66667175292969],"ymouse":[822,822,822,821.3333129882812,821.3333129882812,821.3333129882812,821.3333129882812,821.3333129882812,821.3333129882812,821.3333129882812,821.3333129882812,821.3333129882812,820,820,820,820,820,820,820,820,820,820,812.6666870117188,812.6666870117188,812.6666870117188,812.6666870117188,812.6666870117188,797.3333740234375,794,792,788.6666870117188,785.3333740234375,784,782,780.6666870117188,778,773.3333740234375,771.3333740234375,766,762.6666870117188,753.3333740234375,746,710,674.6666870117188,658,624.6666870117188,607.3333740234375,549.3333740234375,506,480,433.3333435058594,406,328,300,244.66668701171875,218.6666717529297,171.33334350585938,117.33334350585938,102.66667175292969,78.66667175292969],"timestamp_mouse":[19,44,59,78,98,118,138,160,178,199,218,238,258,279,298,318,338,359,379,399,418,438,461,478,499,519,539,559,579,598,619,641,658,678,698,718,740,758,778,799,818,838,860,879,899,919,938,960,978,998,1019,1038,1060,1078,1098,1119,1139,1161,1178,1198],"xSR":350,"ySR":768,"xT1":30,"yT1":0,"xT2":670,"yT2":0,"toosoon":0,"cond_shown":"equaldotsize","ratio_trial":500,"smaller_num":"2","larger_num":"4","correct_side":1,"subjID":"4","gender":"No_gender","age":"No_age","school":"No_school"},{"start_time":1549309882778,"click_time":1549309884009,"finger_time":1549309883669,"fix_duration":1168.4762829145316,"trial":3,"RT":891,"MT":340,"sideResp":1,"stimulus":"img/750/randomdotsize/L/10_Ratio_750_L_4_R_3.png","xmouse":[379.3333435058594,379.3333435058594,380,380,380,380,380,380.66668701171875,380.66668701171875,380.66668701171875,380.66668701171875,380.66668701171875,380.66668701171875,380.66668701171875,380.66668701171875,380.66668701171875,380.66668701171875,380.66668701171875,380.66668701171875,380.66668701171875,380.66668701171875,380.66668701171875,380,380,380,380,380,380,380,373.3333435058594,373.3333435058594,373.3333435058594,374,374,373.3333435058594,373.3333435058594,373.3333435058594,372.66668701171875,372,371.3333435058594,370.66668701171875,370,368.66668701171875,367.3333435058594,362.66668701171875,352,340,334.66668701171875,328,307.3333435058594,290,271.3333435058594,262,252,231.33334350585938,202,192,172,162.6666717529297,133.33334350585938,113.33333587646484,104],"ymouse":[807.3333740234375,807.3333740234375,808,808,808,808,808,808,808,808,807.3333129882812,807.3333129882812,806.6666870117188,806.6666870117188,806.6666870117188,806.6666870117188,806.6666870117188,806.6666870117188,806.6666870117188,806.6666870117188,806.6666870117188,806.6666870117188,804,804,804,804,804,804,804,785.3333740234375,782.6666870117188,781.3333740234375,780.6666870117188,780,779.3333740234375,779.3333740234375,779.3333740234375,778.6666870117188,778.6666870117188,778,776.6666870117188,776,773.3333740234375,771.3333740234375,759.3333740234375,734,698.6666870117188,680,660.6666870117188,596.6666870117188,547.3333740234375,493.3333435058594,465.3333435058594,436,380,300,272.66668701171875,222,198,137.33334350585938,108,94],"timestamp_mouse":[12,35,51,71,90,110,131,150,171,190,211,230,251,271,290,310,330,351,370,391,411,430,450,472,490,510,530,551,570,591,611,631,650,671,690,710,730,751,770,790,811,830,850,871,891,910,930,950,970,992,1010,1031,1050,1070,1091,1111,1131,1151,1170,1193,1211,1231],"xSR":350,"ySR":768,"xT1":30,"yT1":0,"xT2":670,"yT2":0,"toosoon":0,"cond_shown":"randomdotsize","ratio_trial":750,"smaller_num":"3","larger_num":"4","correct_side":1,"subjID":"4","gender":"No_gender","age":"No_age","school":"No_school"},{"start_time":1549309886398,"click_time":1549309887430,"finger_time":1549309887128,"fix_duration":1188.3107838766007,"trial":4,"RT":730,"MT":302,"sideResp":1,"stimulus":"img/500/randomdotsize/L/11_Ratio_500_L_12_R_6.png","xmouse":[420.66668701171875,420.66668701171875,420,420,420,420,420,420,420,420,420,420,420,420,420,420,420,420,420,420,420,420,419.3333435058594,419.3333435058594,419.3333435058594,419.3333435058594,419.3333435058594,419.3333435058594,419.3333435058594,419.3333435058594,419.3333435058594,419.3333435058594,404,404,398.66668701171875,390.66668701171875,384,365.3333435058594,355.3333435058594,322.66668701171875,298.66668701171875,286,262,250,218.6666717529297,197.33334350585938,184,156,141.33334350585938,116,84.66667175292969,75.33333587646484],"ymouse":[817.3333129882812,817.3333129882812,816.6666870117188,816.6666870117188,816.6666870117188,816.6666870117188,816.6666870117188,816.6666870117188,816.6666870117188,816.6666870117188,816.6666870117188,816.6666870117188,816.6666870117188,816.6666870117188,816.6666870117188,816.6666870117188,816.6666870117188,816.6666870117188,816.6666870117188,816.6666870117188,816.6666870117188,816.6666870117188,814.6666870117188,814.6666870117188,814.6666870117188,814.6666870117188,814.6666870117188,814.6666870117188,814.6666870117188,814.6666870117188,814.6666870117188,814.6666870117188,802.6666870117188,802.6666870117188,792,778.6666870117188,766.6666870117188,734,714.6666870117188,646,594,566.6666870117188,509.3333740234375,479.3333435058594,388,323.3333435058594,290,233.33334350585938,207.33334350585938,162,108.66667175292969,95.33333587646484],"timestamp_mouse":[13,36,50,71,90,111,131,151,171,190,210,231,250,270,290,311,331,350,370,390,410,431,451,471,490,511,531,550,570,590,610,630,650,671,692,710,730,751,770,793,811,831,850,871,893,911,930,951,970,991,1011,1032],"xSR":350,"ySR":768,"xT1":30,"yT1":0,"xT2":670,"yT2":0,"toosoon":0,"cond_shown":"randomdotsize","ratio_trial":500,"smaller_num":"6","larger_num":"12","correct_side":1,"subjID":"4","gender":"No_gender","age":"No_age","school":"No_school"},{"start_time":1549309889516,"click_time":1549309890729,"finger_time":1549309890249,"fix_duration":507.7508131573495,"trial":5,"RT":733,"MT":480,"sideResp":1,"stimulus":"img/900/equaldotsize/L/1_Ratio_900_L_10_R_9.png","xmouse":[436,436,436,436,435.3333435058594,434.6666564941406,434.6666564941406,434.6666564941406,434.6666564941406,434.6666564941406,434.6666564941406,434.6666564941406,434.6666564941406,434.6666564941406,434.6666564941406,430.6666564941406,430.6666564941406,430.6666564941406,430.6666564941406,430.6666564941406,430.6666564941406,430.6666564941406,430.6666564941406,430.6666564941406,430.6666564941406,432.6666564941406,432.6666564941406,432.6666564941406,432.6666564941406,432.6666564941406,432.6666564941406,432.6666564941406,432.6666564941406,432.6666564941406,433.3333435058594,433.3333435058594,435.3333435058594,435.3333435058594,444,450,454,454.66668701171875,454.66668701171875,454.66668701171875,454.66668701171875,418,408,398.66668701171875,380,348.66668701171875,337.3333435058594,314,301.3333435058594,276,240.6666717529297,228.6666717529297,204.6666717529297,192,162.6666717529297,122.66667175292969,110.66667175292969],"ymouse":[826,826,826,825.3333740234375,825.3333740234375,825.3333740234375,825.3333740234375,825.3333740234375,825.3333740234375,825.3333740234375,825.3333740234375,825.3333740234375,825.3333740234375,825.3333740234375,825.3333740234375,824,824,824,824,824,824,824,824,824,824,813.3333740234375,813.3333740234375,813.3333740234375,813.3333740234375,813.3333740234375,813.3333740234375,813.3333740234375,813.3333740234375,813.3333740234375,777.3333740234375,772,762.6666870117188,762.6666870117188,742,726.6666870117188,711.3333740234375,695.3333740234375,695.3333740234375,695.3333740234375,695.3333740234375,615.3333740234375,599.3333740234375,582.6666870117188,551.3333740234375,499.3333740234375,480.66668701171875,441.3333435058594,420.66668701171875,378,308,283.3333435058594,234,210,164.6666717529297,102.66667175292969,86],"timestamp_mouse":[13,41,53,72,92,112,132,153,173,192,212,232,253,273,293,312,332,352,373,392,412,432,453,472,494,515,532,553,572,593,613,632,652,672,693,712,733,752,772,793,814,832,852,873,892,912,932,952,973,993,1012,1033,1053,1073,1094,1112,1133,1152,1173,1195,1213],"xSR":350,"ySR":768,"xT1":30,"yT1":0,"xT2":670,"yT2":0,"toosoon":0,"cond_shown":"equaldotsize","ratio_trial":900,"smaller_num":"9","larger_num":"10","correct_side":1,"subjID":"4","gender":"No_gender","age":"No_age","school":"No_school"},{"start_time":1549309893414,"click_time":1549309894250,"finger_time":1549309893968,"fix_duration":1221.176021733404,"trial":6,"RT":554,"MT":282,"sideResp":2,"stimulus":"img/500/equaldotanddens/R/2_Ratio_500_L_3_R_6.png","xmouse":[381,381,381,381,381,381,381,381,381,381,381,381,381,381,375.3333435058594,375.3333435058594,375.3333435058594,375.3333435058594,375.3333435058594,375.3333435058594,375.3333435058594,375.3333435058594,375.3333435058594,375.3333435058594,375.3333435058594,375.3333435058594,402.0000305175781,423.3333435058594,423.3333435058594,456,464,490.66668701171875,516,532.6666870117188,569.3333740234375,586.6666870117188,634.6666870117188,655.3333740234375,662,674,680,694.6666870117188],"ymouse":[824,824,824,824,824,824,824,824,824,824,824,824,824,824,818.6666870117188,818.6666870117188,818.0000610351562,818.0000610351562,818.0000610351562,818.0000610351562,818.0000610351562,818.0000610351562,818.0000610351562,818.0000610351562,818.0000610351562,818.0000610351562,795.3333740234375,765.3333740234375,765.3333740234375,705.3333740234375,684,606.6666870117188,547.3333740234375,515.3333740234375,445.3333435058594,413.3333435058594,306.66668701171875,244,214.6666717529297,161.33334350585938,136,82],"timestamp_mouse":[28,35,54,75,95,115,134,154,175,195,214,235,254,275,294,314,334,354,375,394,415,435,454,474,494,514,540,554,574,594,614,636,654,674,694,715,734,754,775,794,814,835],"xSR":350,"ySR":768,"xT1":30,"yT1":0,"xT2":670,"yT2":0,"toosoon":0,"cond_shown":"equaldotanddens","ratio_trial":500,"smaller_num":"3","larger_num":"6","correct_side":2,"subjID":"4","gender":"No_gender","age":"No_age","school":"No_school"},{"start_time":1549309896241,"click_time":1549309897072,"finger_time":1549309896750,"fix_duration":971.6450817293409,"trial":7,"RT":509,"MT":322,"sideResp":1,"stimulus":"img/750/equaldotsize/L/8_Ratio_750_L_4_R_3.png","xmouse":[386.6666564941406,386.6666564941406,386.6666564941406,386.6666564941406,384.6666564941406,384.6666564941406,384.6666564941406,384.6666564941406,384.6666564941406,384.6666564941406,384.6666564941406,384.6666564941406,384.6666564941406,386,386,386,386,385.3333435058594,385.3333435058594,384.6666564941406,383.3333435058594,382.6666564941406,380.6666564941406,379.3333435058594,375.3333435058594,363.3333435058594,356.6666564941406,338.6666564941406,328.66668701171875,308.66668701171875,298,267.3333435058594,246.6666717529297,236.00001525878906,215.33334350585938,204.00001525878906,177.33334350585938,162.6666717529297,156.00001525878906,144.6666717529297,138.6666717529297,120.66666412353516],"ymouse":[844,844,844,844,841.3333740234375,841.3333740234375,841.3333740234375,841.3333740234375,841.3333740234375,841.3333740234375,841.3333740234375,841.3333740234375,841.3333740234375,838.6666870117188,838,837.3333740234375,837.3333740234375,836.6666870117188,835.3333740234375,833.3333740234375,824.6666870117188,820,809.3333740234375,803.3333740234375,788.6666870117188,757.3333740234375,741.3333740234375,704.6666870117188,684.6666870117188,642.6666870117188,618.6666870117188,539.3333740234375,480.66668701171875,451.3333435058594,394.66668701171875,364,279.3333435058594,225.33334350585938,199.33334350585938,153.33334350585938,132.6666717529297,84.66667175292969],"timestamp_mouse":[11,27,48,67,88,108,127,148,168,188,207,227,247,268,287,310,328,347,367,387,410,427,448,467,488,509,528,548,567,587,607,630,648,667,688,708,727,747,767,787,808,830],"xSR":350,"ySR":768,"xT1":30,"yT1":0,"xT2":670,"yT2":0,"toosoon":0,"cond_shown":"equaldotsize","ratio_trial":750,"smaller_num":"3","larger_num":"4","correct_side":1,"subjID":"4","gender":"No_gender","age":"No_age","school":"No_school"},{"start_time":1549309898301,"click_time":1549309899229,"finger_time":1549309898971,"fix_duration":250,"trial":8,"RT":670,"MT":258,"sideResp":1,"stimulus":"img/500/equaldotsize/L/11_Ratio_500_L_12_R_6.png","xmouse":[380.0000305175781,380.0000305175781,380.0000305175781,380.0000305175781,380.0000305175781,380.0000305175781,380.0000305175781,380.0000305175781,380.0000305175781,380.0000305175781,380.0000305175781,380.0000305175781,380.0000305175781,380.0000305175781,380.0000305175781,380.0000305175781,380.0000305175781,380.0000305175781,377.3333435058594,377.3333435058594,377.3333435058594,377.3333435058594,377.3333435058594,377.3333435058594,377.3333435058594,377.3333435058594,377.3333435058594,377.3333435058594,378.0000305175781,378.0000305175781,378.0000305175781,378.0000305175781,378.0000305175781,358,342,332.66668701171875,313.3333435058594,302.66668701171875,272,254,244,224,211.33334350585938,178,154,142,118.66667175292969],"ymouse":[826.6666870117188,826.6666870117188,826.6666870117188,826.6666870117188,826.6666870117188,826.6666870117188,826.6666870117188,826.6666870117188,822,822,822,822,822,822,822,822,822,822,816.6666870117188,816.6666870117188,816.6666870117188,816.6666870117188,816.6666870117188,816.6666870117188,816.6666870117188,816.6666870117188,816.6666870117188,816.6666870117188,819.3333740234375,819.3333740234375,819.3333740234375,819.3333740234375,819.3333740234375,755.3333740234375,711.3333740234375,688,638,609.3333740234375,510.66668701171875,434.66668701171875,396,328,290,200,146.6666717529297,124,87.33333587646484],"timestamp_mouse":[10,29,48,68,87,108,127,148,167,187,208,228,248,268,287,308,327,347,368,388,407,427,448,467,487,508,528,547,568,588,607,627,647,670,688,708,727,748,770,787,807,827,847,870,888,907,928],"xSR":350,"ySR":768,"xT1":30,"yT1":0,"xT2":670,"yT2":0,"toosoon":0,"cond_shown":"equaldotsize","ratio_trial":500,"smaller_num":"6","larger_num":"12","correct_side":1,"subjID":"4","gender":"No_gender","age":"No_age","school":"No_school"},{"start_time":1549309901035,"click_time":1549309901868,"finger_time":1549309901548,"fix_duration":482.25437576529526,"trial":9,"RT":513,"MT":320,"sideResp":2,"stimulus":"img/900/equaldotanddens/L/8_Ratio_900_L_20_R_18.png","xmouse":[388,388,388,388,388,388,388,388,388,388,388,388,388,388,388,388,388,388,388,384.66668701171875,385.3333435058594,385.3333435058594,385.3333435058594,408,415.3333435058594,436.66668701171875,448,486.66668701171875,515.3333740234375,530.6666870117188,560.6666870117188,574.6666870117188,614,635.3333740234375,646,661.3333740234375,666,687.3333740234375,691.3333740234375,700.6666870117188,704.6666870117188,710],"ymouse":[830,830,830,830,830,830,830,830,830,830,830,830,830,830,830,830,830,830,830,823.3333740234375,820.0000610351562,820.0000610351562,820.0000610351562,782,770.6666870117188,742,726,670.6666870117188,624,598,543.3333740234375,514,430.66668701171875,375.3333435058594,347.3333435058594,296.66668701171875,272.66668701171875,183.33334350585938,164,128.6666717529297,112,85.33333587646484],"timestamp_mouse":[14,34,54,73,93,113,134,154,174,193,213,234,254,273,294,313,334,354,373,394,413,433,453,474,494,513,533,555,574,594,613,634,656,673,693,713,733,756,774,794,813,833],"xSR":350,"ySR":768,"xT1":30,"yT1":0,"xT2":670,"yT2":0,"toosoon":0,"cond_shown":"equaldotanddens","ratio_trial":900,"smaller_num":"18","larger_num":"20","correct_side":1,"subjID":"4","gender":"No_gender","age":"No_age","school":"No_school"},{"start_time":1549309904420,"click_time":1549309905289,"finger_time":1549309904869,"fix_duration":550.6441061796182,"trial":10,"RT":449,"MT":420,"sideResp":1,"stimulus":"img/750/equaldotsize/L/6_Ratio_750_L_24_R_18.png","xmouse":[364,364,364,364,364,364,365.3333435058594,365.3333435058594,365.3333435058594,365.3333435058594,365.3333435058594,365.3333435058594,365.3333435058594,365.3333435058594,365.3333435058594,365.3333435058594,367.3333435058594,367.3333435058594,367.3333435058594,360,356,354,348.66668701171875,345.3333435058594,337.3333435058594,333.3333435058594,330.66668701171875,326,322.66668701171875,308.66668701171875,295.3333435058594,287.3333435058594,269.3333435058594,260,241.33334350585938,211.33334350585938,202,183.33334350585938,175.33334350585938,159.33334350585938,128,114,109.33333587646484],"ymouse":[829.3333740234375,829.3333740234375,829.3333740234375,829.3333740234375,829.3333740234375,829.3333740234375,828,828,828,828,828,828,828,828,828,828,824,824,824,806,790,780.6666870117188,758,742,690.6666870117188,656.6666870117188,640,604.6666870117188,587.3333740234375,532,496.66668701171875,476,437.3333435058594,419.3333435058594,378,315.3333435058594,294,253.33334350585938,234.6666717529297,198,136,110,98],"timestamp_mouse":[14,31,48,68,88,108,128,148,168,188,208,229,249,268,289,309,329,349,368,392,409,428,449,469,492,508,528,549,568,591,608,628,649,668,688,708,728,748,768,812,829,849,869],"xSR":350,"ySR":768,"xT1":30,"yT1":0,"xT2":670,"yT2":0,"toosoon":0,"cond_shown":"equaldotsize","ratio_trial":750,"smaller_num":"18","larger_num":"24","correct_side":1,"subjID":"4","gender":"No_gender","age":"No_age","school":"No_school"},{"start_time":1549309907053,"click_time":1549309908150,"finger_time":1549309907588,"fix_duration":483.0410539408856,"trial":11,"RT":535,"MT":562,"sideResp":1,"stimulus":"img/500/randomdotsizeEA/L/5_Ratio_500_L_4_R_2.png","xmouse":[398,398,398,398,398,398,398,398,398,398,398,398,398,398,398,398,398,399.3333435058594,399.3333435058594,399.3333435058594,399.3333435058594,399.3333435058594,399.3333435058594,399.3333435058594,393.3333435058594,392,392,392,392,392,391.3333435058594,391.3333435058594,389.3333435058594,386,384.66668701171875,381.3333435058594,380,374.66668701171875,372,354.66668701171875,335.3333435058594,324.66668701171875,302.66668701171875,280,257.3333435058594,234.6666717529297,225.33334350585938,206.6666717529297,195.33334350585938,164.6666717529297,143.33334350585938,133.33334350585938,113.33333587646484,106.66667175292969,84],"ymouse":[810,810,810,810,810,810,810,810,810,810,810,810,810,810,810,810,810,802,801.3333740234375,801.3333740234375,801.3333740234375,801.3333740234375,801.3333740234375,801.3333740234375,779.3333740234375,769.3333740234375,764,753.3333740234375,740,735.3333740234375,728,724,716.6666870117188,704.6666870117188,700.6666870117188,692,686.6666870117188,674,666.6666870117188,632,600,583.3333740234375,546.6666870117188,506.66668701171875,462,409.3333435058594,381.3333435058594,324,296,224.6666717529297,182,158.6666717529297,116,101.33333587646484,57.333335876464844],"timestamp_mouse":[27,35,55,75,95,115,136,156,176,196,215,235,255,276,295,315,335,355,375,396,415,435,455,475,495,516,535,555,577,595,616,636,655,677,696,716,735,755,775,796,815,835,855,876,896,915,935,955,975,997,1015,1036,1055,1075,1097],"xSR":350,"ySR":768,"xT1":30,"yT1":0,"xT2":670,"yT2":0,"toosoon":0,"cond_shown":"randomdotsizeEA","ratio_trial":500,"smaller_num":"2","larger_num":"4","correct_side":1,"subjID":"4","gender":"No_gender","age":"No_age","school":"No_school"},{"start_time":1549309910035,"click_time":1549309911029,"finger_time":1549309910529,"fix_duration":565.0882311041232,"trial":12,"RT":494,"MT":500,"sideResp":2,"stimulus":"img/900/equaldotsize/R/7_Ratio_900_L_9_R_10.png","xmouse":[397.3333435058594,397.3333435058594,397.3333435058594,397.3333435058594,397.3333435058594,391.3333435058594,391.3333435058594,391.3333435058594,391.3333435058594,390,389.3333435058594,389.3333435058594,389.3333435058594,389.3333435058594,388.66668701171875,388,388,387.3333435058594,387.3333435058594,387.3333435058594,386.66668701171875,387.3333435058594,387.3333435058594,387.3333435058594,389.3333435058594,395.3333435058594,398.66668701171875,409.3333435058594,416,430,434,443.3333435058594,450.66668701171875,455.3333435058594,465.3333435058594,471.3333435058594,494,516.6666870117188,528.6666870117188,558,603.3333740234375,616,641.3333740234375,652.6666870117188,668.6666870117188,692,700,714,719.3333740234375,732.6666870117188],"ymouse":[817.3333129882812,817.3333129882812,817.3333129882812,817.3333129882812,817.3333129882812,814,814,814,814,812.6666870117188,810.6666870117188,810,808,807.3333740234375,805.3333740234375,802,800.6666870117188,797.3333740234375,795.3333740234375,790.6666870117188,784.6666870117188,782,777.3333740234375,774,766,747.3333740234375,738,714.6666870117188,699.3333740234375,671.3333740234375,660,634,612,600.6666870117188,575.3333740234375,562,516,480.66668701171875,461.3333435058594,418.66668701171875,351.3333435058594,330.66668701171875,286.66668701171875,265.3333435058594,226.6666717529297,171.33334350585938,153.33334350585938,118.66667175292969,103.33333587646484,74.66667175292969],"timestamp_mouse":[14,34,54,74,94,113,134,154,173,193,214,234,254,273,293,314,333,354,373,393,416,436,453,473,494,516,534,553,573,594,614,634,653,674,694,713,735,753,773,793,815,833,854,873,894,916,934,953,973,994],"xSR":350,"ySR":768,"xT1":30,"yT1":0,"xT2":670,"yT2":0,"toosoon":0,"cond_shown":"equaldotsize","ratio_trial":900,"smaller_num":"9","larger_num":"10","correct_side":2,"subjID":"4","gender":"No_gender","age":"No_age","school":"No_school"},{"start_time":1549309913524,"click_time":1549309914393,"finger_time":1549309914028,"fix_duration":1194.3917827484242,"trial":13,"RT":504,"MT":365,"sideResp":2,"stimulus":"img/500/equaldotsize/R/1_Ratio_500_L_9_R_18.png","xmouse":[390,390,390,390,390,390,390,390,390,390,390,390,384,384,384,384,384,384,384,384.66668701171875,384.66668701171875,384.66668701171875,384.66668701171875,389.3333435058594,390.66668701171875,394.66668701171875,397.3333435058594,407.3333435058594,433.3333435058594,443.3333435058594,462.66668701171875,474,498.66668701171875,539.3333740234375,552.6666870117188,578.6666870117188,592.6666870117188,619.3333740234375,654.6666870117188,664,682.6666870117188,696,704.6666870117188,722.6666870117188],"ymouse":[812,812,812,812,812,812,812,812,812,812,812,812,808,807.3333129882812,807.3333129882812,807.3333129882812,807.3333129882812,807.3333129882812,807.3333129882812,800.6666870117188,800.6666870117188,800.6666870117188,800.6666870117188,775.3333129882812,769.3333740234375,757.3333740234375,750,728,679.3333740234375,661.3333740234375,624,603.3333740234375,560.6666870117188,488,462.66668701171875,414,386.66668701171875,337.3333435058594,259.3333435058594,233.33334350585938,183.33334350585938,135.33334350585938,111.33333587646484,50],"timestamp_mouse":[8,28,44,64,84,104,125,144,165,185,204,225,245,265,284,305,325,344,364,384,404,424,444,464,484,504,524,544,565,584,605,624,645,664,685,704,725,744,765,784,804,825,844,869],"xSR":350,"ySR":768,"xT1":30,"yT1":0,"xT2":670,"yT2":0,"toosoon":0,"cond_shown":"equaldotsize","ratio_trial":500,"smaller_num":"9","larger_num":"18","correct_side":2,"subjID":"4","gender":"No_gender","age":"No_age","school":"No_school"},{"start_time":1549309916531,"click_time":1549309917788,"finger_time":1549309917068,"fix_duration":1101.3813729184417,"trial":14,"RT":537,"MT":720,"sideResp":1,"stimulus":"img/500/randomdotsizeEA/L/8_Ratio_500_L_8_R_4.png","xmouse":[398,398,398.66668701171875,398.66668701171875,398.66668701171875,398.66668701171875,399.3333435058594,399.3333435058594,400,400,400,400,400,400,400,400,400,400,400,400,400,400,400,398.66668701171875,398,396,395.3333435058594,393.3333435058594,390,389.3333435058594,388.66668701171875,387.3333435058594,386.66668701171875,384.66668701171875,382.66668701171875,382,380,379.3333435058594,374.66668701171875,372,369.3333435058594,364,361.3333435058594,345.3333435058594,331.3333435058594,324.66668701171875,312,306,284.66668701171875,271.3333435058594,264,249.33334350585938,240,216.6666717529297,200.6666717529297,193.33334350585938,178,170.6666717529297,147.33334350585938,140,126.66667175292969,120,110.66667175292969],"ymouse":[812.6666870117188,812.6666870117188,812,812,812,811.3333740234375,810.6666870117188,810,809.3333740234375,809.3333740234375,808.6666870117188,808,808,806,805.3333740234375,803.3333740234375,802,799.3333740234375,796,794.6666870117188,791.3333740234375,790,786,778.6666870117188,776,770,766.6666870117188,759.3333740234375,748.6666870117188,745.3333740234375,741.3333740234375,734,730,719.3333740234375,712,708.6666870117188,700.6666870117188,696,681.3333740234375,670,661.3333740234375,644,636,597.3333740234375,564.6666870117188,548.6666870117188,516.6666870117188,500,446.66668701171875,411.3333435058594,394.66668701171875,359.3333435058594,341.3333435058594,289.3333435058594,254,237.33334350585938,206,190,147.33334350585938,134,110.66667175292969,100.66667175292969,86.66667175292969],"timestamp_mouse":[27,38,59,78,97,117,138,157,178,197,218,237,257,277,297,317,338,357,377,398,418,437,457,477,497,518,537,557,579,598,617,637,658,678,698,717,737,757,777,798,817,837,858,877,897,918,937,957,978,998,1018,1038,1058,1078,1097,1117,1137,1157,1178,1198,1217,1238,1257],"xSR":350,"ySR":768,"xT1":30,"yT1":0,"xT2":670,"yT2":0,"toosoon":0,"cond_shown":"randomdotsizeEA","ratio_trial":500,"smaller_num":"4","larger_num":"8","correct_side":1,"subjID":"4","gender":"No_gender","age":"No_age","school":"No_school"},{"start_time":1549309919624,"click_time":1549309920448,"finger_time":1549309920072,"fix_duration":874.813180453431,"trial":15,"RT":448,"MT":376,"sideResp":2,"stimulus":"img/250/equaldotanddens/R/10_Ratio_250_L_4_R_16.png","xmouse":[402,402,402,402,402,402,402,402,404,404,404,404,404,404,404,404,404,404,402,402,402,402,422.66668701171875,422.66668701171875,448.66668701171875,463.3333435058594,470,488,498,516.6666870117188,550.6666870117188,563.3333740234375,588.6666870117188,598,620,649.3333740234375,656,670.6666870117188,680.6666870117188,698.6666870117188,731.3333740234375,740.6666870117188],"ymouse":[784.6666870117188,784.6666870117188,784.6666870117188,784.6666870117188,784.6666870117188,784.6666870117188,784.6666870117188,784.6666870117188,792.6666870117188,792.6666870117188,792.6666870117188,792.6666870117188,792.6666870117188,792.6666870117188,792.6666870117188,792.6666870117188,792.6666870117188,792.6666870117188,789.3333740234375,789.3333740234375,789.3333740234375,789.3333740234375,754,754,720.6666870117188,698.6666870117188,686.6666870117188,658,642,604,536.6666870117188,512.6666870117188,462,439.3333435058594,389.3333435058594,315.3333435058594,292,244.66668701171875,221.33334350585938,174,112,94.66667175292969],"timestamp_mouse":[11,38,45,64,85,105,125,145,165,184,205,224,244,264,284,305,325,344,364,387,406,425,448,465,485,508,525,544,564,585,604,624,644,665,684,705,724,744,764,784,806,824],"xSR":350,"ySR":768,"xT1":30,"yT1":0,"xT2":670,"yT2":0,"toosoon":0,"cond_shown":"equaldotanddens","ratio_trial":250,"smaller_num":"4","larger_num":"16","correct_side":2,"subjID":"4","gender":"No_gender","age":"No_age","school":"No_school"},{"start_time":1549309921961,"click_time":1549309922788,"finger_time":1549309922488,"fix_duration":250,"trial":16,"RT":527,"MT":300,"sideResp":1,"stimulus":"img/250/equaldotsize/L/15_Ratio_250_L_12_R_3.png","xmouse":[396,396,396,396,396,396,396,396,396,396,396,396,396,396,396,396,396,396,392.66668701171875,392,392,392,392,382.66668701171875,373.3333435058594,362,355.3333435058594,341.3333435058594,328,324,316,310.66668701171875,293.3333435058594,282.66668701171875,246,217.33334350585938,203.33334350585938,178,164.6666717529297,132.6666717529297,116.66667175292969,110],"ymouse":[856,856,856,856,856,856,856,856,856,856,856,856,856,856,856,856,856,856,849.3333740234375,842.6666870117188,842.6666870117188,842.6666870117188,842.6666870117188,822,802.6666870117188,774,756.6666870117188,716.6666870117188,640,610.6666870117188,550,520,462.66668701171875,433.3333435058594,354,300,274.66668701171875,227.33334350585938,206,145.33334350585938,110.66667175292969,96],"timestamp_mouse":[9,30,48,68,87,107,127,148,167,188,207,227,247,267,287,308,327,347,368,389,407,427,447,467,487,508,527,547,582,587,607,627,648,667,688,707,728,747,768,791,808,827],"xSR":350,"ySR":768,"xT1":30,"yT1":0,"xT2":670,"yT2":0,"toosoon":0,"cond_shown":"equaldotsize","ratio_trial":250,"smaller_num":"3","larger_num":"12","correct_side":1,"subjID":"4","gender":"No_gender","age":"No_age","school":"No_school"},{"start_time":1549309925281,"click_time":1549309926008,"finger_time":1549309925728,"fix_duration":1191.1664026480016,"trial":17,"RT":447,"MT":280,"sideResp":2,"stimulus":"img/250/equaldotsize/R/10_Ratio_250_L_4_R_16.png","xmouse":[390.66668701171875,390.66668701171875,390.66668701171875,390.66668701171875,390.66668701171875,390.66668701171875,390.66668701171875,390.66668701171875,390.66668701171875,390.66668701171875,390.66668701171875,390.66668701171875,390.66668701171875,390.66668701171875,390.66668701171875,390.66668701171875,390.66668701171875,390.66668701171875,391.3333435058594,394,394,394,418,440,479.3333435058594,495.3333435058594,528,543.3333740234375,574.6666870117188,618.6666870117188,645.3333740234375,658,683.3333740234375,694,719.3333740234375,731.3333740234375,736],"ymouse":[822.6666870117188,822.6666870117188,822.6666870117188,822.6666870117188,822.6666870117188,822.6666870117188,822.6666870117188,822.6666870117188,822.6666870117188,822.6666870117188,822.6666870117188,822.6666870117188,822.6666870117188,822.6666870117188,822.6666870117188,822.6666870117188,822,821.3333740234375,819.3333740234375,808.6666870117188,808.6666870117188,808.6666870117188,755.3333740234375,717.3333740234375,648,621.3333740234375,562.6666870117188,532.6666870117188,470.66668701171875,380,321.3333435058594,292.66668701171875,236.6666717529297,210.6666717529297,137.33334350585938,100,83.33333587646484],"timestamp_mouse":[11,33,47,68,87,108,127,148,168,187,207,228,247,267,288,307,328,348,367,389,408,428,447,468,488,507,527,548,569,587,607,628,647,668,688,707,727],"xSR":350,"ySR":768,"xT1":30,"yT1":0,"xT2":670,"yT2":0,"toosoon":0,"cond_shown":"equaldotsize","ratio_trial":250,"smaller_num":"4","larger_num":"16","correct_side":2,"subjID":"4","gender":"No_gender","age":"No_age","school":"No_school"},{"start_time":1549309928702,"click_time":1549309929710,"finger_time":1549309929388,"fix_duration":1452.1732106493268,"trial":18,"RT":686,"MT":322,"sideResp":1,"stimulus":"img/900/randomdotsize/L/4_Ratio_900_L_20_R_18.png","xmouse":[392,392,392,392,392,392,392,392,392,392,392,392,392,392,392,392,392,392,392,392,392,392,392,392,392,392,390.66668701171875,388.66668701171875,388.66668701171875,388.66668701171875,388.66668701171875,388.66668701171875,374.66668701171875,372.66668701171875,362.66668701171875,350,341.3333435058594,323.3333435058594,314.66668701171875,286,265.3333435058594,254.6666717529297,232.6666717529297,220.6666717529297,186,162.6666717529297,151.33334350585938,130.6666717529297,120,102,77.33333587646484],"ymouse":[824,824,824,824,824,824,824,824,824,824,824,824,824,824,824,824,824,824,824,824,824,824,824,824,824,824,815.3333740234375,812.6666870117188,812.6666870117188,812.6666870117188,812.6666870117188,812.6666870117188,783.3333740234375,777.3333740234375,754,725.3333740234375,707.3333740234375,667.3333740234375,646,572.6666870117188,518,488.66668701171875,429.3333435058594,399.3333435058594,314.66668701171875,256,227.33334350585938,174,148.6666717529297,106.66667175292969,59.333335876464844],"timestamp_mouse":[9,31,46,67,87,107,126,146,167,187,207,226,246,267,287,306,327,347,367,387,407,427,446,466,486,506,527,547,566,587,607,626,646,666,686,707,726,746,766,788,806,826,846,867,889,906,927,947,967,987,1008],"xSR":350,"ySR":768,"xT1":30,"yT1":0,"xT2":670,"yT2":0,"toosoon":0,"cond_shown":"randomdotsize","ratio_trial":900,"smaller_num":"18","larger_num":"20","correct_side":1,"subjID":"4","gender":"No_gender","age":"No_age","school":"No_school"},{"start_time":1549309931539,"click_time":1549309932529,"finger_time":1549309932108,"fix_duration":529.9845460826141,"trial":19,"RT":569,"MT":421,"sideResp":2,"stimulus":"img/750/equaldotanddens/R/12_Ratio_750_L_3_R_4.png","xmouse":[416,416,416,416,416,416,416,416,416,416,416,416,416,416,416,416,416,416,416,416,416,416,416,416,416,424.66668701171875,432,432,471.3333435058594,487.3333435058594,494,511.3333435058594,519.3333740234375,546.6666870117188,562,568.6666870117188,580,586,601.3333740234375,610,623.3333740234375,628.6666870117188,641.3333740234375,648.6666870117188,666.6666870117188,681.3333740234375,687.3333740234375,702,708,719.3333740234375],"ymouse":[800,800,800,800,800,800,800,800,800,800,800,800,800,800,800,800,800,800,800,800,800,800,800,800,800,789.3333740234375,778,778,719.3333740234375,692.6666870117188,679.3333740234375,648.6666870117188,632,580.6666870117188,549.3333740234375,535.3333740234375,504.66668701171875,488.66668701171875,443.3333435058594,412,377.3333435058594,358.66668701171875,318.66668701171875,298.66668701171875,235.33334350585938,191.33334350585938,170,129.33334350585938,111.33333587646484,72],"timestamp_mouse":[10,31,50,70,89,109,129,150,170,189,210,229,249,270,289,309,330,350,370,389,410,429,450,470,490,510,529,549,569,590,609,630,650,671,690,709,729,749,771,790,809,829,849,869,890,910,930,950,970,989],"xSR":350,"ySR":768,"xT1":30,"yT1":0,"xT2":670,"yT2":0,"toosoon":0,"cond_shown":"equaldotanddens","ratio_trial":750,"smaller_num":"3","larger_num":"4","correct_side":2,"subjID":"4","gender":"No_gender","age":"No_age","school":"No_school"},{"start_time":1549309934148,"click_time":1549309935189,"finger_time":1549309934868,"fix_duration":338.47181432427163,"trial":20,"RT":720,"MT":321,"sideResp":2,"stimulus":"img/900/randomdotsizeEA/L/8_Ratio_900_L_20_R_18.png","xmouse":[398,398,398,398,398,398,398,398,398,398,398,398,398,398,398,398,398,398,398,398,398,398,392.6666564941406,392.66668701171875,392.66668701171875,392.66668701171875,392.66668701171875,392.66668701171875,392.66668701171875,378.66668701171875,377.3333435058594,376.66668701171875,377.3333435058594,377.3333435058594,383.3333435058594,396.66668701171875,408,436.66668701171875,452.66668701171875,506.66668701171875,538.6666870117188,553.3333740234375,578.6666870117188,590,616,632.6666870117188,640,656,663.3333740234375,684.6666870117188,697.3333740234375,704,713.3333740234375],"ymouse":[857,857,857,857,857,857,857,857,857,857,857,857,857,857,857,857,857,857,857,857,857,857,850,849.3333740234375,849.3333740234375,849.3333740234375,849.3333740234375,849.3333740234375,849.3333740234375,817.3333740234375,812.6666870117188,810.6666870117188,806.6666870117188,804.6666870117188,792,770.6666870117188,754,716.6666870117188,695.3333740234375,620.6666870117188,565.3333740234375,536.6666870117188,481.3333435058594,453.3333435058594,377.3333435058594,327.3333435058594,302,255.33334350585938,232.6666717529297,167.33334350585938,126,107.33333587646484,75.33333587646484],"timestamp_mouse":[2,28,40,60,81,101,121,140,161,181,200,221,240,260,280,300,320,341,361,381,401,420,441,461,482,501,520,540,561,580,601,620,640,660,681,700,720,741,760,784,800,820,840,861,881,900,921,940,960,982,1000,1020,1041],"xSR":350,"ySR":768,"xT1":30,"yT1":0,"xT2":670,"yT2":0,"toosoon":0,"cond_shown":"randomdotsizeEA","ratio_trial":900,"smaller_num":"18","larger_num":"20","correct_side":1,"subjID":"4","gender":"No_gender","age":"No_age","school":"No_school"},{"start_time":1549309937180,"click_time":1549309938028,"finger_time":1549309937689,"fix_duration":250,"trial":21,"RT":509,"MT":339,"sideResp":1,"stimulus":"img/250/randomdotsizeEA/L/7_Ratio_250_L_8_R_2.png","xmouse":[396,396,396,396,396,396,396,396,396,396,396,396,396,396,396,396,396,396,396,390.6666564941406,389.3333435058594,389.3333435058594,389.3333435058594,389.3333435058594,389.3333435058594,364.66668701171875,356.66668701171875,336.0000305175781,309.3333435058594,301.3333435058594,284.6667175292969,277.3333435058594,259.3333435058594,229.3333282470703,218,197.3333282470703,187.3333282470703,170,148,140.6666717529297,130.6666717529297,126.00000762939453,120.66667175292969],"ymouse":[826,826,826,826,826,826,826,826,826,826,826,826,826,826,826,826,826,826,826,818.6666870117188,815.3333129882812,815.3333129882812,815.3333129882812,815.3333129882812,815.3333129882812,766.6666870117188,751.3333740234375,714,648.6666870117188,623.3333740234375,568,538,478,393.3333435058594,362.66668701171875,306.66668701171875,280.66668701171875,228.6666717529297,166,149.33334350585938,121.33334350585938,109.33333587646484,96],"timestamp_mouse":[10,31,49,69,88,108,129,149,169,188,209,229,248,268,288,308,328,348,369,388,408,429,448,469,489,509,528,549,570,589,609,629,649,669,690,708,729,748,770,788,808,829,848],"xSR":350,"ySR":768,"xT1":30,"yT1":0,"xT2":670,"yT2":0,"toosoon":0,"cond_shown":"randomdotsizeEA","ratio_trial":250,"smaller_num":"2","larger_num":"8","correct_side":1,"subjID":"4","gender":"No_gender","age":"No_age","school":"No_school"},{"start_time":1549309939600,"click_time":1549309940349,"finger_time":1549309940149,"fix_duration":250,"trial":22,"RT":549,"MT":200,"sideResp":1,"stimulus":"img/250/randomdotsize/L/1_Ratio_250_L_8_R_2.png","xmouse":[400,400,400,400,400,400,400,400,400,400,400,400,400,400,400,400,400,400,400,400,400,400,400,400,392.66668701171875,385.3333435058594,385.3333435058594,365.3333435058594,340.66668701171875,331.3333435058594,312.6667175292969,302.0000305175781,273.3333435058594,218.6666717529297,202.6666717529297,167.3333282470703,150,120.00000762939453],"ymouse":[836,836,836,836,836,836,836,836,836,836,836,836,836,836,836,836,836,836,836,836,836,836,836,836,827.3333740234375,815.3333740234375,815.3333740234375,762.6666870117188,670,629.3333740234375,538,489.3333435058594,390.66668701171875,254,218,148.6666717529297,116.66667175292969,69.33333587646484],"timestamp_mouse":[12,28,49,69,88,108,128,149,168,189,209,228,248,268,288,308,329,348,368,389,408,429,449,468,488,508,529,549,569,589,609,628,649,670,688,709,728,749],"xSR":350,"ySR":768,"xT1":30,"yT1":0,"xT2":670,"yT2":0,"toosoon":0,"cond_shown":"randomdotsize","ratio_trial":250,"smaller_num":"2","larger_num":"8","correct_side":1,"subjID":"4","gender":"No_gender","age":"No_age","school":"No_school"},{"start_time":1549309942537,"click_time":1549309943368,"finger_time":1549309943108,"fix_duration":1025.84884429886,"trial":23,"RT":571,"MT":260,"sideResp":1,"stimulus":"img/500/randomdotsize/L/10_Ratio_500_L_4_R_2.png","xmouse":[401,401,401,401,401,401,401,401,401,401,401,401,401,401,401,401,401,401,401,401,401,401,401,401,401,401,393.3333435058594,372,360.66668701171875,360.66668701171875,322,294.66668701171875,251.33334350585938,235.33334350585938,200.6666717529297,182,148.6666717529297,100.66667175292969,86.66667175292969,62.66667175292969,52.66666793823242,44],"ymouse":[815,815,815,815,815,815,815,815,815,815,815,815,815,815,815,815,815,815,815,815,815,815,815,815,815,815,809.3333740234375,783.3333740234375,767.3333740234375,767.3333740234375,706,652,550.6666870117188,511.3333740234375,434.66668701171875,394.66668701171875,322,225.33334350585938,193.33334350585938,133.33334350585938,107.33333587646484,66.66667175292969],"timestamp_mouse":[12,32,52,71,91,112,131,151,172,191,211,232,252,272,291,311,332,352,371,392,411,431,452,471,491,512,531,552,571,592,612,631,652,672,692,712,731,752,772,791,812,831],"xSR":350,"ySR":768,"xT1":30,"yT1":0,"xT2":670,"yT2":0,"toosoon":0,"cond_shown":"randomdotsize","ratio_trial":500,"smaller_num":"2","larger_num":"4","correct_side":1,"subjID":"4","gender":"No_gender","age":"No_age","school":"No_school"},{"start_time":1549309945359,"click_time":1549309946088,"finger_time":1549309945889,"fix_duration":1069.2601563338671,"trial":24,"RT":530,"MT":199,"sideResp":1,"stimulus":"img/250/randomdotsize/L/14_Ratio_250_L_12_R_3.png","xmouse":[398,398,398,398,398,398,398.66668701171875,398.66668701171875,398.66668701171875,398.66668701171875,398.66668701171875,399.3333435058594,399.3333435058594,399.3333435058594,399.3333435058594,399.3333435058594,399.3333435058594,398.66668701171875,398.66668701171875,398.66668701171875,398,398,398,398,398,398,362,318,287.3333435058594,270,234,217.33334350585938,176.6666717529297,154.6666717529297,143.33334350585938,120.66667175292969,108.66667175292969],"ymouse":[790,790,790.6666870117188,791.3333740234375,791.3333740234375,791.3333740234375,791.3333740234375,792,792,792,792,792,792.6666870117188,792.6666870117188,793.3333740234375,793.3333740234375,793.3333740234375,793.3333740234375,792.6666870117188,792.6666870117188,791.3333740234375,791.3333740234375,791.3333740234375,791.3333740234375,791.3333740234375,791.3333740234375,736.6666870117188,654,592,560.6666870117188,489.3333435058594,450,320,238.6666717529297,196.6666717529297,126.66667175292969,96],"timestamp_mouse":[11,29,49,70,89,110,129,150,169,190,209,229,249,270,290,310,329,350,369,390,409,430,449,470,489,510,530,550,569,589,609,630,649,669,690,709,729],"xSR":350,"ySR":768,"xT1":30,"yT1":0,"xT2":670,"yT2":0,"toosoon":0,"cond_shown":"randomdotsize","ratio_trial":250,"smaller_num":"3","larger_num":"12","correct_side":1,"subjID":"4","gender":"No_gender","age":"No_age","school":"No_school"},{"start_time":1549309948320,"click_time":1549309949009,"finger_time":1549309948809,"fix_duration":1170.026398342568,"trial":25,"RT":489,"MT":200,"sideResp":1,"stimulus":"img/500/equaldotanddens/L/11_Ratio_500_L_12_R_6.png","xmouse":[407.3333435058594,407.3333435058594,407.3333435058594,407.3333435058594,407.3333435058594,407.3333435058594,407.3333435058594,407.3333435058594,407.3333435058594,407.3333435058594,407.3333435058594,406.66668701171875,406.66668701171875,406.66668701171875,406.66668701171875,406.66668701171875,406.66668701171875,406.66668701171875,406.66668701171875,406.66668701171875,406.66668701171875,402,397.3333435058594,390,368.66668701171875,320.66668701171875,303.3333435058594,270.66668701171875,256.66668701171875,226.6666717529297,180,162,130.6666717529297,116,91.33333587646484],"ymouse":[821.3333740234375,821.3333740234375,820,820,820,820,820,820,820,820,820,818,818,818,818,818,818,818,818,818,818,809.3333740234375,798,785.3333740234375,751.3333740234375,674.6666870117188,640,556.6666870117188,506.66668701171875,405.3333435058594,268,224,156.6666717529297,129.33334350585938,82.66667175292969],"timestamp_mouse":[12,29,48,68,88,108,128,149,181,188,208,228,248,269,289,309,328,349,369,388,410,432,448,468,489,508,528,548,568,588,609,629,649,669,689],"xSR":350,"ySR":768,"xT1":30,"yT1":0,"xT2":670,"yT2":0,"toosoon":0,"cond_shown":"equaldotanddens","ratio_trial":500,"smaller_num":"6","larger_num":"12","correct_side":1,"subjID":"4","gender":"No_gender","age":"No_age","school":"No_school"},{"start_time":1549309951060,"click_time":1549309951749,"finger_time":1549309951548,"fix_duration":1491.1584665624755,"trial":26,"RT":488,"MT":201,"sideResp":1,"stimulus":"img/250/randomdotsizeEA/L/5_Ratio_250_L_24_R_6.png","xmouse":[366,366,366,366,366,366,366,367.3333435058594,367.3333435058594,367.3333435058594,367.3333435058594,367.3333435058594,367.3333435058594,367.3333435058594,367.3333435058594,367.3333435058594,367.3333435058594,366,366,366,363.3333435058594,362.66668701171875,362,360,352,345.3333435058594,327.3333435058594,316,290.66668701171875,244,226,190,172.6666717529297,141.33334350585938,110.66667175292969],"ymouse":[806.6666870117188,806.6666870117188,806.6666870117188,806.6666870117188,806.6666870117188,806.6666870117188,806.6666870117188,808.0000610351562,808.0000610351562,808.0000610351562,808.0000610351562,808.0000610351562,808.0000610351562,808.0000610351562,808.0000610351562,808.0000610351562,808.0000610351562,804.6666870117188,804.6666870117188,804.6666870117188,798.6666870117188,793.3333740234375,790,778.6666870117188,740,717.3333740234375,662,630,555.3333740234375,426.66668701171875,380.66668701171875,284,237.33334350585938,148.6666717529297,27.333335876464844],"timestamp_mouse":[10,33,48,68,88,108,129,149,169,188,208,228,248,268,289,309,329,348,369,389,410,429,448,469,488,508,529,549,569,589,608,628,649,669,689],"xSR":350,"ySR":768,"xT1":30,"yT1":0,"xT2":670,"yT2":0,"toosoon":0,"cond_shown":"randomdotsizeEA","ratio_trial":250,"smaller_num":"6","larger_num":"24","correct_side":1,"subjID":"4","gender":"No_gender","age":"No_age","school":"No_school"},{"start_time":1549309953844,"click_time":1549309954588,"finger_time":1549309954428,"fix_duration":1415.5423848044948,"trial":27,"RT":584,"MT":160,"sideResp":1,"stimulus":"img/500/randomdotsize/L/13_Ratio_500_L_12_R_6.png","xmouse":[420,420,420,420,420,418,418,418,418,418,418,418,418,418,418,417.3333435058594,417.3333435058594,417.3333435058594,417.3333435058594,417.3333435058594,417.3333435058594,417.3333435058594,417.3333435058594,417.3333435058594,417.3333435058594,415.3333435058594,406.66668701171875,393.3333435058594,382.66668701171875,360.66668701171875,347.3333435058594,300.66668701171875,266,247.33334350585938,210,189.33334350585938,134.6666717529297,111.33333587646484],"ymouse":[853.3333740234375,853.3333740234375,853.3333740234375,853.3333740234375,853.3333740234375,850.6666870117188,850.6666870117188,850.6666870117188,850.6666870117188,850.6666870117188,850.6666870117188,850.6666870117188,850.6666870117188,850.6666870117188,850.6666870117188,850.0000610351562,850.0000610351562,850.0000610351562,850.0000610351562,850.0000610351562,850.0000610351562,850.0000610351562,850.0000610351562,850.0000610351562,850.0000610351562,845.3333740234375,830,800.6666870117188,778.6666870117188,726,695.3333740234375,579.3333740234375,485.3333435058594,434.66668701171875,327.3333435058594,272.66668701171875,130.6666717529297,42],"timestamp_mouse":[5,28,44,64,84,105,124,145,164,184,204,224,244,264,284,304,324,345,364,384,404,425,444,464,485,505,524,545,564,584,604,625,644,664,684,705,725,744],"xSR":350,"ySR":768,"xT1":30,"yT1":0,"xT2":670,"yT2":0,"toosoon":0,"cond_shown":"randomdotsize","ratio_trial":500,"smaller_num":"6","larger_num":"12","correct_side":1,"subjID":"4","gender":"No_gender","age":"No_age","school":"No_school"},{"start_time":1549309956453,"click_time":1549309957490,"finger_time":1549309957128,"fix_duration":723.1014588629384,"trial":28,"RT":675,"MT":362,"sideResp":1,"stimulus":"img/900/randomdotsizeEA/R/14_Ratio_900_L_18_R_20.png","xmouse":[415.3333435058594,415.3333435058594,415.3333435058594,415.3333435058594,415.3333435058594,415.3333435058594,415.3333435058594,415.3333435058594,415.3333435058594,415.3333435058594,415.3333435058594,415.3333435058594,415.3333435058594,415.3333435058594,415.3333435058594,415.3333435058594,415.3333435058594,415.3333435058594,415.3333435058594,415.3333435058594,415.3333435058594,416,416,416,416,416,416,416,416,416,416,431.3333435058594,434.66668701171875,456,482,497.3333435058594,537.3333740234375,543.3333740234375,540.6666870117188,540.6666870117188,506,438.66668701171875,381.3333435058594,354.66668701171875,306.66668701171875,286,239.33334350585938,210.6666717529297,194.6666717529297,158,138,90],"ymouse":[836.6666870117188,836.6666870117188,836.6666870117188,836.6666870117188,836.6666870117188,837.3333740234375,837.3333740234375,837.3333740234375,838,838,838,838,838,838.6666870117188,838.6666870117188,838.6666870117188,838.6666870117188,838.6666870117188,838,837.3333740234375,837.3333740234375,836,836,836,836,836,836,836,836,836,836,787.3333740234375,778.6666870117188,730,674.6666870117188,643.3333740234375,548,496,476,476,437.3333435058594,428.66668701171875,428.66668701171875,427.3333435058594,413.3333435058594,397.3333435058594,316.66668701171875,244,206.6666717529297,136,101.33333587646484,11.333333969116211],"timestamp_mouse":[15,36,55,76,95,115,135,155,176,196,215,236,256,275,296,315,335,356,375,397,415,436,455,475,495,515,537,555,575,595,615,635,656,675,696,715,735,756,775,796,815,838,856,876,895,915,936,956,975,995,1016,1037],"xSR":350,"ySR":768,"xT1":30,"yT1":0,"xT2":670,"yT2":0,"toosoon":0,"cond_shown":"randomdotsizeEA","ratio_trial":900,"smaller_num":"18","larger_num":"20","correct_side":2,"subjID":"4","gender":"No_gender","age":"No_age","school":"No_school"},{"start_time":1549309959563,"click_time":1549309960169,"finger_time":1549309959828,"fix_duration":250,"trial":29,"RT":265,"MT":341,"sideResp":2,"stimulus":"img/250/equaldotsize/R/11_Ratio_250_L_3_R_12.png","xmouse":[416.66668701171875,416.66668701171875,416,415.3333435058594,415.3333435058594,414.66668701171875,414.66668701171875,414.66668701171875,414,412.66668701171875,410.66668701171875,410,406,402.66668701171875,400.66668701171875,396.66668701171875,391.3333435058594,371.3333435058594,360,356,354,356,362,380.66668701171875,393.3333435058594,432.66668701171875,459.3333435058594,557.3333740234375,614,638,681.3333740234375],"ymouse":[838,837.3333740234375,836.6666870117188,836,835.3333740234375,834.6666870117188,833.3333740234375,830.6666870117188,828.6666870117188,824,813.3333740234375,806.6666870117188,782.6666870117188,758.6666870117188,742,704,683.3333740234375,605.3333740234375,544.6666870117188,514,451.3333435058594,420.66668701171875,368.66668701171875,298,279.3333435058594,239.33334350585938,220.6666717529297,172.6666717529297,143.33334350585938,127.33334350585938,90.66667175292969],"timestamp_mouse":[7,30,46,65,86,105,125,145,165,186,205,226,245,265,286,305,325,346,365,385,405,425,446,466,486,505,526,546,565,585,606],"xSR":350,"ySR":768,"xT1":30,"yT1":0,"xT2":670,"yT2":0,"toosoon":0,"cond_shown":"equaldotsize","ratio_trial":250,"smaller_num":"3","larger_num":"12","correct_side":2,"subjID":"4","gender":"No_gender","age":"No_age","school":"No_school"},{"start_time":1549309962031,"click_time":1549309962831,"finger_time":1549309962588,"fix_duration":460.6865908907969,"trial":30,"RT":557,"MT":243,"sideResp":1,"stimulus":"img/900/randomdotsizeEA/R/14_Ratio_900_L_18_R_20.png","xmouse":[399.3333435058594,399.3333435058594,399.3333435058594,399.3333435058594,399.3333435058594,399.3333435058594,399.3333435058594,399.3333435058594,401.3333435058594,401.3333435058594,401.3333435058594,401.3333435058594,401.3333435058594,401.3333435058594,401.3333435058594,401.3333435058594,401.3333435058594,401.3333435058594,404,404,404,404,404,404,404,404,399.3333435058594,392,372.66668701171875,336,322,294,279.3333435058594,248.66668701171875,200.6666717529297,182.6666717529297,150,134,108.66667175292969,89.33333587646484],"ymouse":[820.6666870117188,820.6666870117188,820.6666870117188,820.6666870117188,820.6666870117188,820.6666870117188,820.6666870117188,820.6666870117188,824.0000610351562,824.0000610351562,824.0000610351562,824.0000610351562,824.0000610351562,824.0000610351562,824.0000610351562,824.0000610351562,824.0000610351562,824.0000610351562,825.3333740234375,825.3333740234375,825.3333740234375,825.3333740234375,825.3333740234375,811.3333740234375,796,790,768,752,716.6666870117188,646.6666870117188,618.6666870117188,551.3333740234375,514,435.3333435058594,319.3333435058594,278.66668701171875,209.33334350585938,178,118,52],"timestamp_mouse":[17,38,57,78,98,118,137,157,177,198,218,237,258,278,297,317,337,358,377,398,417,438,458,478,497,517,537,557,577,597,618,638,658,677,698,717,738,757,778,800],"xSR":350,"ySR":768,"xT1":30,"yT1":0,"xT2":670,"yT2":0,"toosoon":0,"cond_shown":"randomdotsizeEA","ratio_trial":900,"smaller_num":"18","larger_num":"20","correct_side":2,"subjID":"4","gender":"No_gender","age":"No_age","school":"No_school"},{"start_time":1549309964712,"click_time":1549309965529,"finger_time":1549309965228,"fix_duration":662.4897455149296,"trial":31,"RT":516,"MT":301,"sideResp":1,"stimulus":"img/900/randomdotsizeEA/L/1_Ratio_900_L_10_R_9.png","xmouse":[398,398,398,398,398,398,398,398,398,398,398,398,398,398,398,398,398,398,398,398,398,398,400,400.66668701171875,403.3333435058594,404,398,384,374.66668701171875,354.66668701171875,343.3333435058594,307.3333435058594,280.66668701171875,268.66668701171875,242,226.6666717529297,189.33334350585938,164.6666717529297,142,134.6666717529297,126.66667175292969],"ymouse":[800,800,800,800,800,800,800,800,800,800,800,800,800,800,800,800,800,800,800,800,800,800,788.6666870117188,783.3333740234375,769.3333740234375,762,722,682.6666870117188,662.6666870117188,621.3333740234375,597.3333740234375,514.6666870117188,452.66668701171875,421.3333435058594,357.3333435058594,322.66668701171875,228.6666717529297,170,122.66667175292969,105.33333587646484,93.33333587646484],"timestamp_mouse":[17,37,56,77,97,117,136,156,176,196,217,237,256,276,296,316,337,356,377,396,416,436,456,477,497,516,537,556,576,596,617,637,656,676,696,716,737,756,776,796,817],"xSR":350,"ySR":768,"xT1":30,"yT1":0,"xT2":670,"yT2":0,"toosoon":0,"cond_shown":"randomdotsizeEA","ratio_trial":900,"smaller_num":"9","larger_num":"10","correct_side":1,"subjID":"4","gender":"No_gender","age":"No_age","school":"No_school"},{"start_time":1549309968208,"click_time":1549309968829,"finger_time":1549309968628,"fix_duration":1435.823820423611,"trial":32,"RT":420,"MT":201,"sideResp":1,"stimulus":"img/250/equaldotanddens/L/15_Ratio_250_L_12_R_3.png","xmouse":[431,431,431,431,431,431,431,431,431,431,431,431,431,431,431,431,426,426,426,424,421.3333435058594,415.3333435058594,395.3333435058594,353.3333435058594,337.3333435058594,300.66668701171875,260,238.6666717529297,175.33334350585938,138.6666717529297,123.33334350585938,106],"ymouse":[838,838,838,838,838,838,838,838,838,838,838,838,838,838,838,838,830.6666870117188,827.3333129882812,827.3333129882812,787.3333740234375,773.3333740234375,754,706.6666870117188,616,580.6666870117188,501.3333740234375,416,372,250,175.33334350585938,140.6666717529297,90.66667175292969],"timestamp_mouse":[1,26,40,61,80,100,121,141,160,181,201,220,240,261,280,300,321,341,362,381,400,420,441,461,480,501,520,540,561,580,601,620],"xSR":350,"ySR":768,"xT1":30,"yT1":0,"xT2":670,"yT2":0,"toosoon":0,"cond_shown":"equaldotanddens","ratio_trial":250,"smaller_num":"3","larger_num":"12","correct_side":1,"subjID":"4","gender":"No_gender","age":"No_age","school":"No_school"},{"start_time":1549309971259,"click_time":1549309972009,"finger_time":1549309971790,"fix_duration":1249.5423527659357,"trial":33,"RT":531,"MT":219,"sideResp":1,"stimulus":"img/500/equaldotanddens/L/10_Ratio_500_L_4_R_2.png","xmouse":[409.3333435058594,409.3333435058594,409.3333435058594,409.3333435058594,409.3333435058594,409.3333435058594,409.3333435058594,409.3333435058594,409.3333435058594,409.3333435058594,409.3333435058594,408,408,408,408,408,408,408,408,408,408,405.3333435058594,405.3333435058594,405.3333435058594,398,395.3333435058594,376,354.66668701171875,343.3333435058594,320,305.3333435058594,254,215.33334350585938,194.6666717529297,158.6666717529297,142,105.33333587646484,95.33333587646484],"ymouse":[864.6666870117188,864,864,864,864,864,864,864,864,864,864,863.3333740234375,863.3333740234375,863.3333740234375,863.3333740234375,863.3333740234375,863.3333740234375,863.3333740234375,863.3333740234375,863.3333740234375,863.3333740234375,860.6666870117188,860.6666870117188,860.6666870117188,816.6666870117188,795.3333740234375,728.6666870117188,672,640.6666870117188,566.6666870117188,528.6666870117188,414.66668701171875,338,298,224.6666717529297,190.6666717529297,108,82],"timestamp_mouse":[11,30,49,69,90,110,130,150,169,190,209,229,250,269,289,309,330,350,370,390,410,430,449,470,489,510,531,550,570,589,609,631,649,669,690,710,731,750],"xSR":350,"ySR":768,"xT1":30,"yT1":0,"xT2":670,"yT2":0,"toosoon":0,"cond_shown":"equaldotanddens","ratio_trial":500,"smaller_num":"2","larger_num":"4","correct_side":1,"subjID":"4","gender":"No_gender","age":"No_age","school":"No_school"},{"start_time":1549309974300,"click_time":1549309975069,"finger_time":1549309974768,"fix_duration":1224.2149007314192,"trial":34,"RT":468,"MT":301,"sideResp":2,"stimulus":"img/900/equaldotsize/R/3_Ratio_900_L_9_R_10.png","xmouse":[394,393.3333435058594,393.3333435058594,394,394,394,394,394,394,394,394,394,394,392.6666564941406,392.6666564941406,392.6666564941406,392.6666564941406,392.6666564941406,392.6666564941406,392.6666564941406,392.6666564941406,392.6666564941406,392.6666564941406,380.6666564941406,383.3333435058594,383.3333435058594,442.66668701171875,462,507.3333435058594,532,598.6666870117188,632,642.6666870117188,662,669.3333740234375,686.6666870117188,694,698.6666870117188,706],"ymouse":[828.6666870117188,828.6666870117188,828.6666870117188,828.6666870117188,828.6666870117188,828.6666870117188,828.6666870117188,828.6666870117188,828.6666870117188,828.6666870117188,828.6666870117188,828.6666870117188,828.6666870117188,825.3333740234375,825.3333740234375,825.3333740234375,825.3333740234375,825.3333740234375,825.3333740234375,825.3333740234375,825.3333740234375,825.3333740234375,825.3333740234375,740,722.6666870117188,722.6666870117188,624,600,550,522.6666870117188,435.3333435058594,378.66668701171875,352.66668701171875,296.66668701171875,269.3333435058594,190,140,118,81.33333587646484],"timestamp_mouse":[11,30,49,69,88,108,129,148,168,188,208,228,248,269,289,308,329,349,369,388,408,429,448,468,488,509,529,548,568,589,611,629,649,668,689,711,729,748,769],"xSR":350,"ySR":768,"xT1":30,"yT1":0,"xT2":670,"yT2":0,"toosoon":0,"cond_shown":"equaldotsize","ratio_trial":900,"smaller_num":"9","larger_num":"10","correct_side":2,"subjID":"4","gender":"No_gender","age":"No_age","school":"No_school"},{"start_time":1549309976520,"click_time":1549309977369,"finger_time":1549309977108,"fix_duration":250,"trial":35,"RT":588,"MT":261,"sideResp":2,"stimulus":"img/500/equaldotsize/R/15_Ratio_500_L_1_R_2.png","xmouse":[398,398,398,398,398,398,398,398,398,398,398,398,398,398,398,398,398,398,398,398,398,398,398,398,398,398,398,420,420,467.3333435058594,478.66668701171875,506.66668701171875,526,536,556,588.6666870117188,600,622,633.3333740234375,658,694.6666870117188,708,734.6666870117188],"ymouse":[798,798,798,798,798,798,798,798,798,798,798,798,798,798,798,798,798,798,798,798,798,798,798,798,798,798,798,770.6666870117188,770.6666870117188,722,708,666.6666870117188,632.6666870117188,613.3333740234375,566.6666870117188,481.3333435058594,450.66668701171875,383.3333435058594,349.3333435058594,280,172,137.33334350585938,74],"timestamp_mouse":[11,35,48,69,89,109,128,148,169,188,208,228,249,268,288,309,329,349,368,389,408,428,449,468,488,508,528,548,569,588,608,628,649,668,688,709,728,748,768,789,810,828,849],"xSR":350,"ySR":768,"xT1":30,"yT1":0,"xT2":670,"yT2":0,"toosoon":0,"cond_shown":"equaldotsize","ratio_trial":500,"smaller_num":"1","larger_num":"2","correct_side":2,"subjID":"4","gender":"No_gender","age":"No_age","school":"No_school"},{"start_time":1549309979120,"click_time":1549309980029,"finger_time":1549309979788,"fix_duration":250,"trial":36,"RT":668,"MT":241,"sideResp":1,"stimulus":"img/750/equaldotsize/R/5_Ratio_750_L_15_R_20.png","xmouse":[418,418,418,418,412,411.3333435058594,411.3333435058594,411.3333435058594,411.3333435058594,411.3333435058594,411.3333435058594,411.3333435058594,411.3333435058594,411.3333435058594,411.3333435058594,411.3333435058594,411.3333435058594,411.3333435058594,411.3333435058594,411.3333435058594,411.3333435058594,411.3333435058594,411.3333435058594,411.3333435058594,411.3333435058594,412,412,412,412,412,412,412,412,367.3333435058594,357.3333435058594,338.66668701171875,307.3333435058594,296,270.66668701171875,258.66668701171875,232,189.33334350585938,175.33334350585938,148.6666717529297,136.6666717529297,115.33333587646484],"ymouse":[840,840,840,840,836,836,836,836,836,836,836,836,836,836,836,835.3333129882812,835.3333129882812,835.3333129882812,835.3333129882812,835.3333129882812,835.3333129882812,835.3333129882812,835.3333129882812,835.3333129882812,835.3333129882812,833.3333129882812,833.3333129882812,833.3333129882812,833.3333129882812,833.3333129882812,833.3333129882812,833.3333129882812,833.3333129882812,714,691.3333740234375,637.3333740234375,542.6666870117188,507.3333740234375,432,399.3333435058594,328.66668701171875,229.33334350585938,199.33334350585938,146,124,87.33333587646484],"timestamp_mouse":[10,28,48,69,88,108,128,148,169,188,208,228,248,269,289,308,328,349,368,389,409,429,449,468,488,508,528,549,568,589,608,628,648,668,688,709,730,748,769,788,808,830,849,868,889,909],"xSR":350,"ySR":768,"xT1":30,"yT1":0,"xT2":670,"yT2":0,"toosoon":0,"cond_shown":"equaldotsize","ratio_trial":750,"smaller_num":"15","larger_num":"20","correct_side":2,"subjID":"4","gender":"No_gender","age":"No_age","school":"No_school"},{"start_time":1549309982901,"click_time":1549309984549,"finger_time":1549309983489,"fix_duration":1311.3915092760938,"trial":37,"RT":588,"MT":1060,"sideResp":2,"stimulus":"img/900/randomdotsizeEA/R/3_Ratio_900_L_9_R_10.png","xmouse":[429.3333435058594,429.3333435058594,429.3333435058594,429.3333435058594,429.3333435058594,430,430,430,430,430,430,430,430,430,430,430.66668701171875,430.66668701171875,430.66668701171875,430.66668701171875,430.66668701171875,430.66668701171875,430.66668701171875,430.66668701171875,430.66668701171875,430.66668701171875,430,431.3333435058594,432,437.3333435058594,446.66668701171875,454.66668701171875,479.3333435058594,495.3333435058594,552,591.3333740234375,610.6666870117188,647.3333740234375,666,718,754,765.3333740234375,780.6666870117188,781.3333740234375,780.6666870117188,780.6666870117188,779.3333740234375,779.3333740234375,779.3333740234375,779.3333740234375,779.3333740234375,779.3333740234375,779.3333740234375,779.3333740234375,779.3333740234375,779.3333740234375,779.3333740234375,779.3333740234375,779.3333740234375,779.3333740234375,779.3333740234375,779.3333740234375,779.3333740234375,779.3333740234375,779.3333740234375,779.3333740234375,779.3333740234375,779.3333740234375,779.3333740234375,779.3333740234375,779.3333740234375,779.3333740234375,779.3333740234375,779.3333740234375,779.3333740234375,779.3333740234375,779.3333740234375,779.3333740234375,779.3333740234375,779.3333740234375,779.3333740234375,779.3333740234375,779.3333740234375,687],"ymouse":[804.6666870117188,804.6666870117188,804.6666870117188,804.6666870117188,804.6666870117188,804.6666870117188,804.6666870117188,804.6666870117188,804.6666870117188,804.6666870117188,804.6666870117188,804.6666870117188,804.6666870117188,804.6666870117188,804.6666870117188,806.0000610351562,806.0000610351562,806.0000610351562,806.0000610351562,806.0000610351562,806.0000610351562,806.0000610351562,806.0000610351562,806.0000610351562,806.0000610351562,797.3333740234375,793.3333740234375,790,776.6666870117188,758,745.3333740234375,708.6666870117188,685.3333740234375,594,516,472,383.3333435058594,336,207.33334350585938,134.6666717529297,104.66667175292969,62.66667175292969,46.66666793823242,46,46,50,50,50,50,50,50,50,50,50,50,50,50,50,50,50,50,50,50,50,50,50,50,50,50,50,50,50,50,50,50,50,50,50,50,50,50,50,85],"timestamp_mouse":[9,31,48,68,87,107,127,148,168,188,207,227,248,267,287,308,327,347,367,387,407,428,448,468,488,507,528,548,569,588,607,627,647,669,688,708,728,748,770,789,807,828,848,871,888,907,927,947,967,988,1008,1027,1047,1068,1087,1107,1127,1148,1168,1188,1208,1228,1247,1267,1288,1308,1328,1347,1367,1388,1408,1428,1448,1468,1487,1508,1527,1548,1567,1587,1607,1627,1647],"xSR":350,"ySR":768,"xT1":30,"yT1":0,"xT2":670,"yT2":0,"toosoon":0,"cond_shown":"randomdotsizeEA","ratio_trial":900,"smaller_num":"9","larger_num":"10","correct_side":2,"subjID":"4","gender":"No_gender","age":"No_age","school":"No_school"},{"start_time":1549309986199,"click_time":1549309987049,"finger_time":1549309986829,"fix_duration":549.4357912756481,"trial":38,"RT":630,"MT":220,"sideResp":2,"stimulus":"img/250/randomdotsizeEA/R/12_Ratio_250_L_5_R_20.png","xmouse":[430.0000305175781,430.0000305175781,430.0000305175781,430.0000305175781,430.0000305175781,430.0000305175781,430.0000305175781,430.0000305175781,430.0000305175781,430.0000305175781,430.0000305175781,430.0000305175781,430.0000305175781,430.0000305175781,430.0000305175781,430.0000305175781,430.0000305175781,430.0000305175781,430.66668701171875,430.66668701171875,430.66668701171875,430.66668701171875,430.66668701171875,430.66668701171875,430.66668701171875,430.66668701171875,430.66668701171875,430.66668701171875,430.66668701171875,430.66668701171875,430.66668701171875,472,485.3333435058594,514,530,582,620,636.6666870117188,670.6666870117188,706.6666870117188,713.3333740234375,722,725.3333740234375],"ymouse":[826,826,826,826,826,826,826,826,826,826,826,826,826,826,826,826,826,826,832,832,832,832,832,832,832,832,832,832,818.6666870117188,818.6666870117188,818.6666870117188,730.6666870117188,710,660,629.3333740234375,520,434.66668701171875,395.3333435058594,310.66668701171875,196,162,104.66667175292969,79.33333587646484],"timestamp_mouse":[11,39,49,70,89,110,130,150,170,189,210,229,250,269,289,309,329,349,369,390,409,429,449,470,489,509,530,549,569,589,609,630,650,669,689,710,730,749,769,791,809,829,850],"xSR":350,"ySR":768,"xT1":30,"yT1":0,"xT2":670,"yT2":0,"toosoon":0,"cond_shown":"randomdotsizeEA","ratio_trial":250,"smaller_num":"5","larger_num":"20","correct_side":2,"subjID":"4","gender":"No_gender","age":"No_age","school":"No_school"},{"start_time":1549309988812,"click_time":1549309989830,"finger_time":1549309989428,"fix_duration":541.3824085400912,"trial":39,"RT":616,"MT":402,"sideResp":1,"stimulus":"img/750/randomdotsize/L/13_Ratio_750_L_8_R_6.png","xmouse":[411.3333435058594,410,410,409.3333435058594,410,410,410,410,410,410,410,410,410,410,408,408.6666564941406,408.6666564941406,408.6666564941406,408.6666564941406,408.6666564941406,408.6666564941406,408.6666564941406,408.6666564941406,408.6666564941406,408.6666564941406,408.6666564941406,408.6666564941406,408.6666564941406,408.6666564941406,402.66668701171875,400,386.66668701171875,378,357.3333435058594,322.66668701171875,307.3333435058594,272,255.33334350585938,228,204.6666717529297,198,186,179.33334350585938,163.33334350585938,155.33334350585938,117.33333587646484,106.66667175292969,86.66667175292969,76.66667175292969,66,36.66666793823242],"ymouse":[844.6666870117188,847.3333740234375,847.3333740234375,848,848,848,848,848,848,846,846,846,846,846,846,846,846,846,846,845.3333740234375,845.3333740234375,845.3333740234375,845.3333740234375,845.3333740234375,845.3333740234375,845.3333740234375,845.3333740234375,845.3333740234375,845.3333740234375,776,762,725.3333740234375,706,665.3333740234375,606,585.3333740234375,536.6666870117188,510.66668701171875,458.66668701171875,393.3333435058594,374,342.66668701171875,328,295.3333435058594,278,204.6666717529297,187.33334350585938,152.6666717529297,136,120.66667175292969,50],"timestamp_mouse":[19,46,56,76,97,117,136,157,176,197,216,237,257,276,297,316,336,357,377,396,417,436,457,477,496,516,536,556,577,599,616,637,657,676,699,716,736,757,776,799,816,837,856,876,896,921,937,956,976,996,1018],"xSR":350,"ySR":768,"xT1":30,"yT1":0,"xT2":670,"yT2":0,"toosoon":0,"cond_shown":"randomdotsize","ratio_trial":750,"smaller_num":"6","larger_num":"8","correct_side":1,"subjID":"4","gender":"No_gender","age":"No_age","school":"No_school"},{"start_time":1549309990974,"click_time":1549309992089,"finger_time":1549309991748,"fix_duration":304.48350846421215,"trial":40,"RT":774,"MT":341,"sideResp":2,"stimulus":"img/900/equaldotsize/L/4_Ratio_900_L_20_R_18.png","xmouse":[408,408,408,408,408,408,408,408.66668701171875,408.66668701171875,408.66668701171875,409.3333435058594,409.3333435058594,410,410,410.66668701171875,410.0000305175781,410.0000305175781,410.0000305175781,410.0000305175781,410.0000305175781,410.0000305175781,410.0000305175781,410.0000305175781,410.0000305175781,410.0000305175781,410.0000305175781,406.0000305175781,406.0000305175781,406.0000305175781,406.0000305175781,406.0000305175781,406.0000305175781,401.3333435058594,400.66668701171875,400,399.3333435058594,398,395.3333435058594,393.3333435058594,393.3333435058594,396,396,396,412,415.3333435058594,422.66668701171875,426.66668701171875,445.3333435058594,466,478.66668701171875,512,528.6666870117188,585.3333740234375,626,644.6666870117188,678.6666870117188],"ymouse":[839.3333740234375,839.3333740234375,839.3333740234375,839.3333740234375,839.3333740234375,838.6666870117188,838.6666870117188,838,838,838,837.3333740234375,837.3333740234375,836.6666870117188,836.6666870117188,836.6666870117188,836.6666870117188,836.6666870117188,836.6666870117188,836.6666870117188,836.6666870117188,836.6666870117188,836.6666870117188,836.6666870117188,836.6666870117188,836.6666870117188,836.6666870117188,832,832,832,832,832,832,804.6666870117188,799.3333740234375,796.6666870117188,791.3333740234375,787.3333740234375,772,755.3333740234375,745.3333740234375,716.6666870117188,716.6666870117188,716.6666870117188,610.6666870117188,590,540,513.3333740234375,438,380,351.3333435058594,290.66668701171875,264.66668701171875,187.33334350585938,140,120,86],"timestamp_mouse":[15,34,55,74,94,114,134,155,174,195,215,234,255,274,294,314,334,354,374,394,415,434,455,474,495,515,535,555,574,594,615,634,656,675,694,714,735,755,774,794,815,835,854,875,894,914,935,957,975,995,1014,1034,1056,1074,1094,1114],"xSR":350,"ySR":768,"xT1":30,"yT1":0,"xT2":670,"yT2":0,"toosoon":0,"cond_shown":"equaldotsize","ratio_trial":900,"smaller_num":"18","larger_num":"20","correct_side":1,"subjID":"4","gender":"No_gender","age":"No_age","school":"No_school"},{"start_time":1549309994567,"click_time":1549309995290,"finger_time":1549309995069,"fix_duration":1073.4581076423344,"trial":41,"RT":502,"MT":221,"sideResp":2,"stimulus":"img/250/equaldotanddens/R/11_Ratio_250_L_3_R_12.png","xmouse":[388,388,388,388,388,388,388,388,388,388,388,388,388,388,388,388,388,388,388,379.3333435058594,376.66668701171875,376.66668701171875,376.66668701171875,376.66668701171875,376.66668701171875,435.3333435058594,464,480,516,534,581.3333740234375,608,620,651.3333740234375,664.6666870117188,704.6666870117188,731.3333740234375],"ymouse":[852,852,852,852,852,852,852,852,852,852,852,852,852,852,852,852,852,852,852,845.3333129882812,830,830,830,830,830,590,527.3333740234375,494,426.66668701171875,394.66668701171875,308.66668701171875,261.3333435058594,238.6666717529297,194.6666717529297,174.6666717529297,120.66667175292969,89.33333587646484],"timestamp_mouse":[2,29,41,61,82,101,121,141,162,182,201,221,241,261,282,302,321,342,361,382,402,422,442,462,482,502,521,541,561,582,602,621,641,662,681,701,722],"xSR":350,"ySR":768,"xT1":30,"yT1":0,"xT2":670,"yT2":0,"toosoon":0,"cond_shown":"equaldotanddens","ratio_trial":250,"smaller_num":"3","larger_num":"12","correct_side":2,"subjID":"4","gender":"No_gender","age":"No_age","school":"No_school"},{"start_time":1549309996400,"click_time":1549309997389,"finger_time":1549309997088,"fix_duration":250,"trial":42,"RT":688,"MT":301,"sideResp":2,"stimulus":"img/900/equaldotanddens/L/2_Ratio_900_L_20_R_18.png","xmouse":[422,422,422,422,422,422,422,422,422,422.66668701171875,422.66668701171875,422.66668701171875,422.66668701171875,422.66668701171875,422.66668701171875,423.3333435058594,423.3333435058594,423.3333435058594,422.66668701171875,422.66668701171875,422.66668701171875,422.66668701171875,422.66668701171875,422,422,422,422,422,422,422,422,422,422,412,406.66668701171875,405.3333435058594,403.3333435058594,404.66668701171875,421.3333435058594,439.3333435058594,450.66668701171875,477.3333435058594,491.3333435058594,538.6666870117188,570,587.3333740234375,614.6666870117188,628,665.3333740234375,687.3333740234375],"ymouse":[784,784,784,784.6666870117188,784.6666870117188,784.6666870117188,784.6666870117188,784.6666870117188,785.3333740234375,785.3333740234375,786,786,786.6666870117188,787.3333740234375,788,788,788.6666870117188,788.6666870117188,789.3333740234375,789.3333740234375,789.3333740234375,789.3333740234375,788.6666870117188,788.6666870117188,788.6666870117188,788.6666870117188,788.6666870117188,788.6666870117188,788.6666870117188,788.6666870117188,788.6666870117188,788.6666870117188,788.6666870117188,768.6666870117188,758,753.3333740234375,733.3333740234375,716,639.3333740234375,588,560.6666870117188,497.3333740234375,463.3333435058594,356.66668701171875,292,258.66668701171875,203.33334350585938,181.33334350585938,118.66667175292969,85.33333587646484],"timestamp_mouse":[10,40,48,69,89,108,129,149,169,188,208,228,248,268,288,308,329,348,368,389,408,429,449,468,488,509,528,548,570,588,609,628