[{"start_time":1452098830306,"click_time":1452098841672,"finger_time":1452098831410,"fix_duration":350.53437961725643,"trial":0,"RT":1104,"MT":10262,"sideResp":1,"stimulus":[],"xmouse":[487.4133605957031,487.4133605957031,486.5899963378906,486.5899963378906,486.5899963378906,486.5899963378906,486.5899963378906,486.5899963378906,486.5899963378906,485.7666931152344,484.943359375,484.943359375,484.943359375,484.943359375,486.5899963378906,486.5899963378906,486.5899963378906,486.5899963378906,501.4100036621094,506.3500061035156,509.64337158203125,509.64337158203125,509.64337158203125,509.64337158203125,506.3500061035156,503.05670166015625,500.5867004394531,499.76336669921875,498.94000244140625,498.94000244140625,498.11669921875,497.2933654785156,497.2933654785156,496.4700012207031,496.4700012207031,494.8233642578125,494.8233642578125,494.8233642578125,494,494,494,494,493.17669677734375,493.17669677734375,492.3533630371094,492.3533630371094,492.3533630371094,492.3533630371094,493.17669677734375,493.17669677734375,496.4700012207031,497.2933654785156,501.4100036621094,504.703369140625,516.22998046875,557.3966674804688,574.6867065429688,605.1500244140625,615.8533935546875,625.7333984375,629.8500366210938,630.6734008789062,633.1433715820312,635.6133422851562,638.90673828125,646.3167114257812,649.6099853515625,658.666748046875,663.6067504882812,675.1333618164062,703.126708984375,714.6533813476562,736.8833618164062,745.9400024414062,762.40673828125,775.5800170898438,778.0499877929688,780.52001953125,781.3433837890625,780.52001953125,778.8733520507812,777.2267456054688,777.2267456054688,777.2267456054688,777.2267456054688,768.9933471679688,767.3467407226562,767.3467407226562,767.3467407226562,771.46337890625,780.52001953125,785.4600219726562,794.5167236328125,799.4567260742188,808.5133666992188,816.7467041015625,824.9800415039062,829.9200439453125,838.1533813476562,843.916748046875,848.0333862304688,848.0333862304688,848.8567504882812,848.8567504882812,848.8567504882812,849.6799926757812,850.5033569335938,850.5033569335938,850.5033569335938,850.5033569335938,850.5033569335938,848.8567504882812,848.8567504882812,848.0333862304688,847.2100219726562,847.2100219726562,848.0333862304688,848.0333862304688,848.8567504882812,848.8567504882812,850.5033569335938,850.5033569335938,850.5033569335938,850.5033569335938,851.3267211914062,851.3267211914062,851.3267211914062,851.3267211914062,851.3267211914062,850.5033569335938,850.5033569335938,849.6799926757812,849.6799926757812,849.6799926757812,849.6799926757812,850.5033569335938,850.5033569335938,849.6799926757812,849.6799926757812,849.6799926757812,849.6799926757812,848.8567504882812,848.8567504882812,848.0333862304688,848.0333862304688,847.2100219726562,847.2100219726562,847.2100219726562,847.2100219726562,847.2100219726562,847.2100219726562,847.2100219726562,847.2100219726562,847.2100219726562,846.38671875,846.38671875,846.38671875,846.38671875,846.38671875,846.38671875,846.38671875,846.38671875,845.5633544921875,845.5633544921875,845.5633544921875,845.5633544921875,845.5633544921875,845.5633544921875,845.5633544921875,845.5633544921875,845.5633544921875,845.5633544921875,845.5633544921875,845.5633544921875,845.5633544921875,845.5633544921875,845.5633544921875,845.5633544921875,845.5633544921875,845.5633544921875,844.739990234375,844.739990234375,844.739990234375,844.739990234375,844.739990234375,844.739990234375,844.739990234375,844.739990234375,844.739990234375,844.739990234375,844.739990234375,843.916748046875,843.916748046875,843.916748046875,843.916748046875,844.739990234375,844.739990234375,844.739990234375,844.739990234375,844.739990234375,844.739990234375,844.739990234375,844.739990234375,844.739990234375,844.739990234375,844.739990234375,844.739990234375,844.739990234375,844.739990234375,844.739990234375,845.5633544921875,845.5633544921875,845.5633544921875,845.5633544921875,845.5633544921875,845.5633544921875,845.5633544921875,845.5633544921875,845.5633544921875,844.739990234375,844.739990234375,844.739990234375,844.739990234375,844.739990234375,844.739990234375,844.739990234375,845.5633544921875,845.5633544921875,845.5633544921875,845.5633544921875,845.5633544921875,845.5633544921875,845.5633544921875,845.5633544921875,845.5633544921875,845.5633544921875,844.739990234375,844.739990234375,844.739990234375,844.739990234375,844.739990234375,844.739990234375,844.739990234375,844.739990234375,844.739990234375,844.739990234375,843.916748046875,843.916748046875,843.916748046875,843.0933837890625,843.0933837890625,843.0933837890625,843.0933837890625,843.0933837890625,843.0933837890625,843.0933837890625,843.0933837890625,843.0933837890625,843.0933837890625,842.27001953125,842.27001953125,842.27001953125,842.27001953125,842.27001953125,842.27001953125,842.27001953125,842.27001953125,842.27001953125,842.27001953125,842.27001953125,841.4467163085938,841.4467163085938,841.4467163085938,841.4467163085938,841.4467163085938,841.4467163085938,840.6233520507812,840.6233520507812,840.6233520507812,840.6233520507812,840.6233520507812,840.6233520507812,840.6233520507812,840.6233520507812,840.6233520507812,840.6233520507812,840.6233520507812,840.6233520507812,840.6233520507812,839.7999877929688,839.7999877929688,838.9767456054688,838.9767456054688,838.1533813476562,838.1533813476562,838.1533813476562,838.1533813476562,838.1533813476562,837.3300170898438,837.3300170898438,837.3300170898438,837.3300170898438,837.3300170898438,837.3300170898438,836.5067138671875,836.5067138671875,836.5067138671875,836.5067138671875,835.683349609375,835.683349609375,835.683349609375,835.683349609375,835.683349609375,835.683349609375,835.683349609375,835.683349609375,835.683349609375,835.683349609375,835.683349609375,835.683349609375,835.683349609375,835.683349609375,835.683349609375,835.683349609375,835.683349609375,835.683349609375,835.683349609375,835.683349609375,835.683349609375,835.683349609375,835.683349609375,835.683349609375,835.683349609375,835.683349609375,835.683349609375,835.683349609375,835.683349609375,835.683349609375,835.683349609375,836.5067138671875,836.5067138671875,836.5067138671875,835.683349609375,835.683349609375,835.683349609375,835.683349609375,835.683349609375,835.683349609375,834.8600463867188,834.8600463867188,834.8600463867188,834.8600463867188,834.8600463867188,835.683349609375,835.683349609375,835.683349609375,836.5067138671875,837.3300170898438,837.3300170898438,837.3300170898438,836.5067138671875,836.5067138671875,836.5067138671875,835.683349609375,835.683349609375,834.8600463867188,834.8600463867188,834.0367431640625,834.0367431640625,834.0367431640625,834.0367431640625,833.21337890625,833.21337890625,833.21337890625,833.21337890625,833.21337890625,833.21337890625,833.21337890625,833.21337890625,833.21337890625,833.21337890625,832.3900146484375,832.3900146484375,832.3900146484375,831.5667114257812,831.5667114257812,831.5667114257812,831.5667114257812,831.5667114257812,831.5667114257812,831.5667114257812,831.5667114257812,833.21337890625,833.21337890625,832.3900146484375,832.3900146484375,832.3900146484375,832.3900146484375,832.3900146484375,832.3900146484375,832.3900146484375,832.3900146484375,832.3900146484375,832.3900146484375,831.5667114257812,832.3900146484375,832.3900146484375,832.3900146484375,833.21337890625,833.21337890625,833.21337890625,833.21337890625,833.21337890625,833.21337890625,833.21337890625,833.21337890625,833.21337890625,833.21337890625,833.21337890625,833.21337890625,833.21337890625,833.21337890625,833.21337890625,833.21337890625,833.21337890625,833.21337890625,833.21337890625,833.21337890625,833.21337890625,833.21337890625,833.21337890625,833.21337890625,833.21337890625,832.3900146484375,832.3900146484375,832.3900146484375,832.3900146484375,832.3900146484375,832.3900146484375,832.3900146484375,832.3900146484375,832.3900146484375,832.3900146484375,832.3900146484375,832.3900146484375,832.3900146484375,832.3900146484375,832.3900146484375,836.5067138671875,836.5067138671875,838.1533813476562,838.9767456054688,840.6233520507812,843.0933837890625,843.0933837890625,843.0933837890625,843.0933837890625,843.0933837890625,843.0933837890625,840.6233520507812,839.7999877929688,838.9767456054688,838.1533813476562,836.5067138671875,835.683349609375,834.8600463867188,834.0367431640625,833.21337890625,830.7433471679688,829.0967407226562,827.4500122070312,827.4500122070312,827.4500122070312,827.4500122070312,822.510009765625,822.510009765625,821.6867065429688,820.8634033203125,819.2167358398438,817.5700073242188,816.7467041015625,815.9234008789062,815.1000366210938,812.6300048828125,810.9833984375,810.1600341796875,807.6900024414062,806.8667602539062,803.5733642578125,800.280029296875,798.6333618164062,794.5167236328125,794.5167236328125,785.4600219726562,781.3433837890625,778.8733520507812,774.7567138671875,773.1100463867188,767.3467407226562,762.40673828125,759.9367065429688,755.8200073242188,754.1734008789062,754.1734008789062,754.1734008789062,754.1734008789062,741.8233642578125,737.7067260742188,730.2967529296875,727.0033569335938,719.5933837890625,716.2999877929688,708.8900146484375,697.3634033203125,694.0700073242188,686.6600341796875,683.3667602539062,676.780029296875,667.723388671875,665.2533569335938,659.489990234375,657.02001953125,651.2567138671875,647.96337890625,639.7300415039062,639.7300415039062,639.7300415039062,623.2633666992188,619.1466674804688,603.5033569335938,590.3300170898438,582.9199829101562,567.2766723632812,544.223388671875,533.52001953125,525.2866821289062,502.2333679199219,491.5299987792969,459.4200134277344,438.01336669921875,427.30999755859375,410.8433532714844,403.4333801269531,381.203369140625,368.0299987792969,361.443359375,349.91668701171875,344.1533508300781,325.2166748046875,312.86669921875,306.2799987792969,293.92999267578125,287.3433532714844,267.5833435058594,254.41000366210938,247.82334899902344,241.23667907714844,228.06333923339844,208.3033447265625,202.54000854492188,191.01333618164062,184.4266815185547,172.07667541503906,166.31333923339844,150.6699981689453,141.61334228515625,137.49667358398438,130.086669921875],"ymouse":[880.9667358398438,880.9667358398438,881.7900390625,880.9667358398438,880.9667358398438,881.7900390625,881.7900390625,881.7900390625,881.7900390625,883.4367065429688,883.4367065429688,882.6134033203125,882.6134033203125,882.6134033203125,881.7900390625,881.7900390625,881.7900390625,881.7900390625,878.4967651367188,878.4967651367188,879.3200073242188,879.3200073242188,879.3200073242188,879.3200073242188,881.7900390625,881.7900390625,880.9667358398438,880.1433715820312,878.4967651367188,878.4967651367188,876.0267333984375,875.203369140625,875.203369140625,876.0267333984375,876.0267333984375,876.8500366210938,876.8500366210938,876.8500366210938,879.3200073242188,879.3200073242188,880.1433715820312,880.1433715820312,880.9667358398438,880.9667358398438,880.9667358398438,880.9667358398438,880.1433715820312,880.1433715820312,879.3200073242188,879.3200073242188,871.0867309570312,867.7933959960938,859.5599975585938,853.7967529296875,830.7433471679688,764.0533447265625,738.530029296875,695.7167358398438,676.780029296875,650.433349609375,630.6734008789062,624.086669921875,612.5599975585938,606.7966918945312,596.0933837890625,579.626708984375,572.2166748046875,555.75,547.5166625976562,530.2266845703125,483.29669189453125,462.71337890625,421.54669189453125,404.2566833496094,372.9700012207031,338.3900146484375,330.9800109863281,321.9233703613281,317.8066711425781,312.86669921875,312.86669921875,313.69000244140625,313.69000244140625,313.69000244140625,313.69000244140625,351.5633544921875,365.55999755859375,381.203369140625,389.4366760253906,402.6100158691406,414.1366882324219,415.7833557128906,417.4300231933594,418.25335693359375,419.0766906738281,422.3699951171875,428.9566955566406,433.0733642578125,443.7767028808594,455.3033752441406,472.5933532714844,478.356689453125,484.1199951171875,494,498.94000244140625,507.9967041015625,510.4666748046875,510.4666748046875,509.64337158203125,507.9967041015625,507.9967041015625,497.2933654785156,494.8233642578125,488.2366943359375,485.7666931152344,478.356689453125,473.41668701171875,470.9466857910156,466.0066833496094,462.71337890625,455.3033752441406,451.1866760253906,449.5400085449219,446.2466735839844,444.6000061035156,439.6600036621094,437.19000244140625,435.5433654785156,433.0733642578125,431.42669677734375,428.13336181640625,424.8399963378906,424.0166931152344,421.54669189453125,420.7233581542969,418.25335693359375,417.4300231933594,416.606689453125,414.96002197265625,414.96002197265625,413.3133544921875,411.66668701171875,410.8433532714844,409.1966857910156,408.37335205078125,405.90338134765625,403.4333801269531,402.6100158691406,400.96337890625,400.1400146484375,397.6700134277344,396.02337646484375,396.02337646484375,394.3766784667969,394.3766784667969,393.5533752441406,393.5533752441406,393.5533752441406,392.7300109863281,392.7300109863281,392.7300109863281,391.90667724609375,391.90667724609375,391.0833740234375,391.0833740234375,391.0833740234375,389.4366760253906,389.4366760253906,388.6133728027344,388.6133728027344,387.7900085449219,386.9666748046875,386.9666748046875,386.14337158203125,386.14337158203125,385.32000732421875,384.4966735839844,384.4966735839844,383.6733703613281,383.6733703613281,382.8500061035156,382.02667236328125,382.02667236328125,381.203369140625,381.203369140625,381.203369140625,380.3800048828125,380.3800048828125,380.3800048828125,379.55670166015625,379.55670166015625,379.55670166015625,378.7333679199219,378.7333679199219,378.7333679199219,377.9100036621094,376.26336669921875,376.26336669921875,375.44000244140625,374.61669921875,374.61669921875,372.9700012207031,372.9700012207031,372.1466979980469,372.1466979980469,371.3233642578125,369.67669677734375,369.67669677734375,368.8533630371094,368.0299987792969,367.2066955566406,366.38336181640625,365.55999755859375,364.7366943359375,364.7366943359375,363.9133605957031,362.2666931152344,362.2666931152344,361.443359375,361.443359375,360.6199951171875,359.79669189453125,358.9733581542969,358.9733581542969,358.1499938964844,357.3266906738281,355.67999267578125,354.856689453125,354.0333557128906,353.21002197265625,352.3866882324219,350.7400207519531,350.7400207519531,349.91668701171875,349.0933532714844,349.0933532714844,347.4466857910156,346.62335205078125,345.8000183105469,344.9766845703125,344.9766845703125,343.33001708984375,343.33001708984375,343.33001708984375,342.5066833496094,342.5066833496094,341.6833801269531,341.6833801269531,341.6833801269531,340.8600158691406,340.8600158691406,340.8600158691406,340.8600158691406,340.03668212890625,340.03668212890625,340.03668212890625,339.21337890625,339.21337890625,338.3900146484375,338.3900146484375,338.3900146484375,337.5666809082031,337.5666809082031,336.7433776855469,336.7433776855469,336.7433776855469,335.9200134277344,335.9200134277344,335.9200134277344,335.9200134277344,335.0966796875,335.0966796875,335.0966796875,334.27337646484375,334.27337646484375,334.27337646484375,334.27337646484375,334.27337646484375,334.27337646484375,334.27337646484375,334.27337646484375,333.45001220703125,333.45001220703125,333.45001220703125,333.45001220703125,333.45001220703125,333.45001220703125,333.45001220703125,333.45001220703125,333.45001220703125,333.45001220703125,332.6266784667969,332.6266784667969,332.6266784667969,332.6266784667969,332.6266784667969,332.6266784667969,332.6266784667969,332.6266784667969,332.6266784667969,332.6266784667969,332.6266784667969,332.6266784667969,332.6266784667969,332.6266784667969,332.6266784667969,332.6266784667969,331.8033752441406,331.8033752441406,331.8033752441406,330.9800109863281,330.9800109863281,330.15667724609375,330.15667724609375,329.3333740234375,329.3333740234375,329.3333740234375,329.3333740234375,329.3333740234375,329.3333740234375,329.3333740234375,330.15667724609375,330.15667724609375,330.15667724609375,330.15667724609375,330.15667724609375,330.15667724609375,330.15667724609375,330.15667724609375,330.9800109863281,330.9800109863281,330.9800109863281,330.9800109863281,330.9800109863281,330.9800109863281,330.9800109863281,330.9800109863281,330.9800109863281,330.9800109863281,330.15667724609375,330.15667724609375,330.15667724609375,330.15667724609375,330.15667724609375,330.9800109863281,330.9800109863281,330.9800109863281,330.9800109863281,330.15667724609375,330.15667724609375,330.15667724609375,330.15667724609375,329.3333740234375,329.3333740234375,329.3333740234375,328.510009765625,328.510009765625,328.510009765625,328.510009765625,328.510009765625,327.6866760253906,327.6866760253906,327.6866760253906,326.8633728027344,326.8633728027344,326.0400085449219,326.0400085449219,326.0400085449219,326.0400085449219,326.0400085449219,326.0400085449219,326.0400085449219,326.0400085449219,325.2166748046875,325.2166748046875,324.39337158203125,324.39337158203125,322.7466735839844,322.7466735839844,321.9233703613281,321.1000061035156,321.1000061035156,321.1000061035156,321.9233703613281,321.9233703613281,321.9233703613281,321.9233703613281,322.7466735839844,322.7466735839844,322.7466735839844,322.7466735839844,322.7466735839844,322.7466735839844,322.7466735839844,323.57000732421875,323.57000732421875,323.57000732421875,323.57000732421875,323.57000732421875,323.57000732421875,323.57000732421875,323.57000732421875,323.57000732421875,323.57000732421875,324.39337158203125,325.2166748046875,325.2166748046875,325.2166748046875,326.0400085449219,326.8633728027344,326.8633728027344,326.8633728027344,326.8633728027344,326.0400085449219,326.0400085449219,326.0400085449219,326.0400085449219,326.0400085449219,326.0400085449219,326.0400085449219,326.0400085449219,326.0400085449219,326.0400085449219,326.0400085449219,326.0400085449219,324.39337158203125,324.39337158203125,324.39337158203125,324.39337158203125,324.39337158203125,324.39337158203125,324.39337158203125,324.39337158203125,322.7466735839844,322.7466735839844,322.7466735839844,322.7466735839844,322.7466735839844,322.7466735839844,322.7466735839844,322.7466735839844,323.57000732421875,323.57000732421875,324.39337158203125,324.39337158203125,324.39337158203125,324.39337158203125,324.39337158203125,328.510009765625,328.510009765625,329.3333740234375,329.3333740234375,330.15667724609375,329.3333740234375,329.3333740234375,329.3333740234375,329.3333740234375,329.3333740234375,329.3333740234375,323.57000732421875,321.9233703613281,321.9233703613281,321.1000061035156,320.27667236328125,320.27667236328125,320.27667236328125,319.453369140625,320.27667236328125,320.27667236328125,321.1000061035156,321.9233703613281,321.9233703613281,321.9233703613281,321.9233703613281,326.8633728027344,327.6866760253906,328.510009765625,329.3333740234375,330.9800109863281,332.6266784667969,333.45001220703125,335.0966796875,335.9200134277344,337.5666809082031,338.3900146484375,338.3900146484375,338.3900146484375,338.3900146484375,337.5666809082031,337.5666809082031,336.7433776855469,335.9200134277344,335.9200134277344,333.45001220703125,330.9800109863281,330.15667724609375,327.6866760253906,326.8633728027344,324.39337158203125,322.7466735839844,322.7466735839844,323.57000732421875,323.57000732421875,323.57000732421875,323.57000732421875,323.57000732421875,330.15667724609375,331.8033752441406,334.27337646484375,334.27337646484375,335.9200134277344,336.7433776855469,337.5666809082031,338.3900146484375,338.3900146484375,338.3900146484375,338.3900146484375,338.3900146484375,339.21337890625,339.21337890625,339.21337890625,338.3900146484375,338.3900146484375,338.3900146484375,336.7433776855469,336.7433776855469,336.7433776855469,332.6266784667969,331.8033752441406,328.510009765625,325.2166748046875,323.57000732421875,319.453369140625,314.5133361816406,312.86669921875,311.2200012207031,307.10333251953125,305.4566955566406,298.8699951171875,293.106689453125,289.8133544921875,284.0500183105469,281.58001708984375,272.5233459472656,266.760009765625,263.4666748046875,257.7033386230469,254.41000366210938,245.3533477783203,239.5900115966797,237.12001037597656,231.356689453125,228.06333923339844,216.53668212890625,208.3033447265625,203.36334228515625,199.24668884277344,188.54335021972656,171.2533416748047,166.31333923339844,154.7866668701172,149.02334594726562,137.49667358398438,132.55667114257812,116.09000396728516,105.38667297363281,100.44667053222656,89.74333953857422],"timestamp_mouse":[38,45,64,85,104,124,144,164,184,205,224,244,265,284,306,324,344,364,384,405,424,444,465,484,504,524,544,565,585,604,624,644,664,684,705,726,744,764,784,804,824,844,864,885,905,924,944,964,984,1005,1024,1044,1064,1084,1104,1124,1144,1164,1185,1204,1224,1244,1264,1284,1305,1325,1344,1364,1384,1404,1424,1444,1464,1485,1504,1525,1544,1564,1585,1604,1626,1644,1665,1684,1704,1725,1745,1765,1784,1804,1827,1844,1864,1884,1904,1925,1944,1964,1984,2004,2027,2045,2064,2084,2104,2126,2144,2164,2185,2204,2225,2244,2264,2284,2304,2325,2344,2364,2384,2404,2426,2444,2464,2484,2504,2526,2544,2564,2584,2604,2625,2644,2664,2684,2704,2726,2744,2764,2784,2804,2824,2845,2864,2884,2905,2925,2944,2964,2984,3004,3025,3044,3065,3084,3104,3124,3144,3164,3186,3204,3224,3244,3264,3284,3304,3324,3344,3364,3384,3405,3424,3444,3464,3485,3504,3524,3544,3565,3585,3604,3625,3644,3664,3685,3704,3724,3744,3765,3784,3804,3824,3844,3864,3884,3904,3924,3944,3965,3985,4004,4024,4045,4064,4084,4104,4124,4144,4164,4185,4204,4225,4244,4264,4284,4304,4324,4345,4364,4385,4404,4425,4444,4465,4484,4505,4524,4545,4564,4584,4604,4625,4646,4664,4684,4704,4724,4745,4764,4784,4804,4824,4846,4865,4884,4904,4925,4944,4964,4984,5004,5024,5045,5064,5084,5104,5124,5144,5164,5184,5205,5224,5244,5264,5284,5304,5324,5346,5364,5384,5404,5424,5444,5464,5484,5505,5524,5545,5564,5584,5604,5625,5647,5664,5685,5704,5724,5744,5764,5784,5805,5824,5846,5864,5885,5905,5924,5944,5964,5984,6005,6024,6044,6064,6084,6104,6124,6144,6165,6184,6205,6224,6244,6265,6284,6304,6324,6344,6365,6384,6405,6424,6444,6464,6484,6504,6524,6544,6564,6585,6604,6624,6645,6664,6684,6704,6725,6745,6764,6784,6804,6824,6844,6864,6884,6905,6925,6944,6965,6985,7005,7024,7045,7064,7084,7104,7124,7144,7165,7185,7204,7224,7244,7264,7284,7304,7324,7344,7364,7384,7404,7424,7444,7464,7485,7504,7524,7544,7565,7584,7605,7624,7644,7664,7684,7705,7725,7744,7764,7784,7804,7824,7844,7865,7884,7904,7924,7944,7964,7984,8005,8024,8044,8065,8085,8104,8124,8144,8165,8186,8204,8224,8245,8264,8285,8305,8324,8345,8364,8384,8404,8424,8445,8465,8484,8505,8524,8544,8564,8584,8604,8624,8644,8664,8684,8705,8724,8744,8764,8784,8804,8824,8844,8864,8884,8904,8924,8945,8964,8986,9004,9025,9045,9065,9086,9104,9125,9145,9165,9185,9205,9224,9245,9264,9284,9304,9324,9344,9364,9386,9407,9424,9445,9465,9484,9504,9524,9544,9565,9587,9604,9624,9644,9664,9688,9704,9724,9744,9765,9788,9805,9824,9845,9864,9887,9904,9924,9944,9964,9985,10005,10024,10045,10064,10085,10104,10124,10144,10164,10186,10205,10224,10245,10265,10287,10304,10324,10344,10365,10386,10404,10424,10444,10464,10487,10505,10525,10545,10564,10584,10605,10624,10645,10665,10686,10704,10724,10745,10764,10786,10805,10824,10844,10864,10886,10906,10924,10944,10964,10986,11005,11024,11044,11064,11086,11105,11124,11145,11164,11186,11205,11224,11245,11264,11284,11304,11324,11344,11364],"xSR":440,"ySR":852.6,"xT1":48,"yT1":0,"xT2":832,"yT2":0,"toosoon":0,"cond_shown":"Incongruent","ratio_trial":300,"L_num":2,"L_den":4,"R_num":6,"R_den":30,"correct_side":1,"subjID":"5","gender":"No_gender","age":"No_age","school":"No_school","test":{"fix_dur":[250,1500],"timestim":900,"targets_dim":[100,100],"targets_relative_coord":[0.1,0.9],"size_stim":[880,420],"start_dim":[100,100],"size_start":[300,300],"size_fix":60,"samplingrate":20,"img_types":["Congruent","Incongruent","Equal"],"ratios":[100,200,300,500],"rep_conds":15,"nTrials":192,"trials_to_rest":500,"Trials_order":[187,3,115,153,179,154,138,111,94,57,118,11,45,123,101,151,186,129,150,130,30,104,73,122,86,18,36,85,175,158,167,188,75,136,160,77,43,67,184,100,51,71,61,157,81,142,38,148,95,133,165,92,134,99,5,105,109,76,69,72,46,181,168,59,110,63,131,44,13,80,60,112,7,107,102,155,64,78,65,106,191,27,174,170,144,84,82,108,48,47,35,159,39,1,96,66,12,124,70,139,146,143,88,58,14,8,125,22,185,87,83,23,152,183,74,91,93,40,10,149,140,121,53,31,29,169,97,126,32,54,19,34,132,0,127,90,89,147,21,172,182,16,2,103,24,56,28,178,156,189,145,113,137,166,6,164,9,42,50,190,114,20,62,163,4,68,17,162,135,119,79,15,161,117,177,52,173,116,37,171,25,176,33,120,41,141,26,180,55,98,49,128],"cond_shown":["Incongruent","Congruent","Incongruent","Congruent","Equal","Incongruent","Congruent","Congruent","Incongruent","Congruent","Incongruent","Equal","Congruent","Congruent","Equal","Incongruent","Congruent","Congruent","Congruent","Incongruent","Congruent","Equal","Incongruent","Equal","Equal","Congruent","Congruent","Incongruent","Incongruent","Equal","Equal","Equal","Congruent","Incongruent","Incongruent","Equal","Incongruent","Incongruent","Incongruent","Incongruent","Congruent","Equal","Incongruent","Incongruent","Congruent","Incongruent","Equal","Incongruent","Equal","Incongruent","Congruent","Equal","Equal","Congruent","Equal","Congruent","Incongruent","Incongruent","Congruent","Congruent","Incongruent","Incongruent","Congruent","Equal","Equal","Congruent","Equal","Equal","Incongruent","Equal","Congruent","Incongruent","Incongruent","Equal","Congruent","Equal","Incongruent","Congruent","Equal","Incongruent","Equal","Congruent","Congruent","Equal","Congruent","Congruent","Incongruent","Congruent","Congruent","Equal","Equal","Congruent","Congruent","Incongruent","Congruent","Congruent","Congruent","Incongruent","Incongruent","Incongruent","Equal","Equal","Incongruent","Incongruent","Equal","Equal","Equal","Incongruent","Equal","Congruent","Equal","Equal","Equal","Congruent","Equal","Incongruent","Congruent","Incongruent","Incongruent","Equal","Equal","Incongruent","Equal","Incongruent","Equal","Incongruent","Incongruent","Congruent","Equal","Congruent","Incongruent","Incongruent","Congruent","Congruent","Incongruent","Congruent","Equal","Congruent","Congruent","Incongruent","Equal","Incongruent","Equal","Incongruent","Congruent","Equal","Incongruent","Incongruent","Congruent","Congruent","Incongruent","Equal","Equal","Incongruent","Congruent","Equal","Congruent","Congruent","Equal","Incongruent","Congruent","Equal","Equal","Incongruent","Incongruent","Equal","Equal","Congruent","Congruent","Equal","Incongruent","Congruent","Equal","Congruent","Congruent","Incongruent","Equal","Equal","Incongruent","Congruent","Incongruent","Equal","Congruent","Congruent","Equal","Congruent","Equal","Congruent","Incongruent","Equal","Incongruent","Equal"],"ratio_trial":[300,200,300,500,500,500,300,200,500,500,500,500,500,200,200,300,300,500,300,500,300,300,100,100,100,300,100,100,300,100,500,300,200,200,200,200,300,300,200,200,200,500,100,100,500,500,100,200,500,100,500,300,100,200,200,500,100,200,500,100,500,100,100,500,100,200,500,300,100,300,100,200,300,500,300,500,200,300,200,500,500,200,300,100,100,100,500,100,100,500,500,200,200,100,100,300,100,200,500,300,100,500,200,500,100,300,200,500,200,200,500,500,300,200,100,300,500,200,500,200,300,100,200,300,200,100,100,300,300,300,300,500,100,100,300,300,200,200,500,200,100,200,100,300,100,300,200,500,100,500,100,200,200,500,300,300,500,300,100,500,300,300,100,300,200,300,200,300,200,500,300,200,200,500,500,200,200,300,100,200,100,300,500,100,200,500,100,100,300,100,100,300],"left_num":[2,8,4,20,6,7,18,15,5,9,7,6,25,8,3,3,12,4,7,7,18,9,9,2,6,1,3,17,4,6,2,9,4,4,3,3,13,13,4,14,9,6,12,10,2,7,6,3,2,3,2,9,6,6,3,3,11,4,20,12,2,3,7,6,6,13,2,9,17,3,7,4,8,6,1,6,11,5,3,5,2,1,5,6,2,15,7,9,4,2,6,7,6,12,1,7,1,6,2,4,6,6,14,7,6,9,3,7,3,1,6,6,9,11,2,4,12,6,7,3,9,2,3,13,3,8,12,5,9,3,13,7,10,10,8,11,3,8,1,9,2,7,6,8,11,18,9,7,8,25,9,3,3,5,24,9,20,7,2,2,4,9,6,2,9,9,3,4,21,2,4,11,3,10,18,7,3,9,11,8,3,9,2,3,3,2,6,8,4,6,13,9],"right_num":[6,2,2,1,6,5,9,4,6,20,5,6,9,2,3,4,2,15,20,5,9,9,13,2,6,7,4,10,2,6,2,9,3,6,1,3,12,12,14,6,4,6,9,8,12,9,6,1,2,7,9,9,6,7,3,15,9,14,3,13,4,11,9,6,6,14,2,9,10,3,15,6,14,6,8,6,3,7,3,6,2,21,6,6,11,13,9,8,6,2,6,18,7,9,18,20,18,3,4,6,6,6,12,5,6,9,3,5,3,21,6,6,9,3,2,2,3,3,5,3,9,6,3,12,3,1,2,6,9,11,12,9,3,3,14,2,3,3,9,8,2,6,6,14,4,18,8,5,2,9,20,3,3,6,2,9,3,20,2,4,2,9,6,6,8,9,3,1,2,2,2,3,3,22,1,8,3,9,9,7,4,9,4,2,3,21,6,2,6,6,12,9],"left_den":[4,15,20,24,8,21,20,25,6,27,21,8,30,15,10,6,24,16,14,21,20,12,15,12,10,20,20,30,20,10,12,12,8,5,10,6,26,26,6,30,20,24,24,25,8,8,10,10,12,9,5,20,12,12,6,12,22,6,28,30,3,5,14,24,12,26,12,12,30,10,14,5,10,8,30,8,20,25,6,6,12,2,25,10,5,25,8,15,8,12,24,15,12,24,2,14,2,20,3,5,12,8,30,21,10,12,10,21,10,2,24,8,12,22,12,20,16,20,21,6,12,4,6,26,6,20,30,25,12,12,26,8,25,25,10,22,6,15,4,15,12,15,10,10,22,30,15,21,16,30,10,10,6,6,30,12,24,14,12,3,5,12,12,4,15,20,10,10,30,12,20,22,6,24,27,10,10,12,22,15,6,12,12,6,10,8,12,16,5,10,26,12],"right_den":[30,6,4,3,24,6,15,10,18,24,6,24,27,6,6,20,10,20,25,6,15,20,26,30,12,20,16,15,4,12,3,20,10,10,2,10,15,15,30,9,16,8,15,16,16,24,12,2,3,30,10,12,10,10,10,20,15,30,14,26,24,22,15,8,10,20,3,20,15,5,25,10,28,24,24,24,4,14,10,18,3,30,12,12,22,26,24,16,10,3,8,27,10,15,30,25,30,6,24,12,10,24,18,6,12,20,6,6,6,30,8,24,20,10,30,4,12,6,6,10,20,15,10,15,10,2,4,12,20,20,15,24,10,10,28,10,10,9,12,10,30,9,12,28,10,20,10,6,5,27,25,6,10,18,4,20,9,25,30,24,4,20,10,30,10,12,6,10,4,3,4,10,10,24,6,16,6,20,15,21,10,20,6,5,6,28,10,5,12,12,20,20],"correct_side":[1,1,2,1,1,2,1,1,1,2,2,1,1,1,2,1,1,2,2,2,1,1,1,1,1,2,2,2,2,1,2,1,1,1,2,1,2,2,1,2,1,2,2,2,2,1,1,2,2,1,2,2,2,2,1,2,2,1,1,2,1,1,2,2,2,2,2,1,2,2,2,1,1,1,2,1,2,2,1,1,2,2,2,1,2,1,1,1,2,2,2,2,2,2,2,2,2,2,1,1,2,1,2,2,1,1,2,2,2,2,2,1,1,1,1,2,1,2,2,1,1,1,1,2,1,2,2,2,1,2,2,1,1,1,1,1,1,1,2,2,1,2,1,1,1,2,2,2,1,1,1,2,1,1,1,1,1,2,1,1,1,1,2,1,2,2,2,1,1,2,2,1,1,2,1,1,2,1,2,1,1,1,2,1,2,2,2,1,1,1,2,1],"img_shown":["img2/300/Incongruent/L/I_Dist_300_LN_2_LD_4_RN_6_RD_30_0.png","img2/200/Congruent/L/C_Dist_200_LN_8_LD_15_RN_2_RD_6_0.png","img2/300/Incongruent/R/I_Dist_300_LN_4_LD_20_RN_2_RD_4_1.png","img2/500/Congruent/L/C_Dist_500_LN_20_LD_24_RN_1_RD_3_0.png","img2/500/Equal/L/E_Dist_500_LN_6_LD_8_RN_6_RD_24_0.png","img2/500/Incongruent/R/I_Dist_500_LN_7_LD_21_RN_5_RD_6_1.png","img2/300/Congruent/L/C_Dist_300_LN_18_LD_20_RN_9_RD_15_0.png","img2/200/Congruent/L/C_Dist_200_LN_15_LD_25_RN_4_RD_10_0.png","img2/500/Incongruent/L/I_Dist_500_LN_5_LD_6_RN_6_RD_18_0.png","img2/500/Congruent/R/C_Dist_500_LN_9_LD_27_RN_20_RD_24_1.png","img2/500/Incongruent/R/I_Dist_500_LN_7_LD_21_RN_5_RD_6_1.png","img2/500/Equal/L/E_Dist_500_LN_6_LD_8_RN_6_RD_24_0.png","img2/500/Congruent/L/C_Dist_500_LN_25_LD_30_RN_9_RD_27_0.png","img2/200/Congruent/L/C_Dist_200_LN_8_LD_15_RN_2_RD_6_0.png","img2/200/Equal/R/E_Dist_200_LN_3_LD_10_RN_3_RD_6_1.png","img2/300/Incongruent/L/I_Dist_300_LN_3_LD_6_RN_4_RD_20_0.png","img2/300/Congruent/L/C_Dist_300_LN_12_LD_24_RN_2_RD_10_0.png","img2/500/Congruent/R/C_Dist_500_LN_4_LD_16_RN_15_RD_20_1.png","img2/300/Congruent/R/C_Dist_300_LN_7_LD_14_RN_20_RD_25_1.png","img2/500/Incongruent/R/I_Dist_500_LN_7_LD_21_RN_5_RD_6_1.png","img2/300/Congruent/L/C_Dist_300_LN_18_LD_20_RN_9_RD_15_0.png","img2/300/Equal/L/E_Dist_300_LN_9_LD_12_RN_9_RD_20_0.png","img2/100/Incongruent/L/I_Dist_100_LN_9_LD_15_RN_13_RD_26_0.png","img2/100/Equal/L/E_Dist_100_LN_2_LD_12_RN_2_RD_30_0.png","img2/100/Equal/L/E_Dist_100_LN_6_LD_10_RN_6_RD_12_0.png","img2/300/Congruent/R/C_Dist_300_LN_1_LD_20_RN_7_RD_20_1.png","img2/100/Congruent/R/C_Dist_100_LN_3_LD_20_RN_4_RD_16_1.png","img2/100/Incongruent/R/I_Dist_100_LN_17_LD_30_RN_10_RD_15_1.png","img2/300/Incongruent/R/I_Dist_300_LN_4_LD_20_RN_2_RD_4_1.png","img2/100/Equal/L/E_Dist_100_LN_6_LD_10_RN_6_RD_12_0.png","img2/500/Equal/R/E_Dist_500_LN_2_LD_12_RN_2_RD_3_1.png","img2/300/Equal/L/E_Dist_300_LN_9_LD_12_RN_9_RD_20_0.png","img2/200/Congruent/L/C_Dist_200_LN_4_LD_8_RN_3_RD_10_0.png","img2/200/Incongruent/L/I_Dist_200_LN_4_LD_5_RN_6_RD_10_0.png","img2/200/Incongruent/R/I_Dist_200_LN_3_LD_10_RN_1_RD_2_1.png","img2/200/Equal/L/E_Dist_200_LN_3_LD_6_RN_3_RD_10_0.png","img2/300/Incongruent/R/I_Dist_300_LN_13_LD_26_RN_12_RD_15_1.png","img2/300/Incongruent/R/I_Dist_300_LN_13_LD_26_RN_12_RD_15_1.png","img2/200/Incongruent/L/I_Dist_200_LN_4_LD_6_RN_14_RD_30_0.png","img2/200/Incongruent/R/I_Dist_200_LN_14_LD_30_RN_6_RD_9_1.png","img2/200/Congruent/L/C_Dist_200_LN_9_LD_20_RN_4_RD_16_0.png","img2/500/Equal/R/E_Dist_500_LN_6_LD_24_RN_6_RD_8_1.png","img2/100/Incongruent/R/I_Dist_100_LN_12_LD_24_RN_9_RD_15_1.png","img2/100/Incongruent/R/I_Dist_100_LN_10_LD_25_RN_8_RD_16_1.png","img2/500/Congruent/R/C_Dist_500_LN_2_LD_8_RN_12_RD_16_1.png","img2/500/Incongruent/L/I_Dist_500_LN_7_LD_8_RN_9_RD_24_0.png","img2/100/Equal/L/E_Dist_100_LN_6_LD_10_RN_6_RD_12_0.png","img2/200/Incongruent/R/I_Dist_200_LN_3_LD_10_RN_1_RD_2_1.png","img2/500/Equal/R/E_Dist_500_LN_2_LD_12_RN_2_RD_3_1.png","img2/100/Incongruent/L/I_Dist_100_LN_3_LD_9_RN_7_RD_30_0.png","img2/500/Congruent/R/C_Dist_500_LN_2_LD_5_RN_9_RD_10_1.png","img2/300/Equal/R/E_Dist_300_LN_9_LD_20_RN_9_RD_12_1.png","img2/100/Equal/R/E_Dist_100_LN_6_LD_12_RN_6_RD_10_1.png","img2/200/Congruent/R/C_Dist_200_LN_6_LD_12_RN_7_RD_10_1.png","img2/200/Equal/L/E_Dist_200_LN_3_LD_6_RN_3_RD_10_0.png","img2/500/Congruent/R/C_Dist_500_LN_3_LD_12_RN_15_RD_20_1.png","img2/100/Incongruent/R/I_Dist_100_LN_11_LD_22_RN_9_RD_15_1.png","img2/200/Incongruent/L/I_Dist_200_LN_4_LD_6_RN_14_RD_30_0.png","img2/500/Congruent/L/C_Dist_500_LN_20_LD_28_RN_3_RD_14_0.png","img2/100/Congruent/R/C_Dist_100_LN_12_LD_30_RN_13_RD_26_1.png","img2/500/Incongruent/L/I_Dist_500_LN_2_LD_3_RN_4_RD_24_0.png","img2/100/Incongruent/L/I_Dist_100_LN_3_LD_5_RN_11_RD_22_0.png","img2/100/Congruent/R/C_Dist_100_LN_7_LD_14_RN_9_RD_15_1.png","img2/500/Equal/R/E_Dist_500_LN_6_LD_24_RN_6_RD_8_1.png","img2/100/Equal/R/E_Dist_100_LN_6_LD_12_RN_6_RD_10_1.png","img2/200/Congruent/R/C_Dist_200_LN_13_LD_26_RN_14_RD_20_1.png","img2/500/Equal/R/E_Dist_500_LN_2_LD_12_RN_2_RD_3_1.png","img2/300/Equal/L/E_Dist_300_LN_9_LD_12_RN_9_RD_20_0.png","img2/100/Incongruent/R/I_Dist_100_LN_17_LD_30_RN_10_RD_15_1.png","img2/300/Equal/R/E_Dist_300_LN_3_LD_10_RN_3_RD_5_1.png","img2/100/Congruent/R/C_Dist_100_LN_7_LD_14_RN_15_RD_25_1.png","img2/200/Incongruent/L/I_Dist_200_LN_4_LD_5_RN_6_RD_10_0.png","img2/300/Incongruent/L/I_Dist_300_LN_8_LD_10_RN_14_RD_28_0.png","img2/500/Equal/L/E_Dist_500_LN_6_LD_8_RN_6_RD_24_0.png","img2/300/Congruent/R/C_Dist_300_LN_1_LD_30_RN_8_RD_24_1.png","img2/500/Equal/L/E_Dist_500_LN_6_LD_8_RN_6_RD_24_0.png","img2/200/Incongruent/R/I_Dist_200_LN_11_LD_20_RN_3_RD_4_1.png","img2/300/Congruent/R/C_Dist_300_LN_5_LD_25_RN_7_RD_14_1.png","img2/200/Equal/L/E_Dist_200_LN_3_LD_6_RN_3_RD_10_0.png","img2/500/Incongruent/L/I_Dist_500_LN_5_LD_6_RN_6_RD_18_0.png","img2/500/Equal/R/E_Dist_500_LN_2_LD_12_RN_2_RD_3_1.png","img2/200/Congruent/R/C_Dist_200_LN_1_LD_2_RN_21_RD_30_1.png","img2/300/Congruent/R/C_Dist_300_LN_5_LD_25_RN_6_RD_12_1.png","img2/100/Equal/L/E_Dist_100_LN_6_LD_10_RN_6_RD_12_0.png","img2/100/Congruent/R/C_Dist_100_LN_2_LD_5_RN_11_RD_22_1.png","img2/100/Congruent/L/C_Dist_100_LN_15_LD_25_RN_13_RD_26_0.png","img2/500/Incongruent/L/I_Dist_500_LN_7_LD_8_RN_9_RD_24_0.png","img2/100/Congruent/L/C_Dist_100_LN_9_LD_15_RN_8_RD_16_0.png","img2/100/Congruent/R/C_Dist_100_LN_4_LD_8_RN_6_RD_10_1.png","img2/500/Equal/R/E_Dist_500_LN_2_LD_12_RN_2_RD_3_1.png","img2/500/Equal/R/E_Dist_500_LN_6_LD_24_RN_6_RD_8_1.png","img2/200/Congruent/R/C_Dist_200_LN_7_LD_15_RN_18_RD_27_1.png","img2/200/Congruent/R/C_Dist_200_LN_6_LD_12_RN_7_RD_10_1.png","img2/100/Incongruent/R/I_Dist_100_LN_12_LD_24_RN_9_RD_15_1.png","img2/100/Congruent/R/C_Dist_100_LN_1_LD_2_RN_18_RD_30_1.png","img2/300/Congruent/R/C_Dist_300_LN_7_LD_14_RN_20_RD_25_1.png","img2/100/Congruent/R/C_Dist_100_LN_1_LD_2_RN_18_RD_30_1.png","img2/200/Incongruent/R/I_Dist_200_LN_6_LD_20_RN_3_RD_6_1.png","img2/500/Incongruent/L/I_Dist_500_LN_2_LD_3_RN_4_RD_24_0.png","img2/300/Incongruent/L/I_Dist_300_LN_4_LD_5_RN_6_RD_12_0.png","img2/100/Equal/R/E_Dist_100_LN_6_LD_12_RN_6_RD_10_1.png","img2/500/Equal/L/E_Dist_500_LN_6_LD_8_RN_6_RD_24_0.png","img2/200/Incongruent/R/I_Dist_200_LN_14_LD_30_RN_12_RD_18_1.png","img2/500/Incongruent/R/I_Dist_500_LN_7_LD_21_RN_5_RD_6_1.png","img2/100/Equal/L/E_Dist_100_LN_6_LD_10_RN_6_RD_12_0.png","img2/300/Equal/L/E_Dist_300_LN_9_LD_12_RN_9_RD_20_0.png","img2/200/Equal/R/E_Dist_200_LN_3_LD_10_RN_3_RD_6_1.png","img2/500/Incongruent/R/I_Dist_500_LN_7_LD_21_RN_5_RD_6_1.png","img2/200/Equal/R/E_Dist_200_LN_3_LD_10_RN_3_RD_6_1.png","img2/200/Congruent/R/C_Dist_200_LN_1_LD_2_RN_21_RD_30_1.png","img2/500/Equal/R/E_Dist_500_LN_6_LD_24_RN_6_RD_8_1.png","img2/500/Equal/L/E_Dist_500_LN_6_LD_8_RN_6_RD_24_0.png","img2/300/Equal/L/E_Dist_300_LN_9_LD_12_RN_9_RD_20_0.png","img2/200/Congruent/L/C_Dist_200_LN_11_LD_22_RN_3_RD_10_0.png","img2/100/Equal/L/E_Dist_100_LN_2_LD_12_RN_2_RD_30_0.png","img2/300/Incongruent/R/I_Dist_300_LN_4_LD_20_RN_2_RD_4_1.png","img2/500/Congruent/L/C_Dist_500_LN_12_LD_16_RN_3_RD_12_0.png","img2/200/Incongruent/R/I_Dist_200_LN_6_LD_20_RN_3_RD_6_1.png","img2/500/Incongruent/R/I_Dist_500_LN_7_LD_21_RN_5_RD_6_1.png","img2/200/Equal/L/E_Dist_200_LN_3_LD_6_RN_3_RD_10_0.png","img2/300/Equal/L/E_Dist_300_LN_9_LD_12_RN_9_RD_20_0.png","img2/100/Incongruent/L/I_Dist_100_LN_2_LD_4_RN_6_RD_15_0.png","img2/200/Equal/L/E_Dist_200_LN_3_LD_6_RN_3_RD_10_0.png","img2/300/Incongruent/R/I_Dist_300_LN_13_LD_26_RN_12_RD_15_1.png","img2/200/Equal/L/E_Dist_200_LN_3_LD_6_RN_3_RD_10_0.png","img2/100/Incongruent/R/I_Dist_100_LN_8_LD_20_RN_1_RD_2_1.png","img2/100/Incongruent/R/I_Dist_100_LN_12_LD_30_RN_2_RD_4_1.png","img2/300/Congruent/R/C_Dist_300_LN_5_LD_25_RN_6_RD_12_1.png","img2/300/Equal/L/E_Dist_300_LN_9_LD_12_RN_9_RD_20_0.png","img2/300/Congruent/R/C_Dist_300_LN_3_LD_12_RN_11_RD_20_1.png","img2/300/Incongruent/R/I_Dist_300_LN_13_LD_26_RN_12_RD_15_1.png","img2/500/Incongruent/L/I_Dist_500_LN_7_LD_8_RN_9_RD_24_0.png","img2/100/Congruent/L/C_Dist_100_LN_10_LD_25_RN_3_RD_10_0.png","img2/100/Congruent/L/C_Dist_100_LN_10_LD_25_RN_3_RD_10_0.png","img2/300/Incongruent/L/I_Dist_300_LN_8_LD_10_RN_14_RD_28_0.png","img2/300/Congruent/L/C_Dist_300_LN_11_LD_22_RN_2_RD_10_0.png","img2/200/Equal/L/E_Dist_200_LN_3_LD_6_RN_3_RD_10_0.png","img2/200/Congruent/L/C_Dist_200_LN_8_LD_15_RN_3_RD_9_0.png","img2/500/Congruent/R/C_Dist_500_LN_1_LD_4_RN_9_RD_12_1.png","img2/200/Incongruent/R/I_Dist_200_LN_9_LD_15_RN_8_RD_10_1.png","img2/100/Equal/L/E_Dist_100_LN_2_LD_12_RN_2_RD_30_0.png","img2/200/Incongruent/R/I_Dist_200_LN_7_LD_15_RN_6_RD_9_1.png","img2/100/Equal/L/E_Dist_100_LN_6_LD_10_RN_6_RD_12_0.png","img2/300/Incongruent/L/I_Dist_300_LN_8_LD_10_RN_14_RD_28_0.png","img2/100/Congruent/L/C_Dist_100_LN_11_LD_22_RN_4_RD_10_0.png","img2/300/Equal/R/E_Dist_300_LN_18_LD_30_RN_18_RD_20_1.png","img2/200/Incongruent/R/I_Dist_200_LN_9_LD_15_RN_8_RD_10_1.png","img2/500/Incongruent/R/I_Dist_500_LN_7_LD_21_RN_5_RD_6_1.png","img2/100/Congruent/L/C_Dist_100_LN_8_LD_16_RN_2_RD_5_0.png","img2/500/Congruent/L/C_Dist_500_LN_25_LD_30_RN_9_RD_27_0.png","img2/100/Incongruent/L/I_Dist_100_LN_9_LD_10_RN_20_RD_25_0.png","img2/200/Equal/R/E_Dist_200_LN_3_LD_10_RN_3_RD_6_1.png","img2/200/Equal/L/E_Dist_200_LN_3_LD_6_RN_3_RD_10_0.png","img2/500/Incongruent/L/I_Dist_500_LN_5_LD_6_RN_6_RD_18_0.png","img2/300/Congruent/L/C_Dist_300_LN_24_LD_30_RN_2_RD_4_0.png","img2/300/Equal/L/E_Dist_300_LN_9_LD_12_RN_9_RD_20_0.png","img2/500/Congruent/L/C_Dist_500_LN_20_LD_24_RN_3_RD_9_0.png","img2/300/Congruent/R/C_Dist_300_LN_7_LD_14_RN_20_RD_25_1.png","img2/100/Equal/L/E_Dist_100_LN_2_LD_12_RN_2_RD_30_0.png","img2/500/Incongruent/L/I_Dist_500_LN_2_LD_3_RN_4_RD_24_0.png","img2/300/Congruent/L/C_Dist_300_LN_4_LD_5_RN_2_RD_4_0.png","img2/300/Equal/L/E_Dist_300_LN_9_LD_12_RN_9_RD_20_0.png","img2/100/Equal/R/E_Dist_100_LN_6_LD_12_RN_6_RD_10_1.png","img2/300/Incongruent/L/I_Dist_300_LN_2_LD_4_RN_6_RD_30_0.png","img2/200/Incongruent/R/I_Dist_200_LN_9_LD_15_RN_8_RD_10_1.png","img2/300/Equal/R/E_Dist_300_LN_9_LD_20_RN_9_RD_12_1.png","img2/200/Equal/R/E_Dist_200_LN_3_LD_10_RN_3_RD_6_1.png","img2/300/Congruent/L/C_Dist_300_LN_4_LD_10_RN_1_RD_10_0.png","img2/200/Congruent/L/C_Dist_200_LN_21_LD_30_RN_2_RD_4_0.png","img2/500/Equal/R/E_Dist_500_LN_2_LD_12_RN_2_RD_3_1.png","img2/300/Incongruent/R/I_Dist_300_LN_4_LD_20_RN_2_RD_4_1.png","img2/200/Congruent/L/C_Dist_200_LN_11_LD_22_RN_3_RD_10_0.png","img2/200/Equal/L/E_Dist_200_LN_3_LD_6_RN_3_RD_10_0.png","img2/500/Congruent/R/C_Dist_500_LN_10_LD_24_RN_22_RD_24_1.png","img2/500/Congruent/L/C_Dist_500_LN_18_LD_27_RN_1_RD_6_0.png","img2/200/Incongruent/L/I_Dist_200_LN_7_LD_10_RN_8_RD_16_0.png","img2/200/Equal/R/E_Dist_200_LN_3_LD_10_RN_3_RD_6_1.png","img2/300/Equal/L/E_Dist_300_LN_9_LD_12_RN_9_RD_20_0.png","img2/100/Incongruent/R/I_Dist_100_LN_11_LD_22_RN_9_RD_15_1.png","img2/200/Congruent/L/C_Dist_200_LN_8_LD_15_RN_7_RD_21_0.png","img2/100/Incongruent/L/I_Dist_100_LN_3_LD_6_RN_4_RD_10_0.png","img2/300/Equal/L/E_Dist_300_LN_9_LD_12_RN_9_RD_20_0.png","img2/500/Congruent/R/C_Dist_500_LN_2_LD_12_RN_4_RD_6_1.png","img2/100/Congruent/L/C_Dist_100_LN_3_LD_6_RN_2_RD_5_0.png","img2/200/Equal/R/E_Dist_200_LN_3_LD_10_RN_3_RD_6_1.png","img2/500/Congruent/R/C_Dist_500_LN_2_LD_8_RN_21_RD_28_1.png","img2/100/Equal/R/E_Dist_100_LN_6_LD_12_RN_6_RD_10_1.png","img2/100/Congruent/L/C_Dist_100_LN_8_LD_16_RN_2_RD_5_0.png","img2/300/Incongruent/L/I_Dist_300_LN_4_LD_5_RN_6_RD_12_0.png","img2/100/Equal/L/E_Dist_100_LN_6_LD_10_RN_6_RD_12_0.png","img2/100/Incongruent/R/I_Dist_100_LN_13_LD_26_RN_12_RD_20_1.png","img2/300/Equal/L/E_Dist_300_LN_9_LD_12_RN_9_RD_20_0.png"],"dist100_C":[["C_Dist_100_LN_10_LD_25_RN_3_RD_10_0.png","C_Dist_100_LN_11_LD_22_RN_4_RD_10_0.png","C_Dist_100_LN_11_LD_22_RN_6_RD_15_0.png","C_Dist_100_LN_15_LD_25_RN_13_RD_26_0.png","C_Dist_100_LN_3_LD_6_RN_2_RD_5_0.png","C_Dist_100_LN_6_LD_20_RN_5_RD_25_0.png","C_Dist_100_LN_8_LD_16_RN_2_RD_5_0.png","C_Dist_100_LN_9_LD_15_RN_8_RD_16_0.png"],["C_Dist_100_LN_1_LD_2_RN_18_RD_30_1.png","C_Dist_100_LN_1_LD_2_RN_3_RD_5_1.png","C_Dist_100_LN_12_LD_30_RN_13_RD_26_1.png","C_Dist_100_LN_2_LD_5_RN_11_RD_22_1.png","C_Dist_100_LN_2_LD_5_RN_6_RD_12_1.png","C_Dist_100_LN_3_LD_20_RN_4_RD_16_1.png","C_Dist_100_LN_4_LD_10_RN_15_RD_30_1.png","C_Dist_100_LN_4_LD_8_RN_6_RD_10_1.png","C_Dist_100_LN_6_LD_12_RN_15_RD_25_1.png","C_Dist_100_LN_7_LD_14_RN_15_RD_25_1.png","C_Dist_100_LN_7_LD_14_RN_9_RD_15_1.png"]],"dist100_I":[["I_Dist_100_LN_1_LD_2_RN_8_RD_20_0.png","I_Dist_100_LN_2_LD_4_RN_6_RD_15_0.png","I_Dist_100_LN_2_LD_4_RN_8_RD_20_0.png","I_Dist_100_LN_3_LD_5_RN_11_RD_22_0.png","I_Dist_100_LN_3_LD_5_RN_8_RD_16_0.png","I_Dist_100_LN_3_LD_6_RN_4_RD_10_0.png","I_Dist_100_LN_3_LD_9_RN_7_RD_30_0.png","I_Dist_100_LN_4_LD_8_RN_8_RD_20_0.png","I_Dist_100_LN_6_LD_10_RN_11_RD_22_0.png","I_Dist_100_LN_6_LD_10_RN_13_RD_26_0.png","I_Dist_100_LN_6_LD_10_RN_7_RD_14_0.png","I_Dist_100_LN_9_LD_10_RN_20_RD_25_0.png","I_Dist_100_LN_9_LD_15_RN_13_RD_26_0.png","I_Dist_100_LN_9_LD_15_RN_14_RD_28_0.png"],["I_Dist_100_LN_10_LD_25_RN_8_RD_16_1.png","I_Dist_100_LN_10_LD_25_RN_9_RD_18_1.png","I_Dist_100_LN_11_LD_22_RN_9_RD_15_1.png","I_Dist_100_LN_12_LD_24_RN_9_RD_15_1.png","I_Dist_100_LN_12_LD_30_RN_2_RD_4_1.png","I_Dist_100_LN_13_LD_26_RN_12_RD_20_1.png","I_Dist_100_LN_13_LD_26_RN_6_RD_10_1.png","I_Dist_100_LN_17_LD_30_RN_10_RD_15_1.png","I_Dist_100_LN_6_LD_12_RN_3_RD_5_1.png","I_Dist_100_LN_8_LD_16_RN_6_RD_10_1.png","I_Dist_100_LN_8_LD_20_RN_1_RD_2_1.png","I_Dist_100_LN_9_LD_18_RN_6_RD_10_1.png"]],"dist100_S":[["E_Dist_100_LN_2_LD_12_RN_2_RD_30_0.png","E_Dist_100_LN_6_LD_10_RN_6_RD_12_0.png"],["E_Dist_100_LN_6_LD_12_RN_6_RD_10_1.png"]],"dist200_C":[["C_Dist_200_LN_11_LD_22_RN_3_RD_10_0.png","C_Dist_200_LN_12_LD_15_RN_6_RD_10_0.png","C_Dist_200_LN_12_LD_20_RN_6_RD_15_0.png","C_Dist_200_LN_14_LD_28_RN_6_RD_20_0.png","C_Dist_200_LN_15_LD_25_RN_4_RD_10_0.png","C_Dist_200_LN_16_LD_20_RN_12_RD_20_0.png","C_Dist_200_LN_16_LD_30_RN_9_RD_27_0.png","C_Dist_200_LN_20_LD_25_RN_9_RD_15_0.png","C_Dist_200_LN_21_LD_30_RN_2_RD_4_0.png","C_Dist_200_LN_4_LD_10_RN_3_RD_15_0.png","C_Dist_200_LN_4_LD_8_RN_3_RD_10_0.png","C_Dist_200_LN_6_LD_15_RN_3_RD_15_0.png","C_Dist_200_LN_7_LD_21_RN_2_RD_15_0.png","C_Dist_200_LN_8_LD_15_RN_2_RD_6_0.png","C_Dist_200_LN_8_LD_15_RN_3_RD_9_0.png","C_Dist_200_LN_8_LD_15_RN_7_RD_21_0.png","C_Dist_200_LN_9_LD_20_RN_4_RD_16_0.png"],["C_Dist_200_LN_1_LD_2_RN_21_RD_30_1.png","C_Dist_200_LN_13_LD_26_RN_14_RD_20_1.png","C_Dist_200_LN_3_LD_10_RN_11_RD_22_1.png","C_Dist_200_LN_3_LD_10_RN_14_RD_28_1.png","C_Dist_200_LN_3_LD_10_RN_7_RD_14_1.png","C_Dist_200_LN_3_LD_12_RN_9_RD_20_1.png","C_Dist_200_LN_3_LD_6_RN_14_RD_20_1.png","C_Dist_200_LN_5_LD_10_RN_14_RD_20_1.png","C_Dist_200_LN_6_LD_12_RN_7_RD_10_1.png","C_Dist_200_LN_6_LD_20_RN_11_RD_22_1.png","C_Dist_200_LN_7_LD_15_RN_18_RD_27_1.png","C_Dist_200_LN_9_LD_30_RN_13_RD_26_1.png"]],"dist200_I":[["I_Dist_200_LN_1_LD_2_RN_3_RD_10_0.png","I_Dist_200_LN_1_LD_3_RN_2_RD_15_0.png","I_Dist_200_LN_3_LD_4_RN_11_RD_20_0.png","I_Dist_200_LN_4_LD_5_RN_6_RD_10_0.png","I_Dist_200_LN_4_LD_6_RN_14_RD_30_0.png","I_Dist_200_LN_7_LD_10_RN_12_RD_24_0.png","I_Dist_200_LN_7_LD_10_RN_14_RD_28_0.png","I_Dist_200_LN_7_LD_10_RN_8_RD_16_0.png"],["I_Dist_200_LN_11_LD_20_RN_3_RD_4_1.png","I_Dist_200_LN_14_LD_30_RN_12_RD_18_1.png","I_Dist_200_LN_14_LD_30_RN_6_RD_9_1.png","I_Dist_200_LN_3_LD_10_RN_1_RD_2_1.png","I_Dist_200_LN_4_LD_30_RN_1_RD_3_1.png","I_Dist_200_LN_6_LD_20_RN_3_RD_6_1.png","I_Dist_200_LN_7_LD_15_RN_4_RD_6_1.png","I_Dist_200_LN_7_LD_15_RN_6_RD_9_1.png","I_Dist_200_LN_9_LD_15_RN_8_RD_10_1.png"]],"dist200_S":[["E_Dist_200_LN_3_LD_6_RN_3_RD_10_0.png"],["E_Dist_200_LN_3_LD_10_RN_3_RD_6_1.png"]],"dist300_C":[["C_Dist_300_LN_11_LD_22_RN_1_RD_5_0.png","C_Dist_300_LN_11_LD_22_RN_2_RD_10_0.png","C_Dist_300_LN_11_LD_22_RN_4_RD_20_0.png","C_Dist_300_LN_12_LD_24_RN_2_RD_10_0.png","C_Dist_300_LN_18_LD_20_RN_9_RD_15_0.png","C_Dist_300_LN_20_LD_25_RN_13_RD_26_0.png","C_Dist_300_LN_20_LD_25_RN_14_RD_28_0.png","C_Dist_300_LN_20_LD_25_RN_5_RD_10_0.png","C_Dist_300_LN_20_LD_25_RN_8_RD_16_0.png","C_Dist_300_LN_20_LD_25_RN_9_RD_18_0.png","C_Dist_300_LN_24_LD_30_RN_2_RD_4_0.png","C_Dist_300_LN_24_LD_30_RN_8_RD_16_0.png","C_Dist_300_LN_3_LD_6_RN_2_RD_10_0.png","C_Dist_300_LN_4_LD_10_RN_1_RD_10_0.png","C_Dist_300_LN_4_LD_5_RN_2_RD_4_0.png","C_Dist_300_LN_8_LD_16_RN_1_RD_5_0.png","C_Dist_300_LN_9_LD_10_RN_3_RD_5_0.png"],["C_Dist_300_LN_1_LD_20_RN_7_RD_20_1.png","C_Dist_300_LN_1_LD_3_RN_19_RD_30_1.png","C_Dist_300_LN_1_LD_30_RN_8_RD_24_1.png","C_Dist_300_LN_1_LD_5_RN_11_RD_22_1.png","C_Dist_300_LN_1_LD_5_RN_3_RD_6_1.png","C_Dist_300_LN_1_LD_5_RN_6_RD_12_1.png","C_Dist_300_LN_2_LD_10_RN_12_RD_24_1.png","C_Dist_300_LN_2_LD_20_RN_10_RD_25_1.png","C_Dist_300_LN_3_LD_12_RN_11_RD_20_1.png","C_Dist_300_LN_3_LD_6_RN_4_RD_5_1.png","C_Dist_300_LN_4_LD_20_RN_13_RD_26_1.png","C_Dist_300_LN_5_LD_25_RN_6_RD_12_1.png","C_Dist_300_LN_5_LD_25_RN_7_RD_14_1.png","C_Dist_300_LN_7_LD_14_RN_20_RD_25_1.png","C_Dist_300_LN_8_LD_15_RN_10_RD_12_1.png"]],"dist300_I":[["I_Dist_300_LN_1_LD_2_RN_2_RD_10_0.png","I_Dist_300_LN_1_LD_2_RN_3_RD_15_0.png","I_Dist_300_LN_2_LD_4_RN_6_RD_30_0.png","I_Dist_300_LN_3_LD_6_RN_4_RD_20_0.png","I_Dist_300_LN_4_LD_5_RN_6_RD_12_0.png","I_Dist_300_LN_4_LD_5_RN_8_RD_16_0.png","I_Dist_300_LN_7_LD_10_RN_8_RD_20_0.png","I_Dist_300_LN_8_LD_10_RN_14_RD_28_0.png","I_Dist_300_LN_8_LD_10_RN_9_RD_18_0.png"],["I_Dist_300_LN_13_LD_26_RN_12_RD_15_1.png","I_Dist_300_LN_4_LD_20_RN_2_RD_4_1.png"]],"dist300_S":[["E_Dist_300_LN_9_LD_12_RN_9_RD_20_0.png"],["E_Dist_300_LN_18_LD_30_RN_18_RD_20_1.png","E_Dist_300_LN_3_LD_10_RN_3_RD_5_1.png","E_Dist_300_LN_9_LD_20_RN_9_RD_12_1.png"]],"dist500_C":[["C_Dist_500_LN_10_LD_13_RN_7_RD_26_0.png","C_Dist_500_LN_10_LD_15_RN_4_RD_24_0.png","C_Dist_500_LN_12_LD_16_RN_3_RD_12_0.png","C_Dist_500_LN_12_LD_18_RN_4_RD_24_0.png","C_Dist_500_LN_15_LD_18_RN_5_RD_15_0.png","C_Dist_500_LN_15_LD_20_RN_1_RD_4_0.png","C_Dist_500_LN_18_LD_27_RN_1_RD_6_0.png","C_Dist_500_LN_20_LD_24_RN_1_RD_3_0.png","C_Dist_500_LN_20_LD_24_RN_3_RD_9_0.png","C_Dist_500_LN_20_LD_24_RN_7_RD_21_0.png","C_Dist_500_LN_20_LD_28_RN_3_RD_14_0.png","C_Dist_500_LN_21_LD_28_RN_6_RD_24_0.png","C_Dist_500_LN_22_LD_28_RN_2_RD_7_0.png","C_Dist_500_LN_25_LD_30_RN_9_RD_27_0.png","C_Dist_500_LN_4_LD_6_RN_1_RD_6_0.png","C_Dist_500_LN_5_LD_6_RN_2_RD_6_0.png","C_Dist_500_LN_6_LD_9_RN_1_RD_6_0.png","C_Dist_500_LN_7_LD_10_RN_1_RD_5_0.png","C_Dist_500_LN_8_LD_12_RN_1_RD_6_0.png","C_Dist_500_LN_8_LD_12_RN_4_RD_24_0.png"],["C_Dist_500_LN_1_LD_4_RN_12_RD_16_1.png","C_Dist_500_LN_1_LD_4_RN_9_RD_12_1.png","C_Dist_500_LN_1_LD_9_RN_11_RD_18_1.png","C_Dist_500_LN_10_LD_24_RN_22_RD_24_1.png","C_Dist_500_LN_2_LD_12_RN_10_RD_15_1.png","C_Dist_500_LN_2_LD_12_RN_12_RD_18_1.png","C_Dist_500_LN_2_LD_12_RN_4_RD_6_1.png","C_Dist_500_LN_2_LD_24_RN_7_RD_12_1.png","C_Dist_500_LN_2_LD_5_RN_18_RD_20_1.png","C_Dist_500_LN_2_LD_5_RN_9_RD_10_1.png","C_Dist_500_LN_2_LD_8_RN_12_RD_16_1.png","C_Dist_500_LN_2_LD_8_RN_21_RD_28_1.png","C_Dist_500_LN_3_LD_10_RN_4_RD_5_1.png","C_Dist_500_LN_3_LD_12_RN_15_RD_20_1.png","C_Dist_500_LN_3_LD_30_RN_6_RD_10_1.png","C_Dist_500_LN_3_LD_8_RN_14_RD_16_1.png","C_Dist_500_LN_4_LD_16_RN_15_RD_20_1.png","C_Dist_500_LN_4_LD_24_RN_12_RD_18_1.png","C_Dist_500_LN_5_LD_14_RN_6_RD_7_1.png","C_Dist_500_LN_7_LD_21_RN_20_RD_24_1.png","C_Dist_500_LN_7_LD_28_RN_12_RD_16_1.png","C_Dist_500_LN_7_LD_28_RN_9_RD_12_1.png","C_Dist_500_LN_9_LD_27_RN_20_RD_24_1.png"]],"dist500_I":[["I_Dist_500_LN_2_LD_3_RN_4_RD_24_0.png","I_Dist_500_LN_5_LD_6_RN_6_RD_18_0.png","I_Dist_500_LN_7_LD_8_RN_9_RD_24_0.png"],["I_Dist_500_LN_7_LD_21_RN_5_RD_6_1.png"]],"dist500_S":[["E_Dist_500_LN_6_LD_8_RN_6_RD_24_0.png"],["E_Dist_500_LN_2_LD_12_RN_2_RD_3_1.png","E_Dist_500_LN_6_LD_24_RN_6_RD_8_1.png"]]}},{"start_time":1452098844396,"click_time":1452098846132,"finger_time":1452098845770,"fix_duration":1194.2931351555594,"trial":1,"RT":1374,"MT":362,"sideResp":1,"stimulus":[],"xmouse":[485.7666931152344,485.7666931152344,485.7666931152344,485.7666931152344,485.7666931152344,485.7666931152344,485.7666931152344,484.1199951171875,484.1199951171875,484.1199951171875,484.1199951171875,484.1199951171875,484.1199951171875,483.29669189453125,483.29669189453125,483.29669189453125,483.29669189453125,483.29669189453125,483.29669189453125,483.29669189453125,483.29669189453125,483.29669189453125,483.29669189453125,482.4733581542969,482.4733581542969,482.4733581542969,482.4733581542969,482.4733581542969,482.4733581542969,482.4733581542969,482.4733581542969,482.4733581542969,482.4733581542969,482.4733581542969,481.6500244140625,481.6500244140625,481.6500244140625,481.6500244140625,481.6500244140625,481.6500244140625,481.6500244140625,481.6500244140625,481.6500244140625,481.6500244140625,481.6500244140625,481.6500244140625,481.6500244140625,481.6500244140625,481.6500244140625,481.6500244140625,481.6500244140625,481.6500244140625,481.6500244140625,481.6500244140625,480.8266906738281,480.8266906738281,480.8266906738281,480.8266906738281,480.8266906738281,480.8266906738281,480.8266906738281,479.1800231933594,479.1800231933594,478.356689453125,478.356689453125,476.71002197265625,473.41668701171875,472.5933532714844,469.3000183105469,465.1833801269531,450.3633728027344,419.0766906738281,407.5500183105469,382.02667236328125,369.67669677734375,346.62335205078125,308.75,299.693359375,274.99334716796875,261.82000732421875,237.94334411621094,211.5966796875,187.72000122070312,176.19334411621094,156.433349609375,147.37667846679688,130.91000366210938],"ymouse":[888.376708984375,888.376708984375,888.376708984375,888.376708984375,888.376708984375,888.376708984375,888.376708984375,885.0833740234375,885.0833740234375,885.0833740234375,885.0833740234375,885.0833740234375,885.90673828125,885.90673828125,885.90673828125,885.90673828125,885.90673828125,885.90673828125,885.90673828125,885.90673828125,885.90673828125,885.90673828125,885.90673828125,885.90673828125,885.90673828125,885.90673828125,885.90673828125,885.90673828125,885.90673828125,885.90673828125,885.90673828125,885.90673828125,885.90673828125,885.90673828125,886.7300415039062,886.7300415039062,886.7300415039062,886.7300415039062,886.7300415039062,886.7300415039062,886.7300415039062,886.7300415039062,886.7300415039062,886.7300415039062,885.90673828125,885.90673828125,885.90673828125,885.90673828125,885.90673828125,885.90673828125,885.90673828125,885.90673828125,885.90673828125,885.90673828125,886.7300415039062,886.7300415039062,886.7300415039062,886.7300415039062,886.7300415039062,886.7300415039062,886.7300415039062,883.4367065429688,882.6134033203125,880.1433715820312,879.3200073242188,875.203369140625,865.3233642578125,860.3833618164062,848.0333862304688,835.683349609375,797.8099975585938,731.1199951171875,707.2433471679688,655.3733520507812,626.5567016601562,568.92333984375,473.41668701171875,443.7767028808594,380.3800048828125,348.27001953125,291.4599914550781,241.23667907714844,196.7766876220703,176.19334411621094,139.9666748046875,125.14667510986328,94.68334197998047],"timestamp_mouse":[7,42,55,74,94,114,134,154,174,194,215,235,254,275,294,315,334,354,374,394,414,435,454,474,494,514,534,554,574,594,614,634,654,674,694,715,735,754,774,795,814,835,854,874,895,914,934,954,974,994,1014,1034,1055,1074,1094,1115,1134,1154,1174,1194,1214,1235,1255,1274,1294,1315,1335,1354,1374,1394,1414,1435,1455,1474,1495,1514,1535,1555,1574,1594,1614,1636,1655,1674,1694,1714,1735],"xSR":440,"ySR":852.6,"xT1":48,"yT1":0,"xT2":832,"yT2":0,"toosoon":0,"cond_shown":"Congruent","ratio_trial":200,"L_num":8,"L_den":15,"R_num":2,"R_den":6,"correct_side":1,"subjID":"5","gender":"No_gender","school":"No_school","age":"No_age"},{"start_time":1452098848381,"click_time":1452098854111,"finger_time":1452098852770,"fix_duration":648.6785959643144,"trial":2,"RT":4389,"MT":1341,"sideResp":1,"stimulus":[],"xmouse":[492.3533630371094,492.3533630371094,492.3533630371094,492.3533630371094,492.3533630371094,492.3533630371094,492.3533630371094,492.3533630371094,490.7066955566406,490.7066955566406,490.7066955566406,490.7066955566406,489.88336181640625,489.05999755859375,489.05999755859375,489.05999755859375,489.05999755859375,489.05999755859375,489.05999755859375,489.88336181640625,489.88336181640625,489.88336181640625,489.88336181640625,489.05999755859375,489.05999755859375,489.05999755859375,489.05999755859375,489.05999755859375,489.05999755859375,489.05999755859375,489.05999755859375,489.05999755859375,489.05999755859375,488.2366943359375,488.2366943359375,488.2366943359375,488.2366943359375,488.2366943359375,489.05999755859375,489.05999755859375,489.05999755859375,489.88336181640625,492.3533630371094,495.6466979980469,496.4700012207031,498.94000244140625,499.76336669921875,500.5867004394531,500.5867004394531,500.5867004394531,500.5867004394531,500.5867004394531,500.5867004394531,500.5867004394531,500.5867004394531,499.76336669921875,499.76336669921875,499.76336669921875,499.76336669921875,499.76336669921875,499.76336669921875,499.76336669921875,499.76336669921875,499.76336669921875,495.6466979980469,495.6466979980469,495.6466979980469,495.6466979980469,495.6466979980469,495.6466979980469,495.6466979980469,495.6466979980469,495.6466979980469,495.6466979980469,494,494,494,494,494,494,494,494,494,494,493.17669677734375,493.17669677734375,493.17669677734375,493.17669677734375,493.17669677734375,493.17669677734375,493.17669677734375,493.17669677734375,493.17669677734375,493.17669677734375,491.5299987792969,491.5299987792969,491.5299987792969,491.5299987792969,491.5299987792969,491.5299987792969,491.5299987792969,491.5299987792969,491.5299987792969,491.5299987792969,489.05999755859375,489.05999755859375,489.05999755859375,489.05999755859375,489.05999755859375,489.05999755859375,489.05999755859375,489.05999755859375,489.05999755859375,489.05999755859375,488.2366943359375,488.2366943359375,487.4133605957031,487.4133605957031,487.4133605957031,487.4133605957031,486.5899963378906,486.5899963378906,486.5899963378906,486.5899963378906,486.5899963378906,486.5899963378906,485.7666931152344,485.7666931152344,485.7666931152344,485.7666931152344,485.7666931152344,485.7666931152344,485.7666931152344,485.7666931152344,484.943359375,484.943359375,484.943359375,484.943359375,484.943359375,484.943359375,484.1199951171875,484.1199951171875,484.1199951171875,484.1199951171875,484.1199951171875,484.1199951171875,484.1199951171875,484.1199951171875,484.1199951171875,484.1199951171875,475.8866882324219,475.0633544921875,473.41668701171875,472.5933532714844,470.1233825683594,470.1233825683594,470.1233825683594,470.1233825683594,470.1233825683594,466.83001708984375,466.83001708984375,466.83001708984375,466.0066833496094,465.1833801269531,463.53668212890625,462.71337890625,461.8900146484375,461.0666809082031,460.2433776855469,460.2433776855469,458.5966796875,457.77337646484375,456.95001220703125,456.1266784667969,455.3033752441406,454.4800109863281,454.4800109863281,453.65667724609375,453.65667724609375,452.8333740234375,452.8333740234375,452.010009765625,452.010009765625,452.010009765625,452.010009765625,452.010009765625,452.010009765625,452.010009765625,452.010009765625,452.010009765625,452.010009765625,452.010009765625,452.010009765625,450.3633728027344,450.3633728027344,450.3633728027344,450.3633728027344,447.89337158203125,447.89337158203125,447.89337158203125,447.89337158203125,447.89337158203125,447.89337158203125,447.89337158203125,447.89337158203125,447.89337158203125,448.7166748046875,448.7166748046875,448.7166748046875,449.5400085449219,449.5400085449219,449.5400085449219,449.5400085449219,447.89337158203125,445.4233703613281,443.7767028808594,442.953369140625,441.30670166015625,440.4833679199219,438.8367004394531,437.19000244140625,436.36669921875,435.5433654785156,434.7200012207031,432.25,431.42669677734375,428.9566955566406,428.13336181640625,425.6633605957031,420.7233581542969,419.8999938964844,416.606689453125,414.96002197265625,412.4900207519531,407.5500183105469,405.08001708984375,401.78668212890625,399.3166809082031,394.3766784667969,386.14337158203125,383.6733703613281,377.9100036621094,374.61669921875,368.8533630371094,359.79669189453125,357.3266906738281,354.856689453125,349.91668701171875,347.4466857910156,342.5066833496094,335.9200134277344,333.45001220703125,328.510009765625,325.2166748046875,316.9833679199219,309.5733337402344,304.6333312988281,294.75335693359375,290.6366882324219,277.4633483886719,269.2300109863281,265.9366760253906,259.3500061035156,256.0566711425781,249.47000122070312,240.41334533691406,233.82669067382812,229.7100067138672,221.4766845703125,217.36000061035156,205.010009765625,197.60000610351562,193.48333740234375,186.07334899902344,182.77999877929688,173.7233428955078,167.9600067138672,164.66668701171875,158.90333557128906,153.96334838867188,148.1999969482422,145.72999572753906,139.9666748046875,137.49667358398438,132.55667114257812,125.97000122070312,123.5],"ymouse":[907.3133544921875,907.3133544921875,907.3133544921875,907.3133544921875,907.3133544921875,907.3133544921875,907.3133544921875,907.3133544921875,905.666748046875,905.666748046875,905.666748046875,905.666748046875,903.1967163085938,902.3733520507812,902.3733520507812,902.3733520507812,902.3733520507812,902.3733520507812,902.3733520507812,902.3733520507812,902.3733520507812,902.3733520507812,902.3733520507812,901.550048828125,901.550048828125,901.550048828125,902.3733520507812,901.550048828125,901.550048828125,901.550048828125,901.550048828125,901.550048828125,901.550048828125,900.7267456054688,900.7267456054688,899.9033813476562,899.9033813476562,899.9033813476562,898.2567138671875,897.433349609375,896.6100463867188,896.6100463867188,894.1400146484375,890.0233764648438,888.376708984375,885.90673828125,884.260009765625,882.6134033203125,880.9667358398438,880.9667358398438,880.9667358398438,880.9667358398438,880.1433715820312,880.9667358398438,880.9667358398438,880.9667358398438,880.9667358398438,880.9667358398438,880.9667358398438,880.9667358398438,880.9667358398438,880.9667358398438,880.9667358398438,880.9667358398438,882.6134033203125,882.6134033203125,882.6134033203125,882.6134033203125,882.6134033203125,882.6134033203125,882.6134033203125,882.6134033203125,882.6134033203125,882.6134033203125,883.4367065429688,883.4367065429688,883.4367065429688,883.4367065429688,883.4367065429688,883.4367065429688,883.4367065429688,883.4367065429688,883.4367065429688,883.4367065429688,882.6134033203125,882.6134033203125,882.6134033203125,882.6134033203125,882.6134033203125,882.6134033203125,882.6134033203125,882.6134033203125,882.6134033203125,882.6134033203125,881.7900390625,881.7900390625,881.7900390625,881.7900390625,881.7900390625,881.7900390625,881.7900390625,881.7900390625,881.7900390625,881.7900390625,880.9667358398438,880.9667358398438,880.9667358398438,880.9667358398438,880.9667358398438,880.9667358398438,880.9667358398438,880.9667358398438,880.9667358398438,880.9667358398438,885.0833740234375,885.0833740234375,885.0833740234375,885.0833740234375,885.90673828125,885.90673828125,885.90673828125,885.90673828125,885.90673828125,885.90673828125,885.90673828125,885.90673828125,885.90673828125,886.7300415039062,886.7300415039062,886.7300415039062,886.7300415039062,886.7300415039062,886.7300415039062,886.7300415039062,886.7300415039062,885.90673828125,885.90673828125,885.90673828125,885.90673828125,885.90673828125,885.90673828125,885.90673828125,885.90673828125,885.90673828125,885.90673828125,885.90673828125,885.90673828125,885.90673828125,885.90673828125,885.90673828125,882.6134033203125,881.7900390625,880.9667358398438,880.1433715820312,880.9667358398438,880.9667358398438,880.9667358398438,880.9667358398438,880.9667358398438,891.6700439453125,893.3167114257812,894.1400146484375,894.1400146484375,894.1400146484375,894.96337890625,894.96337890625,894.96337890625,894.1400146484375,894.1400146484375,894.1400146484375,887.5534057617188,885.90673828125,884.260009765625,881.7900390625,879.3200073242188,878.4967651367188,876.8500366210938,876.8500366210938,876.0267333984375,876.0267333984375,876.0267333984375,876.0267333984375,876.8500366210938,877.6734008789062,877.6734008789062,877.6734008789062,877.6734008789062,882.6134033203125,883.4367065429688,883.4367065429688,883.4367065429688,883.4367065429688,883.4367065429688,882.6134033203125,882.6134033203125,882.6134033203125,882.6134033203125,879.3200073242188,878.4967651367188,879.3200073242188,879.3200073242188,879.3200073242188,879.3200073242188,883.4367065429688,883.4367065429688,885.90673828125,886.7300415039062,886.7300415039062,887.5534057617188,886.7300415039062,886.7300415039062,886.7300415039062,886.7300415039062,879.3200073242188,872.7333984375,867.7933959960938,865.3233642578125,860.3833618164062,857.9133911132812,853.7967529296875,847.2100219726562,846.38671875,843.0933837890625,842.27001953125,838.9767456054688,837.3300170898438,835.683349609375,834.0367431640625,829.9200439453125,822.510009765625,818.3933715820312,811.8067626953125,807.6900024414062,799.4567260742188,784.63671875,779.6967163085938,768.1700439453125,762.40673828125,750.8800048828125,732.7667236328125,727.0033569335938,714.6533813476562,708.0667114257812,695.7167358398438,677.6033935546875,671.8400268554688,666.9000244140625,656.1967163085938,651.2567138671875,642.2000122070312,627.3800048828125,622.4400024414062,611.7366943359375,606.7966918945312,589.5067138671875,575.510009765625,566.453369140625,547.5166625976562,538.4600219726562,508.82000732421875,488.2366943359375,479.1800231933594,461.0666809082031,453.65667724609375,436.36669921875,414.1366882324219,395.20001220703125,385.32000732421875,362.2666931152344,350.7400207519531,317.8066711425781,295.5766906738281,284.87335205078125,264.2900085449219,255.23333740234375,228.06333923339844,211.5966796875,203.36334228515625,186.8966827392578,172.07667541503906,157.2566680908203,150.6699981689453,138.32000732421875,131.73333740234375,118.56000518798828,100.44667053222656,94.68334197998047],"timestamp_mouse":[9,32,49,69,89,109,129,149,169,189,209,229,249,269,290,309,330,350,369,389,409,429,449,469,489,509,530,549,569,590,609,629,649,669,689,709,729,749,769,791,809,829,850,871,889,909,929,949,971,990,1009,1029,1049,1069,1089,1109,1129,1149,1169,1190,1209,1230,1249,1270,1289,1309,1329,1349,1369,1389,1409,1429,1449,1469,1489,1510,1529,1549,1570,1590,1609,1629,1649,1669,1689,1709,1729,1749,1769,1790,1809,1829,1849,1869,1889,1909,1930,1949,1970,1989,2009,2029,2049,2069,2089,2109,2130,2149,2170,2190,2209,2230,2250,2270,2289,2309,2330,2349,2370,2390,2409,2430,2450,2470,2490,2510,2529,2549,2569,2589,2609,2629,2649,2669,2689,2709,2730,2749,2770,2789,2809,2829,2849,2869,2889,2910,2930,2950,2969,2990,3010,3029,3050,3070,3091,3109,3130,3150,3170,3190,3209,3229,3249,3270,3289,3310,3329,3349,3369,3389,3410,3429,3449,3469,3490,3509,3529,3550,3569,3589,3609,3629,3649,3669,3690,3709,3729,3749,3769,3791,3810,3829,3850,3870,3891,3909,3930,3949,3969,3989,4009,4029,4049,4069,4089,4109,4129,4149,4170,4193,4209,4229,4249,4269,4291,4309,4329,4349,4370,4389,4409,4429,4449,4469,4491,4510,4529,4551,4569,4591,4610,4629,4649,4669,4692,4710,4730,4749,4774,4793,4809,4829,4849,4869,4891,4909,4929,4949,4969,4990,5009,5029,5049,5069,5091,5109,5129,5149,5169,5192,5211,5230,5249,5269,5289,5309,5329,5349,5369,5389,5409,5430,5450,5469,5489,5509,5529,5549,5570,5593,5610,5629,5649,5669,5689,5709,5729],"xSR":440,"ySR":852.6,"xT1":48,"yT1":0,"xT2":832,"yT2":0,"toosoon":0,"cond_shown":"Incongruent","ratio_trial":300,"L_num":4,"L_den":20,"R_num":2,"R_den":4,"correct_side":2,"subjID":"5","gender":"No_gender","school":"No_school","age":"No_age"},{"start_time":1452098856550,"click_time":1452098857971,"finger_time":1452098857430,"fix_duration":779.4127287053325,"trial":3,"RT":880,"MT":541,"sideResp":1,"stimulus":[],"xmouse":[489,489,489,489,489,489,489,489,489,489,489,489,489,489,489,489,489,489,489,489,479.1800231933594,479.1800231933594,479.1800231933594,479.1800231933594,479.1800231933594,479.1800231933594,479.1800231933594,479.1800231933594,479.1800231933594,479.1800231933594,479.1800231933594,478.356689453125,478.356689453125,478.356689453125,478.356689453125,478.356689453125,478.356689453125,478.356689453125,477.5333557128906,475.8866882324219,475.0633544921875,472.5933532714844,471.77001953125,466.83001708984375,461.8900146484375,458.5966796875,452.010009765625,447.07000732421875,426.4866943359375,417.4300231933594,395.20001220703125,385.32000732421875,363.9133605957031,327.6866760253906,314.5133361816406,290.6366882324219,278.28668212890625,258.52667236328125,237.94334411621094,219.8300018310547,211.5966796875,195.95333862304688,190.19000244140625,171.2533416748047,162.19668579101562,156.433349609375,150.6699981689453,148.1999969482422,139.14334106445312,133.3800048828125,130.086669921875,127.61666870117188],"ymouse":[899,899,899,899,899,899,899,899,899,899,899,899,899,899,899,899,899,899,899,899,898.2567138671875,899.0800170898438,899.0800170898438,898.2567138671875,898.2567138671875,898.2567138671875,897.433349609375,896.6100463867188,895.7867431640625,895.7867431640625,894.96337890625,894.96337890625,894.96337890625,894.96337890625,894.96337890625,894.1400146484375,893.3167114257812,892.4933471679688,889.2000122070312,884.260009765625,881.7900390625,875.203369140625,871.9100341796875,860.3833618164062,850.5033569335938,843.916748046875,832.3900146484375,824.15673828125,788.7533569335938,769.8167114257812,727.0033569335938,705.5967407226562,659.489990234375,585.3900146484375,557.3966674804688,494,464.3600158691406,410.02001953125,360.6199951171875,316.1600036621094,296.3999938964844,260.9966735839844,242.8833465576172,196.7766876220703,170.4300079345703,153.96334838867188,141.61334228515625,135.85000610351562,116.09000396728516,105.38667297363281,100.44667053222656,93.86000061035156],"timestamp_mouse":[7,20,41,61,80,100,120,140,161,180,200,220,240,260,280,300,321,340,360,380,400,421,440,460,480,500,520,540,560,580,600,621,640,661,680,701,720,740,760,780,800,820,841,860,880,900,920,940,960,980,1000,1021,1040,1062,1080,1100,1120,1140,1161,1182,1200,1220,1240,1260,1281,1300,1321,1340,1361,1380,1400,1420],"xSR":440,"ySR":852.6,"xT1":48,"yT1":0,"xT2":832,"yT2":0,"toosoon":0,"cond_shown":"Congruent","ratio_trial":500,"L_num":20,"L_den":24,"R_num":1,"R_den":3,"correct_side":1,"subjID":"5","gender":"No_gender","school":"No_school","age":"No_age"},{"start_time":1452098860855,"click_time":1452098864654,"finger_time":1452098864310,"fix_duration":1304.8806029255861,"trial":4,"RT":3455,"MT":344,"sideResp":1,"stimulus":[],"xmouse":[472.5933532714844,499.76336669921875,498.94000244140625,498.94000244140625,498.11669921875,497.2933654785156,497.2933654785156,496.4700012207031,495.6466979980469,494.8233642578125,494.8233642578125,494,494,494,494,493.17669677734375,493.17669677734375,493.17669677734375,492.3533630371094,491.5299987792969,491.5299987792969,491.5299987792969,490.7066955566406,490.7066955566406,490.7066955566406,489.88336181640625,489.88336181640625,489.05999755859375,489.05999755859375,488.2366943359375,487.4133605957031,487.4133605957031,486.5899963378906,486.5899963378906,485.7666931152344,485.7666931152344,485.7666931152344,485.7666931152344,484.943359375,484.943359375,484.1199951171875,484.1199951171875,484.1199951171875,483.29669189453125,482.4733581542969,482.4733581542969,482.4733581542969,481.6500244140625,480.8266906738281,480.8266906738281,480.8266906738281,480.8266906738281,480.00335693359375,480.00335693359375,479.1800231933594,479.1800231933594,479.1800231933594,479.1800231933594,479.1800231933594,480.00335693359375,481.6500244140625,481.6500244140625,481.6500244140625,481.6500244140625,481.6500244140625,481.6500244140625,481.6500244140625,481.6500244140625,481.6500244140625,481.6500244140625,481.6500244140625,481.6500244140625,481.6500244140625,481.6500244140625,481.6500244140625,481.6500244140625,481.6500244140625,481.6500244140625,481.6500244140625,481.6500244140625,481.6500244140625,481.6500244140625,481.6500244140625,481.6500244140625,481.6500244140625,481.6500244140625,481.6500244140625,481.6500244140625,481.6500244140625,481.6500244140625,481.6500244140625,481.6500244140625,481.6500244140625,481.6500244140625,481.6500244140625,481.6500244140625,443,451.1866760253906,452.010009765625,452.010009765625,463.53668212890625,466.0066833496094,470.9466857910156,473.41668701171875,479.1800231933594,480.00335693359375,483.29669189453125,484.1199951171875,486.5899963378906,489.05999755859375,489.88336181640625,491.5299987792969,492.3533630371094,493.17669677734375,494,494,494,494,493.17669677734375,493.17669677734375,494,494,494,494,495.6466979980469,495.6466979980469,496.4700012207031,496.4700012207031,497.2933654785156,497.2933654785156,497.2933654785156,497.2933654785156,497.2933654785156,497.2933654785156,498.11669921875,498.11669921875,498.11669921875,498.94000244140625,498.94000244140625,499.76336669921875,499.76336669921875,500.5867004394531,500.5867004394531,500.5867004394531,500.5867004394531,500.5867004394531,500.5867004394531,500.5867004394531,500.5867004394531,500.5867004394531,500.5867004394531,501.4100036621094,501.4100036621094,501.4100036621094,502.2333679199219,502.2333679199219,502.2333679199219,502.2333679199219,502.2333679199219,502.2333679199219,502.2333679199219,502.2333679199219,502.2333679199219,502.2333679199219,502.2333679199219,501.4100036621094,501.4100036621094,499.76336669921875,498.94000244140625,493.17669677734375,487.4133605957031,484.1199951171875,469.3000183105469,447.07000732421875,408.37335205078125,394.3766784667969,363.9133605957031,349.0933532714844,320.27667236328125,292.2833557128906,267.5833435058594,257.7033386230469,235.4733428955078,225.5933380126953,206.65667724609375,174.5466766357422,162.19668579101562,142.43667602539062,132.55667114257812,109.50334167480469],"ymouse":[887.5534057617188,894.1400146484375,893.3167114257812,890.8467407226562,890.0233764648438,889.2000122070312,890.0233764648438,890.0233764648438,890.8467407226562,891.6700439453125,891.6700439453125,891.6700439453125,891.6700439453125,892.4933471679688,892.4933471679688,893.3167114257812,894.1400146484375,894.1400146484375,894.96337890625,894.96337890625,894.96337890625,894.96337890625,894.1400146484375,894.1400146484375,894.1400146484375,894.1400146484375,893.3167114257812,893.3167114257812,893.3167114257812,893.3167114257812,894.1400146484375,894.1400146484375,894.1400146484375,894.96337890625,894.96337890625,894.96337890625,894.96337890625,894.96337890625,894.1400146484375,894.1400146484375,894.1400146484375,893.3167114257812,892.4933471679688,891.6700439453125,891.6700439453125,891.6700439453125,892.4933471679688,892.4933471679688,892.4933471679688,892.4933471679688,892.4933471679688,892.4933471679688,892.4933471679688,892.4933471679688,892.4933471679688,891.6700439453125,891.6700439453125,891.6700439453125,890.8467407226562,890.0233764648438,889.2000122070312,889.2000122070312,889.2000122070312,889.2000122070312,889.2000122070312,889.2000122070312,889.2000122070312,889.2000122070312,889.2000122070312,889.2000122070312,889.2000122070312,889.2000122070312,889.2000122070312,889.2000122070312,889.2000122070312,889.2000122070312,889.2000122070312,889.2000122070312,889.2000122070312,889.2000122070312,889.2000122070312,889.2000122070312,889.2000122070312,889.2000122070312,889.2000122070312,889.2000122070312,889.2000122070312,889.2000122070312,889.2000122070312,889.2000122070312,889.2000122070312,889.2000122070312,889.2000122070312,889.2000122070312,889.2000122070312,889.2000122070312,918,910.6067504882812,909.7833862304688,909.7833862304688,906.489990234375,905.666748046875,905.666748046875,904.8433837890625,904.8433837890625,904.8433837890625,904.02001953125,904.02001953125,904.02001953125,902.3733520507812,902.3733520507812,900.7267456054688,900.7267456054688,899.9033813476562,900.7267456054688,900.7267456054688,900.7267456054688,901.550048828125,901.550048828125,901.550048828125,901.550048828125,902.3733520507812,902.3733520507812,902.3733520507812,903.1967163085938,903.1967163085938,904.02001953125,904.02001953125,904.02001953125,903.1967163085938,903.1967163085938,903.1967163085938,903.1967163085938,903.1967163085938,903.1967163085938,903.1967163085938,903.1967163085938,904.02001953125,904.02001953125,904.02001953125,904.02001953125,904.02001953125,903.1967163085938,903.1967163085938,903.1967163085938,902.3733520507812,901.550048828125,901.550048828125,901.550048828125,900.7267456054688,900.7267456054688,900.7267456054688,900.7267456054688,900.7267456054688,900.7267456054688,900.7267456054688,899.9033813476562,899.9033813476562,899.9033813476562,899.9033813476562,899.9033813476562,899.9033813476562,899.9033813476562,899.9033813476562,899.0800170898438,899.0800170898438,898.2567138671875,895.7867431640625,893.3167114257812,884.260009765625,874.3800048828125,866.146728515625,834.8600463867188,787.9299926757812,720.416748046875,695.7167358398438,639.7300415039062,608.443359375,546.693359375,483.29669189453125,423.193359375,395.20001220703125,340.03668212890625,312.0433349609375,260.17333984375,183.6033477783203,162.19668579101562,122.67667388916016,106.20999908447266,67.51333618164062],"timestamp_mouse":[16,35,55,77,95,115,135,155,175,195,216,235,255,277,295,315,336,356,377,395,415,435,456,475,496,515,535,555,575,595,617,636,656,675,695,715,735,755,777,795,815,835,856,877,895,915,935,955,975,996,1015,1036,1055,1077,1095,1115,1135,1156,1175,1195,1215,1235,1255,1275,1295,1315,1335,1355,1375,1395,1415,1435,1456,1475,1495,1515,1535,1555,1575,1596,1615,1636,1656,1676,1695,1715,1735,1755,1775,1796,1815,1835,1856,1876,1896,1915,1935,1956,1991,2000,2015,2035,2055,2075,2095,2115,2135,2155,2175,2195,2215,2235,2255,2275,2295,2315,2335,2355,2375,2397,2416,2435,2455,2475,2496,2515,2535,2555,2576,2597,2616,2635,2655,2676,2695,2715,2735,2755,2775,2795,2815,2835,2855,2876,2896,2915,2935,2955,2975,2995,3015,3035,3055,3075,3096,3115,3135,3156,3175,3195,3215,3236,3255,3275,3295,3315,3336,3355,3375,3395,3415,3435,3455,3475,3497,3516,3536,3556,3575,3597,3615,3635,3655,3675,3695,3715,3735,3755,3776,3799],"xSR":440,"ySR":852.6,"xT1":48,"yT1":0,"xT2":832,"yT2":0,"toosoon":0,"cond_shown":"Equal","ratio_trial":500,"L_num":6,"L_den":8,"R_num":6,"R_den":24,"correct_side":1,"subjID":"5","gender":"No_gender","school":"No_school","age":"No_age"},{"start_time":1452098866573,"click_time":1452098867951,"finger_time":1452098867572,"fix_duration":561.2949806808149,"trial":5,"RT":999,"MT":379,"sideResp":2,"stimulus":[],"xmouse":[499.76336669921875,499.76336669921875,499.76336669921875,499.76336669921875,499.76336669921875,499.76336669921875,499.76336669921875,499.76336669921875,499.76336669921875,499.76336669921875,499.76336669921875,499.76336669921875,499.76336669921875,499.76336669921875,499.76336669921875,499.76336669921875,499.76336669921875,499.76336669921875,499.76336669921875,499.76336669921875,499.76336669921875,499.76336669921875,499.76336669921875,499.76336669921875,499.76336669921875,499.76336669921875,499.76336669921875,499.76336669921875,499.76336669921875,499.76336669921875,499.76336669921875,499.76336669921875,499.76336669921875,499.76336669921875,499.76336669921875,499.76336669921875,499.76336669921875,499.76336669921875,513,513,513,513,513,513,513,513,512.9367065429688,512.9367065429688,518.7000122070312,532.6967163085938,540.9299926757812,560.6900024414062,570.5700073242188,595.27001953125,610.0900268554688,657.8433837890625,680.896728515625,689.953369140625,699.8333740234375,723.7100219726562,758.2900390625,768.1700439453125,788.7533569335938,797.8099975585938,818.3933715820312,837.3300170898438,840.6233520507812,848.0333862304688,849.6799926757812],"ymouse":[912.2533569335938,912.2533569335938,912.2533569335938,912.2533569335938,912.2533569335938,912.2533569335938,912.2533569335938,912.2533569335938,912.2533569335938,912.2533569335938,912.2533569335938,912.2533569335938,912.2533569335938,912.2533569335938,912.2533569335938,912.2533569335938,912.2533569335938,912.2533569335938,912.2533569335938,912.2533569335938,912.2533569335938,912.2533569335938,912.2533569335938,912.2533569335938,912.2533569335938,912.2533569335938,912.2533569335938,912.2533569335938,912.2533569335938,912.2533569335938,912.2533569335938,912.2533569335938,912.2533569335938,912.2533569335938,912.2533569335938,912.2533569335938,912.2533569335938,912.2533569335938,906,906,906,906,906,906,906,906,892.4933471679688,892.4933471679688,873.5567626953125,834.8600463867188,812.6300048828125,761.5833740234375,735.2367553710938,679.25,647.96337890625,549.9866943359375,494,466.83001708984375,439.6600036621094,386.14337158203125,310.3966979980469,286.52001953125,242.8833465576172,221.4766845703125,181.95668029785156,135.85000610351562,125.14667510986328,104.56333923339844,96.33000183105469],"timestamp_mouse":[35,37,57,77,97,117,138,157,177,197,218,238,257,278,297,317,337,357,377,398,417,437,457,478,497,517,537,557,577,597,617,637,657,677,697,718,737,757,777,797,818,837,858,878,898,917,937,957,978,999,1017,1037,1057,1077,1097,1117,1137,1157,1178,1197,1218,1237,1257,1277,1297,1317,1338,1357,1378],"xSR":440,"ySR":852.6,"xT1":48,"yT1":0,"xT2":832,"yT2":0,"toosoon":0,"cond_shown":"Incongruent","ratio_trial":500,"L_num":7,"L_den":21,"R_num":5,"R_den":6,"correct_side":2,"subjID":"5","gender":"No_gender","school":"No_school","age":"No_age"},{"start_time":1452098870325,"click_time":1452098872070,"finger_time":1452098871730,"fix_duration":933.9688995823482,"trial":6,"RT":1405,"MT":340,"sideResp":1,"stimulus":[],"xmouse":[475.0633544921875,475.0633544921875,475.0633544921875,475.8866882324219,475.8866882324219,475.8866882324219,475.8866882324219,475.0633544921875,475.0633544921875,475.0633544921875,475.0633544921875,475.0633544921875,475.0633544921875,475.0633544921875,475.0633544921875,475.0633544921875,475.0633544921875,475.0633544921875,475.0633544921875,475.0633544921875,475.0633544921875,475.0633544921875,475.0633544921875,475.0633544921875,475.0633544921875,475.0633544921875,475.0633544921875,475.0633544921875,475.0633544921875,475.0633544921875,475.0633544921875,475.0633544921875,475.0633544921875,475.0633544921875,475.0633544921875,475.0633544921875,475.0633544921875,475.0633544921875,475.0633544921875,475.0633544921875,475.0633544921875,475.0633544921875,475.0633544921875,475.0633544921875,475.0633544921875,475.0633544921875,475.0633544921875,475.0633544921875,475.0633544921875,475.0633544921875,475.0633544921875,475.0633544921875,475.0633544921875,475.0633544921875,475.0633544921875,475.0633544921875,475.0633544921875,475.0633544921875,475.0633544921875,475.0633544921875,475.0633544921875,475.0633544921875,475.0633544921875,475.0633544921875,474.2400207519531,474.2400207519531,473.41668701171875,472.5933532714844,470.1233825683594,458.5966796875,452.010009765625,438.01336669921875,429.7799987792969,410.02001953125,375.44000244140625,363.0899963378906,335.9200134277344,322.7466735839844,293.92999267578125,247,229.7100067138672,197.60000610351562,182.77999877929688,156.433349609375,121.02999877929688,110.32667541503906,100.44667053222656,85.62667083740234],"ymouse":[914.723388671875,914.723388671875,914.723388671875,914.723388671875,914.723388671875,914.723388671875,913.9000244140625,913.9000244140625,913.9000244140625,913.9000244140625,913.0767211914062,912.2533569335938,912.2533569335938,912.2533569335938,912.2533569335938,912.2533569335938,912.2533569335938,912.2533569335938,912.2533569335938,912.2533569335938,912.2533569335938,912.2533569335938,912.2533569335938,912.2533569335938,911.4299926757812,911.4299926757812,911.4299926757812,911.4299926757812,911.4299926757812,910.6067504882812,910.6067504882812,910.6067504882812,910.6067504882812,910.6067504882812,910.6067504882812,910.6067504882812,910.6067504882812,910.6067504882812,910.6067504882812,910.6067504882812,910.6067504882812,909.7833862304688,909.7833862304688,909.7833862304688,909.7833862304688,909.7833862304688,909.7833862304688,909.7833862304688,909.7833862304688,908.9600219726562,908.9600219726562,908.9600219726562,908.9600219726562,908.9600219726562,908.9600219726562,908.9600219726562,908.9600219726562,908.9600219726562,908.9600219726562,908.9600219726562,908.9600219726562,908.13671875,907.3133544921875,907.3133544921875,904.8433837890625,903.1967163085938,900.7267456054688,898.2567138671875,891.6700439453125,856.2667236328125,836.5067138671875,798.6333618164062,780.52001953125,741,671.8400268554688,646.3167114257812,595.27001953125,568.92333984375,515.4066772460938,436.36669921875,409.1966857910156,352.3866882324219,322.7466735839844,266.760009765625,189.36668395996094,165.49000549316406,142.43667602539062,98.80000305175781],"timestamp_mouse":[9,36,45,65,85,106,125,145,166,185,206,225,245,266,285,305,325,346,365,386,406,425,445,466,485,505,526,545,566,585,605,625,645,666,685,706,726,745,765,785,806,825,846,865,886,906,926,945,965,986,1006,1025,1046,1065,1086,1106,1125,1145,1165,1186,1205,1226,1248,1265,1286,1306,1325,1346,1365,1386,1405,1425,1445,1465,1487,1505,1525,1545,1565,1587,1605,1625,1646,1665,1688,1705,1725,1745],"xSR":440,"ySR":852.6,"xT1":48,"yT1":0,"xT2":832,"yT2":0,"toosoon":0,"cond_shown":"Congruent","ratio_trial":300,"L_num":18,"L_den":20,"R_num":9,"R_den":15,"correct_side":1,"subjID":"5","gender":"No_gender","school":"No_school","age":"No_age"},{"start_time":1452098874112,"click_time":1452098876551,"finger_time":1452098875010,"fix_duration":620.6871436389325,"trial":7,"RT":898,"MT":1541,"sideResp":1,"stimulus":[],"xmouse":[504.703369140625,504.703369140625,504.703369140625,504.703369140625,504.703369140625,504.703369140625,504.703369140625,504.703369140625,504.703369140625,504.703369140625,504.703369140625,504.703369140625,504.703369140625,504.703369140625,503.8800048828125,503.8800048828125,503.8800048828125,503.8800048828125,503.8800048828125,503.8800048828125,503.8800048828125,503.05670166015625,503.05670166015625,503.05670166015625,503.05670166015625,503.05670166015625,503.05670166015625,503.05670166015625,503.05670166015625,503.05670166015625,503.05670166015625,503.05670166015625,503.05670166015625,503.05670166015625,503.05670166015625,502.2333679199219,502.2333679199219,501.4100036621094,500.5867004394531,500.5867004394531,497.2933654785156,496.4700012207031,488.2366943359375,477.5333557128906,462.71337890625,417.4300231933594,391.0833740234375,377.9100036621094,354.0333557128906,343.33001708984375,309.5733337402344,290.6366882324219,282.4033508300781,266.760009765625,261.82000732421875,248.6466827392578,244.52999877929688,243.70668029785156,242.05999755859375,241.23667907714844,240.41334533691406,240.41334533691406,240.41334533691406,240.41334533691406,240.41334533691406,240.41334533691406,240.41334533691406,239.5900115966797,239.5900115966797,237.12001037597656,232.1800079345703,229.7100067138672,226.41668701171875,224.77000427246094,222.3000030517578,221.4766845703125,219.8300018310547,220.65335083007812,220.65335083007812,220.65335083007812,220.65335083007812,220.65335083007812,227.24000549316406,229.7100067138672,230.53334045410156,230.53334045410156,232.1800079345703,232.1800079345703,233.0033416748047,232.1800079345703,231.356689453125,229.7100067138672,228.06333923339844,227.24000549316406,227.24000549316406,227.24000549316406,228.06333923339844,228.06333923339844,228.06333923339844,228.88668823242188,228.88668823242188,228.88668823242188,228.88668823242188,228.88668823242188,228.06333923339844,228.06333923339844,227.24000549316406,226.41668701171875,224.77000427246094,223.1233367919922,219.00668334960938,211.5966796875,209.12667846679688,203.36334228515625,200.89334106445312,195.95333862304688,187.72000122070312,181.95668029785156,172.07667541503906,166.31333923339844,155.61000061035156,144.90667724609375],"ymouse":[906.489990234375,906.489990234375,906.489990234375,905.666748046875,905.666748046875,906.489990234375,906.489990234375,906.489990234375,906.489990234375,906.489990234375,906.489990234375,906.489990234375,906.489990234375,906.489990234375,906.489990234375,906.489990234375,906.489990234375,906.489990234375,906.489990234375,906.489990234375,906.489990234375,906.489990234375,906.489990234375,906.489990234375,907.3133544921875,907.3133544921875,907.3133544921875,907.3133544921875,907.3133544921875,907.3133544921875,907.3133544921875,907.3133544921875,907.3133544921875,907.3133544921875,907.3133544921875,906.489990234375,906.489990234375,905.666748046875,904.02001953125,903.1967163085938,895.7867431640625,893.3167114257812,876.8500366210938,857.9133911132812,835.683349609375,757.4667358398438,708.0667114257812,683.3667602539062,630.6734008789062,605.1500244140625,535.1666870117188,498.11669921875,483.29669189453125,453.65667724609375,443.7767028808594,421.54669189453125,414.96002197265625,413.3133544921875,411.66668701171875,410.8433532714844,411.66668701171875,411.66668701171875,411.66668701171875,411.66668701171875,411.66668701171875,410.8433532714844,407.5500183105469,402.6100158691406,399.3166809082031,388.6133728027344,370.5,363.9133605957031,353.21002197265625,348.27001953125,341.6833801269531,339.21337890625,335.9200134277344,336.7433776855469,337.5666809082031,337.5666809082031,337.5666809082031,337.5666809082031,347.4466857910156,348.27001953125,349.0933532714844,349.0933532714844,347.4466857910156,347.4466857910156,341.6833801269531,340.03668212890625,337.5666809082031,335.0966796875,332.6266784667969,331.8033752441406,330.15667724609375,330.15667724609375,328.510009765625,328.510009765625,328.510009765625,328.510009765625,328.510009765625,328.510009765625,327.6866760253906,327.6866760253906,326.8633728027344,326.8633728027344,323.57000732421875,321.1000061035156,315.3367004394531,308.75,294.75335693359375,264.2900085449219,251.11668395996094,224.77000427246094,208.3033447265625,180.30999755859375,144.08334350585938,130.086669921875,104.56333923339844,93.03667449951172,74.0999984741211,57.63333511352539],"timestamp_mouse":[32,39,59,78,98,120,138,158,178,198,218,238,258,278,299,318,338,358,378,399,419,438,458,478,498,518,538,558,578,598,618,638,659,678,699,719,738,758,778,798,820,838,858,878,898,920,938,959,978,998,1020,1038,1058,1078,1099,1120,1139,1158,1178,1198,1222,1239,1259,1279,1298,1318,1339,1358,1378,1398,1420,1438,1458,1478,1498,1518,1538,1558,1578,1598,1618,1638,1658,1678,1698,1718,1739,1759,1778,1798,1818,1840,1859,1878,1898,1918,1939,1958,1978,1998,2019,2038,2058,2078,2098,2119,2139,2159,2178,2198,2218,2239,2259,2279,2298,2319,2338,2359,2378,2398,2418,2439],"xSR":440,"ySR":852.6,"xT1":48,"yT1":0,"xT2":832,"yT2":0,"toosoon":0,"cond_shown":"Congruent","ratio_trial":200,"L_num":15,"L_den":25,"R_num":4,"R_den":10,"correct_side":1,"subjID":"5","gender":"No_gender","school":"No_school","age":"No_age"},{"start_time":1452098879386,"click_time":1452098880791,"finger_time":1452098880230,"fix_duration":1494.279871447428,"trial":8,"RT":844,"MT":561,"sideResp":1,"stimulus":[],"xmouse":[485.7666931152344,484.943359375,484.943359375,485.7666931152344,485.7666931152344,485.7666931152344,485.7666931152344,485.7666931152344,485.7666931152344,484.943359375,484.943359375,484.1199951171875,484.1199951171875,484.1199951171875,484.1199951171875,484.1199951171875,484.1199951171875,484.1199951171875,484.1199951171875,484.1199951171875,484.1199951171875,484.1199951171875,484.1199951171875,484.1199951171875,482.4733581542969,482.4733581542969,482.4733581542969,482.4733581542969,482.4733581542969,482.4733581542969,482.4733581542969,482.4733581542969,482.4733581542969,482.4733581542969,482.4733581542969,482.4733581542969,482.4733581542969,480.8266906738281,480.8266906738281,478.356689453125,476.71002197265625,466.83001708984375,458.5966796875,438.01336669921875,414.1366882324219,402.6100158691406,396.8466796875,390.260009765625,377.0867004394531,356.50335693359375,346.62335205078125,329.3333740234375,318.6300048828125,298.8699951171875,265.11334228515625,253.58668518066406,231.356689453125,221.4766845703125,212.4199981689453,185.25,169.606689453125,163.8433380126953,155.61000061035156,152.31666564941406,144.90667724609375,140.79000854492188,138.32000732421875,133.3800048828125,130.91000366210938,127.61666870117188,124.3233413696289],"ymouse":[902.3733520507812,901.550048828125,901.550048828125,899.9033813476562,899.9033813476562,899.9033813476562,899.9033813476562,899.9033813476562,899.9033813476562,899.9033813476562,899.9033813476562,899.9033813476562,899.0800170898438,899.0800170898438,899.0800170898438,899.0800170898438,899.9033813476562,899.9033813476562,899.9033813476562,899.0800170898438,899.0800170898438,899.0800170898438,899.0800170898438,899.0800170898438,899.0800170898438,898.2567138671875,898.2567138671875,898.2567138671875,898.2567138671875,899.0800170898438,899.0800170898438,899.0800170898438,899.0800170898438,898.2567138671875,898.2567138671875,898.2567138671875,898.2567138671875,897.433349609375,896.6100463867188,891.6700439453125,888.376708984375,866.9700317382812,849.6799926757812,806.0433959960938,745.1167602539062,706.4200439453125,687.4833984375,667.723388671875,629.0266723632812,563.9833984375,540.106689453125,493.17669677734375,470.1233825683594,420.7233581542969,353.21002197265625,332.6266784667969,294.75335693359375,278.28668212890625,263.4666748046875,219.8300018310547,192.66000366210938,179.48667907714844,158.90333557128906,151.49334716796875,135.85000610351562,127.61666870117188,124.3233413696289,117.7366714477539,115.26667022705078,108.68000030517578,99.62334442138672],"timestamp_mouse":[9,36,44,65,84,105,125,144,165,184,204,224,245,266,284,305,324,344,364,384,405,424,444,464,484,504,524,544,564,584,604,625,645,664,684,704,724,744,764,784,804,824,844,865,886,910,924,944,964,985,1005,1024,1044,1064,1086,1104,1125,1144,1164,1185,1204,1224,1244,1264,1286,1305,1324,1344,1364,1384,1404],"xSR":440,"ySR":852.6,"xT1":48,"yT1":0,"xT2":832,"yT2":0,"toosoon":0,"cond_shown":"Incongruent","ratio_trial":500,"L_num":5,"L_den":6,"R_num":6,"R_den":18,"correct_side":1,"subjID":"5","gender":"No_gender","school":"No_school","age":"No_age"},{"start_time":1452098883967,"click_time":1452098885311,"finger_time":1452098884692,"fix_duration":708.8281125401979,"trial":9,"RT":725,"MT":619,"sideResp":2,"stimulus":[],"xmouse":[482.4733581542969,482.4733581542969,483.29669189453125,483.29669189453125,483.29669189453125,483.29669189453125,483.29669189453125,483.29669189453125,484.1199951171875,484.1199951171875,484.1199951171875,484.1199951171875,484.1199951171875,484.1199951171875,484.1199951171875,484.1199951171875,484.1199951171875,484.1199951171875,484.1199951171875,484.943359375,484.943359375,484.943359375,484.943359375,484.943359375,484.943359375,484.943359375,484.943359375,484.943359375,484.943359375,484.943359375,484.943359375,485.7666931152344,487.4133605957031,488.2366943359375,495.6466979980469,529.4033813476562,540.9299926757812,563.1600341796875,575.510009765625,605.1500244140625,623.2633666992188,675.1333618164062,699.8333740234375,711.3599853515625,727.8267211914062,736.8833618164062,758.2900390625,771.46337890625,778.0499877929688,792.8699951171875,799.4567260742188,812.6300048828125,816.7467041015625,818.3933715820312,820.8634033203125,821.6867065429688,824.15673828125,824.9800415039062,824.15673828125,824.15673828125,824.15673828125,824.9800415039062,825.8034057617188,826.626708984375,828.2733764648438,829.9200439453125,834.0367431640625],"ymouse":[918.8400268554688,918.8400268554688,918.0167236328125,918.0167236328125,918.0167236328125,918.0167236328125,918.0167236328125,918.0167236328125,918.0167236328125,917.193359375,917.193359375,917.193359375,917.193359375,917.193359375,917.193359375,917.193359375,917.193359375,917.193359375,917.193359375,917.193359375,916.3699951171875,916.3699951171875,916.3699951171875,916.3699951171875,916.3699951171875,916.3699951171875,916.3699951171875,916.3699951171875,915.5467529296875,915.5467529296875,914.723388671875,913.9000244140625,912.2533569335938,911.4299926757812,898.2567138671875,832.3900146484375,809.3367309570312,764.876708984375,741,683.3667602539062,651.2567138671875,554.1033935546875,497.2933654785156,466.0066833496094,407.5500183105469,378.7333679199219,299.693359375,256.0566711425781,233.82669067382812,194.3066864013672,177.0166778564453,136.67333984375,117.7366714477539,111.97334289550781,99.62334442138672,93.86000061035156,82.33334350585938,78.2166748046875,76.56999969482422,74.92333984375,74.0999984741211,72.45333862304688,70.80667114257812,69.98333740234375,68.336669921875,67.51333618164062,63.396671295166016],"timestamp_mouse":[24,43,64,83,103,123,143,163,183,203,223,244,263,283,303,323,343,363,383,403,423,444,463,483,503,523,543,563,583,603,625,643,663,683,703,725,744,763,783,803,823,844,863,883,903,923,943,964,983,1004,1024,1044,1063,1084,1103,1123,1143,1164,1183,1203,1223,1243,1263,1283,1303,1324,1343],"xSR":440,"ySR":852.6,"xT1":48,"yT1":0,"xT2":832,"yT2":0,"toosoon":0,"cond_shown":"Congruent","ratio_trial":500,"L_num":9,"L_den":27,"R_num":20,"R_den":24,"correct_side":2,"subjID":"5","gender":"No_gender","school":"No_school","age":"No_age"},{"start_time":1452098888465,"click_time":1452098889532,"finger_time":1452098889211,"fix_duration":793.9022253730153,"trial":10,"RT":746,"MT":321,"sideResp":2,"stimulus":[],"xmouse":[507,507,507,507,507,507,507,507,507,507,507,507,507,499.76336669921875,499.76336669921875,499.76336669921875,499.76336669921875,499.76336669921875,499.76336669921875,499.76336669921875,499.76336669921875,499.76336669921875,499.76336669921875,499.76336669921875,499.76336669921875,499.76336669921875,499.76336669921875,499.76336669921875,499.76336669921875,499.76336669921875,499.76336669921875,499.76336669921875,499.76336669921875,500.5867004394531,501.4100036621094,503.8800048828125,520.3466796875,535.989990234375,583.7433471679688,612.5599975585938,628.203369140625,659.489990234375,677.6033935546875,728.6500244140625,755.8200073242188,766.5233764648438,787.9299926757812,797.8099975585938,824.15673828125,836.5067138671875,842.27001953125,849.6799926757812,854.6199951171875,868.6167602539062],"ymouse":[893,893,893,893,893,893,893,893,893,893,893,893,893,899.0800170898438,899.0800170898438,899.0800170898438,899.0800170898438,899.0800170898438,899.9033813476562,899.9033813476562,899.9033813476562,899.9033813476562,899.9033813476562,899.9033813476562,899.9033813476562,899.9033813476562,899.9033813476562,899.9033813476562,899.0800170898438,899.0800170898438,899.0800170898438,899.0800170898438,898.2567138671875,896.6100463867188,893.3167114257812,889.2000122070312,862.030029296875,837.3300170898438,758.2900390625,708.8900146484375,683.3667602539062,626.5567016601562,596.0933837890625,503.05670166015625,440.4833679199219,413.3133544921875,352.3866882324219,322.7466735839844,240.41334533691406,192.66000366210938,170.4300079345703,131.73333740234375,114.44334411621094,71.6300048828125],"timestamp_mouse":[5,31,45,65,85,105,125,145,165,185,205,225,245,267,285,305,325,345,365,385,405,426,445,466,485,505,526,545,565,585,606,625,645,666,686,706,726,746,767,785,805,825,845,867,886,905,926,945,967,985,1005,1025,1045,1066],"xSR":440,"ySR":852.6,"xT1":48,"yT1":0,"xT2":832,"yT2":0,"toosoon":0,"cond_shown":"Incongruent","ratio_trial":500,"L_num":7,"L_den":21,"R_num":5,"R_den":6,"correct_side":2,"subjID":"5","gender":"No_gender","school":"No_school","age":"No_age"},{"start_time":1452098891842,"click_time":1452098893071,"finger_time":1452098892590,"fix_duration":250,"trial":11,"RT":748,"MT":481,"sideResp":1,"stimulus":[],"xmouse":[492.3533630371094,492.3533630371094,491.5299987792969,492.3533630371094,492.3533630371094,492.3533630371094,491.5299987792969,491.5299987792969,491.5299987792969,491.5299987792969,490.7066955566406,490.7066955566406,490.7066955566406,490.7066955566406,490.7066955566406,490.7066955566406,490.7066955566406,490.7066955566406,490.7066955566406,490.7066955566406,490.7066955566406,490.7066955566406,490.7066955566406,490.7066955566406,490.7066955566406,490.7066955566406,490.7066955566406,490.7066955566406,490.7066955566406,490.7066955566406,490.7066955566406,489.88336181640625,489.88336181640625,489.05999755859375,488.2366943359375,480.00335693359375,470.1233825683594,446.2466735839844,434.7200012207031,414.1366882324219,386.9666748046875,378.7333679199219,361.443359375,352.3866882324219,310.3966979980469,298.04669189453125,288.16668701171875,269.2300109863281,262.6433410644531,248.6466827392578,241.23667907714844,221.4766845703125,209.12667846679688,203.36334228515625,193.48333740234375,189.36668395996094,176.19334411621094,170.4300079345703,163.02000427246094,159.7266845703125,153.13999938964844,144.08334350585938],"ymouse":[909.7833862304688,909.7833862304688,907.3133544921875,907.3133544921875,906.489990234375,906.489990234375,906.489990234375,906.489990234375,905.666748046875,905.666748046875,904.8433837890625,904.8433837890625,904.8433837890625,904.02001953125,904.02001953125,904.02001953125,903.1967163085938,904.02001953125,904.02001953125,903.1967163085938,903.1967163085938,903.1967163085938,903.1967163085938,903.1967163085938,903.1967163085938,901.550048828125,900.7267456054688,899.9033813476562,899.9033813476562,899.0800170898438,898.2567138671875,896.6100463867188,894.96337890625,894.1400146484375,890.0233764648438,876.0267333984375,862.8533935546875,828.2733764648438,808.5133666992188,768.9933471679688,698.1867065429688,673.4867553710938,624.086669921875,599.38671875,508.82000732421875,482.4733581542969,456.95001220703125,410.8433532714844,388.6133728027344,346.62335205078125,326.8633728027344,267.5833435058594,231.356689453125,214.88999938964844,183.6033477783203,168.78334045410156,135.85000610351562,126.79334259033203,111.1500015258789,104.56333923339844,94.68334197998047,82.33334350585938],"timestamp_mouse":[26,28,48,68,88,108,129,149,168,188,208,228,249,270,289,308,329,348,369,389,408,429,448,468,488,509,528,549,569,588,608,628,648,668,688,710,728,748,769,788,810,829,849,873,899,911,928,948,968,988,1008,1029,1048,1068,1088,1108,1128,1148,1168,1189,1208,1228],"xSR":440,"ySR":852.6,"xT1":48,"yT1":0,"xT2":832,"yT2":0,"toosoon":0,"cond_shown":"Equal","ratio_trial":500,"L_num":6,"L_den":8,"R_num":