[{"start_time":1549309905275,"click_time":1549309905838,"finger_time":1549309905281,"fix_duration":472.55366633001586,"trial":0,"RT":6,"MT":557,"sideResp":2,"stimulus":"img/750/randomdotsize/L/14_Ratio_750_L_8_R_6.png","xmouse":[452,470.66668701171875,479.3333435058594,484,486,490,492.66668701171875,493.3333435058594,495.3333435058594,498,502,504,514,520,527.3333740234375,547.3333740234375,572,582.6666870117188,586.6666870117188,594,598,614.6666870117188,619.3333740234375,629.3333740234375,634.6666870117188,647.3333740234375,668,684.6666870117188,694],"ymouse":[434.66668701171875,399.3333435058594,384,375.3333435058594,372,362.66668701171875,358,356.66668701171875,353.3333435058594,351.3333435058594,346.66668701171875,344.66668701171875,332.66668701171875,324.66668701171875,314,286,248.66668701171875,235.33334350585938,229.33334350585938,220,214.6666717529297,192.6666717529297,186.6666717529297,174,167.33334350585938,151.33334350585938,124,103.33333587646484,92],"timestamp_mouse":[6,22,42,63,83,104,122,142,162,182,204,222,245,262,283,302,322,342,362,383,402,423,442,462,482,503,523,543,562],"xSR":350,"ySR":508.79999999999995,"xT1":30,"yT1":0,"xT2":670,"yT2":0,"toosoon":0,"cond_shown":"randomdotsize","ratio_trial":750,"smaller_num":"6","larger_num":"8","correct_side":1,"subjID":"6","gender":"No_gender","age":"No_age","school":"No_school","test":{"fix_dur":[250,1500],"timestim":400,"targets_dim":[100,100],"targets_relative_coord":[0.1,0.9],"size_stim":[880,420],"start_dim":[100,100],"size_start":[300,300],"size_fix":60,"samplingrate":20,"img_types":["equaldotsize","equaldotanddens","randomdotsize","randomdotsizeEA"],"ratios":[250,500,750,900],"rep_conds":10,"nTrials":176,"trials_to_rest":500,"Trials_order":[154,76,92,57,14,164,134,161,27,140,66,155,118,145,29,116,173,99,126,12,143,146,150,110,25,4,21,133,0,174,151,36,125,62,64,7,168,41,54,115,58,157,45,77,170,93,163,32,68,135,69,56,124,114,103,26,159,97,60,144,169,19,90,2,17,148,84,74,70,79,96,6,142,34,153,3,101,166,89,105,23,109,83,35,63,22,87,171,75,132,20,129,113,91,123,44,13,119,33,137,40,52,1,30,43,136,156,71,81,37,141,9,152,53,121,100,72,120,160,42,102,8,112,138,10,51,61,94,38,5,172,88,11,165,107,50,128,49,85,73,16,31,78,86,149,67,95,47,111,15,39,147,108,80,82,98,55,162,158,24,122,117,139,46,59,104,130,131,106,127,28,167,65,48,175,18],"cond_shown":["randomdotsize","equaldotsize","equaldotsize","equaldotanddens","randomdotsize","equaldotsize","randomdotsize","equaldotanddens","randomdotsizeEA","equaldotsize","randomdotsize","randomdotsizeEA","randomdotsize","equaldotanddens","equaldotanddens","equaldotsize","equaldotanddens","randomdotsizeEA","randomdotsize","equaldotsize","randomdotsizeEA","randomdotsize","randomdotsize","randomdotsize","equaldotanddens","equaldotsize","equaldotanddens","equaldotanddens","equaldotsize","randomdotsize","randomdotsizeEA","equaldotsize","equaldotanddens","randomdotsize","equaldotsize","randomdotsizeEA","equaldotsize","equaldotanddens","randomdotsize","randomdotsizeEA","randomdotsize","equaldotanddens","equaldotanddens","equaldotanddens","randomdotsize","equaldotanddens","randomdotsizeEA","equaldotsize","equaldotsize","randomdotsizeEA","equaldotanddens","equaldotsize","equaldotsize","randomdotsize","randomdotsizeEA","randomdotsize","randomdotsizeEA","equaldotanddens","equaldotsize","equaldotsize","equaldotanddens","randomdotsizeEA","randomdotsize","randomdotsize","equaldotanddens","equaldotsize","equaldotsize","randomdotsize","randomdotsize","randomdotsizeEA","equaldotsize","randomdotsize","randomdotsize","randomdotsize","equaldotanddens","randomdotsizeEA","equaldotanddens","randomdotsize","equaldotanddens","equaldotanddens","randomdotsizeEA","equaldotanddens","randomdotsizeEA","randomdotsizeEA","randomdotsizeEA","randomdotsize","randomdotsizeEA","randomdotsizeEA","randomdotsizeEA","equaldotsize","equaldotsize","equaldotanddens","equaldotanddens","randomdotsizeEA","randomdotsizeEA","equaldotsize","equaldotanddens","randomdotsizeEA","equaldotanddens","equaldotanddens","equaldotsize","equaldotsize","equaldotanddens","randomdotsize","randomdotsizeEA","equaldotsize","equaldotsize","randomdotsizeEA","equaldotanddens","equaldotanddens","equaldotanddens","equaldotanddens","equaldotsize","equaldotanddens","equaldotanddens","equaldotsize","equaldotsize","equaldotsize","equaldotsize","randomdotsize","randomdotsize","equaldotsize","equaldotsize","randomdotsize","randomdotsize","randomdotsizeEA","equaldotanddens","randomdotsize","randomdotsize","equaldotanddens","equaldotsize","equaldotsize","randomdotsizeEA","equaldotanddens","randomdotsizeEA","randomdotsize","equaldotsize","equaldotanddens","equaldotanddens","equaldotanddens","equaldotsize","randomdotsizeEA","randomdotsize","randomdotsize","equaldotanddens","randomdotsizeEA","randomdotsizeEA","randomdotsizeEA","randomdotsizeEA","randomdotsizeEA","randomdotsizeEA","randomdotsizeEA","equaldotsize","equaldotsize","randomdotsize","randomdotsize","randomdotsizeEA","randomdotsize","randomdotsize","equaldotsize","randomdotsize","equaldotanddens","randomdotsizeEA","randomdotsize","randomdotsizeEA","equaldotsize","randomdotsize","randomdotsizeEA","randomdotsize","randomdotsizeEA","equaldotsize","randomdotsizeEA","equaldotanddens","equaldotsize","randomdotsizeEA","randomdotsize"],"ratio_trial":[750,900,900,750,900,500,500,250,750,900,250,750,500,250,900,500,900,250,900,900,900,250,500,900,750,500,500,500,250,900,500,500,900,900,250,500,750,750,500,250,750,900,900,900,750,900,250,250,500,500,500,750,900,250,500,750,900,250,900,250,750,250,750,250,250,500,500,750,500,900,250,500,900,250,750,250,500,500,750,750,500,900,250,250,900,500,500,750,750,500,500,250,250,750,750,900,900,500,250,750,750,500,250,900,750,750,900,500,250,500,900,750,750,500,750,500,750,750,250,750,500,750,250,750,750,250,900,900,500,500,900,750,750,500,750,250,250,250,500,750,250,900,900,500,500,250,900,900,900,900,500,250,900,250,250,250,500,250,900,750,750,500,750,900,750,750,250,250,750,900,900,500,250,250,900,250],"smaller_num":["6","18","9","3","9","5","2","6","3","18","5","6","5","2","18","5","9","4","18","18","9","4","9","18","12","2","5","1","3","18","9","1","9","18","3","2","3","3","10","4","15","18","9","18","9","9","5","2","5","6","5","15","18","3","10","15","18","3","9","4","12","3","15","2","4","3","4","15","2","9","4","1","18","5","12","1","9","9","18","12","4","18","3","5","18","5","9","3","18","6","9","4","4","3","15","18","18","10","2","3","15","9","2","18","3","6","18","9","6","1","18","15","6","2","6","9","6","15","2","6","2","15","6","18","6","6","18","9","9","3","18","6","15","2","3","4","3","2","3","18","6","18","18","2","1","6","18","18","18","18","9","3","18","2","3","3","1","3","18","18","3","3","3","9","15","15","3","3","18","18","18","1","5","2","18","1"],"larger_num":["8","20","10","4","10","10","4","24","4","20","20","8","10","8","20","10","10","16","20","20","10","16","18","20","16","4","10","2","12","20","18","2","10","20","12","4","4","4","20","16","20","20","10","20","12","10","20","8","10","12","10","20","20","12","20","20","20","12","10","16","16","12","20","8","16","6","8","20","4","10","16","2","20","20","16","4","18","18","24","16","8","20","12","20","20","10","18","4","24","12","18","16","16","4","20","20","20","20","8","4","20","18","8","20","4","8","20","18","24","2","20","20","8","4","8","18","8","20","8","8","4","20","24","24","8","24","20","10","18","6","20","8","20","4","4","16","12","8","6","24","24","20","20","4","2","24","20","20","20","20","18","12","20","8","12","12","2","12","20","24","4","6","4","10","20","20","12","12","24","20","20","2","20","8","20","4"],"correct_side":[1,1,1,2,1,1,1,1,1,1,2,1,1,1,1,1,2,2,2,1,1,2,1,1,2,2,2,2,1,2,2,2,2,1,1,2,1,1,2,1,1,2,2,1,2,2,2,2,2,1,1,2,1,1,2,2,2,1,2,2,2,2,2,2,2,2,1,1,2,2,2,2,2,2,2,2,1,1,1,2,1,1,2,2,1,1,2,1,1,1,2,2,2,2,1,1,2,2,1,1,1,1,2,1,2,1,2,1,1,2,1,2,2,2,1,2,1,1,2,2,1,1,2,1,1,1,1,1,1,2,1,1,1,1,1,2,2,1,2,1,1,2,1,2,2,1,1,1,2,1,1,2,1,2,1,1,2,1,1,1,1,2,1,2,2,2,2,2,1,1,2,2,2,1,1,2],"img_shown":["img/750/randomdotsize/L/14_Ratio_750_L_8_R_6.png","img/900/equaldotsize/L/10_Ratio_900_L_20_R_18.png","img/900/equaldotsize/L/1_Ratio_900_L_10_R_9.png","img/750/equaldotanddens/R/12_Ratio_750_L_3_R_4.png","img/900/randomdotsize/L/1_Ratio_900_L_10_R_9.png","img/500/equaldotsize/L/7_Ratio_500_L_10_R_5.png","img/500/randomdotsize/L/5_Ratio_500_L_4_R_2.png","img/250/equaldotanddens/L/5_Ratio_250_L_24_R_6.png","img/750/randomdotsizeEA/L/8_Ratio_750_L_4_R_3.png","img/900/equaldotsize/L/4_Ratio_900_L_20_R_18.png","img/250/randomdotsize/R/12_Ratio_250_L_5_R_20.png","img/750/randomdotsizeEA/L/13_Ratio_750_L_8_R_6.png","img/500/randomdotsize/L/7_Ratio_500_L_10_R_5.png","img/250/equaldotanddens/L/3_Ratio_250_L_8_R_2.png","img/900/equaldotanddens/L/2_Ratio_900_L_20_R_18.png","img/500/equaldotsize/L/7_Ratio_500_L_10_R_5.png","img/900/equaldotanddens/R/7_Ratio_900_L_9_R_10.png","img/250/randomdotsizeEA/R/10_Ratio_250_L_4_R_16.png","img/900/randomdotsize/R/13_Ratio_900_L_18_R_20.png","img/900/equaldotsize/L/2_Ratio_900_L_20_R_18.png","img/900/randomdotsizeEA/L/1_Ratio_900_L_10_R_9.png","img/250/randomdotsize/R/10_Ratio_250_L_4_R_16.png","img/500/randomdotsize/L/4_Ratio_500_L_18_R_9.png","img/900/randomdotsize/L/8_Ratio_900_L_20_R_18.png","img/750/equaldotanddens/R/11_Ratio_750_L_12_R_16.png","img/500/equaldotsize/R/9_Ratio_500_L_2_R_4.png","img/500/equaldotanddens/R/14_Ratio_500_L_5_R_10.png","img/500/equaldotanddens/R/12_Ratio_500_L_1_R_2.png","img/250/equaldotsize/L/15_Ratio_250_L_12_R_3.png","img/900/randomdotsize/R/12_Ratio_900_L_18_R_20.png","img/500/randomdotsizeEA/R/6_Ratio_500_L_9_R_18.png","img/500/equaldotsize/R/12_Ratio_500_L_1_R_2.png","img/900/equaldotanddens/R/3_Ratio_900_L_9_R_10.png","img/900/randomdotsize/L/10_Ratio_900_L_20_R_18.png","img/250/equaldotsize/L/14_Ratio_250_L_12_R_3.png","img/500/randomdotsizeEA/R/9_Ratio_500_L_2_R_4.png","img/750/equaldotsize/L/9_Ratio_750_L_4_R_3.png","img/750/equaldotanddens/L/10_Ratio_750_L_4_R_3.png","img/500/randomdotsize/R/3_Ratio_500_L_10_R_20.png","img/250/randomdotsizeEA/L/2_Ratio_250_L_16_R_4.png","img/750/randomdotsize/L/1_Ratio_750_L_20_R_15.png","img/900/equaldotanddens/R/13_Ratio_900_L_18_R_20.png","img/900/equaldotanddens/R/6_Ratio_900_L_9_R_10.png","img/900/equaldotanddens/L/10_Ratio_900_L_20_R_18.png","img/750/randomdotsize/R/15_Ratio_750_L_9_R_12.png","img/900/equaldotanddens/R/7_Ratio_900_L_9_R_10.png","img/250/randomdotsizeEA/R/12_Ratio_250_L_5_R_20.png","img/250/equaldotsize/R/13_Ratio_250_L_2_R_8.png","img/500/equaldotsize/R/14_Ratio_500_L_5_R_10.png","img/500/randomdotsizeEA/L/11_Ratio_500_L_12_R_6.png","img/500/equaldotanddens/L/7_Ratio_500_L_10_R_5.png","img/750/equaldotsize/R/3_Ratio_750_L_15_R_20.png","img/900/equaldotsize/L/10_Ratio_900_L_20_R_18.png","img/250/randomdotsize/L/14_Ratio_250_L_12_R_3.png","img/500/randomdotsizeEA/R/3_Ratio_500_L_10_R_20.png","img/750/randomdotsize/R/3_Ratio_750_L_15_R_20.png","img/900/randomdotsizeEA/R/9_Ratio_900_L_18_R_20.png","img/250/equaldotanddens/L/15_Ratio_250_L_12_R_3.png","img/900/equaldotsize/R/3_Ratio_900_L_9_R_10.png","img/250/equaldotsize/R/10_Ratio_250_L_4_R_16.png","img/750/equaldotanddens/R/11_Ratio_750_L_12_R_16.png","img/250/randomdotsizeEA/R/4_Ratio_250_L_3_R_12.png","img/750/randomdotsize/R/4_Ratio_750_L_15_R_20.png","img/250/randomdotsize/R/13_Ratio_250_L_2_R_8.png","img/250/equaldotanddens/R/10_Ratio_250_L_4_R_16.png","img/500/equaldotsize/R/2_Ratio_500_L_3_R_6.png","img/500/equaldotsize/L/8_Ratio_500_L_8_R_4.png","img/750/randomdotsize/L/1_Ratio_750_L_20_R_15.png","img/500/randomdotsize/R/9_Ratio_500_L_2_R_4.png","img/900/randomdotsizeEA/R/15_Ratio_900_L_9_R_10.png","img/250/equaldotsize/R/10_Ratio_250_L_4_R_16.png","img/500/randomdotsize/R/15_Ratio_500_L_1_R_2.png","img/900/randomdotsize/R/13_Ratio_900_L_18_R_20.png","img/250/randomdotsize/R/12_Ratio_250_L_5_R_20.png","img/750/equaldotanddens/R/11_Ratio_750_L_12_R_16.png","img/250/randomdotsizeEA/R/8_Ratio_250_L_1_R_4.png","img/500/equaldotanddens/L/4_Ratio_500_L_18_R_9.png","img/500/randomdotsize/L/4_Ratio_500_L_18_R_9.png","img/750/equaldotanddens/L/6_Ratio_750_L_24_R_18.png","img/750/equaldotanddens/R/11_Ratio_750_L_12_R_16.png","img/500/randomdotsizeEA/L/8_Ratio_500_L_8_R_4.png","img/900/equaldotanddens/L/2_Ratio_900_L_20_R_18.png","img/250/randomdotsizeEA/R/9_Ratio_250_L_3_R_12.png","img/250/randomdotsizeEA/R/12_Ratio_250_L_5_R_20.png","img/900/randomdotsizeEA/L/2_Ratio_900_L_20_R_18.png","img/500/randomdotsize/L/7_Ratio_500_L_10_R_5.png","img/500/randomdotsizeEA/R/1_Ratio_500_L_9_R_18.png","img/750/randomdotsizeEA/L/8_Ratio_750_L_4_R_3.png","img/750/randomdotsizeEA/L/6_Ratio_750_L_24_R_18.png","img/500/equaldotsize/L/13_Ratio_500_L_12_R_6.png","img/500/equaldotsize/R/1_Ratio_500_L_9_R_18.png","img/250/equaldotanddens/R/10_Ratio_250_L_4_R_16.png","img/250/equaldotanddens/R/10_Ratio_250_L_4_R_16.png","img/750/randomdotsizeEA/R/7_Ratio_750_L_3_R_4.png","img/750/randomdotsizeEA/L/1_Ratio_750_L_20_R_15.png","img/900/equaldotsize/L/2_Ratio_900_L_20_R_18.png","img/900/equaldotanddens/R/9_Ratio_900_L_18_R_20.png","img/500/randomdotsizeEA/R/3_Ratio_500_L_10_R_20.png","img/250/equaldotanddens/L/7_Ratio_250_L_8_R_2.png","img/750/equaldotanddens/L/9_Ratio_750_L_4_R_3.png","img/750/equaldotsize/L/1_Ratio_750_L_20_R_15.png","img/500/equaldotsize/L/4_Ratio_500_L_18_R_9.png","img/250/equaldotanddens/R/13_Ratio_250_L_2_R_8.png","img/900/randomdotsize/L/4_Ratio_900_L_20_R_18.png","img/750/randomdotsizeEA/R/12_Ratio_750_L_3_R_4.png","img/750/equaldotsize/L/13_Ratio_750_L_8_R_6.png","img/900/equaldotsize/R/9_Ratio_900_L_18_R_20.png","img/500/randomdotsizeEA/L/4_Ratio_500_L_18_R_9.png","img/250/equaldotanddens/L/5_Ratio_250_L_24_R_6.png","img/500/equaldotanddens/R/15_Ratio_500_L_1_R_2.png","img/900/equaldotanddens/L/4_Ratio_900_L_20_R_18.png","img/750/equaldotanddens/R/5_Ratio_750_L_15_R_20.png","img/750/equaldotsize/R/2_Ratio_750_L_6_R_8.png","img/500/equaldotanddens/R/9_Ratio_500_L_2_R_4.png","img/750/equaldotanddens/L/14_Ratio_750_L_8_R_6.png","img/500/equaldotsize/R/6_Ratio_500_L_9_R_18.png","img/750/equaldotsize/L/13_Ratio_750_L_8_R_6.png","img/750/equaldotsize/L/1_Ratio_750_L_20_R_15.png","img/250/equaldotsize/R/13_Ratio_250_L_2_R_8.png","img/750/randomdotsize/R/2_Ratio_750_L_6_R_8.png","img/500/randomdotsize/L/5_Ratio_500_L_4_R_2.png","img/750/equaldotsize/L/1_Ratio_750_L_20_R_15.png","img/250/equaldotsize/R/6_Ratio_250_L_6_R_24.png","img/750/randomdotsize/L/6_Ratio_750_L_24_R_18.png","img/750/randomdotsize/L/14_Ratio_750_L_8_R_6.png","img/250/randomdotsizeEA/L/5_Ratio_250_L_24_R_6.png","img/900/equaldotanddens/L/2_Ratio_900_L_20_R_18.png","img/900/randomdotsize/L/1_Ratio_900_L_10_R_9.png","img/500/randomdotsize/L/4_Ratio_500_L_18_R_9.png","img/500/equaldotanddens/R/2_Ratio_500_L_3_R_6.png","img/900/equaldotsize/L/10_Ratio_900_L_20_R_18.png","img/750/equaldotsize/L/14_Ratio_750_L_8_R_6.png","img/750/randomdotsizeEA/L/1_Ratio_750_L_20_R_15.png","img/500/equaldotanddens/L/5_Ratio_500_L_4_R_2.png","img/750/randomdotsizeEA/L/8_Ratio_750_L_4_R_3.png","img/250/randomdotsize/R/10_Ratio_250_L_4_R_16.png","img/250/equaldotsize/R/11_Ratio_250_L_3_R_12.png","img/250/equaldotanddens/L/7_Ratio_250_L_8_R_2.png","img/500/equaldotanddens/R/2_Ratio_500_L_3_R_6.png","img/750/equaldotanddens/L/6_Ratio_750_L_24_R_18.png","img/250/equaldotsize/L/5_Ratio_250_L_24_R_6.png","img/900/randomdotsizeEA/R/12_Ratio_900_L_18_R_20.png","img/900/randomdotsize/L/8_Ratio_900_L_20_R_18.png","img/500/randomdotsize/R/9_Ratio_500_L_2_R_4.png","img/500/equaldotanddens/R/12_Ratio_500_L_1_R_2.png","img/250/randomdotsizeEA/L/5_Ratio_250_L_24_R_6.png","img/900/randomdotsizeEA/L/2_Ratio_900_L_20_R_18.png","img/900/randomdotsizeEA/L/2_Ratio_900_L_20_R_18.png","img/900/randomdotsizeEA/R/9_Ratio_900_L_18_R_20.png","img/900/randomdotsizeEA/L/10_Ratio_900_L_20_R_18.png","img/500/randomdotsizeEA/L/4_Ratio_500_L_18_R_9.png","img/250/randomdotsizeEA/R/9_Ratio_250_L_3_R_12.png","img/900/equaldotsize/L/4_Ratio_900_L_20_R_18.png","img/250/equaldotsize/R/13_Ratio_250_L_2_R_8.png","img/250/randomdotsize/L/15_Ratio_250_L_12_R_3.png","img/250/randomdotsize/L/15_Ratio_250_L_12_R_3.png","img/500/randomdotsizeEA/R/12_Ratio_500_L_1_R_2.png","img/250/randomdotsize/L/15_Ratio_250_L_12_R_3.png","img/900/randomdotsize/L/2_Ratio_900_L_20_R_18.png","img/750/equaldotsize/L/6_Ratio_750_L_24_R_18.png","img/750/randomdotsize/L/10_Ratio_750_L_4_R_3.png","img/500/equaldotanddens/R/2_Ratio_500_L_3_R_6.png","img/750/randomdotsizeEA/L/9_Ratio_750_L_4_R_3.png","img/900/randomdotsize/R/7_Ratio_900_L_9_R_10.png","img/750/randomdotsizeEA/R/3_Ratio_750_L_15_R_20.png","img/750/equaldotsize/R/4_Ratio_750_L_15_R_20.png","img/250/randomdotsize/R/9_Ratio_250_L_3_R_12.png","img/250/randomdotsizeEA/R/4_Ratio_250_L_3_R_12.png","img/750/randomdotsize/L/6_Ratio_750_L_24_R_18.png","img/900/randomdotsizeEA/L/8_Ratio_900_L_20_R_18.png","img/900/equaldotsize/R/9_Ratio_900_L_18_R_20.png","img/500/randomdotsizeEA/R/15_Ratio_500_L_1_R_2.png","img/250/equaldotanddens/R/12_Ratio_250_L_5_R_20.png","img/250/equaldotsize/L/3_Ratio_250_L_8_R_2.png","img/900/randomdotsizeEA/L/8_Ratio_900_L_20_R_18.png","img/250/randomdotsize/R/8_Ratio_250_L_1_R_4.png"],"Rat0":[["12_Ratio_0_L_9_R_0.png","13_Ratio_0_L_6_R_0.png","5_Ratio_0_L_2_R_0.png","6_Ratio_0_L_4_R_0.png","8_Ratio_0_L_6_R_0.png"],["1_Ratio_0_L_0_R_17.png","10_Ratio_0_L_0_R_22.png","11_Ratio_0_L_0_R_1.png","14_Ratio_0_L_0_R_24.png","15_Ratio_0_L_0_R_4.png","2_Ratio_0_L_0_R_5.png","3_Ratio_0_L_0_R_17.png","4_Ratio_0_L_0_R_7.png","7_Ratio_0_L_0_R_19.png","9_Ratio_0_L_0_R_15.png"]],"Rat250":[["1_Ratio_250_L_8_R_2.png","14_Ratio_250_L_12_R_3.png","15_Ratio_250_L_12_R_3.png","2_Ratio_250_L_16_R_4.png","3_Ratio_250_L_8_R_2.png","5_Ratio_250_L_24_R_6.png","7_Ratio_250_L_8_R_2.png"],["10_Ratio_250_L_4_R_16.png","11_Ratio_250_L_3_R_12.png","12_Ratio_250_L_5_R_20.png","13_Ratio_250_L_2_R_8.png","4_Ratio_250_L_3_R_12.png","6_Ratio_250_L_6_R_24.png","8_Ratio_250_L_1_R_4.png","9_Ratio_250_L_3_R_12.png"]],"Rat500":[["10_Ratio_500_L_4_R_2.png","11_Ratio_500_L_12_R_6.png","13_Ratio_500_L_12_R_6.png","4_Ratio_500_L_18_R_9.png","5_Ratio_500_L_4_R_2.png","7_Ratio_500_L_10_R_5.png","8_Ratio_500_L_8_R_4.png"],["1_Ratio_500_L_9_R_18.png","12_Ratio_500_L_1_R_2.png","14_Ratio_500_L_5_R_10.png","15_Ratio_500_L_1_R_2.png","2_Ratio_500_L_3_R_6.png","3_Ratio_500_L_10_R_20.png","6_Ratio_500_L_9_R_18.png","9_Ratio_500_L_2_R_4.png"]],"Rat750":[["1_Ratio_750_L_20_R_15.png","10_Ratio_750_L_4_R_3.png","13_Ratio_750_L_8_R_6.png","14_Ratio_750_L_8_R_6.png","6_Ratio_750_L_24_R_18.png","8_Ratio_750_L_4_R_3.png","9_Ratio_750_L_4_R_3.png"],["11_Ratio_750_L_12_R_16.png","12_Ratio_750_L_3_R_4.png","15_Ratio_750_L_9_R_12.png","2_Ratio_750_L_6_R_8.png","3_Ratio_750_L_15_R_20.png","4_Ratio_750_L_15_R_20.png","5_Ratio_750_L_15_R_20.png","7_Ratio_750_L_3_R_4.png"]],"Rat900":[["1_Ratio_900_L_10_R_9.png","10_Ratio_900_L_20_R_18.png","2_Ratio_900_L_20_R_18.png","4_Ratio_900_L_20_R_18.png","8_Ratio_900_L_20_R_18.png"],["11_Ratio_900_L_18_R_20.png","12_Ratio_900_L_18_R_20.png","13_Ratio_900_L_18_R_20.png","14_Ratio_900_L_18_R_20.png","15_Ratio_900_L_9_R_10.png","3_Ratio_900_L_9_R_10.png","5_Ratio_900_L_9_R_10.png","6_Ratio_900_L_9_R_10.png","7_Ratio_900_L_9_R_10.png","9_Ratio_900_L_18_R_20.png"]],"Rat1000":[["10_Ratio_1000_L_16_R_16.png","11_Ratio_1000_L_6_R_6.png","12_Ratio_1000_L_14_R_14.png","13_Ratio_1000_L_20_R_20.png","15_Ratio_1000_L_15_R_15.png","2_Ratio_1000_L_17_R_17.png","4_Ratio_1000_L_9_R_9.png","5_Ratio_1000_L_6_R_6.png","6_Ratio_1000_L_19_R_19.png","8_Ratio_1000_L_14_R_14.png","9_Ratio_1000_L_25_R_25.png"],["1_Ratio_1000_L_1_R_1.png","14_Ratio_1000_L_17_R_17.png","3_Ratio_1000_L_17_R_17.png","7_Ratio_1000_L_6_R_6.png"]]}},{"start_time":1549309907967,"click_time":1549309911320,"finger_time":1549309910957,"fix_duration":308.703787930008,"trial":1,"RT":2990,"MT":363,"sideResp":1,"stimulus":"img/900/equaldotsize/L/10_Ratio_900_L_20_R_18.png","xmouse":[408,408,408,408,408,408,408,408,408,408,408,408,408,408,408,408,408,408,408,408,408,408,408,408,408,408,408,408,408,408,408,408,408,408,408,408,408,408,408,408,408,408,408,408,408,408,408,408,408,408,408,408,408,408,408,408,408,408,408,408,408,408,408,408,408,408,408,408,408,408,408,408,408,408,408,408,408,408,408,408,408,408,408,408,408,408,408,408,408,408,408,408,408,408,408,408,408,408,408,408,408,408,408,408,408,408,408,408,408,408,408,408,408,408,408,408,408,408,408,408,408,408,408,408,408,408,408,408,408,408,408,408,408,399.3333435058594,399.3333435058594,398.66668701171875,398,396.66668701171875,396,396,395.3333435058594,394,392,391.3333435058594,390,390,390.66668701171875,390.66668701171875,388.66668701171875,382,376.66668701171875,364,340.66668701171875,330.66668701171875,311.3333435058594,292,280.66668701171875,249.33334350585938,228.6666717529297,208,197.33334350585938,175.33334350585938,145.33334350585938,136,118.66667175292969,104.66667175292969,97.33333587646484,82.66667175292969],"ymouse":[826,826,826,826,826,826,826,826,826,826,826,826,826,826,826,826,826,826,826,826,826,826,826,826,826,826,826,826,826,826,826,826,826,826,826,826,826,826,826,826,826,826,826,826,826,826,826,826,826,826,826,826,826,826,826,826,826,826,826,826,826,826,826,826,826,826,826,826,826,826,826,826,826,826,826,826,826,826,826,826,826,826,826,826,826,826,826,826,826,826,826,826,826,826,826,826,826,826,826,826,826,826,826,826,826,826,826,826,826,826,826,826,826,826,826,826,826,826,826,826,826,826,826,826,826,826,826,826,826,826,826,826,826,813.3333740234375,813.3333740234375,812,811.3333740234375,808.6666870117188,807.3333740234375,806.6666870117188,805.3333740234375,804.6666870117188,802.6666870117188,802,800.6666870117188,799.3333740234375,797.3333740234375,790,777.3333740234375,757.3333740234375,741.3333740234375,706.6666870117188,650.6666870117188,629.3333740234375,584.6666870117188,536.6666870117188,512,434.66668701171875,386.66668701171875,340,317.3333435058594,274,212,192.6666717529297,156,127.33334350585938,115.33334350585938,85.33333587646484],"timestamp_mouse":[10,30,50,70,91,124,130,151,170,190,211,231,250,270,290,310,330,350,370,391,410,430,451,471,491,511,530,551,571,590,611,630,651,670,690,710,730,750,770,791,810,831,850,871,890,910,930,951,970,991,1010,1030,1050,1070,1091,1110,1131,1151,1170,1190,1210,1230,1250,1270,1291,1310,1330,1350,1370,1390,1410,1430,1450,1471,1490,1510,1530,1550,1570,1590,1610,1630,1651,1670,1690,1710,1730,1751,1771,1791,1810,1831,1851,1870,1890,1910,1930,1950,1971,1990,2011,2030,2050,2070,2091,2111,2130,2150,2171,2190,2210,2231,2250,2270,2290,2310,2330,2350,2370,2390,2410,2430,2450,2471,2490,2510,2530,2550,2570,2591,2610,2630,2650,2671,2690,2710,2730,2751,2770,2790,2810,2830,2851,2870,2890,2910,2930,2951,2970,2990,3010,3031,3053,3071,3090,3111,3131,3152,3170,3190,3210,3231,3252,3270,3291,3310,3331,3353],"xSR":350,"ySR":768,"xT1":30,"yT1":0,"xT2":670,"yT2":0,"toosoon":0,"cond_shown":"equaldotsize","ratio_trial":900,"smaller_num":"18","larger_num":"20","correct_side":1,"subjID":"6","gender":"No_gender","age":"No_age","school":"No_school"},{"start_time":1549309913538,"click_time":1549309914938,"finger_time":1549309914757,"fix_duration":380.57313508245085,"trial":2,"RT":1219,"MT":181,"sideResp":1,"stimulus":"img/900/equaldotsize/L/1_Ratio_900_L_10_R_9.png","xmouse":[420,420,420,420,420,420,420,420,420,420,420,420,420,420,420,420,420,420,420,420,420,420,420,420,420,420,420,420,420,420,420,420,420,420,420,420,420,420,420,420,420,420,420,420,420,420,420,420,420,420,420,420,420,420,420,420,420,420,412,406,393.3333435058594,381.3333435058594,350.66668701171875,311.3333435058594,289.3333435058594,212.6666717529297,168.6666717529297,152.6666717529297,121.33333587646484,97.33333587646484],"ymouse":[831,831,831,831,831,831,831,831,831,831,831,831,831,831,831,831,831,831,831,831,831,831,831,831,831,831,831,831,831,831,831,831,831,831,831,831,831,831,831,831,831,831,831,831,831,831,831,831,831,831,831,831,831,831,831,831,831,831,816,787.3333740234375,740.6666870117188,708,630,534.6666870117188,483.3333435058594,321.3333435058594,222,182.6666717529297,107.33333587646484,50.66667175292969],"timestamp_mouse":[30,40,59,79,100,119,140,160,179,200,220,239,260,279,299,320,339,359,380,400,420,439,459,480,499,520,539,560,579,600,620,639,660,679,699,719,739,759,779,799,819,839,859,879,899,919,939,959,979,999,1019,1040,1059,1080,1100,1120,1139,1159,1179,1201,1219,1239,1260,1279,1299,1320,1339,1359,1380,1400],"xSR":350,"ySR":768,"xT1":30,"yT1":0,"xT2":670,"yT2":0,"toosoon":0,"cond_shown":"equaldotsize","ratio_trial":900,"smaller_num":"9","larger_num":"10","correct_side":1,"subjID":"6","gender":"No_gender","age":"No_age","school":"No_school"},{"start_time":1549309918404,"click_time":1549309919598,"finger_time":1549309919357,"fix_duration":1145.9062300726662,"trial":3,"RT":953,"MT":241,"sideResp":2,"stimulus":"img/750/equaldotanddens/R/12_Ratio_750_L_3_R_4.png","xmouse":[387,387,387,387,387,387,387,387,387,387,387,387,387,387,387,387,387,387,387,387,387,387,387,387,387,387,387,387,387,387,387,387,387,387,387,387,387,387,387,387,387,387,387,387,393.3333435058594,406,406,430.66668701171875,466,496.66668701171875,531.3333740234375,548.6666870117188,580,620.6666870117188,630.6666870117188,652,669.3333740234375,678,700.6666870117188,713.3333740234375],"ymouse":[840,840,840,840,840,840,840,840,840,840,840,840,840,840,840,840,840,840,840,840,840,840,840,840,840,840,840,840,840,840,840,840,840,840,840,840,840,840,840,840,840,840,840,840,823.3333740234375,795.3333740234375,795.3333740234375,736.6666870117188,660,598,531.3333740234375,497.3333740234375,433.3333435058594,341.3333435058594,313.3333435058594,258,206.6666717529297,185.33334350585938,125.33334350585938,92.66667175292969],"timestamp_mouse":[14,36,53,73,93,113,134,153,173,193,213,233,253,274,293,314,334,353,373,393,413,433,453,473,494,513,533,553,574,593,613,634,653,673,693,714,734,754,774,793,814,833,854,873,893,914,934,953,974,993,1014,1033,1053,1075,1093,1113,1133,1153,1175,1194],"xSR":350,"ySR":768,"xT1":30,"yT1":0,"xT2":670,"yT2":0,"toosoon":0,"cond_shown":"equaldotanddens","ratio_trial":750,"smaller_num":"3","larger_num":"4","correct_side":2,"subjID":"6","gender":"No_gender","age":"No_age","school":"No_school"},{"start_time":1549309920609,"click_time":1549309921878,"finger_time":1549309921578,"fix_duration":250,"trial":4,"RT":969,"MT":300,"sideResp":2,"stimulus":"img/900/randomdotsize/L/1_Ratio_900_L_10_R_9.png","xmouse":[380,380,380,380,380,380,380,380,380,380,380,380,380,380,380,380,380,379.3333435058594,379.3333435058594,379.3333435058594,379.3333435058594,379.3333435058594,379.3333435058594,379.3333435058594,379.3333435058594,379.3333435058594,379.3333435058594,379.3333435058594,379.3333435058594,379.3333435058594,379.3333435058594,379.3333435058594,379.3333435058594,379.3333435058594,379.3333435058594,379.3333435058594,379.3333435058594,378.66668701171875,378.66668701171875,378.66668701171875,378.66668701171875,378.66668701171875,378.66668701171875,378.66668701171875,378.66668701171875,378.66668701171875,378.66668701171875,402.66668701171875,426,468,499.3333435058594,515.3333740234375,546.6666870117188,575.3333740234375,612.6666870117188,624.6666870117188,643.3333740234375,656.6666870117188,660.6666870117188,672.6666870117188,681.3333740234375,684.6666870117188,691.3333740234375,702],"ymouse":[846.6666870117188,846.6666870117188,846.6666870117188,846.6666870117188,846.6666870117188,846.6666870117188,846.6666870117188,846.6666870117188,846.6666870117188,846.6666870117188,846.6666870117188,846.6666870117188,846.6666870117188,846.6666870117188,846,846,846,846,846,846,846,846,846,846,846,846,846,844.6666870117188,844.6666870117188,844.6666870117188,844.6666870117188,844.6666870117188,844.6666870117188,844.6666870117188,844.6666870117188,844.6666870117188,844.6666870117188,842.6666870117188,842.6666870117188,842.6666870117188,842.6666870117188,842.6666870117188,842.6666870117188,842.6666870117188,842.6666870117188,842.6666870117188,842.6666870117188,801.3333740234375,765.3333740234375,698,646.6666870117188,618.6666870117188,559.3333740234375,498,414.66668701171875,386.66668701171875,336,288,266.66668701171875,203.33334350585938,165.33334350585938,147.33334350585938,115.33334350585938,87.33333587646484],"timestamp_mouse":[10,33,48,68,88,109,128,149,168,189,208,228,249,269,289,308,329,348,368,388,409,428,448,468,489,508,528,549,568,588,609,628,648,668,688,708,728,748,768,788,808,828,848,869,889,908,928,949,969,988,1008,1028,1048,1069,1088,1109,1128,1148,1168,1190,1209,1229,1249,1269],"xSR":350,"ySR":768,"xT1":30,"yT1":0,"xT2":670,"yT2":0,"toosoon":0,"cond_shown":"randomdotsize","ratio_trial":900,"smaller_num":"9","larger_num":"10","correct_side":1,"subjID":"6","gender":"No_gender","age":"No_age","school":"No_school"},{"start_time":1549309923914,"click_time":1549309924998,"finger_time":1549309924777,"fix_duration":1235.498362388661,"trial":5,"RT":863,"MT":221,"sideResp":1,"stimulus":"img/500/equaldotsize/L/7_Ratio_500_L_10_R_5.png","xmouse":[386.66668701171875,386.66668701171875,386.66668701171875,386.66668701171875,385.3333435058594,385.3333435058594,385.3333435058594,385.3333435058594,385.3333435058594,385.3333435058594,385.3333435058594,385.3333435058594,385.3333435058594,385.3333435058594,384.66668701171875,384.66668701171875,384.66668701171875,384.66668701171875,384.66668701171875,384.66668701171875,384.66668701171875,384.66668701171875,384.66668701171875,384.66668701171875,383.3333435058594,383.3333435058594,383.3333435058594,383.3333435058594,383.3333435058594,383.3333435058594,383.3333435058594,383.3333435058594,383.3333435058594,383.3333435058594,384,384,384,384,384,384,384,384,384,355.3333435058594,344,294,280.66668701171875,254,240,207.33334350585938,156.6666717529297,124.66667175292969,112,90.66667175292969,84.66667175292969],"ymouse":[814,814,814,814,813.3333740234375,813.3333740234375,813.3333740234375,813.3333740234375,813.3333740234375,813.3333740234375,813.3333740234375,813.3333740234375,813.3333740234375,813.3333740234375,812.6666870117188,812.6666870117188,812.6666870117188,812.6666870117188,812.6666870117188,812.6666870117188,812.6666870117188,812.6666870117188,812.6666870117188,812.6666870117188,809.3333740234375,809.3333740234375,809.3333740234375,809.3333740234375,809.3333740234375,809.3333740234375,809.3333740234375,809.3333740234375,809.3333740234375,809.3333740234375,807.3333740234375,807.3333740234375,807.3333740234375,807.3333740234375,807.3333740234375,807.3333740234375,807.3333740234375,807.3333740234375,807.3333740234375,750.6666870117188,725.3333740234375,594,554.6666870117188,472,429.3333435058594,348.66668701171875,239.33334350585938,178,152.6666717529297,106,86],"timestamp_mouse":[8,33,43,63,84,103,124,144,163,183,203,224,243,263,284,303,324,343,364,383,403,423,444,464,483,503,524,543,563,583,603,624,643,663,683,705,724,743,764,783,803,823,843,863,883,905,924,944,963,984,1004,1023,1044,1063,1084],"xSR":350,"ySR":768,"xT1":30,"yT1":0,"xT2":670,"yT2":0,"toosoon":0,"cond_shown":"equaldotsize","ratio_trial":500,"smaller_num":"5","larger_num":"10","correct_side":1,"subjID":"6","gender":"No_gender","age":"No_age","school":"No_school"},{"start_time":1549309928112,"click_time":1549309929578,"finger_time":1549309929277,"fix_duration":893.9336553887773,"trial":6,"RT":1165,"MT":301,"sideResp":1,"stimulus":"img/500/randomdotsize/L/5_Ratio_500_L_4_R_2.png","xmouse":[401.3333435058594,401.3333435058594,401.3333435058594,401.3333435058594,402,402,403.3333435058594,404,404.66668701171875,405.3333435058594,406,406.66668701171875,406.66668701171875,406.66668701171875,406.66668701171875,406.66668701171875,406,406,406,405.3333435058594,405.3333435058594,404.66668701171875,404.66668701171875,404.66668701171875,404,404,404,403.3333435058594,403.3333435058594,403.3333435058594,403.3333435058594,403.3333435058594,403.3333435058594,403.3333435058594,403.3333435058594,403.3333435058594,402.66668701171875,402.66668701171875,402.66668701171875,402.66668701171875,402.66668701171875,400.66668701171875,400,400,400,400.66668701171875,400.66668701171875,400.66668701171875,400.66668701171875,400.66668701171875,400.66668701171875,400,400,400,400,400,400,397.3333435058594,386.66668701171875,378,360.66668701171875,338.66668701171875,302.66668701171875,290,263.3333435058594,233.33334350585938,221.33334350585938,188,168,158.6666717529297,140,122,101.33333587646484,94],"ymouse":[837.3333740234375,836.6666870117188,835.3333740234375,834,832.6666870117188,831.3333740234375,828,826,823.3333740234375,822,820,816.6666870117188,815.3333740234375,814.6666870117188,814,813.3333740234375,812,811.3333740234375,811.3333740234375,811.3333740234375,810.6666870117188,810.6666870117188,810.6666870117188,810.6666870117188,810.6666870117188,810.6666870117188,810.6666870117188,810.6666870117188,810.6666870117188,810.6666870117188,810.6666870117188,810,810,810,810.6666870117188,810.6666870117188,810.6666870117188,810.6666870117188,810.6666870117188,810.6666870117188,810.6666870117188,808.6666870117188,806.6666870117188,806,805.3333740234375,804.6666870117188,804,802,800.6666870117188,800,799.3333740234375,799.3333740234375,798.6666870117188,798.6666870117188,798.6666870117188,798,797.3333740234375,784.6666870117188,757.3333740234375,738.6666870117188,698,656.6666870117188,584.6666870117188,562,512.6666870117188,461.3333435058594,438,352.66668701171875,291.3333435058594,261.3333435058594,211.33334350585938,169.33334350585938,112.66667175292969,95.33333587646484],"timestamp_mouse":[5,26,46,65,86,105,128,146,165,185,205,227,245,266,285,305,327,345,366,386,405,425,445,466,485,505,526,545,565,585,605,627,645,665,685,705,728,745,765,785,805,825,846,865,885,905,925,946,965,985,1005,1025,1045,1066,1085,1105,1126,1145,1165,1185,1205,1225,1246,1265,1285,1305,1326,1348,1365,1385,1405,1425,1446,1465],"xSR":350,"ySR":768,"xT1":30,"yT1":0,"xT2":670,"yT2":0,"toosoon":0,"cond_shown":"randomdotsize","ratio_trial":500,"smaller_num":"2","larger_num":"4","correct_side":1,"subjID":"6","gender":"No_gender","age":"No_age","school":"No_school"},{"start_time":1549309931520,"click_time":1549309932357,"finger_time":1549309932158,"fix_duration":956.2395451710144,"trial":7,"RT":638,"MT":199,"sideResp":1,"stimulus":"img/250/equaldotanddens/L/5_Ratio_250_L_24_R_6.png","xmouse":[410.66668701171875,408.66668701171875,408.66668701171875,408.66668701171875,408.66668701171875,408.66668701171875,408.66668701171875,408.66668701171875,408.66668701171875,408.66668701171875,408.66668701171875,402,400.66668701171875,400.66668701171875,401.3333435058594,401.3333435058594,402,401.3333435058594,401.3333435058594,400.66668701171875,400.66668701171875,400,400,400,400,400,400,400,400,400,400,400,355.3333435058594,304.66668701171875,286.66668701171875,246.6666717529297,225.33334350585938,191.33334350585938,152,126.66667175292969,114.66667175292969,94.66667175292969,78],"ymouse":[804,805.3333740234375,805.3333740234375,805.3333740234375,805.3333740234375,805.3333740234375,805.3333740234375,805.3333740234375,805.3333740234375,805.3333740234375,805.3333740234375,816,819.3333740234375,820,820.6666870117188,821.3333740234375,821.3333740234375,821.3333740234375,821.3333740234375,821.3333740234375,821.3333740234375,821.3333740234375,820.6666870117188,820.6666870117188,820,820,820,820,820,820,820,820,716,604.6666870117188,568,481.3333435058594,432.66668701171875,344.66668701171875,248,186.6666717529297,156,107.33333587646484,75.33333587646484],"timestamp_mouse":[3,25,48,57,77,97,117,139,158,177,197,217,239,257,277,298,318,337,357,378,397,417,437,457,478,498,517,539,558,577,597,617,638,658,677,698,717,737,758,777,798,817,837],"xSR":350,"ySR":768,"xT1":30,"yT1":0,"xT2":670,"yT2":0,"toosoon":0,"cond_shown":"equaldotanddens","ratio_trial":250,"smaller_num":"6","larger_num":"24","correct_side":1,"subjID":"6","gender":"No_gender","age":"No_age","school":"No_school"},{"start_time":1549309934131,"click_time":1549309935458,"finger_time":1549309935197,"fix_duration":1092.3148809438392,"trial":8,"RT":1066,"MT":261,"sideResp":2,"stimulus":"img/750/randomdotsizeEA/L/8_Ratio_750_L_4_R_3.png","xmouse":[400,400,400,400,400,400,400,398,398,398,398,398,398,398,398,398,398,395.3333435058594,395.3333435058594,395.3333435058594,395.3333435058594,395.3333435058594,395.3333435058594,395.3333435058594,395.3333435058594,395.3333435058594,395.3333435058594,393.3333435058594,393.3333435058594,393.3333435058594,393.3333435058594,393.3333435058594,393.3333435058594,393.3333435058594,393.3333435058594,393.3333435058594,393.3333435058594,392.66668701171875,392.66668701171875,392.66668701171875,392.66668701171875,392.66668701171875,392.66668701171875,392.66668701171875,392.66668701171875,392.66668701171875,392.66668701171875,392,392,392,392,392,392,424,448.66668701171875,462,493.3333435058594,528.6666870117188,583.3333740234375,600.6666870117188,633.3333740234375,660.6666870117188,671.3333740234375,694,704.6666870117188,707.3333740234375,710],"ymouse":[814,814,814,814,814,814,814,811.3333740234375,811.3333740234375,811.3333740234375,811.3333740234375,811.3333740234375,811.3333740234375,811.3333740234375,811.3333740234375,811.3333740234375,811.3333740234375,809.3333740234375,809.3333740234375,809.3333740234375,809.3333740234375,809.3333740234375,809.3333740234375,809.3333740234375,809.3333740234375,809.3333740234375,809.3333740234375,808,808,808,808,808,808,808,808,808,808,806.6666870117188,806.6666870117188,806.6666870117188,806.6666870117188,806.6666870117188,806.6666870117188,806.6666870117188,806.6666870117188,806.6666870117188,806.6666870117188,806.6666870117188,806.6666870117188,806.6666870117188,806.6666870117188,806.6666870117188,806.6666870117188,730,676,647.3333740234375,582.6666870117188,506,383.3333435058594,344.66668701171875,277.3333435058594,220,196,137.33334350585938,111.33333587646484,102,90],"timestamp_mouse":[10,27,46,66,86,107,127,147,167,187,207,226,246,266,287,306,326,346,366,386,407,426,446,466,487,506,526,546,566,587,606,626,646,666,686,707,727,746,766,787,806,826,846,867,886,906,927,946,966,986,1006,1026,1047,1066,1087,1106,1127,1146,1166,1186,1207,1226,1246,1267,1287,1306,1326],"xSR":350,"ySR":768,"xT1":30,"yT1":0,"xT2":670,"yT2":0,"toosoon":0,"cond_shown":"randomdotsizeEA","ratio_trial":750,"smaller_num":"3","larger_num":"4","correct_side":1,"subjID":"6","gender":"No_gender","age":"No_age","school":"No_school"},{"start_time":1549309937310,"click_time":1549309938658,"finger_time":1549309938397,"fix_duration":1051.7434361557066,"trial":9,"RT":1087,"MT":261,"sideResp":1,"stimulus":"img/900/equaldotsize/L/4_Ratio_900_L_20_R_18.png","xmouse":[394,394,394,393.3333435058594,393.3333435058594,393.3333435058594,393.3333435058594,393.3333435058594,393.3333435058594,393.3333435058594,393.3333435058594,393.3333435058594,393.3333435058594,393.3333435058594,393.3333435058594,392.66668701171875,392.66668701171875,392.66668701171875,392.66668701171875,392.66668701171875,392.66668701171875,392,392,392,392,392,391.3333435058594,391.3333435058594,391.3333435058594,390.66668701171875,390.66668701171875,390.66668701171875,390.66668701171875,390,390,390,390,390,390,390,389.3333435058594,389.3333435058594,389.3333435058594,389.3333435058594,388.66668701171875,388.66668701171875,388,388,388,388,388,388,388,388,387.3333435058594,378,372,358,338.66668701171875,326.66668701171875,281.3333435058594,250.6666717529297,216,196.6666717529297,160,113.33333587646484,100.66667175292969,80.66667175292969],"ymouse":[792.6666870117188,792.6666870117188,792.6666870117188,792,791.3333740234375,791.3333740234375,790.6666870117188,790.6666870117188,790.6666870117188,790.6666870117188,790,790,790,790,790,790,789.3333740234375,789.3333740234375,789.3333740234375,789.3333740234375,788.6666870117188,788,788,788,788,787.3333740234375,787.3333740234375,787.3333740234375,786.6666870117188,786.6666870117188,786,786,786,786,786,786,785.3333740234375,785.3333740234375,785.3333740234375,785.3333740234375,785.3333740234375,785.3333740234375,785.3333740234375,784.6666870117188,784.6666870117188,784.6666870117188,784.6666870117188,784,784,784,783.3333740234375,782.6666870117188,778.6666870117188,773.3333740234375,750.6666870117188,697.3333740234375,677.3333740234375,632,574.6666870117188,544.6666870117188,445.3333435058594,376,308,275.3333435058594,217.33334350585938,141.33334350585938,120,84.66667175292969],"timestamp_mouse":[12,36,48,67,87,108,127,147,168,187,208,227,247,267,287,307,327,347,367,388,407,427,447,467,487,507,527,547,567,589,608,627,648,668,687,707,727,747,768,787,808,827,847,868,887,908,927,947,967,988,1007,1028,1048,1067,1087,1108,1127,1148,1168,1187,1208,1227,1248,1267,1288,1308,1328,1348],"xSR":350,"ySR":768,"xT1":30,"yT1":0,"xT2":670,"yT2":0,"toosoon":0,"cond_shown":"equaldotsize","ratio_trial":900,"smaller_num":"18","larger_num":"20","correct_side":1,"subjID":"6","gender":"No_gender","age":"No_age","school":"No_school"},{"start_time":1549309942005,"click_time":1549309947999,"finger_time":1549309946558,"fix_duration":905.7025872787194,"trial":10,"RT":4553,"MT":1441,"sideResp":2,"stimulus":"img/250/randomdotsize/R/12_Ratio_250_L_5_R_20.png","xmouse":[420.66668701171875,420.66668701171875,420.66668701171875,420.66668701171875,420.66668701171875,420.66668701171875,420.66668701171875,420.66668701171875,420.66668701171875,420.66668701171875,420.66668701171875,420.66668701171875,420.66668701171875,420.66668701171875,420.66668701171875,420.66668701171875,420.66668701171875,420.66668701171875,420.66668701171875,420.66668701171875,420.66668701171875,420.66668701171875,420.66668701171875,420.66668701171875,420.66668701171875,420.66668701171875,420.66668701171875,420.66668701171875,420.66668701171875,420.66668701171875,420.66668701171875,420.66668701171875,420.66668701171875,420.66668701171875,420.66668701171875,420.66668701171875,420.66668701171875,420.66668701171875,420.66668701171875,420.66668701171875,420.66668701171875,420.66668701171875,420.66668701171875,420.66668701171875,420.66668701171875,420.66668701171875,420.66668701171875,420.66668701171875,420.66668701171875,420.66668701171875,420.66668701171875,420.66668701171875,420.66668701171875,420.66668701171875,420.66668701171875,420.66668701171875,420.66668701171875,420.66668701171875,420.66668701171875,420.66668701171875,420.66668701171875,420.66668701171875,420.66668701171875,420.66668701171875,420.66668701171875,420.66668701171875,420.66668701171875,420.66668701171875,420.66668701171875,420.66668701171875,420.66668701171875,420.66668701171875,420.66668701171875,420.66668701171875,420.66668701171875,420.66668701171875,420.66668701171875,420.66668701171875,420.66668701171875,420.66668701171875,420.66668701171875,420.66668701171875,420.66668701171875,420.66668701171875,420.66668701171875,420.66668701171875,420.66668701171875,420.66668701171875,420.66668701171875,420.66668701171875,420.66668701171875,420.66668701171875,420.66668701171875,420.66668701171875,420.66668701171875,420.66668701171875,420.66668701171875,420.66668701171875,420.66668701171875,420.66668701171875,420.66668701171875,420.66668701171875,420.66668701171875,420.66668701171875,420.66668701171875,420.66668701171875,420.66668701171875,420.66668701171875,420.66668701171875,420.66668701171875,420.66668701171875,420.66668701171875,420.66668701171875,420.66668701171875,420.66668701171875,420.66668701171875,420.66668701171875,420.66668701171875,420.66668701171875,420.66668701171875,420.66668701171875,420.66668701171875,420.66668701171875,420.66668701171875,420.66668701171875,420.66668701171875,420.66668701171875,420.66668701171875,420.66668701171875,420.66668701171875,420.66668701171875,420.66668701171875,420.66668701171875,420.66668701171875,420.66668701171875,420.66668701171875,420.66668701171875,420.66668701171875,421,421,421,421,421,421,421,421,421,421,421,421,421,421,421,421,421,421,421,421,421,421,421,421,421,421,421,421,421,421,421,421,421,421,421,421,421,421,421,421,421,421,421,421,421,421,421,421,421,421,421,421,421,421,421,421,421,421,421,404.66668701171875,404.66668701171875,404.66668701171875,404.66668701171875,404.66668701171875,404.66668701171875,404.66668701171875,404.66668701171875,404.66668701171875,405.3333435058594,405.3333435058594,405.3333435058594,405.3333435058594,405.3333435058594,405.3333435058594,405.3333435058594,405.3333435058594,405.3333435058594,405.3333435058594,406,406,406,406,406,406,406,406,406,406,435.3333435058594,458.66668701171875,458.66668701171875,478,490.66668701171875,494,505.3333435058594,508,512,514,516,517.3333740234375,517.3333740234375,517.3333740234375,517.3333740234375,517.3333740234375,517.3333740234375,517.3333740234375,517.3333740234375,517.3333740234375,517.3333740234375,517.3333740234375,517.3333740234375,517.3333740234375,517.3333740234375,517.3333740234375,517.3333740234375,517.3333740234375,517.3333740234375,517.3333740234375,517.3333740234375,517.3333740234375,517.3333740234375,517.3333740234375,517.3333740234375,517.3333740234375,517.3333740234375,517.3333740234375,517.3333740234375,517.3333740234375,517.3333740234375,517.3333740234375,517.3333740234375,517.3333740234375,517.3333740234375,517.3333740234375,517.3333740234375,517.3333740234375,517.3333740234375,517.3333740234375,517.3333740234375,517.3333740234375,517.3333740234375,517.3333740234375,517.3333740234375,517.3333740234375,517.3333740234375,517.3333740234375,517.3333740234375,402,407.3333435058594,453.3333435058594,468.66668701171875,502,518.6666870117188,550.6666870117188,595.3333740234375,619.3333740234375,630,650.6666870117188,668.6666870117188,690,694],"ymouse":[806.6666870117188,806.6666870117188,806.6666870117188,806.6666870117188,806.6666870117188,806.6666870117188,806.6666870117188,806.6666870117188,806.6666870117188,806.6666870117188,806.6666870117188,806.6666870117188,806.6666870117188,806.6666870117188,806.6666870117188,806.6666870117188,806.6666870117188,806.6666870117188,806.6666870117188,806.6666870117188,806.6666870117188,806.6666870117188,806.6666870117188,806.6666870117188,806.6666870117188,806.6666870117188,806.6666870117188,806.6666870117188,806.6666870117188,806.6666870117188,806.6666870117188,806.6666870117188,806.6666870117188,806.6666870117188,806.6666870117188,806.6666870117188,806.6666870117188,806.6666870117188,806.6666870117188,806.6666870117188,806.6666870117188,806.6666870117188,806.6666870117188,806.6666870117188,806.6666870117188,806.6666870117188,806.6666870117188,806.6666870117188,806.6666870117188,806.6666870117188,806.6666870117188,806.6666870117188,806.6666870117188,806.6666870117188,806.6666870117188,806.6666870117188,806.6666870117188,806.6666870117188,806.6666870117188,806.6666870117188,806.6666870117188,806.6666870117188,806.6666870117188,806.6666870117188,806.6666870117188,806.6666870117188,806.6666870117188,806.6666870117188,806.6666870117188,806.6666870117188,806.6666870117188,806.6666870117188,806.6666870117188,806.6666870117188,806.6666870117188,806.6666870117188,806.6666870117188,806.6666870117188,806.6666870117188,806.6666870117188,806.6666870117188,806.6666870117188,806.6666870117188,806.6666870117188,806.6666870117188,806.6666870117188,806.6666870117188,806.6666870117188,806.6666870117188,806.6666870117188,806.6666870117188,806.6666870117188,806.6666870117188,806.6666870117188,806.6666870117188,806.6666870117188,806.6666870117188,806.6666870117188,806.6666870117188,806.6666870117188,806.6666870117188,806.6666870117188,806.6666870117188,806.6666870117188,806.6666870117188,806.6666870117188,806.6666870117188,806.6666870117188,806.6666870117188,806.6666870117188,806.6666870117188,806.6666870117188,806.6666870117188,806.6666870117188,806.6666870117188,806.6666870117188,806.6666870117188,806.6666870117188,806.6666870117188,806.6666870117188,806.6666870117188,806.6666870117188,806.6666870117188,806.6666870117188,806.6666870117188,806.6666870117188,806.6666870117188,806.6666870117188,806.6666870117188,806.6666870117188,806.6666870117188,806.6666870117188,806.6666870117188,806.6666870117188,806.6666870117188,806.6666870117188,806.6666870117188,806.6666870117188,817,817,817,817,817,817,817,817,817,817,817,817,817,817,817,817,817,817,817,817,817,817,817,817,817,817,817,817,817,817,817,817,817,817,817,817,817,817,817,817,817,817,817,817,817,817,817,817,817,817,817,817,817,817,817,817,817,817,817,816.6666870117188,816.6666870117188,816.6666870117188,816.6666870117188,816.6666870117188,816.6666870117188,816.6666870117188,816.6666870117188,816.6666870117188,816.6666870117188,816.6666870117188,816.6666870117188,816.6666870117188,816.6666870117188,816.6666870117188,816.6666870117188,816.6666870117188,816.6666870117188,816.6666870117188,813.3333740234375,813.3333740234375,813.3333740234375,813.3333740234375,813.3333740234375,813.3333740234375,813.3333740234375,813.3333740234375,813.3333740234375,813.3333740234375,760.6666870117188,726,726,700,685.3333740234375,680.6666870117188,668,665.3333740234375,661.3333740234375,659.3333740234375,657.3333740234375,656,656,656,656,656,656,656,656,656,656,656,656,656,656,656,656,656,656,656,656,656,656,656,656,656,656,656,656,656,656,656,656,656,656,656,656,656,656,656,656,656,656,656,656,656,656,656,656,838.6666870117188,820,696,662.6666870117188,597.3333740234375,563.3333740234375,493.3333435058594,393.3333435058594,331.3333435058594,302.66668701171875,241.33334350585938,185.33334350585938,114.66667175292969,96],"timestamp_mouse":[41,52,72,92,112,132,153,172,192,212,233,252,272,292,312,333,352,372,392,412,432,452,473,493,513,533,553,573,593,612,633,652,672,692,713,732,752,772,792,812,833,853,873,892,913,932,953,973,993,1013,1033,1052,1072,1092,1112,1133,1152,1173,1192,1213,1232,1252,1272,1292,1313,1332,1353,1373,1393,1412,1433,1453,1472,1492,1513,1533,1553,1573,1593,1612,1633,1652,1673,1692,1713,1732,1753,1772,1793,1812,1833,1852,1872,1893,1913,1933,1952,1972,1992,2013,2032,2053,2072,2093,2112,2133,2153,2172,2192,2213,2232,2252,2273,2292,2313,2332,2352,2372,2392,2412,2432,2452,2472,2492,2512,2533,2552,2572,2593,2612,2632,2652,2673,2692,2713,2732,2753,2772,2793,2813,2833,2853,2872,2892,2912,2933,2952,2972,2992,3012,3032,3053,3073,3092,3112,3133,3152,3172,3193,3213,3233,3252,3273,3292,3313,3332,3353,3372,3392,3412,3432,3453,3472,3492,3513,3533,3553,3573,3592,3612,3633,3652,3672,3692,3712,3733,3752,3772,3792,3813,3832,3852,3872,3892,3912,3932,3952,3972,3993,4012,4032,4053,4073,4093,4112,4132,4152,4172,4192,4213,4232,4253,4273,4293,4313,4332,4353,4372,4393,4412,4432,4452,4472,4492,4512,4533,4553,4574,4593,4613,4632,4652,4676,4692,4712,4733,4752,4772,4792,4812,4832,4852,4872,4893,4912,4932,4952,4972,4993,5012,5032,5052,5072,5092,5112,5133,5153,5172,5192,5212,5233,5253,5272,5292,5312,5333,5353,5372,5392,5412,5432,5453,5472,5492,5523,5533,5552,5572,5593,5612,5632,5652,5672,5692,5712,5733,5753,5773,5792,5812,5833,5852,5874,5892,5912,5932,5953,5974,5994],"xSR":350,"ySR":768,"xT1":30,"yT1":0,"xT2":670,"yT2":0,"toosoon":0,"cond_shown":"randomdotsize","ratio_trial":250,"smaller_num":"5","larger_num":"20","correct_side":2,"subjID":"6","gender":"No_gender","age":"No_age","school":"No_school"},{"start_time":1549309949131,"click_time":1549309950238,"finger_time":1549309949999,"fix_duration":250,"trial":11,"RT":868,"MT":239,"sideResp":1,"stimulus":"img/750/randomdotsizeEA/L/13_Ratio_750_L_8_R_6.png","xmouse":[394.66668701171875,394.66668701171875,394.66668701171875,394.66668701171875,394.66668701171875,394,394,393.3333435058594,393.3333435058594,393.3333435058594,393.3333435058594,393.3333435058594,393.3333435058594,393.3333435058594,393.3333435058594,393.3333435058594,393.3333435058594,393.3333435058594,393.3333435058594,393.3333435058594,393.3333435058594,393.3333435058594,393.3333435058594,390.66668701171875,390.66668701171875,390.66668701171875,390.66668701171875,390.66668701171875,390.66668701171875,390.66668701171875,390.66668701171875,390.66668701171875,390.66668701171875,391.3333435058594,391.3333435058594,391.3333435058594,391.3333435058594,391.3333435058594,391.3333435058594,391.3333435058594,391.3333435058594,391.3333435058594,391.3333435058594,378,366.66668701171875,352.66668701171875,344,327.3333435058594,296,268.66668701171875,253.33334350585938,221.33334350585938,205.33334350585938,146,134,110],"ymouse":[808.6666870117188,809.3333740234375,809.3333740234375,810,810,810,810.6666870117188,810.6666870117188,810.6666870117188,810.6666870117188,810.6666870117188,810,810,809.3333740234375,809.3333740234375,809.3333740234375,809.3333740234375,809.3333740234375,809.3333740234375,809.3333740234375,809.3333740234375,809.3333740234375,809.3333740234375,807.3333740234375,807.3333740234375,807.3333740234375,807.3333740234375,807.3333740234375,807.3333740234375,807.3333740234375,807.3333740234375,807.3333740234375,807.3333740234375,808,808,808,808,808,808,808,808,808,808,726,664,602,569.3333740234375,501.3333740234375,398,340,310,255.33334350585938,231.33334350585938,140,120.66667175292969,84.66667175292969],"timestamp_mouse":[10,32,46,66,86,106,127,147,166,186,206,226,246,266,286,306,327,346,366,387,406,426,446,466,486,506,526,547,567,586,607,626,646,667,686,706,727,746,766,787,807,827,846,867,887,906,926,946,967,986,1007,1026,1046,1068,1086,1106],"xSR":350,"ySR":768,"xT1":30,"yT1":0,"xT2":670,"yT2":0,"toosoon":0,"cond_shown":"randomdotsizeEA","ratio_trial":750,"smaller_num":"6","larger_num":"8","correct_side":1,"subjID":"6","gender":"No_gender","age":"No_age","school":"No_school"},{"start_time":1549309952289,"click_time":1549309953838,"finger_time":1549309953498,"fix_duration":250,"trial":12,"RT":1209,"MT":340,"sideResp":1,"stimulus":"img/500/randomdotsize/L/7_Ratio_500_L_10_R_5.png","xmouse":[391,391,391,391,391,391,391,391,391,391,391,391,391,391,391,391,391,391,391,391,391,391,391,391,391,391,391,391,391,391,391,391,391,391,391,391,391,391,391,391,391,391,391,391,391,391,391,391,377.3333435058594,377.3333435058594,376.66668701171875,376.66668701171875,376.66668701171875,376.66668701171875,376.66668701171875,376.66668701171875,376.66668701171875,376.66668701171875,376.66668701171875,376.66668701171875,380.66668701171875,378,378,378,378,354.66668701171875,344,329.3333435058594,316,308,287.3333435058594,254,230.6666717529297,219.33334350585938,198,184.6666717529297,146.6666717529297,125.33334350585938],"ymouse":[814,814,814,814,814,814,814,814,814,814,814,814,814,814,814,814,814,814,814,814,814,814,814,814,814,814,814,814,814,814,814,814,814,814,814,814,814,814,814,814,814,814,814,814,814,814,814,814,805.3333740234375,805.3333740234375,804,804,804,804,804,804,804,804,804,804,742,690.6666870117188,690.6666870117188,690.6666870117188,690.6666870117188,581.3333740234375,550,498.66668701171875,456.66668701171875,434,388.66668701171875,316,268,244.66668701171875,196.6666717529297,172,103.33333587646484,63.333335876464844],"timestamp_mouse":[9,28,48,69,88,109,128,149,169,188,208,228,249,268,288,309,329,349,373,389,408,428,448,468,488,508,529,549,568,588,609,628,649,669,688,708,729,749,769,788,808,828,848,869,888,909,928,948,968,989,1008,1028,1048,1068,1088,1108,1128,1149,1168,1189,1209,1232,1249,1268,1288,1309,1328,1348,1369,1389,1409,1430,1448,1468,1488,1508,1530,1549],"xSR":350,"ySR":768,"xT1":30,"yT1":0,"xT2":670,"yT2":0,"toosoon":0,"cond_shown":"randomdotsize","ratio_trial":500,"smaller_num":"5","larger_num":"10","correct_side":1,"subjID":"6","gender":"No_gender","age":"No_age","school":"No_school"},{"start_time":1549309955197,"click_time":1549309956639,"finger_time":1549309955838,"fix_duration":618.1802191812828,"trial":13,"RT":641,"MT":801,"sideResp":1,"stimulus":"img/250/equaldotanddens/L/3_Ratio_250_L_8_R_2.png","xmouse":[408.66668701171875,408.66668701171875,408.66668701171875,408.66668701171875,407.3333435058594,407.3333435058594,407.3333435058594,407.3333435058594,407.3333435058594,407.3333435058594,406.66668701171875,406,406,406,406,406,405.3333435058594,405.3333435058594,405.3333435058594,405.3333435058594,405.3333435058594,404.66668701171875,404,404,404,404,404,404,404,404,404,404,358.66668701171875,328,312,272.66668701171875,252.66668701171875,190,145.33334350585938,104,88,52,19.33333396911621,13.333333969116211,12.666667938232422,12,12.666667938232422,23.33333396911621,84,124,139.33334350585938,168.6666717529297,214.6666717529297,246,261.3333435058594,287.3333435058594,298.66668701171875,321.3333435058594,327.3333435058594,332,332.66668701171875,334,332.66668701171875,332.66668701171875,332.66668701171875,285.3333435058594,276.66668701171875,242,216.6666717529297,186,170,138.6666717529297,96.66667175292969],"ymouse":[829.3333740234375,829.3333740234375,829.3333740234375,829.3333740234375,829.3333740234375,829.3333740234375,828.6666870117188,828.6666870117188,828.6666870117188,828.6666870117188,828,828,828,828,828,828,828,828,827.3333740234375,827.3333740234375,827.3333740234375,826.6666870117188,826.6666870117188,826,826,826,826,826,826,826,826,826,728.6666870117188,663.3333740234375,628.6666870117188,550,508,376,288.66668701171875,212.6666717529297,180,114.66667175292969,42.66666793823242,18.666667938232422,13.333333969116211,11.333333969116211,12.666667938232422,26.666667938232422,102.66667175292969,160,184.6666717529297,238.6666717529297,325.3333435058594,386,417.3333435058594,473.3333435058594,498.66668701171875,555.3333740234375,575.3333740234375,583.3333740234375,584.6666870117188,585.3333740234375,578,578,578,440.66668701171875,416,325.3333435058594,266.66668701171875,215.33334350585938,192,149.33334350585938,90],"timestamp_mouse":[0,20,40,60,81,100,121,140,161,180,200,220,240,260,281,300,320,341,360,380,400,421,441,461,480,501,520,541,561,580,601,620,641,660,680,700,720,742,761,780,800,820,841,860,880,901,920,941,961,980,1000,1020,1041,1061,1080,1100,1120,1142,1161,1180,1200,1220,1240,1260,1280,1300,1320,1342,1361,1380,1400,1421,1442],"xSR":350,"ySR":768,"xT1":30,"yT1":0,"xT2":670,"yT2":0,"toosoon":0,"cond_shown":"equaldotanddens","ratio_trial":250,"smaller_num":"2","larger_num":"8","correct_side":1,"subjID":"6","gender":"No_gender","age":"No_age","school":"No_school"},{"start_time":1549309958598,"click_time":1549309960098,"finger_time":1549309959617,"fix_duration":1279.824885479406,"trial":14,"RT":1019,"MT":481,"sideResp":2,"stimulus":"img/900/equaldotanddens/L/2_Ratio_900_L_20_R_18.png","xmouse":[421.3333435058594,421.3333435058594,421.3333435058594,421.3333435058594,420,420,420,420,420,420,420,420,420,420,420,420,420,420,420,420,420,420,420,420,420,420,420,420,419.3333435058594,419.3333435058594,419.3333435058594,419.3333435058594,419.3333435058594,419.3333435058594,419.3333435058594,419.3333435058594,419.3333435058594,419.3333435058594,418,418,418,418,418,418,418,418,418,418,416.66668701171875,416.66668701171875,409.3333435058594,409.3333435058594,409.3333435058594,409.3333435058594,406.66668701171875,406.66668701171875,407.3333435058594,407.3333435058594,418,444.66668701171875,466.66668701171875,480,502.66668701171875,538,558.6666870117188,569.3333740234375,590,610.6666870117188,621.3333740234375,646,659.3333740234375,664.6666870117188,677.3333740234375,683.3333740234375,694,696],"ymouse":[834.6666870117188,834.6666870117188,834.6666870117188,834.6666870117188,834,834,834,834,834,834,834,834,834,834,834,834,834,834,833.3333740234375,833.3333740234375,833.3333740234375,833.3333740234375,833.3333740234375,833.3333740234375,833.3333740234375,833.3333740234375,833.3333740234375,833.3333740234375,832.6666870117188,832.6666870117188,832.6666870117188,832.6666870117188,832.6666870117188,832.6666870117188,832.6666870117188,832.6666870117188,832.6666870117188,832.6666870117188,829.3333740234375,829.3333740234375,829.3333740234375,829.3333740234375,829.3333740234375,829.3333740234375,829.3333740234375,829.3333740234375,829.3333740234375,829.3333740234375,826.6666870117188,826.6666870117188,775.3333740234375,757.3333740234375,757.3333740234375,705.3333740234375,637.3333740234375,616.6666870117188,578,578,518,456.66668701171875,416.66668701171875,398,362,316.66668701171875,288.66668701171875,274.66668701171875,248.66668701171875,224,212,178.6666717529297,158.6666717529297,152,132.6666717529297,123.33334350585938,102,98],"timestamp_mouse":[1,27,39,59,80,99,120,140,159,179,199,219,239,260,280,300,320,339,360,379,399,419,440,459,479,500,520,539,560,579,599,619,639,659,679,699,719,739,759,780,800,819,839,860,879,899,920,939,959,979,999,1019,1039,1059,1079,1099,1120,1139,1159,1179,1200,1219,1239,1261,1279,1300,1319,1339,1360,1379,1399,1420,1439,1459,1480,1499],"xSR":350,"ySR":768,"xT1":30,"yT1":0,"xT2":670,"yT2":0,"toosoon":0,"cond_shown":"equaldotanddens","ratio_trial":900,"smaller_num":"18","larger_num":"20","correct_side":1,"subjID":"6","gender":"No_gender","age":"No_age","school":"No_school"},{"start_time":1549309964810,"click_time":1549309966018,"finger_time":1549309965718,"fix_duration":1271.598607516853,"trial":15,"RT":908,"MT":300,"sideResp":1,"stimulus":"img/500/equaldotsize/L/7_Ratio_500_L_10_R_5.png","xmouse":[400,400,400,400,400,400,400,400,400,400,400,400,400,400,400,400,400,400,400,400,400,400,400,400,400,400,400,400,400,400,400,400,400,400,400,400,400,400,400,400,400,400,400,383.3333435058594,383.3333435058594,364,348.66668701171875,341.3333435058594,325.3333435058594,309.3333435058594,281.3333435058594,271.3333435058594,250.6666717529297,228,216.6666717529297,182,158,146,122,99.33333587646484,74],"ymouse":[806,806,806,806,806,806,806,806,806,806,806,806,806,806,806,806,806,806,806,806,806,806,806,806,806,806,806,806,806,806,806,806,806,806,806,806,806,806,806,806,806,806,806,792,792,734.6666870117188,690,668,620,570,489.3333435058594,462,410,359.3333435058594,333.3333435058594,258.66668701171875,214.6666717529297,193.33334350585938,158,126.66667175292969,88],"timestamp_mouse":[9,38,47,67,87,107,127,147,168,187,207,227,248,267,287,307,327,347,367,387,408,427,447,467,488,507,527,547,567,598,607,627,647,668,688,707,727,748,768,787,807,827,847,868,887,908,927,948,967,987,1007,1027,1047,1067,1087,1108,1127,1148,1168,1187,1208],"xSR":350,"ySR":768,"xT1":30,"yT1":0,"xT2":670,"yT2":0,"toosoon":0,"cond_shown":"equaldotsize","ratio_trial":500,"smaller_num":"5","larger_num":"10","correct_side":1,"subjID":"6","gender":"No_gender","age":"No_age","school":"No_school"},{"start_time":1549309967420,"click_time":1549309969497,"finger_time":1549309968219,"fix_duration":458.5557368517844,"trial":16,"RT":799,"MT":1278,"sideResp":2,"stimulus":"img/900/equaldotanddens/R/7_Ratio_900_L_9_R_10.png","xmouse":[382,382,382,382,382,382.66668701171875,382.66668701171875,382.66668701171875,382.66668701171875,382.66668701171875,382.66668701171875,382.66668701171875,382.66668701171875,382.66668701171875,382.66668701171875,382.66668701171875,382.66668701171875,382.66668701171875,382.66668701171875,382.66668701171875,382.66668701171875,382.66668701171875,382.66668701171875,382.66668701171875,382.66668701171875,382.66668701171875,382.66668701171875,382.66668701171875,382.66668701171875,382.66668701171875,382,382,382,382,382,382.66668701171875,382.66668701171875,382.66668701171875,382.66668701171875,382.66668701171875,415.3333435058594,424.66668701171875,443.3333435058594,462.66668701171875,472,500,518,532,538,548,563.3333740234375,565.3333740234375,568.6666870117188,570,570,570,569.3333740234375,568,567.3333740234375,566,564.6666870117188,559.3333740234375,557.3333740234375,552,549.3333740234375,544.6666870117188,539.3333740234375,534.6666870117188,532,526,520,510.66668701171875,506.66668701171875,499.3333435058594,495.3333435058594,487.3333435058594,474.66668701171875,466,462,454,446,433.3333435058594,429.3333435058594,421.3333435058594,416.66668701171875,408,396,388.66668701171875,385.3333435058594,380,377.3333435058594,376.66668701171875,378,378,378,378,378,378,378,548,585.3333740234375,638,654.6666870117188,682.6666870117188,701.3333740234375],"ymouse":[824,824,824,824,824,823.3333740234375,823.3333740234375,823.3333740234375,823.3333740234375,823.3333740234375,823.3333740234375,823.3333740234375,823.3333740234375,823.3333740234375,823.3333740234375,824,824,824,824,824,824,824,824,824,824,824.6666870117188,824.6666870117188,824.6666870117188,824.6666870117188,824.6666870117188,824.6666870117188,824.6666870117188,824.6666870117188,824.6666870117188,824.6666870117188,824,824,824,824,824,764.6666870117188,749.3333740234375,716.6666870117188,683.3333740234375,664.6666870117188,608,570,536.6666870117188,520.6666870117188,489.3333435058594,449.3333435058594,437.3333435058594,416,401.3333435058594,394,384.66668701171875,372,364.66668701171875,361.3333435058594,356,354,347.3333435058594,346,342.66668701171875,340.66668701171875,336,329.3333435058594,324,321.3333435058594,316,310,302,299.3333435058594,293.3333435058594,290.66668701171875,285.3333435058594,277.3333435058594,272,269.3333435058594,264,259.3333435058594,253.33334350585938,252,248,246.66668701171875,244,240.66668701171875,239.33334350585938,238.6666717529297,238,236.6666717529297,236.6666717529297,236.6666717529297,236.6666717529297,236.6666717529297,236.6666717529297,236.6666717529297,236.6666717529297,236.6666717529297,206,183.33334350585938,145.33334350585938,132.6666717529297,106,88.66667175292969],"timestamp_mouse":[1,28,37,57,77,97,117,137,157,177,198,218,237,257,277,297,318,337,357,377,398,417,437,457,477,497,517,537,557,578,601,617,637,657,677,699,717,737,757,778,799,817,837,857,877,900,917,937,958,977,999,1018,1037,1057,1077,1097,1118,1137,1157,1177,1197,1218,1237,1257,1277,1297,1318,1338,1357,1377,1397,1419,1438,1457,1477,1497,1519,1537,1557,1577,1597,1618,1637,1657,1677,1697,1717,1737,1757,1778,1797,1819,1837,1857,1878,1898,1919,1938,1957,1977,1997,2020,2038,2057,2077],"xSR":350,"ySR":768,"xT1":30,"yT1":0,"xT2":670,"yT2":0,"toosoon":0,"cond_shown":"equaldotanddens","ratio_trial":900,"smaller_num":"9","larger_num":"10","correct_side":2,"subjID":"6","gender":"No_gender","age":"No_age","school":"No_school"},{"start_time":1549309970809,"click_time":1549309971959,"finger_time":1549309971617,"fix_duration":250,"trial":17,"RT":808,"MT":342,"sideResp":1,"stimulus":"img/250/randomdotsizeEA/R/10_Ratio_250_L_4_R_16.png","xmouse":[398,398,398,398,398,398,398,398,398,398,398,397.3333435058594,397.3333435058594,397.3333435058594,397.3333435058594,397.3333435058594,397.3333435058594,397.3333435058594,397.3333435058594,397.3333435058594,397.3333435058594,397.3333435058594,397.3333435058594,397.3333435058594,396.66668701171875,396.66668701171875,396.66668701171875,396.66668701171875,396.66668701171875,396.66668701171875,396.66668701171875,396.66668701171875,396.66668701171875,396.66668701171875,395.3333435058594,395.3333435058594,395.3333435058594,395.3333435058594,387.3333435058594,382,380,369.3333435058594,355.3333435058594,347.3333435058594,334,316.66668701171875,288.66668701171875,280.66668701171875,258,238.6666717529297,227.33334350585938,197.33334350585938,177.33334350585938,167.33334350585938,149.33334350585938,134.6666717529297,113.33333587646484],"ymouse":[809.3333740234375,810,810,810,810,810,810,810,810,810,810,810,810,810,810,810,810,810,810,810,810,810,810,810,810,810,810,810,810,810,810,810,810,810,806,806,806,806,782,767.3333740234375,758.6666870117188,720.6666870117188,684,665.3333740234375,626,582.6666870117188,504,475.3333435058594,416.66668701171875,359.3333435058594,330.66668701171875,250.66668701171875,204.6666717529297,183.33334350585938,143.33334350585938,112,74.66667175292969],"timestamp_mouse":[31,49,69,88,109,128,149,168,188,209,229,249,268,288,308,328,348,368,388,409,428,448,468,488,508,529,548,568,588,608,629,648,668,688,709,728,749,768,788,808,828,848,869,888,908,929,948,969,988,1008,1028,1048,1068,1088,1109,1129,1149],"xSR":350,"ySR":768,"xT1":30,"yT1":0,"xT2":670,"yT2":0,"toosoon":0,"cond_shown":"randomdotsizeEA","ratio_trial":250,"smaller_num":"4","larger_num":"16","correct_side":2,"subjID":"6","gender":"No_gender","age":"No_age","school":"No_school"},{"start_time":1549309973094,"click_time":1549309974297,"finger_time":1549309974097,"fix_duration":327.4529089280067,"trial":18,"RT":1003,"MT":200,"sideResp":2,"stimulus":"img/900/randomdotsize/R/13_Ratio_900_L_18_R_20.png","xmouse":[387.3333435058594,387.3333435058594,387.3333435058594,387.3333435058594,387.3333435058594,387.3333435058594,387.3333435058594,387.3333435058594,387.3333435058594,387.3333435058594,387.3333435058594,387.3333435058594,387.3333435058594,387.3333435058594,387.3333435058594,387.3333435058594,387.3333435058594,388,388,388,388,388,388,388,388,388,388,388,388,388,388,388,388,388,388,388,388,388,388,388,388,388,388,388,388,388,388,388,388,416,428.66668701171875,458,474,507.3333435058594,564,600.6666870117188,618,648,672.6666870117188,700,707.3333740234375],"ymouse":[834.6666870117188,834.6666870117188,834.6666870117188,834.6666870117188,834.6666870117188,834.6666870117188,834.6666870117188,832.6666870117188,832.6666870117188,832.6666870117188,832.6666870117188,832.6666870117188,832.6666870117188,832.6666870117188,832.6666870117188,832.6666870117188,832.6666870117188,832.6666870117188,832.6666870117188,832.6666870117188,832.6666870117188,832.6666870117188,832.6666870117188,832.6666870117188,832.6666870117188,832.6666870117188,832.6666870117188,832,832,832,832,832,832,832,832,832,832,831.3333740234375,831.3333740234375,831.3333740234375,831.3333740234375,831.3333740234375,831.3333740234375,831.3333740234375,831.3333740234375,831.3333740234375,831.3333740234375,827.3333740234375,827.3333740234375,774,750,692.6666870117188,661.3333740234375,585.3333740234375,458.66668701171875,374.66668701171875,332.66668701171875,260,193.33334350585938,108.66667175292969,85.33333587646484],"timestamp_mouse":[24,28,43,64,83,103,123,144,163,184,203,224,244,263,283,304,323,344,363,383,404,423,443,464,483,504,524,543,563,584,603,623,644,663,684,703,723,743,763,784,804,824,844,863,884,903,924,943,963,983,1003,1024,1043,1063,1084,1104,1123,1143,1163,1183,1203],"xSR":350,"ySR":768,"xT1":30,"yT1":0,"xT2":670,"yT2":0,"toosoon":0,"cond_shown":"randomdotsize","ratio_trial":900,"smaller_num":"18","larger_num":"20","correct_side":2,"subjID":"6","gender":"No_gender","age":"No_age","school":"No_school"},{"start_time":1549309975329,"click_time":1549309976937,"finger_time":1549309976737,"fix_duration":250,"trial":19,"RT":1408,"MT":200,"sideResp":2,"stimulus":"img/900/equaldotsize/L/2_Ratio_900_L_20_R_18.png","xmouse":[385.3333435058594,385.3333435058594,385.3333435058594,385.3333435058594,384.66668701171875,384.66668701171875,384.66668701171875,384,384,383.3333435058594,383.3333435058594,383.3333435058594,382.66668701171875,382.66668701171875,382.66668701171875,382.66668701171875,382.66668701171875,382.66668701171875,382,382,382,382,382,381.3333435058594,381.3333435058594,381.3333435058594,381.3333435058594,381.3333435058594,381.3333435058594,381.3333435058594,381.3333435058594,381.3333435058594,381.3333435058594,381.3333435058594,381.3333435058594,381.3333435058594,381.3333435058594,381.3333435058594,381.3333435058594,381.3333435058594,381.3333435058594,381.3333435058594,381.3333435058594,381.3333435058594,381.3333435058594,381.3333435058594,381.3333435058594,379.3333435058594,379.3333435058594,379.3333435058594,379.3333435058594,379.3333435058594,379.3333435058594,379.3333435058594,379.3333435058594,379.3333435058594,379.3333435058594,379.3333435058594,379.3333435058594,379.3333435058594,379.3333435058594,379.3333435058594,378,378,378,378,378,378,384.66668701171875,384.66668701171875,414.66668701171875,446,464.66668701171875,526,572,619.3333740234375,644,699.3333740234375,722.6666870117188,733.3333740234375,743.3333740234375],"ymouse":[815.3333740234375,815.3333740234375,816,816,816,816,816,816,816,816,816,816,816,816,816,816,816,816,815.3333740234375,815.3333740234375,815.3333740234375,815.3333740234375,815.3333740234375,815.3333740234375,815.3333740234375,815.3333740234375,815.3333740234375,815.3333740234375,815.3333740234375,815.3333740234375,815.3333740234375,815.3333740234375,815.3333740234375,815.3333740234375,815.3333740234375,815.3333740234375,815.3333740234375,815.3333740234375,815.3333740234375,815.3333740234375,815.3333740234375,815.3333740234375,814.6666870117188,814,814,814,814,814,814,814,814,814,814,814.6666870117188,814.6666870117188,814.6666870117188,814.6666870117188,814.6666870117188,815.3333740234375,815.3333740234375,815.3333740234375,815.3333740234375,815.3333740234375,815.3333740234375,815.3333740234375,815.3333740234375,815.3333740234375,815.3333740234375,803.3333740234375,803.3333740234375,746,684.6666870117188,649.3333740234375,528.6666870117188,439.3333435058594,348.66668701171875,307.3333435058594,200,142,120.66667175292969,88],"timestamp_mouse":[10,33,48,68,88,108,128,149,168,188,209,228,250,269,288,309,328,348,368,388,408,429,448,468,488,508,529,548,569,588,609,628,649,669,688,709,728,748,768,788,808,828,848,868,888,908,928,950,969,988,1009,1028,1049,1070,1088,1109,1128,1149,1169,1188,1209,1228,1250,1268,1289,1308,1328,1348,1371,1388,1408,1428,1449,1468,1488,1509,1528,1551,1568,1588,1608],"xSR":350,"ySR":768,"xT1":30,"yT1":0,"xT2":670,"yT2":0,"toosoon":0,"cond_shown":"equaldotsize","ratio_trial":900,"smaller_num":"18","larger_num":"20","correct_side":1,"subjID":"6","gender":"No_gender","age":"No_age","school":"No_school"},{"start_time":1549309978675,"click_time":1549309979517,"finger_time":1549309979299,"fix_duration":876.5298504653719,"trial":20,"RT":624,"MT":218,"sideResp":1,"stimulus":"img/900/randomdotsizeEA/L/1_Ratio_900_L_10_R_9.png","xmouse":[381.3333435058594,381.3333435058594,381.3333435058594,381.3333435058594,381.3333435058594,382,382,382,382,382,382,382,382,382,383.3333435058594,383.3333435058594,383.3333435058594,383.3333435058594,383.3333435058594,383.3333435058594,383.3333435058594,383.3333435058594,383.3333435058594,383.3333435058594,384.66668701171875,384.66668701171875,384.66668701171875,384.66668701171875,384.66668701171875,384.66668701171875,384.66668701171875,338,318.66668701171875,310,288.66668701171875,268,230,217.33334350585938,191.33334350585938,164.6666717529297,152.6666717529297,126.66667175292969,114.66667175292969],"ymouse":[837.3333740234375,837.3333740234375,837.3333740234375,837.3333740234375,838,838,838,838,838,838,838,838,838,838,837.3333740234375,837.3333740234375,837.3333740234375,837.3333740234375,837.3333740234375,837.3333740234375,837.3333740234375,837.3333740234375,837.3333740234375,837.3333740234375,836.6666870117188,836.6666870117188,836.6666870117188,836.6666870117188,836.6666870117188,836.6666870117188,836.6666870117188,736,682,652,582.6666870117188,506.66668701171875,394.66668701171875,354,286.66668701171875,223.33334350585938,192,111.33333587646484,74.66667175292969],"timestamp_mouse":[2,35,42,62,82,102,122,143,162,182,203,224,242,262,283,302,323,343,362,382,403,422,442,463,483,502,524,542,562,582,603,624,643,662,682,702,724,742,762,782,802,824,842],"xSR":350,"ySR":768,"xT1":30,"yT1":0,"xT2":670,"yT2":0,"toosoon":0,"cond_shown":"randomdotsizeEA","ratio_trial":900,"smaller_num":"9","larger_num":"10","correct_side":1,"subjID":"6","gender":"No_gender","age":"No_age","school":"No_school"},{"start_time":1549309980360,"click_time":1549309981218,"finger_time":1549309980997,"fix_duration":250,"trial":21,"RT":637,"MT":221,"sideResp":2,"stimulus":"img/250/randomdotsize/R/10_Ratio_250_L_4_R_16.png","xmouse":[407.3333435058594,407.3333435058594,407.3333435058594,406.66668701171875,406,406,406,406,406,406,406,406,406,406,406,406,406,406,406,406,406,406,406,406,406,406,406,406,406,406,406,406,438.66668701171875,474,500.66668701171875,514.6666870117188,545.3333740234375,560.6666870117188,604.6666870117188,629.3333740234375,652.6666870117188,660,677.3333740234375,695.3333740234375],"ymouse":[830,830,830,834,834.6666870117188,835.3333740234375,836,836,836.6666870117188,836.6666870117188,837.3333740234375,837.3333740234375,837.3333740234375,838,838,838,838,838,838,838.6666870117188,838.6666870117188,838.6666870117188,838.6666870117188,838.6666870117188,839.3333740234375,839.3333740234375,838.6666870117188,838.6666870117188,838,838,838,838,752,666.6666870117188,598.6666870117188,562,483.3333435058594,443.3333435058594,331.3333435058594,266,205.33334350585938,177.33334350585938,128.6666717529297,69.33333587646484],"timestamp_mouse":[8,31,37,57,77,97,117,138,157,178,197,218,237,258,277,297,317,338,357,378,397,418,438,457,477,497,517,537,558,578,597,617,637,657,678,697,717,738,758,778,798,818,837,858],"xSR":350,"ySR":768,"xT1":30,"yT1":0,"xT2":670,"yT2":0,"toosoon":0,"cond_shown":"randomdotsize","ratio_trial":250,"smaller_num":"4","larger_num":"16","correct_side":2,"subjID":"6","gender":"No_gender","age":"No_age","school":"No_school"},{"start_time":1549309983128,"click_time":1549309984241,"finger_time":1549309983917,"fix_duration":1228.0824520324406,"trial":22,"RT":789,"MT":324,"sideResp":1,"stimulus":"img/500/randomdotsize/L/4_Ratio_500_L_18_R_9.png","xmouse":[392,392,392,392,392,392,392,392,392,395.3333435058594,395.3333435058594,395.3333435058594,395.3333435058594,395.3333435058594,395.3333435058594,395.3333435058594,395.3333435058594,395.3333435058594,395.3333435058594,397.3333435058594,397.3333435058594,397.3333435058594,397.3333435058594,398,398,398,398,398,397.3333435058594,397.3333435058594,397.3333435058594,396.66668701171875,396.66668701171875,396.66668701171875,396.66668701171875,396.66668701171875,387.3333435058594,385.3333435058594,381.3333435058594,378.66668701171875,370,366,352,333.3333435058594,323.3333435058594,293.3333435058594,272.66668701171875,249.33334350585938,237.33334350585938,212.6666717529297,174.6666717529297,164,146,134,130.6666717529297,111.33333587646484],"ymouse":[847.3333740234375,847.3333740234375,847.3333740234375,847.3333740234375,847.3333740234375,847.3333740234375,847.3333740234375,847.3333740234375,847.3333740234375,838,838,838,838,838,838,838,838,838,838,832.6666870117188,832.6666870117188,832.6666870117188,831.3333740234375,831.3333740234375,831.3333740234375,831.3333740234375,831.3333740234375,830,829.3333740234375,829.3333740234375,828,827.3333740234375,827.3333740234375,827.3333740234375,827.3333740234375,827.3333740234375,790.6666870117188,784,768,755.3333740234375,726.6666870117188,714.6666870117188,680,637.3333740234375,612.6666870117188,526.6666870117188,463.3333435058594,401.3333435058594,370,313.3333435058594,228,202,149.33334350585938,102,81.33333587646484,40.66666793823242],"timestamp_mouse":[26,29,49,70,89,111,129,149,169,189,211,229,249,269,289,309,330,350,369,389,410,429,449,469,490,510,530,549,569,589,609,630,650,669,689,709,729,749,769,789,810,829,849,869,890,910,929,950,969,989,1011,1029,1049,1069,1089,1112],"xSR":350,"ySR":768,"xT1":30,"yT1":0,"xT2":670,"yT2":0,"toosoon":0,"cond_shown":"randomdotsize","ratio_trial":500,"smaller_num":"9","larger_num":"18","correct_side":1,"subjID":"6","gender":"No_gender","age":"No_age","school":"No_school"},{"start_time":1549309986130,"click_time":1549309987259,"finger_time":1549309986977,"fix_duration":1212.2333026051067,"trial":23,"RT":847,"MT":282,"sideResp":1,"stimulus":"img/900/randomdotsize/L/8_Ratio_900_L_20_R_18.png","xmouse":[406.66668701171875,406,406,406,405.3333435058594,404.66668701171875,404,404,404,403.3333435058594,403.3333435058594,403.3333435058594,402.66668701171875,402.66668701171875,402.66668701171875,402,402,401.3333435058594,401.3333435058594,400.66668701171875,400.66668701171875,400.66668701171875,400.66668701171875,400,400,400,400,400,400,400,400,400,400,400,400,399.3333435058594,399.3333435058594,398.66668701171875,398.66668701171875,398.66668701171875,394.66668701171875,372.66668701171875,356.66668701171875,337.3333435058594,326,289.3333435058594,266.66668701171875,242.6666717529297,229.33334350585938,205.33334350585938,168,145.33334350585938,136,113.33333587646484,106,81.33333587646484],"ymouse":[816,816.6666870117188,816.6666870117188,817.3333740234375,817.3333740234375,818,818,818.6666870117188,818.6666870117188,818.6666870117188,819.3333740234375,819.3333740234375,820,820,820,820.6666870117188,820.6666870117188,821.3333740234375,821.3333740234375,821.3333740234375,822,822,822,822,822,822,822,821.3333740234375,821.3333740234375,821.3333740234375,820.6666870117188,820.6666870117188,820.6666870117188,820.6666870117188,820.6666870117188,820.6666870117188,820.6666870117188,819.3333740234375,819.3333740234375,819.3333740234375,806.6666870117188,754,707.3333740234375,658.6666870117188,633.3333740234375,552,494,438.66668701171875,408.66668701171875,354,272,219.33334350585938,195.33334350585938,150.6666717529297,130.6666717529297,80],"timestamp_mouse":[30,47,67,87,107,127,148,167,187,207,228,247,268,287,307,328,348,367,387,408,427,447,467,487,507,527,547,567,588,608,627,648,667,687,707,728,748,768,787,807,829,847,868,888,907,928,947,968,987,1007,1028,1047,1067,1087,1107,1129],"xSR":350,"ySR":768,"xT1":30,"yT1":0,"xT2":670,"yT2":0,"toosoon":0,"cond_shown":"randomdotsize","ratio_trial":900,"smaller_num":"18","larger_num":"20","correct_side":1,"subjID":"6","gender":"No_gender","age":"No_age","school":"No_school"},{"start_time":1549309988827,"click_time":1549309989638,"finger_time":1549309989377,"fix_duration":808.0498776135037,"trial":24,"RT":550,"MT":261,"sideResp":2,"stimulus":"img/750/equaldotanddens/R/11_Ratio_750_L_12_R_16.png","xmouse":[395.3333435058594,395.3333435058594,395.3333435058594,395.3333435058594,395.3333435058594,395.3333435058594,395.3333435058594,395.3333435058594,395.3333435058594,395.3333435058594,394.66668701171875,394.66668701171875,394.66668701171875,394.66668701171875,394.66668701171875,394.66668701171875,394.66668701171875,394.66668701171875,394.66668701171875,394.66668701171875,394.66668701171875,394.66668701171875,394.66668701171875,394.66668701171875,394.66668701171875,394.66668701171875,394.66668701171875,434,443.3333435058594,464,475.3333435058594,504,552,580.6666870117188,593.3333740234375,619.3333740234375,640.6666870117188,658,662.6666870117188,668.6666870117188,671.3333740234375],"ymouse":[804.6666870117188,804.6666870117188,805.3333740234375,805.3333740234375,805.3333740234375,805.3333740234375,805.3333740234375,805.3333740234375,805.3333740234375,805.3333740234375,805.3333740234375,805.3333740234375,806,806,805.3333740234375,805.3333740234375,805.3333740234375,805.3333740234375,805.3333740234375,805.3333740234375,805.3333740234375,805.3333740234375,804,804,804,804,804,681.3333740234375,654.6666870117188,594,558.6666870117188,484,369.3333435058594,303.3333435058594,272,208,155.33334350585938,98,86,69.33333587646484,64],"timestamp_mouse":[10,31,50,70,90,111,130,150,170,190,211,230,250,271,292,310,331,351,370,391,410,430,450,470,490,510,530,550,570,590,611,630,651,670,691,711,730,750,770,790,810],"xSR":350,"ySR":768,"xT1":30,"yT1":0,"xT2":670,"yT2":0,"toosoon":0,"cond_shown":"equaldotanddens","ratio_trial":750,"smaller_num":"12","larger_num":"16","correct_side":2,"subjID":"6","gender":"No_gender","age":"No_age","school":"No_school"},{"start_time":1549309992561,"click_time":1549309995219,"finger_time":1549309994697,"fix_duration":762.5457640288504,"trial":25,"RT":2136,"MT":522,"sideResp":2,"stimulus":"img/500/equaldotsize/R/9_Ratio_500_L_2_R_4.png","xmouse":[395.3333435058594,394.66668701171875,394.66668701171875,394.66668701171875,394.66668701171875,394.66668701171875,394.66668701171875,394.66668701171875,394.66668701171875,394.66668701171875,394.66668701171875,394.66668701171875,394.66668701171875,394.66668701171875,394,394,394,394,394,394,394,394,394,394,394,394,394,394,394,394,394,394,394,394,394,394,394,394,394,394,394,394,394,394,394,394,394,394,394,394,394,394,394,394,394,394,394,394,394,393.3333435058594,393.3333435058594,393.3333435058594,393.3333435058594,393.3333435058594,393.3333435058594,393.3333435058594,393.3333435058594,393.3333435058594,393.3333435058594,393.3333435058594,393.3333435058594,393.3333435058594,393.3333435058594,393.3333435058594,393.3333435058594,393.3333435058594,393.3333435058594,393.3333435058594,393.3333435058594,393.3333435058594,393.3333435058594,393.3333435058594,393.3333435058594,393.3333435058594,393.3333435058594,393.3333435058594,393.3333435058594,393.3333435058594,392.66668701171875,392.66668701171875,392.66668701171875,392.66668701171875,392.66668701171875,392.66668701171875,392.66668701171875,392.66668701171875,392.66668701171875,392.66668701171875,392.66668701171875,392.66668701171875,392.66668701171875,392.66668701171875,392.66668701171875,392.66668701171875,392.66668701171875,392.66668701171875,416,441.3333435058594,450,469.3333435058594,480,501.3333435058594,535.3333740234375,560,572.6666870117188,598,610.6666870117188,662,674,695.3333740234375,712,718.6666870117188,733.3333740234375,738.6666870117188,740,741.3333740234375,742,741.3333740234375,738.6666870117188,738.6666870117188,738.6666870117188,738.6666870117188,729.3333740234375],"ymouse":[816.6666870117188,817.3333740234375,817.3333740234375,817.3333740234375,818,818,818,818,818,818.6666870117188,818.6666870117188,818.6666870117188,818.6666870117188,818.6666870117188,818.6666870117188,818.6666870117188,819.3333740234375,819.3333740234375,819.3333740234375,819.3333740234375,818.6666870117188,818.6666870117188,818.6666870117188,818.6666870117188,818.6666870117188,818.6666870117188,818.6666870117188,818.6666870117188,818.6666870117188,818.6666870117188,818.6666870117188,818.6666870117188,818.6666870117188,818.6666870117188,818.6666870117188,818.6666870117188,818.6666870117188,818.6666870117188,818.6666870117188,818.6666870117188,818.6666870117188,818.6666870117188,818.6666870117188,818.6666870117188,818.6666870117188,818.6666870117188,818.6666870117188,818.6666870117188,818.6666870117188,819.3333740234375,819.3333740234375,819.3333740234375,819.3333740234375,819.3333740234375,819.3333740234375,819.3333740234375,819.3333740234375,819.3333740234375,819.3333740234375,819.3333740234375,819.3333740234375,819.3333740234375,820,820,820,820,820,820,820,820,820,820,820,820,820,820,820.6666870117188,820.6666870117188,820.6666870117188,820.6666870117188,820.6666870117188,820.6666870117188,820.6666870117188,820.6666870117188,820.6666870117188,821.3333740234375,821.3333740234375,821.3333740234375,821.3333740234375,821.3333740234375,821.3333740234375,821.3333740234375,821.3333740234375,821.3333740234375,821.3333740234375,822,822,822,822,821.3333740234375,821.3333740234375,821.3333740234375,821.3333740234375,821.3333740234375,821.3333740234375,821.3333740234375,760,702.6666870117188,684,642,620.6666870117188,574.6666870117188,507.3333740234375,460.66668701171875,437.3333435058594,391.3333435058594,366.66668701171875,281.3333435058594,262.66668701171875,230,204.6666717529297,194.6666717529297,173.33334350585938,164,160.6666717529297,154,148.6666717529297,145.33334350585938,138,138,138,138,97.33333587646484],"timestamp_mouse":[16,36,56,76,96,117,136,156,177,196,216,236,256,276,296,316,338,356,377,396,416,436,457,476,496,516,537,556,577,597,617,636,656,677,696,717,736,756,776,796,816,836,856,876,896,916,936,957,976,997,1016,1037,1056,1076,1097,1116,1137,1156,1176,1196,1216,1236,1256,1277,1296,1316,1337,1356,1376,1396,1417,1437,1457,1476,1497,1516,1537,1557,1577,1596,1616,1636,1656,1676,1696,1716,1737,1757,1776,1796,1817,1837,1856,1877,1896,1917,1937,1956,1977,1996,2017,2036,2056,2076,2096,2117,2136,2157,2176,2197,2216,2237,2257,2277,2296,2316,2337,2357,2376,2397,2416,2437,2459,2476,2497,2516,2537,2556,2576,2596,2617,2636,2658],"xSR":350,"ySR":768,"xT1":30,"yT1":0,"xT2":670,"yT2":0,"toosoon":0,"cond_shown":"equaldotsize","ratio_trial":500,"smaller_num":"2","larger_num":"4","correct_side":2,"subjID":"6","gender":"No_gender","age":"No_age","school":"No_school"},{"start_time":1549309997671,"click_time":1549309999798,"finger_time":1549309998497,"fix_duration":1492.8375767659982,"trial":26,"RT":826,"MT":1301,"sideResp":2,"stimulus":"img/500/equaldotanddens/R/14_Ratio_500_L_5_R_10.png","xmouse":[399.3333435058594,399.3333435058594,399.3333435058594,399.3333435058594,399.3333435058594,398.66668701171875,398.66668701171875,398.66668701171875,398.66668701171875,399.3333435058594,398.66668701171875,398.66668701171875,398.66668701171875,398.66668701171875,398.66668701171875,398.66668701171875,398.66668701171875,398.66668701171875,398.66668701171875,398.66668701171875,398.66668701171875,398.66668701171875,398.66668701171875,398.66668701171875,398.66668701171875,398.66668701171875,398.66668701171875,398.66668701171875,398.66668701171875,398.66668701171875,398.66668701171875,398,398,398,398,398,398,398.66668701171875,398.66668701171875,398.66668701171875,398.66668701171875,444,457.3333435058594,494.66668701171875,516.6666870117188,536.6666870117188,544.6666870117188,560.6666870117188,580.6666870117188,588,601.3333740234375,613.3333740234375,618.6666870117188,629.3333740234375,636,641.3333740234375,643.3333740234375,645.3333740234375,646,647.3333740234375,647.3333740234375,646,646,646,646,646,628.6666870117188,618.6666870117188,602,578,570.6666870117188,554,544.6666870117188,530,510,495.3333435058594,488,473.3333435058594,456.66668701171875,431.3333435058594,425.3333435058594,408,398.66668701171875,394,383.3333435058594,382,380.66668701171875,380,380.66668701171875,380.66668701171875,380.66668701171875,380.66668701171875,410,420,451.3333435058594,475.3333435058594,499.3333435058594,512.6666870117188,536,570,591.3333740234375,601.3333740234375,622,630,658.6666870117188,663.3333740234375,670.6666870117188],"ymouse":[844,844,844,844,844.6666870117188,844.6666870117188,844.6666870117188,845.3333740234375,845.3333740234375,845.3333740234375,845.3333740234375,845.3333740234375,845.3333740234375,845.3333740234375,845.3333740234375,845.3333740234375,845.3333740234375,845.3333740234375,845.3333740234375,845.3333740234375,846.6666870117188,846.6666870117188,846.6666870117188,846.6666870117188,847.3333740234375,847.3333740234375,847.3333740234375,847.3333740234375,848,848,848,848,848,848,848,848,848,847.3333740234375,847.3333740234375,847.3333740234375,847.3333740234375,743.3333740234375,714,626.6666870117188,566,507.3333740234375,478,425.3333435058594,347.3333435058594,325.3333435058594,280,241.33334350585938,222,175.33334350585938,152,132.6666717529297,125.33334350585938,118,113.33334350585938,107.33333587646484,108,111.33333587646484,111.33333587646484,111.33333587646484,111.33333587646484,111.33333587646484,218.6666717529297,252,287.3333435058594,344.66668701171875,360.66668701171875,398.66668701171875,415.3333435058594,453.3333435058594,506.66668701171875,542.6666870117188,560.6666870117188,597.3333740234375,633.3333740234375,685.3333740234375,702,730,757.3333740234375,764.6666870117188,787.3333740234375,790,794,794.6666870117188,796,796,796,796,733.3333740234375,713.3333740234375,640,580.6666870117188,515.3333740234375,484.66668701171875,428,345.3333435058594,292,266,216.6666717529297,192,119.33334350585938,106,81.33333587646484],"timestamp_mouse":[6,27,46,66,87,107,126,146,166,186,207,226,246,267,286,306,327,347,366,387,407,427,447,466,486,506,526,546,567,586,606,627,647,667,686,706,726,746,767,787,806,826,846,868,886,906,926,946,967,987,1007,1027,1046,1068,1087,1106,1126,1146,1166,1186,1206,1226,1246,1266,1287,1307,1326,1346,1366,1387,1406,1426,1446,1467,1486,1507,1526,1547,1567,1587,1606,1626,1646,1666,1687,1707,1726,1747,1766,1787,1806,1826,1846,1866,1886,1906,1926,1946,1967,1986,2006,2027,2046,2067,2086,2106,2126],"xSR":350,"ySR":768,"xT1":30,"yT1":0,"xT2":670,"yT2":0,"toosoon":0,"cond_shown":"equaldotanddens","ratio_trial":500,"smaller_num":"5","larger_num":"10","correct_side":2,"subjID":"6","gender":"No_gender","age":"No_age","school":"No_school"},{"start_time":1549310001759,"click_time":1549310002857,"finger_time":1549310002518,"fix_duration":1061.322711712854,"trial":27,"RT":759,"MT":339,"sideResp":2,"stimulus":"img/500/equaldotanddens/R/12_Ratio_500_L_1_R_2.png","xmouse":[372.66668701171875,372.66668701171875,372.66668701171875,372.66668701171875,372.66668701171875,375.3333435058594,375.3333435058594,375.3333435058594,375.3333435058594,375.3333435058594,375.3333435058594,375.3333435058594,375.3333435058594,375.3333435058594,375.3333435058594,376.66668701171875,376.66668701171875,376.66668701171875,376.66668701171875,376.66668701171875,376.66668701171875,376.66668701171875,376.66668701171875,376.66668701171875,376.66668701171875,376.66668701171875,376.66668701171875,376.66668701171875,376.66668701171875,376.66668701171875,376.66668701171875,376.66668701171875,376.66668701171875,376.66668701171875,376.66668701171875,385.3333435058594,389.3333435058594,391.3333435058594,391.3333435058594,391.3333435058594,396.66668701171875,400,406.66668701171875,414.66668701171875,428,456.66668701171875,476.66668701171875,490.66668701171875,524,556.6666870117188,606,620,647.3333740234375,659.3333740234375,680],"ymouse":[835.3333740234375,835.3333740234375,835.3333740234375,835.3333740234375,835.3333740234375,834,834,834,834,834,834,834,834,834,834,834.6666870117188,834.6666870117188,834.6666870117188,834.6666870117188,834.6666870117188,834.6666870117188,834.6666870117188,834.6666870117188,834.6666870117188,834.6666870117188,834,834,834,834,834,834,834,834,834,834,809.3333740234375,780,758.6666870117188,717.3333740234375,717.3333740234375,605.3333740234375,579.3333740234375,526,498.66668701171875,446.66668701171875,374,328,304.66668701171875,258,210,148.6666717529297,131.33334350585938,102,90,70.66667175292969],"timestamp_mouse":[35,38,58,79,99,120,138,158,178,199,219,239,259,278,298,318,339,358,378,398,419,439,459,479,498,518,538,558,578,598,619,638,659,678,699,721,738,759,778,801,819,838,858,878,899,919,938,959,978,999,1018,1039,1058,1079,1098],"xSR":350,"ySR":768,"xT1":30,"yT1":0,"xT2":670,"yT2":0,"toosoon":0,"cond_shown":"equaldotanddens","ratio_trial":500,"smaller_num":"1","larger_num":"2","correct_side":2,"subjID":"6","gender":"No_gender","age":"No_age","school":"No_school"},{"start_time":1549310004364,"click_time":1549310005278,"finger_time":1549310005017,"fix_duration":685.8513508622901,"trial":28,"RT":653,"MT":261,"sideResp":1,"stimulus":"img/250/equaldotsize/L/15_Ratio_250_L_12_R_3.png","xmouse":[389.3333435058594,389.3333435058594,390,390,390,390,390,390,390,390,390,390,390.66668701171875,390.66668701171875,390.66668701171875,390.66668701171875,390.66668701171875,390.66668701171875,390.66668701171875,390.66668701171875,390.66668701171875,391.3333435058594,391.3333435058594,391.3333435058594,391.3333435058594,391.3333435058594,391.3333435058594,391.3333435058594,391.3333435058594,391.3333435058594,391.3333435058594,391.3333435058594,357.3333435058594,338,330,308,276.66668701171875,254.66668701171875,243.33334350585938,219.33334350585938,206.6666717529297,166.6666717529297,154.6666717529297,138,130,114],"ymouse":[826.6666870117188,826.6666870117188,827.3333740234375,827.3333740234375,827.3333740234375,827.3333740234375,827.3333740234375,827.3333740234375,827.3333740234375,827.3333740234375,828,828,828,828,828,828,828,828,828,828,828,827.3333740234375,827.3333740234375,827.3333740234375,827.3333740234375,827.3333740234375,827.3333740234375,827.3333740234375,825.3333740234375,825.3333740234375,825.3333740234375,825.3333740234375,709.3333740234375,656,624.6666870117188,558,455.3333435058594,395.3333435058594,366.66668701171875,308,276,162.6666717529297,137.33334350585938,91.33333587646484,70,33.333335876464844],"timestamp_mouse":[28,33,54,73,93,114,133,154,173,193,213,234,253,273,294,314,334,353,391,394,415,433,453,474,493,515,533,553,573,594,613,634,653,674,693,713,733,753,774,793,814,833,853,873,893,914],"xSR":350,"ySR":768,"xT1":30,"yT1":0,"xT2":670,"yT2":0,"toosoon":0,"cond_shown":"equaldotsize","ratio_trial":250,"smaller_num":"3","larger_num":"12","correct_side":1,"subjID":"6","gender":"No_gender","age":"No_age","school":"No_school"},{"start_time":1549310006823,"click_time":1549310008377,"finger_time":1549310008177,"fix_duration":844.0824273631839,"trial":29,"RT":1354,"MT":200,"sideResp":2,"stimulus":"img/900/randomdotsize/R/12_Ratio_900_L_18_R_20.png","xmouse":[400,400,400,400,400,400,400,400,400,400,400,400,399.3333435058594,399.3333435058594,398.66668701171875,398.66668701171875,398.66668701171875,398.66668701171875,398.66668701171875,398.66668701171875,398.66668701171875,398,398,398,398,398,397.3333435058594,397.3333435058594,397.3333435058594,397.3333435058594,397.3333435058594,397.3333435058594,397.3333435058594,397.3333435058594,397.3333435058594,397.3333435058594,397.3333435058594,396.66668701171875,396,396,396,396,396,396,396,396,396,396,396,396,396,396,396,396,396,395.3333435058594,395.3333435058594,395.3333435058594,395.3333435058594,394.66668701171875,395.3333435058594,395.3333435058594,395.3333435058594,395.3333435058594,395.3333435058594,395.3333435058594,395.3333435058594,442.66668701171875,474.66668701171875,522.6666870117188,539.3333740234375,572.6666870117188,586.6666870117188,634.6666870117188,643.3333740234375,655.3333740234375,660.6666870117188,670.6666870117188],"ymouse":[842,842,842,842,842,842.6666870117188,842.6666870117188,842.6666870117188,843.3333740234375,843.3333740234375,843.3333740234375,843.3333740234375,843.3333740234375,843.3333740234375,844,844,844,844.6666870117188,844.6666870117188,844.6666870117188,845.3333740234375,845.3333740234375,846,846,846,846.6666870117188,846.6666870117188,846,846,846,846,846,846,846,846,846.6666870117188,846.6666870117188,846,845.3333740234375,844.6666870117188,844.6666870117188,844.6666870117188,844.6666870117188,844.6666870117188,844.6666870117188,844.6666870117188,844.6666870117188,844.6666870117188,844.6666870117188,844,844,844,844,844,844,844,844,844,844,843.3333740234375,843.3333740234375,843.3333740234375,843.3333740234375,843.3333740234375,843.3333740234375,843.3333740234375,843.3333740234375,722.6666870117188,655.3333740234375,533.3333740234375,490,401.3333435058594,358,212.6666717529297,182.6666717529297,131.33334350585938,110,76.66667175292969],"timestamp_mouse":[15,43,55,74,95,115,134,154,174,194,215,235,254,274,294,314,335,354,374,394,415,435,454,475,494,514,534,554,574,594,614,634,655,675,694,715,734,754,779,797,814,834,854,875,894,914,934,955,975,995,1014,1034,1055,1075,1094,1125,1134,1155,1175,1194,1214,1234,1254,1274,1295,1314,1334,1354,1374,1394,1415,1434,1455,1477,1495,1514,1534,1554],"xSR":350,"ySR":768,"xT1":30,"yT1":0,"xT2":670,"yT2":0,"toosoon":0,"cond_shown":"randomdotsize","ratio_trial":900,"smaller_num":"18","larger_num":"20","correct_side":2,"subjID":"6","gender":"No_gender","age":"No_age","school":"No_school"},{"start_time":1549310010289,"click_time":1549310011377,"finger_time":1549310011137,"fix_duration":1190.3162929512487,"trial":30,"RT":848,"MT":240,"sideResp":1,"stimulus":"img/500/randomdotsizeEA/R/6_Ratio_500_L_9_R_18.png","xmouse":[418,418,418,418,418,418,418,418,418,418,418,418,418,418,418,418,418,417.3333435058594,417.3333435058594,417.3333435058594,417.3333435058594,417.3333435058594,417.3333435058594,417.3333435058594,417.3333435058594,417.3333435058594,417.3333435058594,417.3333435058594,417.3333435058594,417.3333435058594,417.3333435058594,417.3333435058594,417.3333435058594,417.3333435058594,417.3333435058594,417.3333435058594,416.66668701171875,416.66668701171875,416.66668701171875,416.66668701171875,416.66668701171875,416.66668701171875,379.3333435058594,370,349.3333435058594,337.3333435058594,307.3333435058594,257.3333435058594,221.33334350585938,204.6666717529297,169.33334350585938,153.33334350585938,102,92.66667175292969,82],"ymouse":[814.6666870117188,814.6666870117188,814.6666870117188,814.6666870117188,814.6666870117188,814.6666870117188,815.3333740234375,815.3333740234375,815.3333740234375,815.3333740234375,815.3333740234375,815.3333740234375,815.3333740234375,815.3333740234375,815.3333740234375,815.3333740234375,815.3333740234375,815.3333740234375,815.3333740234375,815.3333740234375,815.3333740234375,816,816,816,816,816,816,816,816,816,816,816,816.6666870117188,816.6666870117188,816.6666870117188,816.6666870117188,816.6666870117188,816,816,816,816,816,720,696,646,619.3333740234375,561.3333740234375,470.66668701171875,407.3333435058594,376.66668701171875,306.66668701171875,272,141.33334350585938,1