[{"start_time":1549308883014,"click_time":1549308886947,"finger_time":1549308883045,"fix_duration":705.424529176421,"trial":0,"RT":31,"MT":3902,"sideResp":2,"stimulus":[],"xmouse":[403,403,403,403,403,403,403,403,403,403,403,403,403,403,403,403,403,403,403,403,403,403,403,403,403,403,403,403,403,403,403,403,403,403,403,403,403,403,403,403,403,403,403,403,403,403,403,403,403,403,403,403,403,403,403,403,403,403,403,403,403,403,403,403,403,403,403,403,403,403,403,403,403,403,403,403,403,403,403,403,403,403,403,403,403,403,403,403,403,398,398,398,398,398,398,398,398,398,398,398,398,398,398,398,398,398,419.3333435058594,432.66668701171875,432.66668701171875,509.3333435058594,524.6666870117188,554,568,592.6666870117188,621.3333740234375,633.3333740234375,638.6666870117188,648,655.3333740234375,662.6666870117188,664.6666870117188,669.3333740234375,670,671.3333740234375,672,673.3333740234375,673.3333740234375,673.3333740234375,671.3333740234375,669.3333740234375,669.3333740234375,669.3333740234375,669.3333740234375,669.3333740234375,669.3333740234375,669.3333740234375,669.3333740234375,669.3333740234375,669.3333740234375,669.3333740234375,669.3333740234375,669.3333740234375,669.3333740234375,669.3333740234375,669.3333740234375,669.3333740234375,669.3333740234375,669.3333740234375,669.3333740234375,669.3333740234375,669.3333740234375,669.3333740234375,669.3333740234375,669.3333740234375,669.3333740234375,669.3333740234375,669.3333740234375,669.3333740234375,669.3333740234375,669.3333740234375,669.3333740234375,419.3333435058594,424,441.3333435058594,452.66668701171875,483.3333435058594,501.3333435058594,511.3333740234375,532,542.6666870117188,577.3333740234375,585.3333740234375,600.6666870117188,606,619.3333740234375,631.3333740234375,640,645.3333740234375,654.6666870117188,664,674,676.6666870117188,683.3333740234375,688,690,697.3333740234375,701.3333740234375,703.3333740234375,704.6666870117188,708.6666870117188,714,716,718,720,721.3333740234375,723.3333740234375],"ymouse":[557,557,557,557,557,557,557,557,557,557,557,557,557,557,557,557,557,557,557,557,557,557,557,557,557,557,557,557,557,557,557,557,557,557,557,557,557,557,557,557,557,557,557,557,557,557,557,557,557,557,557,557,557,557,557,557,557,557,557,557,557,557,557,557,557,557,557,557,557,557,557,557,557,557,557,557,557,557,557,557,557,557,557,557,557,557,557,557,557,818,818,818,818,818,818,818,818,818,818,818,818,818,818,818,818,818,795.3333740234375,780,780,691.3333740234375,674,636,616,575.3333740234375,520,486,471.3333435058594,440.66668701171875,412,370,357.3333435058594,332.66668701171875,320.66668701171875,302,284,274,270,266,263.3333435058594,263.3333435058594,263.3333435058594,263.3333435058594,263.3333435058594,263.3333435058594,263.3333435058594,263.3333435058594,263.3333435058594,263.3333435058594,263.3333435058594,263.3333435058594,263.3333435058594,263.3333435058594,263.3333435058594,263.3333435058594,263.3333435058594,263.3333435058594,263.3333435058594,263.3333435058594,263.3333435058594,263.3333435058594,263.3333435058594,263.3333435058594,263.3333435058594,263.3333435058594,263.3333435058594,263.3333435058594,263.3333435058594,263.3333435058594,263.3333435058594,263.3333435058594,263.3333435058594,814,808.6666870117188,786.6666870117188,770.6666870117188,724,696.6666870117188,680.6666870117188,648.6666870117188,632,574,557.3333740234375,526.6666870117188,512,482,442,416,401.3333435058594,371.3333435058594,343.3333435058594,306.66668701171875,297.3333435058594,274.66668701171875,250,239.33334350585938,210.6666717529297,196,186,182.6666717529297,170.6666717529297,152,144,134,124,120,99.33333587646484],"timestamp_mouse":[31,49,69,90,109,129,149,170,190,209,229,249,269,289,309,329,349,369,389,409,429,449,469,489,509,529,549,569,589,609,629,649,669,689,709,729,749,769,789,809,829,849,869,889,910,930,949,969,989,1009,1029,1049,1069,1090,1109,1129,1150,1170,1190,1209,1229,1249,1269,1289,1309,1329,1348,1369,1389,1409,1429,1449,1469,1489,1509,1529,1549,1569,1589,1609,1629,1649,1669,1689,1709,1729,1749,1769,1789,1809,1829,1849,1869,1889,1909,1929,1949,1969,1989,2009,2029,2049,2069,2089,2109,2129,2149,2169,2189,2210,2229,2249,2269,2289,2309,2329,2349,2369,2389,2410,2429,2449,2469,2489,2512,2529,2549,2569,2589,2609,2629,2649,2669,2689,2709,2729,2749,2769,2789,2809,2829,2849,2869,2889,2909,2929,2949,2969,2990,3009,3030,3049,3069,3089,3109,3129,3149,3169,3189,3209,3229,3249,3268,3289,3309,3329,3349,3369,3389,3409,3429,3449,3469,3489,3509,3529,3549,3569,3589,3609,3630,3649,3669,3689,3710,3730,3750,3769,3789,3809,3830,3849,3869,3889,3909,3932],"xSR":350,"ySR":508.79999999999995,"xT1":30,"yT1":0,"xT2":670,"yT2":0,"toosoon":0,"cond_shown":"Congruent","ratio_trial":100,"L_num":1,"L_den":2,"R_num":3,"R_den":5,"correct_side":2,"subjID":"6","gender":"No_gender","age":"No_age","school":"No_school","test":{"fix_dur":[250,1500],"timestim":900,"targets_dim":[100,100],"targets_relative_coord":[0.1,0.9],"size_stim":[880,420],"start_dim":[100,100],"size_start":[300,300],"size_fix":60,"samplingrate":20,"img_types":["Congruent","Incongruent","Equal"],"ratios":[100,200,300,500],"rep_conds":15,"nTrials":192,"trials_to_rest":500,"Trials_order":[132,162,45,78,153,173,15,76,127,68,98,113,181,106,64,124,174,89,140,126,19,73,10,14,175,31,191,0,13,85,29,93,128,176,26,142,184,47,138,43,6,102,56,168,20,65,144,62,145,22,92,75,130,143,107,187,185,5,116,40,80,50,119,156,115,166,51,139,2,60,133,12,61,131,95,167,91,171,183,54,32,108,101,125,69,59,88,28,1,16,23,8,21,137,161,42,57,100,90,70,39,150,155,103,105,165,178,172,36,182,129,48,135,66,109,71,18,146,164,170,151,114,46,79,177,35,111,34,82,112,11,44,120,117,37,159,84,74,86,147,104,41,87,190,188,152,52,27,122,33,154,25,97,134,149,121,67,63,30,158,148,99,72,94,186,55,81,17,58,180,157,7,110,9,141,49,163,179,123,160,96,38,189,169,77,118,136,3,53,83,4,24],"cond_shown":["Congruent","Congruent","Congruent","Congruent","Congruent","Equal","Congruent","Incongruent","Incongruent","Equal","Equal","Equal","Incongruent","Incongruent","Incongruent","Incongruent","Congruent","Equal","Equal","Congruent","Incongruent","Incongruent","Incongruent","Equal","Incongruent","Incongruent","Equal","Congruent","Incongruent","Incongruent","Equal","Congruent","Equal","Equal","Equal","Incongruent","Incongruent","Equal","Congruent","Incongruent","Congruent","Congruent","Equal","Congruent","Equal","Equal","Congruent","Equal","Incongruent","Incongruent","Equal","Congruent","Incongruent","Equal","Equal","Incongruent","Equal","Equal","Equal","Incongruent","Equal","Equal","Equal","Congruent","Incongruent","Incongruent","Congruent","Incongruent","Equal","Congruent","Incongruent","Congruent","Incongruent","Equal","Equal","Equal","Incongruent","Congruent","Congruent","Congruent","Equal","Congruent","Equal","Equal","Congruent","Equal","Incongruent","Incongruent","Incongruent","Incongruent","Equal","Equal","Congruent","Equal","Equal","Congruent","Congruent","Incongruent","Congruent","Incongruent","Congruent","Congruent","Equal","Incongruent","Congruent","Congruent","Incongruent","Incongruent","Congruent","Equal","Congruent","Congruent","Congruent","Congruent","Incongruent","Equal","Congruent","Equal","Equal","Equal","Incongruent","Congruent","Incongruent","Incongruent","Congruent","Equal","Congruent","Incongruent","Incongruent","Incongruent","Equal","Equal","Congruent","Congruent","Incongruent","Congruent","Congruent","Equal","Equal","Congruent","Equal","Equal","Congruent","Incongruent","Equal","Equal","Incongruent","Congruent","Equal","Congruent","Incongruent","Incongruent","Incongruent","Equal","Equal","Incongruent","Incongruent","Congruent","Congruent","Equal","Incongruent","Congruent","Congruent","Incongruent","Congruent","Incongruent","Congruent","Equal","Incongruent","Congruent","Incongruent","Incongruent","Equal","Congruent","Congruent","Incongruent","Incongruent","Equal","Congruent","Incongruent","Congruent","Equal","Congruent","Incongruent","Equal","Incongruent","Incongruent","Congruent","Equal","Equal","Incongruent","Congruent"],"ratio_trial":[100,300,500,300,500,200,200,200,300,300,100,200,100,500,200,200,300,200,300,300,300,100,500,100,300,300,500,100,100,100,200,500,300,300,100,500,200,500,300,300,300,300,300,100,300,200,100,100,100,500,300,200,500,500,500,300,200,200,300,200,300,100,500,100,300,500,200,300,100,100,100,100,100,500,500,500,300,200,200,300,300,100,200,200,500,500,200,200,100,200,500,300,500,200,200,300,500,200,300,500,200,300,500,300,500,500,500,200,100,100,500,100,200,300,100,500,300,100,300,100,300,300,500,300,500,500,200,500,500,200,500,300,100,500,100,200,100,100,100,200,300,200,200,500,300,300,200,200,100,500,500,100,100,100,200,100,300,200,300,100,200,200,100,500,300,300,500,200,500,100,100,300,100,500,500,100,300,500,200,200,100,100,500,100,200,500,200,200,200,500,200,100],"left_num":[1,4,4,18,3,3,7,4,4,3,6,3,2,5,7,6,24,3,18,1,8,12,2,6,3,1,6,12,6,3,3,21,9,9,2,7,14,6,2,1,2,4,3,11,9,3,3,6,9,2,3,15,2,6,2,1,3,3,3,7,9,6,2,12,2,2,4,13,2,11,8,6,9,6,6,6,4,3,9,1,9,3,3,3,12,6,7,14,3,3,6,3,1,3,3,20,12,7,1,2,6,5,2,4,8,22,7,4,11,6,7,1,16,12,8,6,20,6,18,2,13,1,5,2,2,6,9,2,2,11,6,9,7,2,8,20,7,6,6,1,9,3,12,7,9,9,1,6,2,8,7,12,9,6,3,1,4,3,7,6,9,6,6,7,5,4,2,3,7,1,6,2,6,1,15,2,7,6,8,14,9,6,5,3,3,7,7,6,3,6,3,3],"right_num":[3,2,1,9,14,3,2,1,8,3,6,3,6,6,4,3,8,3,18,19,14,9,4,6,4,2,6,13,11,4,3,6,9,9,2,5,6,6,12,3,10,13,3,4,9,3,4,6,13,4,3,4,4,6,2,2,3,3,3,6,9,6,2,13,6,4,3,12,2,4,1,15,20,6,6,6,2,9,13,11,9,2,3,3,4,6,6,6,7,11,6,3,12,3,3,9,3,14,7,4,11,7,2,2,4,2,5,6,6,6,9,18,12,2,6,6,8,6,18,2,12,19,6,6,21,6,13,4,4,3,6,9,15,18,6,9,9,6,6,21,9,3,6,5,9,9,2,11,2,4,5,2,13,6,3,8,2,14,20,6,8,3,5,5,7,2,4,3,5,18,3,6,6,12,1,8,8,6,3,6,8,6,6,8,3,5,14,7,3,6,1,2],"left_den":[2,5,6,20,8,6,21,30,5,10,12,10,4,6,15,20,30,10,30,3,10,24,3,12,6,2,24,30,10,6,10,28,12,12,12,21,30,8,10,2,20,20,10,22,12,6,20,10,15,3,10,25,3,24,12,2,6,6,10,15,12,12,12,30,4,3,8,26,12,22,20,12,10,24,8,24,20,12,30,5,20,6,10,10,18,8,15,30,9,4,24,10,4,6,6,25,16,10,20,3,20,25,12,20,12,28,21,5,22,12,28,2,20,24,16,24,25,12,30,12,26,3,6,4,8,24,30,3,3,20,24,12,14,5,16,25,14,12,10,2,12,6,15,21,12,12,3,20,12,12,21,30,15,12,6,2,20,10,14,10,15,15,20,21,25,20,12,6,21,2,12,4,12,4,20,4,10,8,15,30,15,12,14,5,6,21,10,12,10,24,10,6],"right_den":[5,4,6,15,16,10,15,3,16,5,10,6,15,18,6,6,16,6,20,30,28,15,24,10,20,10,8,26,22,10,6,24,20,20,30,6,9,24,24,15,25,26,5,10,20,10,16,12,26,24,5,10,24,8,3,10,10,10,5,9,20,10,3,26,30,24,10,15,30,10,2,25,25,8,24,8,4,20,26,22,12,5,6,6,24,24,9,9,30,20,8,5,16,10,10,18,12,28,20,24,22,14,3,4,24,7,6,10,15,10,12,30,20,10,10,8,16,10,20,30,15,30,18,30,28,8,26,24,24,4,8,20,25,20,10,15,15,10,12,30,20,10,10,6,20,20,15,22,30,24,6,4,26,10,10,20,4,28,25,12,10,15,25,6,14,4,6,10,6,30,5,30,10,16,4,20,20,24,9,9,16,10,7,16,10,6,28,10,6,8,2,5],"correct_side":[2,1,1,1,2,1,1,2,1,2,2,2,1,1,2,2,1,2,2,2,1,2,1,2,1,1,2,2,1,1,2,1,1,1,1,2,2,1,2,1,2,2,2,1,1,1,2,1,1,1,2,1,1,2,2,1,1,1,2,2,1,2,2,2,1,1,1,2,1,1,2,2,1,2,1,2,2,2,2,2,2,1,2,2,1,1,2,2,1,1,2,2,2,1,1,1,1,1,2,1,2,2,2,2,1,1,2,1,1,2,2,2,1,1,2,2,1,2,2,1,2,2,1,1,2,2,2,1,1,2,2,1,2,2,2,1,2,2,1,2,1,1,1,2,1,1,1,2,1,1,2,2,1,2,1,1,2,2,2,1,2,1,1,2,2,2,2,1,2,2,2,1,2,2,1,1,1,1,1,2,1,2,2,1,1,2,1,2,2,2,2,1],"img_shown":["img2/100/Congruent/R/C_Dist_100_LN_1_LD_2_RN_3_RD_5_1.png","img2/300/Congruent/L/C_Dist_300_LN_4_LD_5_RN_2_RD_4_0.png","img2/500/Congruent/L/C_Dist_500_LN_4_LD_6_RN_1_RD_6_0.png","img2/300/Congruent/L/C_Dist_300_LN_18_LD_20_RN_9_RD_15_0.png","img2/500/Congruent/R/C_Dist_500_LN_3_LD_8_RN_14_RD_16_1.png","img2/200/Equal/L/E_Dist_200_LN_3_LD_6_RN_3_RD_10_0.png","img2/200/Congruent/L/C_Dist_200_LN_7_LD_21_RN_2_RD_15_0.png","img2/200/Incongruent/R/I_Dist_200_LN_4_LD_30_RN_1_RD_3_1.png","img2/300/Incongruent/L/I_Dist_300_LN_4_LD_5_RN_8_RD_16_0.png","img2/300/Equal/R/E_Dist_300_LN_3_LD_10_RN_3_RD_5_1.png","img2/100/Equal/R/E_Dist_100_LN_6_LD_12_RN_6_RD_10_1.png","img2/200/Equal/R/E_Dist_200_LN_3_LD_10_RN_3_RD_6_1.png","img2/100/Incongruent/L/I_Dist_100_LN_2_LD_4_RN_6_RD_15_0.png","img2/500/Incongruent/L/I_Dist_500_LN_5_LD_6_RN_6_RD_18_0.png","img2/200/Incongruent/R/I_Dist_200_LN_7_LD_15_RN_4_RD_6_1.png","img2/200/Incongruent/R/I_Dist_200_LN_6_LD_20_RN_3_RD_6_1.png","img2/300/Congruent/L/C_Dist_300_LN_24_LD_30_RN_8_RD_16_0.png","img2/200/Equal/R/E_Dist_200_LN_3_LD_10_RN_3_RD_6_1.png","img2/300/Equal/R/E_Dist_300_LN_18_LD_30_RN_18_RD_20_1.png","img2/300/Congruent/R/C_Dist_300_LN_1_LD_3_RN_19_RD_30_1.png","img2/300/Incongruent/L/I_Dist_300_LN_8_LD_10_RN_14_RD_28_0.png","img2/100/Incongruent/R/I_Dist_100_LN_12_LD_24_RN_9_RD_15_1.png","img2/500/Incongruent/L/I_Dist_500_LN_2_LD_3_RN_4_RD_24_0.png","img2/100/Equal/R/E_Dist_100_LN_6_LD_12_RN_6_RD_10_1.png","img2/300/Incongruent/L/I_Dist_300_LN_3_LD_6_RN_4_RD_20_0.png","img2/300/Incongruent/L/I_Dist_300_LN_1_LD_2_RN_2_RD_10_0.png","img2/500/Equal/R/E_Dist_500_LN_6_LD_24_RN_6_RD_8_1.png","img2/100/Congruent/R/C_Dist_100_LN_12_LD_30_RN_13_RD_26_1.png","img2/100/Incongruent/L/I_Dist_100_LN_6_LD_10_RN_11_RD_22_0.png","img2/100/Incongruent/L/I_Dist_100_LN_3_LD_6_RN_4_RD_10_0.png","img2/200/Equal/R/E_Dist_200_LN_3_LD_10_RN_3_RD_6_1.png","img2/500/Congruent/L/C_Dist_500_LN_21_LD_28_RN_6_RD_24_0.png","img2/300/Equal/L/E_Dist_300_LN_9_LD_12_RN_9_RD_20_0.png","img2/300/Equal/L/E_Dist_300_LN_9_LD_12_RN_9_RD_20_0.png","img2/100/Equal/L/E_Dist_100_LN_2_LD_12_RN_2_RD_30_0.png","img2/500/Incongruent/R/I_Dist_500_LN_7_LD_21_RN_5_RD_6_1.png","img2/200/Incongruent/R/I_Dist_200_LN_14_LD_30_RN_6_RD_9_1.png","img2/500/Equal/L/E_Dist_500_LN_6_LD_8_RN_6_RD_24_0.png","img2/300/Congruent/R/C_Dist_300_LN_2_LD_10_RN_12_RD_24_1.png","img2/300/Incongruent/L/I_Dist_300_LN_1_LD_2_RN_3_RD_15_0.png","img2/300/Congruent/R/C_Dist_300_LN_2_LD_20_RN_10_RD_25_1.png","img2/300/Congruent/R/C_Dist_300_LN_4_LD_20_RN_13_RD_26_1.png","img2/300/Equal/R/E_Dist_300_LN_3_LD_10_RN_3_RD_5_1.png","img2/100/Congruent/L/C_Dist_100_LN_11_LD_22_RN_4_RD_10_0.png","img2/300/Equal/L/E_Dist_300_LN_9_LD_12_RN_9_RD_20_0.png","img2/200/Equal/L/E_Dist_200_LN_3_LD_6_RN_3_RD_10_0.png","img2/100/Congruent/R/C_Dist_100_LN_3_LD_20_RN_4_RD_16_1.png","img2/100/Equal/L/E_Dist_100_LN_6_LD_10_RN_6_RD_12_0.png","img2/100/Incongruent/L/I_Dist_100_LN_9_LD_15_RN_13_RD_26_0.png","img2/500/Incongruent/L/I_Dist_500_LN_2_LD_3_RN_4_RD_24_0.png","img2/300/Equal/R/E_Dist_300_LN_3_LD_10_RN_3_RD_5_1.png","img2/200/Congruent/L/C_Dist_200_LN_15_LD_25_RN_4_RD_10_0.png","img2/500/Incongruent/L/I_Dist_500_LN_2_LD_3_RN_4_RD_24_0.png","img2/500/Equal/R/E_Dist_500_LN_6_LD_24_RN_6_RD_8_1.png","img2/500/Equal/R/E_Dist_500_LN_2_LD_12_RN_2_RD_3_1.png","img2/300/Incongruent/L/I_Dist_300_LN_1_LD_2_RN_2_RD_10_0.png","img2/200/Equal/L/E_Dist_200_LN_3_LD_6_RN_3_RD_10_0.png","img2/200/Equal/L/E_Dist_200_LN_3_LD_6_RN_3_RD_10_0.png","img2/300/Equal/R/E_Dist_300_LN_3_LD_10_RN_3_RD_5_1.png","img2/200/Incongruent/R/I_Dist_200_LN_7_LD_15_RN_6_RD_9_1.png","img2/300/Equal/L/E_Dist_300_LN_9_LD_12_RN_9_RD_20_0.png","img2/100/Equal/R/E_Dist_100_LN_6_LD_12_RN_6_RD_10_1.png","img2/500/Equal/R/E_Dist_500_LN_2_LD_12_RN_2_RD_3_1.png","img2/100/Congruent/R/C_Dist_100_LN_12_LD_30_RN_13_RD_26_1.png","img2/300/Incongruent/L/I_Dist_300_LN_2_LD_4_RN_6_RD_30_0.png","img2/500/Incongruent/L/I_Dist_500_LN_2_LD_3_RN_4_RD_24_0.png","img2/200/Congruent/L/C_Dist_200_LN_4_LD_8_RN_3_RD_10_0.png","img2/300/Incongruent/R/I_Dist_300_LN_13_LD_26_RN_12_RD_15_1.png","img2/100/Equal/L/E_Dist_100_LN_2_LD_12_RN_2_RD_30_0.png","img2/100/Congruent/L/C_Dist_100_LN_11_LD_22_RN_4_RD_10_0.png","img2/100/Incongruent/R/I_Dist_100_LN_8_LD_20_RN_1_RD_2_1.png","img2/100/Congruent/R/C_Dist_100_LN_6_LD_12_RN_15_RD_25_1.png","img2/100/Incongruent/L/I_Dist_100_LN_9_LD_10_RN_20_RD_25_0.png","img2/500/Equal/R/E_Dist_500_LN_6_LD_24_RN_6_RD_8_1.png","img2/500/Equal/L/E_Dist_500_LN_6_LD_8_RN_6_RD_24_0.png","img2/500/Equal/R/E_Dist_500_LN_6_LD_24_RN_6_RD_8_1.png","img2/300/Incongruent/R/I_Dist_300_LN_4_LD_20_RN_2_RD_4_1.png","img2/200/Congruent/R/C_Dist_200_LN_3_LD_12_RN_9_RD_20_1.png","img2/200/Congruent/R/C_Dist_200_LN_9_LD_30_RN_13_RD_26_1.png","img2/300/Congruent/R/C_Dist_300_LN_1_LD_5_RN_11_RD_22_1.png","img2/300/Equal/R/E_Dist_300_LN_9_LD_20_RN_9_RD_12_1.png","img2/100/Congruent/L/C_Dist_100_LN_3_LD_6_RN_2_RD_5_0.png","img2/200/Equal/R/E_Dist_200_LN_3_LD_10_RN_3_RD_6_1.png","img2/200/Equal/R/E_Dist_200_LN_3_LD_10_RN_3_RD_6_1.png","img2/500/Congruent/L/C_Dist_500_LN_12_LD_18_RN_4_RD_24_0.png","img2/500/Equal/L/E_Dist_500_LN_6_LD_8_RN_6_RD_24_0.png","img2/200/Incongruent/R/I_Dist_200_LN_7_LD_15_RN_6_RD_9_1.png","img2/200/Incongruent/R/I_Dist_200_LN_14_LD_30_RN_6_RD_9_1.png","img2/100/Incongruent/L/I_Dist_100_LN_3_LD_9_RN_7_RD_30_0.png","img2/200/Incongruent/L/I_Dist_200_LN_3_LD_4_RN_11_RD_20_0.png","img2/500/Equal/R/E_Dist_500_LN_6_LD_24_RN_6_RD_8_1.png","img2/300/Equal/R/E_Dist_300_LN_3_LD_10_RN_3_RD_5_1.png","img2/500/Congruent/R/C_Dist_500_LN_1_LD_4_RN_12_RD_16_1.png","img2/200/Equal/L/E_Dist_200_LN_3_LD_6_RN_3_RD_10_0.png","img2/200/Equal/L/E_Dist_200_LN_3_LD_6_RN_3_RD_10_0.png","img2/300/Congruent/L/C_Dist_300_LN_20_LD_25_RN_9_RD_18_0.png","img2/500/Congruent/L/C_Dist_500_LN_12_LD_16_RN_3_RD_12_0.png","img2/200/Incongruent/L/I_Dist_200_LN_7_LD_10_RN_14_RD_28_0.png","img2/300/Congruent/R/C_Dist_300_LN_1_LD_20_RN_7_RD_20_1.png","img2/500/Incongruent/L/I_Dist_500_LN_2_LD_3_RN_4_RD_24_0.png","img2/200/Congruent/R/C_Dist_200_LN_6_LD_20_RN_11_RD_22_1.png","img2/300/Congruent/R/C_Dist_300_LN_5_LD_25_RN_7_RD_14_1.png","img2/500/Equal/R/E_Dist_500_LN_2_LD_12_RN_2_RD_3_1.png","img2/300/Incongruent/R/I_Dist_300_LN_4_LD_20_RN_2_RD_4_1.png","img2/500/Congruent/L/C_Dist_500_LN_8_LD_12_RN_4_RD_24_0.png","img2/500/Congruent/L/C_Dist_500_LN_22_LD_28_RN_2_RD_7_0.png","img2/500/Incongruent/R/I_Dist_500_LN_7_LD_21_RN_5_RD_6_1.png","img2/200/Incongruent/L/I_Dist_200_LN_4_LD_5_RN_6_RD_10_0.png","img2/100/Congruent/L/C_Dist_100_LN_11_LD_22_RN_6_RD_15_0.png","img2/100/Equal/R/E_Dist_100_LN_6_LD_12_RN_6_RD_10_1.png","img2/500/Congruent/R/C_Dist_500_LN_7_LD_28_RN_9_RD_12_1.png","img2/100/Congruent/R/C_Dist_100_LN_1_LD_2_RN_18_RD_30_1.png","img2/200/Congruent/L/C_Dist_200_LN_16_LD_20_RN_12_RD_20_0.png","img2/300/Congruent/L/C_Dist_300_LN_12_LD_24_RN_2_RD_10_0.png","img2/100/Incongruent/R/I_Dist_100_LN_8_LD_16_RN_6_RD_10_1.png","img2/500/Equal/R/E_Dist_500_LN_6_LD_24_RN_6_RD_8_1.png","img2/300/Congruent/L/C_Dist_300_LN_20_LD_25_RN_8_RD_16_0.png","img2/100/Equal/R/E_Dist_100_LN_6_LD_12_RN_6_RD_10_1.png","img2/300/Equal/R/E_Dist_300_LN_18_LD_30_RN_18_RD_20_1.png","img2/100/Equal/L/E_Dist_100_LN_2_LD_12_RN_2_RD_30_0.png","img2/300/Incongruent/R/I_Dist_300_LN_13_LD_26_RN_12_RD_15_1.png","img2/300/Congruent/R/C_Dist_300_LN_1_LD_3_RN_19_RD_30_1.png","img2/500/Incongruent/L/I_Dist_500_LN_5_LD_6_RN_6_RD_18_0.png","img2/300/Incongruent/L/I_Dist_300_LN_2_LD_4_RN_6_RD_30_0.png","img2/500/Congruent/R/C_Dist_500_LN_2_LD_8_RN_21_RD_28_1.png","img2/500/Equal/R/E_Dist_500_LN_6_LD_24_RN_6_RD_8_1.png","img2/200/Congruent/R/C_Dist_200_LN_9_LD_30_RN_13_RD_26_1.png","img2/500/Incongruent/L/I_Dist_500_LN_2_LD_3_RN_4_RD_24_0.png","img2/500/Incongruent/L/I_Dist_500_LN_2_LD_3_RN_4_RD_24_0.png","img2/200/Incongruent/R/I_Dist_200_LN_11_LD_20_RN_3_RD_4_1.png","img2/500/Equal/R/E_Dist_500_LN_6_LD_24_RN_6_RD_8_1.png","img2/300/Equal/L/E_Dist_300_LN_9_LD_12_RN_9_RD_20_0.png","img2/100/Congruent/R/C_Dist_100_LN_7_LD_14_RN_15_RD_25_1.png","img2/500/Congruent/R/C_Dist_500_LN_2_LD_5_RN_18_RD_20_1.png","img2/100/Incongruent/R/I_Dist_100_LN_8_LD_16_RN_6_RD_10_1.png","img2/200/Congruent/L/C_Dist_200_LN_20_LD_25_RN_9_RD_15_0.png","img2/100/Congruent/R/C_Dist_100_LN_7_LD_14_RN_9_RD_15_1.png","img2/100/Equal/R/E_Dist_100_LN_6_LD_12_RN_6_RD_10_1.png","img2/100/Equal/L/E_Dist_100_LN_6_LD_10_RN_6_RD_12_0.png","img2/200/Congruent/R/C_Dist_200_LN_1_LD_2_RN_21_RD_30_1.png","img2/300/Equal/L/E_Dist_300_LN_9_LD_12_RN_9_RD_20_0.png","img2/200/Equal/L/E_Dist_200_LN_3_LD_6_RN_3_RD_10_0.png","img2/200/Congruent/L/C_Dist_200_LN_12_LD_15_RN_6_RD_10_0.png","img2/500/Incongruent/R/I_Dist_500_LN_7_LD_21_RN_5_RD_6_1.png","img2/300/Equal/L/E_Dist_300_LN_9_LD_12_RN_9_RD_20_0.png","img2/300/Equal/L/E_Dist_300_LN_9_LD_12_RN_9_RD_20_0.png","img2/200/Incongruent/L/I_Dist_200_LN_1_LD_3_RN_2_RD_15_0.png","img2/200/Congruent/R/C_Dist_200_LN_6_LD_20_RN_11_RD_22_1.png","img2/100/Equal/L/E_Dist_100_LN_2_LD_12_RN_2_RD_30_0.png","img2/500/Congruent/L/C_Dist_500_LN_8_LD_12_RN_4_RD_24_0.png","img2/500/Incongruent/R/I_Dist_500_LN_7_LD_21_RN_5_RD_6_1.png","img2/100/Incongruent/R/I_Dist_100_LN_12_LD_30_RN_2_RD_4_1.png","img2/100/Incongruent/L/I_Dist_100_LN_9_LD_15_RN_13_RD_26_0.png","img2/100/Equal/R/E_Dist_100_LN_6_LD_12_RN_6_RD_10_1.png","img2/200/Equal/L/E_Dist_200_LN_3_LD_6_RN_3_RD_10_0.png","img2/100/Incongruent/L/I_Dist_100_LN_1_LD_2_RN_8_RD_20_0.png","img2/300/Incongruent/R/I_Dist_300_LN_4_LD_20_RN_2_RD_4_1.png","img2/200/Congruent/R/C_Dist_200_LN_3_LD_10_RN_14_RD_28_1.png","img2/300/Congruent/R/C_Dist_300_LN_7_LD_14_RN_20_RD_25_1.png","img2/100/Equal/L/E_Dist_100_LN_6_LD_10_RN_6_RD_12_0.png","img2/200/Incongruent/R/I_Dist_200_LN_9_LD_15_RN_8_RD_10_1.png","img2/200/Congruent/L/C_Dist_200_LN_6_LD_15_RN_3_RD_15_0.png","img2/100/Congruent/L/C_Dist_100_LN_6_LD_20_RN_5_RD_25_0.png","img2/500/Incongruent/R/I_Dist_500_LN_7_LD_21_RN_5_RD_6_1.png","img2/300/Congruent/R/C_Dist_300_LN_5_LD_25_RN_7_RD_14_1.png","img2/300/Incongruent/R/I_Dist_300_LN_4_LD_20_RN_2_RD_4_1.png","img2/500/Congruent/R/C_Dist_500_LN_2_LD_12_RN_4_RD_6_1.png","img2/200/Equal/L/E_Dist_200_LN_3_LD_6_RN_3_RD_10_0.png","img2/500/Incongruent/R/I_Dist_500_LN_7_LD_21_RN_5_RD_6_1.png","img2/100/Congruent/R/C_Dist_100_LN_1_LD_2_RN_18_RD_30_1.png","img2/100/Incongruent/R/I_Dist_100_LN_6_LD_12_RN_3_RD_5_1.png","img2/300/Incongruent/L/I_Dist_300_LN_2_LD_4_RN_6_RD_30_0.png","img2/100/Equal/R/E_Dist_100_LN_6_LD_12_RN_6_RD_10_1.png","img2/500/Congruent/R/C_Dist_500_LN_1_LD_4_RN_12_RD_16_1.png","img2/500/Congruent/L/C_Dist_500_LN_15_LD_20_RN_1_RD_4_0.png","img2/100/Incongruent/L/I_Dist_100_LN_2_LD_4_RN_8_RD_20_0.png","img2/300/Incongruent/L/I_Dist_300_LN_7_LD_10_RN_8_RD_20_0.png","img2/500/Equal/L/E_Dist_500_LN_6_LD_8_RN_6_RD_24_0.png","img2/200/Congruent/L/C_Dist_200_LN_8_LD_15_RN_3_RD_9_0.png","img2/200/Incongruent/R/I_Dist_200_LN_14_LD_30_RN_6_RD_9_1.png","img2/100/Congruent/L/C_Dist_100_LN_9_LD_15_RN_8_RD_16_0.png","img2/100/Equal/R/E_Dist_100_LN_6_LD_12_RN_6_RD_10_1.png","img2/500/Congruent/R/C_Dist_500_LN_5_LD_14_RN_6_RD_7_1.png","img2/100/Incongruent/L/I_Dist_100_LN_3_LD_5_RN_8_RD_16_0.png","img2/200/Equal/L/E_Dist_200_LN_3_LD_6_RN_3_RD_10_0.png","img2/500/Incongruent/R/I_Dist_500_LN_7_LD_21_RN_5_RD_6_1.png","img2/200/Incongruent/L/I_Dist_200_LN_7_LD_10_RN_14_RD_28_0.png","img2/200/Congruent/R/C_Dist_200_LN_6_LD_12_RN_7_RD_10_1.png","img2/200/Equal/R/E_Dist_200_LN_3_LD_10_RN_3_RD_6_1.png","img2/500/Equal/R/E_Dist_500_LN_6_LD_24_RN_6_RD_8_1.png","img2/200/Incongruent/R/I_Dist_200_LN_3_LD_10_RN_1_RD_2_1.png","img2/100/Congruent/L/C_Dist_100_LN_3_LD_6_RN_2_RD_5_0.png"],"dist100_C":[["C_Dist_100_LN_10_LD_25_RN_3_RD_10_0.png","C_Dist_100_LN_11_LD_22_RN_4_RD_10_0.png","C_Dist_100_LN_11_LD_22_RN_6_RD_15_0.png","C_Dist_100_LN_15_LD_25_RN_13_RD_26_0.png","C_Dist_100_LN_3_LD_6_RN_2_RD_5_0.png","C_Dist_100_LN_6_LD_20_RN_5_RD_25_0.png","C_Dist_100_LN_8_LD_16_RN_2_RD_5_0.png","C_Dist_100_LN_9_LD_15_RN_8_RD_16_0.png"],["C_Dist_100_LN_1_LD_2_RN_18_RD_30_1.png","C_Dist_100_LN_1_LD_2_RN_3_RD_5_1.png","C_Dist_100_LN_12_LD_30_RN_13_RD_26_1.png","C_Dist_100_LN_2_LD_5_RN_11_RD_22_1.png","C_Dist_100_LN_2_LD_5_RN_6_RD_12_1.png","C_Dist_100_LN_3_LD_20_RN_4_RD_16_1.png","C_Dist_100_LN_4_LD_10_RN_15_RD_30_1.png","C_Dist_100_LN_4_LD_8_RN_6_RD_10_1.png","C_Dist_100_LN_6_LD_12_RN_15_RD_25_1.png","C_Dist_100_LN_7_LD_14_RN_15_RD_25_1.png","C_Dist_100_LN_7_LD_14_RN_9_RD_15_1.png"]],"dist100_I":[["I_Dist_100_LN_1_LD_2_RN_8_RD_20_0.png","I_Dist_100_LN_2_LD_4_RN_6_RD_15_0.png","I_Dist_100_LN_2_LD_4_RN_8_RD_20_0.png","I_Dist_100_LN_3_LD_5_RN_11_RD_22_0.png","I_Dist_100_LN_3_LD_5_RN_8_RD_16_0.png","I_Dist_100_LN_3_LD_6_RN_4_RD_10_0.png","I_Dist_100_LN_3_LD_9_RN_7_RD_30_0.png","I_Dist_100_LN_4_LD_8_RN_8_RD_20_0.png","I_Dist_100_LN_6_LD_10_RN_11_RD_22_0.png","I_Dist_100_LN_6_LD_10_RN_13_RD_26_0.png","I_Dist_100_LN_6_LD_10_RN_7_RD_14_0.png","I_Dist_100_LN_9_LD_10_RN_20_RD_25_0.png","I_Dist_100_LN_9_LD_15_RN_13_RD_26_0.png","I_Dist_100_LN_9_LD_15_RN_14_RD_28_0.png"],["I_Dist_100_LN_10_LD_25_RN_8_RD_16_1.png","I_Dist_100_LN_10_LD_25_RN_9_RD_18_1.png","I_Dist_100_LN_11_LD_22_RN_9_RD_15_1.png","I_Dist_100_LN_12_LD_24_RN_9_RD_15_1.png","I_Dist_100_LN_12_LD_30_RN_2_RD_4_1.png","I_Dist_100_LN_13_LD_26_RN_12_RD_20_1.png","I_Dist_100_LN_13_LD_26_RN_6_RD_10_1.png","I_Dist_100_LN_17_LD_30_RN_10_RD_15_1.png","I_Dist_100_LN_6_LD_12_RN_3_RD_5_1.png","I_Dist_100_LN_8_LD_16_RN_6_RD_10_1.png","I_Dist_100_LN_8_LD_20_RN_1_RD_2_1.png","I_Dist_100_LN_9_LD_18_RN_6_RD_10_1.png"]],"dist100_S":[["E_Dist_100_LN_2_LD_12_RN_2_RD_30_0.png","E_Dist_100_LN_6_LD_10_RN_6_RD_12_0.png"],["E_Dist_100_LN_6_LD_12_RN_6_RD_10_1.png"]],"dist200_C":[["C_Dist_200_LN_11_LD_22_RN_3_RD_10_0.png","C_Dist_200_LN_12_LD_15_RN_6_RD_10_0.png","C_Dist_200_LN_12_LD_20_RN_6_RD_15_0.png","C_Dist_200_LN_14_LD_28_RN_6_RD_20_0.png","C_Dist_200_LN_15_LD_25_RN_4_RD_10_0.png","C_Dist_200_LN_16_LD_20_RN_12_RD_20_0.png","C_Dist_200_LN_16_LD_30_RN_9_RD_27_0.png","C_Dist_200_LN_20_LD_25_RN_9_RD_15_0.png","C_Dist_200_LN_21_LD_30_RN_2_RD_4_0.png","C_Dist_200_LN_4_LD_10_RN_3_RD_15_0.png","C_Dist_200_LN_4_LD_8_RN_3_RD_10_0.png","C_Dist_200_LN_6_LD_15_RN_3_RD_15_0.png","C_Dist_200_LN_7_LD_21_RN_2_RD_15_0.png","C_Dist_200_LN_8_LD_15_RN_2_RD_6_0.png","C_Dist_200_LN_8_LD_15_RN_3_RD_9_0.png","C_Dist_200_LN_8_LD_15_RN_7_RD_21_0.png","C_Dist_200_LN_9_LD_20_RN_4_RD_16_0.png"],["C_Dist_200_LN_1_LD_2_RN_21_RD_30_1.png","C_Dist_200_LN_13_LD_26_RN_14_RD_20_1.png","C_Dist_200_LN_3_LD_10_RN_11_RD_22_1.png","C_Dist_200_LN_3_LD_10_RN_14_RD_28_1.png","C_Dist_200_LN_3_LD_10_RN_7_RD_14_1.png","C_Dist_200_LN_3_LD_12_RN_9_RD_20_1.png","C_Dist_200_LN_3_LD_6_RN_14_RD_20_1.png","C_Dist_200_LN_5_LD_10_RN_14_RD_20_1.png","C_Dist_200_LN_6_LD_12_RN_7_RD_10_1.png","C_Dist_200_LN_6_LD_20_RN_11_RD_22_1.png","C_Dist_200_LN_7_LD_15_RN_18_RD_27_1.png","C_Dist_200_LN_9_LD_30_RN_13_RD_26_1.png"]],"dist200_I":[["I_Dist_200_LN_1_LD_2_RN_3_RD_10_0.png","I_Dist_200_LN_1_LD_3_RN_2_RD_15_0.png","I_Dist_200_LN_3_LD_4_RN_11_RD_20_0.png","I_Dist_200_LN_4_LD_5_RN_6_RD_10_0.png","I_Dist_200_LN_4_LD_6_RN_14_RD_30_0.png","I_Dist_200_LN_7_LD_10_RN_12_RD_24_0.png","I_Dist_200_LN_7_LD_10_RN_14_RD_28_0.png","I_Dist_200_LN_7_LD_10_RN_8_RD_16_0.png"],["I_Dist_200_LN_11_LD_20_RN_3_RD_4_1.png","I_Dist_200_LN_14_LD_30_RN_12_RD_18_1.png","I_Dist_200_LN_14_LD_30_RN_6_RD_9_1.png","I_Dist_200_LN_3_LD_10_RN_1_RD_2_1.png","I_Dist_200_LN_4_LD_30_RN_1_RD_3_1.png","I_Dist_200_LN_6_LD_20_RN_3_RD_6_1.png","I_Dist_200_LN_7_LD_15_RN_4_RD_6_1.png","I_Dist_200_LN_7_LD_15_RN_6_RD_9_1.png","I_Dist_200_LN_9_LD_15_RN_8_RD_10_1.png"]],"dist200_S":[["E_Dist_200_LN_3_LD_6_RN_3_RD_10_0.png"],["E_Dist_200_LN_3_LD_10_RN_3_RD_6_1.png"]],"dist300_C":[["C_Dist_300_LN_11_LD_22_RN_1_RD_5_0.png","C_Dist_300_LN_11_LD_22_RN_2_RD_10_0.png","C_Dist_300_LN_11_LD_22_RN_4_RD_20_0.png","C_Dist_300_LN_12_LD_24_RN_2_RD_10_0.png","C_Dist_300_LN_18_LD_20_RN_9_RD_15_0.png","C_Dist_300_LN_20_LD_25_RN_13_RD_26_0.png","C_Dist_300_LN_20_LD_25_RN_14_RD_28_0.png","C_Dist_300_LN_20_LD_25_RN_5_RD_10_0.png","C_Dist_300_LN_20_LD_25_RN_8_RD_16_0.png","C_Dist_300_LN_20_LD_25_RN_9_RD_18_0.png","C_Dist_300_LN_24_LD_30_RN_2_RD_4_0.png","C_Dist_300_LN_24_LD_30_RN_8_RD_16_0.png","C_Dist_300_LN_3_LD_6_RN_2_RD_10_0.png","C_Dist_300_LN_4_LD_10_RN_1_RD_10_0.png","C_Dist_300_LN_4_LD_5_RN_2_RD_4_0.png","C_Dist_300_LN_8_LD_16_RN_1_RD_5_0.png","C_Dist_300_LN_9_LD_10_RN_3_RD_5_0.png"],["C_Dist_300_LN_1_LD_20_RN_7_RD_20_1.png","C_Dist_300_LN_1_LD_3_RN_19_RD_30_1.png","C_Dist_300_LN_1_LD_30_RN_8_RD_24_1.png","C_Dist_300_LN_1_LD_5_RN_11_RD_22_1.png","C_Dist_300_LN_1_LD_5_RN_3_RD_6_1.png","C_Dist_300_LN_1_LD_5_RN_6_RD_12_1.png","C_Dist_300_LN_2_LD_10_RN_12_RD_24_1.png","C_Dist_300_LN_2_LD_20_RN_10_RD_25_1.png","C_Dist_300_LN_3_LD_12_RN_11_RD_20_1.png","C_Dist_300_LN_3_LD_6_RN_4_RD_5_1.png","C_Dist_300_LN_4_LD_20_RN_13_RD_26_1.png","C_Dist_300_LN_5_LD_25_RN_6_RD_12_1.png","C_Dist_300_LN_5_LD_25_RN_7_RD_14_1.png","C_Dist_300_LN_7_LD_14_RN_20_RD_25_1.png","C_Dist_300_LN_8_LD_15_RN_10_RD_12_1.png"]],"dist300_I":[["I_Dist_300_LN_1_LD_2_RN_2_RD_10_0.png","I_Dist_300_LN_1_LD_2_RN_3_RD_15_0.png","I_Dist_300_LN_2_LD_4_RN_6_RD_30_0.png","I_Dist_300_LN_3_LD_6_RN_4_RD_20_0.png","I_Dist_300_LN_4_LD_5_RN_6_RD_12_0.png","I_Dist_300_LN_4_LD_5_RN_8_RD_16_0.png","I_Dist_300_LN_7_LD_10_RN_8_RD_20_0.png","I_Dist_300_LN_8_LD_10_RN_14_RD_28_0.png","I_Dist_300_LN_8_LD_10_RN_9_RD_18_0.png"],["I_Dist_300_LN_13_LD_26_RN_12_RD_15_1.png","I_Dist_300_LN_4_LD_20_RN_2_RD_4_1.png"]],"dist300_S":[["E_Dist_300_LN_9_LD_12_RN_9_RD_20_0.png"],["E_Dist_300_LN_18_LD_30_RN_18_RD_20_1.png","E_Dist_300_LN_3_LD_10_RN_3_RD_5_1.png","E_Dist_300_LN_9_LD_20_RN_9_RD_12_1.png"]],"dist500_C":[["C_Dist_500_LN_10_LD_13_RN_7_RD_26_0.png","C_Dist_500_LN_10_LD_15_RN_4_RD_24_0.png","C_Dist_500_LN_12_LD_16_RN_3_RD_12_0.png","C_Dist_500_LN_12_LD_18_RN_4_RD_24_0.png","C_Dist_500_LN_15_LD_18_RN_5_RD_15_0.png","C_Dist_500_LN_15_LD_20_RN_1_RD_4_0.png","C_Dist_500_LN_18_LD_27_RN_1_RD_6_0.png","C_Dist_500_LN_20_LD_24_RN_1_RD_3_0.png","C_Dist_500_LN_20_LD_24_RN_3_RD_9_0.png","C_Dist_500_LN_20_LD_24_RN_7_RD_21_0.png","C_Dist_500_LN_20_LD_28_RN_3_RD_14_0.png","C_Dist_500_LN_21_LD_28_RN_6_RD_24_0.png","C_Dist_500_LN_22_LD_28_RN_2_RD_7_0.png","C_Dist_500_LN_25_LD_30_RN_9_RD_27_0.png","C_Dist_500_LN_4_LD_6_RN_1_RD_6_0.png","C_Dist_500_LN_5_LD_6_RN_2_RD_6_0.png","C_Dist_500_LN_6_LD_9_RN_1_RD_6_0.png","C_Dist_500_LN_7_LD_10_RN_1_RD_5_0.png","C_Dist_500_LN_8_LD_12_RN_1_RD_6_0.png","C_Dist_500_LN_8_LD_12_RN_4_RD_24_0.png"],["C_Dist_500_LN_1_LD_4_RN_12_RD_16_1.png","C_Dist_500_LN_1_LD_4_RN_9_RD_12_1.png","C_Dist_500_LN_1_LD_9_RN_11_RD_18_1.png","C_Dist_500_LN_10_LD_24_RN_22_RD_24_1.png","C_Dist_500_LN_2_LD_12_RN_10_RD_15_1.png","C_Dist_500_LN_2_LD_12_RN_12_RD_18_1.png","C_Dist_500_LN_2_LD_12_RN_4_RD_6_1.png","C_Dist_500_LN_2_LD_24_RN_7_RD_12_1.png","C_Dist_500_LN_2_LD_5_RN_18_RD_20_1.png","C_Dist_500_LN_2_LD_5_RN_9_RD_10_1.png","C_Dist_500_LN_2_LD_8_RN_12_RD_16_1.png","C_Dist_500_LN_2_LD_8_RN_21_RD_28_1.png","C_Dist_500_LN_3_LD_10_RN_4_RD_5_1.png","C_Dist_500_LN_3_LD_12_RN_15_RD_20_1.png","C_Dist_500_LN_3_LD_30_RN_6_RD_10_1.png","C_Dist_500_LN_3_LD_8_RN_14_RD_16_1.png","C_Dist_500_LN_4_LD_16_RN_15_RD_20_1.png","C_Dist_500_LN_4_LD_24_RN_12_RD_18_1.png","C_Dist_500_LN_5_LD_14_RN_6_RD_7_1.png","C_Dist_500_LN_7_LD_21_RN_20_RD_24_1.png","C_Dist_500_LN_7_LD_28_RN_12_RD_16_1.png","C_Dist_500_LN_7_LD_28_RN_9_RD_12_1.png","C_Dist_500_LN_9_LD_27_RN_20_RD_24_1.png"]],"dist500_I":[["I_Dist_500_LN_2_LD_3_RN_4_RD_24_0.png","I_Dist_500_LN_5_LD_6_RN_6_RD_18_0.png","I_Dist_500_LN_7_LD_8_RN_9_RD_24_0.png"],["I_Dist_500_LN_7_LD_21_RN_5_RD_6_1.png"]],"dist500_S":[["E_Dist_500_LN_6_LD_8_RN_6_RD_24_0.png"],["E_Dist_500_LN_2_LD_12_RN_2_RD_3_1.png","E_Dist_500_LN_6_LD_24_RN_6_RD_8_1.png"]]}},{"start_time":1549308890944,"click_time":1549308892664,"finger_time":1549308892123,"fix_duration":839.5571228032926,"trial":1,"RT":1179,"MT":541,"sideResp":1,"stimulus":[],"xmouse":[392,392,392,392,392,392,392,392,392,392,392,392,392,392,392,392,392,392,392,392,392,392,392,392,392,392,392,392,392,392,392,392,392,392,392,392,392,392,392,392,392,392,392,392,392,397.3333435058594,396.66668701171875,396,395.3333435058594,395.3333435058594,394.66668701171875,393.3333435058594,390.66668701171875,387.3333435058594,384.66668701171875,383.3333435058594,378.66668701171875,376,372.66668701171875,371.3333435058594,364.66668701171875,362,340.66668701171875,335.3333435058594,324.66668701171875,318,302,275.3333435058594,260.66668701171875,253.33334350585938,240,233.33334350585938,204,197.33334350585938,185.33334350585938,178.6666717529297,170,156,146.6666717529297,141.33334350585938,132.6666717529297,127.33334350585938,108,103.33333587646484,94.66667175292969,90,83.33333587646484],"ymouse":[838,838,838,838,838,838,838,838,838,838,838,838,838,838,838,838,838,838,838,838,838,838,838,838,838,838,838,838,838,838,838,838,838,838,838,838,838,838,838,838,838,838,838,838,838,823.3333740234375,822,820,818,817.3333740234375,815.3333740234375,813.3333740234375,809.3333740234375,804.6666870117188,799.3333740234375,796.6666870117188,786.6666870117188,779.3333740234375,771.3333740234375,767.3333740234375,754,748.6666870117188,718,709.3333740234375,692.6666870117188,682.6666870117188,654.6666870117188,608,580,564.6666870117188,533.3333740234375,517.3333740234375,454,438.66668701171875,406.66668701171875,390,355.3333435058594,302.66668701171875,268,252,222.6666717529297,207.33334350585938,156.6666717529297,145.33334350585938,124,112,91.33333587646484],"timestamp_mouse":[7,31,39,59,79,99,119,139,159,179,199,219,239,259,279,299,319,339,359,379,399,419,439,459,479,499,519,539,559,579,599,619,639,659,679,699,719,739,759,779,799,819,839,859,879,900,919,939,959,979,999,1019,1039,1059,1079,1099,1121,1139,1159,1179,1199,1219,1241,1259,1279,1299,1320,1339,1359,1379,1399,1420,1440,1459,1479,1499,1520,1540,1559,1579,1599,1619,1640,1659,1679,1699,1719],"xSR":350,"ySR":768,"xT1":30,"yT1":0,"xT2":670,"yT2":0,"toosoon":0,"cond_shown":"Congruent","ratio_trial":300,"L_num":4,"L_den":5,"R_num":2,"R_den":4,"correct_side":1,"subjID":"6","gender":"No_gender","school":"No_school","age":"No_age"},{"start_time":1549308895696,"click_time":1549308897683,"finger_time":1549308897283,"fix_duration":912.1167571965368,"trial":2,"RT":1587,"MT":400,"sideResp":1,"stimulus":[],"xmouse":[396,396,396,396,396,396,396,396,396,396,396,396,396,396,396,396,396,396,396,396,396,396,396,396,396,396,396,396,396,396,396,396,396,396,396,396,396,396,396,396,396,396,396,396,396,396,396,396,396,396,396,396,396,396,396,396,396,396,396,396,396,396,396,396,396,396,396,396,396,396,396,396,396,396,396,390.66668701171875,386.66668701171875,382,369.3333435058594,361.3333435058594,338.66668701171875,323.3333435058594,307.3333435058594,297.3333435058594,278.66668701171875,251.33334350585938,234,226.6666717529297,210,202,182,168.6666717529297,155.33334350585938,148.6666717529297,136.6666717529297,122,117.33333587646484,110.66667175292969,101.33333587646484,97.33333587646484],"ymouse":[830,830,830,830,830,830,830,830,830,830,830,830,830,830,830,830,830,830,830,830,830,830,830,830,830,830,830,830,830,830,830,830,830,830,830,830,830,830,830,830,830,830,830,830,830,830,830,830,830,830,830,830,830,830,830,830,830,830,830,830,830,830,830,830,830,830,830,830,830,830,830,830,830,830,830,815.3333740234375,808,800,772.6666870117188,756.6666870117188,710,675.3333740234375,634.6666870117188,612.6666870117188,572,516,479.3333435058594,461.3333435058594,421.3333435058594,400,343.3333435058594,307.3333435058594,272,252,218,166.6666717529297,150,123.33334350585938,100.66667175292969,93.33333587646484],"timestamp_mouse":[10,38,47,67,87,107,127,147,167,187,207,227,247,267,287,307,327,347,367,387,407,427,447,467,487,507,527,547,567,587,607,627,647,667,687,707,727,747,767,787,807,827,847,867,887,907,927,947,967,987,1007,1027,1047,1067,1087,1107,1127,1147,1167,1187,1207,1227,1247,1267,1287,1307,1326,1347,1367,1387,1407,1427,1447,1467,1487,1507,1527,1547,1567,1587,1609,1627,1647,1667,1687,1708,1728,1747,1767,1787,1809,1827,1847,1867,1887,1909,1928,1947,1967,1987],"xSR":350,"ySR":768,"xT1":30,"yT1":0,"xT2":670,"yT2":0,"toosoon":0,"cond_shown":"Congruent","ratio_trial":500,"L_num":4,"L_den":6,"R_num":1,"R_den":6,"correct_side":1,"subjID":"6","gender":"No_gender","school":"No_school","age":"No_age"},{"start_time":1549308900658,"click_time":1549308902243,"finger_time":1549308901803,"fix_duration":954.2589213947318,"trial":3,"RT":1145,"MT":440,"sideResp":1,"stimulus":[],"xmouse":[400,400,400,400,400,400,400,400,400,400,400,400,400,400,400,400,400,400,400,400,400,400,400,400,400,400,400,400,400,400,400,400,400,400,400,400,400,400,400,400,400,400,400,400,400,400,400,400,400,400,400,400,400,400,395.3333435058594,390.66668701171875,390.66668701171875,380,374.66668701171875,344.66668701171875,336,316.66668701171875,308,290.66668701171875,262.66668701171875,242.6666717529297,232,212.6666717529297,204,170,162.6666717529297,148.6666717529297,142,130.6666717529297,112,100.66667175292969,94.66667175292969,86.66667175292969,80,74],"ymouse":[812,812,812,812,812,812,812,812,812,812,812,812,812,812,812,812,812,812,812,812,812,812,812,812,812,812,812,812,812,812,812,812,812,812,812,812,812,812,812,812,812,812,812,812,812,812,812,812,812,812,812,812,812,812,793.3333740234375,780.6666870117188,780.6666870117188,750,736,662.6666870117188,645.3333740234375,610,591.3333740234375,552.6666870117188,494.66668701171875,457.3333435058594,438,399.3333435058594,382,307.3333435058594,290.66668701171875,256,240.66668701171875,210.6666717529297,174.6666717529297,150.6666717529297,140,121.33334350585938,109.33333587646484,96.66667175292969],"timestamp_mouse":[9,31,45,65,84,105,126,145,165,186,206,225,245,265,285,305,325,345,365,385,405,425,445,465,485,505,525,545,565,585,605,625,645,665,685,705,725,745,765,785,805,825,845,865,885,905,925,945,965,985,1005,1025,1045,1065,1085,1105,1125,1145,1165,1186,1205,1225,1245,1265,1285,1305,1325,1345,1365,1386,1406,1425,1445,1465,1487,1505,1525,1545,1565,1585],"xSR":350,"ySR":768,"xT1":30,"yT1":0,"xT2":670,"yT2":0,"toosoon":0,"cond_shown":"Congruent","ratio_trial":300,"L_num":18,"L_den":20,"R_num":9,"R_den":15,"correct_side":1,"subjID":"6","gender":"No_gender","school":"No_school","age":"No_age"},{"start_time":1549308904996,"click_time":1549308906223,"finger_time":1549308905839,"fix_duration":789.9814540526824,"trial":4,"RT":843,"MT":384,"sideResp":2,"stimulus":[],"xmouse":[404,404,404,403.3333435058594,403.3333435058594,403.3333435058594,403.3333435058594,403.3333435058594,403.3333435058594,403.3333435058594,403.3333435058594,403.3333435058594,403.3333435058594,403.3333435058594,402.66668701171875,402.66668701171875,402.66668701171875,402.66668701171875,402.66668701171875,402.66668701171875,402.66668701171875,402.66668701171875,402.66668701171875,402.66668701171875,402.66668701171875,402.66668701171875,402,402,402,402,402,402,402,402,402,402,402.66668701171875,403.3333435058594,403.3333435058594,403.3333435058594,403.3333435058594,464.66668701171875,464.66668701171875,471.3333435058594,492,506.66668701171875,514,530,553.3333740234375,562,576,589.3333740234375,596.6666870117188,620.6666870117188,633.3333740234375,647.3333740234375,652,659.3333740234375,664.6666870117188,674.6666870117188,676.6666870117188,680.6666870117188],"ymouse":[799.3333740234375,799.3333740234375,799.3333740234375,800,800,800,800,800,800,800,800,800,800,800,800,800,800,800,799.3333740234375,799.3333740234375,799.3333740234375,799.3333740234375,799.3333740234375,799.3333740234375,799.3333740234375,799.3333740234375,799.3333740234375,799.3333740234375,800,800,800,800,799.3333740234375,799.3333740234375,798.6666870117188,798,797.3333740234375,793.3333740234375,793.3333740234375,793.3333740234375,793.3333740234375,622,622,601.3333740234375,535.3333740234375,496.66668701171875,474,432.66668701171875,372.66668701171875,355.3333435058594,318,283.3333435058594,266,219.33334350585938,194.6666717529297,172.6666717529297,161.33334350585938,144.6666717529297,127.33334350585938,104.66667175292969,100,91.33333587646484],"timestamp_mouse":[9,31,47,67,87,107,127,147,167,187,207,227,247,267,287,307,327,347,367,387,407,427,447,467,487,507,527,547,568,587,607,627,647,667,687,707,727,747,767,787,807,843,847,867,886,907,927,947,969,987,1007,1027,1047,1070,1087,1107,1127,1147,1167,1189,1207,1227],"xSR":350,"ySR":768,"xT1":30,"yT1":0,"xT2":670,"yT2":0,"toosoon":0,"cond_shown":"Congruent","ratio_trial":500,"L_num":3,"L_den":8,"R_num":14,"R_den":16,"correct_side":2,"subjID":"6","gender":"No_gender","school":"No_school","age":"No_age"},{"start_time":1549308909052,"click_time":1549308911203,"finger_time":1549308910703,"fix_duration":727.0222900781674,"trial":5,"RT":1651,"MT":500,"sideResp":2,"stimulus":[],"xmouse":[386,386,386,386,386,386,386,386,386,386,386,386,386,386,386,386,386,386,386,386,386,386,386,386,386,386,386,386,386,386,386,386,386,386,386,386,386,386,386,386,386,386,386,386,386,386,386,386,386,386,386,386,386,386,386,386,386,386,386,386,386,386,386,386,386,386,386,386,386,386,386,386,386,386,386,386,386,386,386,398,408,418.66668701171875,438.66668701171875,465.3333435058594,484,493.3333435058594,514.6666870117188,544.6666870117188,563.3333740234375,570.6666870117188,587.3333740234375,594,616.6666870117188,621.3333740234375,628.6666870117188,633.3333740234375,642,649.3333740234375,658.6666870117188,662.6666870117188,668.6666870117188,672.6666870117188,679.3333740234375,684,686,688,688.6666870117188,689.3333740234375],"ymouse":[830,830,830,830,830,830,830,830,830,830,830,830,830,830,830,830,830,830,830,830,830,830,830,830,830,830,830,830,830,830,830,830,830,830,830,830,830,830,830,830,830,830,830,830,830,830,830,830,830,830,830,830,830,830,830,830,830,830,830,830,830,830,830,830,830,830,830,830,830,830,830,830,830,830,830,830,830,830,830,808,791.3333740234375,771.3333740234375,733.3333740234375,674.6666870117188,630,606.6666870117188,558.6666870117188,490,448.66668701171875,428,388.66668701171875,368,302.66668701171875,286.66668701171875,261.3333435058594,248.66668701171875,225.33334350585938,206,178.6666717529297,168.6666717529297,154,147.33334350585938,134.6666717529297,122.66667175292969,113.33334350585938,104.66667175292969,101.33333587646484,94.66667175292969],"timestamp_mouse":[11,32,51,71,91,111,131,150,171,192,211,231,251,271,291,311,331,351,371,391,411,431,451,471,492,511,531,551,571,591,611,631,651,671,691,711,731,751,771,791,811,831,851,871,891,911,932,951,971,991,1011,1031,1051,1071,1091,1111,1131,1151,1171,1191,1211,1231,1251,1271,1292,1311,1331,1351,1371,1391,1411,1431,1451,1471,1491,1511,1531,1550,1571,1592,1611,1631,1651,1671,1692,1711,1731,1752,1771,1791,1811,1831,1852,1871,1891,1911,1931,1951,1971,1991,2011,2031,2051,2072,2091,2111,2131,2151],"xSR":350,"ySR":768,"xT1":30,"yT1":0,"xT2":670,"yT2":0,"toosoon":0,"cond_shown":"Equal","ratio_trial":200,"L_num":3,"L_den":6,"R_num":3,"R_den":10,"correct_side":1,"subjID":"6","gender":"No_gender","school":"No_school","age":"No_age"},{"start_time":1549308914059,"click_time":1549308917323,"finger_time":1549308916744,"fix_duration":494.9653058122654,"trial":6,"RT":2685,"MT":579,"sideResp":1,"stimulus":[],"xmouse":[401,401,401,401,401,401,401,401,401,401,401,401,401,401,401,401,401,401,401,401,401,401,401,401,401,401,401,401,401,401,401,401,401,401,401,401,401,401,401,401,401,401,401,401,401,401,401,401,401,401,401,401,401,401,401,401,401,401,401,401,401,401,401,401,401,401,401,401,401,401,401,401,401,401,401,401,401,401,401,401,401,401,401,401,401,401,401,401,401,401,401,401,401,401,401,401,401,401,401,401,401,401,401,401,401,401,401,401,401,401,401,401,401,401,401,401,401,401,401,401,401,401,401,401,401,401,401,401,401,401,401,401,406,408,410,407.3333435058594,405.3333435058594,400.66668701171875,398,393.3333435058594,382,374,369.3333435058594,360,344.66668701171875,334,327.3333435058594,316,310.66668701171875,285.3333435058594,278.66668701171875,267.3333435058594,260.66668701171875,249.33334350585938,230.6666717529297,218,211.33334350585938,198.6666717529297,192.6666717529297,180,161.33334350585938,149.33334350585938,142,129.33334350585938],"ymouse":[839,839,839,839,839,839,839,839,839,839,839,839,839,839,839,839,839,839,839,839,839,839,839,839,839,839,839,839,839,839,839,839,839,839,839,839,839,839,839,839,839,839,839,839,839,839,839,839,839,839,839,839,839,839,839,839,839,839,839,839,839,839,839,839,839,839,839,839,839,839,839,839,839,839,839,839,839,839,839,839,839,839,839,839,839,839,839,839,839,839,839,839,839,839,839,839,839,839,839,839,839,839,839,839,839,839,839,839,839,839,839,839,839,839,839,839,839,839,839,839,839,839,839,839,839,839,839,839,839,839,839,839,820,802.6666870117188,766,736,720.6666870117188,690.6666870117188,676,647.3333740234375,604,576,562,533.3333740234375,492.66668701171875,465.3333435058594,452,422.66668701171875,408,350.66668701171875,336.66668701171875,308.66668701171875,296,270,232,207.33334350585938,196,175.33334350585938,164.6666717529297,146.6666717529297,120.66667175292969,102.66667175292969,94.66667175292969,78.66667175292969],"timestamp_mouse":[4,32,44,64,84,104,124,144,164,184,204,225,244,264,285,304,324,344,364,384,404,424,444,464,484,504,524,544,564,584,604,624,644,664,684,704,724,744,764,784,804,824,844,864,884,904,924,944,964,983,1004,1024,1044,1064,1084,1104,1124,1144,1164,1184,1204,1224,1244,1264,1284,1304,1324,1344,1365,1384,1404,1424,1444,1464,1484,1504,1524,1544,1564,1584,1604,1624,1644,1664,1684,1704,1724,1744,1764,1784,1804,1824,1844,1864,1884,1904,1924,1944,1964,1985,2004,2024,2044,2064,2084,2104,2124,2144,2164,2184,2204,2224,2244,2264,2284,2304,2324,2344,2364,2384,2404,2424,2444,2464,2484,2504,2524,2544,2564,2583,2604,2624,2644,2664,2684,2704,2724,2744,2764,2784,2803,2824,2844,2864,2886,2905,2926,2944,2964,2986,3005,3024,3044,3064,3085,3104,3125,3144,3164,3184,3204,3224,3244,3264],"xSR":350,"ySR":768,"xT1":30,"yT1":0,"xT2":670,"yT2":0,"toosoon":0,"cond_shown":"Congruent","ratio_trial":200,"L_num":7,"L_den":21,"R_num":2,"R_den":15,"correct_side":1,"subjID":"6","gender":"No_gender","school":"No_school","age":"No_age"},{"start_time":1549308919934,"click_time":1549308923604,"finger_time":1549308923243,"fix_duration":548.896119534687,"trial":7,"RT":3309,"MT":361,"sideResp":1,"stimulus":[],"xmouse":[414,414,414,414,414,414,414,414,414,414,414,414,414,414,414,414,414,414,414,414,414,414,414,414,414,414,414,414,414,414,414,414,414,414,414,414,414,414,414,414,414,414,414,414,414,414,414,414,414,414,414,414,414,414,414,414,414,414,414,414,414,414,414,414,414,414,414,414,414,414,414,414,414,414,414,414,414,414,414,414,414,414,414,414,414,414,414,414,414,414,414,414,414,414,414,414,414,414,414,414,414,414,414,414,414,414,414,414,414,414,414,414,414,414,414,414,414,414,414,414,414,414,414,414,414,414,414,414,414,414,414,414,414,414,414,414,414,414,414,414,414,414,414,414,414,414,414,414,414,414,414,414,414,414,414,414,414,414,414,414,414,414,415.3333435058594,420,432,437.3333435058594,445.3333435058594,450.66668701171875,450,447.3333435058594,439.3333435058594,430,423.3333435058594,400,378.66668701171875,368,342,311.3333435058594,264,248.66668701171875,218,185.33334350585938,168.6666717529297,120],"ymouse":[827,827,827,827,827,827,827,827,827,827,827,827,827,827,827,827,827,827,827,827,827,827,827,827,827,827,827,827,827,827,827,827,827,827,827,827,827,827,827,827,827,827,827,827,827,827,827,827,827,827,827,827,827,827,827,827,827,827,827,827,827,827,827,827,827,827,827,827,827,827,827,827,827,827,827,827,827,827,827,827,827,827,827,827,827,827,827,827,827,827,827,827,827,827,827,827,827,827,827,827,827,827,827,827,827,827,827,827,827,827,827,827,827,827,827,827,827,827,827,827,827,827,827,827,827,827,827,827,827,827,827,827,827,827,827,827,827,827,827,827,827,827,827,827,827,827,827,827,827,827,827,827,827,827,827,827,827,827,827,827,827,827,810.6666870117188,800,769.3333740234375,752,717.3333740234375,679.3333740234375,618,596,544.6666870117188,494.66668701171875,466,385.3333435058594,331.3333435058594,304.66668701171875,251.33334350585938,206.6666717529297,148.6666717529297,132,102.66667175292969,78,68.66667175292969,48],"timestamp_mouse":[9,29,49,69,89,109,129,149,169,189,209,229,249,269,289,309,329,349,369,389,409,429,449,469,489,509,529,549,569,589,610,629,649,669,689,709,729,749,769,789,809,829,849,869,889,909,929,949,969,989,1009,1029,1049,1069,1089,1109,1129,1149,1169,1189,1209,1229,1249,1269,1289,1309,1329,1349,1369,1389,1409,1429,1449,1469,1489,1509,1529,1549,1569,1589,1609,1629,1649,1668,1689,1709,1729,1749,1769,1789,1809,1829,1849,1869,1889,1909,1929,1949,1969,1989,2009,2029,2049,2069,2089,2109,2129,2149,2169,2189,2209,2229,2249,2269,2289,2309,2329,2349,2369,2389,2409,2429,2449,2469,2489,2509,2529,2549,2569,2589,2609,2629,2649,2670,2689,2709,2729,2749,2769,2789,2809,2829,2849,2869,2889,2909,2929,2949,2969,2989,3009,3029,3049,3069,3089,3109,3129,3149,3169,3189,3209,3229,3252,3269,3289,3309,3329,3349,3369,3389,3409,3429,3449,3469,3490,3509,3529,3549,3569,3589,3609,3629,3649,3670],"xSR":350,"ySR":768,"xT1":30,"yT1":0,"xT2":670,"yT2":0,"toosoon":0,"cond_shown":"Incongruent","ratio_trial":200,"L_num":4,"L_den":30,"R_num":1,"R_den":3,"correct_side":2,"subjID":"6","gender":"No_gender","school":"No_school","age":"No_age"},{"start_time":1549308926558,"click_time":1549308928843,"finger_time":1549308928483,"fix_duration":793.467438173564,"trial":8,"RT":1925,"MT":360,"sideResp":2,"stimulus":[],"xmouse":[417,417,417,417,417,417,417,417,417,417,417,417,417,417,417,417,417,417,417,417,417,417,417,417,417,417,417,417,417,402,402,401.3333435058594,401.3333435058594,401.3333435058594,401.3333435058594,401.3333435058594,401.3333435058594,401.3333435058594,401.3333435058594,401.3333435058594,401.3333435058594,400,400,400,400,400,400,400,400,400,400,399.3333435058594,399.3333435058594,399.3333435058594,399.3333435058594,399.3333435058594,399.3333435058594,399.3333435058594,399.3333435058594,399.3333435058594,399.3333435058594,398.66668701171875,398.66668701171875,398.66668701171875,398.66668701171875,398.66668701171875,398.66668701171875,398.66668701171875,398.66668701171875,398.66668701171875,398.66668701171875,398.66668701171875,398.66668701171875,398.66668701171875,398.66668701171875,398.66668701171875,398.66668701171875,398.66668701171875,398.66668701171875,398.66668701171875,398.66668701171875,398.66668701171875,398.66668701171875,398.66668701171875,398.66668701171875,398.66668701171875,398.66668701171875,398.66668701171875,398.66668701171875,398.66668701171875,398.66668701171875,399.3333435058594,399.3333435058594,399.3333435058594,399.3333435058594,399.3333435058594,442,442,508,517.3333740234375,538.6666870117188,548.6666870117188,569.3333740234375,591.3333740234375,599.3333740234375,605.3333740234375,619.3333740234375,626.6666870117188,642.6666870117188,668,684,691.3333740234375,704.6666870117188,710,714.6666870117188],"ymouse":[808,808,808,808,808,808,808,808,808,808,808,808,808,808,808,808,808,808,808,808,808,808,808,808,808,808,808,808,808,813.3333740234375,813.3333740234375,813.3333740234375,813.3333740234375,813.3333740234375,813.3333740234375,813.3333740234375,813.3333740234375,813.3333740234375,813.3333740234375,813.3333740234375,813.3333740234375,813.3333740234375,813.3333740234375,813.3333740234375,813.3333740234375,813.3333740234375,813.3333740234375,813.3333740234375,813.3333740234375,813.3333740234375,813.3333740234375,813.3333740234375,813.3333740234375,813.3333740234375,813.3333740234375,813.3333740234375,813.3333740234375,813.3333740234375,813.3333740234375,813.3333740234375,813.3333740234375,813.3333740234375,813.3333740234375,813.3333740234375,813.3333740234375,813.3333740234375,813.3333740234375,813.3333740234375,813.3333740234375,813.3333740234375,813.3333740234375,812.6666870117188,812.6666870117188,812.6666870117188,812.6666870117188,812.6666870117188,812.6666870117188,812.6666870117188,812.6666870117188,812.6666870117188,812.6666870117188,811.3333740234375,811.3333740234375,811.3333740234375,811.3333740234375,811.3333740234375,811.3333740234375,811.3333740234375,811.3333740234375,811.3333740234375,811.3333740234375,809.3333740234375,809.3333740234375,809.3333740234375,809.3333740234375,809.3333740234375,744,744,626,606.6666870117188,564.6666870117188,541.3333740234375,502,444,405.3333435058594,386,346.66668701171875,330,294.66668701171875,242,201.33334350585938,184.6666717529297,148,120.66667175292969,88.66667175292969],"timestamp_mouse":[5,30,45,65,85,105,125,145,165,185,205,225,245,265,285,305,325,345,365,385,405,425,444,465,485,505,525,545,565,585,605,625,645,665,685,705,725,745,765,785,805,825,845,865,885,905,925,945,965,985,1005,1025,1045,1064,1085,1105,1125,1145,1165,1184,1205,1225,1245,1265,1285,1305,1325,1345,1365,1385,1405,1425,1445,1465,1485,1505,1525,1545,1565,1585,1605,1625,1645,1665,1685,1705,1725,1745,1765,1785,1805,1825,1845,1865,1885,1905,1925,1945,1967,1986,2005,2025,2045,2067,2085,2105,2125,2145,2165,2185,2205,2225,2245,2265,2285],"xSR":350,"ySR":768,"xT1":30,"yT1":0,"xT2":670,"yT2":0,"toosoon":0,"cond_shown":"Incongruent","ratio_trial":300,"L_num":4,"L_den":5,"R_num":8,"R_den":16,"correct_side":1,"subjID":"6","gender":"No_gender","school":"No_school","age":"No_age"},{"start_time":1549308931587,"click_time":1549308933303,"finger_time":1549308933023,"fix_duration":463.2940100094287,"trial":9,"RT":1436,"MT":280,"sideResp":2,"stimulus":[],"xmouse":[405,405,405,405,405,405,405,405,405,405,405,405,405,405,405,405,405,405,405,405,405,405,405,405,405,405,405,405,405,405,405,405,405,405,405,405,405,405,405,405,405,405,405,405,405,405,405,405,405,405,405,405,405,405,405,405,405,405,405,405,405,405,405,405,405,405,405,405,405,418.66668701171875,432,442,466.66668701171875,512.6666870117188,528.6666870117188,564,599.3333740234375,616.6666870117188,660,683.3333740234375,696.6666870117188,703.3333740234375,710.6666870117188,716,718,720.6666870117188],"ymouse":[834,834,834,834,834,834,834,834,834,834,834,834,834,834,834,834,834,834,834,834,834,834,834,834,834,834,834,834,834,834,834,834,834,834,834,834,834,834,834,834,834,834,834,834,834,834,834,834,834,834,834,834,834,834,834,834,834,834,834,834,834,834,834,834,834,834,834,834,834,821.3333740234375,786,758.6666870117188,690.6666870117188,582,546,478.66668701171875,420,394,325.3333435058594,275.3333435058594,231.33334350585938,210,174,129.33334350585938,116.66667175292969,96.66667175292969],"timestamp_mouse":[16,36,56,76,96,116,136,163,176,196,216,236,256,276,296,316,337,356,376,396,416,436,456,476,496,516,536,556,576,596,616,636,656,676,696,716,736,756,782,796,816,836,856,876,896,916,936,956,976,996,1016,1036,1056,1076,1097,1116,1136,1156,1176,1196,1216,1236,1256,1276,1296,1315,1336,1357,1376,1396,1416,1436,1456,1477,1497,1516,1536,1556,1578,1596,1616,1636,1656,1677,1697,1716],"xSR":350,"ySR":768,"xT1":30,"yT1":0,"xT2":670,"yT2":0,"toosoon":0,"cond_shown":"Equal","ratio_trial":300,"L_num":3,"L_den":10,"R_num":3,"R_den":5,"correct_side":2,"subjID":"6","gender":"No_gender","school":"No_school","age":"No_age"},{"start_time":1549308935557,"click_time":1549308937483,"finger_time":1549308937085,"fix_duration":312.25726419259604,"trial":10,"RT":1528,"MT":398,"sideResp":1,"stimulus":[],"xmouse":[418,418,418,418,418,418,404,404,403.3333435058594,403.3333435058594,403.3333435058594,403.3333435058594,403.3333435058594,403.3333435058594,403.3333435058594,403.3333435058594,403.3333435058594,403.3333435058594,400,400,400,400,400,400,400,400,400,400,398.66668701171875,398.66668701171875,398.66668701171875,398.66668701171875,398.66668701171875,398.66668701171875,398.66668701171875,398.66668701171875,398.66668701171875,398.66668701171875,395.3333435058594,395.3333435058594,395.3333435058594,395.3333435058594,395.3333435058594,395.3333435058594,395.3333435058594,395.3333435058594,395.3333435058594,395.3333435058594,395.3333435058594,395.3333435058594,395.3333435058594,394.66668701171875,394.66668701171875,394.66668701171875,394.66668701171875,394.66668701171875,394.66668701171875,394.66668701171875,394,394,393.3333435058594,393.3333435058594,393.3333435058594,392.66668701171875,392.66668701171875,392.66668701171875,392.66668701171875,392,392,390.66668701171875,390,390,389.3333435058594,389.3333435058594,388.66668701171875,382,376,371.3333435058594,360,346.66668701171875,342.66668701171875,326,316,310.66668701171875,296.66668701171875,278.66668701171875,266,259.3333435058594,246.6666717529297,236.6666717529297,216.6666717529297,184,161.33334350585938,150,132.6666717529297,122.66667175292969],"ymouse":[813,813,813,813,813,813,821.3333740234375,821.3333740234375,822,822,822,822,822,822,822,822,822,822,827.3333740234375,827.3333740234375,827.3333740234375,827.3333740234375,827.3333740234375,827.3333740234375,827.3333740234375,827.3333740234375,827.3333740234375,827.3333740234375,827.3333740234375,827.3333740234375,827.3333740234375,827.3333740234375,827.3333740234375,827.3333740234375,827.3333740234375,827.3333740234375,827.3333740234375,827.3333740234375,829.3333740234375,829.3333740234375,829.3333740234375,829.3333740234375,829.3333740234375,829.3333740234375,828.6666870117188,828.6666870117188,828.6666870117188,828,828,828,827.3333740234375,827.3333740234375,826.6666870117188,826.6666870117188,826.6666870117188,826,826,826,825.3333740234375,825.3333740234375,824.6666870117188,824.6666870117188,824.6666870117188,824.6666870117188,824.6666870117188,824.6666870117188,824,824,823.3333740234375,822,820,818.6666870117188,815.3333740234375,810.6666870117188,783.3333740234375,732,703.3333740234375,689.3333740234375,660,630.6666870117188,616.6666870117188,567.3333740234375,528.6666870117188,508,466.66668701171875,397.3333435058594,350,326,278.66668701171875,256.66668701171875,216,162,136.6666717529297,124,104,93.33333587646484],"timestamp_mouse":[26,45,66,86,106,126,148,166,186,207,225,246,266,286,306,326,346,366,386,406,426,446,466,486,506,526,546,566,586,606,627,646,666,686,706,727,746,766,786,806,826,846,866,886,906,926,946,966,986,1006,1026,1046,1066,1086,1106,1126,1146,1166,1186,1206,1227,1246,1266,1286,1306,1326,1346,1366,1386,1406,1428,1446,1466,1486,1506,1528,1546,1566,1586,1606,1626,1646,1667,1686,1706,1728,1746,1766,1786,1806,1826,1848,1866,1886,1906,1926],"xSR":350,"ySR":768,"xT1":30,"yT1":0,"xT2":670,"yT2":0,"toosoon":0,"cond_shown":"Equal","ratio_trial":100,"L_num":6,"L_den":12,"R_num":6,"R_den":10,"correct_side":2,"subjID":"6","gender":"No_gender","school":"No_school","age":"No_age"},{"start_time":1549308944166,"click_time":1549308945946,"finger_time":1549308945463,"fix_duration":1058.7040762960837,"trial":11,"RT":1297,"MT":483,"sideResp":2,"stimulus":[],"xmouse":[417.3333435058594,417.3333435058594,418,418,418,418,418,418,418,418,418,418,418,420,420,420,420,420,420,420,420,420,420,420,420,420,420,420,420,420,420,420,420,420.66668701171875,420.66668701171875,420.66668701171875,420.66668701171875,420.66668701171875,420.66668701171875,420.66668701171875,420.66668701171875,420.66668701171875,420.66668701171875,420.66668701171875,420.66668701171875,420.66668701171875,420.66668701171875,420.66668701171875,420.66668701171875,420.66668701171875,420.66668701171875,420.66668701171875,420.66668701171875,420.66668701171875,420.66668701171875,420.66668701171875,420.66668701171875,420,420,420,420,420,419.3333435058594,418.66668701171875,424,430.66668701171875,440,448,452.66668701171875,467.3333435058594,481.3333435058594,500.66668701171875,500.66668701171875,517.3333740234375,546,554,570,584.6666870117188,591.3333740234375,606,617.3333740234375,626.6666870117188,630,638.6666870117188,652,655.3333740234375,663.3333740234375,669.3333740234375,677.3333740234375],"ymouse":[789.3333740234375,789.3333740234375,790,790,790.6666870117188,790.6666870117188,790.6666870117188,790.6666870117188,790.6666870117188,790.6666870117188,790.6666870117188,790.6666870117188,790.6666870117188,790.6666870117188,790.6666870117188,790.6666870117188,790.6666870117188,790.6666870117188,790.6666870117188,790.6666870117188,790.6666870117188,790.6666870117188,790.6666870117188,790,790,790,790,790,790,790,790,790,790,788.6666870117188,788.6666870117188,788.6666870117188,788.6666870117188,788.6666870117188,788.6666870117188,788,788,788,788,788,788,787.3333740234375,787.3333740234375,787.3333740234375,787.3333740234375,787.3333740234375,787.3333740234375,787.3333740234375,786.6666870117188,786,786,786,785.3333740234375,785.3333740234375,784.6666870117188,784,783.3333740234375,782,780.6666870117188,774.6666870117188,754,734.6666870117188,704.6666870117188,676.6666870117188,662,616.6666870117188,579.3333740234375,520.6666870117188,520.6666870117188,480,415.3333435058594,396,357.3333435058594,320.66668701171875,303.3333435058594,254,224.6666717529297,196.6666717529297,183.33334350585938,159.33334350585938,126.66667175292969,118,102,88,74],"timestamp_mouse":[17,39,57,77,97,117,137,157,177,197,217,237,257,278,297,317,337,357,377,397,416,437,457,478,497,517,537,557,577,597,617,637,657,678,697,717,737,757,777,797,817,837,857,877,897,917,937,957,977,997,1017,1037,1057,1078,1097,1117,1137,1157,1177,1197,1217,1237,1257,1279,1297,1317,1337,1357,1377,1397,1417,1449,1457,1477,1497,1517,1537,1557,1577,1597,1617,1637,1657,1677,1697,1717,1737,1757,1780],"xSR":350,"ySR":768,"xT1":30,"yT1":0,"xT2":670,"yT2":0,"toosoon":0,"cond_shown":"Equal","ratio_trial":200,"L_num":3,"L_den":10,"R_num":3,"R_den":6,"correct_side":2,"subjID":"6","gender":"No_gender","school":"No_school","age":"No_age"},{"start_time":1549308950514,"click_time":1549308951843,"finger_time":1549308951584,"fix_duration":1389.8044682166192,"trial":12,"RT":1070,"MT":259,"sideResp":2,"stimulus":[],"xmouse":[428,428,428,428,428,428,428,428,428,428,428,428,428,428,428,428,428,428,428,428,428,428,428,428,428,428,428,428,428,428,428,428,428,428,428,428,428,428,428,428,428,428,428,428,428,428,428,428,428,428,428,420.66668701171875,429.3333435058594,444.66668701171875,476,487.3333435058594,512,538,551.3333740234375,590,613.3333740234375,626,648.6666870117188,665.3333740234375,683.3333740234375,686,689.3333740234375],"ymouse":[806,806,806,806,806,806,806,806,806,806,806,806,806,806,806,806,806,806,806,806,806,806,806,806,806,806,806,806,806,806,806,806,806,806,806,806,806,806,806,806,806,806,806,806,806,806,806,806,806,806,806,798.6666870117188,778,732.6666870117188,649.3333740234375,620.6666870117188,562,499.3333740234375,467.3333435058594,374.66668701171875,313.3333435058594,282,229.33334350585938,184,131.33334350585938,118,96],"timestamp_mouse":[9,33,49,69,89,109,130,149,169,189,209,229,249,269,289,309,329,349,369,389,409,429,449,469,489,509,529,549,569,589,609,629,649,670,689,709,729,749,769,789,809,829,849,869,889,909,929,949,969,989,1009,1029,1049,1070,1089,1109,1129,1149,1169,1189,1209,1229,1249,1269,1289,1309,1329],"xSR":350,"ySR":768,"xT1":30,"yT1":0,"xT2":670,"yT2":0,"toosoon":0,"cond_shown":"Incongruent","ratio_trial":100,"L_num":2,"L_den":4,"R_num":6,"R_den":15,"correct_side":1,"subjID":"6","gender":"No_gender","school":"No_school","age":"No_age"},{"start_time":1549308957590,"click_time":1549308959464,"finger_time":1549308957983,"fix_duration":564.0791198286189,"trial":13,"RT":393,"MT":1481,"sideResp":1,"stimulus":[],"xmouse":[380,380,380.66668701171875,381.3333435058594,381.3333435058594,382,382,382.66668701171875,383.3333435058594,383.3333435058594,384,384.66668701171875,386,386,386.66668701171875,387.3333435058594,388,390.66668701171875,392.66668701171875,394.66668701171875,395.3333435058594,396.66668701171875,398,398.66668701171875,398.66668701171875,398.66668701171875,398.66668701171875,398.66668701171875,398.66668701171875,398.66668701171875,398.66668701171875,398.66668701171875,412.66668701171875,416,417.3333435058594,419.3333435058594,420.66668701171875,424,424.66668701171875,425.3333435058594,426,426.66668701171875,427.3333435058594,427.3333435058594,428,428,428,428.66668701171875,428.66668701171875,428.66668701171875,428.66668701171875,428.66668701171875,428.66668701171875,428.66668701171875,428.66668701171875,428.66668701171875,428.66668701171875,428.66668701171875,428.66668701171875,428.66668701171875,428.66668701171875,428,428,428,428,428,428,428,428,428,428,426,426,426,426,426,405.3333435058594,389.3333435058594,382.66668701171875,368.66668701171875,353.3333435058594,344,311.3333435058594,288.66668701171875,265.3333435058594,254,230,194.6666717529297,181.33334350585938,156,129.33334350585938,116.66667175292969,94,63.333335876464844],"ymouse":[800,799.3333740234375,799.3333740234375,798.6666870117188,798.6666870117188,798,798,797.3333740234375,796.6666870117188,796,794,792.6666870117188,788,786.6666870117188,782.6666870117188,779.3333740234375,777.3333740234375,771.3333740234375,768.6666870117188,766.6666870117188,766,765.3333740234375,766,766,766,766,766,766,766,766,766,766,786,790.6666870117188,792,796,797.3333740234375,802,803.3333740234375,805.3333740234375,806.6666870117188,808.6666870117188,810.6666870117188,812,812.6666870117188,813.3333740234375,814,814,814,814,814,814.6666870117188,814.6666870117188,814.6666870117188,814.6666870117188,814.6666870117188,814.6666870117188,814.6666870117188,814.6666870117188,814,814,814,814,814,814,814,814,814,814,814,814,808.6666870117188,808.6666870117188,808.6666870117188,808.6666870117188,808.6666870117188,756,699.3333740234375,679.3333740234375,638.6666870117188,596.6666870117188,575.3333740234375,509.3333740234375,464,411.3333435058594,385.3333435058594,332.66668701171875,257.3333435058594,233.33334350585938,190,153.33334350585938,138,108.66667175292969,79.33333587646484],"timestamp_mouse":[13,34,53,73,93,113,132,153,173,193,213,233,253,273,293,313,333,354,373,393,413,433,457,474,493,513,533,554,573,593,613,633,655,673,693,713,733,755,773,793,813,833,853,873,893,913,933,953,973,993,1013,1033,1053,1073,1093,1113,1133,1153,1173,1193,1213,1234,1253,1273,1293,1313,1333,1355,1373,1393,1413,1433,1453,1473,1493,1513,1533,1554,1573,1593,1613,1633,1655,1674,1693,1713,1733,1754,1773,1793,1813,1833,1853,1873],"xSR":350,"ySR":768,"xT1":30,"yT1":0,"xT2":670,"yT2":0,"toosoon":0,"cond_shown":"Incongruent","ratio_trial":500,"L_num":5,"L_den":6,"R_num":6,"R_den":18,"correct_side":1,"subjID":"6","gender":"No_gender","school":"No_school","age":"No_age"},{"start_time":1549308962036,"click_time":1549308963903,"finger_time":1549308963523,"fix_duration":430.83798542340156,"trial":14,"RT":1487,"MT":380,"sideResp":2,"stimulus":[],"xmouse":[412,412,412,412,412,412,412,412,412,412,412,412,412,412,412,412,412,412,412,412,412,412,412,412,412,412,412,412,412,412,412,412,412,412,412,412,412,412,412,412,412,412,412,412,412,412,412,412,412,412,412,412,412,412,412,412,412,412,412,412,412,412,412,412,412,412,412,412,412,412,412,422,425.3333435058594,437.3333435058594,454.66668701171875,462,476,492,503.3333435058594,509.3333435058594,521.3333740234375,529.3333740234375,559.3333740234375,568,582.6666870117188,592,606.6666870117188,632,650,656.6666870117188,668.6666870117188,679.3333740234375,682.6666870117188,688.6666870117188],"ymouse":[842,842,842,842,842,842,842,842,842,842,842,842,842,842,842,842,842,842,842,842,842,842,842,842,842,842,842,842,842,842,842,842,842,842,842,842,842,842,842,842,842,842,842,842,842,842,842,842,842,842,842,842,842,842,842,842,842,842,842,842,842,842,842,842,842,842,842,842,842,842,842,825.3333740234375,812,783.3333740234375,743.3333740234375,723.3333740234375,683.3333740234375,618,570.6666870117188,546.6666870117188,496.66668701171875,474.66668701171875,382,360,317.3333435058594,296,260,207.33334350585938,178,164.6666717529297,141.33334350585938,120.66667175292969,113.33334350585938,98],"timestamp_mouse":[8,28,47,67,87,107,127,147,167,188,207,227,247,267,287,307,327,347,367,387,407,427,447,467,487,507,527,547,567,587,607,627,647,667,687,707,727,747,767,787,807,827,847,867,887,907,927,947,967,987,1007,1027,1047,1067,1087,1107,1127,1147,1167,1187,1207,1227,1247,1267,1287,1307,1327,1347,1367,1387,1407,1427,1448,1467,1487,1507,1527,1547,1567,1587,1607,1627,1648,1667,1687,1707,1727,1748,1767,1787,1807,1827,1847,1866],"xSR":350,"ySR":768,"xT1":30,"yT1":0,"xT2":670,"yT2":0,"toosoon":0,"cond_shown":"Incongruent","ratio_trial":200,"L_num":7,"L_den":15,"R_num":4,"R_den":6,"correct_side":2,"subjID":"6","gender":"No_gender","school":"No_school","age":"No_age"},{"start_time":1549308966174,"click_time":1549308967623,"finger_time":1549308967403,"fix_duration":250,"trial":15,"RT":1229,"MT":220,"sideResp":2,"stimulus":[],"xmouse":[416.66668701171875,416.66668701171875,420,420.66668701171875,421.3333435058594,422,422.66668701171875,423.3333435058594,423.3333435058594,423.3333435058594,423.3333435058594,424,424,424,424,424.66668701171875,424.66668701171875,424,424,424,424,424,424,424,424,424,424,424,425.3333435058594,426,426,426,426,426,426,426,426.66668701171875,426.66668701171875,426.66668701171875,426.66668701171875,426.66668701171875,426.66668701171875,426.66668701171875,426.66668701171875,426.66668701171875,426.66668701171875,426,425.3333435058594,425.3333435058594,425.3333435058594,425.3333435058594,425.3333435058594,425.3333435058594,425.3333435058594,425.3333435058594,425.3333435058594,425.3333435058594,418.66668701171875,418.66668701171875,420,420,445.3333435058594,482,494.66668701171875,523.3333740234375,536.6666870117188,579.3333740234375,593.3333740234375,618.6666870117188,634,653.3333740234375,674.6666870117188,688],"ymouse":[841.3333740234375,841.3333740234375,840.6666870117188,840.6666870117188,840,839.3333740234375,838.6666870117188,838.6666870117188,838,837.3333740234375,837.3333740234375,837.3333740234375,837.3333740234375,837.3333740234375,837.3333740234375,837.3333740234375,837.3333740234375,837.3333740234375,837.3333740234375,838,838,838,838,838,838,838,838,838,836,836,835.3333740234375,835.3333740234375,834.6666870117188,834.6666870117188,834.6666870117188,834,834,834,833.3333740234375,833.3333740234375,833.3333740234375,833.3333740234375,833.3333740234375,833.3333740234375,833.3333740234375,833.3333740234375,832.6666870117188,832.6666870117188,832.6666870117188,832.6666870117188,832.6666870117188,832.6666870117188,832.6666870117188,832.6666870117188,832.6666870117188,832.6666870117188,832.6666870117188,827.3333740234375,827.3333740234375,786.6666870117188,786.6666870117188,652,552,517.3333740234375,450,418,311.3333435058594,281.3333435058594,227.33334350585938,200.6666717529297,158,104,75.33333587646484],"timestamp_mouse":[28,29,49,69,89,110,129,149,169,189,209,229,249,269,289,309,329,349,369,389,409,429,449,469,489,509,529,550,569,589,609,629,649,669,689,709,731,749,769,789,810,829,849,869,889,909,929,950,969,989,1009,1030,1049,1069,1089,1109,1129,1149,1169,1189,1209,1229,1249,1269,1289,1309,1331,1349,1370,1389,1409,1430,1449],"xSR":350,"ySR":768,"xT1":30,"yT1":0,"xT2":670,"yT2":0,"toosoon":0,"cond_shown":"Incongruent","ratio_trial":200,"L_num":6,"L_den":20,"R_num":3,"R_den":6,"correct_side":2,"subjID":"6","gender":"No_gender","school":"No_school","age":"No_age"},{"start_time":1549308970061,"click_time":1549308971483,"finger_time":1549308971142,"fix_duration":537.3166265373727,"trial":16,"RT":1081,"MT":341,"sideResp":1,"stimulus":[],"xmouse":[400,400,400,400,400,400,400,400,400,400,400,400,400,400,400,400,400,400,400,400,400,400,400,400,400,400,400,400,400,400,400,400,400,400,400,400,400,400,400,400,400,400,400,400,400,400,400,400,400,400,400,400,400,402,406.66668701171875,406.66668701171875,416.66668701171875,420.66668701171875,420.66668701171875,404.66668701171875,389.3333435058594,381.3333435058594,363.3333435058594,352,306.66668701171875,292.66668701171875,262.66668701171875,246.6666717529297,214.6666717529297,166.6666717529297,137.33334350585938,123.33334350585938],"ymouse":[833,833,833,833,833,833,833,833,833,833,833,833,833,833,833,833,833,833,833,833,833,833,833,833,833,833,833,833,833,833,833,833,833,833,833,833,833,833,833,833,833,833,833,833,833,833,833,833,833,833,833,833,833,799.3333740234375,749.3333740234375,749.3333740234375,644,609.3333740234375,542,462,410,388,332.66668701171875,302.66668701171875,203.33334350585938,182,144,130,105.33333587646484,76,61.333335876464844,52],"timestamp_mouse":[2,23,42,62,82,103,126,142,161,182,202,222,242,262,282,302,322,342,362,382,402,422,442,462,482,502,522,542,562,582,602,622,642,662,682,702,722,742,762,782,802,822,843,862,882,902,922,942,962,982,1002,1022,1042,1063,1081,1102,1122,1142,1162,1182,1202,1222,1242,1262,1282,1302,1322,1342,1362,1384,1401,1422],"xSR":350,"ySR":768,"xT1":30,"yT1":0,"xT2":670,"yT2":0,"toosoon":0,"cond_shown":"Congruent","ratio_trial":300,"L_num":24,"L_den":30,"R_num":8,"R_den":16,"correct_side":1,"subjID":"6","gender":"No_gender","school":"No_school","age":"No_age"},{"start_time":1549308973626,"click_time":1549308976043,"finger_time":1549308975864,"fix_duration":341.5512206168043,"trial":17,"RT":2238,"MT":179,"sideResp":2,"stimulus":[],"xmouse":[409,409,409,409,409,409,409,409,409,409,409,409,409,409,409,409,409,409,409,409,409,409,409,409,409,409,409,409,409,409,409,409,409,409,409,409,409,409,409,409,409,409,409,409,409,409,409,409,409,409,409,409,409,409,409,409,409,409,409,409,409,409,409,409,409,409,409,409,409,409,409,409,409,409,409,409,409,409,409,409,409,409,409,409,409,409,409,409,409,409,409,409,409,409,409,409,409,409,409,409,409,409,409,409,409,409,409,409,408,411.3333435058594,411.3333435058594,451.3333435058594,467.3333435058594,501.3333435058594,521.3333740234375,564,627.3333740234375,667.3333740234375,686,717.3333740234375,741.3333740234375],"ymouse":[828,828,828,828,828,828,828,828,828,828,828,828,828,828,828,828,828,828,828,828,828,828,828,828,828,828,828,828,828,828,828,828,828,828,828,828,828,828,828,828,828,828,828,828,828,828,828,828,828,828,828,828,828,828,828,828,828,828,828,828,828,828,828,828,828,828,828,828,828,828,828,828,828,828,828,828,828,828,828,828,828,828,828,828,828,828,828,828,828,828,828,828,828,828,828,828,828,828,828,828,828,828,828,828,828,828,828,828,810,794.6666870117188,794.6666870117188,619.3333740234375,581.3333740234375,500.66668701171875,460,382.66668701171875,278,218,188,138,97.33333587646484],"timestamp_mouse":[17,37,58,77,97,121,137,157,177,197,218,237,257,277,297,317,338,357,377,397,417,437,457,477,497,517,537,558,577,597,617,637,657,677,697,717,737,757,777,797,818,837,857,877,897,917,937,958,977,997,1017,1037,1057,1077,1097,1117,1137,1157,1177,1197,1217,1237,1257,1277,1297,1317,1337,1357,1377,1397,1418,1437,1457,1477,1497,1517,1537,1557,1577,1597,1617,1637,1657,1677,1697,1717,1737,1757,1777,1797,1817,1837,1857,1877,1897,1917,1937,1957,1977,1997,2017,2037,2057,2077,2097,2117,2137,2157,2177,2197,2217,2238,2257,2277,2297,2317,2339,2357,2377,2397,2417],"xSR":350,"ySR":768,"xT1":30,"yT1":0,"xT2":670,"yT2":0,"toosoon":0,"cond_shown":"Equal","ratio_trial":200,"L_num":3,"L_den":10,"R_num":3,"R_den":6,"correct_side":2,"subjID":"6","gender":"No_gender","school":"No_school","age":"No_age"},{"start_time":1549308978799,"click_time":1549308980684,"finger_time":1549308980423,"fix_duration":814.1288975885767,"trial":18,"RT":1624,"MT":261,"sideResp":2,"stimulus":[],"xmouse":[426,426,426,426,426,426,426,426,426,426,426,426,426,426,426,426,426,426,426,426,426,426,426,426,426,426,426,426,426,426,426,426,426,426,426,426,426,426,426,426,426,426,426,426,426,426,426,426,426,426,426,426,426,426,426,426,426,426,426,426,426,426,426,426,426,426,426,426,426,426,426,426,426,426,426,426,426,426,426,426.66668701171875,429.3333435058594,438.66668701171875,460,474.66668701171875,510,574,615.3333740234375,632,663.3333740234375,674,710.6666870117188,713.3333740234375,726,734,742],"ymouse":[820,820,820,820,820,820,820,820,820,820,820,820,820,820,820,820,820,820,820,820,820,820,820,820,820,820,820,820,820,820,820,820,820,820,820,820,820,820,820,820,820,820,820,820,820,820,820,820,820,820,820,820,820,820,820,820,820,820,820,820,820,820,820,820,820,820,820,820,820,820,820,820,820,820,820,820,820,820,820,800.6666870117188,787.3333740234375,743.3333740234375,684,652,582,478,414,381.3333435058594,328,306.66668701171875,210.6666717529297,189.33334350585938,148.6666717529297,129.33334350585938,95.33333587646484],"timestamp_mouse":[4,36,44,64,84,104,124,144,164,184,204,224,245,264,284,304,324,344,364,385,404,424,444,464,484,504,524,544,564,584,604,625,644,664,684,704,724,745,764,784,804,824,844,864,884,904,924,944,964,984,1004,1025,1044,1064,1084,1104,1124,1144,1164,1184,1204,1224,1244,1264,1284,1304,1324,1344,1364,1384,1403,1424,1444,1464,1484,1504,1524,1544,1564,1584,1606,1624,1645,1664,1685,1704,1724,1744,1764,1784,1805,1824,1844,1864,1884],"xSR":350,"ySR":768,"xT1":30,"yT1":0,"xT2":670,"yT2":0,"toosoon":0,"cond_shown":"Equal","ratio_trial":300,"L_num":18,"L_den":30,"R_num":18,"R_den":20,"correct_side":2,"subjID":"6","gender":"No_gender","school":"No_school","age":"No_age"},{"start_time":1549308984072,"click_time":1549308985903,"finger_time":1549308985503,"fix_duration":1444.7532267967845,"trial":19,"RT":1431,"MT":400,"sideResp":2,"stimulus":[],"xmouse":[404,404,404,404,404,404,404,404,404,404,404,404,404,404,404,404,404,404,404,404,404,404,404,404,404,404,404,404,404,404,404,404,404,404,404,404,404,404,404,404,404,404,404,404,404,404,404,404,404,404,404,404,404,404,404,404,404,404,404,404,404,404,404,404,404,404,404,404,404.66668701171875,410,415.3333435058594,431.3333435058594,441.3333435058594,480.66668701171875,491.3333435058594,511.3333740234375,522.6666870117188,546.6666870117188,588.6666870117188,613.3333740234375,625.3333740234375,648,663.3333740234375,682.6666870117188,685.3333740234375,690.6666870117188,696,697.3333740234375,699.3333740234375,698.6666870117188,698.6666870117188,698],"ymouse":[824,824,824,824,824,824,824,824,824,824,824,824,824,824,824,824,824,824,824,824,824,824,824,824,824,824,824,824,824,824,824,824,824,824,824,824,824,824,824,824,824,824,824,824,824,824,824,824,824,824,824,824,824,824,824,824,824,824,824,824,824,824,824,824,824,824,824,824,808,796.6666870117188,785.3333740234375,752.6666870117188,733.3333740234375,660,639.3333740234375,598.6666870117188,577.3333740234375,530,454,407.3333435058594,384.66668701171875,339.3333435058594,303.3333435058594,255.33334350585938,240.66668701171875,212.6666717529297,187.33334350585938,175.33334350585938,140,124,105.33333587646484,98.66667175292969],"timestamp_mouse":[11,36,51,71,91,112,131,151,171,191,211,231,252,271,291,311,331,351,371,391,411,431,451,471,491,511,531,551,571,591,611,631,651,671,691,711,731,751,771,791,811,831,851,871,891,911,931,951,971,991,1011,1031,1051,1071,1091,1112,1131,1151,1171,1191,1211,1231,1251,1289,1291,1311,1331,1351,1370,1391,1411,1431,1451,1471,1491,1511,1531,1551,1571,1591,1611,1631,1651,1671,1691,1710,1730,1751,1772,1791,1811,1830],"xSR":350,"ySR":768,"xT1":30,"yT1":0,"xT2":670,"yT2":0,"toosoon":0,"cond_shown":"Congruent","ratio_trial":300,"L_num":1,"L_den":3,"R_num":19,"R_den":30,"correct_side":2,"subjID":"6","gender":"No_gender","school":"No_school","age":"No_age"},{"start_time":1549308988155,"click_time":1549308989743,"finger_time":1549308989343,"fix_duration":431.3695006920333,"trial":20,"RT":1188,"MT":400,"sideResp":1,"stimulus":[],"xmouse":[420,420,420,420,420,420,420,420,420,420,420,420,420,420,420,420,420,420,420,420,420,420,420,420,420,420,420,420,420,420,420,420,420,420,420,420,420,420,420,420,420,420,420,420,420,420,420,420,420,420,420,420,420,420,420,408,408,408,405.3333435058594,402.66668701171875,399.3333435058594,394.66668701171875,391.3333435058594,380,375.3333435058594,353.3333435058594,346,333.3333435058594,323.3333435058594,312,287.3333435058594,271.3333435058594,260.66668701171875,240.6666717529297,216,181.33334350585938,171.33334350585938,150.6666717529297,140.6666717529297,120.66667175292969],"ymouse":[842,842,842,842,842,842,842,842,842,842,842,842,842,842,842,842,842,842,842,842,842,842,842,842,842,842,842,842,842,842,842,842,842,842,842,842,842,842,842,842,842,842,842,842,842,842,842,842,842,842,842,842,842,842,842,830,824,824,788,750.6666870117188,700,662.6666870117188,642.6666870117188,598.6666870117188,579.3333740234375,494.66668701171875,475.3333435058594,430.66668701171875,404.66668701171875,352.66668701171875,273.3333435058594,230,211.33334350585938,176.6666717529297,144.6666717529297,110,99.33333587646484,85.33333587646484,76.66667175292969,64.66667175292969],"timestamp_mouse":[9,42,48,68,88,108,128,148,168,188,208,228,248,268,289,308,328,348,368,388,408,428,448,468,488,508,528,548,568,588,608,628,648,668,688,708,728,748,768,788,808,828,848,868,888,908,928,948,968,988,1008,1028,1048,1068,1088,1109,1128,1148,1168,1188,1208,1228,1248,1268,1288,1310,1328,1348,1368,1388,1409,1428,1448,1468,1488,1510,1528,1548,1568,1588],"xSR":350,"ySR":768,"xT1":30,"yT1":0,"xT2":670,"yT2":0,"toosoon":0,"cond_shown":"Incongruent","ratio_trial":300,"L_num":8,"L_den":10,"R_num":14,"R_den":28,"correct_side":1,"subjID":"6","gender":"No_gender","school":"No_school","age":"No_age"},{"start_time":1549308992588,"click_time":1549308994243,"finger_time":1549308993943,"fix_duration":1083.5104167098452,"trial":21,"RT":1355,"MT":300,"sideResp":2,"stimulus":[],"xmouse":[404,404,404,404,404,404,404,404,404,404,404,404,404,404,404,404,404,404,404,404,404,404,404,404,404,404,404,404,404,404,404,404,404,404,404,404,404,404,404,404,404,404,404,404,404,404,404,404,404,404,404,404,404,404,404,404,404,404,404,404,404,404,404,404,404,406.66668701171875,410,420,424.66668701171875,437.3333435058594,468,495.3333435058594,510,510,572,618.6666870117188,637.3333740234375,669.3333740234375,694,706,727.3333740234375,739.3333740234375,744.6666870117188],"ymouse":[823,823,823,823,823,823,823,823,823,823,823,823,823,823,823,823,823,823,823,823,823,823,823,823,823,823,823,823,823,823,823,823,823,823,823,823,823,823,823,823,823,823,823,823,823,823,823,823,823,823,823,823,823,823,823,823,823,823,823,823,823,823,823,823,823,804,788.6666870117188,746.6666870117188,723.3333740234375,677.3333740234375,600,548,520.6666870117188,520.6666870117188,421.3333435058594,347.3333435058594,318.66668701171875,266.66668701171875,223.33334350585938,203.33334350585938,151.33334350585938,121.33334350585938,99.33333587646484],"timestamp_mouse":[28,35,55,75,95,115,135,155,175,195,215,235,255,275,295,315,335,355,374,395,415,435,455,475,495,515,535,555,575,595,615,635,655,675,695,715,735,755,775,795,815,835,855,875,895,915,935,955,975,995,1015,1035,1055,1075,1095,1115,1135,1155,1175,1195,1215,1235,1255,1275,1295,1316,1335,1355,1375,1395,1415,1435,1457,1476,1495,1515,1535,1555,1574,1595,1615,1635,1654],"xSR":350,"ySR":768,"xT1":30,"yT1":0,"xT2":670,"yT2":0,"toosoon":0,"cond_shown":"Incongruent","ratio_trial":100,"L_num":12,"L_den":24,"R_num":9,"R_den":15,"correct_side":2,"subjID":"6","gender":"No_gender","school":"No_school","age":"No_age"},{"start_time":1549308997890,"click_time":1549308999444,"finger_time":1549308999083,"fix_duration":1485.9367243260824,"trial":22,"RT":1193,"MT":361,"sideResp":1,"stimulus":[],"xmouse":[418,418,418,418,418,418,418,418,418,418,418,418,418,418,418,418,418,418,418,418,418,418,418,418,418,418,418,418,418,418,418,418,418,418,418,418,418,418,418,418,418,418,418,418,418,418,418,418,418,418,418,418,418,418,418,418,418,416.66668701171875,416,410,406,400.66668701171875,390,377.3333435058594,372.66668701171875,356.66668701171875,348,302.66668701171875,290.66668701171875,267.3333435058594,254.66668701171875,230.6666717529297,196.6666717529297,175.33334350585938,164.6666717529297,145.33334350585938,136.6666717529297,112.66667175292969],"ymouse":[821,821,821,821,821,821,821,821,821,821,821,821,821,821,821,821,821,821,821,821,821,821,821,821,821,821,821,821,821,821,821,821,821,821,821,821,821,821,821,821,821,821,821,821,821,821,821,821,821,821,821,821,821,821,821,821,821,796.6666870117188,780.6666870117188,736,710.6666870117188,662,585.3333740234375,532,506.66668701171875,462,444.66668701171875,362.66668701171875,341.3333435058594,302.66668701171875,282,246.66668701171875,195.33334350585938,168.6666717529297,154.6666717529297,130.6666717529297,118.66667175292969,76],"timestamp_mouse":[13,33,53,73,93,113,133,153,173,193,213,233,253,273,293,313,333,353,373,393,413,432,453,473,493,513,533,553,573,593,613,633,653,673,693,713,733,753,773,793,813,833,853,873,893,913,933,953,973,993,1013,1033,1053,1073,1093,1113,1133,1153,1174,1193,1213,1233,1253,1273,1293,1313,1333,1353,1373,1393,1413,1434,1453,1473,1493,1513,1533,1554],"xSR":350,"ySR":768,"xT1":30,"yT1":0,"xT2":670,"yT2":0,"toosoon":0,"cond_shown":"Incongruent","ratio_trial":500,"L_num":2,"L_den":3,"R_num":4,"R_den":24,"correct_side":1,"subjID":"6","gender":"No_gender","school":"No_school","age":"No_age"},{"start_time":1549309001595,"click_time":1549309003464,"finger_time":1549309003243,"fix_duration":250,"trial":23,"RT":1648,"MT":221,"sideResp":2,"stimulus":[],"xmouse":[431,431,431,431,431,431,431,431,431,431,431,431,431,431,431,431,431,431,431,431,431,431,431,431,431,431,431,431,431,431,431,431,431,431,431,431,431,431,431,431,431,431,431,431,431,431,431,431,431,431,431,431,431,431,431,431,431,431,431,431,431,431,431,431,431,431,431,431,431,431,431,431,431,431,431,431,431,431,431,431,431,424,427.3333435058594,452,466,501.3333435058594,538.6666870117188,557.3333740234375,619.3333740234375,653.3333740234375,682.6666870117188,693.3333740234375,712.6666870117188,728],"ymouse":[823,823,823,823,823,823,823,823,823,823,823,823,823,823,823,823,823,823,823,823,823,823,823,823,823,823,823,823,823,823,823,823,823,823,823,823,823,823,823,823,823,823,823,823,823,823,823,823,823,823,823,823,823,823,823,823,823,823,823,823,823,823,823,823,823,823,823,823,823,823,823,823,823,823,823,823,823,823,823,823,823,808,761.3333740234375,647.3333740234375,610,530,454,418,312.66668701171875,252,198,176,133.33334350585938,87.33333587646484],"timestamp_mouse":[8,28,48,68,88,108,128,148,168,188,208,229,248,268,288,308,328,348,368,388,408,428,448,468,488,508,528,548,568,589,608,628,648,668,688,708,728,748,768,788,808,828,848,868,888,908,928,948,968,988,1008,1028,1048,1068,1088,1108,1128,1148,1168,1188,1208,1228,1249,1268,1288,1308,1328,1348,1368,1388,1408,1428,1448,1468,1488,1509,1528,1548,1568,1588,1608,1628,1648,1668,1688,1708,1727,1748,1769,1788,1808,1828,1848,1869],"xSR":350,"ySR":768,"xT1":30,"yT1":0,"xT2":670,"yT2":0,"toosoon":0,"cond_shown":"Equal","ratio_trial":100,"L_num":6,"L_den":12,"R_num":6,"R_den":10,"correct_side":2,"subjID":"6","gender":"No_gender","school":"No_school","age":"No_age"},{"start_time":1549309005575,"click_time":1549309007344,"finger_time":1549309006984,"fix_duration":250,"trial":24,"RT":1409,"MT":360,"sideResp":1,"stimulus":[],"xmouse":[432,432,430,430,430,428.66668701171875,428.66668701171875,428,428,428,428,428,427.3333435058594,427.3333435058594,427.3333435058594,426.66668701171875,426,426,426,425.3333435058594,425.3333435058594,425.3333435058594,425.3333435058594,424.66668701171875,424.66668701171875,424,424,424,424,423.3333435058594,423.3333435058594,423.3333435058594,423.3333435058594,423.3333435058594,423.3333435058594,422.66668701171875,422.66668701171875,422.66668701171875,422.66668701171875,422.66668701171875,422.66668701171875,422.66668701171875,422.66668701171875,422.66668701171875,422.66668701171875,422.66668701171875,422.66668701171875,422.66668701171875,422.66668701171875,422.66668701171875,422.66668701171875,422,422,422,422,422,422,422,422,421.3333435058594,421.3333435058594,421.3333435058594,421.3333435058594,421.3333435058594,421.3333435058594,421.3333435058594,420.66668701171875,419.3333435058594,414,410.66668701171875,392,384,368.66668701171875,364,354.66668701171875,340.66668701171875,324,313.3333435058594,290.66668701171875,281.3333435058594,246.6666717529297,236.6666717529297,215.33334350585938,204.6666717529297,181.33334350585938,147.33334350585938,128.6666717529297,120,107.33333587646484],"ymouse":[836,836,834.6666870117188,834.6666870117188,834.6666870117188,834,834,834,834.6666870117188,834.6666870117188,834.6666870117188,834.6666870117188,833.3333740234375,833.3333740234375,833.3333740234375,833.3333740234375,832.6666870117188,832.6666870117188,832.6666870117188,832.6666870117188,832,832,832,832,832,832,832,831.3333740234375,831.3333740234375,831.3333740234375,831.3333740234375,831.3333740234375,831.3333740234375,830.6666870117188,830.6666870117188,830.6666870117188,830.6666870117188,830.6666870117188,830,830,830,830,830,830,830,829.3333740234375,829.3333740234375,829.3333740234375,829.3333740234375,829.3333740234375,829.3333740234375,829.3333740234375,829.3333740234375,829.3333740234375,829.3333740234375,829.3333740234375,829.3333740234375,829.3333740234375,829.3333740234375,829.3333740234375,829.3333740234375,829.3333740234375,829.3333740234375,828.6666870117188,828.6666870117188,826.6666870117188,822,816.6666870117188,802,794,755.3333740234375,739.3333740234375,702.6666870117188,682.6666870117188,639.3333740234375,566.6666870117188,520.6666870117188,500,452.66668701171875,432,328,302,252,231.33334350585938,192,144.6666717529297,118,106,88],"timestamp_mouse":[27,28,49,68,88,108,128,148,168,187,208,228,248,268,288,308,328,348,368,388,408,428,448,468,488,508,528,548,568,588,608,628,648,668,688,708,728,747,768,788,808,828,848,868,888,908,928,948,968,988,1008,1028,1048,1068,1088,1108,1128,1148,1168,1187,1208,1228,1248,1268,1288,1308,1328,1348,1368,1388,1409,1429,1448,1468,1488,1509,1527,1548,1568,1588,1610,1628,1648,1668,1688,1709,1728,1749,1768],"xSR":350,"ySR":768,"xT1":30,"yT1":0,"xT2":670,"yT2":0,"toosoon":0,"cond_shown":"Incongruent","ratio_trial":300,"L_num":3,"L_den":6,"R_num":4,"R_den":20,"correct_side":1,"subjID":"6","gender":"No_gender","school":"No_school","age":"No_age"},{"start_time":1549309009620,"click_time":1549309011343,"finger_time":1549309011043,"fix_duration":495.7633646911325,"trial":25,"RT":1423,"MT":300,"sideResp":1,"stimulus":[],"xmouse":[400,400,400,400,400,400,400,400,400,400,400,400,400,400,400,400,400,400,400,400,400,400,400,400,400,400,400,400,400,400,400,400,400,400,400,400,400,400,400,400,400,400,400,400,400,400,400,400,400,400,400,400,400,400,400,400,400,400,400,400,400,400,400,400,400,400,400,400,400,400,400,400,404.66668701171875,410.66668701171875,421.3333435058594,418,402,394,366.66668701171875,350,272,254,214,197.33334350585938,163.33334350585938,118.66667175292969,93.33333587646484],"ymouse":[810,810,810,810,810,810,810,810,810,810,810,810,810,810,810,810,810,810,810,810,810,810,810,810,810,810,810,810,810,810,810,810,810,810,810,810,810,810,810,810,810,810,810,810,810,810,810,810,810,810,810,810,810,810,810,810,810,810,810,810,810,810,810,810,810,810,810,810,810,810,782.6666870117188,764,725.3333740234375,706.6666870117188,661.3333740234375,560,477.3333435058594,434.66668701171875,378.66668701171875,350.66668701171875,264.66668701171875,245.33334350585938,204.6666717529297,185.33334350585938,150.6666717529297,112,90.66667175292969],"timestamp_mouse":[3,30,43,63,83,103,123,143,163,183,203,223,243,263,283,303,323,343,363,383,402,423,443,463,483,503,523,543,564,583,603,624,643,663,683,703,723,743,763,783,803,823,843,863,883,903,923,943,963,983,1003,1023,1043,1063,1083,1103,1123,1143,1163,1183,1203,1223,1243,1263,1283,1303,1323,1343,1363,1383,1405,1423,1443,1463,1483,1502,1523,1543,1564,1583,1604,1623,1643,1663,1683,1703,1723],"xSR":350,"ySR":768,"xT1":30,"yT1":0,"xT2":670,"yT2":0,"toosoon":0,"cond_shown":"Incongruent","ratio_trial":300,"L_num":1,"L_den":2,"R_num":2,"R_den":10,"correct_side":1,"subjID":"6","gender":"No_gender","school":"No_school","age":"No_age"},{"start_time":1549309013862,"click_time":1549309015224,"finger_time":1549309014963,"fix_duration":277.7149558981297,"trial":26,"RT":1101,"MT":261,"sideResp":2,"stimulus":[],"xmouse":[411,411,411,411,411,411,411,411,411,411,411,411,411,411,411,411,411,411,411,411,411,411,411,411,411,411,411,411,411,411,411,411,411,411,411,411,411,411,411,411,411,411,411,411,411,411,411,411,411,411,411,411,411,411,412.66668701171875,418.66668701171875,423.3333435058594,442,475.3333435058594,534,554.6666870117188,588.6666870117188,616,626.6666870117188,652.6666870117188,664,670.6666870117188,682.6666870117188,688.6666870117188],"ymouse":[811,811,811,811,811,811,811,811,811,811,811,811,811,811,811,811,811,811,811,811,811,811,811,811,811,811,811,811,811,811,811,811,811,811,811,811,811,811,811,811,811,811,811,811,811,811,811,811,811,811,811,811,811,811,784,730,690.6666870117188,602,520,412.66668701171875,381.3333435058594,322.66668701171875,273.3333435058594,252,192.6666717529297,158.6666717529297,140,108.66667175292969,84.66667175292969],"timestamp_mouse":[1,29,41,61,81,101,121,141,161,181,201,221,241,261,281,301,321,341,361,381,401,421,441,461,481,501,521,541,561,581,601,621,641,661,681,701,721,741,761,781,801,822,841,861,881,901,921,941,961,981,1001,1021,1041,1061,1082,1101,1121,1141,1161,1182,1201,1220,1241,1261,1283,1301,1321,1341,1361],"xSR":350,"ySR":768,"xT1":30,"yT1":0,"xT2":670,"yT2":0,"toosoon":0,"cond_shown":"Equal","ratio_trial":500,"L_num":6,"L_den":24,"R_num":6,"R_den":8,"correct_side":2,"subjID":"6","gender":"No_gender","school":"No_school","age":"No_age"},{"start_time":1549309017215,"click_time":1549309019203,"finger_time":1549309018903,"fix_duration":250,"trial":27,"RT":1688,"MT":300,"sideResp":2,"stimulus":[],"xmouse":[405,405,405,405,405,405,405,405,405,405,405,405,405,405,405,405,405,405,405,405,405,405,405,405,405,405,405,405,405,405,405,405,405,405,405,405,405,405,405,405,405,405,405,405,405,405,405,405,405,405,405,405,405,405,405,405,405,405,405,405,405,405,405,405,405,405,405,405,405,405,405,405,405,405,405,405,405,405,405,405,405,405,401.3333435058594,410.66668701171875,418.66668701171875,435.3333435058594,456.66668701171875,466.66668701171875,500.66668701171875,526,540,570,600,640,652,667.3333740234375,677.3333740234375,681.3333740234375,687.3333740234375,690.6666870117188],"ymouse":[847,847,847,847,847,847,847,847,847,847,847,847,847,847,847,847,847,847,847,847,847,847,847,847,847,847,847,847,847,847,847,847,847,847,847,847,847,847,847,847,847,847,847,847,847,847,847,847,847,847,847,847,847,847,847,847,847,847,847,847,847,847,847,847,847,847,847,847,847,847,847,847,847,847,847,847,847,847,847,847,847,847,826.6666870117188,790.6666870117188,766,708.6666870117188,646,612,512,453.3333435058594,425.3333435058594,371.3333435058594,320,250,229.33334350585938,192,159.33334350585938,144.6666717529297,104.66667175292969,80.66667175292969],"timestamp_mouse":[10,30,48,68,88,108,129,148,168,188,208,228,248,268,288,308,328,348,368,388,408,428,448,468,488,508,528,548,568,588,608,628,648,668,688,708,728,748,768,788,808,828,848,868,888,908,928,948,968,988,1008,1028,1048,1068,1088,1108,1128,1148,1168,1188,1208,1227,1248,1268,1288,1308,1328,1348,1368,1388,1408,1428,1448,1468,1488,1508,1528,1548,1568,1589,1608,1628,1649,1668,1688,1708,1727,1748,1768,1788,1808,1828,1848,1868,1888,1908,1928,1948,1969,1988],"xSR":350,"ySR":768,"xT1":30,"yT1":0,"xT2":670,"yT2":0,"toosoon":0,"cond_shown":"Congruent","ratio_trial":100,"L_num":12,"L_den":30,"R_num":13,"R_den":26,"correct_side":2,"subjID":"6","gender":"No_gender","school":"No_school","age":"No_age"},{"start_time":1549309021810,"click_time":1549309023006,"finger_time":1549309022623,"fix_duration":686.6852933394503,"trial":28,"RT":813,"MT":383,"sideResp":1,"stimulus":[],"xmouse":[405,405,405,405,405,405,405,405,405,405,405,405,405,405,405,405,405,405,405,405,405,405,405,405,405,405,405,405,405,405,405,405,405,405,405,405,405,405,395.3333435058594,378.66668701171875,371.3333435058594,356.66668701171875,348,333.3333435058594,309.3333435058594,293.3333435058594,288,278,272.66668701171875,252.6666717529297,246.6666717529297,232.6666717529297,226,209.33334350585938,181.33334350585938,164,148.6666717529297,141.33334350585938,135.33334350585938,113.33333587646484],"ymouse":[829,829,829,829,829,829,829,829,829,829,829,829,829,829,829,829,829,829,829,829,829,829,829,829,829,829,829,829,829,829,829,829,829,829,829,829,829,829,808,775.3333740234375,754.6666870117188,712.6666870117188,692.6666870117188,656,600.6666870117188,561.3333740234375,540.6666870117188,500.66668701171875,478.66668701171875,389.3333435058594,367.3333435058594,326.66668701171875,306,268,214,180.6666717529297,148.6666717529297,134.6666717529297,120.66667175292969,74],"timestamp_mouse":[13,39,53,73,93,113,133,153,173,193,213,233,253,273,293,313,333,353,374,393,413,433,453,473,493,513,533,553,573,593,613,633,653,673,693,713,733,753,772,794,813,833,853,874,893,913,933,953,973,993,1013,1033,1053,1073,1094,1113,1133,1153,1174,1196],"xSR":350,"ySR":768,"xT1":30,"yT1":0,"xT2":670,"yT2":0,"toosoon":0,"cond_shown":"Incongruent","ratio_trial":100,"L_num":6,"L_den":10,"R_num":11,"R_den":22,"correct_side":1,"subjID":"6","gender":"No_gender","school":"No_school","age":"No_age"},{"start_time":1549309026083,"click_time":1549309027845,"finger_time":1549309027483,"fix_duration":1479.6716167291358,"trial":29,"RT":1400,"MT":362,"sideResp":2,"stimulus":[],"xmouse":[404,404,404,404,404,404,404,404,404,404,403.3333435058594,403.3333435058594,403.3333435058594,403.3333435058594,403.3333435058594,403.3333435058594,403.3333435058594,403.3333435058594,403.3333435058594,403.3333435058594,403.3333435058594,403.3333435058594,403.3333435058594,403.3333435058594,403.3333435058594,403.3333435058594,403.3333435058594,403.3333435058594,403.3333435058594,403.3333435058594,402.66668701171875,402.66668701171875,402.66668701171875,402.66668701171875,402.66668701171875,402.66668701171875,402,402,402,402,402,402,402,402,402,402,402,402,402,402,402,402,402,402,402,402,400,400,400,400,400,400,400,400,400,400,400.66668701171875,400.66668701171875,400.66668701171875,416.66668701171875,423.3333435058594,437.3333435058594,459.3333435058594,474.66668701171875,482.66668701171875,498,510,530,567.3333740234375,588,599.3333740234375,620,628.6666870117188,661.3333740234375,668.6666870117188,684.6666870117188,688.6666870117188,697.3333740234375,705.3333740234375],"ymouse":[806.6666870117188,806.6666870117188,806.6666870117188,807.3333740234375,807.3333740234375,807.3333740234375,807.3333740234375,808,808,808.6666870117188,808.6666870117188,808.6666870117188,808.6666870117188,809.3333740234375,809.3333740234375,809.3333740234375,809.3333740234375,810,810,810.6666870117188,810.6666870117188,810.6666870117188,810.6666870117188,811.3333740234375,811.3333740234375,811.3333740234375,811.3333740234375,812,812,812,812,812,812,812,811.3333740234375,811.3333740234375,811.3333740234375,811.3333740234375,811.3333740234375,811.3333740234375,811.3333740234375,811.3333740234375,811.3333740234375,811.3333740234375,811.3333740234375,811.3333740234375,804.6666870117188,804.6666870117188,804.6666870117188,804.6666870117188,804.6666870117188,804.6666870117188,804.6666870117188,804.6666870117188,804.6666870117188,804.6666870117188,800.6666870117188,800.6666870117188,800.6666870117188,800.6666870117188,800.6666870117188,800.6666870117188,800.6666870117188,800.6666870117188,800.6666870117188,800.6666870117188,800,800,800,768,751.3333740234375,716,656.6666870117188,616,595.3333740234375,554,529.3333740234375,485.3333435058594,414.66668701171875,371.3333435058594,350.66668701171875,308.66668701171875,289.3333435058594,216,197.33334350585938,164,150.6666717529297,125.33334350585938,98.66667175292969],"timestamp_mouse":[6,20,40,60,80,100,120,140,160,180,200,220,240,260,280,300,320,340,360,380,400,420,440,460,480,500,520,541,560,580,600,620,640,660,680,700,721,740,760,780,800,820,840,860,880,899,920,940,960,980,1000,1020,1039,1060,1080,1100,1120,1140,1160,1180,1200,1220,1239,1260,1280,1300,1320,1340,1359,1380,1400,1420,1442,1461,1481,1500,1520,1540,1560,1580,1600,1620,1640,1660,1680,1700,1720,1741,1761],"xSR":350,"ySR":768,"xT1":30,"yT1":0,"xT2":670,"yT2":0,"toosoon":0,"cond_shown":"Incongruent","ratio_trial":100,"L_num":3,"L_den":6,"R_num":4,"R_den":10,"correct_side":1,"subjID":"6","gender":"No_gender","school":"No_school","age":"No_age"},{"start_time":1549309032897,"click_time":1549309034824,"finger_time":1549309034243,"fix_duration":1452.1770302476675,"trial":30,"RT":1346,"MT":581,"sideResp":2,"stimulus":[],"xmouse":[422,422,422,422,422,422,422,422,422,422,422,422,422,422,422,422,422,422,422,422,422,422,422,422,422,422,422,422,422,422,422,422,422,422,422,422,422,422,422,422,422,422,422,422,422,422,422,422,422,422,422,422,422,422,422,422,422,422,422,422,422,422,422,422,422,426.66668701171875,426.66668701171875,431.3333435058594,436.66668701171875,451.3333435058594,460.66668701171875,466.66668701171875,480.66668701171875,487.3333435058594,514,521.3333740234375,534,540.6666870117188,552,559.3333740234375,561.3333740234375,559.3333740234375,558,558.6666870117188,559.3333740234375,560.6666870117188,562,563.3333740234375,566,582,600,614.6666870117188,622,636.6666870117188,661.3333740234375,668.6666870117188,683.3333740234375],"ymouse"