[{"start_time":1549308866206,"click_time":1549308889762,"finger_time":1549308866213,"fix_duration":599.978439515154,"trial":0,"RT":7,"MT":23549,"sideResp":2,"stimulus":[],"xmouse":[406,406.66668701171875,406.66668701171875,406.66668701171875,406.66668701171875,406.66668701171875,406.66668701171875,406.66668701171875,406.66668701171875,406.66668701171875,406.66668701171875,406.66668701171875,406,406,406,406,406,406,406,406,406,406,406,406,406,406,406,406,406,406,406,406,406.66668701171875,406.66668701171875,407.3333435058594,407.3333435058594,408,408,408.66668701171875,408.66668701171875,409.3333435058594,409.3333435058594,410,410.66668701171875,411.3333435058594,411.3333435058594,412,412.66668701171875,413.3333435058594,413.3333435058594,413.3333435058594,413.3333435058594,412.66668701171875,411.3333435058594,410,409.3333435058594,408,408,407.3333435058594,407.3333435058594,408,408,408,408.66668701171875,408.66668701171875,408.66668701171875,408.66668701171875,408.66668701171875,408.66668701171875,408.66668701171875,408.66668701171875,408.66668701171875,408.66668701171875,407.3333435058594,407.3333435058594,407.3333435058594,407.3333435058594,407.3333435058594,407.3333435058594,407.3333435058594,407.3333435058594,407.3333435058594,407.3333435058594,408,408,408,408,408,408,408,408,408,408,408,408,408,408,408,408,408,408,408,408,408,408,408,408,408,408,408,408,408,408,408,408,408,408,408,408,408,408,408,408,408,408,408,408,408,408,408,408,408,408,408,395.3333435058594,395.3333435058594,395.3333435058594,395.3333435058594,395.3333435058594,395.3333435058594,395.3333435058594,395.3333435058594,395.3333435058594,395.3333435058594,396,396,396,396,396,396,396,396,396,396,396,396,396,396,396,396,396,396,396,396,396,396,396,396,396,396,396,396,396,396,396,396,396,396,396,396,396,396,396,396,396,396.66668701171875,396.66668701171875,396.66668701171875,396.66668701171875,396.66668701171875,396.66668701171875,396.66668701171875,396.66668701171875,396.66668701171875,394.66668701171875,395.3333435058594,395.3333435058594,396.66668701171875,397.3333435058594,398.66668701171875,398.66668701171875,398.66668701171875,399.3333435058594,399.3333435058594,399.3333435058594,399.3333435058594,399.3333435058594,399.3333435058594,399.3333435058594,399.3333435058594,399.3333435058594,399.3333435058594,399.3333435058594,399.3333435058594,395.3333435058594,395.3333435058594,395.3333435058594,395.3333435058594,395.3333435058594,395.3333435058594,395.3333435058594,395.3333435058594,395.3333435058594,395.3333435058594,395.3333435058594,395.3333435058594,395.3333435058594,395.3333435058594,392.66668701171875,392.66668701171875,392.66668701171875,392.66668701171875,392.66668701171875,392.66668701171875,392.66668701171875,392.66668701171875,392.66668701171875,392.66668701171875,392.66668701171875,392.66668701171875,392.66668701171875,392.66668701171875,392.66668701171875,392.66668701171875,392.66668701171875,392.66668701171875,392.66668701171875,392.66668701171875,392.66668701171875,392.66668701171875,392.66668701171875,392.66668701171875,392.66668701171875,392.66668701171875,392.66668701171875,392.66668701171875,392.66668701171875,392.66668701171875,392.66668701171875,392.66668701171875,392.66668701171875,392.66668701171875,392.66668701171875,392.66668701171875,392.66668701171875,392.66668701171875,392.66668701171875,392.66668701171875,392.66668701171875,392.66668701171875,392.66668701171875,392.66668701171875,392.66668701171875,392.66668701171875,392.66668701171875,392.66668701171875,392.66668701171875,392.66668701171875,392.66668701171875,392.66668701171875,392.66668701171875,392.66668701171875,392.66668701171875,392.66668701171875,392.66668701171875,392.66668701171875,392.66668701171875,392.66668701171875,392.66668701171875,392.66668701171875,392.66668701171875,392.66668701171875,392.66668701171875,392.66668701171875,392.66668701171875,392.66668701171875,392.66668701171875,392.66668701171875,392.66668701171875,392.66668701171875,392.66668701171875,392.66668701171875,392.66668701171875,392.66668701171875,392.66668701171875,392.66668701171875,392.66668701171875,392.66668701171875,392.66668701171875,392.66668701171875,392.66668701171875,392.66668701171875,392.66668701171875,392.66668701171875,407,407,407,407,407,407,407,407,407,407,407,407,407,407,401.3333435058594,401.3333435058594,400.6666564941406,400.6666564941406,400.6666564941406,400.6666564941406,400.6666564941406,400.6666564941406,400.6666564941406,400.6666564941406,400.6666564941406,400.6666564941406,391.3333435058594,391.3333435058594,391.3333435058594,391.3333435058594,391.3333435058594,391.3333435058594,391.3333435058594,391.3333435058594,391.3333435058594,391.3333435058594,400.6666564941406,400.6666564941406,400.6666564941406,400.6666564941406,400.6666564941406,400.6666564941406,400.6666564941406,400.6666564941406,400.6666564941406,400.6666564941406,406,406,406,406,404,404,404,404,404,404,404,404,404,404,404,404,404,404,404,404,404,404,404,404,404,404,404,404,404,404,404,404,404,404,404,404,404,404,385.3333435058594,388.6666564941406,388.6666564941406,395.3333435058594,396.6666564941406,396.6666564941406,396.6666564941406,396.6666564941406,396.6666564941406,396.6666564941406,396.6666564941406,396.6666564941406,396.6666564941406,396.6666564941406,396.6666564941406,396.6666564941406,396.6666564941406,396.6666564941406,396.6666564941406,396.6666564941406,396.6666564941406,395.3333435058594,395.3333435058594,395.3333435058594,395.3333435058594,395.3333435058594,395.3333435058594,395.3333435058594,395.3333435058594,395.3333435058594,395.3333435058594,397.3333435058594,397.3333435058594,397.3333435058594,397.3333435058594,397.3333435058594,397.3333435058594,397.3333435058594,397.3333435058594,397.3333435058594,397.3333435058594,390,390,390,390,390,390,390,390,390,390,388.0000305175781,388.66668701171875,388.66668701171875,388.66668701171875,388.66668701171875,388.66668701171875,397.3333435058594,398.66668701171875,399.3333435058594,399.3333435058594,399.3333435058594,399.3333435058594,399.3333435058594,399.3333435058594,399.3333435058594,399.3333435058594,401.3333435058594,402.66668701171875,403.3333435058594,404.66668701171875,405.3333435058594,406,406,406,406,406,406,406,406,406,406,406,406.66668701171875,406.66668701171875,406.66668701171875,406.66668701171875,406.0000305175781,406.0000305175781,406.0000305175781,406.0000305175781,406.0000305175781,406.0000305175781,406.0000305175781,406.0000305175781,406.0000305175781,406.0000305175781,402.66668701171875,402.66668701171875,402.66668701171875,402.66668701171875,402.66668701171875,402.66668701171875,395.3333435058594,395.3333435058594,395.3333435058594,395.3333435058594,388,388,388,388,388,388,388,388,388,388,388,388,388,388,388,388,388,388,388,388,388,388,388,388,388,388,388,388,388,388,388,388,388,388,388,388,388,388,388,388,388,388,388,388,388,388,388,388,388,388,388,388,388,388,388,388,388,388,388,388,388,388,388,388,388,388,388,388,388,388,388,388,388,388,388,388,388,388,388,388,388,388,388,388,388,388,388,388,388,388,388,388,388,388,388,388,388,388,388,388,388,388,388,388,388,388,388,388,388,388,388,388,388,388,388,388,388,388,388,388,388,388,388,388,388,388,388,388,388,388,388,388,388,388,388,388,388,388,388,388,388,388,388,388,388,388,388,388,388,388,388,388,388,388,388,388,388,388,388,388,388,388,388,388,388,388,388,388,388.6666564941406,388.6666564941406,388.6666564941406,388.6666564941406,388.6666564941406,400,400.66668701171875,402,402.66668701171875,403.3333435058594,403.3333435058594,402.66668701171875,402.66668701171875,402.66668701171875,402.66668701171875,402.66668701171875,402.66668701171875,402.66668701171875,402.66668701171875,402.66668701171875,402.66668701171875,400,400,400,400,400,400,400,400,400,400,398,398,398,398,398,398,398,398,398,398,397.3333435058594,397.3333435058594,397.3333435058594,397.3333435058594,397.3333435058594,397.3333435058594,397.3333435058594,397.3333435058594,397.3333435058594,397.3333435058594,396,396,396,396,396,396,396,396,396,394.66668701171875,394,394,394,393.3333435058594,393.3333435058594,393.3333435058594,393.3333435058594,393.3333435058594,393.3333435058594,393.3333435058594,393.3333435058594,393.3333435058594,393.3333435058594,392.66668701171875,392.66668701171875,392.66668701171875,392.66668701171875,391.3333435058594,390.66668701171875,390.66668701171875,388.66668701171875,388.66668701171875,388.66668701171875,387.3333435058594,387.3333435058594,387.3333435058594,387.3333435058594,387.3333435058594,387.3333435058594,387.3333435058594,387.3333435058594,387.3333435058594,387.3333435058594,387.3333435058594,387.3333435058594,387.3333435058594,387.3333435058594,387.3333435058594,387.3333435058594,387.3333435058594,387.3333435058594,387.3333435058594,387.3333435058594,387.3333435058594,387.3333435058594,387.3333435058594,387.3333435058594,387.3333435058594,387.3333435058594,387.3333435058594,387.3333435058594,387.3333435058594,387.3333435058594,387.3333435058594,387.3333435058594,388.0000305175781,388.0000305175781,388.0000305175781,388.0000305175781,388.0000305175781,388.0000305175781,388.0000305175781,388.0000305175781,388.0000305175781,388.0000305175781,388.0000305175781,388.0000305175781,388.0000305175781,388.0000305175781,388.0000305175781,388.0000305175781,388.0000305175781,388.0000305175781,388.0000305175781,388.0000305175781,388.0000305175781,388.0000305175781,388.0000305175781,388.0000305175781,388.0000305175781,388.0000305175781,388.0000305175781,388.0000305175781,388.0000305175781,388.0000305175781,388.0000305175781,388.0000305175781,388.0000305175781,388.0000305175781,388.0000305175781,388.0000305175781,388.0000305175781,388.0000305175781,388.0000305175781,388.0000305175781,388.0000305175781,388.0000305175781,388.0000305175781,388.0000305175781,388.0000305175781,388.0000305175781,388.0000305175781,388.0000305175781,388.0000305175781,388.0000305175781,382.66668701171875,382.66668701171875,382.66668701171875,382.66668701171875,382.66668701171875,382.66668701171875,382.66668701171875,382.66668701171875,382.66668701171875,382.66668701171875,382.6666564941406,382.6666564941406,382,382,381.3333435058594,380.66668701171875,380.66668701171875,380,379.3333435058594,379.3333435058594,378.66668701171875,378.66668701171875,378.66668701171875,378.66668701171875,378.66668701171875,378.66668701171875,378.66668701171875,378.66668701171875,378.66668701171875,378.66668701171875,378.66668701171875,378.6666564941406,378.6666564941406,378.6666564941406,378.6666564941406,378.6666564941406,378.6666564941406,378.6666564941406,378.6666564941406,378.6666564941406,378.6666564941406,380,380,380,380,380,380,380,380,380,378.6666564941406,378.6666564941406,378.6666564941406,378.6666564941406,378.6666564941406,378.6666564941406,378.6666564941406,378.6666564941406,378.6666564941406,378.6666564941406,378.6666564941406,378.6666564941406,378.6666564941406,378.6666564941406,378.6666564941406,378.6666564941406,378.6666564941406,378.6666564941406,378.6666564941406,378.6666564941406,378.6666564941406,380,380,380,380,380,380,380,380,380,380,396,396,396,396,396,396,396,396,396,396,392,392,392,392,392,392,392,392,392,392,391.3333435058594,391.3333435058594,391.3333435058594,391.3333435058594,391.3333435058594,391.3333435058594,391.3333435058594,391.3333435058594,391.3333435058594,391.3333435058594,392,392,392,392,392,392,392,392,392,392,389.3333435058594,389.3333435058594,389.3333435058594,389.3333435058594,389.3333435058594,389.3333435058594,389.3333435058594,389.3333435058594,389.3333435058594,389.3333435058594,389.3333435058594,389.3333435058594,389.3333435058594,388.66668701171875,388,388,388,388,388,388,388,388,388,387.3333435058594,387.3333435058594,387.3333435058594,387.3333435058594,386.66668701171875,386.66668701171875,386.66668701171875,386,386,386,386,386,385.3333435058594,385.3333435058594,385.3333435058594,385.3333435058594,385.3333435058594,385.3333435058594,385.3333435058594,385.3333435058594,385.3333435058594,385.3333435058594,385.3333435058594,384,384,384,384,384,384,384,384,384,384,384,384,384,384,384,384,384,384,384,384,383.3333435058594,383.3333435058594,383.3333435058594,383.3333435058594,383.3333435058594,383.3333435058594,383.3333435058594,383.3333435058594,383.3333435058594,383.3333435058594,383.3333435058594,383.3333435058594,383.3333435058594,383.3333435058594,383.3333435058594,383.3333435058594,383.3333435058594,382.66668701171875,382.66668701171875,382.66668701171875,382.66668701171875,383.3333435058594,383.3333435058594,383.3333435058594,383.3333435058594,383.3333435058594,383.3333435058594,383.3333435058594,383.3333435058594,383.3333435058594,383.3333435058594,383.3333435058594,383.3333435058594,383.3333435058594,383.3333435058594,383.3333435058594,383.3333435058594,383.3333435058594,383.3333435058594,383.3333435058594,383.3333435058594,383.3333435058594,383.3333435058594,383.3333435058594,383.3333435058594,383.3333435058594,383.3333435058594,383.3333435058594,383.3333435058594,383.3333435058594,383.3333435058594,383.3333435058594,383.3333435058594,383.3333435058594,383.3333435058594,383.3333435058594,383.3333435058594,383.3333435058594,383.3333435058594,383.3333435058594,383.3333435058594,383.3333435058594,383.3333435058594,383.3333435058594,383.3333435058594,383.3333435058594,383.3333435058594,383.3333435058594,383.3333435058594,383.3333435058594,383.3333435058594,383.3333435058594,383.3333435058594,383.3333435058594,383.3333435058594,383.3333435058594,383.3333435058594,383.3333435058594,383.3333435058594,383.3333435058594,383.3333435058594,383.3333435058594,383.3333435058594,383.3333435058594,383.3333435058594,383.3333435058594,383.3333435058594,383.3333435058594,383.3333435058594,382.66668701171875,382.66668701171875,382.66668701171875,382.66668701171875,382.66668701171875,382.66668701171875,382.66668701171875,382.66668701171875,382.66668701171875,382.66668701171875,383.3333435058594,383.3333435058594,383.3333435058594,383.3333435058594,383.3333435058594,383.3333435058594,383.3333435058594,383.3333435058594,383.3333435058594,383.3333435058594,384.66668701171875,384.66668701171875,384.66668701171875,384.66668701171875,384.66668701171875,384.66668701171875,384.66668701171875,384.66668701171875,384.66668701171875,384.66668701171875,393.3333435058594,398,400,403.3333435058594,405.3333435058594,409.3333435058594,413.3333435058594,415.3333435058594,416,417.3333435058594,418,420.66668701171875,423.3333435058594,432,439.3333435058594,461.3333435058594,500,506.66668701171875,516,528.6666870117188,540,560.6666870117188,580.6666870117188,586.6666870117188,604,624,632,655.3333740234375,670.6666870117188,686,692,702,711.3333740234375,714],"ymouse":[761.3333740234375,761.3333740234375,762,762.6666870117188,763.3333740234375,763.3333740234375,763.3333740234375,763.3333740234375,763.3333740234375,762.6666870117188,762.6666870117188,762.6666870117188,762.6666870117188,762.6666870117188,762.6666870117188,762.6666870117188,762.6666870117188,762.6666870117188,762.6666870117188,762.6666870117188,762.6666870117188,762.6666870117188,762.6666870117188,762.6666870117188,762.6666870117188,762.6666870117188,762.6666870117188,762.6666870117188,762.6666870117188,762.6666870117188,762.6666870117188,762.6666870117188,764,764.6666870117188,764.6666870117188,764.6666870117188,764.6666870117188,764.6666870117188,765.3333740234375,765.3333740234375,766,766,766,766,767.3333740234375,768.6666870117188,770,772.6666870117188,776,776.6666870117188,780,782.6666870117188,789.3333740234375,802.6666870117188,812,816.6666870117188,825.3333740234375,829.3333740234375,838,840.6666870117188,842,841.3333740234375,841.3333740234375,841.3333129882812,841.3333129882812,841.3333129882812,841.3333129882812,841.3333129882812,841.3333129882812,841.3333129882812,841.3333129882812,841.3333129882812,841.3333129882812,838.6666870117188,838.6666870117188,838.6666870117188,838.6666870117188,838.6666870117188,838.6666870117188,838.6666870117188,838.6666870117188,838.6666870117188,838.6666870117188,838.6666870117188,838.6666870117188,838.6666870117188,838.6666870117188,838.6666870117188,838.6666870117188,838.6666870117188,838.6666870117188,838.6666870117188,833.3333129882812,833.3333129882812,833.3333129882812,833.3333129882812,833.3333129882812,833.3333129882812,833.3333129882812,833.3333129882812,833.3333129882812,833.3333129882812,833.3333129882812,833.3333129882812,833.3333129882812,833.3333129882812,833.3333129882812,833.3333129882812,833.3333129882812,833.3333129882812,833.3333129882812,833.3333129882812,833.3333129882812,833.3333129882812,833.3333129882812,833.3333129882812,833.3333129882812,833.3333129882812,833.3333129882812,833.3333129882812,833.3333129882812,833.3333129882812,833.3333129882812,833.3333129882812,833.3333129882812,833.3333129882812,833.3333129882812,833.3333129882812,833.3333129882812,833.3333129882812,833.3333129882812,833.3333129882812,833.3333129882812,833.3333129882812,830.0000610351562,830.0000610351562,830.0000610351562,830.0000610351562,830.0000610351562,830.0000610351562,830.0000610351562,830.0000610351562,830.0000610351562,830.0000610351562,832.6666870117188,832.6666870117188,832.6666870117188,832.6666870117188,832.6666870117188,832.6666870117188,832.6666870117188,832.6666870117188,832.6666870117188,832.6666870117188,832.0000610351562,832.0000610351562,832.0000610351562,832.0000610351562,832.0000610351562,832.0000610351562,832.0000610351562,832.0000610351562,832.0000610351562,832.0000610351562,832.0000610351562,836.0000610351562,836.0000610351562,836.0000610351562,836.0000610351562,836.0000610351562,836.0000610351562,836.0000610351562,836.0000610351562,836.0000610351562,836.0000610351562,847.3333740234375,848,847.3333129882812,847.3333129882812,847.3333129882812,847.3333129882812,847.3333129882812,847.3333129882812,847.3333129882812,847.3333129882812,846,846,846,846,846,846,846,846,846,828.6666870117188,828,827.3333740234375,826.6666870117188,826.6666870117188,826,826,826,826.6666870117188,826.6666870117188,827.3333129882812,827.3333129882812,827.3333129882812,827.3333129882812,827.3333129882812,827.3333129882812,827.3333129882812,827.3333129882812,827.3333129882812,827.3333129882812,830,830,830,830,830,830,830,830,830,830,836,836,836,836,832,832,832,832,832,832,832,832,832,832,832,832,832,832,832,832,832,832,832,832,832,832,832,832,832,832,832,832,832,832,832,832,832,832,832,832,832,832,832,832,832,832,832,832,832,832,832,832,832,832,832,832,832,832,832,832,832,832,832,832,832,832,832,832,832,832,832,832,832,832,832,832,832,832,832,832,832,832,832,832,832,832,832,832,832,832,834,834,834,834,834,834,834,834,834,834,834,834,834,834,840,840,840.0000610351562,840.0000610351562,840.0000610351562,840.0000610351562,840.0000610351562,840.0000610351562,840.0000610351562,840.0000610351562,840.0000610351562,840.0000610351562,852.6666870117188,852.6666870117188,852.6666870117188,852.6666870117188,852.6666870117188,852.6666870117188,852.6666870117188,852.6666870117188,852.6666870117188,852.6666870117188,843.3333740234375,843.3333740234375,843.3333740234375,843.3333740234375,843.3333740234375,843.3333740234375,843.3333740234375,843.3333740234375,843.3333740234375,843.3333740234375,841.3333740234375,841.3333740234375,841.3333740234375,841.3333740234375,838,838,838,838,838,838,838,838,838,838,838,838,838,838,838,838,838,838,838,838,838,838,838,838,838,838,838,838,838,838,838,838,838,838,822,830,830,842,841.3333740234375,841.3333740234375,841.3333740234375,841.3333740234375,841.3333740234375,841.3333740234375,841.3333740234375,834.6666870117188,834.6666870117188,834.6666870117188,834.6666870117188,834.6666870117188,834.6666870117188,834.6666870117188,834.6666870117188,834.6666870117188,834.6666870117188,830,830,830,830,830,830,830,830,830,830,834.6666870117188,834.6666870117188,834.6666870117188,834.6666870117188,834.6666870117188,834.6666870117188,834.6666870117188,834.6666870117188,834.6666870117188,834.6666870117188,839.3333129882812,839.3333129882812,839.3333129882812,839.3333129882812,839.3333129882812,839.3333129882812,839.3333129882812,839.3333129882812,839.3333129882812,839.3333129882812,834.6666870117188,833.3333740234375,833.3333740234375,833.3333740234375,833.3333740234375,833.3333740234375,821.3333740234375,818.6666870117188,818.6666870117188,817.3333740234375,818,818,818,818.6666870117188,818.6666870117188,818.6666870117188,818.6666870117188,818.6666870117188,818.6666870117188,818.6666870117188,818.6666870117188,818.6666870117188,819.3333129882812,820.0000610351562,820.0000610351562,820.0000610351562,820.0000610351562,820.0000610351562,820.0000610351562,820.0000610351562,820.0000610351562,820.0000610351562,824.6666870117188,824.6666870117188,824.6666870117188,824.6666870117188,824.6666870117188,824.6666870117188,824.6666870117188,824.6666870117188,824.6666870117188,824.6666870117188,824.6666870117188,824.6666870117188,824.6666870117188,824.6666870117188,825.3333740234375,825.3333740234375,825.3333740234375,825.3333740234375,825.3333740234375,825.3333740234375,823.3333740234375,823.3333740234375,823.3333740234375,823.3333740234375,815.3333740234375,815.3333740234375,815.3333740234375,815.3333740234375,815.3333740234375,815.3333740234375,815.3333740234375,815.3333740234375,815.3333740234375,815.3333740234375,815.3333740234375,815.3333740234375,815.3333740234375,815.3333740234375,815.3333740234375,815.3333740234375,815.3333740234375,815.3333740234375,815.3333740234375,815.3333740234375,815.3333740234375,815.3333740234375,815.3333740234375,815.3333740234375,815.3333740234375,815.3333740234375,815.3333740234375,815.3333740234375,815.3333740234375,815.3333740234375,815.3333740234375,815.3333740234375,815.3333740234375,815.3333740234375,815.3333740234375,815.3333740234375,815.3333740234375,815.3333740234375,815.3333740234375,815.3333740234375,815.3333740234375,815.3333740234375,815.3333740234375,815.3333740234375,815.3333740234375,815.3333740234375,815.3333740234375,815.3333740234375,815.3333740234375,815.3333740234375,815.3333740234375,815.3333740234375,815.3333740234375,815.3333740234375,815.3333740234375,815.3333740234375,815.3333740234375,815.3333740234375,815.3333740234375,815.3333740234375,815.3333740234375,815.3333740234375,815.3333740234375,815.3333740234375,815.3333740234375,815.3333740234375,815.3333740234375,815.3333740234375,815.3333740234375,815.3333740234375,815.3333740234375,815.3333740234375,815.3333740234375,815.3333740234375,815.3333740234375,815.3333740234375,815.3333740234375,815.3333740234375,815.3333740234375,815.3333740234375,815.3333740234375,815.3333740234375,815.3333740234375,815.3333740234375,815.3333740234375,815.3333740234375,815.3333740234375,815.3333740234375,815.3333740234375,815.3333740234375,815.3333740234375,815.3333740234375,815.3333740234375,815.3333740234375,815.3333740234375,815.3333740234375,815.3333740234375,815.3333740234375,815.3333740234375,815.3333740234375,815.3333740234375,815.3333740234375,815.3333740234375,815.3333740234375,815.3333740234375,815.3333740234375,815.3333740234375,815.3333740234375,815.3333740234375,815.3333740234375,815.3333740234375,815.3333740234375,815.3333740234375,815.3333740234375,815.3333740234375,815.3333740234375,815.3333740234375,815.3333740234375,815.3333740234375,815.3333740234375,815.3333740234375,815.3333740234375,815.3333740234375,815.3333740234375,815.3333740234375,815.3333740234375,815.3333740234375,815.3333740234375,815.3333740234375,815.3333740234375,815.3333740234375,815.3333740234375,815.3333740234375,815.3333740234375,815.3333740234375,815.3333740234375,815.3333740234375,815.3333740234375,815.3333740234375,815.3333740234375,815.3333740234375,815.3333740234375,815.3333740234375,815.3333740234375,815.3333740234375,815.3333740234375,815.3333740234375,815.3333740234375,815.3333740234375,815.3333740234375,815.3333740234375,815.3333740234375,815.3333740234375,815.3333740234375,815.3333740234375,815.3333740234375,815.3333740234375,815.3333740234375,815.3333740234375,815.3333740234375,815.3333740234375,815.3333740234375,815.3333740234375,815.3333740234375,815.3333740234375,815.3333740234375,843.3333740234375,843.3333740234375,843.3333740234375,843.3333740234375,843.3333740234375,843.3333740234375,843.3333740234375,824,821.3333740234375,819.3333740234375,818,818.6666870117188,822,825.3333740234375,825.3333740234375,825.3333740234375,825.3333740234375,825.3333740234375,825.3333740234375,825.3333740234375,825.3333740234375,825.3333740234375,825.3333740234375,832.6666870117188,832.6666870117188,832.6666870117188,832.6666870117188,832.6666870117188,832.6666870117188,832.6666870117188,832.6666870117188,832.6666870117188,832.6666870117188,832.6666870117188,832.6666870117188,832.6666870117188,832.6666870117188,832.6666870117188,832.6666870117188,832.6666870117188,832.6666870117188,832.6666870117188,832.6666870117188,833.3333129882812,833.3333129882812,833.3333129882812,833.3333129882812,833.3333129882812,833.3333129882812,833.3333129882812,833.3333129882812,833.3333129882812,833.3333129882812,832.6666870117188,832.6666870117188,832.6666870117188,832.6666870117188,832.6666870117188,832.6666870117188,832.6666870117188,832.6666870117188,832.6666870117188,832.6666870117188,832.6666870117188,832,832,832,832,832,832,832.6666870117188,832.6666870117188,832.6666870117188,832.6666870117188,832.6666870117188,832.6666870117188,833.3333129882812,832.6666870117188,832.6666870117188,832.6666870117188,831.3333129882812,830.6666870117188,830.6666870117188,830,830.6666870117188,830.6666870117188,830.6666870117188,831.3333129882812,832,832,832,832,832,832,832,832,832,832,834.6666870117188,834.6666870117188,834.6666870117188,834.6666870117188,834.6666870117188,834.6666870117188,834.6666870117188,834.6666870117188,834.6666870117188,834.6666870117188,836.6666870117188,836.6666870117188,836.6666870117188,836.6666870117188,836.6666870117188,836.6666870117188,836.6666870117188,836.6666870117188,836.6666870117188,836.6666870117188,838.6666870117188,838.6666870117188,838.6666870117188,838.6666870117188,838.6666870117188,838.6666870117188,838.6666870117188,838.6666870117188,838.6666870117188,838.6666870117188,840,840,840,840,840,840,840,840,840,840,840.6666870117188,840.6666870117188,840.6666870117188,840.6666870117188,840.6666870117188,840.6666870117188,840.6666870117188,840.6666870117188,840.6666870117188,840.6666870117188,842,842,842,842,842,842,842,842,842,842,840.6666870117188,840.6666870117188,840.6666870117188,840.6666870117188,840.6666870117188,840.6666870117188,840.6666870117188,840.6666870117188,840.6666870117188,840.6666870117188,834,834,834,834,834,834,834,834,834,834,825.3333740234375,823.3333740234375,822.6666870117188,822.6666870117188,822,820.6666870117188,820,819.3333740234375,818.6666870117188,819.3333740234375,820,820,820,820,820,820,820,820,820,820,820,832.6666870117188,832.6666870117188,832.6666870117188,832.6666870117188,832.6666870117188,832.6666870117188,832.6666870117188,832.6666870117188,832.6666870117188,832.6666870117188,830,830,830,830,830,830,830,830,830,830,830,830,830,830,830,830,830,830,830,830.6666870117188,830.6666870117188,830.6666870117188,830.6666870117188,830.6666870117188,830.6666870117188,830.6666870117188,830.6666870117188,830.6666870117188,830.6666870117188,830.6666870117188,832,832,832,832,832,832,832,832,832,832,824,824,824,824,824,824,824,824,824,824,833.3333740234375,833.3333740234375,833.3333740234375,833.3333740234375,833.3333740234375,833.3333740234375,833.3333740234375,833.3333740234375,833.3333740234375,833.3333740234375,829.3333740234375,829.3333740234375,829.3333740234375,829.3333740234375,829.3333740234375,829.3333740234375,829.3333740234375,829.3333740234375,829.3333740234375,829.3333740234375,829.3333740234375,829.3333740234375,829.3333740234375,829.3333740234375,829.3333740234375,829.3333740234375,829.3333740234375,829.3333740234375,829.3333740234375,829.3333740234375,831.3333740234375,831.3333740234375,831.3333740234375,832,832,832,832,832,832,832,832,832,832,831.3333740234375,831.3333740234375,831.3333740234375,831.3333740234375,831.3333740234375,831.3333740234375,831.3333740234375,831.3333740234375,831.3333740234375,831.3333740234375,831.3333740234375,831.3333740234375,832,832,832,832,832,832,832,832,832,832,832.6666870117188,832,832,832,832,832,832,832,832,832,832,832.6666870117188,832.6666870117188,832.6666870117188,832.6666870117188,832.6666870117188,832.6666870117188,832.6666870117188,832.6666870117188,832.6666870117188,832.6666870117188,832.6666870117188,832.6666870117188,833.3333740234375,833.3333740234375,833.3333740234375,833.3333740234375,833.3333740234375,833.3333740234375,833.3333740234375,833.3333740234375,832.6666870117188,832.6666870117188,832.6666870117188,832.6666870117188,832.6666870117188,832.6666870117188,832.6666870117188,833.3333740234375,833.3333740234375,833.3333740234375,833.3333740234375,833.3333740234375,833.3333740234375,833.3333740234375,833.3333740234375,833.3333740234375,833.3333740234375,833.3333740234375,833.3333740234375,833.3333740234375,833.3333740234375,833.3333740234375,833.3333740234375,833.3333740234375,833.3333740234375,833.3333740234375,833.3333740234375,834,834,834,834,834,834,834,834,834,834,834,834,834,834,834,834,834,834,834,834,834,834,834,834,834,834,834,834,834,834,834,834,834,834,834,834,834,834,834,834,833.3333740234375,833.3333740234375,833.3333740234375,833.3333740234375,833.3333740234375,833.3333740234375,833.3333740234375,833.3333740234375,833.3333740234375,833.3333740234375,833.3333740234375,833.3333740234375,833.3333740234375,833.3333740234375,833.3333740234375,833.3333740234375,833.3333740234375,833.3333740234375,833.3333740234375,833.3333740234375,833.3333740234375,833.3333740234375,833.3333740234375,833.3333740234375,833.3333740234375,833.3333740234375,833.3333740234375,833.3333740234375,833.3333740234375,833.3333740234375,833.3333740234375,833.3333740234375,832.6666870117188,832.6666870117188,832.6666870117188,832.6666870117188,832.6666870117188,832.6666870117188,832.6666870117188,832.6666870117188,832.6666870117188,832.6666870117188,834,834,834,834,834,834,834,834,834,834,817.3333740234375,809.3333740234375,806.6666870117188,801.3333740234375,799.3333740234375,796,791.3333740234375,787.3333740234375,784.6666870117188,780,777.3333740234375,769.3333740234375,760,740,724.6666870117188,685.3333740234375,621.3333740234375,605.3333740234375,578,544.6666870117188,523.3333740234375,480.66668701171875,430.66668701171875,410.66668701171875,374,332.66668701171875,313.3333435058594,260,223.33334350585938,188,170.6666717529297,139.33334350585938,106,96.66667175292969],"timestamp_mouse":[6,15,36,55,75,96,115,136,156,175,195,216,235,255,275,296,316,335,355,376,395,415,435,455,476,495,515,535,557,575,595,615,636,656,675,696,715,735,757,775,796,815,835,856,875,896,915,936,957,976,995,1015,1035,1056,1075,1096,1115,1135,1156,1175,1195,1216,1235,1257,1275,1295,1315,1335,1355,1376,1396,1415,1435,1455,1475,1496,1515,1535,1556,1575,1595,1615,1636,1655,1675,1695,1715,1735,1756,1776,1795,1815,1835,1855,1875,1895,1915,1935,1955,1975,1995,2015,2035,2055,2075,2095,2115,2135,2155,2176,2195,2215,2235,2255,2275,2295,2316,2335,2355,2376,2395,2416,2435,2455,2475,2495,2515,2535,2555,2575,2595,2616,2635,2655,2676,2695,2716,2735,2756,2775,2795,2815,2835,2855,2877,2895,2915,2935,2955,2976,2996,3016,3035,3055,3076,3095,3116,3135,3155,3176,3196,3215,3236,3256,3276,3296,3315,3336,3355,3375,3395,3415,3435,3455,3475,3496,3515,3535,3555,3575,3596,3615,3635,3655,3675,3696,3716,3735,3755,3776,3796,3816,3835,3855,3876,3896,3916,3935,3955,3976,3996,4015,4035,4055,4075,4095,4116,4136,4155,4176,4195,4216,4236,4255,4276,4295,4315,4336,4355,4375,4395,4415,4435,4455,4475,4496,4515,4535,4555,4575,4596,4615,4635,4656,4676,4695,4715,4735,4756,4775,4796,4815,4835,4855,4875,4895,4915,4935,4955,4975,4996,5016,5035,5055,5076,5095,5115,5136,5156,5176,5196,5215,5235,5256,5275,5295,5316,5336,5355,5375,5395,5415,5436,5455,5475,5496,5516,5535,5555,5575,5595,5615,5636,5655,5676,5695,5715,5735,5756,5775,5795,5815,5835,5855,5875,5895,5915,5935,5955,5975,5995,6015,6036,6055,6075,6096,6115,6135,6155,6176,6195,6216,6235,6255,6278,6295,6315,6335,6356,6375,6396,6415,6435,6455,6475,6495,6515,6536,6555,6576,6595,6616,6635,6655,6676,6696,6716,6735,6755,6776,6795,6815,6836,6855,6876,6895,6916,6936,6955,6975,6995,7015,7035,7055,7075,7095,7115,7135,7156,7175,7195,7215,7236,7255,7275,7295,7316,7335,7355,7375,7395,7415,7435,7455,7475,7495,7515,7536,7555,7575,7596,7615,7635,7656,7676,7695,7715,7736,7755,7775,7796,7816,7835,7855,7876,7895,7915,7935,7955,7975,7995,8015,8035,8055,8075,8095,8115,8136,8155,8175,8196,8215,8236,8255,8276,8295,8317,8335,8355,8375,8395,8415,8435,8455,8475,8495,8515,8536,8555,8575,8595,8615,8636,8655,8675,8696,8715,8735,8755,8775,8795,8815,8835,8855,8875,8895,8916,8935,8955,8975,8995,9016,9036,9056,9075,9095,9116,9135,9155,9175,9195,9215,9236,9255,9275,9296,9317,9336,9355,9375,9395,9416,9436,9455,9475,9496,9515,9535,9555,9575,9595,9619,9636,9655,9675,9696,9716,9736,9755,9775,9795,9815,9836,9855,9875,9895,9916,9936,9956,9976,9995,10015,10035,10055,10075,10095,10116,10135,10156,10175,10195,10215,10235,10256,10275,10295,10315,10335,10355,10376,10396,10416,10435,10455,10475,10496,10515,10535,10555,10575,10595,10615,10635,10655,10676,10695,10715,10735,10755,10776,10795,10816,10835,10856,10875,10895,10915,10936,10955,10976,10995,11016,11036,11055,11076,11095,11115,11135,11155,11175,11195,11215,11235,11256,11276,11295,11315,11335,11355,11376,11395,11416,11435,11456,11475,11496,11515,11536,11555,11575,11595,11615,11636,11656,11675,11695,11715,11735,11755,11775,11795,11815,11835,11855,11875,11895,11915,11935,11955,11976,11996,12015,12035,12055,12076,12096,12116,12135,12156,12175,12195,12215,12235,12255,12275,12295,12315,12336,12355,12375,12395,12415,12435,12455,12475,12496,12515,12536,12555,12576,12595,12615,12635,12656,12675,12695,12715,12735,12755,12775,12795,12815,12835,12855,12875,12896,12915,12935,12955,12976,12995,13016,13035,13056,13075,13095,13115,13135,13155,13176,13195,13215,13235,13255,13275,13296,13315,13335,13355,13375,13395,13415,13436,13458,13475,13495,13515,13536,13555,13575,13595,13615,13635,13655,13675,13695,13715,13735,13756,13775,13796,13816,13836,13858,13875,13895,13915,13935,13955,13975,13996,14015,14035,14055,14075,14095,14115,14136,14156,14175,14196,14215,14236,14255,14275,14295,14316,14336,14355,14375,14395,14416,14435,14455,14475,14495,14516,14535,14555,14575,14596,14615,14636,14656,14675,14695,14715,14736,14755,14775,14795,14815,14835,14855,14875,14896,14915,14935,14957,14975,14995,15015,15035,15056,15076,15095,15115,15136,15155,15175,15195,15216,15235,15255,15275,15295,15315,15335,15355,15375,15395,15415,15436,15456,15475,15495,15515,15535,15555,15575,15595,15616,15635,15655,15675,15695,15716,15735,15756,15775,15795,15816,15835,15855,15875,15895,15915,15935,15955,15975,15995,16015,16036,16055,16075,16095,16116,16135,16156,16175,16195,16216,16235,16255,16275,16296,16316,16335,16355,16376,16395,16415,16435,16456,16475,16495,16516,16536,16555,16576,16595,16615,16636,16656,16676,16695,16716,16735,16755,16776,16796,16815,16835,16855,16875,16895,16915,16935,16956,16975,16996,17015,17036,17055,17075,17095,17115,17135,17155,17179,17196,17215,17235,17255,17275,17295,17316,17335,17355,17375,17395,17415,17435,17455,17476,17495,17515,17535,17556,17575,17596,17615,17635,17656,17677,17695,17715,17735,17755,17778,17795,17815,17836,17855,17875,17895,17916,17935,17955,17977,17995,18016,18035,18056,18076,18095,18116,18136,18155,18175,18196,18215,18236,18255,18275,18295,18316,18335,18356,18376,18397,18415,18435,18455,18475,18496,18515,18535,18555,18575,18600,18615,18635,18656,18676,18696,18715,18735,18755,18775,18798,18815,18835,18855,18875,18895,18915,18935,18955,18976,18997,19015,19035,19055,19075,19095,19115,19135,19155,19176,19195,19215,19235,19256,19275,19296,19315,19335,19355,19375,19395,19415,19436,19455,19482,19495,19515,19535,19555,19575,19596,19615,19636,19655,19675,19695,19715,19736,19755,19775,19796,19815,19835,19855,19875,19895,19916,19935,19955,19975,19995,20015,20036,20055,20076,20095,20115,20135,20155,20175,20195,20215,20235,20255,20275,20295,20315,20335,20355,20375,20395,20415,20435,20455,20475,20495,20515,20535,20555,20575,20595,20615,20635,20655,20675,20695,20716,20735,20755,20776,20795,20815,20835,20855,20875,20895,20915,20935,20955,20976,20995,21016,21036,21055,21075,21095,21115,21135,21155,21175,21195,21216,21235,21255,21275,21296,21316,21336,21355,21375,21395,21415,21436,21455,21475,21496,21515,21536,21555,21575,21596,21616,21635,21655,21675,21695,21715,21735,21755,21775,21796,21815,21836,21855,21875,21896,21915,21935,21956,21975,21996,22015,22035,22055,22075,22095,22115,22135,22155,22175,22196,22215,22235,22255,22275,22296,22315,22335,22356,22375,22395,22416,22435,22456,22475,22496,22515,22535,22555,22576,22595,22615,22635,22655,22676,22695,22715,22735,22755,22775,22795,22816,22835,22855,22875,22895,22917,22935,22955,22976,22995,23016,23035,23056,23075,23096,23117,23135,23156,23175,23195,23218,23235,23255,23275,23295,23315,23335,23355,23375,23395,23416,23437,23455,23475,23495,23515,23537,23555],"xSR":350,"ySR":696,"xT1":30,"yT1":0,"xT2":670,"yT2":0,"toosoon":0,"cond_shown":"Incongruent","ratio_trial":300,"L_num":4,"L_den":20,"R_num":2,"R_den":4,"correct_side":2,"subjID":"7","gender":"No_gender","age":"No_age","school":"No_school","test":{"fix_dur":[250,1500],"timestim":900,"targets_dim":[100,100],"targets_relative_coord":[0.1,0.9],"size_stim":[880,420],"start_dim":[100,100],"size_start":[300,300],"size_fix":60,"samplingrate":20,"img_types":["Congruent","Incongruent","Equal"],"ratios":[100,200,300,500],"rep_conds":15,"nTrials":192,"trials_to_rest":500,"Trials_order":[43,151,77,22,117,169,33,6,75,111,40,19,189,88,15,144,54,126,133,0,97,120,152,35,1,112,61,55,28,11,49,5,51,23,173,71,139,118,83,64,191,50,57,124,123,89,105,76,94,127,102,8,18,155,183,167,58,114,140,145,73,91,69,3,30,125,179,52,108,78,184,101,160,176,157,96,41,171,56,149,21,147,162,66,29,63,46,185,104,153,17,159,166,161,130,90,34,25,65,67,99,136,129,31,4,106,93,85,79,2,70,47,181,156,98,154,68,7,122,170,32,182,26,74,95,82,143,188,107,165,100,62,138,37,128,84,20,60,24,42,131,172,87,27,146,14,38,186,16,36,109,134,103,12,45,132,115,110,158,39,178,148,113,92,163,116,164,150,190,187,81,168,44,180,13,177,53,72,48,59,10,119,137,141,142,86,121,9,135,80,175,174],"cond_shown":["Incongruent","Incongruent","Equal","Incongruent","Congruent","Incongruent","Congruent","Congruent","Congruent","Congruent","Incongruent","Incongruent","Congruent","Incongruent","Congruent","Congruent","Congruent","Congruent","Incongruent","Congruent","Incongruent","Congruent","Equal","Equal","Incongruent","Incongruent","Incongruent","Incongruent","Incongruent","Equal","Incongruent","Equal","Congruent","Equal","Equal","Equal","Incongruent","Incongruent","Equal","Incongruent","Equal","Equal","Congruent","Incongruent","Congruent","Equal","Congruent","Incongruent","Incongruent","Incongruent","Congruent","Equal","Congruent","Equal","Congruent","Equal","Incongruent","Congruent","Equal","Incongruent","Incongruent","Incongruent","Congruent","Congruent","Congruent","Equal","Equal","Incongruent","Congruent","Congruent","Incongruent","Equal","Incongruent","Equal","Incongruent","Congruent","Equal","Congruent","Equal","Equal","Congruent","Congruent","Congruent","Congruent","Equal","Congruent","Incongruent","Equal","Equal","Congruent","Equal","Congruent","Incongruent","Equal","Incongruent","Congruent","Incongruent","Incongruent","Equal","Incongruent","Congruent","Incongruent","Congruent","Incongruent","Incongruent","Incongruent","Congruent","Incongruent","Incongruent","Equal","Incongruent","Equal","Incongruent","Congruent","Equal","Incongruent","Equal","Incongruent","Equal","Equal","Equal","Equal","Equal","Equal","Equal","Incongruent","Equal","Equal","Equal","Congruent","Incongruent","Equal","Congruent","Incongruent","Equal","Congruent","Equal","Congruent","Congruent","Congruent","Equal","Incongruent","Congruent","Congruent","Equal","Equal","Equal","Congruent","Incongruent","Congruent","Incongruent","Equal","Incongruent","Congruent","Congruent","Congruent","Incongruent","Equal","Equal","Congruent","Incongruent","Incongruent","Equal","Equal","Incongruent","Equal","Equal","Congruent","Incongruent","Incongruent","Congruent","Congruent","Equal","Congruent","Incongruent","Congruent","Equal","Congruent","Congruent","Equal","Incongruent","Equal","Equal","Congruent","Incongruent","Equal","Incongruent","Congruent","Congruent","Equal","Incongruent","Congruent"],"ratio_trial":[300,300,200,500,500,100,500,300,200,200,200,300,500,200,200,100,300,300,100,100,100,100,300,500,100,200,100,300,200,500,100,200,200,500,200,500,300,500,500,200,500,100,500,200,200,200,500,200,500,300,300,300,300,500,200,500,500,300,300,100,100,300,500,200,300,200,500,200,100,300,200,200,200,300,100,100,200,200,300,200,500,200,300,300,200,200,500,200,300,500,200,200,500,200,500,300,500,100,200,300,200,200,500,300,200,500,500,100,300,100,500,500,100,100,100,500,300,300,100,100,300,100,100,100,500,500,500,300,500,500,200,100,300,100,300,100,300,100,100,300,500,200,200,200,100,100,100,300,200,100,100,100,300,100,500,100,300,100,100,200,500,200,200,300,300,300,300,300,500,300,500,100,300,100,100,500,200,100,100,500,500,500,200,500,500,100,100,500,200,300,300,300],"left_num":[4,13,3,7,1,10,6,20,8,3,3,4,5,4,12,6,1,7,3,2,9,3,9,6,2,7,12,4,7,6,6,3,11,6,3,2,4,7,6,7,6,6,8,7,7,3,8,7,7,13,8,3,1,2,11,2,5,5,3,6,2,13,4,6,1,3,6,1,4,8,11,3,11,18,8,7,3,3,3,3,2,21,20,1,3,12,7,3,3,2,3,3,2,3,7,5,7,6,3,4,20,7,3,13,7,7,4,9,4,2,5,6,3,3,6,7,9,2,6,2,9,6,6,6,2,5,6,9,6,25,1,6,8,3,9,2,9,3,1,11,6,1,4,3,6,6,2,1,7,10,2,6,8,11,10,10,3,6,6,8,7,4,3,9,13,9,18,18,7,13,2,6,3,10,6,8,3,6,10,6,7,2,3,2,7,6,6,9,8,18,13,20],"right_num":[2,12,3,5,11,9,1,5,7,9,11,6,6,14,6,15,3,20,8,6,6,2,9,6,8,14,2,2,12,6,3,3,3,6,3,2,6,5,6,14,6,6,4,14,18,3,4,12,5,12,10,3,11,2,3,2,6,7,3,3,8,12,15,11,8,3,6,3,15,1,3,3,3,18,1,9,3,7,3,3,12,2,8,11,3,6,5,3,3,4,3,9,4,3,5,6,9,7,3,2,9,8,15,12,6,5,15,14,2,2,6,6,8,2,6,5,9,6,6,2,9,6,6,6,2,6,6,9,6,9,3,6,1,4,9,11,9,2,3,2,6,3,3,7,6,6,2,8,8,3,6,6,14,6,22,3,4,6,6,2,5,14,3,9,12,9,18,9,5,12,12,5,3,3,11,1,3,5,3,6,5,2,3,4,5,6,11,20,2,18,12,9],"left_den":[20,26,10,21,9,25,9,25,15,12,4,5,14,6,20,12,5,14,5,5,18,6,12,8,4,10,30,20,10,8,12,6,22,8,10,12,5,21,8,10,8,10,12,10,15,6,12,10,21,26,15,10,5,12,22,12,6,25,10,12,4,26,16,20,30,10,24,2,10,16,20,6,20,30,20,14,10,10,10,6,12,30,25,5,10,15,21,10,10,12,10,12,3,10,21,25,8,10,10,20,25,10,12,26,15,21,16,15,20,12,6,24,5,6,12,21,12,4,12,12,12,10,12,12,12,6,8,12,8,30,2,12,16,6,12,5,20,6,2,22,8,2,10,10,12,12,12,30,10,25,4,12,10,22,24,25,6,10,12,15,21,6,10,12,26,12,30,20,21,26,12,20,10,25,10,12,6,20,25,24,21,12,6,12,21,10,10,27,15,30,26,25],"right_den":[4,15,6,6,18,18,6,10,21,20,20,12,7,30,15,25,6,25,16,12,10,5,20,24,20,28,4,4,24,24,5,10,10,24,6,3,12,6,24,28,24,12,24,28,27,10,24,24,6,15,12,5,22,3,10,3,18,14,5,5,20,15,20,22,24,6,8,10,30,5,4,10,4,20,2,15,6,14,5,10,18,4,16,22,6,10,6,6,5,6,6,20,24,6,6,12,24,14,6,4,15,16,20,15,9,6,20,28,4,30,18,8,16,5,10,6,20,30,10,30,20,12,10,10,3,18,24,20,24,27,10,10,5,10,20,22,12,5,5,10,24,10,15,14,10,10,30,24,16,10,15,10,28,15,24,10,20,12,10,6,6,30,6,20,15,20,20,15,6,15,18,25,5,10,22,6,10,25,10,8,6,3,10,6,6,12,22,24,6,20,15,18],"correct_side":[2,2,2,2,2,2,1,1,1,2,1,1,2,1,1,2,2,2,1,2,2,1,1,1,1,1,2,2,1,1,2,1,1,1,2,2,1,2,1,1,1,1,1,1,2,1,1,1,2,2,2,2,2,2,1,2,1,2,2,2,1,2,2,2,2,2,2,1,2,1,2,1,2,2,2,2,2,2,2,1,2,1,1,2,2,1,2,2,2,2,2,2,1,2,2,2,1,1,2,2,1,1,2,2,2,2,2,1,2,1,1,2,1,1,2,2,1,1,2,1,1,1,2,2,2,1,1,1,1,1,1,2,1,1,1,2,2,1,2,1,1,1,1,2,2,2,1,2,1,1,1,2,1,1,2,1,1,1,2,1,2,1,2,1,2,1,2,1,2,2,2,1,2,1,1,1,1,1,1,2,2,2,1,2,2,1,1,2,1,2,2,1],"img_shown":["img2/300/Incongruent/R/I_Dist_300_LN_4_LD_20_RN_2_RD_4_1.png","img2/300/Incongruent/R/I_Dist_300_LN_13_LD_26_RN_12_RD_15_1.png","img2/200/Equal/R/E_Dist_200_LN_3_LD_10_RN_3_RD_6_1.png","img2/500/Incongruent/R/I_Dist_500_LN_7_LD_21_RN_5_RD_6_1.png","img2/500/Congruent/R/C_Dist_500_LN_1_LD_9_RN_11_RD_18_1.png","img2/100/Incongruent/R/I_Dist_100_LN_10_LD_25_RN_9_RD_18_1.png","img2/500/Congruent/L/C_Dist_500_LN_6_LD_9_RN_1_RD_6_0.png","img2/300/Congruent/L/C_Dist_300_LN_20_LD_25_RN_5_RD_10_0.png","img2/200/Congruent/L/C_Dist_200_LN_8_LD_15_RN_7_RD_21_0.png","img2/200/Congruent/R/C_Dist_200_LN_3_LD_12_RN_9_RD_20_1.png","img2/200/Incongruent/L/I_Dist_200_LN_3_LD_4_RN_11_RD_20_0.png","img2/300/Incongruent/L/I_Dist_300_LN_4_LD_5_RN_6_RD_12_0.png","img2/500/Congruent/R/C_Dist_500_LN_5_LD_14_RN_6_RD_7_1.png","img2/200/Incongruent/L/I_Dist_200_LN_4_LD_6_RN_14_RD_30_0.png","img2/200/Congruent/L/C_Dist_200_LN_12_LD_20_RN_6_RD_15_0.png","img2/100/Congruent/R/C_Dist_100_LN_6_LD_12_RN_15_RD_25_1.png","img2/300/Congruent/R/C_Dist_300_LN_1_LD_5_RN_3_RD_6_1.png","img2/300/Congruent/R/C_Dist_300_LN_7_LD_14_RN_20_RD_25_1.png","img2/100/Incongruent/L/I_Dist_100_LN_3_LD_5_RN_8_RD_16_0.png","img2/100/Congruent/R/C_Dist_100_LN_2_LD_5_RN_6_RD_12_1.png","img2/100/Incongruent/R/I_Dist_100_LN_9_LD_18_RN_6_RD_10_1.png","img2/100/Congruent/L/C_Dist_100_LN_3_LD_6_RN_2_RD_5_0.png","img2/300/Equal/L/E_Dist_300_LN_9_LD_12_RN_9_RD_20_0.png","img2/500/Equal/L/E_Dist_500_LN_6_LD_8_RN_6_RD_24_0.png","img2/100/Incongruent/L/I_Dist_100_LN_2_LD_4_RN_8_RD_20_0.png","img2/200/Incongruent/L/I_Dist_200_LN_7_LD_10_RN_14_RD_28_0.png","img2/100/Incongruent/R/I_Dist_100_LN_12_LD_30_RN_2_RD_4_1.png","img2/300/Incongruent/R/I_Dist_300_LN_4_LD_20_RN_2_RD_4_1.png","img2/200/Incongruent/L/I_Dist_200_LN_7_LD_10_RN_12_RD_24_0.png","img2/500/Equal/L/E_Dist_500_LN_6_LD_8_RN_6_RD_24_0.png","img2/100/Incongruent/R/I_Dist_100_LN_6_LD_12_RN_3_RD_5_1.png","img2/200/Equal/L/E_Dist_200_LN_3_LD_6_RN_3_RD_10_0.png","img2/200/Congruent/L/C_Dist_200_LN_11_LD_22_RN_3_RD_10_0.png","img2/500/Equal/L/E_Dist_500_LN_6_LD_8_RN_6_RD_24_0.png","img2/200/Equal/R/E_Dist_200_LN_3_LD_10_RN_3_RD_6_1.png","img2/500/Equal/R/E_Dist_500_LN_2_LD_12_RN_2_RD_3_1.png","img2/300/Incongruent/L/I_Dist_300_LN_4_LD_5_RN_6_RD_12_0.png","img2/500/Incongruent/R/I_Dist_500_LN_7_LD_21_RN_5_RD_6_1.png","img2/500/Equal/L/E_Dist_500_LN_6_LD_8_RN_6_RD_24_0.png","img2/200/Incongruent/L/I_Dist_200_LN_7_LD_10_RN_14_RD_28_0.png","img2/500/Equal/L/E_Dist_500_LN_6_LD_8_RN_6_RD_24_0.png","img2/100/Equal/L/E_Dist_100_LN_6_LD_10_RN_6_RD_12_0.png","img2/500/Congruent/L/C_Dist_500_LN_8_LD_12_RN_4_RD_24_0.png","img2/200/Incongruent/L/I_Dist_200_LN_7_LD_10_RN_14_RD_28_0.png","img2/200/Congruent/R/C_Dist_200_LN_7_LD_15_RN_18_RD_27_1.png","img2/200/Equal/L/E_Dist_200_LN_3_LD_6_RN_3_RD_10_0.png","img2/500/Congruent/L/C_Dist_500_LN_8_LD_12_RN_4_RD_24_0.png","img2/200/Incongruent/L/I_Dist_200_LN_7_LD_10_RN_12_RD_24_0.png","img2/500/Incongruent/R/I_Dist_500_LN_7_LD_21_RN_5_RD_6_1.png","img2/300/Incongruent/R/I_Dist_300_LN_13_LD_26_RN_12_RD_15_1.png","img2/300/Congruent/R/C_Dist_300_LN_8_LD_15_RN_10_RD_12_1.png","img2/300/Equal/R/E_Dist_300_LN_3_LD_10_RN_3_RD_5_1.png","img2/300/Congruent/R/C_Dist_300_LN_1_LD_5_RN_11_RD_22_1.png","img2/500/Equal/R/E_Dist_500_LN_2_LD_12_RN_2_RD_3_1.png","img2/200/Congruent/L/C_Dist_200_LN_11_LD_22_RN_3_RD_10_0.png","img2/500/Equal/R/E_Dist_500_LN_2_LD_12_RN_2_RD_3_1.png","img2/500/Incongruent/L/I_Dist_500_LN_5_LD_6_RN_6_RD_18_0.png","img2/300/Congruent/R/C_Dist_300_LN_5_LD_25_RN_7_RD_14_1.png","img2/300/Equal/R/E_Dist_300_LN_3_LD_10_RN_3_RD_5_1.png","img2/100/Incongruent/R/I_Dist_100_LN_6_LD_12_RN_3_RD_5_1.png","img2/100/Incongruent/L/I_Dist_100_LN_2_LD_4_RN_8_RD_20_0.png","img2/300/Incongruent/R/I_Dist_300_LN_13_LD_26_RN_12_RD_15_1.png","img2/500/Congruent/R/C_Dist_500_LN_4_LD_16_RN_15_RD_20_1.png","img2/200/Congruent/R/C_Dist_200_LN_6_LD_20_RN_11_RD_22_1.png","img2/300/Congruent/R/C_Dist_300_LN_1_LD_30_RN_8_RD_24_1.png","img2/200/Equal/R/E_Dist_200_LN_3_LD_10_RN_3_RD_6_1.png","img2/500/Equal/R/E_Dist_500_LN_6_LD_24_RN_6_RD_8_1.png","img2/200/Incongruent/L/I_Dist_200_LN_1_LD_2_RN_3_RD_10_0.png","img2/100/Congruent/R/C_Dist_100_LN_4_LD_10_RN_15_RD_30_1.png","img2/300/Congruent/L/C_Dist_300_LN_8_LD_16_RN_1_RD_5_0.png","img2/200/Incongruent/R/I_Dist_200_LN_11_LD_20_RN_3_RD_4_1.png","img2/200/Equal/L/E_Dist_200_LN_3_LD_6_RN_3_RD_10_0.png","img2/200/Incongruent/R/I_Dist_200_LN_11_LD_20_RN_3_RD_4_1.png","img2/300/Equal/R/E_Dist_300_LN_18_LD_30_RN_18_RD_20_1.png","img2/100/Incongruent/R/I_Dist_100_LN_8_LD_20_RN_1_RD_2_1.png","img2/100/Congruent/R/C_Dist_100_LN_7_LD_14_RN_9_RD_15_1.png","img2/200/Equal/R/E_Dist_200_LN_3_LD_10_RN_3_RD_6_1.png","img2/200/Congruent/R/C_Dist_200_LN_3_LD_10_RN_7_RD_14_1.png","img2/300/Equal/R/E_Dist_300_LN_3_LD_10_RN_3_RD_5_1.png","img2/200/Equal/L/E_Dist_200_LN_3_LD_6_RN_3_RD_10_0.png","img2/500/Congruent/R/C_Dist_500_LN_2_LD_12_RN_12_RD_18_1.png","img2/200/Congruent/L/C_Dist_200_LN_21_LD_30_RN_2_RD_4_0.png","img2/300/Congruent/L/C_Dist_300_LN_20_LD_25_RN_8_RD_16_0.png","img2/300/Congruent/R/C_Dist_300_LN_1_LD_5_RN_11_RD_22_1.png","img2/200/Equal/R/E_Dist_200_LN_3_LD_10_RN_3_RD_6_1.png","img2/200/Congruent/L/C_Dist_200_LN_12_LD_15_RN_6_RD_10_0.png","img2/500/Incongruent/R/I_Dist_500_LN_7_LD_21_RN_5_RD_6_1.png","img2/200/Equal/R/E_Dist_200_LN_3_LD_10_RN_3_RD_6_1.png","img2/300/Equal/R/E_Dist_300_LN_3_LD_10_RN_3_RD_5_1.png","img2/500/Congruent/R/C_Dist_500_LN_2_LD_12_RN_4_RD_6_1.png","img2/200/Equal/R/E_Dist_200_LN_3_LD_10_RN_3_RD_6_1.png","img2/200/Congruent/R/C_Dist_200_LN_3_LD_12_RN_9_RD_20_1.png","img2/500/Incongruent/L/I_Dist_500_LN_2_LD_3_RN_4_RD_24_0.png","img2/200/Equal/R/E_Dist_200_LN_3_LD_10_RN_3_RD_6_1.png","img2/500/Incongruent/R/I_Dist_500_LN_7_LD_21_RN_5_RD_6_1.png","img2/300/Congruent/R/C_Dist_300_LN_5_LD_25_RN_6_RD_12_1.png","img2/500/Incongruent/L/I_Dist_500_LN_7_LD_8_RN_9_RD_24_0.png","img2/100/Incongruent/L/I_Dist_100_LN_6_LD_10_RN_7_RD_14_0.png","img2/200/Equal/R/E_Dist_200_LN_3_LD_10_RN_3_RD_6_1.png","img2/300/Incongruent/R/I_Dist_300_LN_4_LD_20_RN_2_RD_4_1.png","img2/200/Congruent/L/C_Dist_200_LN_20_LD_25_RN_9_RD_15_0.png","img2/200/Incongruent/L/I_Dist_200_LN_7_LD_10_RN_8_RD_16_0.png","img2/500/Congruent/R/C_Dist_500_LN_3_LD_12_RN_15_RD_20_1.png","img2/300/Incongruent/R/I_Dist_300_LN_13_LD_26_RN_12_RD_15_1.png","img2/200/Incongruent/R/I_Dist_200_LN_7_LD_15_RN_6_RD_9_1.png","img2/500/Incongruent/R/I_Dist_500_LN_7_LD_21_RN_5_RD_6_1.png","img2/500/Congruent/R/C_Dist_500_LN_4_LD_16_RN_15_RD_20_1.png","img2/100/Incongruent/L/I_Dist_100_LN_9_LD_15_RN_14_RD_28_0.png","img2/300/Incongruent/R/I_Dist_300_LN_4_LD_20_RN_2_RD_4_1.png","img2/100/Equal/L/E_Dist_100_LN_2_LD_12_RN_2_RD_30_0.png","img2/500/Incongruent/L/I_Dist_500_LN_5_LD_6_RN_6_RD_18_0.png","img2/500/Equal/R/E_Dist_500_LN_6_LD_24_RN_6_RD_8_1.png","img2/100/Incongruent/L/I_Dist_100_LN_3_LD_5_RN_8_RD_16_0.png","img2/100/Congruent/L/C_Dist_100_LN_3_LD_6_RN_2_RD_5_0.png","img2/100/Equal/R/E_Dist_100_LN_6_LD_12_RN_6_RD_10_1.png","img2/500/Incongruent/R/I_Dist_500_LN_7_LD_21_RN_5_RD_6_1.png","img2/300/Equal/L/E_Dist_300_LN_9_LD_12_RN_9_RD_20_0.png","img2/300/Incongruent/L/I_Dist_300_LN_2_LD_4_RN_6_RD_30_0.png","img2/100/Equal/R/E_Dist_100_LN_6_LD_12_RN_6_RD_10_1.png","img2/100/Equal/L/E_Dist_100_LN_2_LD_12_RN_2_RD_30_0.png","img2/300/Equal/L/E_Dist_300_LN_9_LD_12_RN_9_RD_20_0.png","img2/100/Equal/L/E_Dist_100_LN_6_LD_10_RN_6_RD_12_0.png","img2/100/Equal/R/E_Dist_100_LN_6_LD_12_RN_6_RD_10_1.png","img2/100/Equal/R/E_Dist_100_LN_6_LD_12_RN_6_RD_10_1.png","img2/500/Equal/R/E_Dist_500_LN_2_LD_12_RN_2_RD_3_1.png","img2/500/Incongruent/L/I_Dist_500_LN_5_LD_6_RN_6_RD_18_0.png","img2/500/Equal/L/E_Dist_500_LN_6_LD_8_RN_6_RD_24_0.png","img2/300/Equal/L/E_Dist_300_LN_9_LD_12_RN_9_RD_20_0.png","img2/500/Equal/L/E_Dist_500_LN_6_LD_8_RN_6_RD_24_0.png","img2/500/Congruent/L/C_Dist_500_LN_25_LD_30_RN_9_RD_27_0.png","img2/200/Incongruent/L/I_Dist_200_LN_1_LD_2_RN_3_RD_10_0.png","img2/100/Equal/R/E_Dist_100_LN_6_LD_12_RN_6_RD_10_1.png","img2/300/Congruent/L/C_Dist_300_LN_8_LD_16_RN_1_RD_5_0.png","img2/100/Incongruent/L/I_Dist_100_LN_3_LD_6_RN_4_RD_10_0.png","img2/300/Equal/L/E_Dist_300_LN_9_LD_12_RN_9_RD_20_0.png","img2/100/Congruent/R/C_Dist_100_LN_2_LD_5_RN_11_RD_22_1.png","img2/300/Equal/R/E_Dist_300_LN_9_LD_20_RN_9_RD_12_1.png","img2/100/Congruent/L/C_Dist_100_LN_3_LD_6_RN_2_RD_5_0.png","img2/100/Congruent/R/C_Dist_100_LN_1_LD_2_RN_3_RD_5_1.png","img2/300/Congruent/L/C_Dist_300_LN_11_LD_22_RN_2_RD_10_0.png","img2/500/Equal/L/E_Dist_500_LN_6_LD_8_RN_6_RD_24_0.png","img2/200/Incongruent/L/I_Dist_200_LN_1_LD_2_RN_3_RD_10_0.png","img2/200/Congruent/L/C_Dist_200_LN_4_LD_10_RN_3_RD_15_0.png","img2/200/Congruent/R/C_Dist_200_LN_3_LD_10_RN_7_RD_14_1.png","img2/100/Equal/R/E_Dist_100_LN_6_LD_12_RN_6_RD_10_1.png","img2/100/Equal/R/E_Dist_100_LN_6_LD_12_RN_6_RD_10_1.png","img2/100/Equal/L/E_Dist_100_LN_2_LD_12_RN_2_RD_30_0.png","img2/300/Congruent/R/C_Dist_300_LN_1_LD_30_RN_8_RD_24_1.png","img2/200/Incongruent/L/I_Dist_200_LN_7_LD_10_RN_8_RD_16_0.png","img2/100/Congruent/L/C_Dist_100_LN_10_LD_25_RN_3_RD_10_0.png","img2/100/Incongruent/L/I_Dist_100_LN_2_LD_4_RN_6_RD_15_0.png","img2/100/Equal/R/E_Dist_100_LN_6_LD_12_RN_6_RD_10_1.png","img2/300/Incongruent/L/I_Dist_300_LN_8_LD_10_RN_14_RD_28_0.png","img2/100/Congruent/L/C_Dist_100_LN_11_LD_22_RN_6_RD_15_0.png","img2/500/Congruent/R/C_Dist_500_LN_10_LD_24_RN_22_RD_24_1.png","img2/100/Congruent/L/C_Dist_100_LN_10_LD_25_RN_3_RD_10_0.png","img2/300/Incongruent/L/I_Dist_300_LN_3_LD_6_RN_4_RD_20_0.png","img2/100/Equal/L/E_Dist_100_LN_6_LD_10_RN_6_RD_12_0.png","img2/100/Equal/R/E_Dist_100_LN_6_LD_12_RN_6_RD_10_1.png","img2/200/Congruent/L/C_Dist_200_LN_8_LD_15_RN_2_RD_6_0.png","img2/500/Incongruent/R/I_Dist_500_LN_7_LD_21_RN_5_RD_6_1.png","img2/200/Incongruent/L/I_Dist_200_LN_4_LD_6_RN_14_RD_30_0.png","img2/200/Equal/R/E_Dist_200_LN_3_LD_10_RN_3_RD_6_1.png","img2/300/Equal/L/E_Dist_300_LN_9_LD_12_RN_9_RD_20_0.png","img2/300/Incongruent/R/I_Dist_300_LN_13_LD_26_RN_12_RD_15_1.png","img2/300/Equal/L/E_Dist_300_LN_9_LD_12_RN_9_RD_20_0.png","img2/300/Equal/R/E_Dist_300_LN_18_LD_30_RN_18_RD_20_1.png","img2/300/Congruent/L/C_Dist_300_LN_18_LD_20_RN_9_RD_15_0.png","img2/500/Incongruent/R/I_Dist_500_LN_7_LD_21_RN_5_RD_6_1.png","img2/300/Incongruent/R/I_Dist_300_LN_13_LD_26_RN_12_RD_15_1.png","img2/500/Congruent/R/C_Dist_500_LN_2_LD_12_RN_12_RD_18_1.png","img2/100/Congruent/L/C_Dist_100_LN_6_LD_20_RN_5_RD_25_0.png","img2/300/Equal/R/E_Dist_300_LN_3_LD_10_RN_3_RD_5_1.png","img2/100/Congruent/L/C_Dist_100_LN_10_LD_25_RN_3_RD_10_0.png","img2/100/Incongruent/L/I_Dist_100_LN_6_LD_10_RN_11_RD_22_0.png","img2/500/Congruent/L/C_Dist_500_LN_8_LD_12_RN_1_RD_6_0.png","img2/200/Equal/L/E_Dist_200_LN_3_LD_6_RN_3_RD_10_0.png","img2/100/Congruent/L/C_Dist_100_LN_6_LD_20_RN_5_RD_25_0.png","img2/100/Congruent/L/C_Dist_100_LN_10_LD_25_RN_3_RD_10_0.png","img2/500/Equal/R/E_Dist_500_LN_6_LD_24_RN_6_RD_8_1.png","img2/500/Incongruent/R/I_Dist_500_LN_7_LD_21_RN_5_RD_6_1.png","img2/500/Equal/R/E_Dist_500_LN_2_LD_12_RN_2_RD_3_1.png","img2/200/Equal/L/E_Dist_200_LN_3_LD_6_RN_3_RD_10_0.png","img2/500/Congruent/R/C_Dist_500_LN_2_LD_12_RN_4_RD_6_1.png","img2/500/Incongruent/R/I_Dist_500_LN_7_LD_21_RN_5_RD_6_1.png","img2/100/Equal/L/E_Dist_100_LN_6_LD_10_RN_6_RD_12_0.png","img2/100/Incongruent/L/I_Dist_100_LN_6_LD_10_RN_11_RD_22_0.png","img2/500/Congruent/R/C_Dist_500_LN_9_LD_27_RN_20_RD_24_1.png","img2/200/Congruent/L/C_Dist_200_LN_8_LD_15_RN_2_RD_6_0.png","img2/300/Equal/R/E_Dist_300_LN_18_LD_30_RN_18_RD_20_1.png","img2/300/Incongruent/R/I_Dist_300_LN_13_LD_26_RN_12_RD_15_1.png","img2/300/Congruent/L/C_Dist_300_LN_20_LD_25_RN_9_RD_18_0.png"],"dist100_C":[["C_Dist_100_LN_10_LD_25_RN_3_RD_10_0.png","C_Dist_100_LN_11_LD_22_RN_4_RD_10_0.png","C_Dist_100_LN_11_LD_22_RN_6_RD_15_0.png","C_Dist_100_LN_15_LD_25_RN_13_RD_26_0.png","C_Dist_100_LN_3_LD_6_RN_2_RD_5_0.png","C_Dist_100_LN_6_LD_20_RN_5_RD_25_0.png","C_Dist_100_LN_8_LD_16_RN_2_RD_5_0.png","C_Dist_100_LN_9_LD_15_RN_8_RD_16_0.png"],["C_Dist_100_LN_1_LD_2_RN_18_RD_30_1.png","C_Dist_100_LN_1_LD_2_RN_3_RD_5_1.png","C_Dist_100_LN_12_LD_30_RN_13_RD_26_1.png","C_Dist_100_LN_2_LD_5_RN_11_RD_22_1.png","C_Dist_100_LN_2_LD_5_RN_6_RD_12_1.png","C_Dist_100_LN_3_LD_20_RN_4_RD_16_1.png","C_Dist_100_LN_4_LD_10_RN_15_RD_30_1.png","C_Dist_100_LN_4_LD_8_RN_6_RD_10_1.png","C_Dist_100_LN_6_LD_12_RN_15_RD_25_1.png","C_Dist_100_LN_7_LD_14_RN_15_RD_25_1.png","C_Dist_100_LN_7_LD_14_RN_9_RD_15_1.png"]],"dist100_I":[["I_Dist_100_LN_1_LD_2_RN_8_RD_20_0.png","I_Dist_100_LN_2_LD_4_RN_6_RD_15_0.png","I_Dist_100_LN_2_LD_4_RN_8_RD_20_0.png","I_Dist_100_LN_3_LD_5_RN_11_RD_22_0.png","I_Dist_100_LN_3_LD_5_RN_8_RD_16_0.png","I_Dist_100_LN_3_LD_6_RN_4_RD_10_0.png","I_Dist_100_LN_3_LD_9_RN_7_RD_30_0.png","I_Dist_100_LN_4_LD_8_RN_8_RD_20_0.png","I_Dist_100_LN_6_LD_10_RN_11_RD_22_0.png","I_Dist_100_LN_6_LD_10_RN_13_RD_26_0.png","I_Dist_100_LN_6_LD_10_RN_7_RD_14_0.png","I_Dist_100_LN_9_LD_10_RN_20_RD_25_0.png","I_Dist_100_LN_9_LD_15_RN_13_RD_26_0.png","I_Dist_100_LN_9_LD_15_RN_14_RD_28_0.png"],["I_Dist_100_LN_10_LD_25_RN_8_RD_16_1.png","I_Dist_100_LN_10_LD_25_RN_9_RD_18_1.png","I_Dist_100_LN_11_LD_22_RN_9_RD_15_1.png","I_Dist_100_LN_12_LD_24_RN_9_RD_15_1.png","I_Dist_100_LN_12_LD_30_RN_2_RD_4_1.png","I_Dist_100_LN_13_LD_26_RN_12_RD_20_1.png","I_Dist_100_LN_13_LD_26_RN_6_RD_10_1.png","I_Dist_100_LN_17_LD_30_RN_10_RD_15_1.png","I_Dist_100_LN_6_LD_12_RN_3_RD_5_1.png","I_Dist_100_LN_8_LD_16_RN_6_RD_10_1.png","I_Dist_100_LN_8_LD_20_RN_1_RD_2_1.png","I_Dist_100_LN_9_LD_18_RN_6_RD_10_1.png"]],"dist100_S":[["E_Dist_100_LN_2_LD_12_RN_2_RD_30_0.png","E_Dist_100_LN_6_LD_10_RN_6_RD_12_0.png"],["E_Dist_100_LN_6_LD_12_RN_6_RD_10_1.png"]],"dist200_C":[["C_Dist_200_LN_11_LD_22_RN_3_RD_10_0.png","C_Dist_200_LN_12_LD_15_RN_6_RD_10_0.png","C_Dist_200_LN_12_LD_20_RN_6_RD_15_0.png","C_Dist_200_LN_14_LD_28_RN_6_RD_20_0.png","C_Dist_200_LN_15_LD_25_RN_4_RD_10_0.png","C_Dist_200_LN_16_LD_20_RN_12_RD_20_0.png","C_Dist_200_LN_16_LD_30_RN_9_RD_27_0.png","C_Dist_200_LN_20_LD_25_RN_9_RD_15_0.png","C_Dist_200_LN_21_LD_30_RN_2_RD_4_0.png","C_Dist_200_LN_4_LD_10_RN_3_RD_15_0.png","C_Dist_200_LN_4_LD_8_RN_3_RD_10_0.png","C_Dist_200_LN_6_LD_15_RN_3_RD_15_0.png","C_Dist_200_LN_7_LD_21_RN_2_RD_15_0.png","C_Dist_200_LN_8_LD_15_RN_2_RD_6_0.png","C_Dist_200_LN_8_LD_15_RN_3_RD_9_0.png","C_Dist_200_LN_8_LD_15_RN_7_RD_21_0.png","C_Dist_200_LN_9_LD_20_RN_4_RD_16_0.png"],["C_Dist_200_LN_1_LD_2_RN_21_RD_30_1.png","C_Dist_200_LN_13_LD_26_RN_14_RD_20_1.png","C_Dist_200_LN_3_LD_10_RN_11_RD_22_1.png","C_Dist_200_LN_3_LD_10_RN_14_RD_28_1.png","C_Dist_200_LN_3_LD_10_RN_7_RD_14_1.png","C_Dist_200_LN_3_LD_12_RN_9_RD_20_1.png","C_Dist_200_LN_3_LD_6_RN_14_RD_20_1.png","C_Dist_200_LN_5_LD_10_RN_14_RD_20_1.png","C_Dist_200_LN_6_LD_12_RN_7_RD_10_1.png","C_Dist_200_LN_6_LD_20_RN_11_RD_22_1.png","C_Dist_200_LN_7_LD_15_RN_18_RD_27_1.png","C_Dist_200_LN_9_LD_30_RN_13_RD_26_1.png"]],"dist200_I":[["I_Dist_200_LN_1_LD_2_RN_3_RD_10_0.png","I_Dist_200_LN_1_LD_3_RN_2_RD_15_0.png","I_Dist_200_LN_3_LD_4_RN_11_RD_20_0.png","I_Dist_200_LN_4_LD_5_RN_6_RD_10_0.png","I_Dist_200_LN_4_LD_6_RN_14_RD_30_0.png","I_Dist_200_LN_7_LD_10_RN_12_RD_24_0.png","I_Dist_200_LN_7_LD_10_RN_14_RD_28_0.png","I_Dist_200_LN_7_LD_10_RN_8_RD_16_0.png"],["I_Dist_200_LN_11_LD_20_RN_3_RD_4_1.png","I_Dist_200_LN_14_LD_30_RN_12_RD_18_1.png","I_Dist_200_LN_14_LD_30_RN_6_RD_9_1.png","I_Dist_200_LN_3_LD_10_RN_1_RD_2_1.png","I_Dist_200_LN_4_LD_30_RN_1_RD_3_1.png","I_Dist_200_LN_6_LD_20_RN_3_RD_6_1.png","I_Dist_200_LN_7_LD_15_RN_4_RD_6_1.png","I_Dist_200_LN_7_LD_15_RN_6_RD_9_1.png","I_Dist_200_LN_9_LD_15_RN_8_RD_10_1.png"]],"dist200_S":[["E_Dist_200_LN_3_LD_6_RN_3_RD_10_0.png"],["E_Dist_200_LN_3_LD_10_RN_3_RD_6_1.png"]],"dist300_C":[["C_Dist_300_LN_11_LD_22_RN_1_RD_5_0.png","C_Dist_300_LN_11_LD_22_RN_2_RD_10_0.png","C_Dist_300_LN_11_LD_22_RN_4_RD_20_0.png","C_Dist_300_LN_12_LD_24_RN_2_RD_10_0.png","C_Dist_300_LN_18_LD_20_RN_9_RD_15_0.png","C_Dist_300_LN_20_LD_25_RN_13_RD_26_0.png","C_Dist_300_LN_20_LD_25_RN_14_RD_28_0.png","C_Dist_300_LN_20_LD_25_RN_5_RD_10_0.png","C_Dist_300_LN_20_LD_25_RN_8_RD_16_0.png","C_Dist_300_LN_20_LD_25_RN_9_RD_18_0.png","C_Dist_300_LN_24_LD_30_RN_2_RD_4_0.png","C_Dist_300_LN_24_LD_30_RN_8_RD_16_0.png","C_Dist_300_LN_3_LD_6_RN_2_RD_10_0.png","C_Dist_300_LN_4_LD_10_RN_1_RD_10_0.png","C_Dist_300_LN_4_LD_5_RN_2_RD_4_0.png","C_Dist_300_LN_8_LD_16_RN_1_RD_5_0.png","C_Dist_300_LN_9_LD_10_RN_3_RD_5_0.png"],["C_Dist_300_LN_1_LD_20_RN_7_RD_20_1.png","C_Dist_300_LN_1_LD_3_RN_19_RD_30_1.png","C_Dist_300_LN_1_LD_30_RN_8_RD_24_1.png","C_Dist_300_LN_1_LD_5_RN_11_RD_22_1.png","C_Dist_300_LN_1_LD_5_RN_3_RD_6_1.png","C_Dist_300_LN_1_LD_5_RN_6_RD_12_1.png","C_Dist_300_LN_2_LD_10_RN_12_RD_24_1.png","C_Dist_300_LN_2_LD_20_RN_10_RD_25_1.png","C_Dist_300_LN_3_LD_12_RN_11_RD_20_1.png","C_Dist_300_LN_3_LD_6_RN_4_RD_5_1.png","C_Dist_300_LN_4_LD_20_RN_13_RD_26_1.png","C_Dist_300_LN_5_LD_25_RN_6_RD_12_1.png","C_Dist_300_LN_5_LD_25_RN_7_RD_14_1.png","C_Dist_300_LN_7_LD_14_RN_20_RD_25_1.png","C_Dist_300_LN_8_LD_15_RN_10_RD_12_1.png"]],"dist300_I":[["I_Dist_300_LN_1_LD_2_RN_2_RD_10_0.png","I_Dist_300_LN_1_LD_2_RN_3_RD_15_0.png","I_Dist_300_LN_2_LD_4_RN_6_RD_30_0.png","I_Dist_300_LN_3_LD_6_RN_4_RD_20_0.png","I_Dist_300_LN_4_LD_5_RN_6_RD_12_0.png","I_Dist_300_LN_4_LD_5_RN_8_RD_16_0.png","I_Dist_300_LN_7_LD_10_RN_8_RD_20_0.png","I_Dist_300_LN_8_LD_10_RN_14_RD_28_0.png","I_Dist_300_LN_8_LD_10_RN_9_RD_18_0.png"],["I_Dist_300_LN_13_LD_26_RN_12_RD_15_1.png","I_Dist_300_LN_4_LD_20_RN_2_RD_4_1.png"]],"dist300_S":[["E_Dist_300_LN_9_LD_12_RN_9_RD_20_0.png"],["E_Dist_300_LN_18_LD_30_RN_18_RD_20_1.png","E_Dist_300_LN_3_LD_10_RN_3_RD_5_1.png","E_Dist_300_LN_9_LD_20_RN_9_RD_12_1.png"]],"dist500_C":[["C_Dist_500_LN_10_LD_13_RN_7_RD_26_0.png","C_Dist_500_LN_10_LD_15_RN_4_RD_24_0.png","C_Dist_500_LN_12_LD_16_RN_3_RD_12_0.png","C_Dist_500_LN_12_LD_18_RN_4_RD_24_0.png","C_Dist_500_LN_15_LD_18_RN_5_RD_15_0.png","C_Dist_500_LN_15_LD_20_RN_1_RD_4_0.png","C_Dist_500_LN_18_LD_27_RN_1_RD_6_0.png","C_Dist_500_LN_20_LD_24_RN_1_RD_3_0.png","C_Dist_500_LN_20_LD_24_RN_3_RD_9_0.png","C_Dist_500_LN_20_LD_24_RN_7_RD_21_0.png","C_Dist_500_LN_20_LD_28_RN_3_RD_14_0.png","C_Dist_500_LN_21_LD_28_RN_6_RD_24_0.png","C_Dist_500_LN_22_LD_28_RN_2_RD_7_0.png","C_Dist_500_LN_25_LD_30_RN_9_RD_27_0.png","C_Dist_500_LN_4_LD_6_RN_1_RD_6_0.png","C_Dist_500_LN_5_LD_6_RN_2_RD_6_0.png","C_Dist_500_LN_6_LD_9_RN_1_RD_6_0.png","C_Dist_500_LN_7_LD_10_RN_1_RD_5_0.png","C_Dist_500_LN_8_LD_12_RN_1_RD_6_0.png","C_Dist_500_LN_8_LD_12_RN_4_RD_24_0.png"],["C_Dist_500_LN_1_LD_4_RN_12_RD_16_1.png","C_Dist_500_LN_1_LD_4_RN_9_RD_12_1.png","C_Dist_500_LN_1_LD_9_RN_11_RD_18_1.png","C_Dist_500_LN_10_LD_24_RN_22_RD_24_1.png","C_Dist_500_LN_2_LD_12_RN_10_RD_15_1.png","C_Dist_500_LN_2_LD_12_RN_12_RD_18_1.png","C_Dist_500_LN_2_LD_12_RN_4_RD_6_1.png","C_Dist_500_LN_2_LD_24_RN_7_RD_12_1.png","C_Dist_500_LN_2_LD_5_RN_18_RD_20_1.png","C_Dist_500_LN_2_LD_5_RN_9_RD_10_1.png","C_Dist_500_LN_2_LD_8_RN_12_RD_16_1.png","C_Dist_500_LN_2_LD_8_RN_21_RD_28_1.png","C_Dist_500_LN_3_LD_10_RN_4_RD_5_1.png","C_Dist_500_LN_3_LD_12_RN_15_RD_20_1.png","C_Dist_500_LN_3_LD_30_RN_6_RD_10_1.png","C_Dist_500_LN_3_LD_8_RN_14_RD_16_1.png","C_Dist_500_LN_4_LD_16_RN_15_RD_20_1.png","C_Dist_500_LN_4_LD_24_RN_12_RD_18_1.png","C_Dist_500_LN_5_LD_14_RN_6_RD_7_1.png","C_Dist_500_LN_7_LD_21_RN_20_RD_24_1.png","C_Dist_500_LN_7_LD_28_RN_12_RD_16_1.png","C_Dist_500_LN_7_LD_28_RN_9_RD_12_1.png","C_Dist_500_LN_9_LD_27_RN_20_RD_24_1.png"]],"dist500_I":[["I_Dist_500_LN_2_LD_3_RN_4_RD_24_0.png","I_Dist_500_LN_5_LD_6_RN_6_RD_18_0.png","I_Dist_500_LN_7_LD_8_RN_9_RD_24_0.png"],["I_Dist_500_LN_7_LD_21_RN_5_RD_6_1.png"]],"dist500_S":[["E_Dist_500_LN_6_LD_8_RN_6_RD_24_0.png"],["E_Dist_500_LN_2_LD_12_RN_2_RD_3_1.png","E_Dist_500_LN_6_LD_24_RN_6_RD_8_1.png"]]}},{"start_time":1549308898071,"click_time":1549308900342,"finger_time":1549308899761,"fix_duration":1148.974120283739,"trial":1,"RT":1690,"MT":581,"sideResp":2,"stimulus":[],"xmouse":[406.66668701171875,406.66668701171875,407.3333435058594,407.3333435058594,407.3333435058594,407.3333435058594,407.3333435058594,407.3333435058594,407.3333435058594,407.3333435058594,407.3333435058594,407.3333435058594,407.3333435058594,407.3333435058594,407.3333435058594,407.3333435058594,407.3333435058594,407.3333435058594,407.3333435058594,407.3333435058594,407.3333435058594,407.3333435058594,407.3333435058594,407.3333435058594,407.3333435058594,407.3333435058594,407.3333435058594,407.3333435058594,407.3333435058594,407.3333435058594,407.3333435058594,407.3333435058594,407.3333435058594,407.3333435058594,406.66668701171875,406.66668701171875,406.66668701171875,406.66668701171875,406.66668701171875,406.66668701171875,406.66668701171875,406.66668701171875,406.66668701171875,406.66668701171875,406.66668701171875,406.66668701171875,406.66668701171875,406.66668701171875,406.66668701171875,406.66668701171875,406.66668701171875,406.66668701171875,406.66668701171875,406.66668701171875,406.66668701171875,406.66668701171875,406.66668701171875,406.66668701171875,406.66668701171875,406.66668701171875,406.66668701171875,406.66668701171875,406.66668701171875,406.66668701171875,406.66668701171875,406.66668701171875,406.66668701171875,406.66668701171875,406.66668701171875,406.66668701171875,406.66668701171875,406.66668701171875,406.66668701171875,406.66668701171875,406.66668701171875,406.66668701171875,410.66668701171875,413.3333435058594,416,422.66668701171875,432.66668701171875,437.3333435058594,444.66668701171875,450.66668701171875,454,468.66668701171875,484.66668701171875,492.66668701171875,504,509.3333740234375,529.3333740234375,540.6666870117188,550.6666870117188,556,564,583.3333740234375,590,602.6666870117188,614.6666870117188,620,630.6666870117188,648,653.3333740234375,666.6666870117188,671.3333740234375,683.3333740234375,690,694.6666870117188,699.3333740234375,701.3333740234375,706,708,708.6666870117188],"ymouse":[842.6666870117188,842.6666870117188,843.3333129882812,843.3333129882812,843.3333129882812,843.3333129882812,843.3333129882812,843.3333129882812,843.3333129882812,843.3333129882812,843.3333129882812,843.3333129882812,844,844,844,844,844,844,844,844,844,844,844,844,844.6666870117188,844.6666870117188,844.6666870117188,844.6666870117188,844.6666870117188,844.6666870117188,844.6666870117188,844.6666870117188,844.6666870117188,844.6666870117188,844.6666870117188,844.6666870117188,844.6666870117188,844.6666870117188,844.6666870117188,844.6666870117188,844.6666870117188,844.6666870117188,844.6666870117188,844.6666870117188,844.6666870117188,844.6666870117188,844.6666870117188,844.6666870117188,844.6666870117188,844.6666870117188,845.3333129882812,845.3333129882812,845.3333129882812,845.3333129882812,845.3333129882812,845.3333129882812,845.3333129882812,845.3333129882812,845.3333129882812,845.3333129882812,845.3333129882812,845.3333129882812,845.3333129882812,845.3333129882812,845.3333129882812,845.3333129882812,845.3333129882812,845.3333129882812,845.3333129882812,845.3333129882812,846.6666870117188,846.6666870117188,846.6666870117188,846.6666870117188,846.6666870117188,846.6666870117188,828,819.3333740234375,813.3333740234375,802,786.6666870117188,780.6666870117188,768.6666870117188,756.6666870117188,750.6666870117188,721.3333740234375,693.3333740234375,678,651.3333740234375,636.6666870117188,586.6666870117188,555.3333740234375,526,510,480.66668701171875,434,418.66668701171875,386.66668701171875,355.3333435058594,339.3333435058594,307.3333435058594,260,244,214.6666717529297,201.33334350585938,168,148,137.33334350585938,124.66667175292969,120,108,100.66667175292969,96.66667175292969],"timestamp_mouse":[41,51,70,90,110,131,150,171,190,211,230,250,271,291,310,330,351,370,390,410,431,450,470,490,511,530,550,570,590,610,630,651,670,691,710,730,751,770,791,810,830,850,871,890,910,930,950,971,990,1011,1030,1050,1070,1091,1110,1130,1151,1171,1191,1211,1231,1250,1270,1290,1310,1331,1350,1370,1391,1410,1430,1450,1470,1490,1510,1531,1551,1570,1591,1610,1630,1650,1670,1690,1710,1731,1750,1770,1790,1810,1832,1850,1871,1890,1910,1933,1950,1977,1991,2011,2030,2051,2071,2090,2110,2132,2150,2170,2190,2210,2230,2250,2271],"xSR":350,"ySR":768,"xT1":30,"yT1":0,"xT2":670,"yT2":0,"toosoon":0,"cond_shown":"Incongruent","ratio_trial":300,"L_num":13,"L_den":26,"R_num":12,"R_den":15,"correct_side":2,"subjID":"7","gender":"No_gender","school":"No_school","age":"No_age"},{"start_time":1549308903006,"click_time":1549308905644,"finger_time":1549308905121,"fix_duration":802.0386397215007,"trial":2,"RT":2115,"MT":523,"sideResp":2,"stimulus":[],"xmouse":[393.3333435058594,393.3333435058594,393.3333435058594,393.3333435058594,393.3333435058594,393.3333435058594,393.3333435058594,394.66668701171875,394.66668701171875,394.66668701171875,394.66668701171875,394.66668701171875,394.66668701171875,394.66668701171875,394.66668701171875,394.66668701171875,394.66668701171875,395.3333435058594,395.3333435058594,395.3333435058594,395.3333435058594,395.3333435058594,395.3333435058594,395.3333435058594,395.3333435058594,395.3333435058594,395.3333435058594,396.0000305175781,396.0000305175781,396.0000305175781,396.0000305175781,396.0000305175781,396.0000305175781,396.0000305175781,396.0000305175781,396.0000305175781,396.0000305175781,397.3333435058594,397.3333435058594,397.3333435058594,397.3333435058594,397.3333435058594,397.3333435058594,397.3333435058594,397.3333435058594,397.3333435058594,397.3333435058594,398.0000305175781,398.0000305175781,398.0000305175781,398.0000305175781,398.0000305175781,398.0000305175781,398.0000305175781,398.0000305175781,398.0000305175781,398.0000305175781,398.66668701171875,398.66668701171875,398.66668701171875,398.66668701171875,398.66668701171875,398.66668701171875,398.66668701171875,398.66668701171875,398.66668701171875,398.66668701171875,397.3333435058594,397.3333435058594,397.3333435058594,397.3333435058594,397.3333435058594,397.3333435058594,397.3333435058594,397.3333435058594,397.3333435058594,397.3333435058594,393.3333435058594,393.3333435058594,393.3333435058594,391.3333435058594,389.3333435058594,388,387.3333435058594,386.66668701171875,386,384.66668701171875,384.66668701171875,384.66668701171875,384.66668701171875,385.3333435058594,385.3333435058594,385.3333435058594,385.3333435058594,385.3333435058594,385.3333435058594,385.3333435058594,385.3333435058594,396,399.3333435058594,400.66668701171875,406,408,418,428.66668701171875,452,486,497.3333435058594,521.3333740234375,531.3333740234375,544.6666870117188,556,564.6666870117188,570,579.3333740234375,583.3333740234375,597.3333740234375,607.3333740234375,616.6666870117188,622,632.6666870117188,648,652,661.3333740234375,665.3333740234375,676.6666870117188,691.3333740234375,699.3333740234375,702,706.6666870117188,708.6666870117188,712.6666870117188],"ymouse":[840.6666870117188,840.6666870117188,840.6666870117188,840.6666870117188,840.6666870117188,840.6666870117188,840.6666870117188,840,840,840,840,840,840,840,840,840,840,838.6666870117188,838.6666870117188,838.6666870117188,838.6666870117188,838.6666870117188,838.6666870117188,838.6666870117188,838.6666870117188,838.6666870117188,838.6666870117188,840,840,840,840,840,840,840,840,840,840,840,840,840,840,840,840,840,840,840,840,839.3333740234375,839.3333740234375,839.3333740234375,839.3333740234375,839.3333740234375,839.3333740234375,839.3333740234375,839.3333740234375,839.3333740234375,839.3333740234375,840,840,840,840,840,840,840,840,840,840,833.3333740234375,833.3333740234375,833.3333740234375,833.3333740234375,833.3333740234375,833.3333740234375,833.3333740234375,833.3333740234375,833.3333740234375,833.3333740234375,833.3333740234375,833.3333740234375,833.3333740234375,833.3333740234375,833.3333740234375,834,834,834,833.3333740234375,832,831.3333740234375,830.6666870117188,830,830,829.3333740234375,829.3333740234375,829.3333740234375,829.3333740234375,829.3333740234375,829.3333740234375,829.3333740234375,815.3333740234375,812,810.6666870117188,805.3333740234375,803.3333740234375,793.3333740234375,782.6666870117188,759.3333740234375,720.6666870117188,705.3333740234375,672.6666870117188,658,633.3333740234375,600,574.6666870117188,560,532,518.6666870117188,475.3333435058594,446,416.66668701171875,400.66668701171875,369.3333435058594,318.66668701171875,302.66668701171875,270,251.33334350585938,216.6666717529297,170,144.6666717529297,133.33334350585938,116,105.33333587646484,91.33333587646484],"timestamp_mouse":[30,35,55,76,95,115,135,155,175,195,215,236,255,275,295,315,335,356,375,395,415,435,455,475,496,515,535,555,576,595,615,635,656,675,695,715,736,755,775,796,815,836,855,875,895,916,935,956,975,995,1015,1035,1056,1075,1095,1115,1136,1155,1175,1196,1215,1235,1255,1275,1296,1315,1335,1355,1375,1395,1415,1435,1455,1476,1495,1515,1535,1555,1575,1595,1615,1635,1655,1675,1695,1715,1735,1756,1775,1796,1816,1835,1856,1876,1896,1915,1937,1955,1975,1995,2015,2036,2055,2076,2096,2115,2135,2156,2175,2195,2216,2235,2255,2275,2295,2315,2337,2355,2375,2395,2415,2437,2455,2475,2495,2515,2538,2555,2575,2595,2616,2638],"xSR":350,"ySR":768,"xT1":30,"yT1":0,"xT2":670,"yT2":0,"toosoon":0,"cond_shown":"Equal","ratio_trial":200,"L_num":3,"L_den":10,"R_num":3,"R_den":6,"correct_side":2,"subjID":"7","gender":"No_gender","school":"No_school","age":"No_age"},{"start_time":1549308907461,"click_time":1549308909462,"finger_time":1549308908862,"fix_duration":678.3355319843544,"trial":3,"RT":1401,"MT":600,"sideResp":2,"stimulus":[],"xmouse":[406.66668701171875,406.66668701171875,406.66668701171875,406.66668701171875,406.66668701171875,406.66668701171875,406.66668701171875,408,408,408,408,408,408,408,408,408,408,410,410,410,410,410,410,410,410,410,410,410,410,410,410,410,410,410,410,410,410,409.3333435058594,409.3333435058594,409.3333435058594,409.3333435058594,409.3333435058594,409.3333435058594,409.3333435058594,409.3333435058594,409.3333435058594,409.3333435058594,408.66668701171875,408.66668701171875,408.66668701171875,408.66668701171875,408.66668701171875,408.66668701171875,410.66668701171875,411.3333435058594,418,420,422.66668701171875,422.66668701171875,422.66668701171875,422.66668701171875,422.66668701171875,422.66668701171875,422.66668701171875,422.66668701171875,422.66668701171875,422.66668701171875,431.3333435058594,436.66668701171875,442,474.66668701171875,481.3333435058594,492.66668701171875,498.66668701171875,510,526.6666870117188,538.6666870117188,544,557.3333740234375,562,577.3333740234375,588.6666870117188,599.3333740234375,604,615.3333740234375,623.3333740234375,650,660.6666870117188,664,668.6666870117188,680.6666870117188,690,694.6666870117188,704,704.6666870117188,710,714.6666870117188,717.3333740234375,720,722,724],"ymouse":[836.0000610351562,836.0000610351562,836.0000610351562,836.0000610351562,836.0000610351562,836.0000610351562,836.0000610351562,837.3333740234375,837.3333740234375,837.3333740234375,837.3333740234375,837.3333740234375,837.3333740234375,837.3333740234375,837.3333740234375,837.3333740234375,837.3333740234375,836.0000610351562,836.0000610351562,836.0000610351562,836.0000610351562,836.0000610351562,836.0000610351562,836.0000610351562,836.0000610351562,836.0000610351562,836.0000610351562,836.6666870117188,836.6666870117188,836.6666870117188,836.6666870117188,836.6666870117188,836.6666870117188,836.6666870117188,836.6666870117188,836.6666870117188,836.6666870117188,834.6666870117188,834.6666870117188,834.6666870117188,834.6666870117188,834.6666870117188,834.6666870117188,834.6666870117188,834.6666870117188,834.6666870117188,834.6666870117188,834.0000610351562,834.0000610351562,834.0000610351562,834.0000610351562,834.0000610351562,834.0000610351562,822,820,817.3333740234375,818.0000610351562,820.0000610351562,820.0000610351562,820.0000610351562,820.0000610351562,820.0000610351562,820.0000610351562,820.0000610351562,820.0000610351562,820.0000610351562,820.0000610351562,808,794.6666870117188,783.3333740234375,722.6666870117188,710.6666870117188,686.6666870117188,675.3333740234375,652,616,591.3333740234375,577.3333740234375,550.6666870117188,539.3333740234375,501.3333740234375,476.66668701171875,454,442.66668701171875,416.66668701171875,401.3333435058594,352,324,312,288,246,219.33334350585938,206,183.33334350585938,178.6666717529297,162,138,130.6666717529297,119.33334350585938,110.66667175292969,97.33333587646484],"timestamp_mouse":[2,31,40,61,80,100,120,141,160,181,201,220,240,261,280,300,320,340,361,381,400,421,440,460,480,500,521,540,560,580,601,621,641,661,680,700,720,740,760,780,801,821,840,860,880,900,920,940,960,981,1000,1020,1041,1060,1080,1101,1120,1140,1160,1180,1202,1220,1240,1260,1280,1300,1321,1340,1360,1380,1400,1420,1440,1460,1481,1501,1521,1540,1560,1580,1602,1620,1640,1660,1680,1700,1722,1741,1760,1780,1805,1820,1840,1861,1880,1901,1920,1940,1961,1981,2001],"xSR":350,"ySR":768,"xT1":30,"yT1":0,"xT2":670,"yT2":0,"toosoon":0,"cond_shown":"Incongruent","ratio_trial":500,"L_num":7,"L_den":21,"R_num":5,"R_den":6,"correct_side":2,"subjID":"7","gender":"No_gender","school":"No_school","age":"No_age"},{"start_time":1549308911421,"click_time":1549308913002,"finger_time":1549308912401,"fix_duration":557.1285440974333,"trial":4,"RT":980,"MT":601,"sideResp":2,"stimulus":[],"xmouse":[410.66668701171875,410.66668701171875,410.66668701171875,410.66668701171875,410.66668701171875,410.66668701171875,410.66668701171875,410,410,410,410,410,410,410,410,410,410,409.3333435058594,409.3333435058594,409.3333435058594,409.3333435058594,409.3333435058594,409.3333435058594,409.3333435058594,409.3333435058594,409.3333435058594,409.3333435058594,410,410,410,410,410,410,410,410,410,410,409.3333435058594,408,407.3333435058594,407.3333435058594,408,408.66668701171875,412.66668701171875,416,418,422.66668701171875,428,437.3333435058594,440.66668701171875,452.66668701171875,474.66668701171875,484.66668701171875,496,507.3333435058594,512.6666870117188,526.6666870117188,534,541.3333740234375,548.6666870117188,556.6666870117188,561.3333740234375,569.3333740234375,574,590,595.3333740234375,604.6666870117188,609.3333740234375,623.3333740234375,630.6666870117188,634.6666870117188,639.3333740234375,645.3333740234375,657.3333740234375,660.6666870117188,666.6666870117188,670,677.3333740234375,686,689.3333740234375],"ymouse":[841.3333129882812,841.3333129882812,841.3333129882812,841.3333129882812,841.3333129882812,841.3333129882812,841.3333129882812,840,840,840,840,840,840,840,840,840,840,838.6666870117188,838.6666870117188,838.6666870117188,838.6666870117188,838.6666870117188,838.6666870117188,838.6666870117188,838.6666870117188,838.6666870117188,838.6666870117188,838.6666870117188,838.6666870117188,838.6666870117188,838.6666870117188,838.6666870117188,838.6666870117188,838.6666870117188,838.6666870117188,838.6666870117188,838.6666870117188,836.6666870117188,832.6666870117188,830.6666870117188,826,820,816.6666870117188,808.6666870117188,803.3333740234375,801.3333740234375,795.3333740234375,787.3333740234375,770.6666870117188,763.3333740234375,740,708,696.6666870117188,682.6666870117188,666.6666870117188,658.6666870117188,632.6666870117188,620.6666870117188,599.3333740234375,570,540.6666870117188,525.3333740234375,495.3333435058594,481.3333435058594,421.3333435058594,406,375.3333435058594,359.3333435058594,312.66668701171875,288.66668701171875,276,253.33334350585938,230.6666717529297,196.6666717529297,186,164,153.33334350585938,132,107.33333587646484,93.33333587646484],"timestamp_mouse":[1,29,40,61,80,100,121,140,160,180,200,221,241,260,280,300,320,341,360,380,400,420,440,460,480,500,520,540,560,580,600,621,641,661,681,700,720,740,761,780,800,820,840,862,881,901,920,940,962,980,1001,1020,1040,1061,1080,1100,1120,1140,1160,1181,1201,1220,1240,1260,1283,1300,1320,1341,1363,1380,1400,1421,1440,1462,1480,1500,1520,1541,1562,1580],"xSR":350,"ySR":768,"xT1":30,"yT1":0,"xT2":670,"yT2":0,"toosoon":0,"cond_shown":"Congruent","ratio_trial":500,"L_num":1,"L_den":9,"R_num":11,"R_den":18,"correct_side":2,"subjID":"7","gender":"No_gender","school":"No_school","age":"No_age"},{"start_time":1549308914373,"click_time":1549308917002,"finger_time":1549308916341,"fix_duration":250,"trial":5,"RT":1968,"MT":661,"sideResp":1,"stimulus":[],"xmouse":[399.3333435058594,399.3333435058594,399.3333435058594,399.3333435058594,399.3333435058594,399.3333435058594,399.3333435058594,399.3333435058594,399.3333435058594,399.3333435058594,399.3333435058594,399.3333435058594,399.3333435058594,399.3333435058594,399.3333435058594,399.3333435058594,399.3333435058594,400,400,400,400,400,400,400,400,400,400,402,402,402,402,402,402,402,402,402,402,403.3333435058594,403.3333435058594,403.3333435058594,403.3333435058594,403.3333435058594,403.3333435058594,403.3333435058594,403.3333435058594,403.3333435058594,403.3333435058594,402,402,402,402,402,402,402,402,402,402,402,402,402,402,402,402,402,402,404,406,406.66668701171875,408.66668701171875,410,412,413.3333435058594,413.3333435058594,413.3333435058594,413.3333435058594,413.3333435058594,413.3333435058594,413.3333435058594,413.3333435058594,408.66668701171875,409.3333435058594,412,413.3333435058594,416.66668701171875,418.66668701171875,419.3333435058594,419.3333435058594,416.66668701171875,414.66668701171875,410,406.66668701171875,396,396,396,396,384,378,376.66668701171875,373.3333435058594,370.66668701171875,369.3333435058594,366,364,363.3333435058594,362.66668701171875,362,356,350.66668701171875,336,328,312.66668701171875,292.66668701171875,286,270.66668701171875,255.33334350585938,248.66668701171875,232,218.6666717529297,212.6666717529297,200,194.6666717529297,172,167.33334350585938,154.6666717529297,150,140.6666717529297,127.33334350585938,122.66667175292969,114.66667175292969,110,103.33333587646484],"ymouse":[838.6666870117188,838.6666870117188,838.6666870117188,838.6666870117188,838.6666870117188,838.6666870117188,838.6666870117188,837.3333740234375,837.3333740234375,837.3333740234375,837.3333740234375,837.3333740234375,837.3333740234375,837.3333740234375,837.3333740234375,837.3333740234375,837.3333740234375,836.6666870117188,836.6666870117188,836.6666870117188,836.6666870117188,836.6666870117188,836.6666870117188,836.6666870117188,836.6666870117188,836.6666870117188,836.6666870117188,836.6666870117188,836.6666870117188,836.6666870117188,836.6666870117188,836.6666870117188,836.6666870117188,836.6666870117188,836.6666870117188,836.6666870117188,836.6666870117188,838.6666870117188,838.6666870117188,838.6666870117188,838.6666870117188,838.6666870117188,838.6666870117188,838.6666870117188,838.6666870117188,838.6666870117188,838.6666870117188,835.3333740234375,835.3333740234375,835.3333740234375,835.3333740234375,835.3333740234375,835.3333740234375,835.3333740234375,835.3333740234375,835.3333740234375,835.3333740234375,835.3333740234375,835.3333740234375,835.3333740234375,835.3333740234375,835.3333740234375,835.3333740234375,835.3333740234375,835.3333740234375,819.3333740234375,814.6666870117188,812.6666870117188,810,809.3333740234375,808.6666870117188,809.3333740234375,809.3333740234375,809.3333740234375,809.3333740234375,809.3333740234375,809.3333740234375,809.3333740234375,809.3333740234375,799.3333740234375,792,782,779.3333740234375,775.3333740234375,774.6666870117188,774,774,773.3333740234375,772.6666870117188,771.3333740234375,771.3333740234375,771.3333740234375,771.3333740234375,771.3333740234375,771.3333740234375,770,768,767.3333740234375,766,764.6666870117188,764,762.6666870117188,761.3333740234375,760,758,756,736.6666870117188,724.6666870117188,694,678.6666870117188,652.6666870117188,620.6666870117188,607.3333740234375,576.6666870117188,545.3333740234375,530,488,458.66668701171875,442,410.66668701171875,395.3333435058594,334.66668701171875,318,281.3333435058594,263.3333435058594,226,173.33334350585938,156.6666717529297,128.6666717529297,116.66667175292969,94.66667175292969],"timestamp_mouse":[29,61,69,88,108,129,149,169,188,209,228,248,268,289,308,328,349,369,388,408,429,448,468,488,509,528,549,568,588,608,628,648,668,688,708,728,748,769,788,808,828,849,868,888,908,928,948,968,989,1009,1030,1048,1068,1088,1108,1129,1148,1168,1188,1208,1230,1250,1269,1288,1309,1331,1348,1368,1388,1408,1428,1449,1468,1489,1508,1528,1549,1568,1588,1609,1628,1648,1668,1688,1708,1728,1748,1768,1788,1808,1829,1850,1868,1888,1908,1929,1949,1968,1989,2008,2028,2048,2068,2088,2108,2128,2149,2168,2188,2208,2228,2250,2268,2288,2309,2329,2349,2369,2389,2408,2428,2451,2468,2488,2509,2528,2550,2568,2589,2609,2629],"xSR":350,"ySR":768,"xT1":30,"yT1":0,"xT2":670,"yT2":0,"toosoon":0,"cond_shown":"Incongruent","ratio_trial":100,"L_num":10,"L_den":25,"R_num":9,"R_den":18,"correct_side":2,"subjID":"7","gender":"No_gender","school":"No_school","age":"No_age"},{"start_time":1549308919097,"click_time":1549308921302,"finger_time":1549308920561,"fix_duration":774.6476830115085,"trial":6,"RT":1464,"MT":741,"sideResp":1,"stimulus":[],"xmouse":[404.66668701171875,404.66668701171875,404.66668701171875,404.66668701171875,404.66668701171875,405.3333435058594,405.3333435058594,406,406,406,406,406,406,406,406,406,406,406,406,406,406,406,406,406,406,406.66668701171875,406.66668701171875,406.66668701171875,406.66668701171875,406.66668701171875,406.66668701171875,406.66668701171875,406.66668701171875,406.66668701171875,406.66668701171875,406.66668701171875,406.66668701171875,406.66668701171875,406.66668701171875,406.66668701171875,406.66668701171875,406.66668701171875,406.66668701171875,406.66668701171875,406.66668701171875,406.66668701171875,404,404,404,404,404,404,404,404,404,404,403.3333435058594,403.3333435058594,403.3333435058594,403.3333435058594,403.3333435058594,403.3333435058594,403.3333435058594,403.3333435058594,403.3333435058594,403.3333435058594,393.3333435058594,389.3333435058594,386.66668701171875,384,379.3333435058594,372.66668701171875,362,358.66668701171875,348,344,332,319.3333435058594,316.66668701171875,311.3333435058594,308,296,287.3333435058594,281.3333435058594,275.3333435058594,269.3333435058594,266,258.66668701171875,241.33334350585938,233.33334350585938,215.33334350585938,215.33334350585938,218,206,196.6666717529297,195.33334350585938,192.6666717529297,170,172.6666717529297,167.33334350585938,160.6666717529297,156,185.33334350585938,185.33334350585938,134,116.66667175292969,156.6666717529297,106,152,152,99.33333587646484],"ymouse":[834.6666870117188,834.6666870117188,834.6666870117188,834.6666870117188,834.6666870117188,840.6666870117188,841.3333740234375,842,842,841.3333740234375,841.3333740234375,841.3333740234375,841.3333740234375,841.3333740234375,841.3333740234375,840.6666870117188,840.6666870117188,840.6666870117188,840.6666870117188,840.6666870117188,840.6666870117188,840.6666870117188,840.6666870117188,840.6666870117188,840.6666870117188,841.3333129882812,841.3333129882812,841.3333129882812,841.3333129882812,841.3333129882812,841.3333129882812,841.3333129882812,841.3333129882812,841.3333129882812,841.3333129882812,840.6666870117188,840.6666870117188,840.6666870117188,840.6666870117188,840.6666870117188,840.6666870117188,840.6666870117188,840.6666870117188,840.6666870117188,840.6666870117188,840.6666870117188,840,840,840,840,840,840,840,840,840,840,837.3333129882812,837.3333129882812,837.3333129882812,837.3333129882812,837.3333129882812,837.3333129882812,837.3333129882812,837.3333129882812,837.3333129882812,837.3333129882812,823.3333740234375,814,807.3333740234375,803.3333740234375,794.6666870117188,785.3333740234375,768,760.6666870117188,742,734,712.6666870117188,689.3333740234375,685.3333740234375,676,668,640,617.3333740234375,602,588,574.6666870117188,566.6666870117188,550,508.66668701171875,486.66668701171875,437.3333435058594,437.3333435058594,440.66668701171875,405.3333435058594,379.3333435058594,367.3333435058594,360.0000305175781,299.3333435058594,294.66668701171875,280.66668701171875,260,248.66668701171875,309.3333435058594,309.3333435058594,190,147.33334350585938,236.6666717529297,119.33334350585938,216.6666717529297,216.6666717529297,97.33333587646484],"timestamp_mouse":[4,28,46,64,84,104,124,144,164,184,205,224,244,264,284,304,324,344,364,384,404,425,445,465,484,504,524,544,564,584,604,624,645,664,684,704,724,744,764,784,804,824,844,864,884,904,924,944,965,984,1004,1024,1044,1064,1085,1105,1125,1145,1164,1184,1204,1224,1245,1265,1284,1304,1324,1346,1364,1384,1405,1424,1446,1464,1485,1504,1525,1545,1564,1585,1604,1624,1645,1665,1685,1704,1724,1744,1766,1784,1805,1825,1844,1866,1885,1904,1924,1944,1966,1985,2004,2025,2045,2064,2085,2104,2124,2144,2164,2185,2204],"xSR":350,"ySR":768,"xT1":30,"yT1":0,"xT2":670,"yT2":0,"toosoon":0,"cond_shown":"Congruent","ratio_trial":500,"L_num":6,"L_den":9,"R_num":1,"R_den":6,"correct_side":1,"subjID":"7","gender":"No_gender","school":"No_school","age":"No_age"},{"start_time":1549308923576,"click_time":1549308925621,"finger_time":1549308924982,"fix_duration":1133.4023403644524,"trial":7,"RT":1406,"MT":639,"sideResp":1,"stimulus":[],"xmouse":[401.3333435058594,401.3333435058594,401.3333435058594,401.3333435058594,401.3333435058594,401.3333435058594,401.3333435058594,401.3333435058594,401.3333435058594,401.3333435058594,401.3333435058594,401.3333435058594,401.3333435058594,401.3333435058594,401.3333435058594,401.3333435058594,401.3333435058594,401.3333435058594,401.3333435058594,401.3333435058594,401.3333435058594,401.3333435058594,400.66668701171875,400.66668701171875,400.66668701171875,400.66668701171875,400.66668701171875,400.66668701171875,400.66668701171875,400.66668701171875,400.66668701171875,400.66668701171875,401.3333435058594,401.3333435058594,401.3333435058594,401.3333435058594,401.3333435058594,401.3333435058594,401.3333435058594,401.3333435058594,401.3333435058594,401.3333435058594,401.3333435058594,401.3333435058594,401.3333435058594,401.3333435058594,401.3333435058594,401.3333435058594,401.3333435058594,401.3333435058594,401.3333435058594,401.3333435058594,400.66668701171875,400.66668701171875,400.66668701171875,400.66668701171875,400.66668701171875,400.66668701171875,400.66668701171875,400.66668701171875,400.66668701171875,400.66668701171875,398,398,398,388.66668701171875,386.66668701171875,381.3333435058594,379.3333435058594,376.66668701171875,358,349.3333435058594,335.3333435058594,340.66668701171875,335.3333435058594,318.66668701171875,305.3333435058594,298.66668701171875,278,274.66668701171875,268.66668701171875,244.6666717529297,244.6666717529297,221.33334350585938,221.33334350585938,213.33334350585938,184.6666717529297,192.6666717529297,192.6666717529297,161.33334350585938,161.33334350585938,164,146,134,134,120.66667175292969,140,139.33334350585938,119.33333587646484,119.33333587646484,159.33334350585938,158.6666717529297,108],"ymouse":[840,840,839.3333740234375,839.3333740234375,839.3333740234375,839.3333740234375,839.3333740234375,839.3333740234375,839.3333740234375,839.3333740234375,839.3333740234375,839.3333740234375,839.3333740234375,839.3333740234375,839.3333740234375,839.3333740234375,839.3333740234375,839.3333740234375,839.3333740234375,839.3333740234375,839.3333740234375,839.3333740234375,839.3333740234375,839.3333740234375,839.3333740234375,839.3333740234375,839.3333740234375,839.3333740234375,839.3333740234375,839.3333740234375,839.3333740234375,839.3333740234375,840.6666870117188,840.6666870117188,840.6666870117188,840.6666870117188,840.6666870117188,840.6666870117188,840.6666870117188,840.6666870117188,840.6666870117188,840.6666870117188,840,840,840,840,840,840,840,840,840,840,842,842,842,842,842,842,842,842,842,842,828,828,828,816.6666870117188,814,804.6666870117188,802.6666870117188,801.3333740234375,766,754,717.3333740234375,736,722,679.3333740234375,649.3333740234375,631.3333740234375,580.6666870117188,570.6666870117188,554,494.66668701171875,494.66668701171875,432.66668701171875,432.66668701171875,406.66668701171875,334.66668701171875,349.3333435058594,349.3333435058594,259.3333435058594,259.3333435058594,252.66668701171875,208,174.00001525878906,174.00001525878906,138,180.6666717529297,180,130,130,222,216,99.33333587646484],"timestamp_mouse":[5,36,46,66,85,105,125,145,165,185,206,225,245,265,285,305,325,345,365,387,405,425,446,465,486,506,526,545,565,585,605,625,645,666,685,706,725,745,765,785,805,826,845,865,885,906,925,946,965,985,1005,1025,1045,1065,1085,1107,1125,1146,1166,1185,1205,1225,1245,1265,1285,1306,1325,1346,1366,1385,1406,1425,1446,1465,1486,1506,1525,1545,1565,1585,1606,1625,1645,1666,1685,1706,1725,1745,1765,1787,1805,1826,1845,1865,1885,1906,1926,1945,1965,1985,2006,2026,2045],"xSR":350,"ySR":768,"xT1":30,"yT1":0,"xT2":670,"yT2":0,"toosoon":0,"cond_shown":"Congruent","ratio_trial":300,"L_num":20,"L_den":25,"R_num":5,"R_den":10,"correct_side":1,"subjID":"7","gender":"No_gender","school":"No_school","age":"No_age"},{"start_time":1549308926973,"click_time":1549308929261,"finger_time":1549308928802,"fix_duration":250,"trial":8,"RT":1829,"MT":459,"sideResp":2,"stimulus":[],"xmouse":[409.3333435058594,409.3333435058594,409.3333435058594,409.3333435058594,409.3333435058594,409.3333435058594,409.3333435058594,408.66668701171875,408.66668701171875,408.66668701171875,408.66668701171875,408.66668701171875,408.66668701171875,408.66668701171875,408.66668701171875,409.3333435058594,409.3333435058594,409.3333435058594,409.3333435058594,409.3333435058594,409.3333435058594,410,410,410,410,410,410,410,410,410,410,410,410,410,410,410,410,410,410,410,410,410,410,410,410,410,410,410,410,410,410,410,408,408,408,408,408,408,408,408,408,408,406.66668701171875,406.66668701171875,406.66668701171875,406.66668701171875,406.66668701171875,406.66668701171875,406.66668701171875,406.66668701171875,406.66668701171875,406.66668701171875,406,406,406,406,406,406,406,406,406,406,404.66668701171875,404.66668701171875,404.66668701171875,398.66668701171875,398.66668701171875,398.66668701171875,401.3333435058594,404,420.66668701171875,427.3333435058594,450.66668701171875,467.3333435058594,500.66668701171875,526.6666870117188,552,558.6666870117188,574,582.6666870117188,607.3333740234375,622.6666870117188,629.3333740234375,642,647.3333740234375,674.6666870117188,680.6666870117188,691.3333740234375,697.3333740234375,708,713.3333740234375,736.6666870117188,739.3333740234375,746.6666870117188],"ymouse":[820.6666870117188,820.6666870117188,820.6666870117188,820.6666870117188,820.6666870117188,820.6666870117188,820.6666870117188,820,820,820,820,820,820,820,820,819.3333740234375,819.3333740234375,819.3333740234375,820.0000610351562,820.0000610351562,820.0000610351562,820.0000610351562,820.0000610351562,820.0000610351562,820.0000610351562,820.0000610351562,820.0000610351562,820.0000610351562,820.0000610351562,820.0000610351562,820.0000610351562,820.0000610351562,819.3333740234375,819.3333740234375,819.3333740234375,819.3333740234375,819.3333740234375,819.3333740234375,819.3333740234375,819.3333740234375,819.3333740234375,819.3333740234375,820.6666870117188,820.6666870117188,820.6666870117188,820.6666870117188,820.6666870117188,820.6666870117188,820.6666870117188,820.6666870117188,820.6666870117188,820.6666870117188,820.6666870117188,820.6666870117188,820.6666870117188,820.6666870117188,820.6666870117188,820.6666870117188,820.6666870117188,820.6666870117188,820.6666870117188,820.6666870117188,822.0000610351562,822.0000610351562,822.0000610351562,822.0000610351562,822.0000610351562,822.0000610351562,822.0000610351562,822.0000610351562,822.0000610351562,822.0000610351562,825.3333740234375,825.3333740234375,825.3333740234375,825.3333740234375,825.3333740234375,825.3333740234375,825.3333740234375,825.3333740234375,825.3333740234375,825.3333740234375,821.3333740234375,821.3333740234375,821.3333740234375,804,795.3333740234375,790.6666870117188,781.3333740234375,777.3333740234375,756.6666870117188,750.6666870117188,731.3333740234375,718.6666870117188,690.6666870117188,667.3333740234375,636.6666870117188,624,593.3333740234375,577.3333740234375,519.3333740234375,476.66668701171875,456,412.66668701171875,389.3333435058594,302.66668701171875,281.3333435058594,244.66668701171875,226.6666717529297,190,174,116,104,82],"timestamp_mouse":[11,52,68,88,108,128,148,168,189,208,228,249,268,288,308,328,348,369,388,408,428,448,468,488,508,528,548,568,589,609,628,648,669,688,708,728,749,769,788,808,828,848,868,888,908,928,948,969,988,1008,1029,1048,1068,1088,1108,1129,1148,1168,1188,1208,1229,1248,1268,1288,1308,1329,1349,1368,1389,1408,1428,1448,1468,1489,1508,1529,1549,1568,1588,1609,1628,1649,1668,1688,1708,1729,1748,1768,1788,1808,1829,1850,1869,1888,1908,1928,1949,1968,1989,2008,2030,2049,2068,2088,2109,2130,2148,2168,2188,2208,2228,2248,2268,2288],"xSR":350,"ySR":768,"xT1":30,"yT1":0,"xT2":670,"yT2":0,"toosoon":0,"cond_shown":"Congruent","ratio_trial":200,"L_num":8,"L_den":15,"R_num":7,"R_den":21,"correct_side":1,"subjID":"7","gender":"No_gender","school":"No_school","age":"No_age"},{"start_time":1549308930973,"click_time":1549308932121,"finger_time":1549308931723,"fix_duration":250,"trial":9,"RT":750,"MT":398,"sideResp":2,"stimulus":[],"xmouse":[391.3333435058594,391.3333435058594,391.3333435058594,391.3333435058594,391.3333435058594,391.3333435058594,391.3333435058594,391.3333435058594,390.66668701171875,390.66668701171875,390.66668701171875,390.66668701171875,390.66668701171875,390.66668701171875,390.66668701171875,390.66668701171875,390.66668701171875,390.66668701171875,392.0000305175781,392.0000305175781,392.0000305175781,392.0000305175781,392.0000305175781,392.0000305175781,392.0000305175781,392.0000305175781,392.0000305175781,392.0000305175781,393.3333435058594,393.3333435058594,393.3333435058594,393.3333435058594,393.3333435058594,393.3333435058594,393.3333435058594,393.3333435058594,409.3333435058594,480,497.3333435058594,522.6666870117188,529.3333740234375,540.6666870117188,561.3333740234375,568.6666870117188,585.3333740234375,597.3333740234375,603.3333740234375,621.3333740234375,634,640.6666870117188,651.3333740234375,656,664,675.3333740234375,683.3333740234375,686,692.6666870117188,695.3333740234375],"ymouse":[853.3333740234375,853.3333740234375,853.3333740234375,853.3333740234375,853.3333740234375,853.3333740234375,853.3333740234375,853.3333740234375,854,854,854,854,854,854,854,854,854,854,856,856,856,856,856,856,856,856,856,856,856.6666870117188,856.6666870117188,856.6666870117188,856.6666870117188,856.6666870117188,856.6666870117188,856.6666870117188,856.6666870117188,835.3333740234375,752.6666870117188,726,678,656.6666870117188,615.3333740234375,544,518.6666870117188,472,425.3333435058594,403.3333435058594,334.66668701171875,294,274.66668701171875,240,225.33334350585938,196.6666717529297,158.6666717529297,135.33334350585938,126,107.33333587646484,99.33333587646484],"timestamp_mouse":[11,31,48,68,89,108,128,148,168,189,209,229,248,268,289,308,328,348,368,388,408,429,448,468,489,508,528,548,568,588,608,629,649,668,689,708,728,750,768,788,808,828,849,868,889,908,929,949,969,988,1008,1028,1048,1069,1088,1108,1128,1148],"xSR":350,"ySR":768,"xT1":30,"yT1":0,"xT2":670,"yT2":0,"toosoon":0,"cond_shown":"Congruent","ratio_trial":200,"L_num":3,"L_den":12,"R_num":9,"R_den":20,"correct_side":2,"subjID":"7","gender":"No_gender","school":"No_school","age":"No_age"},{"start_time":1549308933873,"click_time":1549308935756,"finger_time":1549308935222,"fix_duration":250,"trial":10,"RT":1349,"MT":534,"sideResp":1,"stimulus":[],"xmouse":[384,384,384,384,384,384,384,384,384,384,390.6666564941406,390.6666564941406,390.6666564941406,390.66668701171875,390.66668701171875,390.66668701171875,390.66668701171875,390.66668701171875,390.66668701171875,390.66668701171875,390.66668701171875,390.66668701171875,390.66668701171875,391.3333435058594,391.3333435058594,391.3333435058594,391.3333435058594,391.3333435058594,391.3333435058594,391.3333435058594,391.3333435058594,391.3333435058594,391.3333435058594,392,392,392,392,392,392,392,397.3333435058594,398,397.3333435058594,397.3333435058594,397.3333435058594,397.3333435058594,397.3333435058594,397.3333435058594,396,396,396.66668701171875,396.66668701171875,396.66668701171875,396.66668701171875,397.3333435058594,397.3333435058594,397.3333435058594,397.3333435058594,397.3333435058594,397.3333435058594,397.3333435058594,397.3333435058594,397.3333435058594,397.3333435058594,381.3333435058594,379.3333435058594,372,369.3333435058594,364,359.3333435058594,355.3333435058594,353.3333435058594,347.333343