[{"start_time":1549309972842,"click_time":1549309976888,"finger_time":1549309972853,"fix_duration":250,"trial":0,"RT":11,"MT":4035,"sideResp":2,"stimulus":"img/500/equaldotsize/L/7_Ratio_500_L_10_R_5.png","xmouse":[390,390,390,388,388,388,388,388,388,388,388,388,388,387.3333435058594,387.3333435058594,387.3333435058594,387.3333435058594,387.3333435058594,387.3333435058594,387.3333435058594,387.3333435058594,387.3333435058594,387.3333435058594,386.66668701171875,386.66668701171875,386.66668701171875,386.66668701171875,386.66668701171875,386.66668701171875,386.66668701171875,386.66668701171875,386.66668701171875,386.66668701171875,386.66668701171875,386.66668701171875,386.66668701171875,387.3333435058594,387.3333435058594,388,388,389.3333435058594,390,390,390.66668701171875,392,393.3333435058594,393.3333435058594,394,394.66668701171875,395.3333435058594,395.3333435058594,396,396,396,396.66668701171875,396.66668701171875,396,396,396,396,396,396,396,396,396,396,396,396,396,396,396,397.3333435058594,397.3333435058594,397.3333435058594,397.3333435058594,397.3333435058594,395.3333435058594,394.66668701171875,394.66668701171875,394.66668701171875,394.66668701171875,394.66668701171875,394.66668701171875,394.66668701171875,395.3333435058594,395.3333435058594,395.3333435058594,395.3333435058594,395.3333435058594,395.3333435058594,396,396,396,396,396,396,396,396,396,396,394.66668701171875,394,394,394,394,394,394,394,394,394,394.66668701171875,394.66668701171875,394.66668701171875,394.66668701171875,394.66668701171875,394.66668701171875,394.66668701171875,394.66668701171875,394.66668701171875,394.66668701171875,395.3333435058594,396.66668701171875,396.66668701171875,396.66668701171875,396.66668701171875,396.66668701171875,396.66668701171875,396.66668701171875,396.66668701171875,396.66668701171875,399.3333435058594,399.3333435058594,399.3333435058594,399.3333435058594,399.3333435058594,399.3333435058594,399.3333435058594,399.3333435058594,399.3333435058594,399.3333435058594,398.66668701171875,398.66668701171875,398.66668701171875,398.66668701171875,398.66668701171875,398.66668701171875,398.66668701171875,398.66668701171875,398.66668701171875,398.66668701171875,396.66668701171875,396.66668701171875,396.66668701171875,396.66668701171875,396.66668701171875,396.66668701171875,396.66668701171875,396.66668701171875,403.3333435058594,405.3333435058594,407.3333435058594,410.66668701171875,412,414,416.66668701171875,417.3333435058594,421.3333435058594,422,423.3333435058594,424.66668701171875,427.3333435058594,430,436,438,442.66668701171875,448,453.3333435058594,458.66668701171875,460.66668701171875,463.3333435058594,466,468,476,484,496.66668701171875,504.66668701171875,521.3333740234375,546.6666870117188,563.3333740234375,571.3333740234375,587.3333740234375,603.3333740234375,625.3333740234375,639.3333740234375,646,658.6666870117188,664.6666870117188,686.6666870117188,690.6666870117188,698,704.6666870117188,707.3333740234375,714.6666870117188],"ymouse":[752.6666870117188,752.6666870117188,752.6666870117188,757.3333129882812,757.3333129882812,757.3333129882812,757.3333129882812,757.3333129882812,757.3333129882812,757.3333129882812,757.3333129882812,757.3333129882812,757.3333129882812,756.6666870117188,756.6666870117188,756.6666870117188,756.6666870117188,756.6666870117188,756.6666870117188,756.6666870117188,756.6666870117188,756.6666870117188,756.6666870117188,758,758,758,758,758,758,758,758,758,760,761.3333740234375,762.6666870117188,767.3333740234375,771.3333740234375,776,778,782.6666870117188,790.6666870117188,796.6666870117188,799.3333740234375,804.6666870117188,810,817.3333740234375,820,825.3333740234375,830,832,835.3333740234375,838.6666870117188,840,840,841.3333740234375,842,844,844,844,843.3333129882812,843.3333129882812,842.6666870117188,842.6666870117188,842.6666870117188,842.6666870117188,842.6666870117188,842.6666870117188,842.6666870117188,842.6666870117188,842.6666870117188,842.6666870117188,833.3333740234375,833.3333740234375,833.3333740234375,833.3333740234375,833.3333740234375,824.6666870117188,823.3333740234375,822,821.3333740234375,820.6666870117188,819.3333740234375,819.3333740234375,818.6666870117188,818,817.3333740234375,816.6666870117188,816.6666870117188,816.6666870117188,817.3333740234375,817.3333740234375,817.3333740234375,817.3333740234375,817.3333740234375,817.3333740234375,817.3333740234375,817.3333740234375,817.3333740234375,817.3333740234375,817.3333740234375,816,814.6666870117188,814.6666870117188,814.6666870117188,814.6666870117188,814.6666870117188,815.3333740234375,815.3333740234375,815.3333740234375,815.3333740234375,815.3333740234375,815.3333740234375,815.3333740234375,815.3333740234375,815.3333740234375,815.3333740234375,815.3333740234375,815.3333740234375,815.3333740234375,815.3333740234375,814.6666870117188,815.3333740234375,815.3333740234375,815.3333740234375,815.3333740234375,815.3333740234375,815.3333740234375,815.3333740234375,815.3333740234375,815.3333740234375,826.6666870117188,826.6666870117188,826.6666870117188,826.6666870117188,826.6666870117188,826.6666870117188,826.6666870117188,826.6666870117188,826.6666870117188,826.6666870117188,827.3333740234375,827.3333740234375,827.3333740234375,827.3333740234375,827.3333740234375,827.3333740234375,827.3333740234375,827.3333740234375,827.3333740234375,827.3333740234375,824.6666870117188,824.6666870117188,824.6666870117188,824.6666870117188,824.6666870117188,824.6666870117188,824.6666870117188,824.6666870117188,807.3333740234375,802,796.6666870117188,788,785.3333740234375,779.3333740234375,774,771.3333740234375,761.3333740234375,758,753.3333740234375,750.6666870117188,745.3333740234375,740,730,726.6666870117188,718,710,701.3333740234375,690.6666870117188,687.3333740234375,680.6666870117188,673.3333740234375,669.3333740234375,650,634,607.3333740234375,591.3333740234375,560.6666870117188,512.6666870117188,476.66668701171875,458.66668701171875,421.3333435058594,383.3333435058594,329.3333435058594,294,276,242,225.33334350585938,167.33334350585938,154.6666717529297,134,114.66667175292969,104.66667175292969,86],"timestamp_mouse":[11,25,45,64,85,105,125,145,165,185,205,226,245,265,285,305,325,346,365,385,406,424,445,464,485,505,525,545,565,585,604,625,645,665,685,707,725,745,764,784,806,825,844,864,885,906,925,945,965,985,1005,1024,1045,1065,1085,1104,1125,1145,1165,1184,1205,1224,1245,1265,1285,1304,1325,1345,1365,1385,1405,1426,1444,1465,1485,1505,1527,1545,1564,1585,1605,1626,1645,1665,1685,1704,1725,1745,1765,1785,1805,1825,1845,1865,1885,1905,1925,1945,1965,1985,2004,2027,2045,2065,2085,2105,2125,2144,2165,2185,2205,2225,2245,2264,2285,2304,2325,2345,2364,2385,2405,2427,2445,2465,2485,2505,2525,2545,2565,2584,2605,2627,2645,2665,2685,2704,2725,2745,2765,2785,2805,2825,2845,2864,2885,2905,2925,2945,2964,2985,3005,3027,3045,3065,3085,3105,3125,3145,3164,3184,3204,3226,3244,3265,3285,3305,3327,3344,3365,3384,3405,3424,3444,3465,3485,3505,3524,3546,3565,3585,3605,3625,3646,3665,3684,3704,3725,3745,3765,3785,3805,3826,3845,3865,3884,3905,3925,3945,3965,3984,4005,4025,4046],"xSR":350,"ySR":696,"xT1":30,"yT1":0,"xT2":670,"yT2":0,"toosoon":0,"cond_shown":"equaldotsize","ratio_trial":500,"smaller_num":"5","larger_num":"10","correct_side":1,"subjID":"8","gender":"No_gender","age":"No_age","school":"No_school","test":{"fix_dur":[250,1500],"timestim":400,"targets_dim":[100,100],"targets_relative_coord":[0.1,0.9],"size_stim":[880,420],"start_dim":[100,100],"size_start":[300,300],"size_fix":60,"samplingrate":20,"img_types":["equaldotsize","equaldotanddens","randomdotsize","randomdotsizeEA"],"ratios":[250,500,750,900],"rep_conds":10,"nTrials":176,"trials_to_rest":500,"Trials_order":[20,70,174,170,37,5,125,139,48,94,76,43,99,57,111,45,105,108,109,98,160,167,3,10,64,91,65,143,52,19,67,34,71,168,120,100,154,144,145,169,35,103,129,113,126,61,11,28,40,29,66,116,90,149,172,88,135,62,89,31,171,142,56,159,32,42,4,59,82,132,122,75,16,23,150,87,173,158,133,112,127,24,146,51,106,161,138,12,6,0,33,110,85,38,44,7,39,97,63,128,121,54,130,164,104,81,95,118,74,80,140,123,73,2,93,9,78,60,134,92,107,155,137,18,53,22,119,141,175,83,26,21,49,117,153,47,30,79,151,68,13,41,163,14,101,124,25,96,8,165,72,55,15,46,36,162,17,27,166,148,131,58,50,69,1,84,86,157,147,102,136,114,156,77,152,115],"cond_shown":["equaldotsize","randomdotsize","randomdotsize","randomdotsize","equaldotanddens","equaldotanddens","equaldotanddens","randomdotsizeEA","equaldotsize","randomdotsize","equaldotsize","randomdotsizeEA","randomdotsizeEA","equaldotanddens","randomdotsizeEA","equaldotanddens","equaldotanddens","equaldotsize","equaldotanddens","randomdotsize","equaldotsize","randomdotsizeEA","randomdotsizeEA","randomdotsize","equaldotsize","randomdotsizeEA","equaldotanddens","randomdotsizeEA","equaldotsize","randomdotsizeEA","randomdotsizeEA","randomdotsize","randomdotsizeEA","equaldotsize","equaldotsize","equaldotsize","randomdotsize","equaldotsize","equaldotanddens","equaldotanddens","randomdotsizeEA","randomdotsizeEA","equaldotanddens","equaldotanddens","randomdotsize","equaldotanddens","randomdotsizeEA","equaldotsize","equaldotsize","equaldotanddens","randomdotsize","equaldotsize","randomdotsize","equaldotanddens","equaldotsize","equaldotsize","randomdotsizeEA","randomdotsize","equaldotanddens","randomdotsizeEA","randomdotsizeEA","randomdotsize","equaldotsize","randomdotsizeEA","equaldotsize","randomdotsize","equaldotsize","randomdotsizeEA","randomdotsize","equaldotsize","randomdotsize","randomdotsizeEA","equaldotsize","randomdotsizeEA","randomdotsize","randomdotsizeEA","equaldotanddens","randomdotsize","equaldotanddens","equaldotsize","randomdotsizeEA","equaldotsize","randomdotsize","randomdotsizeEA","randomdotsize","equaldotanddens","randomdotsize","equaldotsize","randomdotsize","equaldotsize","equaldotanddens","randomdotsize","equaldotanddens","randomdotsize","equaldotsize","randomdotsizeEA","randomdotsizeEA","equaldotanddens","randomdotsizeEA","equaldotsize","equaldotanddens","randomdotsize","randomdotsize","equaldotsize","equaldotsize","equaldotanddens","randomdotsizeEA","randomdotsize","randomdotsize","equaldotsize","equaldotsize","randomdotsizeEA","equaldotanddens","randomdotsize","equaldotanddens","equaldotanddens","randomdotsize","equaldotsize","randomdotsize","equaldotsize","randomdotsizeEA","randomdotsizeEA","equaldotanddens","randomdotsize","equaldotanddens","randomdotsize","randomdotsizeEA","equaldotanddens","randomdotsizeEA","randomdotsizeEA","randomdotsize","equaldotanddens","equaldotanddens","equaldotanddens","equaldotanddens","randomdotsizeEA","randomdotsize","randomdotsizeEA","randomdotsizeEA","equaldotsize","equaldotanddens","equaldotanddens","randomdotsizeEA","randomdotsize","equaldotanddens","equaldotsize","equaldotanddens","equaldotsize","equaldotsize","equaldotanddens","equaldotsize","randomdotsizeEA","randomdotsizeEA","randomdotsize","equaldotsize","randomdotsize","equaldotanddens","randomdotsizeEA","randomdotsize","equaldotsize","randomdotsizeEA","randomdotsize","randomdotsize","equaldotanddens","equaldotanddens","equaldotsize","randomdotsize","equaldotanddens","randomdotsizeEA","randomdotsize","equaldotsize","randomdotsize","equaldotsize","equaldotanddens","equaldotsize","randomdotsizeEA"],"ratio_trial":[500,500,900,750,500,500,900,750,250,900,900,750,250,750,900,900,750,900,900,250,250,500,250,750,250,750,250,900,500,250,250,250,500,750,750,500,750,250,250,750,250,500,250,250,900,900,750,900,750,900,250,500,750,500,900,750,500,900,750,900,750,900,750,900,250,750,500,750,250,500,750,750,250,500,500,500,900,900,500,250,900,750,250,250,750,250,750,900,500,250,250,900,500,500,900,500,500,250,900,250,750,500,250,500,750,250,900,500,750,250,900,750,750,250,900,750,900,900,500,900,750,750,750,250,500,500,500,900,900,250,750,500,250,500,750,900,900,900,500,500,900,750,250,900,500,900,750,250,750,500,750,500,900,900,500,250,250,750,500,500,250,750,250,500,250,500,500,900,250,500,750,250,900,900,750,250],"smaller_num":["5","6","18","15","9","2","18","9","4","9","18","15","2","3","9","18","12","18","18","4","3","6","2","9","4","15","2","18","5","6","4","5","5","18","18","1","3","2","3","12","1","1","4","2","18","18","15","18","12","18","2","5","3","5","18","9","2","9","15","9","3","9","3","9","6","3","9","3","2","5","6","15","3","10","5","6","18","9","2","4","9","6","5","1","6","5","3","18","5","3","4","9","4","9","9","9","10","6","9","5","15","3","2","9","12","2","18","6","3","6","18","3","3","6","18","18","18","18","5","18","18","15","15","3","5","9","6","9","9","3","3","1","2","2","3","9","18","18","9","9","18","3","6","9","4","18","18","2","6","2","3","9","9","9","5","3","3","15","10","1","2","18","1","9","2","5","6","9","6","4","6","5","18","18","12","3"],"larger_num":["10","12","20","20","18","4","20","12","16","10","20","20","8","4","10","20","16","20","20","16","12","12","8","12","16","20","8","20","10","24","16","20","10","24","24","2","4","8","12","16","4","2","16","8","20","20","20","20","16","20","8","10","4","10","20","12","4","10","20","10","4","10","4","10","24","4","18","4","8","10","8","20","12","20","10","12","20","10","4","16","10","8","20","4","8","20","4","20","10","12","16","10","8","18","10","18","20","24","10","20","20","6","8","18","16","8","20","12","4","24","20","4","4","24","20","24","20","20","10","20","24","20","20","12","10","18","12","10","10","12","4","2","8","4","4","10","20","20","18","18","20","4","24","10","8","20","24","8","8","4","4","18","10","10","10","12","12","20","20","2","8","24","4","18","8","10","12","10","24","8","8","20","20","20","16","12"],"correct_side":[1,1,2,2,2,1,2,2,1,2,1,2,2,1,2,2,2,2,2,1,2,1,2,2,1,2,1,2,1,2,1,2,1,1,1,2,1,1,2,2,2,2,1,1,1,2,2,1,2,1,1,1,2,1,1,2,1,2,1,1,1,2,1,2,2,1,2,1,1,2,2,2,2,2,1,1,2,2,1,1,2,1,2,2,1,2,2,2,1,2,1,1,1,1,2,2,2,2,2,2,2,2,1,2,2,1,1,1,2,1,2,1,1,1,1,1,2,2,2,1,1,2,2,1,1,1,1,2,2,1,1,2,2,1,2,2,1,2,1,2,1,1,2,1,1,2,1,2,1,1,1,2,2,2,1,2,1,1,2,2,1,1,2,1,2,1,1,2,1,1,1,2,2,1,2,2],"img_shown":["img/500/equaldotsize/L/7_Ratio_500_L_10_R_5.png","img/500/randomdotsize/L/11_Ratio_500_L_12_R_6.png","img/900/randomdotsize/R/9_Ratio_900_L_18_R_20.png","img/750/randomdotsize/R/3_Ratio_750_L_15_R_20.png","img/500/equaldotanddens/R/6_Ratio_500_L_9_R_18.png","img/500/equaldotanddens/L/5_Ratio_500_L_4_R_2.png","img/900/equaldotanddens/R/13_Ratio_900_L_18_R_20.png","img/750/randomdotsizeEA/R/15_Ratio_750_L_9_R_12.png","img/250/equaldotsize/L/2_Ratio_250_L_16_R_4.png","img/900/randomdotsize/R/6_Ratio_900_L_9_R_10.png","img/900/equaldotsize/L/10_Ratio_900_L_20_R_18.png","img/750/randomdotsizeEA/R/4_Ratio_750_L_15_R_20.png","img/250/randomdotsizeEA/R/13_Ratio_250_L_2_R_8.png","img/750/equaldotanddens/L/8_Ratio_750_L_4_R_3.png","img/900/randomdotsizeEA/R/7_Ratio_900_L_9_R_10.png","img/900/equaldotanddens/R/14_Ratio_900_L_18_R_20.png","img/750/equaldotanddens/R/11_Ratio_750_L_12_R_16.png","img/900/equaldotsize/R/9_Ratio_900_L_18_R_20.png","img/900/equaldotanddens/R/9_Ratio_900_L_18_R_20.png","img/250/randomdotsize/L/2_Ratio_250_L_16_R_4.png","img/250/equaldotsize/R/11_Ratio_250_L_3_R_12.png","img/500/randomdotsizeEA/L/13_Ratio_500_L_12_R_6.png","img/250/randomdotsizeEA/R/13_Ratio_250_L_2_R_8.png","img/750/randomdotsize/R/15_Ratio_750_L_9_R_12.png","img/250/equaldotsize/L/2_Ratio_250_L_16_R_4.png","img/750/randomdotsizeEA/R/4_Ratio_750_L_15_R_20.png","img/250/equaldotanddens/L/7_Ratio_250_L_8_R_2.png","img/900/randomdotsizeEA/R/12_Ratio_900_L_18_R_20.png","img/500/equaldotsize/L/7_Ratio_500_L_10_R_5.png","img/250/randomdotsizeEA/R/6_Ratio_250_L_6_R_24.png","img/250/randomdotsizeEA/L/2_Ratio_250_L_16_R_4.png","img/250/randomdotsize/R/12_Ratio_250_L_5_R_20.png","img/500/randomdotsizeEA/L/7_Ratio_500_L_10_R_5.png","img/750/equaldotsize/L/6_Ratio_750_L_24_R_18.png","img/750/equaldotsize/L/6_Ratio_750_L_24_R_18.png","img/500/equaldotsize/R/12_Ratio_500_L_1_R_2.png","img/750/randomdotsize/L/8_Ratio_750_L_4_R_3.png","img/250/equaldotsize/L/3_Ratio_250_L_8_R_2.png","img/250/equaldotanddens/R/4_Ratio_250_L_3_R_12.png","img/750/equaldotanddens/R/11_Ratio_750_L_12_R_16.png","img/250/randomdotsizeEA/R/8_Ratio_250_L_1_R_4.png","img/500/randomdotsizeEA/R/15_Ratio_500_L_1_R_2.png","img/250/equaldotanddens/L/2_Ratio_250_L_16_R_4.png","img/250/equaldotanddens/L/1_Ratio_250_L_8_R_2.png","img/900/randomdotsize/L/10_Ratio_900_L_20_R_18.png","img/900/equaldotanddens/R/13_Ratio_900_L_18_R_20.png","img/750/randomdotsizeEA/R/3_Ratio_750_L_15_R_20.png","img/900/equaldotsize/L/8_Ratio_900_L_20_R_18.png","img/750/equaldotsize/R/11_Ratio_750_L_12_R_16.png","img/900/equaldotanddens/L/4_Ratio_900_L_20_R_18.png","img/250/randomdotsize/L/1_Ratio_250_L_8_R_2.png","img/500/equaldotsize/L/7_Ratio_500_L_10_R_5.png","img/750/randomdotsize/R/7_Ratio_750_L_3_R_4.png","img/500/equaldotanddens/L/7_Ratio_500_L_10_R_5.png","img/900/equaldotsize/L/4_Ratio_900_L_20_R_18.png","img/750/equaldotsize/R/15_Ratio_750_L_9_R_12.png","img/500/randomdotsizeEA/L/10_Ratio_500_L_4_R_2.png","img/900/randomdotsize/R/15_Ratio_900_L_9_R_10.png","img/750/equaldotanddens/L/1_Ratio_750_L_20_R_15.png","img/900/randomdotsizeEA/L/1_Ratio_900_L_10_R_9.png","img/750/randomdotsizeEA/L/10_Ratio_750_L_4_R_3.png","img/900/randomdotsize/R/15_Ratio_900_L_9_R_10.png","img/750/equaldotsize/L/10_Ratio_750_L_4_R_3.png","img/900/randomdotsizeEA/R/5_Ratio_900_L_9_R_10.png","img/250/equaldotsize/R/6_Ratio_250_L_6_R_24.png","img/750/randomdotsize/L/9_Ratio_750_L_4_R_3.png","img/500/equaldotsize/R/1_Ratio_500_L_9_R_18.png","img/750/randomdotsizeEA/L/8_Ratio_750_L_4_R_3.png","img/250/randomdotsize/L/3_Ratio_250_L_8_R_2.png","img/500/equaldotsize/R/14_Ratio_500_L_5_R_10.png","img/750/randomdotsize/R/2_Ratio_750_L_6_R_8.png","img/750/randomdotsizeEA/R/5_Ratio_750_L_15_R_20.png","img/250/equaldotsize/R/9_Ratio_250_L_3_R_12.png","img/500/randomdotsizeEA/R/3_Ratio_500_L_10_R_20.png","img/500/randomdotsize/L/7_Ratio_500_L_10_R_5.png","img/500/randomdotsizeEA/L/13_Ratio_500_L_12_R_6.png","img/900/equaldotanddens/R/13_Ratio_900_L_18_R_20.png","img/900/randomdotsize/R/3_Ratio_900_L_9_R_10.png","img/500/equaldotanddens/L/10_Ratio_500_L_4_R_2.png","img/250/equaldotsize/L/2_Ratio_250_L_16_R_4.png","img/900/randomdotsizeEA/R/3_Ratio_900_L_9_R_10.png","img/750/equaldotsize/L/13_Ratio_750_L_8_R_6.png","img/250/randomdotsize/R/12_Ratio_250_L_5_R_20.png","img/250/randomdotsizeEA/R/8_Ratio_250_L_1_R_4.png","img/750/randomdotsize/L/14_Ratio_750_L_8_R_6.png","img/250/equaldotanddens/R/12_Ratio_250_L_5_R_20.png","img/750/randomdotsize/R/7_Ratio_750_L_3_R_4.png","img/900/equaldotsize/R/11_Ratio_900_L_18_R_20.png","img/500/randomdotsize/L/7_Ratio_500_L_10_R_5.png","img/250/equaldotsize/R/11_Ratio_250_L_3_R_12.png","img/250/equaldotanddens/L/2_Ratio_250_L_16_R_4.png","img/900/randomdotsize/L/1_Ratio_900_L_10_R_9.png","img/500/equaldotanddens/L/8_Ratio_500_L_8_R_4.png","img/500/randomdotsize/L/4_Ratio_500_L_18_R_9.png","img/900/equaldotsize/R/5_Ratio_900_L_9_R_10.png","img/500/randomdotsizeEA/R/6_Ratio_500_L_9_R_18.png","img/500/randomdotsizeEA/R/3_Ratio_500_L_10_R_20.png","img/250/equaldotanddens/R/6_Ratio_250_L_6_R_24.png","img/900/randomdotsizeEA/R/3_Ratio_900_L_9_R_10.png","img/250/equaldotsize/R/12_Ratio_250_L_5_R_20.png","img/750/equaldotanddens/R/4_Ratio_750_L_15_R_20.png","img/500/randomdotsize/R/2_Ratio_500_L_3_R_6.png","img/250/randomdotsize/L/1_Ratio_250_L_8_R_2.png","img/500/equaldotsize/R/1_Ratio_500_L_9_R_18.png","img/750/equaldotsize/R/11_Ratio_750_L_12_R_16.png","img/250/equaldotanddens/L/7_Ratio_250_L_8_R_2.png","img/900/randomdotsizeEA/L/8_Ratio_900_L_20_R_18.png","img/500/randomdotsize/L/11_Ratio_500_L_12_R_6.png","img/750/randomdotsize/R/7_Ratio_750_L_3_R_4.png","img/250/equaldotsize/L/5_Ratio_250_L_24_R_6.png","img/900/equaldotsize/R/14_Ratio_900_L_18_R_20.png","img/750/randomdotsizeEA/L/10_Ratio_750_L_4_R_3.png","img/750/equaldotanddens/L/10_Ratio_750_L_4_R_3.png","img/250/randomdotsize/L/5_Ratio_250_L_24_R_6.png","img/900/equaldotanddens/L/2_Ratio_900_L_20_R_18.png","img/750/equaldotanddens/L/6_Ratio_750_L_24_R_18.png","img/900/randomdotsize/R/9_Ratio_900_L_18_R_20.png","img/900/equaldotsize/R/13_Ratio_900_L_18_R_20.png","img/500/randomdotsize/R/14_Ratio_500_L_5_R_10.png","img/900/equaldotsize/L/8_Ratio_900_L_20_R_18.png","img/750/randomdotsizeEA/L/6_Ratio_750_L_24_R_18.png","img/750/randomdotsizeEA/R/4_Ratio_750_L_15_R_20.png","img/750/equaldotanddens/R/3_Ratio_750_L_15_R_20.png","img/250/randomdotsize/L/14_Ratio_250_L_12_R_3.png","img/500/equaldotanddens/L/7_Ratio_500_L_10_R_5.png","img/500/randomdotsize/L/4_Ratio_500_L_18_R_9.png","img/500/randomdotsizeEA/L/11_Ratio_500_L_12_R_6.png","img/900/equaldotanddens/R/7_Ratio_900_L_9_R_10.png","img/900/randomdotsizeEA/R/5_Ratio_900_L_9_R_10.png","img/250/randomdotsizeEA/L/15_Ratio_250_L_12_R_3.png","img/750/randomdotsize/L/10_Ratio_750_L_4_R_3.png","img/500/equaldotanddens/R/15_Ratio_500_L_1_R_2.png","img/250/equaldotanddens/R/13_Ratio_250_L_2_R_8.png","img/500/equaldotanddens/L/5_Ratio_500_L_4_R_2.png","img/750/equaldotanddens/R/7_Ratio_750_L_3_R_4.png","img/900/randomdotsizeEA/R/7_Ratio_900_L_9_R_10.png","img/900/randomdotsize/L/8_Ratio_900_L_20_R_18.png","img/900/randomdotsizeEA/R/11_Ratio_900_L_18_R_20.png","img/500/randomdotsizeEA/L/4_Ratio_500_L_18_R_9.png","img/500/equaldotsize/R/6_Ratio_500_L_9_R_18.png","img/900/equaldotanddens/L/8_Ratio_900_L_20_R_18.png","img/750/equaldotanddens/L/10_Ratio_750_L_4_R_3.png","img/250/randomdotsizeEA/R/6_Ratio_250_L_6_R_24.png","img/900/randomdotsize/L/1_Ratio_900_L_10_R_9.png","img/500/equaldotanddens/L/8_Ratio_500_L_8_R_4.png","img/900/equaldotsize/R/13_Ratio_900_L_18_R_20.png","img/750/equaldotanddens/L/6_Ratio_750_L_24_R_18.png","img/250/equaldotsize/R/13_Ratio_250_L_2_R_8.png","img/750/equaldotsize/L/14_Ratio_750_L_8_R_6.png","img/500/equaldotanddens/L/10_Ratio_500_L_4_R_2.png","img/750/equaldotsize/L/9_Ratio_750_L_4_R_3.png","img/500/randomdotsizeEA/R/6_Ratio_500_L_9_R_18.png","img/900/randomdotsizeEA/R/3_Ratio_900_L_9_R_10.png","img/900/randomdotsize/R/6_Ratio_900_L_9_R_10.png","img/500/equaldotsize/L/7_Ratio_500_L_10_R_5.png","img/250/randomdotsize/R/11_Ratio_250_L_3_R_12.png","img/250/equaldotanddens/L/15_Ratio_250_L_12_R_3.png","img/750/randomdotsizeEA/L/1_Ratio_750_L_20_R_15.png","img/500/randomdotsize/R/3_Ratio_500_L_10_R_20.png","img/500/equaldotsize/R/15_Ratio_500_L_1_R_2.png","img/250/randomdotsizeEA/L/3_Ratio_250_L_8_R_2.png","img/750/randomdotsize/L/6_Ratio_750_L_24_R_18.png","img/250/randomdotsize/R/8_Ratio_250_L_1_R_4.png","img/500/equaldotanddens/L/4_Ratio_500_L_18_R_9.png","img/250/equaldotanddens/R/13_Ratio_250_L_2_R_8.png","img/500/equaldotsize/L/7_Ratio_500_L_10_R_5.png","img/500/randomdotsize/L/11_Ratio_500_L_12_R_6.png","img/900/equaldotanddens/R/3_Ratio_900_L_9_R_10.png","img/250/randomdotsizeEA/L/5_Ratio_250_L_24_R_6.png","img/500/randomdotsize/L/8_Ratio_500_L_8_R_4.png","img/750/equaldotsize/L/14_Ratio_750_L_8_R_6.png","img/250/randomdotsize/R/12_Ratio_250_L_5_R_20.png","img/900/equaldotsize/R/12_Ratio_900_L_18_R_20.png","img/900/equaldotanddens/L/10_Ratio_900_L_20_R_18.png","img/750/equaldotsize/R/11_Ratio_750_L_12_R_16.png","img/250/randomdotsizeEA/R/11_Ratio_250_L_3_R_12.png"],"Rat0":[["12_Ratio_0_L_9_R_0.png","13_Ratio_0_L_6_R_0.png","5_Ratio_0_L_2_R_0.png","6_Ratio_0_L_4_R_0.png","8_Ratio_0_L_6_R_0.png"],["1_Ratio_0_L_0_R_17.png","10_Ratio_0_L_0_R_22.png","11_Ratio_0_L_0_R_1.png","14_Ratio_0_L_0_R_24.png","15_Ratio_0_L_0_R_4.png","2_Ratio_0_L_0_R_5.png","3_Ratio_0_L_0_R_17.png","4_Ratio_0_L_0_R_7.png","7_Ratio_0_L_0_R_19.png","9_Ratio_0_L_0_R_15.png"]],"Rat250":[["1_Ratio_250_L_8_R_2.png","14_Ratio_250_L_12_R_3.png","15_Ratio_250_L_12_R_3.png","2_Ratio_250_L_16_R_4.png","3_Ratio_250_L_8_R_2.png","5_Ratio_250_L_24_R_6.png","7_Ratio_250_L_8_R_2.png"],["10_Ratio_250_L_4_R_16.png","11_Ratio_250_L_3_R_12.png","12_Ratio_250_L_5_R_20.png","13_Ratio_250_L_2_R_8.png","4_Ratio_250_L_3_R_12.png","6_Ratio_250_L_6_R_24.png","8_Ratio_250_L_1_R_4.png","9_Ratio_250_L_3_R_12.png"]],"Rat500":[["10_Ratio_500_L_4_R_2.png","11_Ratio_500_L_12_R_6.png","13_Ratio_500_L_12_R_6.png","4_Ratio_500_L_18_R_9.png","5_Ratio_500_L_4_R_2.png","7_Ratio_500_L_10_R_5.png","8_Ratio_500_L_8_R_4.png"],["1_Ratio_500_L_9_R_18.png","12_Ratio_500_L_1_R_2.png","14_Ratio_500_L_5_R_10.png","15_Ratio_500_L_1_R_2.png","2_Ratio_500_L_3_R_6.png","3_Ratio_500_L_10_R_20.png","6_Ratio_500_L_9_R_18.png","9_Ratio_500_L_2_R_4.png"]],"Rat750":[["1_Ratio_750_L_20_R_15.png","10_Ratio_750_L_4_R_3.png","13_Ratio_750_L_8_R_6.png","14_Ratio_750_L_8_R_6.png","6_Ratio_750_L_24_R_18.png","8_Ratio_750_L_4_R_3.png","9_Ratio_750_L_4_R_3.png"],["11_Ratio_750_L_12_R_16.png","12_Ratio_750_L_3_R_4.png","15_Ratio_750_L_9_R_12.png","2_Ratio_750_L_6_R_8.png","3_Ratio_750_L_15_R_20.png","4_Ratio_750_L_15_R_20.png","5_Ratio_750_L_15_R_20.png","7_Ratio_750_L_3_R_4.png"]],"Rat900":[["1_Ratio_900_L_10_R_9.png","10_Ratio_900_L_20_R_18.png","2_Ratio_900_L_20_R_18.png","4_Ratio_900_L_20_R_18.png","8_Ratio_900_L_20_R_18.png"],["11_Ratio_900_L_18_R_20.png","12_Ratio_900_L_18_R_20.png","13_Ratio_900_L_18_R_20.png","14_Ratio_900_L_18_R_20.png","15_Ratio_900_L_9_R_10.png","3_Ratio_900_L_9_R_10.png","5_Ratio_900_L_9_R_10.png","6_Ratio_900_L_9_R_10.png","7_Ratio_900_L_9_R_10.png","9_Ratio_900_L_18_R_20.png"]],"Rat1000":[["10_Ratio_1000_L_16_R_16.png","11_Ratio_1000_L_6_R_6.png","12_Ratio_1000_L_14_R_14.png","13_Ratio_1000_L_20_R_20.png","15_Ratio_1000_L_15_R_15.png","2_Ratio_1000_L_17_R_17.png","4_Ratio_1000_L_9_R_9.png","5_Ratio_1000_L_6_R_6.png","6_Ratio_1000_L_19_R_19.png","8_Ratio_1000_L_14_R_14.png","9_Ratio_1000_L_25_R_25.png"],["1_Ratio_1000_L_1_R_1.png","14_Ratio_1000_L_17_R_17.png","3_Ratio_1000_L_17_R_17.png","7_Ratio_1000_L_6_R_6.png"]]}},{"start_time":1549309978358,"click_time":1549309980167,"finger_time":1549309979807,"fix_duration":250,"trial":1,"RT":1449,"MT":360,"sideResp":1,"stimulus":"img/500/randomdotsize/L/11_Ratio_500_L_12_R_6.png","xmouse":[403.3333435058594,403.3333435058594,402.66668701171875,402,402,401.3333435058594,401.3333435058594,400.66668701171875,400.66668701171875,400.66668701171875,400,400,400,400,400,399.3333435058594,398.66668701171875,398,398,398,398.66668701171875,398.66668701171875,398,398,398,398,397.3333435058594,397.3333435058594,397.3333435058594,397.3333435058594,397.3333435058594,397.3333435058594,397.3333435058594,397.3333435058594,397.3333435058594,397.3333435058594,397.3333435058594,397.3333435058594,397.3333435058594,397.3333435058594,397.3333435058594,397.3333435058594,397.3333435058594,397.3333435058594,397.3333435058594,397.3333435058594,396.66668701171875,396.66668701171875,396.66668701171875,396.66668701171875,396.66668701171875,396.66668701171875,396.66668701171875,396.66668701171875,396.66668701171875,396.66668701171875,397.3333435058594,397.3333435058594,397.3333435058594,397.3333435058594,397.3333435058594,397.3333435058594,397.3333435058594,397.3333435058594,397.3333435058594,397.3333435058594,395.3333435058594,395.3333435058594,395.3333435058594,395.3333435058594,395.3333435058594,383.3333435058594,376.66668701171875,362.66668701171875,349.3333435058594,340.66668701171875,314.66668701171875,296.66668701171875,276,268.66668701171875,247.33334350585938,213.33334350585938,188,176.6666717529297,152,140.6666717529297,98.66667175292969,90,78,72.66667175292969],"ymouse":[830,830,832,832.6666870117188,832.6666870117188,833.3333740234375,834,834,834.6666870117188,835.3333740234375,836,836.6666870117188,836.6666870117188,837.3333740234375,837.3333740234375,838,838.6666870117188,838.6666870117188,839.3333740234375,839.3333740234375,839.3333740234375,839.3333740234375,839.3333740234375,839.3333740234375,839.3333740234375,839.3333740234375,840,840,840,840,840.6666870117188,840.6666870117188,840.6666870117188,840.6666870117188,840.6666870117188,841.3333740234375,841.3333740234375,841.3333740234375,841.3333740234375,841.3333740234375,841.3333740234375,842,842,841.3333129882812,841.3333129882812,841.3333129882812,841.3333129882812,841.3333129882812,841.3333129882812,841.3333129882812,841.3333129882812,841.3333129882812,841.3333129882812,841.3333129882812,841.3333129882812,841.3333129882812,841.3333129882812,841.3333129882812,841.3333129882812,841.3333129882812,841.3333129882812,841.3333129882812,841.3333129882812,841.3333129882812,841.3333129882812,841.3333129882812,837.3333129882812,837.3333129882812,837.3333129882812,837.3333129882812,837.3333129882812,764.6666870117188,746,710,674.6666870117188,654,587.3333740234375,536.6666870117188,486.66668701171875,464.66668701171875,418.66668701171875,349.3333435058594,302.66668701171875,281.3333435058594,238.6666717529297,218.6666717529297,148.6666717529297,136,112.66667175292969,98.66667175292969],"timestamp_mouse":[42,49,68,89,109,128,149,169,189,209,230,248,269,289,308,330,348,369,389,409,429,448,469,489,509,529,549,569,589,609,630,649,669,689,709,730,749,769,789,809,828,849,869,890,909,928,949,969,988,1009,1028,1048,1069,1088,1109,1129,1148,1169,1189,1209,1229,1249,1269,1289,1309,1329,1352,1369,1389,1409,1428,1449,1469,1488,1508,1529,1549,1569,1589,1609,1629,1650,1668,1689,1709,1729,1750,1769,1788,1808],"xSR":350,"ySR":768,"xT1":30,"yT1":0,"xT2":670,"yT2":0,"toosoon":0,"cond_shown":"randomdotsize","ratio_trial":500,"smaller_num":"6","larger_num":"12","correct_side":1,"subjID":"8","gender":"No_gender","age":"No_age","school":"No_school"},{"start_time":1549309984496,"click_time":1549309986007,"finger_time":1549309985467,"fix_duration":1326.808855343506,"trial":2,"RT":971,"MT":540,"sideResp":1,"stimulus":"img/900/randomdotsize/R/9_Ratio_900_L_18_R_20.png","xmouse":[388,388,388,388,388,388,388,388,388,388,388,388,388,388,388,388,388,388.66668701171875,388.66668701171875,388.66668701171875,388.66668701171875,388.66668701171875,388.66668701171875,388.66668701171875,388.66668701171875,388.66668701171875,388.66668701171875,388,388,388,388,388,388,388,388,388,388,388.66668701171875,388.66668701171875,390.66668701171875,392,392.66668701171875,395.3333435058594,398,400,401.3333435058594,404,408.66668701171875,411.3333435058594,413.3333435058594,416.66668701171875,418.66668701171875,418.66668701171875,416.66668701171875,414.66668701171875,406,400,380,376,364,352.66668701171875,346,324,304,283.3333435058594,271.3333435058594,250,218,198.6666717529297,189.33334350585938,174.6666717529297,166.6666717529297,136.6666717529297,130,118.66667175292969,112.66667175292969],"ymouse":[828,828,828,828,828,828,828,820.6666870117188,820.6666870117188,820.6666870117188,820.6666870117188,820.6666870117188,820.6666870117188,820.6666870117188,820.6666870117188,820.6666870117188,820.6666870117188,822,822,822,822,822,822,822,822,822,822,821.3333740234375,821.3333740234375,821.3333740234375,821.3333740234375,821.3333740234375,821.3333740234375,821.3333740234375,821.3333740234375,821.3333740234375,821.3333740234375,819.3333740234375,819.3333740234375,814.6666870117188,811.3333740234375,810,804.6666870117188,800,794,790.6666870117188,783.3333740234375,769.3333740234375,759.3333740234375,753.3333740234375,742.6666870117188,731.3333740234375,713.3333740234375,697.3333740234375,687.3333740234375,656,636,562,542.6666870117188,506.66668701171875,472,456.66668701171875,408.66668701171875,376,343.3333435058594,327.3333435058594,298,252.66668701171875,224,211.33334350585938,186,174.6666717529297,130.6666717529297,120,103.33333587646484,94.66667175292969],"timestamp_mouse":[10,31,53,71,90,111,130,151,171,191,211,231,251,271,291,311,331,351,370,391,411,431,451,471,491,511,531,551,570,590,611,631,650,671,691,711,731,751,771,790,811,830,851,871,891,911,931,951,971,990,1010,1031,1051,1070,1091,1110,1131,1153,1171,1190,1211,1231,1253,1271,1291,1310,1330,1352,1371,1391,1411,1430,1453,1470,1490,1511],"xSR":350,"ySR":768,"xT1":30,"yT1":0,"xT2":670,"yT2":0,"toosoon":0,"cond_shown":"randomdotsize","ratio_trial":900,"smaller_num":"18","larger_num":"20","correct_side":2,"subjID":"8","gender":"No_gender","age":"No_age","school":"No_school"},{"start_time":1549309988302,"click_time":1549309989707,"finger_time":1549309989327,"fix_duration":1313.1559110202236,"trial":3,"RT":1025,"MT":380,"sideResp":2,"stimulus":"img/750/randomdotsize/R/3_Ratio_750_L_15_R_20.png","xmouse":[410,410,410,410,410,410,410,407.3333435058594,407.3333435058594,407.3333435058594,407.3333435058594,407.3333435058594,407.3333435058594,407.3333435058594,407.3333435058594,407.3333435058594,407.3333435058594,406.66668701171875,406.66668701171875,406.66668701171875,406.66668701171875,406.66668701171875,406.66668701171875,406.66668701171875,406.66668701171875,406.66668701171875,406.66668701171875,408.66668701171875,408.66668701171875,408.66668701171875,408.66668701171875,408.66668701171875,408.66668701171875,408.66668701171875,408.66668701171875,408.66668701171875,408.66668701171875,409.3333435058594,409.3333435058594,409.3333435058594,409.3333435058594,409.3333435058594,409.3333435058594,411.3333435058594,411.3333435058594,412,414,414.66668701171875,420,422.66668701171875,430,435.3333435058594,450,474,493.3333435058594,514,524,540.6666870117188,562,580.6666870117188,588,603.3333740234375,616,635.3333740234375,642.6666870117188,655.3333740234375,664.6666870117188,674,686,697.3333740234375,708],"ymouse":[836.6666870117188,836.6666870117188,836.6666870117188,836.6666870117188,836.6666870117188,836.6666870117188,836.6666870117188,836,836,836,836,836,836,836,836,836,836,832.6666870117188,832.6666870117188,832.6666870117188,832.6666870117188,832.6666870117188,832.6666870117188,832.6666870117188,832.6666870117188,832.6666870117188,832.6666870117188,830,830,830,830,830,830,830,830,830,830,828,828,828,828,828,828,818.6666870117188,817.3333740234375,813.3333740234375,808.6666870117188,806.6666870117188,796,791.3333740234375,773.3333740234375,759.3333740234375,724.6666870117188,674,635.3333740234375,591.3333740234375,570,527.3333740234375,466,420,398,353.3333435058594,313.3333435058594,256.66668701171875,238.6666717529297,207.33334350585938,180.6666717529297,156,131.33334350585938,111.33333587646484,94.66667175292969],"timestamp_mouse":[5,31,45,65,84,105,125,145,166,185,204,224,245,265,285,305,325,345,364,385,405,425,445,465,485,505,525,545,565,585,605,625,645,665,685,705,740,745,765,785,805,825,845,866,885,904,925,945,965,984,1004,1025,1045,1065,1085,1105,1125,1145,1167,1184,1205,1224,1245,1267,1285,1305,1325,1345,1365,1385,1404],"xSR":350,"ySR":768,"xT1":30,"yT1":0,"xT2":670,"yT2":0,"toosoon":0,"cond_shown":"randomdotsize","ratio_trial":750,"smaller_num":"15","larger_num":"20","correct_side":2,"subjID":"8","gender":"No_gender","age":"No_age","school":"No_school"},{"start_time":1549309991511,"click_time":1549309992788,"finger_time":1549309992207,"fix_duration":802.1438493479842,"trial":4,"RT":696,"MT":581,"sideResp":2,"stimulus":"img/500/equaldotanddens/R/6_Ratio_500_L_9_R_18.png","xmouse":[398.66668701171875,398.66668701171875,398.66668701171875,399.3333435058594,399.3333435058594,399.3333435058594,399.3333435058594,400,400,400,400,400,400,400,400,399.3333435058594,399.3333435058594,399.3333435058594,399.3333435058594,399.3333435058594,399.3333435058594,399.3333435058594,399.3333435058594,399.3333435058594,399.3333435058594,399.3333435058594,399.3333435058594,399.3333435058594,399.3333435058594,399.3333435058594,412.66668701171875,414,414.66668701171875,418.66668701171875,421.3333435058594,426.66668701171875,432,447.3333435058594,469.3333435058594,481.3333435058594,496.66668701171875,506.66668701171875,525.3333740234375,542,551.3333740234375,556.6666870117188,567.3333740234375,575.3333740234375,579.3333740234375,598,602.6666870117188,612.6666870117188,618,630.6666870117188,648.6666870117188,657.3333740234375,661.3333740234375,667.3333740234375,674.6666870117188,682,686.6666870117188,688.6666870117188,692.6666870117188,698.6666870117188],"ymouse":[838.0000610351562,838.0000610351562,838.0000610351562,840.6666870117188,840.6666870117188,840.6666870117188,840,840,840,840,840,840,840,840,840,839.3333740234375,839.3333740234375,839.3333740234375,840,840,840,840,839.3333740234375,839.3333740234375,839.3333740234375,839.3333740234375,839.3333740234375,839.3333740234375,839.3333740234375,839.3333740234375,805.3333740234375,796.6666870117188,792.6666870117188,770.6666870117188,764,748.6666870117188,736.6666870117188,703.3333740234375,656.6666870117188,628,594.6666870117188,574.6666870117188,536.6666870117188,484.66668701171875,454.66668701171875,438.66668701171875,408.66668701171875,383.3333435058594,370,315.3333435058594,302,275.3333435058594,262,234.6666717529297,197.33334350585938,179.33334350585938,170.6666717529297,156.6666717529297,144,131.33334350585938,121.33334350585938,117.33334350585938,108,97.33333587646484],"timestamp_mouse":[29,36,55,76,96,116,136,156,176,196,215,236,255,275,296,316,336,356,377,396,416,435,456,475,495,515,535,556,576,596,616,636,655,677,696,716,736,755,777,796,816,836,856,877,895,916,936,956,975,999,1016,1036,1055,1076,1096,1116,1136,1156,1176,1196,1216,1236,1256,1277],"xSR":350,"ySR":768,"xT1":30,"yT1":0,"xT2":670,"yT2":0,"toosoon":0,"cond_shown":"equaldotanddens","ratio_trial":500,"smaller_num":"9","larger_num":"18","correct_side":2,"subjID":"8","gender":"No_gender","age":"No_age","school":"No_school"},{"start_time":1549309994682,"click_time":1549309995867,"finger_time":1549309995447,"fix_duration":1013.412552923963,"trial":5,"RT":765,"MT":420,"sideResp":1,"stimulus":"img/500/equaldotanddens/L/5_Ratio_500_L_4_R_2.png","xmouse":[402,402,402,402,402,402,402,402,402,402,402,402,402,400.66668701171875,400.66668701171875,400.66668701171875,400.66668701171875,400.66668701171875,400.66668701171875,400.66668701171875,400.66668701171875,400.66668701171875,400.66668701171875,400,400,400,400,400,400,396.66668701171875,396,394,392.66668701171875,391.3333435058594,390.66668701171875,388.66668701171875,385.3333435058594,382.66668701171875,378.66668701171875,376,366,345.3333435058594,332.66668701171875,327.3333435058594,314.66668701171875,298.66668701171875,292,267.3333435058594,247.33334350585938,237.33334350585938,217.33334350585938,201.33334350585938,176.6666717529297,159.33334350585938,153.33334350585938,140,134,109.33333587646484,102,93.33333587646484],"ymouse":[829.3333740234375,829.3333740234375,829.3333740234375,830.6666870117188,830.6666870117188,830.6666870117188,830.6666870117188,830.6666870117188,830.6666870117188,830.6666870117188,830.6666870117188,830.6666870117188,830.6666870117188,830.6666870117188,830.6666870117188,830.6666870117188,830.6666870117188,830.6666870117188,830.6666870117188,830.6666870117188,830.6666870117188,830.6666870117188,830.6666870117188,832.6666870117188,832.6666870117188,832.6666870117188,832.6666870117188,832.6666870117188,832.6666870117188,822,819.3333740234375,809.3333740234375,806.6666870117188,800.6666870117188,798,790.6666870117188,778.6666870117188,770,756,746.6666870117188,719.3333740234375,667.3333740234375,637.3333740234375,622,589.3333740234375,550.6666870117188,531.3333740234375,473.3333435058594,430,406.66668701171875,363.3333435058594,324.66668701171875,267.3333435058594,229.33334350585938,212.6666717529297,184.6666717529297,172,117.33334350585938,103.33333587646484,83.33333587646484],"timestamp_mouse":[6,26,45,65,85,104,125,145,164,185,205,225,245,265,285,305,325,345,365,385,405,426,445,464,485,505,526,546,565,584,605,626,645,664,684,705,727,744,765,785,804,826,845,865,885,905,925,945,965,984,1006,1025,1045,1065,1085,1105,1125,1144,1165,1185],"xSR":350,"ySR":768,"xT1":30,"yT1":0,"xT2":670,"yT2":0,"toosoon":0,"cond_shown":"equaldotanddens","ratio_trial":500,"smaller_num":"2","larger_num":"4","correct_side":1,"subjID":"8","gender":"No_gender","age":"No_age","school":"No_school"},{"start_time":1549309997829,"click_time":1549309999087,"finger_time":1549309998767,"fix_duration":1000.0368757722841,"trial":6,"RT":938,"MT":320,"sideResp":2,"stimulus":"img/900/equaldotanddens/R/13_Ratio_900_L_18_R_20.png","xmouse":[394.66668701171875,394.66668701171875,394.66668701171875,394.66668701171875,395.3333435058594,395.3333435058594,395.3333435058594,395.3333435058594,395.3333435058594,395.3333435058594,395.3333435058594,395.3333435058594,395.3333435058594,395.3333435058594,396,396,396,396,396,396,396,396,396,396,398,398,398,398,398,398,406.66668701171875,407.3333435058594,408.66668701171875,408.66668701171875,410,410,410,410,410.66668701171875,411.3333435058594,412.66668701171875,412.66668701171875,414,415.3333435058594,416.66668701171875,419.3333435058594,423.3333435058594,442.66668701171875,455.3333435058594,484.66668701171875,519.3333740234375,538.6666870117188,548.6666870117188,571.3333740234375,591.3333740234375,624,646,657.3333740234375,674.6666870117188,682.6666870117188,707.3333740234375,714,725.3333740234375],"ymouse":[820,820,820,820,825.3333129882812,825.3333129882812,825.3333129882812,825.3333129882812,825.3333129882812,825.3333129882812,825.3333129882812,825.3333129882812,825.3333129882812,825.3333129882812,828.6666870117188,828.6666870117188,828.6666870117188,828.6666870117188,828.6666870117188,828.6666870117188,828.6666870117188,828.6666870117188,828.6666870117188,828.6666870117188,826.6666870117188,826.6666870117188,826.6666870117188,826.6666870117188,826.6666870117188,826.6666870117188,808,806,802.6666870117188,801.3333740234375,798.6666870117188,797.3333740234375,796,795.3333740234375,794.6666870117188,793.3333740234375,792.6666870117188,792,790,788,782,774.6666870117188,766,732.6666870117188,711.3333740234375,664.6666870117188,598,553.3333740234375,528.6666870117188,477.3333435058594,428.66668701171875,352.66668701171875,302.66668701171875,278,230.6666717529297,210,138.6666717529297,123.33334350585938,97.33333587646484],"timestamp_mouse":[36,51,58,78,98,118,138,158,178,198,218,238,258,278,298,318,338,358,378,398,417,438,458,478,498,518,538,557,577,598,618,638,658,678,700,718,738,757,778,799,818,838,858,877,899,917,938,958,978,999,1018,1038,1058,1077,1098,1120,1137,1157,1178,1198,1218,1238,1258],"xSR":350,"ySR":768,"xT1":30,"yT1":0,"xT2":670,"yT2":0,"toosoon":0,"cond_shown":"equaldotanddens","ratio_trial":900,"smaller_num":"18","larger_num":"20","correct_side":2,"subjID":"8","gender":"No_gender","age":"No_age","school":"No_school"},{"start_time":1549310000692,"click_time":1549310002167,"finger_time":1549310001807,"fix_duration":603.653916183873,"trial":7,"RT":1115,"MT":360,"sideResp":2,"stimulus":"img/750/randomdotsizeEA/R/15_Ratio_750_L_9_R_12.png","xmouse":[408,408,408,407.3333435058594,407.3333435058594,407.3333435058594,407.3333435058594,406.66668701171875,406.66668701171875,406.66668701171875,406.66668701171875,407.3333435058594,407.3333435058594,407.3333435058594,407.3333435058594,407.3333435058594,407.3333435058594,408,408,408,408,408,408,408,408,408,408.66668701171875,408.66668701171875,408.66668701171875,408.66668701171875,408.66668701171875,408.66668701171875,408.66668701171875,408.66668701171875,408.66668701171875,408.66668701171875,409.3333435058594,410,410,410,409.3333435058594,409.3333435058594,408,406,405.3333435058594,404,402.66668701171875,400,400,399.3333435058594,399.3333435058594,400,401.3333435058594,404,407.3333435058594,408.66668701171875,413.3333435058594,422.66668701171875,430.66668701171875,470.66668701171875,480.66668701171875,502.66668701171875,518,578,590.6666870117188,612,620.6666870117188,642.6666870117188,665.3333740234375,676,687.3333740234375,692,704,716],"ymouse":[836.6666870117188,836.6666870117188,834.6666870117188,834,833.3333740234375,833.3333740234375,833.3333740234375,832.6666870117188,832.6666870117188,832.6666870117188,832.6666870117188,832.6666870117188,832,832,832,831.3333740234375,831.3333740234375,830.6666870117188,830.6666870117188,830.6666870117188,830,830,830,829.3333740234375,829.3333740234375,830,830.0000610351562,830.0000610351562,830.0000610351562,830.0000610351562,830.0000610351562,830.0000610351562,830.0000610351562,830.0000610351562,830.0000610351562,830.0000610351562,828.6666870117188,828,827.3333740234375,826.6666870117188,826,824.6666870117188,822,819.3333740234375,817.3333740234375,813.3333740234375,811.3333740234375,802,799.3333740234375,794.6666870117188,789.3333740234375,786.6666870117188,781.3333740234375,773.3333740234375,768,765.3333740234375,756.6666870117188,737.3333740234375,722,653.3333740234375,636.6666870117188,597.3333740234375,574,470,443.3333435058594,393.3333435058594,369.3333435058594,316,243.33334350585938,202,165.33334350585938,148,118,87.33333587646484],"timestamp_mouse":[15,37,56,75,94,115,135,155,175,195,214,234,254,275,295,315,335,357,375,395,415,435,455,475,495,515,534,554,575,595,615,634,654,675,694,715,735,757,775,794,815,835,857,875,895,914,934,958,975,994,1015,1035,1054,1075,1095,1115,1135,1156,1174,1196,1215,1235,1255,1274,1294,1315,1335,1355,1375,1395,1415,1435,1455,1475],"xSR":350,"ySR":768,"xT1":30,"yT1":0,"xT2":670,"yT2":0,"toosoon":0,"cond_shown":"randomdotsizeEA","ratio_trial":750,"smaller_num":"9","larger_num":"12","correct_side":2,"subjID":"8","gender":"No_gender","age":"No_age","school":"No_school"},{"start_time":1549310004512,"click_time":1549310005646,"finger_time":1549310005287,"fix_duration":1424.0003665991317,"trial":8,"RT":775,"MT":359,"sideResp":1,"stimulus":"img/250/equaldotsize/L/2_Ratio_250_L_16_R_4.png","xmouse":[400,400,400,400,400,400,400,400,400,400,400,400,400,400,400,400,400,400,400.66668701171875,400.66668701171875,400.66668701171875,400.66668701171875,400.66668701171875,400.66668701171875,400.66668701171875,400.66668701171875,400.66668701171875,400.66668701171875,400,400,400,398,397.3333435058594,393.3333435058594,392,388.66668701171875,383.3333435058594,380,362.66668701171875,344.66668701171875,324,312,287.3333435058594,252.6666717529297,230,218,197.33334350585938,176.6666717529297,147.33334350585938,136.6666717529297,120.66667175292969,106,99.33333587646484,82.66667175292969,74,70.66667175292969,64.66667175292969],"ymouse":[830.6666870117188,830.6666870117188,830.6666870117188,830.6666870117188,830.6666870117188,830.6666870117188,830.6666870117188,830.6666870117188,831.3333129882812,831.3333129882812,831.3333129882812,831.3333129882812,831.3333129882812,831.3333129882812,831.3333129882812,831.3333129882812,831.3333129882812,831.3333129882812,832,832,832,832,832,832,832,832,832,832,823.3333740234375,823.3333740234375,823.3333740234375,810.6666870117188,808.6666870117188,798,794.6666870117188,788,778,771.3333740234375,736,698,656.6666870117188,634.6666870117188,590.6666870117188,520,470.66668701171875,445.3333435058594,398.66668701171875,354.66668701171875,292.66668701171875,272,234.6666717529297,200.6666717529297,184.6666717529297,140,114.66667175292969,102,82],"timestamp_mouse":[15,37,55,74,95,115,135,155,175,195,215,235,255,275,295,315,335,355,375,395,415,435,456,475,495,515,535,555,576,595,615,635,655,674,694,714,735,755,775,798,816,834,855,875,895,915,935,955,977,994,1014,1034,1055,1077,1094,1115,1134],"xSR":350,"ySR":768,"xT1":30,"yT1":0,"xT2":670,"yT2":0,"toosoon":0,"cond_shown":"equaldotsize","ratio_trial":250,"smaller_num":"4","larger_num":"16","correct_side":1,"subjID":"8","gender":"No_gender","age":"No_age","school":"No_school"},{"start_time":1549310007838,"click_time":1549310009227,"finger_time":1549310008548,"fix_duration":1248.587474986408,"trial":9,"RT":710,"MT":679,"sideResp":1,"stimulus":"img/900/randomdotsize/R/6_Ratio_900_L_9_R_10.png","xmouse":[416.66668701171875,416.66668701171875,416.66668701171875,416.66668701171875,416.66668701171875,416.66668701171875,416.66668701171875,416.66668701171875,416.66668701171875,416.66668701171875,415.3333435058594,415.3333435058594,415.3333435058594,415.3333435058594,415.3333435058594,415.3333435058594,415.3333435058594,415.3333435058594,415.3333435058594,420.66668701171875,422.66668701171875,423.3333435058594,426,430,432.66668701171875,432.66668701171875,433.3333435058594,432.66668701171875,432,432,432.66668701171875,433.3333435058594,434.66668701171875,437.3333435058594,438,438.66668701171875,439.3333435058594,440,440.66668701171875,440.66668701171875,440.66668701171875,440,440,437.3333435058594,436.66668701171875,433.3333435058594,429.3333435058594,427.3333435058594,421.3333435058594,411.3333435058594,401.3333435058594,394.66668701171875,378.66668701171875,352.66668701171875,334.66668701171875,326,306,288.66668701171875,261.3333435058594,250.6666717529297,234.6666717529297,216.6666717529297,209.33334350585938,176,167.33334350585938,151.33334350585938,144.6666717529297,130.6666717529297,116,107.33333587646484],"ymouse":[844.0000610351562,844.0000610351562,844.0000610351562,844.0000610351562,844.0000610351562,844.0000610351562,844.0000610351562,844.0000610351562,844.0000610351562,844.0000610351562,840.0000610351562,840.0000610351562,840.0000610351562,840.0000610351562,840.0000610351562,840.0000610351562,840.0000610351562,840.0000610351562,840.0000610351562,828.6666870117188,825.3333740234375,823.3333740234375,819.3333740234375,813.3333740234375,809.3333740234375,806.6666870117188,802.6666870117188,798.6666870117188,792.6666870117188,790.6666870117188,786.6666870117188,782.6666870117188,780.6666870117188,772.6666870117188,770.6666870117188,766.6666870117188,764.6666870117188,759.3333740234375,752,747.3333740234375,745.3333740234375,741.3333740234375,738,732,729.3333740234375,724.6666870117188,718,714.6666870117188,706.6666870117188,689.3333740234375,672.6666870117188,660.6666870117188,630,584.6666870117188,554,538,506.66668701171875,473.3333435058594,420.66668701171875,403.3333435058594,370.66668701171875,337.3333435058594,320.66668701171875,250,233.33334350585938,201.33334350585938,184.6666717529297,152,110,93.33333587646484],"timestamp_mouse":[11,35,49,68,89,109,129,150,169,189,209,229,249,269,289,309,329,348,369,389,409,429,448,469,489,508,529,549,568,589,608,629,649,670,689,710,729,750,770,789,809,829,849,870,889,908,929,949,969,990,1009,1029,1049,1070,1089,1108,1129,1149,1170,1189,1209,1229,1249,1270,1290,1309,1329,1349,1370,1389],"xSR":350,"ySR":768,"xT1":30,"yT1":0,"xT2":670,"yT2":0,"toosoon":0,"cond_shown":"randomdotsize","ratio_trial":900,"smaller_num":"9","larger_num":"10","correct_side":2,"subjID":"8","gender":"No_gender","age":"No_age","school":"No_school"},{"start_time":1549310011528,"click_time":1549310013167,"finger_time":1549310012487,"fix_duration":1300.9527270390981,"trial":10,"RT":959,"MT":680,"sideResp":1,"stimulus":"img/900/equaldotsize/L/10_Ratio_900_L_20_R_18.png","xmouse":[408.66668701171875,408.66668701171875,408.66668701171875,408.66668701171875,408.66668701171875,408.66668701171875,408.66668701171875,408.66668701171875,408.66668701171875,408,408,408,408,408,408,408,408,408,408,408,408,408,408,408,411.3333435058594,411.3333435058594,412,412.66668701171875,413.3333435058594,414,416,417.3333435058594,418,420,423.3333435058594,424.66668701171875,424.66668701171875,426,426.66668701171875,426.66668701171875,426.66668701171875,426.66668701171875,426.66668701171875,426.66668701171875,427.3333435058594,427.3333435058594,428,428,428.66668701171875,429.3333435058594,430.66668701171875,432,432,433.3333435058594,434,434.66668701171875,434.66668701171875,434,434,433.3333435058594,429.3333435058594,424.66668701171875,420,418,411.3333435058594,394,380,371.3333435058594,352,320.66668701171875,297.3333435058594,288.66668701171875,268.66668701171875,247.33334350585938,238,208.6666717529297,188.6666717529297,170.6666717529297,162,145.33334350585938,123.33333587646484,112],"ymouse":[820.6666870117188,820.6666870117188,820.6666870117188,821.3333740234375,821.3333740234375,821.3333740234375,821.3333740234375,821.3333740234375,821.3333740234375,818,817.3333740234375,817.3333740234375,817.3333740234375,817.3333740234375,818.0000610351562,818.0000610351562,818.0000610351562,818.0000610351562,818.0000610351562,818.0000610351562,818.0000610351562,818.0000610351562,818.0000610351562,818.0000610351562,816,815.3333740234375,814.6666870117188,813.3333740234375,813.3333740234375,811.3333740234375,808,805.3333740234375,803.3333740234375,800.6666870117188,796.6666870117188,794,792.6666870117188,789.3333740234375,786,781.3333740234375,778.6666870117188,777.3333740234375,775.3333740234375,774.6666870117188,771.3333740234375,770.6666870117188,768.6666870117188,766.6666870117188,766,763.3333740234375,758,753.3333740234375,751.3333740234375,746.6666870117188,742,734,730.6666870117188,724.6666870117188,717.3333740234375,712,684,661.3333740234375,644.6666870117188,634.6666870117188,606.6666870117188,554,520.6666870117188,504,470.66668701171875,421.3333435058594,387.3333435058594,373.3333435058594,342.66668701171875,310.66668701171875,294.66668701171875,248.66668701171875,220.6666717529297,192.6666717529297,179.33334350585938,153.33334350585938,116.66667175292969,98.66667175292969],"timestamp_mouse":[32,39,59,79,99,118,139,159,179,200,218,239,259,278,299,318,339,359,379,400,418,439,459,479,499,519,539,559,579,599,619,639,659,679,699,719,739,759,779,799,818,839,858,879,899,918,939,959,979,999,1019,1039,1059,1079,1099,1119,1139,1159,1179,1199,1219,1239,1258,1278,1299,1319,1340,1359,1378,1400,1418,1439,1459,1479,1499,1518,1539,1559,1578,1599,1619,1639],"xSR":350,"ySR":768,"xT1":30,"yT1":0,"xT2":670,"yT2":0,"toosoon":0,"cond_shown":"equaldotsize","ratio_trial":900,"smaller_num":"18","larger_num":"20","correct_side":1,"subjID":"8","gender":"No_gender","age":"No_age","school":"No_school"},{"start_time":1549310014338,"click_time":1549310015968,"finger_time":1549310015487,"fix_duration":250,"trial":11,"RT":1149,"MT":481,"sideResp":2,"stimulus":"img/750/randomdotsizeEA/R/4_Ratio_750_L_15_R_20.png","xmouse":[400.66668701171875,400.66668701171875,400,400,400,400,400,400,400,400,400,400,400,400,400,400,400,400,400,400,400,400,400,401.3333435058594,401.3333435058594,401.3333435058594,401.3333435058594,401.3333435058594,401.3333435058594,401.3333435058594,401.3333435058594,401.3333435058594,401.3333435058594,404,404,405.3333435058594,406,406,406,405.3333435058594,405.3333435058594,405.3333435058594,406,406,406.66668701171875,407.3333435058594,408,408.66668701171875,408.66668701171875,409.3333435058594,408.66668701171875,408.66668701171875,408,408,408,408.66668701171875,410.66668701171875,412.66668701171875,414,417.3333435058594,420.66668701171875,430.66668701171875,436.66668701171875,452,467.3333435058594,474,495.3333435058594,515.3333740234375,533.3333740234375,544,566,603.3333740234375,628,636.6666870117188,653.3333740234375,673.3333740234375,684,686,690,692,693.3333740234375,698.6666870117188],"ymouse":[830,830,829.3333129882812,829.3333129882812,829.3333129882812,829.3333129882812,829.3333129882812,829.3333129882812,829.3333129882812,829.3333129882812,829.3333129882812,829.3333129882812,829.3333129882812,827.3333129882812,827.3333129882812,827.3333129882812,827.3333129882812,827.3333129882812,827.3333129882812,827.3333129882812,827.3333129882812,827.3333129882812,827.3333129882812,819.3333129882812,819.3333129882812,819.3333129882812,819.3333129882812,819.3333129882812,819.3333129882812,819.3333129882812,819.3333129882812,819.3333129882812,819.3333129882812,814,814,813.3333740234375,812.6666870117188,812,811.3333740234375,810.6666870117188,809.3333740234375,808.6666870117188,807.3333740234375,806.6666870117188,806,802.6666870117188,800,798.6666870117188,796,794,787.3333740234375,785.3333740234375,781.3333740234375,779.3333740234375,775.3333740234375,771.3333740234375,768,764.6666870117188,762,755.3333740234375,745.3333740234375,716.6666870117188,700.6666870117188,663.3333740234375,628,610,552.6666870117188,511.3333740234375,467.3333435058594,444.66668701171875,398.66668701171875,329.3333435058594,284.66668701171875,263.3333435058594,224.6666717529297,176,149.33334350585938,140,124,114.66667175292969,110.66667175292969,94],"timestamp_mouse":[14,39,48,68,89,108,128,149,169,189,209,229,249,269,288,309,329,349,369,389,409,430,449,469,489,508,529,549,569,589,609,629,649,669,689,709,729,749,769,789,809,828,849,869,889,910,929,948,969,989,1012,1029,1049,1069,1089,1111,1129,1149,1169,1189,1209,1229,1249,1269,1289,1309,1330,1348,1369,1389,1409,1429,1449,1469,1488,1511,1528,1549,1569,1589,1609,1630],"xSR":350,"ySR":768,"xT1":30,"yT1":0,"xT2":670,"yT2":0,"toosoon":0,"cond_shown":"randomdotsizeEA","ratio_trial":750,"smaller_num":"15","larger_num":"20","correct_side":2,"subjID":"8","gender":"No_gender","age":"No_age","school":"No_school"},{"start_time":1549310017634,"click_time":1549310018807,"finger_time":1549310018486,"fix_duration":686.2529651912139,"trial":12,"RT":852,"MT":321,"sideResp":2,"stimulus":"img/250/randomdotsizeEA/R/13_Ratio_250_L_2_R_8.png","xmouse":[414.66668701171875,414.66668701171875,414.66668701171875,414.66668701171875,415.3333435058594,415.3333435058594,415.3333435058594,415.3333435058594,415.3333435058594,415.3333435058594,415.3333435058594,415.3333435058594,415.3333435058594,417.3333435058594,417.3333435058594,417.3333435058594,417.3333435058594,418,418,417.3333435058594,417.3333435058594,417.3333435058594,418,418.66668701171875,418.66668701171875,419.3333435058594,420,420,420,420,420,420,420,420.66668701171875,421.3333435058594,422,423.3333435058594,424,424.66668701171875,424.66668701171875,424.66668701171875,425.3333435058594,433.3333435058594,440,453.3333435058594,464.66668701171875,488.66668701171875,497.3333435058594,512,528,535.3333740234375,554,582,600.6666870117188,610.6666870117188,632,649.3333740234375,670,686.6666870117188],"ymouse":[824.6666870117188,824.6666870117188,825.3333740234375,825.3333740234375,826,826,826,826,826,826,826,826,826,823.3333740234375,822.6666870117188,822,821.3333740234375,820.6666870117188,820,818.6666870117188,818.6666870117188,816,812.6666870117188,810.6666870117188,810,809.3333740234375,809.3333740234375,809.3333740234375,809.3333740234375,809.3333740234375,809.3333740234375,807.3333740234375,806.6666870117188,806,804.6666870117188,803.3333740234375,800.6666870117188,798.6666870117188,795.3333740234375,793.3333740234375,788.6666870117188,776,750,732,697.3333740234375,661.3333740234375,592.6666870117188,567.3333740234375,514.6666870117188,463.3333435058594,438.66668701171875,384,303.3333435058594,254,229.33334350585938,185.33334350585938,148,106.66667175292969,82],"timestamp_mouse":[13,37,53,73,93,113,133,153,173,192,213,233,253,272,293,313,333,353,374,395,413,434,453,473,493,513,534,553,573,593,612,634,653,673,693,713,734,753,773,793,812,835,852,873,893,913,935,953,973,993,1013,1033,1053,1073,1092,1113,1133,1153,1173],"xSR":350,"ySR":768,"xT1":30,"yT1":0,"xT2":670,"yT2":0,"toosoon":0,"cond_shown":"randomdotsizeEA","ratio_trial":250,"smaller_num":"2","larger_num":"8","correct_side":2,"subjID":"8","gender":"No_gender","age":"No_age","school":"No_school"},{"start_time":1549310019998,"click_time":1549310021367,"finger_time":1549310020927,"fix_duration":250,"trial":13,"RT":929,"MT":440,"sideResp":1,"stimulus":"img/750/equaldotanddens/L/8_Ratio_750_L_4_R_3.png","xmouse":[398,398,402,402,402,402,402,402,402,402,402,402,400.6666564941406,400.6666564941406,400.6666564941406,400.6666564941406,400.6666564941406,400.6666564941406,400.6666564941406,400.6666564941406,400.6666564941406,400.6666564941406,400,400,400,400,400,400,400,400,400,400,396.66668701171875,396,394.66668701171875,394.66668701171875,394.66668701171875,394.66668701171875,394.66668701171875,394,393.3333435058594,392,390.66668701171875,388.66668701171875,384,380.66668701171875,375.3333435058594,371.3333435058594,360.66668701171875,354,325.3333435058594,318,303.3333435058594,296,279.3333435058594,257.3333435058594,239.33334350585938,217.33334350585938,207.33334350585938,185.33334350585938,158,141.33334350585938,132.6666717529297,118.66667175292969,112,93.33333587646484,88.66667175292969,81.33333587646484,78],"ymouse":[840,840,830,830,830,830,830,830,830,830,830,830,832.6666870117188,832.6666870117188,832.6666870117188,832.6666870117188,832.6666870117188,832.6666870117188,832.6666870117188,832.6666870117188,832.6666870117188,832.6666870117188,830.6666870117188,830.6666870117188,830.6666870117188,830.6666870117188,830.6666870117188,830.6666870117188,830.6666870117188,830.6666870117188,830.6666870117188,830.6666870117188,818.6666870117188,814.6666870117188,810,807.3333740234375,806.6666870117188,804,802.6666870117188,798.6666870117188,797.3333740234375,794.6666870117188,792.6666870117188,788.6666870117188,780,771.3333740234375,758.6666870117188,751.3333740234375,725.3333740234375,709.3333740234375,644,628,593.3333740234375,575.3333740234375,538.6666870117188,484.66668701171875,446,406.66668701171875,386,347.3333435058594,292,255.33334350585938,238,203.33334350585938,188.6666717529297,136,124,106.66667175292969,99.33333587646484],"timestamp_mouse":[21,38,49,69,89,109,129,149,169,189,209,229,249,269,289,309,329,349,369,389,409,429,449,469,488,509,529,549,569,588,609,629,649,669,690,709,729,749,769,790,809,829,849,869,890,909,929,949,969,989,1009,1029,1049,1069,1089,1110,1129,1149,1168,1189,1209,1228,1249,1269,1289,1311,1329,1349,1369],"xSR":350,"ySR":768,"xT1":30,"yT1":0,"xT2":670,"yT2":0,"toosoon":0,"cond_shown":"equaldotanddens","ratio_trial":750,"smaller_num":"3","larger_num":"4","correct_side":1,"subjID":"8","gender":"No_gender","age":"No_age","school":"No_school"},{"start_time":1549310022642,"click_time":1549310023807,"finger_time":1549310023368,"fix_duration":334.9795332240044,"trial":14,"RT":726,"MT":439,"sideResp":2,"stimulus":"img/900/randomdotsizeEA/R/7_Ratio_900_L_9_R_10.png","xmouse":[395.3333435058594,396,396,397.3333435058594,397.3333435058594,397.3333435058594,396.66668701171875,396.66668701171875,396.66668701171875,396.66668701171875,396.66668701171875,396.66668701171875,397.3333435058594,397.3333435058594,397.3333435058594,397.3333435058594,396.66668701171875,396.66668701171875,396.66668701171875,396,396,396,396,396,396,396,396,396,400,403.3333435058594,405.3333435058594,406.66668701171875,407.3333435058594,408.66668701171875,411.3333435058594,415.3333435058594,418.66668701171875,428,455.3333435058594,474,481.3333435058594,496,514.6666870117188,544,564,573.3333740234375,592.6666870117188,610.6666870117188,619.3333740234375,640.6666870117188,651.3333740234375,662,665.3333740234375,670.6666870117188,677.3333740234375,682.6666870117188,684.6666870117188,687.3333740234375,690],"ymouse":[842.6666870117188,844,844,844.6666870117188,844.6666870117188,844,844,844,844,844,844,844,846,846,846.6666870117188,846.6666870117188,846.6666870117188,846.6666870117188,847.3333740234375,848,848,848,849.3333740234375,848.6666870117188,848.6666870117188,848.6666870117188,848.6666870117188,848.6666870117188,830,816,808,801.3333740234375,798,791.3333740234375,780,769.3333740234375,762.6666870117188,746,703.3333740234375,672.6666870117188,657.3333740234375,624.6666870117188,586.6666870117188,524.6666870117188,480.66668701171875,461.3333435058594,414.66668701171875,368.66668701171875,346.66668701171875,286,248,216.6666717529297,202.6666717529297,176,143.33334350585938,124,116,104.66667175292969,95.33333587646484],"timestamp_mouse":[5,32,45,65,85,104,125,145,165,185,204,225,245,265,285,305,324,345,365,385,405,425,445,466,485,505,525,544,565,585,605,625,645,665,685,705,726,745,766,785,805,825,845,867,885,904,925,945,964,985,1005,1025,1045,1065,1085,1105,1125,1145,1164],"xSR":350,"ySR":768,"xT1":30,"yT1":0,"xT2":670,"yT2":0,"toosoon":0,"cond_shown":"randomdotsizeEA","ratio_trial":900,"smaller_num":"9","larger_num":"10","correct_side":2,"subjID":"8","gender":"No_gender","age":"No_age","school":"No_school"},{"start_time":1549310026156,"click_time":1549310027186,"finger_time":1549310026747,"fix_duration":1345.2543797057642,"trial":15,"RT":591,"MT":439,"sideResp":1,"stimulus":"img/900/equaldotanddens/R/14_Ratio_900_L_18_R_20.png","xmouse":[389.3333435058594,389.3333435058594,389.3333435058594,390.0000305175781,390.0000305175781,390.0000305175781,390.0000305175781,390.0000305175781,390.0000305175781,390.0000305175781,390.0000305175781,390.0000305175781,390.0000305175781,390.0000305175781,390.0000305175781,390.0000305175781,390.0000305175781,390.0000305175781,390.0000305175781,390.0000305175781,390.0000305175781,385.3333435058594,384.66668701171875,384,384,382.66668701171875,380.66668701171875,380,376.66668701171875,368.66668701171875,362.66668701171875,359.3333435058594,350.66668701171875,337.3333435058594,314,305.3333435058594,290.66668701171875,276,269.3333435058594,248,235.33334350585938,222,216,203.33334350585938,184.6666717529297,173.33334350585938,166.6666717529297,155.33334350585938,146,133.33334350585938,130.6666717529297,124.66667175292969],"ymouse":[849.3333740234375,849.3333740234375,849.3333740234375,846.6666870117188,846.6666870117188,846.6666870117188,846.6666870117188,846.6666870117188,846.6666870117188,846.6666870117188,846.6666870117188,846.6666870117188,846.6666870117188,845.3333740234375,845.3333740234375,845.3333740234375,845.3333740234375,845.3333740234375,845.3333740234375,845.3333740234375,845.3333740234375,823.3333740234375,817.3333740234375,808.6666870117188,805.3333740234375,799.3333740234375,791.3333740234375,787.3333740234375,776.6666870117188,756.6666870117188,740.6666870117188,732,708,673.3333740234375,619.3333740234375,600.6666870117188,562.6666870117188,523.3333740234375,502.66668701171875,438.66668701171875,399.3333435058594,361.3333435058594,342,304,250.66668701171875,218.6666717529297,202.6666717529297,172.6666717529297,144.6666717529297,108,96.66667175292969,79.33333587646484],"timestamp_mouse":[11,36,51,71,91,111,131,151,171,191,211,231,251,272,291,311,331,351,371,391,411,430,451,472,491,511,531,551,571,591,611,630,651,671,691,711,731,751,771,791,811,831,851,871,892,911,930,950,971,991,1011,1030],"xSR":350,"ySR":768,"xT1":30,"yT1":0,"xT2":670,"yT2":0,"toosoon":0,"cond_shown":"equaldotanddens","ratio_trial":900,"smaller_num":"18","larger_num":"20","correct_side":2,"subjID":"8","gender":"No_gender","age":"No_age","school":"No_school"},{"start_time":1549310028558,"click_time":1549310029507,"finger_time":1549310029149,"fix_duration":350.05436582105744,"trial":16,"RT":591,"MT":358,"sideResp":2,"stimulus":"img/750/equaldotanddens/R/11_Ratio_750_L_12_R_16.png","xmouse":[399.3333435058594,398.66668701171875,398.66668701171875,398.66668701171875,398.66668701171875,398.66668701171875,398.66668701171875,396.66668701171875,396.66668701171875,396.66668701171875,396.66668701171875,396.66668701171875,396.66668701171875,396.66668701171875,396.66668701171875,396.66668701171875,396.66668701171875,397.3333435058594,397.3333435058594,397.3333435058594,397.3333435058594,397.3333435058594,397.3333435058594,397.3333435058594,397.3333435058594,397.3333435058594,397.3333435058594,409.3333435058594,414.66668701171875,438,467.3333435058594,489.3333435058594,496.66668701171875,510.66668701171875,538,556.6666870117188,565.3333740234375,582,589.3333740234375,624,631.3333740234375,643.3333740234375,654.6666870117188,660,671.3333740234375,686,694,697.3333740234375],"ymouse":[831.3333740234375,831.3333740234375,831.3333740234375,831.3333740234375,831.3333740234375,831.3333740234375,831.3333740234375,830.6666870117188,830.6666870117188,830.6666870117188,830.6666870117188,830.6666870117188,830.6666870117188,830.6666870117188,830.6666870117188,830.6666870117188,830.6666870117188,828.0000610351562,828.0000610351562,828.0000610351562,828.0000610351562,828.0000610351562,828.0000610351562,828.0000610351562,828.0000610351562,828.0000610351562,828.0000610351562,797.3333740234375,787.3333740234375,750,706,670.6666870117188,654.6666870117188,622,558.6666870117188,511.3333740234375,487.3333435058594,444,423.3333435058594,333.3333435058594,311.3333435058594,270.66668701171875,234.6666717529297,216,179.33334350585938,132.6666717529297,108.66667175292969,96.66667175292969],"timestamp_mouse":[12,36,49,69,89,109,128,149,169,189,208,228,249,300,300,310,329,349,369,389,409,429,449,468,489,510,528,549,569,591,609,629,648,669,690,709,729,749,769,790,809,829,848,869,889,910,928,949],"xSR":350,"ySR":768,"xT1":30,"yT1":0,"xT2":670,"yT2":0,"toosoon":0,"cond_shown":"equaldotanddens","ratio_trial":750,"smaller_num":"12","larger_num":"16","correct_side":2,"subjID":"8","gender":"No_gender","age":"No_age","school":"No_school"},{"start_time":1549310031270,"click_time":1549310032347,"finger_time":1549310031989,"fix_duration":801.8902551477319,"trial":17,"RT":719,"MT":358,"sideResp":2,"stimulus":"img/900/equaldotsize/R/9_Ratio_900_L_18_R_20.png","xmouse":[400.0000305175781,400.0000305175781,400.0000305175781,400.66668701171875,400.66668701171875,401.3333435058594,401.3333435058594,401.3333435058594,401.3333435058594,401.3333435058594,401.3333435058594,401.3333435058594,401.3333435058594,400.66668701171875,400.66668701171875,400.66668701171875,400.66668701171875,400.66668701171875,400.66668701171875,400.66668701171875,400.66668701171875,400.66668701171875,400.66668701171875,401.3333435058594,401.3333435058594,408,409.3333435058594,412.66668701171875,416,419.3333435058594,420.66668701171875,421.3333435058594,423.3333435058594,424,436,444,454,463.3333435058594,478.66668701171875,498.66668701171875,524,547.3333740234375,557.3333740234375,574.6666870117188,594,621.3333740234375,628,641.3333740234375,657.3333740234375,665.3333740234375,687.3333740234375,696.6666870117188,704.6666870117188,707.3333740234375],"ymouse":[852.0000610351562,852.0000610351562,852.0000610351562,853.3333740234375,853.3333740234375,853.3333129882812,853.3333129882812,853.3333129882812,853.3333129882812,853.3333129882812,853.3333129882812,853.3333129882812,853.3333129882812,852.6666870117188,852.6666870117188,852.6666870117188,852.6666870117188,852.6666870117188,852.6666870117188,852.6666870117188,852.6666870117188,852.6666870117188,852.6666870117188,841.3333129882812,841.3333129882812,830,828,823.3333740234375,818.6666870117188,810.6666870117188,805.3333740234375,803.3333740234375,798.6666870117188,796.6666870117188,772,757.3333740234375,741.3333740234375,725.3333740234375,694,645.3333740234375,600.6666870117188,551.3333740234375,526.6666870117188,478.66668701171875,426,346.66668701171875,322.66668701171875,277.3333435058594,232,209.33334350585938,151.33334350585938,124,106,98],"timestamp_mouse":[33,37,57,77,97,117,137,156,177,197,217,237,257,277,297,316,337,356,377,396,417,436,457,477,497,517,537,556,576,598,617,637,657,680,710,719,737,757,777,799,816,837,856,877,896,917,937,957,977,996,1017,1037,1057,1077],"xSR":350,"ySR":768,"xT1":30,"yT1":0,"xT2":670,"yT2":0,"toosoon":0,"cond_shown":"equaldotsize","ratio_trial":900,"smaller_num":"18","larger_num":"20","correct_side":2,"subjID":"8","gender":"No_gender","age":"No_age","school":"No_school"},{"start_time":1549310034715,"click_time":1549310035767,"finger_time":1549310035388,"fix_duration":1426.1318296248053,"trial":18,"RT":673,"MT":379,"sideResp":2,"stimulus":"img/900/equaldotanddens/R/9_Ratio_900_L_18_R_20.png","xmouse":[392,392.66668701171875,392.66668701171875,392.6666564941406,392.6666564941406,392.6666564941406,393.3333435058594,393.3333435058594,393.3333435058594,393.3333435058594,393.3333435058594,393.3333435058594,393.3333435058594,393.3333435058594,393.3333435058594,393.3333435058594,393.3333435058594,393.3333435058594,393.3333435058594,393.3333435058594,393.3333435058594,393.3333435058594,393.3333435058594,393.3333435058594,393.3333435058594,394,394,394,400.66668701171875,406.66668701171875,411.3333435058594,413.3333435058594,417.3333435058594,430,448,459.3333435058594,478,491.3333435058594,520.6666870117188,531.3333740234375,550.6666870117188,567.3333740234375,577.3333740234375,595.3333740234375,619.3333740234375,635.3333740234375,642.6666870117188,661.3333740234375,680,701.3333740234375,712,717.3333740234375,724],"ymouse":[842.6666870117188,836,836,834.6666870117188,834,834,834,834,834.6666870117188,834.6666870117188,834.6666870117188,834.6666870117188,834.6666870117188,834.6666870117188,834.6666870117188,834.6666870117188,834.6666870117188,834.6666870117188,835.3333129882812,835.3333129882812,835.3333129882812,835.3333129882812,835.3333129882812,835.3333129882812,835.3333129882812,830.6666870117188,830.6666870117188,830.6666870117188,822.6666870117188,814,806.6666870117188,802,793.3333740234375,767.3333740234375,736,718,684,654,595.3333740234375,571.3333740234375,522.6666870117188,475.3333435058594,449.3333435058594,400.66668701171875,330,288.66668701171875,268.66668701171875,228.6666717529297,191.33334350585938,147.33334350585938,123.33334350585938,112,91.33333587646484],"timestamp_mouse":[14,32,52,72,92,112,132,152,173,192,212,232,251,271,292,312,332,352,372,392,412,431,451,473,494,512,532,552,572,591,612,631,652,673,692,711,732,752,775,791,812,832,852,872,892,912,932,952,972,993,1012,1031,1051],"xSR":350,"ySR":768,"xT1":30,"yT1":0,"xT2":670,"yT2":0,"toosoon":0,"cond_shown":"equaldotanddens","ratio_trial":900,"smaller_num":"18","larger_num":"20","correct_side":2,"subjID":"8","gender":"No_gender","age":"No_age","school":"No_school"},{"start_time":1549310038083,"click_time":1549310039047,"finger_time":1549310038728,"fix_duration":1375.1447021917709,"trial":19,"RT":645,"MT":319,"sideResp":1,"stimulus":"img/250/randomdotsize/L/2_Ratio_250_L_16_R_4.png","xmouse":[402.0000305175781,402.66668701171875,402,402,402,402,402,402,400.6666564941406,400.6666564941406,400.6666564941406,400.6666564941406,400.6666564941406,400.6666564941406,400.6666564941406,400.6666564941406,400.6666564941406,400.6666564941406,400,400,400,400,400,400,400,400,400,400,394,392,390,386,366,347.3333435058594,338.66668701171875,322.66668701171875,305.3333435058594,276,266,243.33334350585938,223.33334350585938,213.33334350585938,172,162.6666717529297,145.33334350585938,136,120,100.66667175292969,92.66667175292969],"ymouse":[826.0000610351562,822,819.3333740234375,819.3333740234375,819.3333740234375,819.3333740234375,819.3333740234375,819.3333740234375,820,820,820,820,820,820,820,820,820,820,824.6666870117188,824.6666870117188,824.6666870117188,824.6666870117188,824.6666870117188,824.6666870117188,824.6666870117188,824.6666870117188,824.6666870117188,824.6666870117188,810.6666870117188,804,800.6666870117188,790,756,722,704.6666870117188,668.6666870117188,632,565.3333740234375,540.6666870117188,491.3333435058594,443.3333435058594,420,318.66668701171875,295.3333435058594,251.33334350585938,230,186.6666717529297,127.33334350585938,94.66667175292969],"timestamp_mouse":[4,31,47,64,84,104,124,144,164,184,204,224,245,264,283,304,324,344,363,384,403,424,443,464,484,504,525,545,564,583,604,624,645,664,684,703,724,743,764,783,804,824,845,864,884,904,924,945,963],"xSR":350,"ySR":768,"xT1":30,"yT1":0,"xT2":670,"yT2":0,"toosoon":0,"cond_shown":"randomdotsize","ratio_trial":250,"smaller_num":"4","larger_num":"16","correct_side":1,"subjID":"8","gender":"No_gender","age":"No_age","school":"No_school"},{"start_time":1549310040594,"click_time":1549310041368,"finger_time":1549310041047,"fix_duration":645.3629973839439,"trial":20,"RT":453,"MT":321,"sideResp":2,"stimulus":"img/250/equaldotsize/R/11_Ratio_250_L_3_R_12.png","xmouse":[394,394,396,396,396,396,396,396,396,396,396,396,397.3333435058594,397.3333435058594,397.3333435058594,397.3333435058594,397.3333435058594,397.3333435058594,409.3333435058594,414.66668701171875,417.3333435058594,430.66668701171875,450.66668701171875,470.66668701171875,479.3333435058594,496,528,548.6666870117188,557.3333740234375,571.3333740234375,586.6666870117188,594.6666870117188,616.6666870117188,632.6666870117188,648,654.6666870117188,666,680,691.3333740234375],"ymouse":[847.3333129882812,847.3333129882812,844.6666870117188,844.6666870117188,844.6666870117188,844.6666870117188,844.6666870117188,844.6666870117188,844.6666870117188,844.6666870117188,844.6666870117188,844.6666870117188,847.3333129882812,847.3333129882812,847.3333129882812,847.3333129882812,847.3333129882812,847.3333129882812,818.6666870117188,808,803.3333740234375,776,740,700.6666870117188,682,644,575.3333740234375,524,497.3333740234375,445.3333435058594,392.66668701171875,364.66668701171875,290.66668701171875,244,201.33334350585938,180.6666717529297,148,106,82.66667175292969],"timestamp_mouse":[13,33,54,73,92,112,133,153,173,193,212,234,255,273,293,312,333,353,373,393,413,434,452,472,493,512,534,553,573,593,613,633,653,673,692,713,733,754,772],"xSR":350,"ySR":768,"xT1":30,"yT1":0,"xT2":670,"yT2":0,"toosoon":0,"cond_shown":"equaldotsize","ratio_trial":250,"smaller_num":"3","larger_num":"12","correct_side":2,"subjID":"8","gender":"No_gender","age":"No_age","school":"No_school"},{"start_time":1549310042499,"click_time":1549310043547,"finger_time":1549310043249,"fix_duration":250,"trial":21,"RT":750,"MT":298,"sideResp":1,"stimulus":"img/500/randomdotsizeEA/L/13_Ratio_500_L_12_R_6.png","xmouse":[405.3333435058594,405.3333435058594,405.3333435058594,405.3333435058594,405.3333435058594,406.66668701171875,406.66668701171875,406.66668701171875,406.66668701171875,406.66668701171875,406.66668701171875,406.66668701171875,406.66668701171875,406.66668701171875,406.66668701171875,405.3333435058594,406,406,406,406,406,406,406,406,406,402.66668701171875,402,402,402,402,396,394.66668701171875,394.66668701171875,394.66668701171875,394.66668701171875,394.66668701171875,372.66668701171875,344.66668701171875,326.66668701171875,309.3333435058594,300.66668701171875,280,251.33334350585938,234.6666717529297,225.33334350585938,208,197.33334350585938,179.33334350585938,152,134,126,108.66667175292969,94.66667175292969],"ymouse":[844,844,844,844,844,842,842,842,842,842,842,842,842,842,842,846.6666870117188,846,846,846,846,846,846,846,846,846,840,838,838,838,838,822,821.3333740234375,821.3333740234375,821.3333740234375,821.3333740234375,821.3333740234375,793.3333740234375,746.6666870117188,716,680.6666870117188,658.6666870117188,608.6666870117188,526,468.66668701171875,438.66668701171875,384,356,298,216.6666717529297,167.33334350585938,144,103.33333587646484,68],"timestamp_mouse":[12,33,50,68,88,108,128,148,168,188,208,227,248,267,288,308,327,348,367,388,407,428,448,468,488,507,528,548,568,588,608,627,648,668,688,708,728,750,768,788,808,828,849,868,888,908,928,948,968,988,1007,1027,1048],"xSR":350,"ySR":768,"xT1":30,"yT1":0,"xT2":670,"yT2":0,"toosoon":0,"cond_shown":"randomdotsizeEA","ratio_trial":500,"smaller_num":"6","larger_num":"12","correct_side":1,"subjID":"8","gender":"No_gender","age":"No_age","school":"No_school"},{"start_time":1549310046762,"click_time":1549310047689,"finger_time":1549310047447,"fix_duration":814.5798271718639,"trial":22,"RT":685,"MT":242,"sideResp":2,"stimulus":"img/250/randomdotsizeEA/R/13_Ratio_250_L_2_R_8.png","xmouse":[411.3333435058594,411.3333435058594,392.66668701171875,392.66668701171875,392.66668701171875,392.66668701171875,392.66668701171875,392.66668701171875,392.66668701171875,392.66668701171875,390.66668701171875,390.66668701171875,390.66668701171875,391.3333435058594,391.3333435058594,392.0000305175781,392.66668701171875,392.66668701171875,392.66668701171875,392.66668701171875,392.66668701171875,392.66668701171875,392.66668701171875,395.3333435058594,395.3333435058594,395.3333435058594,395.3333435058594,395.3333435058594,395.3333435058594,395.3333435058594,395.3333435058594,409.3333435058594,412,419.3333435058594,436,446.66668701171875,497.3333435058594,512,543.3333740234375,558.6666870117188,588,626.6666870117188,653.3333740234375,664.6666870117188,683.3333740234375,697.3333740234375,708.6666870117188],"ymouse":[816,816,831.3333129882812,831.3333129882812,831.3333129882812,831.3333129882812,831.3333129882812,831.3333129882812,831.3333129882812,831.3333129882812,832.6666870117188,833.3333740234375,833.3333740234375,834,834,834,834.6666870117188,834.6666870117188,834.6666870117188,834.6666870117188,834.6666870117188,834.6666870117188,834.6666870117188,834,834,834,834,834,834,834,834,805.3333740234375,800,782,748.6666870117188,727.3333740234375,634.6666870117188,608.6666870117188,548.6666870117188,516,448.66668701171875,351.3333435058594,284.66668701171875,252,192,141.33334350585938,80],"timestamp_mouse":[5,30,45,65,85,105,125,145,165,185,205,225,245,265,285,305,327,345,365,385,406,426,445,465,485,505,527,544,565,585,605,625,645,665,685,705,725,745,765,784,805,824,846,865,885,905,927],"xSR":350,"ySR":768,"xT1":30,"yT1":0,"xT2":670,"yT2":0,"toosoon":0,"cond_shown":"randomdotsizeEA","ratio_trial":250,"smaller_num":"2","larger_num":"8","correct_side":2,"subjID":"8","gender":"No_gender","age":"No_age","school":"No_school"},{"start_time":1549310048758,"click_time":1549310049727,"finger_time":1549310049467,"fix_duration":250,"trial":23,"RT":709,"MT":260,"sideResp":2,"stimulus":"img/750/randomdotsize/R/15_Ratio_750_L_9_R_12.png","xmouse":[406.66668701171875,406.66668701171875,406.66668701171875,406.66668701171875,406,406,406,406,406,406,406,407.3333435058594,407.3333435058594,407.3333435058594,406.66668701171875,406.66668701171875,406.66668701171875,406.66668701171875,406.66668701171875,406.66668701171875,406.66668701171875,406.66668701171875,406.66668701171875,406.66668701171875,408,408,408,408.66668701171875,408.66668701171875,409.3333435058594,409.3333435058594,415.3333435058594,418,422,426,443.3333435058594,474.66668701171875,498,512.6666870117188,548.6666870117188,566,620.6666870117188,632,654,672.6666870117188,680,692,708.6666870117188,716],"ymouse":[837.3333740234375,837.3333740234375,837.3333740234375,837.3333740234375,840.6666870117188,840.6666870117188,840.6666870117188,840.6666870117188,840.6666870117188,840.6666870117188,840.6666870117188,844,844,844,844,844,844,844,844,844,844,844,844,844,830,830,830,818,814,812,812,801.3333740234375,796.6666870117188,788.6666870117188,778.6666870117188,741.3333740234375,671.3333740234375,621.3333740234375,593.3333740234375,532,500.66668701171875,382.66668701171875,351.3333435058594,294,238,212,164,103.33333587646484,72.66667175292969],"timestamp_mouse":[11,38,57,69,89,109,129,149,168,188,209,229,249,269,289,309,329,349,369,389,409,429,450,469,489,509,529,548,569,589,609,631,648,669,689,709,731,750,769,789,808,831,849,869,889,909,930,950,968],"xSR":350,"ySR":768,"xT1":30,"yT1":0,"xT2":670,"yT2":0,"toosoon":0,"cond_shown":"randomdotsize","ratio_trial":750,"smaller_num":"9","larger_num":"12","correct_side":2,"subjID":"8","gender":"No_gender","age":"No_age","school":"No_school"},{"start_time":1549310051186,"click_time":1549310051987,"finger_time":1549310051687,"fix_duration":578.8283564907354,"trial":24,"RT":501,"MT":300,"sideResp":1,"stimulus":"img/250/equaldotsize/L/2_Ratio_250_L_16_R_4.png","xmouse":[402.66668701171875,402.66668701171875,402.0000305175781,402.0000305175781,402.0000305175781,402.0000305175781,402.0000305175781,402.0000305175781,402.0000305175781,402.0000305175781,402.0000305175781,402.0000305175781,405.3333435058594,405.3333435058594,405.3333435058594,405.3333435058594,405.3333435058594,405.3333435058594,405.3333435058594,405.3333435058594,405.3333435058594,405.3333435058594,395.3333435058594,391.3333435058594,386.66668701171875,371.3333435058594,344,325.3333435058594,316,296.66668701171875,276,248,238.6666717529297,217.33334350585938,199.33334350585938,190.6666717529297,169.33334350585938,154.6666717529297,140,132.6666717529297,123.33334350585938],"ymouse":[848,848,846,846,846,846,846,846,846,846,846,846,845.3333129882812,845.3333129882812,845.3333129882812,845.3333129882812,845.3333129882812,845.3333129882812,845.3333129882812,845.3333129882812,845.3333129882812,845.3333129882812,806,790,778,740.6666870117188,673.3333740234375,625.3333740234375,599.3333740234375,540.6666870117188,477.3333435058594,386.66668701171875,356,299.3333435058594,249.33334350585938,228.6666717529297,170,135.33334350585938,109.33333587646484,98,81.33333587646484],"timestamp_mouse":[4,21,45,61,81,101,122,141,160,181,201,221,240,261,281,301,321,340,361,381,400,421,441,461,481,501,522,541,561,581,601,622,641,661,681,701,723,741,760,781,801],"xSR":350,"ySR":768,"xT1":30,"yT1":0,"xT2":670,"yT2":0,"toosoon":0,"cond_shown":"equaldotsize","ratio_trial":250,"smaller_num":"4","larger_num":"16","correct_side":1,"subjID":"8","gender":"No_gender","age":"No_age","school":"No_school"},{"start_time":1549310054095,"click_time":1549310054867,"finger_time":1549310054528,"fix_duration":1167.1420672252832,"trial":25,"RT":433,"MT":339,"sideResp":2,"stimulus":"img/750/randomdotsizeEA/R/4_Ratio_750_L_15_R_20.png","xmouse":[406.66668701171875,406.66668701171875,406,406,406,406,406,406,406,405.3333435058594,405.3333435058594,406,406,406,406,406,406,406,406,406,420,440,458,467.3333435058594,484.66668701171875,502.66668701171875,530,546,552.6666870117188,568,578,614,622,636.6666870117188,643.3333740234375,658,671.3333740234375,685.3333740234375,690.6666870117188],"ymouse":[843.3333740234375,843.3333740234375,844.0000610351562,844.0000610351562,844.0000610351562,844.0000610351562,844.0000610351562,844.0000610351562,844.0000610351562,844.6666870117188,844.6666870117188,844.6666870117188,844.6666870117188,844.6666870117188,844.6666870117188,844.6666870117188,844.6666870117188,844.6666870117188,844.6666870117188,844.6666870117188,804.6666870117188,755.3333740234375,713.3333740234375,692.6666870117188,652,611.3333740234375,540,493.3333435058594,472.66668701171875,426.66668701171875,400.66668701171875,303.3333435058594,281.3333435058594,240.66668701171875,220.6666717529297,180,145.33334350585938,107.33333587646484,90],"timestamp_mouse":[12,32,52,72,92,112,132,152,172,191,212,236,252,272,292,311,332,351,372,391,412,433,452,472,492,512,532,552,572,592,612,633,652,672,692,712,732,752,772],"xSR":350,"ySR":768,"xT1":30,"yT1":0,"xT2":670,"yT2":0,"toosoon":0,"cond_shown":"randomdotsizeEA","ratio_trial":750,"smaller_num":"15","larger_num":"20","correct_side":2,"subjID":"8","gender":"No_gender","age":"No_age","school":"No_school"},{"start_time":1549310056039,"click_time":1549310057007,"finger_time":1549310056687,"fix_duration":250,"trial":26,"RT":648,"MT":320,"sideResp":1,"stimulus":"img/250/equaldotanddens/L/7_Ratio_250_L_8_R_2.png","xmouse":[394,394,394.6666564941406,394.6666564941406,394.6666564941406,394.6666564941406,394.6666564941406,394.6666564941406,394.6666564941406,394.6666564941406,394.6666564941406,394.6666564941406,394.6666564941406,394.6666564941406,394.6666564941406,394.6666564941406,394.6666564941406,394.6666564941406,394.6666564941406,394,394,394,394,394,394,394,394,394,394,388.66668701171875,385.3333435058594,382.66668701171875,372,357.3333435058594,350,328.66668701171875,310,286.66668701171875,274.66668701171875,249.33334350585938,215.33334350585938,193.33334350585938,184,164,156,125.33334350585938,118.66667175292969,106.66667175292969,97.33333587646484],"ymouse":[840.6666870117188,842,842,842,842,842,842,842,842,834.6666870117188,834.6666870117188,834.6666870117188,834.6666870117188,834.6666870117188,834.6666870117188,834.6666870117188,834.6666870117188,834.6666870117188,834.6666870117188,833.3333740234375,833.3333740234375,833.3333740234375,833.3333740234375,833.3333740234375,833.3333740234375,833.3333740234375,833.3333740234375,833.3333740234375,833.3333740234375,816,796.6666870117188,786.6666870117188,759.3333740234375,723.3333740234375,705.3333740234375,647.3333740234375,602.6666870117188,552,526,471.3333435058594,393.3333435058594,340,314.66668701171875,264.66668701171875,241.33334350585938,157.33334350585938,140.6666717529297,110,85.33333587646484],"timestamp_mouse":[8,34,52,68,87,107,128,148,168,188,208,228,248,268,288,308,328,348,367,388,408,427,448,468,488,508,528,548,568,588,608,628,647,668,688,710,728,748,768,788,808,827,848,868,888,912,929,948,968],"xSR":350,"ySR":768,"xT1":30,"yT1":0,"xT2":670,"yT2":0,"toosoon":0,"cond_shown":"equaldotanddens","ratio_trial":250,"smaller_num":"2","larger_num":"8","correct_side":1,"subjID":"8","gender":"No_gender","age":"No_age","school":"No_school"},{"start_time":1549310058586,"click_time":1549310059447,"finger_time":1549310059066,"fix_duration":736.7237126888076,"trial":27,"RT":480,"MT":381,"sideResp":2,"stimulus":"img/900/randomdotsizeEA/R/12_Ratio_900_L_18_R_20.png","xmouse":[403.3333435058594,401.3333435058594,401.3333435058594,401.3333435058594,401.3333435058594,401.3333435058594,401.3333435058594,401.3333435058594,401.3333435058594,401.3333435058594,401.3333435058594,400.66668701171875,400.66668701171875,400.66668701171875,400.66668701171875,400.66668701171875,400.66668701171875,400.66668701171875,400.66668701171875,400.66668701171875,400.66668701171875,406.66668701171875,406.66668701171875,406.66668701171875,436.66668701171875,447.3333435058594,468.66668701171875,493.3333435058594,508,566.6666870117188,579.3333740234375,602.6666870117188,614.6666870117188,636.6666870117188,660,670.6666870117188,677.3333740234375,686.6666870117188,694,700.6666870117188,702.6666870117188,704,706,707.3333740234375],"ymouse":[836.6666870117188,836.0000610351562,836.0000610351562,836.0000610351562,836.0000610351562,836.0000610351562,836.0000610351562,836.0000610351562,836.0000610351562,836.0000610351562,836.0000610351562,836.0000610351562,836.0000610351562,836.0000610351562,836.0000610351562,836.0000610351562,836.0000610351562,836.0000610351562,836.0000610351562,836.0000610351562,836.0000610351562,816.6666870117188,816.6666870117188,816.6666870117188,749.3333740234375,724.6666870117188,675.3333740234375,623.3333740234375,595.3333740234375,479.3333435058594,452.66668701171875,401.3333435058594,374.66668701171875,325.3333435058594,260,222.6666717529297,206,175.33334350585938,150.6666717529297,126,116.66667175292969,111.33333587646484,100,90],"timestamp_mouse":[2,31,41,61,81,101,121,141,161,180,201,221,241,261,280,301,321,341,361,383,401,421,441,461,480,501,521,541,561,582,601,621,641,661,682,701,721,741,760,783,800,821,841,860],"xSR":350,"ySR":768,"xT1":30,"yT1":0,"xT2":670,"yT2":0,"toosoon":0,"cond_shown":"randomdotsizeEA","ratio_trial":900,"smaller_num":"18","larger_num":"20","correct_side":2,"subjID":"8","gender":"No_gender","age":"No_age","school":"No_school"},{"start_time":1549310060923,"click_time":1549310061947,"finger_time":1549310061587,"fix_duration":575.9658038942621,"trial":28,"RT":664,"MT":360,"sideResp":1,"stimulus":"img/500/equaldotsize/L/7_Ratio_500_L_10_R_5.png","xmouse":[401.3333435058594,401.3333435058594,401.3333435058594,401.3333435058594,401.3333435058594,401.3333435058594,401.3333435058594,401.3333435058594,401.3333435058594,401.3333435058594,401.3333435058594,401.3333435058594,401.3333435058594,401.3333435058594,401.3333435058594,401.3333435058594,401.3333435058594,401.3333435058594,404.0000305175781,404.0000305175781,404.0000305175781,404.0000305175781,404.0000305175781,404.0000305175781,404.0000305175781,397.3333435058594,397.3333435058594,397.3333435058594,396.66668701171875,394.66668701171875,394,389.3333435058594,382.66668701171875,363.3333435058594,347.3333435058594,338.66668701171875,318.66668701171875,307.3333435058594,266.66668701171875,256,239.33334350585938,228,211.33334350585938,185.33334350585938,168,159.33334350585938,142.6666717529297,126.66667175292969,108,104.66667175292969,98,92.66667175292969],"ymouse":[850.6666870117188,850.6666870117188,850.6666870117188,850.6666870117188,850.6666870117188,850.6666870117188,850.6666870117188,850.6666870117188,841.3333740234375,841.3333740234375,841.3333740234375,841.3333740234375,841.3333740234375,841.3333740234375,841.3333740234375,841.3333740234375,841.3333740234375,841.3333740234375,848.6666870117188,848.6666870117188,848.6666870117188,848.6666870117188,848.6666870117188,848.6666870117188,848.6666870117188,832.6666870117188,831.3333740234375,828,820.6666870117188,813.3333740234375,810,798,784,744,712,695.3333740234375,660.6666870117188,643.3333740234375,564.6666870117188,543.3333740234375,499.3333740234375,476.66668701171875,432.66668701171875,364.66668701171875,320,298,257.3333435058594,219.33334350585938,165.33334350585938,148.6666717529297,116.66667175292969,91.33333587646484],"timestamp_mouse":[4,31,43,65,84,104,124,144,164,184,204,224,244,264,283,304,324,344,364,384,403,424,444,465,483,504,524,544,564,584,604,624,644,664,684,704,724,744,764,784,803,824,844,865,884,904,924,944,964,984,1004,1024],"xSR":350,"ySR":768,"xT1":30,"yT1":0,"xT2":670,"yT2":0,"toosoon":0,"cond_shown":"equaldotsize","ratio_trial":500,"smaller_num":"5","larger_num":"10","correct_side":1,"subjID":"8","gender":"No_gender","age":"No_age","school":"No_school"},{"start_time":1549310063166,"click_time":1549310064047,"finger_time":1549310063747,"fix_duration":258.7157253752691,"trial":29,"RT":581,"MT":300,"sideResp":2,"stimulus":"img/250/randomdotsizeEA/R/6_Ratio_250_L_6_R_24.png","xmouse":[404.66668701171875,404.66668701171875,404.66668701171875,397.3333435058594,397.3333435058594,397.3333435058594,397.3333435058594,397.3333435058594,397.3333435058594,396,396,396,396,395.3333435058594,395.3333435058594,395.3333435058594,395.3333435058594,395.3333435058594,395.3333435058594,395.3333435058594,395.3333435058594,395.3333435058594,395.3333435058594,400.66668701171875,400.66668701171875,400.66668701171875,400.66668701171875,416,422.66668701171875,440.66668701171875,461.3333435058594,469.3333435058594,494.66668701171875,515.3333740234375,537.3333740234375,547.3333740234375,562.6666870117188,593.3333740234375,616,626.6666870117188,643.3333740234375,658.6666870117188,683.3333740234375,691.3333740234375,704.6666870117188],"ymouse":[832.6666870117188,832.6666870117188,832.6666870117188,829.3333740234375,829.3333740234375,829.3333740234375,829.3333740234375,829.3333740234375,829.3333740234375,831.3333740234375,831.3333740234375,831.3333740234375,831.3333740234375,832.0000610351562,832.0000610351562,832.0000610351562,832.0000610351562,832.0000610351562,832.0000610351562,832.0000610351562,832.0000610351562,832.0000610351562,832.0000610351562,821.3333740234375,821.3333740234375,821.3333740234375,821.3333740234375,786,774.6666870117188,739.3333740234375,694,672,604,550.6666870117188,494,466.66668701171875,418,340.66668701171875,290.66668701171875,268.66668701171875,226.6666717529297,188.6666717529297,134,116.66667175292969,86.66667175292969],"timestamp_mouse":[4,37,55,63,81,101,121,141,161,181,201,221,241,261,281,300,321,341,361,381,401,421,443,461,481,501,521,541,560,581,601,620,641,661,681,701,721,741,761,780,801,820,841,861,881],"xSR":350,"ySR":768,"xT1":30,"yT1":0,"xT2":670,"yT2":0,"toosoon":0,"cond_shown":"randomdotsizeEA","ratio_trial":250,"smaller_num":"6","larger_num":"24","correct_side":2,"subjID":"8","gender":"No_gender","age":"No_age","school":"No_school"},{"start_time":1549310065373,"click_time":1549310066127,"finger_time":1549310065846,"fix_duration":404.3895086043522,"trial":30,"RT":473,"MT":281,"sideResp":1,"stimulus":"img/250/randomdotsizeEA/L/2_Ratio_250_L_16_R_4.png","xmouse":[400,400,400,400,400,400,400,400,400,400,400,400,400,400,398.6666564941406,398.6666564941406,398.6666564941406,397.3333435058594,396.6666564941406,396.6666564941406,396.6666564941406,396.6666564941406,396.6666564941406,378.66668701171875,359.3333435058594,350,328.66668701171875,292.66668701171875,269.3333435058594,256.66668701171875,232,192,167.33334350585938,155.33334350585938,132.6666717529297,112.66667175292969,93.33333587646484,88],"ymouse":[841.3333740234375,841.3333740234375,841.3333740234375,841.3333740234375,841.3333740234375,841.3333740234375,841.3333740234375,841.3333740234375,841.3333740234375,841.3333740234375,841.3333740234375,841.3333740234375,841.3333740234375,841.3333740234375,839.3333740234375,836.6666870117188,836.6666870117188,830.6666870117188,820,812,803.3333740234375,799.3333740234375,799.3333740234375,740.6666870117188,702.6666870117188,684,640.6666870117188,560,500.66668701171875,470.66668701171875,412,324,272.66668701171875,248.66668701171875,205.33334350585938,164,112.66667175292969,97.33333587646484],"timestamp_mouse":[14,34,54,74,93,114,134,154,174,194,214,234,254,274,294,314,334,354,374,393,414,435,453,473,493,513,535,554,574,594,614,636,654,673,694,714,735,753],"xSR":350,"ySR":768,"xT1":30,"yT1":0,"xT2":670,"yT2":0,"toosoon":0,"cond_shown":"randomdotsizeEA","ratio_trial":250,"smaller_num":"4","larger_num":"16","correct_side":1,"subjID":"8","gender":"No_gender","age":"No_age","school":"No_school"},{"start_time":1549310067281,"click_time":1549310068147,"finger_time":1549310067827,"fix_duration":250,"trial":31,"RT":546,"MT":320,"sideResp":2,"stimulus":"img/250/randomdotsize/R/12_Ratio_250_L_5_R_20.png","xmouse":[415.3333435058594,415.3333435058594,414.66668701171875,414.66668701171875,414.66668701171875,414.66668701171875,414.66668701171875,414.66668701171875,414.66668701171875,414.66668701171875,414.66668701171875,414.66668701171875,414.66668701171875,414.66668701171875,414.66668701171875,414.66668701171875,414.66668701171875,414.66668701171875,417.3333435058594,417.3333435058594,417.3333435058594,417.3333435058594,417.3333435058594,426.66668701171875,430,432,439.3333435058594,465.3333435058594,487.3333435058594,498,521.3333740234375,534.6666870117188,586,596.6666870117188,613.3333740234375,629.3333740234375,636.6666870117188,655.3333740234375,664,676,681.3333740234375,690.6666870117188,705.3333740234375,717.3333740234375],"ymouse":[846.6666870117188,846.6666870117188,849.3333740234375,849.3333740234375,849.3333740234375,850,850,850,849.3333129882812,849.3333129882812,849.3333129882812,849.3333129882812,849.3333129882812,849.3333129882812,849.3333129882812,849.3333129882812,849.3333129882812,849.3333129882812,842.6666870117188,842.6666870117188,842.6666870117188,842.6666870117188,842.6666870117188,815.3333740234375,805.3333740234375,799.3333740234375,779.3333740234375,725.3333740234375,687.3333740234375,668,625.3333740234375,601.3333740234375,503.3333740234375,478,432.66668701171875,385.3333435058594,363.3333435058594,298,257.3333435058594,216.6666717529297,196.6666717529297,163.33334350585938,118.66667175292969,90.66667175292969],"timestamp_mouse":[8,29,46,66,86,106,126,146,166,186,206,226,247,266,286,306,325,347,368,385,406,426,446,466,486,506,526,546,566,586,605,626,647,666,686,705,726,747,765,786,806,826,849,866],"xSR":350,"ySR":768,"xT1":30,"yT1":0,"xT2":670,"yT2":0,"toosoon":0,"cond_shown":"randomdotsize","ratio_trial":250,"smaller_num":"5","larger_num":"20","correct_side":2,"subjID":"8","gender":"No_gender","age":"No_age","school":"No_school"},{"start_time":1549310069279,"click_time":1549310070207,"finger_time":1549310069847,"fix_duration":250,"trial":32,"RT":568,"MT":360,"sideResp":1,"stimulus":"img/500/randomdotsizeEA/L/7_Ratio_500_L_10_R_5.png","xmouse":[390,390,390,390,390,390,390,390,390,390,390,392.66668701171875,392.66668701171875,392.66668701171875,392.66668701171875,392.66668701171875,392.66668701171875,392.66668701171875,392.66668701171875,392.66668701171875,392.66668701171875,390.66668701171875,390.66668701171875,390.66668701171875,390.66668701171875,390.66668701171875,390.66668701171875,390.66668701171875,363.3333435058594,354,336,320,312,290.66668701171875,274,255.33334350585938,245.33334350585938,226.6666717529297,199.33334350585938,183.33334350585938,176,164,158,140.6666717529297,137.33334350585938,133.33334350585938,128.6666717529297],"ymouse":[860.0000610351562,860.0000610351562,861.3333740234375,861.3333740234375,861.3333740234375,861.3333740234375,861.3333740234375,861.3333740234375,861.3333740234375,861.3333740234375,861.3333740234375,860.0000610351562,860.0000610351562,860.0000610351562,860.0000610351562,860.0000610351562,860.0000610351562,860.0000610351562,860.0000610351562,860.0000610351562,860.0000610351562,850.6666870117188,850.6666870117188,823.3333740234375,823.3333740234375,823.3333740234375,823.3333740234375,823.3333740234375,692.6666870117188,670.6666870117188,622.6666870117188,568,540,457.3333435058594,406,354,327.3333435058594,279.3333435058594,212,172,152.6666717529297,119.33334350585938,104,66.66667175292969,60.66667175292969,53.333335876464844,48.66667175292969],"timestamp_mouse":[9,37,55,68,88,107,128,149,168,188,208,228,248,269,288,308,328,348,368,388,408,428,449,472,488,508,528,548,568,588,608,628,648,668,688,708,728,748,767,787,808,827,848,870,887,908,927],"xSR":350,"ySR":768,"xT1":30,"yT1":0,"xT2":670,"yT2":0,"toosoon":0,"cond_shown":"randomdotsizeEA","ratio_trial":500,"smaller_num":"5","larger_num":"10","correct_side":1,"subjID":"8","gender":"No_gender","age":"No_age","school":"