[{"start_time":1549308754724,"click_time":1549308952162,"finger_time":1549308949961,"fix_duration":317.78791274404415,"trial":0,"RT":195237,"MT":2201,"sideResp":2,"stimulus":[],"xmouse":[389.3333435058594,389.3333435058594,389.3333435058594,389.3333435058594,389.3333435058594,389.3333435058594,389.3333435058594,389.3333435058594,389.3333435058594,389.3333435058594,389.3333435058594,389.3333435058594,389.3333435058594,389.3333435058594,389.3333435058594,389.3333435058594,389.3333435058594,389.3333435058594,389.3333435058594,389.3333435058594,389.3333435058594,389.3333435058594,389.3333435058594,389.3333435058594,389.3333435058594,389.3333435058594,389.3333435058594,389.3333435058594,389.3333435058594,389.3333435058594,389.3333435058594,389.3333435058594,389.3333435058594,389.3333435058594,389.3333435058594,389.3333435058594,389.3333435058594,389.3333435058594,389.3333435058594,389.3333435058594,389.3333435058594,389.3333435058594,389.3333435058594,389.3333435058594,389.3333435058594,389.3333435058594,389.3333435058594,389.3333435058594,389.3333435058594,389.3333435058594,389.3333435058594,389.3333435058594,389.3333435058594,389.3333435058594,389.3333435058594,389.3333435058594,389.3333435058594,389.3333435058594,389.3333435058594,389.3333435058594,389.3333435058594,389.3333435058594,389.3333435058594,389.3333435058594,389.3333435058594,389.3333435058594,389.3333435058594,389.3333435058594,389.3333435058594,389.3333435058594,389.3333435058594,389.3333435058594,389.3333435058594,389.3333435058594,389.3333435058594,389.3333435058594,389.3333435058594,389.3333435058594,389.3333435058594,389.3333435058594,389.3333435058594,389.3333435058594,389.3333435058594,389.3333435058594,389.3333435058594,389.3333435058594,389.3333435058594,389.3333435058594,389.3333435058594,389.3333435058594,389.3333435058594,389.3333435058594,389.3333435058594,389.3333435058594,389.3333435058594,389.3333435058594,389.3333435058594,389.3333435058594,389.3333435058594,389.3333435058594,389.3333435058594,389.3333435058594,389.3333435058594,389.3333435058594,389.3333435058594,389.3333435058594,389.3333435058594,389.3333435058594,389.3333435058594,389.3333435058594,389.3333435058594,389.3333435058594,389.3333435058594,389.3333435058594,389.3333435058594,389.3333435058594,389.3333435058594,389.3333435058594,389.3333435058594,389.3333435058594,389.3333435058594,389.3333435058594,389.3333435058594,389.3333435058594,389.3333435058594,389.3333435058594,389.3333435058594,389.3333435058594,389.3333435058594,389.3333435058594,389.3333435058594,389.3333435058594,389.3333435058594,389.3333435058594,389.3333435058594,389.3333435058594,389.3333435058594,389.3333435058594,389.3333435058594,389.3333435058594,389.3333435058594,389.3333435058594,389.3333435058594,389.3333435058594,389.3333435058594,389.3333435058594,389.3333435058594,389.3333435058594,389.3333435058594,389.3333435058594,389.3333435058594,389.3333435058594,389.3333435058594,389.3333435058594,389.3333435058594,389.3333435058594,389.3333435058594,389.3333435058594,389.3333435058594,389.3333435058594,389.3333435058594,389.3333435058594,389.3333435058594,389.3333435058594,389.3333435058594,389.3333435058594,389.3333435058594,389.3333435058594,389.3333435058594,389.3333435058594,389.3333435058594,389.3333435058594,389.3333435058594,389.3333435058594,389.3333435058594,389.3333435058594,389.3333435058594,389.3333435058594,389.3333435058594,389.3333435058594,389.3333435058594,389.3333435058594,389.3333435058594,389.3333435058594,389.3333435058594,389.3333435058594,389.3333435058594,389.3333435058594,389.3333435058594,389.3333435058594,389.3333435058594,389.3333435058594,389.3333435058594,389.3333435058594,389.3333435058594,389.3333435058594,389.3333435058594,389.3333435058594,389.3333435058594,389.3333435058594,389.3333435058594,389.3333435058594,389.3333435058594,389.3333435058594,389.3333435058594,389.3333435058594,389.3333435058594,389.3333435058594,389.3333435058594,389.3333435058594,389.3333435058594,389.3333435058594,389.3333435058594,389.3333435058594,389.3333435058594,389.3333435058594,389.3333435058594,389.3333435058594,389.3333435058594,389.3333435058594,389.3333435058594,389.3333435058594,389.3333435058594,389.3333435058594,389.3333435058594,389.3333435058594,389.3333435058594,389.3333435058594,389.3333435058594,389.3333435058594,389.3333435058594,389.3333435058594,389.3333435058594,389.3333435058594,389.3333435058594,389.3333435058594,389.3333435058594,389.3333435058594,389.3333435058594,389.3333435058594,389.3333435058594,389.3333435058594,389.3333435058594,389.3333435058594,389.3333435058594,389.3333435058594,389.3333435058594,389.3333435058594,389.3333435058594,389.3333435058594,389.3333435058594,389.3333435058594,389.3333435058594,389.3333435058594,389.3333435058594,389.3333435058594,389.3333435058594,389.3333435058594,389.3333435058594,389.3333435058594,389.3333435058594,389.3333435058594,389.3333435058594,389.3333435058594,389.3333435058594,389.3333435058594,389.3333435058594,389.3333435058594,389.3333435058594,389.3333435058594,389.3333435058594,389.3333435058594,389.3333435058594,389.3333435058594,389.3333435058594,389.3333435058594,389.3333435058594,389.3333435058594,389.3333435058594,389.3333435058594,389.3333435058594,389.3333435058594,389.3333435058594,389.3333435058594,389.3333435058594,389.3333435058594,389.3333435058594,389.3333435058594,389.3333435058594,389.3333435058594,389.3333435058594,389.3333435058594,389.3333435058594,389.3333435058594,389.3333435058594,389.3333435058594,389.3333435058594,389.3333435058594,389.3333435058594,389.3333435058594,389.3333435058594,389.3333435058594,389.3333435058594,389.3333435058594,389.3333435058594,389.3333435058594,389.3333435058594,389.3333435058594,389.3333435058594,389.3333435058594,389.3333435058594,389.3333435058594,389.3333435058594,389.3333435058594,389.3333435058594,389.3333435058594,389.3333435058594,389.3333435058594,389.3333435058594,389.3333435058594,389.3333435058594,389.3333435058594,389.3333435058594,389.3333435058594,389.3333435058594,389.3333435058594,389.3333435058594,389.3333435058594,389.3333435058594,389.3333435058594,389.3333435058594,389.3333435058594,389.3333435058594,389.3333435058594,389.3333435058594,389.3333435058594,389.3333435058594,389.3333435058594,389.3333435058594,389.3333435058594,389.3333435058594,389.3333435058594,389.3333435058594,389.3333435058594,389.3333435058594,389.3333435058594,389.3333435058594,389.3333435058594,389.3333435058594,389.3333435058594,389.3333435058594,389.3333435058594,389.3333435058594,389.3333435058594,389.3333435058594,389.3333435058594,389.3333435058594,389.3333435058594,389.3333435058594,389.3333435058594,389.3333435058594,389.3333435058594,389.3333435058594,389.3333435058594,389.3333435058594,389.3333435058594,389.3333435058594,389.3333435058594,389.3333435058594,389.3333435058594,389.3333435058594,389.3333435058594,389.3333435058594,389.3333435058594,389.3333435058594,389.3333435058594,389.3333435058594,389.3333435058594,389.3333435058594,389.3333435058594,389.3333435058594,389.3333435058594,389.3333435058594,389.3333435058594,389.3333435058594,389.3333435058594,389.3333435058594,389.3333435058594,389.3333435058594,389.3333435058594,389.3333435058594,389.3333435058594,389.3333435058594,389.3333435058594,389.3333435058594,389.3333435058594,389.3333435058594,389.3333435058594,389.3333435058594,389.3333435058594,389.3333435058594,389.3333435058594,389.3333435058594,389.3333435058594,389.3333435058594,389.3333435058594,389.3333435058594,389.3333435058594,389.3333435058594,389.3333435058594,389.3333435058594,389.3333435058594,389.3333435058594,389.3333435058594,389.3333435058594,389.3333435058594,389.3333435058594,389.3333435058594,389.3333435058594,389.3333435058594,389.3333435058594,389.3333435058594,389.3333435058594,389.3333435058594,389.3333435058594,389.3333435058594,389.3333435058594,389.3333435058594,389.3333435058594,389.3333435058594,389.3333435058594,389.3333435058594,389.3333435058594,389.3333435058594,389.3333435058594,389.3333435058594,389.3333435058594,389.3333435058594,389.3333435058594,389.3333435058594,389.3333435058594,389.3333435058594,389.3333435058594,389.3333435058594,389.3333435058594,389.3333435058594,389.3333435058594,389.3333435058594,389.3333435058594,389.3333435058594,389.3333435058594,389.3333435058594,389.3333435058594,389.3333435058594,389.3333435058594,389.3333435058594,389.3333435058594,389.3333435058594,389.3333435058594,389.3333435058594,389.3333435058594,389.3333435058594,389.3333435058594,389.3333435058594,389.3333435058594,389.3333435058594,389.3333435058594,389.3333435058594,389.3333435058594,389.3333435058594,389.3333435058594,389.3333435058594,389.3333435058594,389.3333435058594,389.3333435058594,389.3333435058594,389.3333435058594,389.3333435058594,389.3333435058594,389.3333435058594,389.3333435058594,389.3333435058594,389.3333435058594,389.3333435058594,389.3333435058594,389.3333435058594,389.3333435058594,389.3333435058594,389.3333435058594,389.3333435058594,389.3333435058594,389.3333435058594,389.3333435058594,389.3333435058594,389.3333435058594,389.3333435058594,389.3333435058594,389.3333435058594,389.3333435058594,389.3333435058594,389.3333435058594,389.3333435058594,389.3333435058594,389.3333435058594,389.3333435058594,389.3333435058594,389.3333435058594,389.3333435058594,389.3333435058594,389.3333435058594,389.3333435058594,389.3333435058594,389.3333435058594,389.3333435058594,389.3333435058594,389.3333435058594,389.3333435058594,389.3333435058594,389.3333435058594,389.3333435058594,389.3333435058594,389.3333435058594,389.3333435058594,389.3333435058594,389.3333435058594,389.3333435058594,389.3333435058594,389.3333435058594,389.3333435058594,389.3333435058594,389.3333435058594,389.3333435058594,389.3333435058594,389.3333435058594,389.3333435058594,389.3333435058594,389.3333435058594,389.3333435058594,389.3333435058594,389.3333435058594,389.3333435058594,389.3333435058594,389.3333435058594,389.3333435058594,389.3333435058594,389.3333435058594,389.3333435058594,389.3333435058594,389.3333435058594,389.3333435058594,389.3333435058594,389.3333435058594,389.3333435058594,389.3333435058594,389.3333435058594,389.3333435058594,389.3333435058594,389.3333435058594,389.3333435058594,389.3333435058594,389.3333435058594,389.3333435058594,389.3333435058594,389.3333435058594,389.3333435058594,389.3333435058594,389.3333435058594,389.3333435058594,389.3333435058594,389.3333435058594,389.3333435058594,389.3333435058594,389.3333435058594,389.3333435058594,389.3333435058594,389.3333435058594,389.3333435058594,389.3333435058594,389.3333435058594,389.3333435058594,389.3333435058594,389.3333435058594,389.3333435058594,389.3333435058594,389.3333435058594,389.3333435058594,389.3333435058594,389.3333435058594,389.3333435058594,389.3333435058594,389.3333435058594,389.3333435058594,389.3333435058594,389.3333435058594,389.3333435058594,389.3333435058594,389.3333435058594,389.3333435058594,389.3333435058594,389.3333435058594,389.3333435058594,389.3333435058594,389.3333435058594,389.3333435058594,389.3333435058594,389.3333435058594,389.3333435058594,389.3333435058594,389.3333435058594,389.3333435058594,389.3333435058594,389.3333435058594,389.3333435058594,389.3333435058594,389.3333435058594,389.3333435058594,389.3333435058594,389.3333435058594,389.3333435058594,389.3333435058594,389.3333435058594,389.3333435058594,389.3333435058594,389.3333435058594,389.3333435058594,389.3333435058594,389.3333435058594,389.3333435058594,389.3333435058594,389.3333435058594,389.3333435058594,389.3333435058594,389.3333435058594,389.3333435058594,389.3333435058594,389.3333435058594,389.3333435058594,389.3333435058594,389.3333435058594,389.3333435058594,389.3333435058594,389.3333435058594,389.3333435058594,389.3333435058594,389.3333435058594,389.3333435058594,389.3333435058594,389.3333435058594,389.3333435058594,389.3333435058594,389.3333435058594,389.3333435058594,389.3333435058594,389.3333435058594,389.3333435058594,389.3333435058594,389.3333435058594,389.3333435058594,389.3333435058594,389.3333435058594,389.3333435058594,389.3333435058594,389.3333435058594,389.3333435058594,389.3333435058594,389.3333435058594,389.3333435058594,389.3333435058594,389.3333435058594,389.3333435058594,389.3333435058594,389.3333435058594,389.3333435058594,389.3333435058594,389.3333435058594,389.3333435058594,389.3333435058594,389.3333435058594,389.3333435058594,389.3333435058594,389.3333435058594,389.3333435058594,389.3333435058594,389.3333435058594,389.3333435058594,389.3333435058594,389.3333435058594,389.3333435058594,389.3333435058594,389.3333435058594,389.3333435058594,389.3333435058594,389.3333435058594,389.3333435058594,389.3333435058594,389.3333435058594,389.3333435058594,389.3333435058594,389.3333435058594,389.3333435058594,389.3333435058594,389.3333435058594,389.3333435058594,389.3333435058594,389.3333435058594,389.3333435058594,389.3333435058594,389.3333435058594,389.3333435058594,389.3333435058594,389.3333435058594,389.3333435058594,389.3333435058594,389.3333435058594,389.3333435058594,389.3333435058594,389.3333435058594,389.3333435058594,389.3333435058594,389.3333435058594,389.3333435058594,389.3333435058594,389.3333435058594,389.3333435058594,389.3333435058594,389.3333435058594,389.3333435058594,389.3333435058594,389.3333435058594,389.3333435058594,389.3333435058594,389.3333435058594,389.3333435058594,389.3333435058594,389.3333435058594,389.3333435058594,389.3333435058594,389.3333435058594,389.3333435058594,389.3333435058594,389.3333435058594,389.3333435058594,389.3333435058594,389.3333435058594,389.3333435058594,389.3333435058594,389.3333435058594,389.3333435058594,389.3333435058594,389.3333435058594,389.3333435058594,389.3333435058594,389.3333435058594,389.3333435058594,389.3333435058594,389.3333435058594,389.3333435058594,389.3333435058594,389.3333435058594,389.3333435058594,389.3333435058594,389.3333435058594,389.3333435058594,389.3333435058594,389.3333435058594,389.3333435058594,389.3333435058594,389.3333435058594,389.3333435058594,389.3333435058594,389.3333435058594,389.3333435058594,389.3333435058594,389.3333435058594,389.3333435058594,389.3333435058594,389.3333435058594,389.3333435058594,389.3333435058594,389.3333435058594,389.3333435058594,389.3333435058594,389.3333435058594,389.3333435058594,389.3333435058594,389.3333435058594,389.3333435058594,389.3333435058594,389.3333435058594,389.3333435058594,389.3333435058594,389.3333435058594,389.3333435058594,389.3333435058594,389.3333435058594,389.3333435058594,389.3333435058594,389.3333435058594,389.3333435058594,389.3333435058594,389.3333435058594,389.3333435058594,389.3333435058594,389.3333435058594,389.3333435058594,389.3333435058594,389.3333435058594,389.3333435058594,389.3333435058594,389.3333435058594,389.3333435058594,389.3333435058594,389.3333435058594,389.3333435058594,389.3333435058594,389.3333435058594,389.3333435058594,389.3333435058594,389.3333435058594,389.3333435058594,389.3333435058594,389.3333435058594,389.3333435058594,389.3333435058594,389.3333435058594,389.3333435058594,389.3333435058594,389.3333435058594,389.3333435058594,389.3333435058594,389.3333435058594,389.3333435058594,389.3333435058594,389.3333435058594,389.3333435058594,389.3333435058594,389.3333435058594,389.3333435058594,389.3333435058594,389.3333435058594,389.3333435058594,389.3333435058594,389.3333435058594,389.3333435058594,389.3333435058594,389.3333435058594,389.3333435058594,389.3333435058594,389.3333435058594,389.3333435058594,389.3333435058594,389.3333435058594,389.3333435058594,389.3333435058594,389.3333435058594,389.3333435058594,389.3333435058594,389.3333435058594,389.3333435058594,389.3333435058594,389.3333435058594,389.3333435058594,389.3333435058594,389.3333435058594,389.3333435058594,389.3333435058594,389.3333435058594,389.3333435058594,389.3333435058594,389.3333435058594,389.3333435058594,389.3333435058594,389.3333435058594,389.3333435058594,389.3333435058594,389.3333435058594,389.3333435058594,389.3333435058594,389.3333435058594,389.3333435058594,389.3333435058594,389.3333435058594,389.3333435058594,389.3333435058594,389.3333435058594,389.3333435058594,389.3333435058594,389.3333435058594,389.3333435058594,389.3333435058594,389.3333435058594,389.3333435058594,389.3333435058594,389.3333435058594,389.3333435058594,389.3333435058594,389.3333435058594,389.3333435058594,389.3333435058594,389.3333435058594,389.3333435058594,389.3333435058594,389.3333435058594,389.3333435058594,389.3333435058594,389.3333435058594,389.3333435058594,389.3333435058594,389.3333435058594,389.3333435058594,389.3333435058594,389.3333435058594,389.3333435058594,389.3333435058594,389.3333435058594,389.3333435058594,389.3333435058594,389.3333435058594,389.3333435058594,389.3333435058594,389.3333435058594,389.3333435058594,389.3333435058594,389.3333435058594,389.3333435058594,389.3333435058594,389.3333435058594,389.3333435058594,389.3333435058594,389.3333435058594,389.3333435058594,389.3333435058594,389.3333435058594,389.3333435058594,389.3333435058594,389.3333435058594,389.3333435058594,389.3333435058594,389.3333435058594,389.3333435058594,389.3333435058594,389.3333435058594,389.3333435058594,389.3333435058594,389.3333435058594,389.3333435058594,389.3333435058594,389.3333435058594,389.3333435058594,389.3333435058594,389.3333435058594,389.3333435058594,389.3333435058594,389.3333435058594,389.3333435058594,389.3333435058594,389.3333435058594,389.3333435058594,389.3333435058594,389.3333435058594,389.3333435058594,389.3333435058594,389.3333435058594,389.3333435058594,389.3333435058594,389.3333435058594,389.3333435058594,389.3333435058594,389.3333435058594,389.3333435058594,389.3333435058594,389.3333435058594,389.3333435058594,389.3333435058594,389.3333435058594,389.3333435058594,389.3333435058594,389.3333435058594,389.3333435058594,389.3333435058594,389.3333435058594,389.3333435058594,389.3333435058594,389.3333435058594,389.3333435058594,389.3333435058594,389.3333435058594,389.3333435058594,389.3333435058594,389.3333435058594,389.3333435058594,389.3333435058594,389.3333435058594,389.3333435058594,389.3333435058594,389.3333435058594,389.3333435058594,389.3333435058594,389.3333435058594,389.3333435058594,389.3333435058594,389.3333435058594,389.3333435058594,389.3333435058594,389.3333435058594,389.3333435058594,389.3333435058594,389.3333435058594,389.3333435058594,389.3333435058594,389.3333435058594,389.3333435058594,389.3333435058594,389.3333435058594,389.3333435058594,389.3333435058594,389.3333435058594,389.3333435058594,389.3333435058594,389.3333435058594,389.3333435058594,389.3333435058594,389.3333435058594,389.3333435058594,389.3333435058594,389.3333435058594,389.3333435058594,389.3333435058594,389.3333435058594,389.3333435058594,389.3333435058594,389.3333435058594,389.3333435058594,389.3333435058594,389.3333435058594,389.3333435058594,389.3333435058594,389.3333435058594,389.3333435058594,389.3333435058594,389.3333435058594,389.3333435058594,389.3333435058594,389.3333435058594,389.3333435058594,389.3333435058594,389.3333435058594,389.3333435058594,389.3333435058594,389.3333435058594,389.3333435058594,389.3333435058594,389.3333435058594,389.3333435058594,389.3333435058594,389.3333435058594,389.3333435058594,389.3333435058594,389.3333435058594,389.3333435058594,389.3333435058594,389.3333435058594,389.3333435058594,389.3333435058594,389.3333435058594,389.3333435058594,389.3333435058594,389.3333435058594,389.3333435058594,389.3333435058594,389.3333435058594,389.3333435058594,389.3333435058594,389.3333435058594,389.3333435058594,389.3333435058594,389.3333435058594,389.3333435058594,389.3333435058594,389.3333435058594,389.3333435058594,389.3333435058594,389.3333435058594,389.3333435058594,389.3333435058594,389.3333435058594,389.3333435058594,389.3333435058594,389.3333435058594,389.3333435058594,389.3333435058594,389.3333435058594,389.3333435058594,389.3333435058594,389.3333435058594,389.3333435058594,389.3333435058594,389.3333435058594,389.3333435058594,389.3333435058594,389.3333435058594,389.3333435058594,389.3333435058594,389.3333435058594,389.3333435058594,389.3333435058594,389.3333435058594,389.3333435058594,389.3333435058594,389.3333435058594,389.3333435058594,389.3333435058594,389.3333435058594,389.3333435058594,389.3333435058594,389.3333435058594,389.3333435058594,389.3333435058594,389.3333435058594,389.3333435058594,389.3333435058594,389.3333435058594,389.3333435058594,389.3333435058594,389.3333435058594,389.3333435058594,389.3333435058594,389.3333435058594,389.3333435058594,389.3333435058594,389.3333435058594,389.3333435058594,389.3333435058594,389.3333435058594,389.3333435058594,389.3333435058594,389.3333435058594,389.3333435058594,389.3333435058594,389.3333435058594,389.3333435058594,389.3333435058594,389.3333435058594,389.3333435058594,389.3333435058594,389.3333435058594,389.3333435058594,389.3333435058594,389.3333435058594,389.3333435058594,389.3333435058594,389.3333435058594,389.3333435058594,389.3333435058594,389.3333435058594,389.3333435058594,389.3333435058594,389.3333435058594,389.3333435058594,389.3333435058594,389.3333435058594,389.3333435058594,389.3333435058594,389.3333435058594,389.3333435058594,389.3333435058594,389.3333435058594,389.3333435058594,389.3333435058594,389.3333435058594,389.3333435058594,389.3333435058594,389.3333435058594,389.3333435058594,389.3333435058594,389.3333435058594,389.3333435058594,389.3333435058594,389.3333435058594,389.3333435058594,389.3333435058594,389.3333435058594,389.3333435058594,389.3333435058594,389.3333435058594,389.3333435058594,389.3333435058594,389.3333435058594,389.3333435058594,389.3333435058594,389.3333435058594,389.3333435058594,389.3333435058594,389.3333435058594,389.3333435058594,389.3333435058594,389.3333435058594,389.3333435058594,389.3333435058594,389.3333435058594,389.3333435058594,389.3333435058594,389.3333435058594,389.3333435058594,389.3333435058594,389.3333435058594,389.3333435058594,389.3333435058594,389.3333435058594,389.3333435058594,389.3333435058594,389.3333435058594,389.3333435058594,389.3333435058594,389.3333435058594,389.3333435058594,389.3333435058594,389.3333435058594,389.3333435058594,389.3333435058594,389.3333435058594,389.3333435058594,389.3333435058594,389.3333435058594,389.3333435058594,389.3333435058594,389.3333435058594,389.3333435058594,389.3333435058594,389.3333435058594,389.3333435058594,389.3333435058594,389.3333435058594,389.3333435058594,389.3333435058594,389.3333435058594,389.3333435058594,389.3333435058594,389.3333435058594,389.3333435058594,389.3333435058594,389.3333435058594,389.3333435058594,389.3333435058594,389.3333435058594,389.3333435058594,389.3333435058594,389.3333435058594,389.3333435058594,389.3333435058594,389.3333435058594,389.3333435058594,389.3333435058594,389.3333435058594,389.3333435058594,389.3333435058594,389.3333435058594,389.3333435058594,389.3333435058594,389.3333435058594,389.3333435058594,389.3333435058594,389.3333435058594,389.3333435058594,389.3333435058594,389.3333435058594,389.3333435058594,389.3333435058594,389.3333435058594,389.3333435058594,389.3333435058594,389.3333435058594,389.3333435058594,389.3333435058594,389.3333435058594,389.3333435058594,389.3333435058594,389.3333435058594,389.3333435058594,389.3333435058594,389.3333435058594,389.3333435058594,389.3333435058594,389.3333435058594,389.3333435058594,389.3333435058594,389.3333435058594,389.3333435058594,389.3333435058594,389.3333435058594,389.3333435058594,389.3333435058594,389.3333435058594,389.3333435058594,389.3333435058594,389.3333435058594,389.3333435058594,389.3333435058594,389.3333435058594,389.3333435058594,389.3333435058594,389.3333435058594,389.3333435058594,389.3333435058594,389.3333435058594,389.3333435058594,389.3333435058594,389.3333435058594,389.3333435058594,389.3333435058594,389.3333435058594,389.3333435058594,389.3333435058594,389.3333435058594,389.3333435058594,389.3333435058594,389.3333435058594,389.3333435058594,389.3333435058594,389.3333435058594,389.3333435058594,389.3333435058594,389.3333435058594,389.3333435058594,389.3333435058594,389.3333435058594,389.3333435058594,389.3333435058594,389.3333435058594,389.3333435058594,389.3333435058594,389.3333435058594,389.3333435058594,389.3333435058594,389.3333435058594,389.3333435058594,389.3333435058594,389.3333435058594,389.3333435058594,389.3333435058594,389.3333435058594,389.3333435058594,389.3333435058594,389.3333435058594,389.3333435058594,389.3333435058594,389.3333435058594,389.3333435058594,389.3333435058594,389.3333435058594,389.3333435058594,389.3333435058594,389.3333435058594,389.3333435058594,389.3333435058594,389.3333435058594,389.3333435058594,389.3333435058594,389.3333435058594,389.3333435058594,389.3333435058594,389.3333435058594,389.3333435058594,389.3333435058594,389.3333435058594,389.3333435058594,389.3333435058594,389.3333435058594,389.3333435058594,389.3333435058594,389.3333435058594,389.3333435058594,389.3333435058594,389.3333435058594,389.3333435058594,389.3333435058594,389.3333435058594,389.3333435058594,389.3333435058594,389.3333435058594,389.3333435058594,389.3333435058594,389.3333435058594,389.3333435058594,389.3333435058594,389.3333435058594,389.3333435058594,389.3333435058594,389.3333435058594,389.3333435058594,389.3333435058594,389.3333435058594,389.3333435058594,389.3333435058594,389.3333435058594,389.3333435058594,389.3333435058594,389.3333435058594,389.3333435058594,389.3333435058594,389.3333435058594,389.3333435058594,389.3333435058594,389.3333435058594,389.3333435058594,389.3333435058594,389.3333435058594,389.3333435058594,389.3333435058594,389.3333435058594,389.3333435058594,389.3333435058594,389.3333435058594,389.3333435058594,389.3333435058594,389.3333435058594,389.3333435058594,389.3333435058594,389.3333435058594,389.3333435058594,389.3333435058594,389.3333435058594,389.3333435058594,389.3333435058594,389.3333435058594,389.3333435058594,389.3333435058594,389.3333435058594,389.3333435058594,389.3333435058594,389.3333435058594,389.3333435058594,389.3333435058594,389.3333435058594,389.3333435058594,389.3333435058594,389.3333435058594,389.3333435058594,389.3333435058594,389.3333435058594,389.3333435058594,389.3333435058594,389.3333435058594,389.3333435058594,389.3333435058594,389.3333435058594,389.3333435058594,389.3333435058594,389.3333435058594,389.3333435058594,389.3333435058594,389.3333435058594,389.3333435058594,389.3333435058594,389.3333435058594,389.3333435058594,389.3333435058594,389.3333435058594,389.3333435058594,389.3333435058594,389.3333435058594,389.3333435058594,389.3333435058594,389.3333435058594,389.3333435058594,389.3333435058594,389.3333435058594,389.3333435058594,389.3333435058594,389.3333435058594,389.3333435058594,389.3333435058594,389.3333435058594,389.3333435058594,389.3333435058594,389.3333435058594,389.3333435058594,389.3333435058594,389.3333435058594,389.3333435058594,389.3333435058594,389.3333435058594,389.3333435058594,389.3333435058594,389.3333435058594,389.3333435058594,389.3333435058594,389.3333435058594,389.3333435058594,389.3333435058594,389.3333435058594,389.3333435058594,389.3333435058594,389.3333435058594,389.3333435058594,389.3333435058594,389.3333435058594,389.3333435058594,389.3333435058594,389.3333435058594,389.3333435058594,389.3333435058594,389.3333435058594,389.3333435058594,389.3333435058594,389.3333435058594,389.3333435058594,389.3333435058594,389.3333435058594,389.3333435058594,389.3333435058594,389.3333435058594,389.3333435058594,389.3333435058594,389.3333435058594,389.3333435058594,389.3333435058594,389.3333435058594,389.3333435058594,389.3333435058594,389.3333435058594,389.3333435058594,389.3333435058594,389.3333435058594,389.3333435058594,389.3333435058594,389.3333435058594,389.3333435058594,389.3333435058594,389.3333435058594,389.3333435058594,389.3333435058594,389.3333435058594,389.3333435058594,389.3333435058594,389.3333435058594,389.3333435058594,389.3333435058594,389.3333435058594,389.3333435058594,389.3333435058594,389.3333435058594,389.3333435058594,389.3333435058594,389.3333435058594,389.3333435058594,389.3333435058594,389.3333435058594,389.3333435058594,389.3333435058594,389.3333435058594,389.3333435058594,389.3333435058594,389.3333435058594,389.3333435058594,389.3333435058594,389.3333435058594,389.3333435058594,389.3333435058594,389.3333435058594,389.3333435058594,389.3333435058594,389.3333435058594,389.3333435058594,389.3333435058594,389.3333435058594,389.3333435058594,389.3333435058594,389.3333435058594,389.3333435058594,389.3333435058594,389.3333435058594,389.3333435058594,389.3333435058594,389.3333435058594,389.3333435058594,389.3333435058594,389.3333435058594,389.3333435058594,389.3333435058594,389.3333435058594,389.3333435058594,389.3333435058594,389.3333435058594,389.3333435058594,389.3333435058594,389.3333435058594,389.3333435058594,389.3333435058594,389.3333435058594,389.3333435058594,389.3333435058594,389.3333435058594,389.3333435058594,389.3333435058594,389.3333435058594,389.3333435058594,389.3333435058594,389.3333435058594,389.3333435058594,389.3333435058594,389.3333435058594,389.3333435058594,389.3333435058594,389.3333435058594,389.3333435058594,389.3333435058594,389.3333435058594,389.3333435058594,389.3333435058594,389.3333435058594,389.3333435058594,389.3333435058594,389.3333435058594,389.3333435058594,389.3333435058594,389.3333435058594,389.3333435058594,389.3333435058594,389.3333435058594,389.3333435058594,389.3333435058594,389.3333435058594,389.3333435058594,389.3333435058594,389.3333435058594,389.3333435058594,389.3333435058594,389.3333435058594,389.3333435058594,389.3333435058594,389.3333435058594,389.3333435058594,389.3333435058594,389.3333435058594,389.3333435058594,389.3333435058594,389.3333435058594,389.3333435058594,389.3333435058594,389.3333435058594,389.3333435058594,389.3333435058594,389.3333435058594,389.3333435058594,389.3333435058594,389.3333435058594,389.3333435058594,389.3333435058594,389.3333435058594,389.3333435058594,389.3333435058594,389.3333435058594,389.3333435058594,389.3333435058594,389.3333435058594,389.3333435058594,389.3333435058594,389.3333435058594,389.3333435058594,389.3333435058594,389.3333435058594,389.3333435058594,389.3333435058594,389.3333435058594,389.3333435058594,389.3333435058594,389.3333435058594,389.3333435058594,389.3333435058594,389.3333435058594,389.3333435058594,389.3333435058594,389.3333435058594,389.3333435058594,389.3333435058594,389.3333435058594,389.3333435058594,389.3333435058594,389.3333435058594,389.3333435058594,389.3333435058594,389.3333435058594,389.3333435058594,389.3333435058594,389.3333435058594,389.3333435058594,389.3333435058594,389.3333435058594,389.3333435058594,389.3333435058594,389.3333435058594,389.3333435058594,389.3333435058594,389.3333435058594,389.3333435058594,389.3333435058594,389.3333435058594,389.3333435058594,389.3333435058594,389.3333435058594,389.3333435058594,389.3333435058594,389.3333435058594,389.3333435058594,389.3333435058594,389.3333435058594,389.3333435058594,389.3333435058594,389.3333435058594,389.3333435058594,389.3333435058594,389.3333435058594,389.3333435058594,389.3333435058594,389.3333435058594,389.3333435058594,389.3333435058594,389.3333435058594,389.3333435058594,389.3333435058594,389.3333435058594,389.3333435058594,389.3333435058594,389.3333435058594,389.3333435058594,389.3333435058594,389.3333435058594,389.3333435058594,389.3333435058594,389.3333435058594,389.3333435058594,389.3333435058594,389.3333435058594,389.3333435058594,389.3333435058594,389.3333435058594,389.3333435058594,389.3333435058594,389.3333435058594,389.3333435058594,389.3333435058594,389.3333435058594,389.3333435058594,389.3333435058594,389.3333435058594,389.3333435058594,389.3333435058594,389.3333435058594,389.3333435058594,389.3333435058594,389.3333435058594,389.3333435058594,389.3333435058594,389.3333435058594,389.3333435058594,389.3333435058594,389.3333435058594,389.3333435058594,389.3333435058594,389.3333435058594,389.3333435058594,389.3333435058594,389.3333435058594,389.3333435058594,389.3333435058594,389.3333435058594,389.3333435058594,389.3333435058594,389.3333435058594,389.3333435058594,389.3333435058594,389.3333435058594,389.3333435058594,389.3333435058594,389.3333435058594,389.3333435058594,389.3333435058594,389.3333435058594,389.3333435058594,389.3333435058594,389.3333435058594,389.3333435058594,389.3333435058594,389.3333435058594,389.3333435058594,389.3333435058594,389.3333435058594,389.3333435058594,389.3333435058594,389.3333435058594,389.3333435058594,389.3333435058594,389.3333435058594,389.3333435058594,389.3333435058594,389.3333435058594,389.3333435058594,389.3333435058594,389.3333435058594,389.3333435058594,389.3333435058594,389.3333435058594,389.3333435058594,389.3333435058594,389.3333435058594,389.3333435058594,389.3333435058594,389.3333435058594,389.3333435058594,389.3333435058594,389.3333435058594,389.3333435058594,389.3333435058594,389.3333435058594,389.3333435058594,389.3333435058594,389.3333435058594,389.3333435058594,389.3333435058594,389.3333435058594,389.3333435058594,389.3333435058594,389.3333435058594,389.3333435058594,389.3333435058594,389.3333435058594,389.3333435058594,389.3333435058594,389.3333435058594,389.3333435058594,389.3333435058594,389.3333435058594,389.3333435058594,389.3333435058594,389.3333435058594,389.3333435058594,389.3333435058594,389.3333435058594,389.3333435058594,389.3333435058594,389.3333435058594,389.3333435058594,389.3333435058594,389.3333435058594,389.3333435058594,389.3333435058594,389.3333435058594,389.3333435058594,389.3333435058594,389.3333435058594,389.3333435058594,389.3333435058594,389.3333435058594,389.3333435058594,389.3333435058594,389.3333435058594,389.3333435058594,389.3333435058594,389.3333435058594,389.3333435058594,389.3333435058594,389.3333435058594,389.3333435058594,389.3333435058594,389.3333435058594,389.3333435058594,389.3333435058594,389.3333435058594,389.3333435058594,389.3333435058594,389.3333435058594,389.3333435058594,389.3333435058594,389.3333435058594,389.3333435058594,389.3333435058594,389.3333435058594,389.3333435058594,389.3333435058594,389.3333435058594,389.3333435058594,389.3333435058594,389.3333435058594,389.3333435058594,389.3333435058594,389.3333435058594,389.3333435058594,389.3333435058594,389.3333435058594,389.3333435058594,389.3333435058594,389.3333435058594,389.3333435058594,389.3333435058594,389.3333435058594,389.3333435058594,389.3333435058594,389.3333435058594,389.3333435058594,389.3333435058594,389.3333435058594,389.3333435058594,389.3333435058594,389.3333435058594,389.3333435058594,389.3333435058594,389.3333435058594,389.3333435058594,389.3333435058594,389.3333435058594,389.3333435058594,389.3333435058594,389.3333435058594,389.3333435058594,389.3333435058594,389.3333435058594,389.3333435058594,389.3333435058594,389.3333435058594,389.3333435058594,389.3333435058594,389.3333435058594,389.3333435058594,389.3333435058594,389.3333435058594,389.3333435058594,389.3333435058594,389.3333435058594,389.3333435058594,389.3333435058594,389.3333435058594,389.3333435058594,389.3333435058594,389.3333435058594,389.3333435058594,389.3333435058594,389.3333435058594,389.3333435058594,389.3333435058594,389.3333435058594,389.3333435058594,389.3333435058594,389.3333435058594,389.3333435058594,389.3333435058594,389.3333435058594,389.3333435058594,389.3333435058594,389.3333435058594,389.3333435058594,389.3333435058594,389.3333435058594,389.3333435058594,389.3333435058594,389.3333435058594,389.3333435058594,389.3333435058594,389.3333435058594,389.3333435058594,389.3333435058594,389.3333435058594,389.3333435058594,389.3333435058594,389.3333435058594,389.3333435058594,389.3333435058594,389.3333435058594,389.3333435058594,389.3333435058594,389.3333435058594,389.3333435058594,389.3333435058594,389.3333435058594,389.3333435058594,389.3333435058594,389.3333435058594,389.3333435058594,389.3333435058594,389.3333435058594,389.3333435058594,389.3333435058594,389.3333435058594,389.3333435058594,389.3333435058594,389.3333435058594,389.3333435058594,389.3333435058594,389.3333435058594,389.3333435058594,389.3333435058594,389.3333435058594,389.3333435058594,389.3333435058594,389.3333435058594,389.3333435058594,389.3333435058594,389.3333435058594,389.3333435058594,389.3333435058594,389.3333435058594,389.3333435058594,389.3333435058594,389.3333435058594,389.3333435058594,389.3333435058594,389.3333435058594,389.3333435058594,389.3333435058594,389.3333435058594,389.3333435058594,389.3333435058594,389.3333435058594,389.3333435058594,389.3333435058594,389.3333435058594,389.3333435058594,389.3333435058594,389.3333435058594,389.3333435058594,389.3333435058594,389.3333435058594,389.3333435058594,389.3333435058594,389.3333435058594,389.3333435058594,389.3333435058594,389.3333435058594,389.3333435058594,389.3333435058594,389.3333435058594,389.3333435058594,389.3333435058594,389.3333435058594,389.3333435058594,389.3333435058594,389.3333435058594,389.3333435058594,389.3333435058594,389.3333435058594,389.3333435058594,389.3333435058594,389.3333435058594,389.3333435058594,389.3333435058594,389.3333435058594,389.3333435058594,389.3333435058594,389.3333435058594,389.3333435058594,389.3333435058594,389.3333435058594,389.3333435058594,389.3333435058594,389.3333435058594,389.3333435058594,389.3333435058594,389.3333435058594,389.3333435058594,389.3333435058594,389.3333435058594,389.3333435058594,389.3333435058594,389.3333435058594,389.3333435058594,389.3333435058594,389.3333435058594,389.3333435058594,389.3333435058594,389.3333435058594,389.3333435058594,389.3333435058594,389.3333435058594,389.3333435058594,389.3333435058594,389.3333435058594,389.3333435058594,389.3333435058594,389.3333435058594,389.3333435058594,389.3333435058594,389.3333435058594,389.3333435058594,389.3333435058594,389.3333435058594,389.3333435058594,389.3333435058594,389.3333435058594,389.3333435058594,389.3333435058594,389.3333435058594,389.3333435058594,389.3333435058594,389.3333435058594,389.3333435058594,389.3333435058594,389.3333435058594,389.3333435058594,389.3333435058594,389.3333435058594,389.3333435058594,389.3333435058594,389.3333435058594,389.3333435058594,389.3333435058594,389.3333435058594,389.3333435058594,389.3333435058594,389.3333435058594,389.3333435058594,389.3333435058594,389.3333435058594,389.3333435058594,389.3333435058594,389.3333435058594,389.3333435058594,389.3333435058594,389.3333435058594,389.3333435058594,389.3333435058594,389.3333435058594,389.3333435058594,389.3333435058594,389.3333435058594,389.3333435058594,389.3333435058594,389.3333435058594,389.3333435058594,389.3333435058594,389.3333435058594,389.3333435058594,389.3333435058594,389.3333435058594,389.3333435058594,389.3333435058594,389.3333435058594,389.3333435058594,389.3333435058594,389.3333435058594,389.3333435058594,389.3333435058594,389.3333435058594,389.3333435058594,389.3333435058594,389.3333435058594,389.3333435058594,389.3333435058594,389.3333435058594,389.3333435058594,389.3333435058594,389.3333435058594,389.3333435058594,389.3333435058594,389.3333435058594,389.3333435058594,389.3333435058594,389.3333435058594,389.3333435058594,389.3333435058594,389.3333435058594,389.3333435058594,389.3333435058594,389.3333435058594,389.3333435058594,389.3333435058594,389.3333435058594,389.3333435058594,389.3333435058594,389.3333435058594,389.3333435058594,389.3333435058594,389.3333435058594,389.3333435058594,389.3333435058594,389.3333435058594,389.3333435058594,389.3333435058594,389.3333435058594,389.3333435058594,389.3333435058594,389.3333435058594,389.3333435058594,389.3333435058594,389.3333435058594,389.3333435058594,389.3333435058594,389.3333435058594,389.3333435058594,389.3333435058594,389.3333435058594,389.3333435058594,389.3333435058594,389.3333435058594,389.3333435058594,389.3333435058594,389.3333435058594,389.3333435058594,389.3333435058594,389.3333435058594,389.3333435058594,389.3333435058594,389.3333435058594,389.3333435058594,389.3333435058594,389.3333435058594,389.3333435058594,389.3333435058594,389.3333435058594,389.3333435058594,389.3333435058594,389.3333435058594,389.3333435058594,389.3333435058594,389.3333435058594,389.3333435058594,389.3333435058594,389.3333435058594,389.3333435058594,389.3333435058594,389.3333435058594,389.3333435058594,389.3333435058594,389.3333435058594,389.3333435058594,389.3333435058594,389.3333435058594,389.3333435058594,389.3333435058594,389.3333435058594,389.3333435058594,389.3333435058594,389.3333435058594,389.3333435058594,389.3333435058594,389.3333435058594,389.3333435058594,389.3333435058594,389.3333435058594,389.3333435058594,389.3333435058594,389.3333435058594,389.3333435058594,389.3333435058594,389.3333435058594,389.3333435058594,389.3333435058594,389.3333435058594,389.3333435058594,389.3333435058594,389.3333435058594,389.3333435058594,389.3333435058594,389.3333435058594,389.3333435058594,389.3333435058594,389.3333435058594,389.3333435058594,389.3333435058594,389.3333435058594,389.3333435058594,389.3333435058594,389.3333435058594,389.3333435058594,389.3333435058594,389.3333435058594,389.3333435058594,389.3333435058594,389.3333435058594,389.3333435058594,389.3333435058594,389.3333435058594,389.3333435058594,389.3333435058594,389.3333435058594,389.3333435058594,389.3333435058594,389.3333435058594,389.3333435058594,389.3333435058594,389.3333435058594,389.3333435058594,389.3333435058594,389.3333435058594,389.3333435058594,389.3333435058594,389.3333435058594,389.3333435058594,389.3333435058594,389.3333435058594,389.3333435058594,389.3333435058594,389.3333435058594,389.3333435058594,389.3333435058594,389.3333435058594,389.3333435058594,389.3333435058594,389.3333435058594,389.3333435058594,389.3333435058594,389.3333435058594,389.3333435058594,389.3333435058594,389.3333435058594,389.3333435058594,389.3333435058594,389.3333435058594,389.3333435058594,389.3333435058594,389.3333435058594,389.3333435058594,389.3333435058594,389.3333435058594,389.3333435058594,389.3333435058594,389.3333435058594,389.3333435058594,389.3333435058594,389.3333435058594,389.3333435058594,389.3333435058594,389.3333435058594,389.3333435058594,389.3333435058594,389.3333435058594,389.3333435058594,389.3333435058594,389.3333435058594,389.3333435058594,389.3333435058594,389.3333435058594,389.3333435058594,389.3333435058594,389.3333435058594,389.3333435058594,389.3333435058594,389.3333435058594,389.3333435058594,389.3333435058594,389.3333435058594,389.3333435058594,389.3333435058594,389.3333435058594,389.3333435058594,389.3333435058594,389.3333435058594,389.3333435058594,389.3333435058594,389.3333435058594,389.3333435058594,389.3333435058594,389.3333435058594,389.3333435058594,389.3333435058594,389.3333435058594,389.3333435058594,389.3333435058594,389.3333435058594,389.3333435058594,389.3333435058594,389.3333435058594,389.3333435058594,389.3333435058594,389.3333435058594,389.3333435058594,389.3333435058594,389.3333435058594,389.3333435058594,389.3333435058594,389.3333435058594,389.3333435058594,389.3333435058594,389.3333435058594,389.3333435058594,389.3333435058594,389.3333435058594,389.3333435058594,389.3333435058594,389.3333435058594,389.3333435058594,389.3333435058594,389.3333435058594,389.3333435058594,389.3333435058594,389.3333435058594,389.3333435058594,389.3333435058594,389.3333435058594,389.3333435058594,389.3333435058594,389.3333435058594,389.3333435058594,389.3333435058594,389.3333435058594,389.3333435058594,389.3333435058594,389.3333435058594,389.3333435058594,389.3333435058594,389.3333435058594,389.3333435058594,389.3333435058594,389.3333435058594,389.3333435058594,389.3333435058594,389.3333435058594,389.3333435058594,389.3333435058594,389.3333435058594,389.3333435058594,389.3333435058594,389.3333435058594,389.3333435058594,389.3333435058594,389.3333435058594,389.3333435058594,389.3333435058594,389.3333435058594,389.3333435058594,389.3333435058594,389.3333435058594,389.3333435058594,389.3333435058594,389.3333435058594,389.3333435058594,389.3333435058594,389.3333435058594,389.3333435058594,389.3333435058594,389.3333435058594,389.3333435058594,389.3333435058594,389.3333435058594,389.3333435058594,389.3333435058594,389.3333435058594,389.3333435058594,389.3333435058594,389.3333435058594,389.3333435058594,389.3333435058594,389.3333435058594,389.3333435058594,389.3333435058594,389.3333435058594,389.3333435058594,389.3333435058594,389.3333435058594,389.3333435058594,389.3333435058594,389.3333435058594,389.3333435058594,389.3333435058594,389.3333435058594,389.3333435058594,389.3333435058594,389.3333435058594,389.3333435058594,389.3333435058594,389.3333435058594,389.3333435058594,389.3333435058594,389.3333435058594,389.3333435058594,389.3333435058594,389.3333435058594,389.3333435058594,389.3333435058594,389.3333435058594,389.3333435058594,389.3333435058594,389.3333435058594,389.3333435058594,389.3333435058594,389.3333435058594,389.3333435058594,389.3333435058594,389.3333435058594,389.3333435058594,389.3333435058594,389.3333435058594,389.3333435058594,389.3333435058594,389.3333435058594,389.3333435058594,389.3333435058594,389.3333435058594,389.3333435058594,389.3333435058594,389.3333435058594,389.3333435058594,389.3333435058594,389.3333435058594,389.3333435058594,389.3333435058594,389.3333435058594,389.3333435058594,389.3333435058594,389.3333435058594,389.3333435058594,389.3333435058594,389.3333435058594,389.3333435058594,389.3333435058594,389.3333435058594,389.3333435058594,389.3333435058594,389.3333435058594,389.3333435058594,389.3333435058594,389.3333435058594,389.3333435058594,389.3333435058594,389.3333435058594,389.3333435058594,389.3333435058594,389.3333435058594,389.3333435058594,389.3333435058594,389.3333435058594,389.3333435058594,389.3333435058594,389.3333435058594,389.3333435058594,389.3333435058594,389.3333435058594,389.3333435058594,389.3333435058594,389.3333435058594,389.3333435058594,389.3333435058594,389.3333435058594,389.3333435058594,389.3333435058594,389.3333435058594,389.3333435058594,389.3333435058594,389.3333435058594,389.3333435058594,389.3333435058594,389.3333435058594,389.3333435058594,389.3333435058594,389.3333435058594,389.3333435058594,389.3333435058594,389.3333435058594,389.3333435058594,389.3333435058594,389.3333435058594,389.3333435058594,389.3333435058594,389.3333435058594,389.3333435058594,389.3333435058594,389.3333435058594,389.3333435058594,389.3333435058594,389.3333435058594,389.3333435058594,389.3333435058594,389.3333435058594,389.3333435058594,389.3333435058594,389.3333435058594,389.3333435058594,389.3333435058594,389.3333435058594,389.3333435058594,389.3333435058594,389.3333435058594,389.3333435058594,389.3333435058594,389.3333435058594,389.3333435058594,389.3333435058594,389.3333435058594,389.3333435058594,389.3333435058594,389.3333435058594,389.3333435058594,389.3333435058594,389.3333435058594,389.3333435058594,389.3333435058594,389.3333435058594,389.3333435058594,389.3333435058594,389.3333435058594,389.3333435058594,389.3333435058594,389.3333435058594,389.3333435058594,389.3333435058594,389.3333435058594,389.3333435058594,389.3333435058594,389.3333435058594,389.3333435058594,389.3333435058594,389.3333435058594,389.3333435058594,389.3333435058594,389.3333435058594,389.3333435058594,389.3333435058594,389.3333435058594,389.3333435058594,389.3333435058594,389.3333435058594,389.3333435058594,389.3333435058594,389.3333435058594,389.3333435058594,389.3333435058594,389.3333435058594,389.3333435058594,389.3333435058594,389.3333435058594,389.3333435058594,389.3333435058594,389.3333435058594,389.3333435058594,389.3333435058594,389.3333435058594,389.3333435058594,389.3333435058594,389.3333435058594,389.3333435058594,389.3333435058594,389.3333435058594,389.3333435058594,389.3333435058594,389.3333435058594,389.3333435058594,389.3333435058594,389.3333435058594,389.3333435058594,389.3333435058594,389.3333435058594,389.3333435058594,389.3333435058594,389.3333435058594,389.3333435058594,389.3333435058594,389.3333435058594,389.3333435058594,389.3333435058594,389.3333435058594,389.3333435058594,389.3333435058594,389.3333435058594,389.3333435058594,389.3333435058594,389.3333435058594,389.3333435058594,389.3333435058594,389.3333435058594,389.3333435058594,389.3333435058594,389.3333435058594,389.3333435058594,389.3333435058594,389.3333435058594,389.3333435058594,389.3333435058594,389.3333435058594,389.3333435058594,389.3333435058594,389.3333435058594,389.3333435058594,389.3333435058594,389.3333435058594,389.3333435058594,389.3333435058594,389.3333435058594,389.3333435058594,389.3333435058594,389.3333435058594,389.3333435058594,389.3333435058594,389.3333435058594,389.3333435058594,389.3333435058594,389.3333435058594,389.3333435058594,389.3333435058594,389.3333435058594,389.3333435058594,389.3333435058594,389.3333435058594,389.3333435058594,389.3333435058594,389.3333435058594,389.3333435058594,389.3333435058594,389.3333435058594,389.3333435058594,389.3333435058594,389.3333435058594,389.3333435058594,389.3333435058594,389.3333435058594,389.3333435058594,389.3333435058594,389.3333435058594,389.3333435058594,389.3333435058594,389.3333435058594,389.3333435058594,389.3333435058594,389.3333435058594,389.3333435058594,389.3333435058594,389.3333435058594,389.3333435058594,389.3333435058594,389.3333435058594,389.3333435058594,389.3333435058594,389.3333435058594,389.3333435058594,389.3333435058594,389.3333435058594,389.3333435058594,389.3333435058594,389.3333435058594,389.3333435058594,389.3333435058594,389.3333435058594,389.3333435058594,389.3333435058594,389.3333435058594,389.3333435058594,389.3333435058594,389.3333435058594,389.3333435058594,389.3333435058594,389.3333435058594,389.3333435058594,389.3333435058594,389.3333435058594,389.3333435058594,389.3333435058594,389.3333435058594,389.3333435058594,389.3333435058594,389.3333435058594,389.3333435058594,389.3333435058594,389.3333435058594,389.3333435058594,389.3333435058594,389.3333435058594,389.3333435058594,389.3333435058594,389.3333435058594,389.3333435058594,389.3333435058594,389.3333435058594,389.3333435058594,389.3333435058594,389.3333435058594,389.3333435058594,389.3333435058594,389.3333435058594,389.3333435058594,389.3333435058594,389.3333435058594,389.3333435058594,389.3333435058594,389.3333435058594,389.3333435058594,389.3333435058594,389.3333435058594,389.3333435058594,389.3333435058594,389.3333435058594,389.3333435058594,389.3333435058594,389.3333435058594,389.3333435058594,389.3333435058594,389.3333435058594,389.3333435058594,389.3333435058594,389.3333435058594,389.3333435058594,389.3333435058594,389.3333435058594,389.3333435058594,389.3333435058594,389.3333435058594,389.3333435058594,389.3333435058594,389.3333435058594,389.3333435058594,389.3333435058594,389.3333435058594,389.3333435058594,389.3333435058594,389.3333435058594,389.3333435058594,389.3333435058594,389.3333435058594,389.3333435058594,389.3333435058594,389.3333435058594,389.3333435058594,389.3333435058594,389.3333435058594,389.3333435058594,389.3333435058594,389.3333435058594,389.3333435058594,389.3333435058594,389.3333435058594,389.3333435058594,389.3333435058594,389.3333435058594,389.3333435058594,389.3333435058594,389.3333435058594,389.3333435058594,389.3333435058594,389.3333435058594,389.3333435058594,389.3333435058594,389.3333435058594,389.3333435058594,389.3333435058594,389.3333435058594,389.3333435058594,389.3333435058594,389.3333435058594,389.3333435058594,389.3333435058594,389.3333435058594,389.3333435058594,389.3333435058594,389.3333435058594,389.3333435058594,389.3333435058594,389.3333435058594,389.3333435058594,389.3333435058594,389.3333435058594,389.3333435058594,389.3333435058594,389.3333435058594,389.3333435058594,389.3333435058594,389.3333435058594,389.3333435058594,389.3333435058594,389.3333435058594,389.3333435058594,389.3333435058594,389.3333435058594,389.3333435058594,389.3333435058594,389.3333435058594,389.3333435058594,389.3333435058594,389.3333435058594,389.3333435058594,389.3333435058594,389.3333435058594,389.3333435058594,389.3333435058594,389.3333435058594,389.3333435058594,389.3333435058594,389.3333435058594,389.3333435058594,389.3333435058594,389.3333435058594,389.3333435058594,389.3333435058594,389.3333435058594,389.3333435058594,389.3333435058594,389.3333435058594,389.3333435058594,389.3333435058594,389.3333435058594,389.3333435058594,389.3333435058594,389.3333435058594,389.3333435058594,389.3333435058594,389.3333435058594,389.3333435058594,389.3333435058594,389.3333435058594,389.3333435058594,389.3333435058594,389.3333435058594,389.3333435058594,389.3333435058594,389.3333435058594,389.3333435058594,389.3333435058594,389.3333435058594,389.3333435058594,389.3333435058594,389.3333435058594,389.3333435058594,389.3333435058594,389.3333435058594,389.3333435058594,389.3333435058594,389.3333435058594,389.3333435058594,389.3333435058594,389.3333435058594,389.3333435058594,389.3333435058594,389.3333435058594,389.3333435058594,389.3333435058594,389.3333435058594,389.3333435058594,389.3333435058594,389.3333435058594,389.3333435058594,389.3333435058594,389.3333435058594,389.3333435058594,389.3333435058594,389.3333435058594,389.3333435058594,389.3333435058594,389.3333435058594,389.3333435058594,389.3333435058594,389.3333435058594,389.3333435058594,389.3333435058594,389.3333435058594,389.3333435058594,389.3333435058594,389.3333435058594,389.3333435058594,389.3333435058594,389.3333435058594,389.3333435058594,389.3333435058594,389.3333435058594,389.3333435058594,389.3333435058594,389.3333435058594,389.3333435058594,389.3333435058594,389.3333435058594,389.3333435058594,389.3333435058594,389.3333435058594,389.3333435058594,389.3333435058594,389.3333435058594,389.3333435058594,389.3333435058594,389.3333435058594,389.3333435058594,389.3333435058594,389.3333435058594,389.3333435058594,389.3333435058594,389.3333435058594,389.3333435058594,389.3333435058594,389.3333435058594,389.3333435058594,389.3333435058594,389.3333435058594,389.3333435058594,389.3333435058594,389.3333435058594,389.3333435058594,389.3333435058594,389.3333435058594,389.3333435058594,389.3333435058594,389.3333435058594,389.3333435058594,389.3333435058594,389.3333435058594,389.3333435058594,389.3333435058594,389.3333435058594,389.3333435058594,389.3333435058594,389.3333435058594,389.3333435058594,389.3333435058594,389.3333435058594,389.3333435058594,389.3333435058594,389.3333435058594,389.3333435058594,389.3333435058594,389.3333435058594,389.3333435058594,389.3333435058594,389.3333435058594,389.3333435058594,389.3333435058594,389.3333435058594,389.3333435058594,389.3333435058594,389.3333435058594,389.3333435058594,389.3333435058594,389.3333435058594,389.3333435058594,389.3333435058594,389.3333435058594,389.3333435058594,389.3333435058594,389.3333435058594,389.3333435058594,389.3333435058594,389.3333435058594,389.3333435058594,389.3333435058594,389.3333435058594,389.3333435058594,389.3333435058594,389.3333435058594,389.3333435058594,389.3333435058594,389.3333435058594,389.3333435058594,389.3333435058594,389.3333435058594,389.3333435058594,389.3333435058594,389.3333435058594,389.3333435058594,389.3333435058594,389.3333435058594,389.3333435058594,389.3333435058594,389.3333435058594,389.3333435058594,389.3333435058594,389.3333435058594,389.3333435058594,389.3333435058594,389.3333435058594,389.3333435058594,389.3333435058594,389.3333435058594,389.3333435058594,389.3333435058594,389.3333435058594,389.3333435058594,389.3333435058594,389.3333435058594,389.3333435058594,389.3333435058594,389.3333435058594,389.3333435058594,389.3333435058594,389.3333435058594,389.3333435058594,389.3333435058594,389.3333435058594,389.3333435058594,389.3333435058594,389.3333435058594,389.3333435058594,389.3333435058594,389.3333435058594,389.3333435058594,389.3333435058594,389.3333435058594,389.3333435058594,389.3333435058594,389.3333435058594,389.3333435058594,389.3333435058594,389.3333435058594,389.3333435058594,389.3333435058594,389.3333435058594,389.3333435058594,389.3333435058594,389.3333435058594,389.3333435058594,389.3333435058594,389.3333435058594,389.3333435058594,389.3333435058594,389.3333435058594,389.3333435058594,389.3333435058594,389.3333435058594,389.3333435058594,389.3333435058594,389.3333435058594,389.3333435058594,389.3333435058594,389.3333435058594,389.3333435058594,389.3333435058594,389.3333435058594,389.3333435058594,389.3333435058594,389.3333435058594,389.3333435058594,389.3333435058594,389.3333435058594,389.3333435058594,389.3333435058594,389.3333435058594,389.3333435058594,389.3333435058594,389.3333435058594,389.3333435058594,389.3333435058594,389.3333435058594,389.3333435058594,389.3333435058594,389.3333435058594,389.3333435058594,389.3333435058594,389.3333435058594,389.3333435058594,389.3333435058594,389.3333435058594,389.3333435058594,389.3333435058594,389.3333435058594,389.3333435058594,389.3333435058594,389.3333435058594,389.3333435058594,389.3333435058594,389.3333435058594,389.3333435058594,389.3333435058594,389.3333435058594,389.3333435058594,389.3333435058594,389.3333435058594,389.3333435058594,389.3333435058594,389.3333435058594,389.3333435058594,389.3333435058594,389.3333435058594,389.3333435058594,389.3333435058594,389.3333435058594,389.3333435058594,389.3333435058594,389.3333435058594,389.3333435058594,389.3333435058594,389.3333435058594,389.3333435058594,389.3333435058594,389.3333435058594,389.3333435058594,389.3333435058594,389.3333435058594,389.3333435058594,389.3333435058594,389.3333435058594,389.3333435058594,389.3333435058594,389.3333435058594,389.3333435058594,389.3333435058594,389.3333435058594,389.3333435058594,389.3333435058594,389.3333435058594,389.3333435058594,389.3333435058594,389.3333435058594,389.3333435058594,389.3333435058594,389.3333435058594,389.3333435058594,389.3333435058594,389.3333435058594,389.3333435058594,389.3333435058594,389.3333435058594,389.3333435058594,389.3333435058594,389.3333435058594,389.3333435058594,389.3333435058594,389.3333435058594,389.3333435058594,389.3333435058594,389.3333435058594,389.3333435058594,389.3333435058594,389.3333435058594,389.3333435058594,389.3333435058594,389.3333435058594,389.3333435058594,389.3333435058594,389.3333435058594,389.3333435058594,389.3333435058594,389.3333435058594,389.3333435058594,389.3333435058594,389.3333435058594,389.3333435058594,389.3333435058594,389.3333435058594,389.3333435058594,389.3333435058594,389.3333435058594,389.3333435058594,389.3333435058594,389.3333435058594,389.3333435058594,389.3333435058594,389.3333435058594,389.3333435058594,389.3333435058594,389.3333435058594,389.3333435058594,389.3333435058594,389.3333435058594,389.3333435058594,389.3333435058594,389.3333435058594,389.3333435058594,389.3333435058594,389.3333435058594,389.3333435058594,389.3333435058594,389.3333435058594,389.3333435058594,389.3333435058594,389.3333435058594,389.3333435058594,389.3333435058594,389.3333435058594,389.3333435058594,389.3333435058594,389.3333435058594,389.3333435058594,389.3333435058594,389.3333435058594,389.3333435058594,389.3333435058594,389.3333435058594,389.3333435058594,389.3333435058594,389.3333435058594,389.3333435058594,389.3333435058594,389.3333435058594,389.3333435058594,389.3333435058594,389.3333435058594,389.3333435058594,389.3333435058594,389.3333435058594,389.3333435058594,389.3333435058594,389.3333435058594,389.3333435058594,389.3333435058594,389.3333435058594,389.3333435058594,389.3333435058594,389.3333435058594,389.3333435058594,389.3333435058594,389.3333435058594,389.3333435058594,389.3333435058594,389.3333435058594,389.3333435058594,389.3333435058594,389.3333435058594,389.3333435058594,389.3333435058594,389.3333435058594,389.3333435058594,389.3333435058594,389.3333435058594,389.3333435058594,389.3333435058594,389.3333435058594,389.3333435058594,389.3333435058594,389.3333435058594,389.3333435058594,389.3333435058594,389.3333435058594,389.3333435058594,389.3333435058594,389.3333435058594,389.3333435058594,389.3333435058594,389.3333435058594,389.3333435058594,389.3333435058594,389.3333435058594,389.3333435058594,389.3333435058594,389.3333435058594,389.3333435058594,389.3333435058594,389.3333435058594,389.3333435058594,389.3333435058594,389.3333435058594,389.3333435058594,389.3333435058594,389.3333435058594,389.3333435058594,389.3333435058594,389.3333435058594,389.3333435058594,389.3333435058594,389.3333435058594,389.3333435058594,389.3333435058594,389.3333435058594,389.3333435058594,389.3333435058594,389.3333435058594,389.3333435058594,389.3333435058594,389.3333435058594,389.3333435058594,389.3333435058594,389.3333435058594,389.3333435058594,389.3333435058594,389.3333435058594,389.3333435058594,389.3333435058594,389.3333435058594,389.3333435058594,389.3333435058594,389.3333435058594,389.3333435058594,389.3333435058594,389.3333435058594,389.3333435058594,389.3333435058594,389.3333435058594,389.3333435058594,389.3333435058594,389.3333435058594,389.3333435058594,389.3333435058594,389.3333435058594,389.3333435058594,389.3333435058594,389.3333435058594,389.3333435058594,389.3333435058594,389.3333435058594,389.3333435058594,389.3333435058594,389.3333435058594,389.3333435058594,389.3333435058594,389.3333435058594,389.3333435058594,389.3333435058594,389.3333435058594,389.3333435058594,389.3333435058594,389.3333435058594,389.3333435058594,389.3333435058594,389.3333435058594,389.3333435058594,389.3333435058594,389.3333435058594,389.3333435058594,389.3333435058594,389.3333435058594,389.3333435058594,389.3333435058594,389.3333435058594,389.3333435058594,389.3333435058594,389.3333435058594,389.3333435058594,389.3333435058594,389.3333435058594,389.3333435058594,389.3333435058594,389.3333435058594,389.3333435058594,389.3333435058594,389.3333435058594,389.3333435058594,389.3333435058594,389.3333435058594,389.3333435058594,389.3333435058594,389.3333435058594,389.3333435058594,389.3333435058594,389.3333435058594,389.3333435058594,389.3333435058594,389.3333435058594,389.3333435058594,389.3333435058594,389.3333435058594,389.3333435058594,389.3333435058594,389.3333435058594,389.3333435058594,389.3333435058594,389.3333435058594,389.3333435058594,389.3333435058594,389.3333435058594,389.3333435058594,389.3333435058594,389.3333435058594,389.3333435058594,389.3333435058594,389.3333435058594,389.3333435058594,389.3333435058594,389.3333435058594,389.3333435058594,389.3333435058594,389.3333435058594,389.3333435058594,389.3333435058594,389.3333435058594,389.3333435058594,389.3333435058594,389.3333435058594,389.3333435058594,389.3333435058594,389.3333435058594,389.3333435058594,389.3333435058594,389.3333435058594,389.3333435058594,389.3333435058594,389.3333435058594,389.3333435058594,389.3333435058594,389.3333435058594,389.3333435058594,389.3333435058594,389.3333435058594,389.3333435058594,389.3333435058594,389.3333435058594,389.3333435058594,389.3333435058594,389.3333435058594,389.3333435058594,389.3333435058594,389.3333435058594,389.3333435058594,389.3333435058594,389.3333435058594,389.3333435058594,389.3333435058594,389.3333435058594,389.3333435058594,389.3333435058594,389.3333435058594,389.3333435058594,389.3333435058594,389.3333435058594,389.3333435058594,389.3333435058594,389.3333435058594,389.3333435058594,389.3333435058594,389.3333435058594,389.3333435058594,389.3333435058594,389.3333435058594,389.3333435058594,389.3333435058594,389.3333435058594,389.3333435058594,389.3333435058594,389.3333435058594,389.3333435058594,389.3333435058594,389.3333435058594,389.3333435058594,389.3333435058594,389.3333435058594,389.3333435058594,389.3333435058594,389.3333435058594,389.3333435058594,389.3333435058594,389.3333435058594,389.3333435058594,389.3333435058594,389.3333435058594,389.3333435058594,389.3333435058594,389.3333435058594,389.3333435058594,389.3333435058594,389.3333435058594,389.3333435058594,389.3333435058594,389.3333435058594,389.3333435058594,389.3333435058594,389.3333435058594,389.3333435058594,389.3333435058594,389.3333435058594,389.3333435058594,389.3333435058594,389.3333435058594,389.3333435058594,389.3333435058594,389.3333435058594,389.3333435058594,389.3333435058594,389.3333435058594,389.3333435058594,389.3333435058594,389.3333435058594,389.3333435058594,389.3333435058594,389.3333435058594,389.3333435058594,389.3333435058594,389.3333435058594,389.3333435058594,389.3333435058594,389.3333435058594,389.3333435058594,389.3333435058594,389.3333435058594,389.3333435058594,389.3333435058594,389.3333435058594,389.3333435058594,389.3333435058594,389.3333435058594,389.3333435058594,389.3333435058594,389.3333435058594,389.3333435058594,389.3333435058594,389.3333435058594,389.3333435058594,389.3333435058594,389.3333435058594,389.3333435058594,389.3333435058594,389.3333435058594,389.3333435058594,389.3333435058594,389.3333435058594,389.3333435058594,389.3333435058594,389.3333435058594,389.3333435058594,389.3333435058594,389.3333435058594,389.3333435058594,389.3333435058594,389.3333435058594,389.3333435058594,389.3333435058594,389.3333435058594,389.3333435058594,389.3333435058594,389.3333435058594,389.3333435058594,389.3333435058594,389.3333435058594,389.3333435058594,389.3333435058594,389.3333435058594,389.3333435058594,389.3333435058594,389.3333435058594,389.3333435058594,389.3333435058594,389.3333435058594,389.3333435058594,389.3333435058594,389.3333435058594,389.3333435058594,389.3333435058594,389.3333435058594,389.3333435058594,389.3333435058594,389.3333435058594,389.3333435058594,389.3333435058594,389.3333435058594,389.3333435058594,389.3333435058594,389.3333435058594,389.3333435058594,389.3333435058594,389.3333435058594,389.3333435058594,389.3333435058594,389.3333435058594,389.3333435058594,389.3333435058594,389.3333435058594,389.3333435058594,389.3333435058594,389.3333435058594,389.3333435058594,389.3333435058594,389.3333435058594,389.3333435058594,389.3333435058594,389.3333435058594,389.3333435058594,389.3333435058594,389.3333435058594,389.3333435058594,389.3333435058594,389.3333435058594,389.3333435058594,389.3333435058594,389.3333435058594,389.3333435058594,389.3333435058594,389.3333435058594,389.3333435058594,389.3333435058594,389.3333435058594,389.3333435058594,389.3333435058594,389.3333435058594,389.3333435058594,389.3333435058594,389.3333435058594,389.3333435058594,389.3333435058594,389.3333435058594,389.3333435058594,389.3333435058594,389.3333435058594,389.3333435058594,389.3333435058594,389.3333435058594,389.3333435058594,389.3333435058594,389.3333435058594,389.3333435058594,389.3333435058594,389.3333435058594,389.3333435058594,389.3333435058594,389.3333435058594,389.3333435058594,389.3333435058594,389.3333435058594,389.3333435058594,389.3333435058594,389.3333435058594,389.3333435058594,389.3333435058594,389.3333435058594,389.3333435058594,389.3333435058594,389.3333435058594,389.3333435058594,389.3333435058594,389.3333435058594,389.3333435058594,389.3333435058594,389.3333435058594,389.3333435058594,389.3333435058594,389.3333435058594,389.3333435058594,389.3333435058594,389.3333435058594,389.3333435058594,389.3333435058594,389.3333435058594,389.3333435058594,389.3333435058594,389.3333435058594,389.3333435058594,389.3333435058594,389.3333435058594,389.3333435058594,389.3333435058594,389.3333435058594,389.3333435058594,389.3333435058594,389.3333435058594,389.3333435058594,389.3333435058594,389.3333435058594,389.3333435058594,389.3333435058594,389.3333435058594,389.3333435058594,389.3333435058594,389.3333435058594,389.3333435058594,389.3333435058594,389.3333435058594,389.3333435058594,389.3333435058594,389.3333435058594,389.3333435058594,389.3333435058594,389.3333435058594,389.3333435058594,389.3333435058594,389.3333435058594,389.3333435058594,389.3333435058594,389.3333435058594,389.3333435058594,389.3333435058594,389.3333435058594,389.3333435058594,389.3333435058594,389.3333435058594,389.3333435058594,389.3333435058594,389.3333435058594,389.3333435058594,389.3333435058594,389.3333435058594,389.3333435058594,389.3333435058594,389.3333435058594,389.3333435058594,389.3333435058594,389.3333435058594,389.3333435058594,389.3333435058594,389.3333435058594,389.3333435058594,389.3333435058594,389.3333435058594,389.3333435058594,389.3333435058594,389.3333435058594,389.3333435058594,389.3333435058594,389.3333435058594,389.3333435058594,389.3333435058594,389.3333435058594,389.3333435058594,389.3333435058594,389.3333435058594,389.3333435058594,389.3333435058594,389.3333435058594,389.3333435058594,389.3333435058594,389.3333435058594,389.3333435058594,389.3333435058594,389.3333435058594,389.3333435058594,389.3333435058594,389.3333435058594,389.3333435058594,389.3333435058594,389.3333435058594,389.3333435058594,389.3333435058594,389.3333435058594,389.3333435058594,389.3333435058594,389.3333435058594,389.3333435058594,389.3333435058594,389.3333435058594,389.3333435058594,389.3333435058594,389.3333435058594,389.3333435058594,389.3333435058594,389.3333435058594,389.3333435058594,389.3333435058594,389.3333435058594,389.3333435058594,389.3333435058594,389.3333435058594,389.3333435058594,389.3333435058594,389.3333435058594,389.3333435058594,389.3333435058594,389.3333435058594,389.3333435058594,389.3333435058594,389.3333435058594,389.3333435058594,389.3333435058594,389.3333435058594,389.3333435058594,389.3333435058594,389.3333435058594,389.3333435058594,389.3333435058594,389.3333435058594,389.3333435058594,389.3333435058594,389.3333435058594,389.3333435058594,389.3333435058594,389.3333435058594,389.3333435058594,389.3333435058594,389.3333435058594,389.3333435058594,389.3333435058594,389.3333435058594,389.3333435058594,389.3333435058594,389.3333435058594,389.3333435058594,389.3333435058594,389.3333435058594,389.3333435058594,389.3333435058594,389.3333435058594,389.3333435058594,389.3333435058594,389.3333435058594,389.3333435058594,389.3333435058594,389.3333435058594,389.3333435058594,389.3333435058594,389.3333435058594,389.3333435058594,389.3333435058594,389.3333435058594,389.3333435058594,389.3333435058594,389.3333435058594,389.3333435058594,389.3333435058594,389.3333435058594,389.3333435058594,389.3333435058594,389.3333435058594,389.3333435058594,389.3333435058594,389.3333435058594,389.3333435058594,389.3333435058594,389.3333435058594,389.3333435058594,389.3333435058594,389.3333435058594,389.3333435058594,389.3333435058594,389.3333435058594,389.3333435058594,389.3333435058594,389.3333435058594,389.3333435058594,389.3333435058594,389.3333435058594,389.3333435058594,389.3333435058594,389.3333435058594,389.3333435058594,389.3333435058594,389.3333435058594,389.3333435058594,389.3333435058594,389.3333435058594,389.3333435058594,389.3333435058594,389.3333435058594,389.3333435058594,389.3333435058594,389.3333435058594,389.3333435058594,389.3333435058594,389.3333435058594,389.3333435058594,389.3333435058594,389.3333435058594,389.3333435058594,389.3333435058594,389.3333435058594,389.3333435058594,389.3333435058594,389.3333435058594,389.3333435058594,389.3333435058594,389.3333435058594,389.3333435058594,389.3333435058594,389.3333435058594,389.3333435058594,389.3333435058594,389.3333435058594,389.3333435058594,389.3333435058594,389.3333435058594,389.3333435058594,389.3333435058594,389.3333435058594,389.3333435058594,389.3333435058594,389.3333435058594,389.3333435058594,389.3333435058594,389.3333435058594,389.3333435058594,389.3333435058594,389.3333435058594,389.3333435058594,389.3333435058594,389.3333435058594,389.3333435058594,389.3333435058594,389.3333435058594,389.3333435058594,389.3333435058594,389.3333435058594,389.3333435058594,389.3333435058594,389.3333435058594,389.3333435058594,389.3333435058594,389.3333435058594,389.3333435058594,389.3333435058594,389.3333435058594,389.3333435058594,389.3333435058594,389.3333435058594,389.3333435058594,389.3333435058594,389.3333435058594,389.3333435058594,389.3333435058594,389.3333435058594,389.3333435058594,389.3333435058594,389.3333435058594,389.3333435058594,389.3333435058594,389.3333435058594,389.3333435058594,389.3333435058594,389.3333435058594,389.3333435058594,389.3333435058594,389.3333435058594,389.3333435058594,389.3333435058594,389.3333435058594,389.3333435058594,389.3333435058594,389.3333435058594,389.3333435058594,389.3333435058594,389.3333435058594,389.3333435058594,389.3333435058594,389.3333435058594,389.3333435058594,389.3333435058594,389.3333435058594,389.3333435058594,389.3333435058594,389.3333435058594,389.3333435058594,389.3333435058594,389.3333435058594,389.3333435058594,389.3333435058594,389.3333435058594,389.3333435058594,389.3333435058594,389.3333435058594,389.3333435058594,389.3333435058594,389.3333435058594,389.3333435058594,389.3333435058594,389.3333435058594,389.3333435058594,389.3333435058594,389.3333435058594,389.3333435058594,389.3333435058594,389.3333435058594,389.3333435058594,389.3333435058594,389.3333435058594,389.3333435058594,389.3333435058594,389.3333435058594,389.3333435058594,389.3333435058594,389.3333435058594,389.3333435058594,389.3333435058594,389.3333435058594,389.3333435058594,389.3333435058594,389.3333435058594,389.3333435058594,389.3333435058594,389.3333435058594,389.3333435058594,389.3333435058594,389.3333435058594,389.3333435058594,389.3333435058594,389.3333435058594,389.3333435058594,389.3333435058594,389.3333435058594,389.3333435058594,389.3333435058594,389.3333435058594,389.3333435058594,389.3333435058594,389.3333435058594,389.3333435058594,389.3333435058594,389.3333435058594,389.3333435058594,389.3333435058594,389.3333435058594,389.3333435058594,389.3333435058594,389.3333435058594,389.3333435058594,389.3333435058594,389.3333435058594,389.3333435058594,389.3333435058594,389.3333435058594,389.3333435058594,389.3333435058594,389.3333435058594,389.3333435058594,389.3333435058594,389.3333435058594,389.3333435058594,389.3333435058594,389.3333435058594,389.3333435058594,389.3333435058594,389.3333435058594,389.3333435058594,389.3333435058594,389.3333435058594,389.3333435058594,389.3333435058594,389.3333435058594,389.3333435058594,389.3333435058594,389.3333435058594,389.3333435058594,389.3333435058594,389.3333435058594,389.3333435058594,389.3333435058594,389.3333435058594,389.3333435058594,389.3333435058594,389.3333435058594,389.3333435058594,389.3333435058594,389.3333435058594,389.3333435058594,389.3333435058594,389.3333435058594,389.3333435058594,389.3333435058594,389.3333435058594,389.3333435058594,389.3333435058594,389.3333435058594,389.3333435058594,389.3333435058594,389.3333435058594,389.3333435058594,389.3333435058594,389.3333435058594,389.3333435058594,389.3333435058594,389.3333435058594,389.3333435058594,389.3333435058594,389.3333435058594,389.3333435058594,389.3333435058594,389.3333435058594,389.3333435058594,389.3333435058594,389.3333435058594,389.3333435058594,389.3333435058594,389.3333435058594,389.3333435058594,389.3333435058594,389.3333435058594,389.3333435058594,389.3333435058594,389.3333435058594,389.3333435058594,389.3333435058594,389.3333435058594,389.3333435058594,389.3333435058594,389.3333435058594,389.3333435058594,389.3333435058594,389.3333435058594,389.3333435058594,389.3333435058594,389.3333435058594,389.3333435058594,389.3333435058594,389.3333435058594,389.3333435058594,389.3333435058594,389.3333435058594,389.3333435058594,389.3333435058594,389.3333435058594,389.3333435058594,389.3333435058594,389.3333435058594,389.3333435058594,389.3333435058594,389.3333435058594,389.3333435058594,389.3333435058594,389.3333435058594,389.3333435058594,389.3333435058594,389.3333435058594,389.3333435058594,389.3333435058594,389.3333435058594,389.3333435058594,389.3333435058594,389.3333435058594,389.3333435058594,389.3333435058594,389.3333435058594,389.3333435058594,389.3333435058594,389.3333435058594,389.3333435058594,389.3333435058594,389.3333435058594,389.3333435058594,389.3333435058594,389.3333435058594,389.3333435058594,389.3333435058594,389.3333435058594,389.3333435058594,389.3333435058594,389.3333435058594,389.3333435058594,389.3333435058594,389.3333435058594,389.3333435058594,389.3333435058594,389.3333435058594,389.3333435058594,389.3333435058594,389.3333435058594,389.3333435058594,389.3333435058594,389.3333435058594,389.3333435058594,389.3333435058594,389.3333435058594,389.3333435058594,389.3333435058594,389.3333435058594,389.3333435058594,389.3333435058594,389.3333435058594,389.3333435058594,389.3333435058594,389.3333435058594,389.3333435058594,389.3333435058594,389.3333435058594,389.3333435058594,389.3333435058594,389.3333435058594,389.3333435058594,389.3333435058594,389.3333435058594,389.3333435058594,389.3333435058594,389.3333435058594,389.3333435058594,389.3333435058594,389.3333435058594,389.3333435058594,389.3333435058594,389.3333435058594,389.3333435058594,389.3333435058594,389.3333435058594,389.3333435058594,389.3333435058594,389.3333435058594,389.3333435058594,389.3333435058594,389.3333435058594,389.3333435058594,389.3333435058594,389.3333435058594,389.3333435058594,389.3333435058594,389.3333435058594,389.3333435058594,389.3333435058594,389.3333435058594,389.3333435058594,389.3333435058594,389.3333435058594,389.3333435058594,389.3333435058594,389.3333435058594,389.3333435058594,389.3333435058594,389.3333435058594,389.3333435058594,389.3333435058594,389.3333435058594,389.3333435058594,389.3333435058594,389.3333435058594,389.3333435058594,389.3333435058594,389.3333435058594,389.3333435058594,389.3333435058594,389.3333435058594,389.3333435058594,389.3333435058594,389.3333435058594,389.3333435058594,389.3333435058594,389.3333435058594,389.3333435058594,389.3333435058594,389.3333435058594,389.3333435058594,389.3333435058594,389.3333435058594,389.3333435058594,389.3333435058594,389.3333435058594,389.3333435058594,389.3333435058594,389.3333435058594,389.3333435058594,389.3333435058594,389.3333435058594,389.3333435058594,389.3333435058594,389.3333435058594,389.3333435058594,389.3333435058594,389.3333435058594,389.3333435058594,389.3333435058594,389.3333435058594,389.3333435058594,389.3333435058594,389.3333435058594,389.3333435058594,389.3333435058594,389.3333435058594,389.3333435058594,389.3333435058594,389.3333435058594,389.3333435058594,389.3333435058594,389.3333435058594,389.3333435058594,389.3333435058594,389.3333435058594,389.3333435058594,389.3333435058594,389.3333435058594,389.3333435058594,389.3333435058594,389.3333435058594,389.3333435058594,389.3333435058594,389.3333435058594,389.3333435058594,389.3333435058594,389.3333435058594,389.3333435058594,389.3333435058594,389.3333435058594,389.3333435058594,389.3333435058594,389.3333435058594,389.3333435058594,389.3333435058594,389.3333435058594,389.3333435058594,389.3333435058594,389.3333435058594,389.3333435058594,389.3333435058594,389.3333435058594,389.3333435058594,389.3333435058594,389.3333435058594,389.3333435058594,389.3333435058594,389.3333435058594,389.3333435058594,389.3333435058594,389.3333435058594,389.3333435058594,389.3333435058594,389.3333435058594,389.3333435058594,389.3333435058594,389.3333435058594,389.3333435058594,389.3333435058594,389.3333435058594,389.3333435058594,389.3333435058594,389.3333435058594,389.3333435058594,389.3333435058594,389.3333435058594,389.3333435058594,389.3333435058594,389.3333435058594,389.3333435058594,389.3333435058594,389.3333435058594,389.3333435058594,389.3333435058594,389.3333435058594,389.3333435058594,389.3333435058594,389.3333435058594,389.3333435058594,389.3333435058594,389.3333435058594,389.3333435058594,389.3333435058594,389.3333435058594,389.3333435058594,389.3333435058594,389.3333435058594,389.3333435058594,389.3333435058594,389.3333435058594,389.3333435058594,389.3333435058594,389.3333435058594,389.3333435058594,389.3333435058594,389.3333435058594,389.3333435058594,389.3333435058594,389.3333435058594,389.3333435058594,389.3333435058594,389.3333435058594,389.3333435058594,389.3333435058594,389.3333435058594,389.3333435058594,389.3333435058594,389.3333435058594,389.3333435058594,389.3333435058594,389.3333435058594,389.3333435058594,389.3333435058594,389.3333435058594,389.3333435058594,389.3333435058594,389.3333435058594,389.3333435058594,389.3333435058594,389.3333435058594,389.3333435058594,389.3333435058594,389.3333435058594,389.3333435058594,389.3333435058594,389.3333435058594,389.3333435058594,389.3333435058594,389.3333435058594,389.3333435058594,389.3333435058594,389.3333435058594,389.3333435058594,389.3333435058594,389.3333435058594,389.3333435058594,389.3333435058594,389.3333435058594,389.3333435058594,389.3333435058594,389.3333435058594,389.3333435058594,389.3333435058594,389.3333435058594,389.3333435058594,389.3333435058594,389.3333435058594,389.3333435058594,389.3333435058594,389.3333435058594,389.3333435058594,389.3333435058594,389.3333435058594,389.3333435058594,389.3333435058594,389.3333435058594,389.3333435058594,389.3333435058594,389.3333435058594,389.3333435058594,389.3333435058594,389.3333435058594,389.3333435058594,389.3333435058594,389.3333435058594,389.3333435058594,389.3333435058594,389.3333435058594,389.3333435058594,389.3333435058594,389.3333435058594,389.3333435058594,389.3333435058594,389.3333435058594,389.3333435058594,389.3333435058594,389.3333435058594,389.3333435058594,389.3333435058594,389.3333435058594,389.3333435058594,389.3333435058594,389.3333435058594,389.3333435058594,389.3333435058594,389.3333435058594,389.3333435058594,389.3333435058594,389.3333435058594,389.3333435058594,389.3333435058594,389.3333435058594,389.3333435058594,389.3333435058594,389.3333435058594,389.3333435058594,389.3333435058594,389.3333435058594,389.3333435058594,389.3333435058594,389.3333435058594,389.3333435058594,389.3333435058594,389.3333435058594,389.3333435058594,389.3333435058594,389.3333435058594,389.3333435058594,389.3333435058594,389.3333435058594,389.3333435058594,389.3333435058594,389.3333435058594,389.3333435058594,389.3333435058594,389.3333435058594,389.3333435058594,389.3333435058594,389.3333435058594,389.3333435058594,389.3333435058594,389.3333435058594,389.3333435058594,389.3333435058594,389.3333435058594,389.3333435058594,389.3333435058594,389.3333435058594,389.3333435058594,389.3333435058594,389.3333435058594,389.3333435058594,389.3333435058594,389.3333435058594,389.3333435058594,389.3333435058594,389.3333435058594,389.3333435058594,389.3333435058594,389.3333435058594,389.3333435058594,389.3333435058594,389.3333435058594,389.3333435058594,389.3333435058594,389.3333435058594,389.3333435058594,389.3333435058594,389.3333435058594,389.3333435058594,389.3333435058594,389.3333435058594,389.3333435058594,389.3333435058594,389.3333435058594,389.3333435058594,389.3333435058594,389.3333435058594,389.3333435058594,389.3333435058594,389.3333435058594,389.3333435058594,389.3333435058594,389.3333435058594,389.3333435058594,389.3333435058594,389.3333435058594,389.3333435058594,389.3333435058594,389.3333435058594,389.3333435058594,389.3333435058594,389.3333435058594,389.3333435058594,389.3333435058594,389.3333435058594,389.3333435058594,389.3333435058594,389.3333435058594,389.3333435058594,389.3333435058594,389.3333435058594,389.3333435058594,389.3333435058594,389.3333435058594,389.3333435058594,389.3333435058594,389.3333435058594,389.3333435058594,389.3333435058594,389.3333435058594,389.3333435058594,389.3333435058594,389.3333435058594,389.3333435058594,389.3333435058594,389.3333435058594,389.3333435058594,389.3333435058594,389.3333435058594,389.3333435058594,389.3333435058594,389.3333435058594,389.3333435058594,389.3333435058594,389.3333435058594,389.3333435058594,389.3333435058594,389.3333435058594,389.3333435058594,389.3333435058594,389.3333435058594,389.3333435058594,389.3333435058594,389.3333435058594,389.3333435058594,389.3333435058594,389.3333435058594,389.3333435058594,389.3333435058594,389.3333435058594,389.3333435058594,389.3333435058594,389.3333435058594,389.3333435058594,389.3333435058594,389.3333435058594,389.3333435058594,389.3333435058594,389.3333435058594,389.3333435058594,389.3333435058594,389.3333435058594,389.3333435058594,389.3333435058594,389.3333435058594,389.3333435058594,389.3333435058594,389.3333435058594,389.3333435058594,389.3333435058594,389.3333435058594,389.3333435058594,389.3333435058594,389.3333435058594,389.3333435058594,389.3333435058594,389.3333435058594,389.3333435058594,389.3333435058594,389.3333435058594,389.3333435058594,389.3333435058594,389.3333435058594,389.3333435058594,389.3333435058594,389.3333435058594,389.3333435058594,389.3333435058594,389.3333435058594,389.3333435058594,389.3333435058594,389.3333435058594,389.3333435058594,389.3333435058594,389.3333435058594,389.3333435058594,389.3333435058594,389.3333435058594,389.3333435058594,389.3333435058594,389.3333435058594,389.3333435058594,389.3333435058594,389.3333435058594,389.3333435058594,389.3333435058594,389.3333435058594,389.3333435058594,389.3333435058594,389.3333435058594,389.3333435058594,389.3333435058594,389.3333435058594,389.3333435058594,389.3333435058594,389.3333435058594,389.3333435058594,389.3333435058594,389.3333435058594,389.3333435058594,389.3333435058594,389.3333435058594,389.3333435058594,389.3333435058594,389.3333435058594,389.3333435058594,389.3333435058594,389.3333435058594,389.3333435058594,389.3333435058594,389.3333435058594,389.3333435058594,389.3333435058594,389.3333435058594,389.3333435058594,389.3333435058594,389.3333435058594,389.3333435058594,389.3333435058594,389.3333435058594,389.3333435058594,389.3333435058594,389.3333435058594,389.3333435058594,389.3333435058594,389.3333435058594,389.3333435058594,389.3333435058594,389.3333435058594,389.3333435058594,389.3333435058594,389.3333435058594,389.3333435058594,389.3333435058594,389.3333435058594,389.3333435058594,389.3333435058594,389.3333435058594,389.3333435058594,389.3333435058594,389.3333435058594,389.3333435058594,389.3333435058594,389.3333435058594,389.3333435058594,389.3333435058594,389.3333435058594,389.3333435058594,389.3333435058594,389.3333435058594,389.3333435058594,389.3333435058594,389.3333435058594,389.3333435058594,389.3333435058594,389.3333435058594,389.3333435058594,389.3333435058594,389.3333435058594,389.3333435058594,389.3333435058594,389.3333435058594,389.3333435058594,389.3333435058594,389.3333435058594,389.3333435058594,389.3333435058594,389.3333435058594,389.3333435058594,389.3333435058594,389.3333435058594,389.3333435058594,389.3333435058594,389.3333435058594,389.3333435058594,389.3333435058594,389.3333435058594,389.3333435058594,389.3333435058594,389.3333435058594,389.3333435058594,389.3333435058594,389.3333435058594,389.3333435058594,389.3333435058594,389.3333435058594,389.3333435058594,389.3333435058594,389.3333435058594,389.3333435058594,389.3333435058594,389.3333435058594,389.3333435058594,389.3333435058594,389.3333435058594,389.3333435058594,389.3333435058594,389.3333435058594,389.3333435058594,389.3333435058594,389.3333435058594,389.3333435058594,389.3333435058594,389.3333435058594,389.3333435058594,389.3333435058594,389.3333435058594,389.3333435058594,389.3333435058594,389.3333435058594,389.3333435058594,389.3333435058594,389.3333435058594,389.3333435058594,389.3333435058594,389.3333435058594,389.3333435058594,389.3333435058594,389.3333435058594,389.3333435058594,389.3333435058594,389.3333435058594,389.3333435058594,389.3333435058594,389.3333435058594,389.3333435058594,389.3333435058594,389.3333435058594,389.3333435058594,389.3333435058594,389.3333435058594,389.3333435058594,389.3333435058594,389.3333435058594,389.3333435058594,389.3333435058594,389.3333435058594,389.3333435058594,389.3333435058594,389.3333435058594,389.3333435058594,389.3333435058594,389.3333435058594,389.3333435058594,389.3333435058594,389.3333435058594,389.3333435058594,389.3333435058594,389.3333435058594,389.3333435058594,389.3333435058594,389.3333435058594,389.3333435058594,389.3333435058594,389.3333435058594,389.3333435058594,389.3333435058594,389.3333435058594,389.3333435058594,389.3333435058594,389.3333435058594,389.3333435058594,389.3333435058594,389.3333435058594,389.3333435058594,389.3333435058594,389.3333435058594,389.3333435058594,389.3333435058594,389.3333435058594,389.3333435058594,389.3333435058594,389.3333435058594,389.3333435058594,389.3333435058594,389.3333435058594,389.3333435058594,389.3333435058594,389.3333435058594,389.3333435058594,389.3333435058594,389.3333435058594,389.3333435058594,389.3333435058594,389.3333435058594,389.3333435058594,389.3333435058594,389.3333435058594,389.3333435058594,389.3333435058594,389.3333435058594,389.3333435058594,389.3333435058594,389.3333435058594,389.3333435058594,389.3333435058594,389.3333435058594,389.3333435058594,389.3333435058594,389.3333435058594,389.3333435058594,389.3333435058594,389.3333435058594,389.3333435058594,389.3333435058594,389.3333435058594,389.3333435058594,389.3333435058594,389.3333435058594,389.3333435058594,389.3333435058594,389.3333435058594,389.3333435058594,389.3333435058594,389.3333435058594,389.3333435058594,389.3333435058594,389.3333435058594,389.3333435058594,389.3333435058594,389.3333435058594,389.3333435058594,389.3333435058594,389.3333435058594,389.3333435058594,389.3333435058594,389.3333435058594,389.3333435058594,389.3333435058594,389.3333435058594,389.3333435058594,389.3333435058594,389.3333435058594,389.3333435058594,389.3333435058594,389.3333435058594,389.3333435058594,389.3333435058594,389.3333435058594,389.3333435058594,389.3333435058594,389.3333435058594,389.3333435058594,389.3333435058594,389.3333435058594,389.3333435058594,389.3333435058594,389.3333435058594,389.3333435058594,389.3333435058594,389.3333435058594,389.3333435058594,389.3333435058594,389.3333435058594,389.3333435058594,389.3333435058594,389.3333435058594,389.3333435058594,389.3333435058594,389.3333435058594,389.3333435058594,389.3333435058594,389.3333435058594,389.3333435058594,389.3333435058594,389.3333435058594,389.3333435058594,389.3333435058594,389.3333435058594,389.3333435058594,389.3333435058594,389.3333435058594,389.3333435058594,389.3333435058594,389.3333435058594,389.3333435058594,389.3333435058594,389.3333435058594,389.3333435058594,389.3333435058594,389.3333435058594,389.3333435058594,389.3333435058594,389.3333435058594,389.3333435058594,389.3333435058594,389.3333435058594,389.3333435058594,389.3333435058594,389.3333435058594,389.3333435058594,389.3333435058594,389.3333435058594,389.3333435058594,389.3333435058594,389.3333435058594,389.3333435058594,389.3333435058594,389.3333435058594,389.3333435058594,389.3333435058594,389.3333435058594,389.3333435058594,389.3333435058594,389.3333435058594,389.3333435058594,389.3333435058594,389.3333435058594,389.3333435058594,389.3333435058594,389.3333435058594,389.3333435058594,389.3333435058594,389.3333435058594,389.3333435058594,389.3333435058594,389.3333435058594,389.3333435058594,389.3333435058594,389.3333435058594,389.3333435058594,389.3333435058594,389.3333435058594,389.3333435058594,389.3333435058594,389.3333435058594,389.3333435058594,389.3333435058594,389.3333435058594,389.3333435058594,389.3333435058594,389.3333435058594,389.3333435058594,389.3333435058594,389.3333435058594,389.3333435058594,389.3333435058594,389.3333435058594,389.3333435058594,389.3333435058594,389.3333435058594,389.3333435058594,389.3333435058594,389.3333435058594,389.3333435058594,389.3333435058594,389.3333435058594,389.3333435058594,389.3333435058594,389.3333435058594,389.3333435058594,389.3333435058594,389.3333435058594,389.3333435058594,389.3333435058594,389.3333435058594,389.3333435058594,389.3333435058594,389.3333435058594,389.3333435058594,389.3333435058594,389.3333435058594,389.3333435058594,389.3333435058594,389.3333435058594,389.3333435058594,389.3333435058594,389.3333435058594,389.3333435058594,389.3333435058594,389.3333435058594,389.3333435058594,389.3333435058594,389.3333435058594,389.3333435058594,389.3333435058594,389.3333435058594,389.3333435058594,389.3333435058594,389.3333435058594,389.3333435058594,389.3333435058594,389.3333435058594,389.3333435058594,389.3333435058594,389.3333435058594,389.3333435058594,389.3333435058594,389.3333435058594,389.3333435058594,389.3333435058594,389.3333435058594,389.3333435058594,389.3333435058594,389.3333435058594,389.3333435058594,389.3333435058594,389.3333435058594,389.3333435058594,389.3333435058594,389.3333435058594,389.3333435058594,389.3333435058594,389.3333435058594,389.3333435058594,389.3333435058594,389.3333435058594,389.3333435058594,389.3333435058594,389.3333435058594,389.3333435058594,389.3333435058594,389.3333435058594,389.3333435058594,389.3333435058594,389.3333435058594,389.3333435058594,389.3333435058594,389.3333435058594,389.3333435058594,389.3333435058594,389.3333435058594,389.3333435058594,389.3333435058594,389.3333435058594,389.3333435058594,389.3333435058594,389.3333435058594,389.3333435058594,389.3333435058594,389.3333435058594,389.3333435058594,389.3333435058594,389.3333435058594,389.3333435058594,389.3333435058594,389.3333435058594,389.3333435058594,389.3333435058594,389.3333435058594,389.3333435058594,389.3333435058594,389.3333435058594,389.3333435058594,389.3333435058594,389.3333435058594,389.3333435058594,389.3333435058594,389.3333435058594,389.3333435058594,389.3333435058594,389.3333435058594,389.3333435058594,389.3333435058594,389.3333435058594,389.3333435058594,389.3333435058594,389.3333435058594,389.3333435058594,389.3333435058594,389.3333435058594,389.3333435058594,389.3333435058594,389.3333435058594,389.3333435058594,389.3333435058594,389.3333435058594,389.3333435058594,389.3333435058594,389.3333435058594,389.3333435058594,389.3333435058594,389.3333435058594,389.3333435058594,389.3333435058594,389.3333435058594,389.3333435058594,389.3333435058594,389.3333435058594,389.3333435058594,389.3333435058594,389.3333435058594,389.3333435058594,389.3333435058594,389.3333435058594,389.3333435058594,389.3333435058594,389.3333435058594,389.3333435058594,389.3333435058594,389.3333435058594,389.3333435058594,389.3333435058594,389.3333435058594,389.3333435058594,389.3333435058594,389.3333435058594,389.3333435058594,389.3333435058594,389.3333435058594,389.3333435058594,389.3333435058594,389.3333435058594,389.3333435058594,389.3333435058594,389.3333435058594,389.3333435058594,389.3333435058594,389.3333435058594,389.3333435058594,389.3333435058594,389.3333435058594,389.3333435058594,389.3333435058594,389.3333435058594,389.3333435058594,389.3333435058594,389.3333435058594,389.3333435058594,389.3333435058594,389.3333435058594,389.3333435058594,389.3333435058594,389.3333435058594,389.3333435058594,389.3333435058594,389.3333435058594,389.3333435058594,389.3333435058594,389.3333435058594,389.3333435058594,389.3333435058594,389.3333435058594,389.3333435058594,389.3333435058594,389.3333435058594,389.3333435058594,389.3333435058594,389.3333435058594,389.3333435058594,389.3333435058594,389.3333435058594,389.3333435058594,389.3333435058594,389.3333435058594,389.3333435058594,389.3333435058594,389.3333435058594,389.3333435058594,389.3333435058594,389.3333435058594,389.3333435058594,389.3333435058594,389.3333435058594,389.3333435058594,389.3333435058594,389.3333435058594,389.3333435058594,389.3333435058594,389.3333435058594,389.3333435058594,389.3333435058594,389.3333435058594,389.3333435058594,389.3333435058594,389.3333435058594,389.3333435058594,389.3333435058594,389.3333435058594,389.3333435058594,389.3333435058594,389.3333435058594,389.3333435058594,389.3333435058594,389.3333435058594,389.3333435058594,389.3333435058594,389.3333435058594,389.3333435058594,389.3333435058594,389.3333435058594,389.3333435058594,389.3333435058594,389.3333435058594,389.3333435058594,389.3333435058594,389.3333435058594,389.3333435058594,389.3333435058594,389.3333435058594,389.3333435058594,389.3333435058594,389.3333435058594,389.3333435058594,389.3333435058594,389.3333435058594,389.3333435058594,389.3333435058594,389.3333435058594,389.3333435058594,389.3333435058594,389.3333435058594,389.3333435058594,389.3333435058594,389.3333435058594,389.3333435058594,389.3333435058594,389.3333435058594,389.3333435058594,389.3333435058594,389.3333435058594,389.3333435058594,389.3333435058594,389.3333435058594,389.3333435058594,389.3333435058594,389.3333435058594,389.3333435058594,389.3333435058594,389.3333435058594,389.3333435058594,389.3333435058594,389.3333435058594,389.3333435058594,389.3333435058594,389.3333435058594,389.3333435058594,389.3333435058594,389.3333435058594,389.3333435058594,389.3333435058594,389.3333435058594,389.3333435058594,389.3333435058594,389.3333435058594,389.3333435058594,389.3333435058594,389.3333435058594,389.3333435058594,389.3333435058594,389.3333435058594,389.3333435058594,389.3333435058594,389.3333435058594,389.3333435058594,389.3333435058594,389.3333435058594,389.3333435058594,389.3333435058594,389.3333435058594,389.3333435058594,389.3333435058594,389.3333435058594,389.3333435058594,389.3333435058594,389.3333435058594,389.3333435058594,389.3333435058594,389.3333435058594,389.3333435058594,389.3333435058594,389.3333435058594,389.3333435058594,389.3333435058594,389.3333435058594,389.3333435058594,389.3333435058594,389.3333435058594,389.3333435058594,389.3333435058594,389.3333435058594,389.3333435058594,389.3333435058594,389.3333435058594,389.3333435058594,389.3333435058594,389.3333435058594,389.3333435058594,389.3333435058594,389.3333435058594,389.3333435058594,389.3333435058594,389.3333435058594,389.3333435058594,389.3333435058594,389.3333435058594,389.3333435058594,389.3333435058594,389.3333435058594,389.3333435058594,389.3333435058594,389.3333435058594,389.3333435058594,389.3333435058594,389.3333435058594,389.3333435058594,389.3333435058594,389.3333435058594,389.3333435058594,389.3333435058594,389.3333435058594,389.3333435058594,389.3333435058594,389.3333435058594,389.3333435058594,389.3333435058594,389.3333435058594,389.3333435058594,389.3333435058594,389.3333435058594,389.3333435058594,389.3333435058594,389.3333435058594,389.3333435058594,389.3333435058594,389.3333435058594,389.3333435058594,389.3333435058594,389.3333435058594,389.3333435058594,389.3333435058594,389.3333435058594,389.3333435058594,389.3333435058594,389.3333435058594,389.3333435058594,389.3333435058594,389.3333435058594,389.3333435058594,389.3333435058594,389.3333435058594,389.3333435058594,389.3333435058594,389.3333435058594,389.3333435058594,389.3333435058594,389.3333435058594,389.3333435058594,389.3333435058594,389.3333435058594,389.3333435058594,389.3333435058594,389.3333435058594,389.3333435058594,389.3333435058594,389.3333435058594,389.3333435058594,389.3333435058594,389.3333435058594,389.3333435058594,389.3333435058594,389.3333435058594,389.3333435058594,389.3333435058594,389.3333435058594,389.3333435058594,389.3333435058594,389.3333435058594,389.3333435058594,389.3333435058594,389.3333435058594,389.3333435058594,389.3333435058594,389.3333435058594,389.3333435058594,389.3333435058594,389.3333435058594,389.3333435058594,389.3333435058594,389.3333435058594,389.3333435058594,389.3333435058594,389.3333435058594,389.3333435058594,389.3333435058594,389.3333435058594,389.3333435058594,389.3333435058594,389.3333435058594,389.3333435058594,389.3333435058594,389.3333435058594,389.3333435058594,389.3333435058594,389.3333435058594,389.3333435058594,389.3333435058594,389.3333435058594,389.3333435058594,389.3333435058594,389.3333435058594,389.3333435058594,389.3333435058594,389.3333435058594,389.3333435058594,389.3333435058594,389.3333435058594,389.3333435058594,389.3333435058594,389.3333435058594,389.3333435058594,389.3333435058594,389.3333435058594,389.3333435058594,389.3333435058594,389.3333435058594,389.3333435058594,389.3333435058594,389.3333435058594,389.3333435058594,389.3333435058594,389.3333435058594,389.3333435058594,389.3333435058594,389.3333435058594,389.3333435058594,389.3333435058594,389.3333435058594,389.3333435058594,389.3333435058594,389.3333435058594,389.3333435058594,389.3333435058594,389.3333435058594,389.3333435058594,389.3333435058594,389.3333435058594,389.3333435058594,389.3333435058594,389.3333435058594,389.3333435058594,389.3333435058594,389.3333435058594,389.3333435058594,389.3333435058594,389.3333435058594,389.3333435058594,389.3333435058594,389.3333435058594,389.3333435058594,389.3333435058594,389.3333435058594,389.3333435058594,389.3333435058594,389.3333435058594,389.3333435058594,389.3333435058594,389.3333435058594,389.3333435058594,389.3333435058594,389.3333435058594,389.3333435058594,389.3333435058594,389.3333435058594,389.3333435058594,389