[{"start_time":1549310082592,"click_time":1549310083919,"finger_time":1549310082601,"fix_duration":1128.3961159088003,"trial":0,"RT":9,"MT":1318,"sideResp":2,"stimulus":"img/500/equaldotsize/R/12_Ratio_500_L_1_R_2.png","xmouse":[398,398,398,398,398,398,398,398,398,398,398,398,398,398,398,398,398,397.3330078125,397.3330078125,397.3330078125,397.3330078125,397.3330078125,398,398,398,398,398,398,398,398,398,398,398,398,398,398,398,398,398,398,398,398,398,398,398,398,398,398,398,398,398,398,398,398,398,398,398,398,398,398,398,398,398,398,398,398,729],"ymouse":[517,517,517,517,517,517,517,517,517,517,517,517,517,517,517,517,518,517.3330078125,517.3330078125,517.3330078125,517.3330078125,517.3330078125,512,512,512,512,512,512,512,512,512,512,512,512,512,512,512,512,512,512,512,512,512,512,512,512,512,512,512,512,512,512,512,512,512,512,512,512,512,512,512,512,512,512,512,512,50],"timestamp_mouse":[9,24,45,64,84,104,124,144,164,184,204,224,244,263,285,303,324,344,363,383,404,424,443,463,484,504,524,544,563,584,604,624,643,664,684,703,724,744,764,784,804,824,844,864,884,904,923,944,964,983,1004,1024,1044,1064,1083,1104,1124,1144,1164,1183,1204,1224,1244,1264,1284,1304,1326],"xSR":350,"ySR":451.2,"xT1":30,"yT1":0,"xT2":670,"yT2":0,"toosoon":0,"cond_shown":"equaldotsize","ratio_trial":500,"smaller_num":"1","larger_num":"2","correct_side":2,"subjID":"9","gender":"No_gender","age":"No_age","school":"No_school","test":{"fix_dur":[250,1500],"timestim":400,"targets_dim":[100,100],"targets_relative_coord":[0.1,0.9],"size_stim":[880,420],"start_dim":[100,100],"size_start":[300,300],"size_fix":60,"samplingrate":20,"img_types":["equaldotsize","equaldotanddens","randomdotsize","randomdotsizeEA"],"ratios":[250,500,750,900],"rep_conds":10,"nTrials":176,"trials_to_rest":500,"Trials_order":[68,160,173,7,81,77,2,163,28,55,166,165,67,133,116,84,164,32,91,99,66,87,90,127,48,4,30,85,121,40,33,97,69,18,105,96,150,174,153,60,172,100,25,71,37,94,29,88,155,147,161,64,122,136,65,13,113,74,93,6,79,169,39,21,124,34,43,9,168,14,130,103,26,95,82,138,98,20,156,145,59,140,41,128,51,151,36,24,148,139,44,125,102,109,112,101,5,57,75,157,1,56,70,144,47,131,8,115,53,108,76,61,58,123,83,23,142,120,114,170,106,78,146,42,10,107,22,86,45,129,92,126,27,63,175,154,80,12,118,50,89,72,110,17,159,137,117,49,135,158,167,54,15,73,38,143,52,152,162,171,46,3,0,19,119,134,35,149,62,141,104,132,31,111,11,16],"cond_shown":["equaldotsize","equaldotsize","equaldotanddens","randomdotsizeEA","equaldotanddens","equaldotanddens","randomdotsize","randomdotsizeEA","equaldotsize","randomdotsizeEA","randomdotsize","equaldotanddens","randomdotsizeEA","equaldotanddens","equaldotsize","equaldotsize","equaldotsize","equaldotsize","randomdotsizeEA","randomdotsizeEA","randomdotsize","randomdotsizeEA","randomdotsize","randomdotsizeEA","equaldotsize","equaldotsize","randomdotsize","equaldotanddens","equaldotanddens","equaldotsize","equaldotanddens","equaldotanddens","equaldotanddens","randomdotsize","equaldotanddens","equaldotsize","randomdotsize","randomdotsize","equaldotanddens","equaldotsize","equaldotsize","equaldotsize","equaldotanddens","randomdotsizeEA","equaldotanddens","randomdotsize","equaldotanddens","equaldotsize","randomdotsizeEA","randomdotsizeEA","equaldotanddens","equaldotsize","randomdotsize","equaldotsize","equaldotanddens","equaldotanddens","equaldotanddens","randomdotsize","equaldotanddens","randomdotsize","randomdotsizeEA","equaldotanddens","randomdotsizeEA","equaldotanddens","equaldotsize","randomdotsize","randomdotsizeEA","equaldotanddens","equaldotsize","randomdotsize","randomdotsize","randomdotsizeEA","randomdotsize","randomdotsizeEA","randomdotsize","randomdotsize","randomdotsize","equaldotsize","equaldotsize","equaldotanddens","randomdotsizeEA","equaldotsize","equaldotanddens","equaldotsize","randomdotsizeEA","randomdotsizeEA","equaldotsize","equaldotsize","equaldotsize","randomdotsizeEA","equaldotsize","equaldotanddens","randomdotsize","equaldotanddens","equaldotsize","equaldotanddens","equaldotanddens","equaldotanddens","randomdotsizeEA","equaldotanddens","equaldotanddens","equaldotsize","randomdotsize","equaldotsize","randomdotsizeEA","randomdotsizeEA","equaldotsize","randomdotsizeEA","equaldotanddens","equaldotsize","equaldotsize","equaldotanddens","randomdotsize","randomdotsizeEA","randomdotsizeEA","randomdotsizeEA","randomdotsize","equaldotsize","randomdotsize","randomdotsize","randomdotsize","randomdotsize","randomdotsize","randomdotsize","randomdotsize","randomdotsizeEA","randomdotsize","randomdotsize","equaldotanddens","equaldotanddens","equaldotsize","randomdotsize","randomdotsizeEA","randomdotsizeEA","randomdotsizeEA","randomdotsize","equaldotsize","equaldotsize","randomdotsize","randomdotsize","equaldotanddens","equaldotsize","randomdotsize","equaldotanddens","randomdotsizeEA","equaldotanddens","equaldotanddens","equaldotanddens","randomdotsizeEA","randomdotsize","randomdotsizeEA","randomdotsize","randomdotsizeEA","equaldotanddens","randomdotsize","randomdotsizeEA","equaldotsize","equaldotsize","randomdotsize","randomdotsizeEA","randomdotsize","randomdotsizeEA","equaldotsize","randomdotsizeEA","randomdotsizeEA","randomdotsize","randomdotsizeEA","equaldotanddens","randomdotsize","equaldotanddens","equaldotsize","equaldotsize","randomdotsizeEA","randomdotsizeEA","randomdotsizeEA","equaldotsize"],"ratio_trial":[500,250,900,500,250,900,250,250,900,500,500,500,250,500,500,500,500,250,750,250,250,500,750,900,250,500,900,500,750,750,250,250,500,250,750,250,500,900,750,900,900,500,750,500,500,900,900,750,750,250,250,250,750,750,250,900,250,750,900,500,900,750,500,500,900,250,750,750,750,900,250,500,750,900,250,750,250,500,900,250,750,900,750,250,250,500,500,750,500,750,900,900,500,900,250,500,500,750,750,900,250,750,500,250,900,250,750,250,500,900,900,900,750,750,250,500,900,750,250,750,750,900,250,750,750,750,500,500,900,250,900,900,750,900,900,750,250,900,500,250,750,750,900,250,900,750,500,250,500,900,500,500,900,750,500,900,500,750,250,750,900,250,250,250,500,500,250,500,900,900,750,500,900,900,750,250],"smaller_num":["1","2","18","5","4","9","6","3","9","9","1","6","1","4","1","3","1","3","15","3","6","5","15","9","1","6","9","2","3","3","3","2","3","3","3","3","6","9","6","18","9","1","3","6","4","9","18","15","15","3","2","6","3","3","3","18","2","15","18","5","9","15","5","2","18","2","3","15","3","18","3","6","3","18","3","3","3","2","9","3","6","18","18","3","3","5","5","3","2","3","18","18","6","18","2","6","5","6","12","9","2","6","4","4","9","3","15","5","2","18","9","18","15","6","2","9","18","3","6","12","9","18","1","3","18","9","6","2","18","3","18","18","18","18","18","18","4","18","2","3","12","15","18","3","9","3","1","4","9","18","9","9","18","3","1","9","10","3","2","15","18","4","1","2","9","3","3","2","9","18","6","4","9","18","15","1"],"larger_num":["2","8","20","10","16","10","24","12","10","18","2","12","4","8","2","6","2","12","20","12","24","10","20","10","4","12","10","4","4","4","12","8","6","12","4","12","12","10","8","20","10","2","4","12","8","10","20","20","20","12","8","24","4","4","12","20","8","20","20","10","10","20","10","4","20","8","4","20","4","20","12","12","4","20","12","4","12","4","10","12","8","20","24","12","12","10","10","4","4","4","20","20","12","20","8","12","10","8","16","10","8","8","8","16","10","12","20","20","4","20","10","20","20","8","8","18","20","4","24","16","12","20","4","4","24","12","12","4","20","12","20","20","24","20","20","24","16","20","4","12","16","20","20","12","10","4","2","16","18","20","18","18","20","4","2","10","20","4","8","20","20","16","4","8","18","6","12","4","10","20","8","8","10","20","20","4"],"correct_side":[2,1,2,2,1,2,2,1,2,1,2,1,2,1,2,2,2,1,1,1,2,1,2,2,2,1,1,1,2,2,2,1,2,2,2,1,1,2,1,1,2,2,1,1,1,2,1,2,1,2,2,1,1,2,2,2,2,2,2,1,2,1,1,2,1,1,2,2,2,2,1,1,2,1,2,1,2,1,2,1,1,2,1,1,1,1,1,1,2,1,2,2,1,2,1,1,1,1,2,1,1,1,1,1,2,1,2,2,1,1,2,1,1,2,1,1,1,1,2,2,2,2,2,1,1,2,1,1,1,1,1,2,1,1,2,1,1,2,1,2,2,1,2,1,1,1,2,2,2,2,2,1,2,2,2,2,2,1,2,2,2,2,2,1,1,2,1,2,1,1,2,1,1,1,2,2],"img_shown":["img/500/equaldotsize/R/12_Ratio_500_L_1_R_2.png","img/250/equaldotsize/L/3_Ratio_250_L_8_R_2.png","img/900/equaldotanddens/R/9_Ratio_900_L_18_R_20.png","img/500/randomdotsizeEA/R/14_Ratio_500_L_5_R_10.png","img/250/equaldotanddens/L/2_Ratio_250_L_16_R_4.png","img/900/equaldotanddens/R/15_Ratio_900_L_9_R_10.png","img/250/randomdotsize/R/6_Ratio_250_L_6_R_24.png","img/250/randomdotsizeEA/L/14_Ratio_250_L_12_R_3.png","img/900/equaldotsize/R/3_Ratio_900_L_9_R_10.png","img/500/randomdotsizeEA/L/4_Ratio_500_L_18_R_9.png","img/500/randomdotsize/R/12_Ratio_500_L_1_R_2.png","img/500/equaldotanddens/L/13_Ratio_500_L_12_R_6.png","img/250/randomdotsizeEA/R/8_Ratio_250_L_1_R_4.png","img/500/equaldotanddens/L/8_Ratio_500_L_8_R_4.png","img/500/equaldotsize/R/15_Ratio_500_L_1_R_2.png","img/500/equaldotsize/R/2_Ratio_500_L_3_R_6.png","img/500/equaldotsize/R/15_Ratio_500_L_1_R_2.png","img/250/equaldotsize/L/14_Ratio_250_L_12_R_3.png","img/750/randomdotsizeEA/L/1_Ratio_750_L_20_R_15.png","img/250/randomdotsizeEA/L/15_Ratio_250_L_12_R_3.png","img/250/randomdotsize/R/6_Ratio_250_L_6_R_24.png","img/500/randomdotsizeEA/L/7_Ratio_500_L_10_R_5.png","img/750/randomdotsize/R/4_Ratio_750_L_15_R_20.png","img/900/randomdotsizeEA/R/3_Ratio_900_L_9_R_10.png","img/250/equaldotsize/R/8_Ratio_250_L_1_R_4.png","img/500/equaldotsize/L/11_Ratio_500_L_12_R_6.png","img/900/randomdotsize/L/1_Ratio_900_L_10_R_9.png","img/500/equaldotanddens/L/10_Ratio_500_L_4_R_2.png","img/750/equaldotanddens/R/7_Ratio_750_L_3_R_4.png","img/750/equaldotsize/R/12_Ratio_750_L_3_R_4.png","img/250/equaldotanddens/R/9_Ratio_250_L_3_R_12.png","img/250/equaldotanddens/L/7_Ratio_250_L_8_R_2.png","img/500/equaldotanddens/R/2_Ratio_500_L_3_R_6.png","img/250/randomdotsize/R/9_Ratio_250_L_3_R_12.png","img/750/equaldotanddens/R/12_Ratio_750_L_3_R_4.png","img/250/equaldotsize/L/14_Ratio_250_L_12_R_3.png","img/500/randomdotsize/L/11_Ratio_500_L_12_R_6.png","img/900/randomdotsize/R/5_Ratio_900_L_9_R_10.png","img/750/equaldotanddens/L/14_Ratio_750_L_8_R_6.png","img/900/equaldotsize/L/8_Ratio_900_L_20_R_18.png","img/900/equaldotsize/R/3_Ratio_900_L_9_R_10.png","img/500/equaldotsize/R/12_Ratio_500_L_1_R_2.png","img/750/equaldotanddens/L/9_Ratio_750_L_4_R_3.png","img/500/randomdotsizeEA/L/13_Ratio_500_L_12_R_6.png","img/500/equaldotanddens/L/8_Ratio_500_L_8_R_4.png","img/900/randomdotsize/R/5_Ratio_900_L_9_R_10.png","img/900/equaldotanddens/L/10_Ratio_900_L_20_R_18.png","img/750/equaldotsize/R/3_Ratio_750_L_15_R_20.png","img/750/randomdotsizeEA/L/1_Ratio_750_L_20_R_15.png","img/250/randomdotsizeEA/R/4_Ratio_250_L_3_R_12.png","img/250/equaldotanddens/R/13_Ratio_250_L_2_R_8.png","img/250/equaldotsize/L/5_Ratio_250_L_24_R_6.png","img/750/randomdotsize/L/10_Ratio_750_L_4_R_3.png","img/750/equaldotsize/R/12_Ratio_750_L_3_R_4.png","img/250/equaldotanddens/R/4_Ratio_250_L_3_R_12.png","img/900/equaldotanddens/R/11_Ratio_900_L_18_R_20.png","img/250/equaldotanddens/R/13_Ratio_250_L_2_R_8.png","img/750/randomdotsize/R/4_Ratio_750_L_15_R_20.png","img/900/equaldotanddens/R/9_Ratio_900_L_18_R_20.png","img/500/randomdotsize/L/7_Ratio_500_L_10_R_5.png","img/900/randomdotsizeEA/R/7_Ratio_900_L_9_R_10.png","img/750/equaldotanddens/L/1_Ratio_750_L_20_R_15.png","img/500/randomdotsizeEA/L/7_Ratio_500_L_10_R_5.png","img/500/equaldotanddens/R/9_Ratio_500_L_2_R_4.png","img/900/equaldotsize/L/10_Ratio_900_L_20_R_18.png","img/250/randomdotsize/L/1_Ratio_250_L_8_R_2.png","img/750/randomdotsizeEA/R/12_Ratio_750_L_3_R_4.png","img/750/equaldotanddens/R/4_Ratio_750_L_15_R_20.png","img/750/equaldotsize/R/7_Ratio_750_L_3_R_4.png","img/900/randomdotsize/R/11_Ratio_900_L_18_R_20.png","img/250/randomdotsize/L/14_Ratio_250_L_12_R_3.png","img/500/randomdotsizeEA/L/11_Ratio_500_L_12_R_6.png","img/750/randomdotsize/R/12_Ratio_750_L_3_R_4.png","img/900/randomdotsizeEA/L/2_Ratio_900_L_20_R_18.png","img/250/randomdotsize/R/9_Ratio_250_L_3_R_12.png","img/750/randomdotsize/L/10_Ratio_750_L_4_R_3.png","img/250/randomdotsize/R/11_Ratio_250_L_3_R_12.png","img/500/equaldotsize/L/5_Ratio_500_L_4_R_2.png","img/900/equaldotsize/R/7_Ratio_900_L_9_R_10.png","img/250/equaldotanddens/L/14_Ratio_250_L_12_R_3.png","img/750/randomdotsizeEA/L/14_Ratio_750_L_8_R_6.png","img/900/equaldotsize/R/12_Ratio_900_L_18_R_20.png","img/750/equaldotanddens/L/6_Ratio_750_L_24_R_18.png","img/250/equaldotsize/L/14_Ratio_250_L_12_R_3.png","img/250/randomdotsizeEA/L/14_Ratio_250_L_12_R_3.png","img/500/randomdotsizeEA/L/7_Ratio_500_L_10_R_5.png","img/500/equaldotsize/L/7_Ratio_500_L_10_R_5.png","img/750/equaldotsize/L/8_Ratio_750_L_4_R_3.png","img/500/equaldotsize/R/9_Ratio_500_L_2_R_4.png","img/750/randomdotsizeEA/L/8_Ratio_750_L_4_R_3.png","img/900/equaldotsize/R/9_Ratio_900_L_18_R_20.png","img/900/equaldotanddens/R/11_Ratio_900_L_18_R_20.png","img/500/randomdotsize/L/11_Ratio_500_L_12_R_6.png","img/900/equaldotanddens/R/14_Ratio_900_L_18_R_20.png","img/250/equaldotsize/L/3_Ratio_250_L_8_R_2.png","img/500/equaldotanddens/L/11_Ratio_500_L_12_R_6.png","img/500/equaldotanddens/L/7_Ratio_500_L_10_R_5.png","img/750/equaldotanddens/L/14_Ratio_750_L_8_R_6.png","img/750/randomdotsizeEA/R/11_Ratio_750_L_12_R_16.png","img/900/equaldotanddens/L/1_Ratio_900_L_10_R_9.png","img/250/equaldotanddens/L/1_Ratio_250_L_8_R_2.png","img/750/equaldotsize/L/13_Ratio_750_L_8_R_6.png","img/500/randomdotsize/L/8_Ratio_500_L_8_R_4.png","img/250/equaldotsize/L/2_Ratio_250_L_16_R_4.png","img/900/randomdotsizeEA/R/7_Ratio_900_L_9_R_10.png","img/250/randomdotsizeEA/L/15_Ratio_250_L_12_R_3.png","img/750/equaldotsize/R/3_Ratio_750_L_15_R_20.png","img/250/randomdotsizeEA/R/12_Ratio_250_L_5_R_20.png","img/500/equaldotanddens/L/10_Ratio_500_L_4_R_2.png","img/900/equaldotsize/L/8_Ratio_900_L_20_R_18.png","img/900/equaldotsize/R/3_Ratio_900_L_9_R_10.png","img/900/equaldotanddens/L/2_Ratio_900_L_20_R_18.png","img/750/randomdotsize/L/1_Ratio_750_L_20_R_15.png","img/750/randomdotsizeEA/R/2_Ratio_750_L_6_R_8.png","img/250/randomdotsizeEA/L/7_Ratio_250_L_8_R_2.png","img/500/randomdotsizeEA/L/4_Ratio_500_L_18_R_9.png","img/900/randomdotsize/L/10_Ratio_900_L_20_R_18.png","img/750/equaldotsize/L/10_Ratio_750_L_4_R_3.png","img/250/randomdotsize/R/6_Ratio_250_L_6_R_24.png","img/750/randomdotsize/R/11_Ratio_750_L_12_R_16.png","img/750/randomdotsize/R/15_Ratio_750_L_9_R_12.png","img/900/randomdotsize/R/9_Ratio_900_L_18_R_20.png","img/250/randomdotsize/R/8_Ratio_250_L_1_R_4.png","img/750/randomdotsize/L/8_Ratio_750_L_4_R_3.png","img/750/randomdotsize/L/6_Ratio_750_L_24_R_18.png","img/750/randomdotsizeEA/R/15_Ratio_750_L_9_R_12.png","img/500/randomdotsize/L/13_Ratio_500_L_12_R_6.png","img/500/randomdotsize/L/10_Ratio_500_L_4_R_2.png","img/900/equaldotanddens/L/10_Ratio_900_L_20_R_18.png","img/250/equaldotanddens/L/15_Ratio_250_L_12_R_3.png","img/900/equaldotsize/L/4_Ratio_900_L_20_R_18.png","img/900/randomdotsize/R/13_Ratio_900_L_18_R_20.png","img/750/randomdotsizeEA/L/6_Ratio_750_L_24_R_18.png","img/900/randomdotsizeEA/L/8_Ratio_900_L_20_R_18.png","img/900/randomdotsizeEA/R/12_Ratio_900_L_18_R_20.png","img/750/randomdotsize/L/6_Ratio_750_L_24_R_18.png","img/250/equaldotsize/L/2_Ratio_250_L_16_R_4.png","img/900/equaldotsize/R/14_Ratio_900_L_18_R_20.png","img/500/randomdotsize/L/10_Ratio_500_L_4_R_2.png","img/250/randomdotsize/R/11_Ratio_250_L_3_R_12.png","img/750/equaldotanddens/R/11_Ratio_750_L_12_R_16.png","img/750/equaldotsize/L/1_Ratio_750_L_20_R_15.png","img/900/randomdotsize/R/13_Ratio_900_L_18_R_20.png","img/250/equaldotanddens/L/15_Ratio_250_L_12_R_3.png","img/900/randomdotsizeEA/L/1_Ratio_900_L_10_R_9.png","img/750/equaldotanddens/L/9_Ratio_750_L_4_R_3.png","img/500/equaldotanddens/R/15_Ratio_500_L_1_R_2.png","img/250/equaldotanddens/R/10_Ratio_250_L_4_R_16.png","img/500/randomdotsizeEA/R/1_Ratio_500_L_9_R_18.png","img/900/randomdotsize/R/11_Ratio_900_L_18_R_20.png","img/500/randomdotsizeEA/R/6_Ratio_500_L_9_R_18.png","img/500/randomdotsize/L/4_Ratio_500_L_18_R_9.png","img/900/randomdotsizeEA/R/14_Ratio_900_L_18_R_20.png","img/750/equaldotanddens/R/7_Ratio_750_L_3_R_4.png","img/500/randomdotsize/R/12_Ratio_500_L_1_R_2.png","img/900/randomdotsizeEA/R/3_Ratio_900_L_9_R_10.png","img/500/equaldotsize/R/3_Ratio_500_L_10_R_20.png","img/750/equaldotsize/L/10_Ratio_750_L_4_R_3.png","img/250/randomdotsize/R/13_Ratio_250_L_2_R_8.png","img/750/randomdotsizeEA/R/3_Ratio_750_L_15_R_20.png","img/900/randomdotsize/R/12_Ratio_900_L_18_R_20.png","img/250/randomdotsizeEA/R/10_Ratio_250_L_4_R_16.png","img/250/equaldotsize/R/8_Ratio_250_L_1_R_4.png","img/250/randomdotsizeEA/L/3_Ratio_250_L_8_R_2.png","img/500/randomdotsizeEA/L/4_Ratio_500_L_18_R_9.png","img/500/randomdotsize/R/2_Ratio_500_L_3_R_6.png","img/250/randomdotsizeEA/L/14_Ratio_250_L_12_R_3.png","img/500/equaldotanddens/R/9_Ratio_500_L_2_R_4.png","img/900/randomdotsize/L/1_Ratio_900_L_10_R_9.png","img/900/equaldotanddens/L/2_Ratio_900_L_20_R_18.png","img/750/equaldotsize/R/2_Ratio_750_L_6_R_8.png","img/500/equaldotsize/L/8_Ratio_500_L_8_R_4.png","img/900/randomdotsizeEA/L/1_Ratio_900_L_10_R_9.png","img/900/randomdotsizeEA/L/4_Ratio_900_L_20_R_18.png","img/750/randomdotsizeEA/R/5_Ratio_750_L_15_R_20.png","img/250/equaldotsize/R/8_Ratio_250_L_1_R_4.png"],"Rat0":[["12_Ratio_0_L_9_R_0.png","13_Ratio_0_L_6_R_0.png","5_Ratio_0_L_2_R_0.png","6_Ratio_0_L_4_R_0.png","8_Ratio_0_L_6_R_0.png"],["1_Ratio_0_L_0_R_17.png","10_Ratio_0_L_0_R_22.png","11_Ratio_0_L_0_R_1.png","14_Ratio_0_L_0_R_24.png","15_Ratio_0_L_0_R_4.png","2_Ratio_0_L_0_R_5.png","3_Ratio_0_L_0_R_17.png","4_Ratio_0_L_0_R_7.png","7_Ratio_0_L_0_R_19.png","9_Ratio_0_L_0_R_15.png"]],"Rat250":[["1_Ratio_250_L_8_R_2.png","14_Ratio_250_L_12_R_3.png","15_Ratio_250_L_12_R_3.png","2_Ratio_250_L_16_R_4.png","3_Ratio_250_L_8_R_2.png","5_Ratio_250_L_24_R_6.png","7_Ratio_250_L_8_R_2.png"],["10_Ratio_250_L_4_R_16.png","11_Ratio_250_L_3_R_12.png","12_Ratio_250_L_5_R_20.png","13_Ratio_250_L_2_R_8.png","4_Ratio_250_L_3_R_12.png","6_Ratio_250_L_6_R_24.png","8_Ratio_250_L_1_R_4.png","9_Ratio_250_L_3_R_12.png"]],"Rat500":[["10_Ratio_500_L_4_R_2.png","11_Ratio_500_L_12_R_6.png","13_Ratio_500_L_12_R_6.png","4_Ratio_500_L_18_R_9.png","5_Ratio_500_L_4_R_2.png","7_Ratio_500_L_10_R_5.png","8_Ratio_500_L_8_R_4.png"],["1_Ratio_500_L_9_R_18.png","12_Ratio_500_L_1_R_2.png","14_Ratio_500_L_5_R_10.png","15_Ratio_500_L_1_R_2.png","2_Ratio_500_L_3_R_6.png","3_Ratio_500_L_10_R_20.png","6_Ratio_500_L_9_R_18.png","9_Ratio_500_L_2_R_4.png"]],"Rat750":[["1_Ratio_750_L_20_R_15.png","10_Ratio_750_L_4_R_3.png","13_Ratio_750_L_8_R_6.png","14_Ratio_750_L_8_R_6.png","6_Ratio_750_L_24_R_18.png","8_Ratio_750_L_4_R_3.png","9_Ratio_750_L_4_R_3.png"],["11_Ratio_750_L_12_R_16.png","12_Ratio_750_L_3_R_4.png","15_Ratio_750_L_9_R_12.png","2_Ratio_750_L_6_R_8.png","3_Ratio_750_L_15_R_20.png","4_Ratio_750_L_15_R_20.png","5_Ratio_750_L_15_R_20.png","7_Ratio_750_L_3_R_4.png"]],"Rat900":[["1_Ratio_900_L_10_R_9.png","10_Ratio_900_L_20_R_18.png","2_Ratio_900_L_20_R_18.png","4_Ratio_900_L_20_R_18.png","8_Ratio_900_L_20_R_18.png"],["11_Ratio_900_L_18_R_20.png","12_Ratio_900_L_18_R_20.png","13_Ratio_900_L_18_R_20.png","14_Ratio_900_L_18_R_20.png","15_Ratio_900_L_9_R_10.png","3_Ratio_900_L_9_R_10.png","5_Ratio_900_L_9_R_10.png","6_Ratio_900_L_9_R_10.png","7_Ratio_900_L_9_R_10.png","9_Ratio_900_L_18_R_20.png"]],"Rat1000":[["10_Ratio_1000_L_16_R_16.png","11_Ratio_1000_L_6_R_6.png","12_Ratio_1000_L_14_R_14.png","13_Ratio_1000_L_20_R_20.png","15_Ratio_1000_L_15_R_15.png","2_Ratio_1000_L_17_R_17.png","4_Ratio_1000_L_9_R_9.png","5_Ratio_1000_L_6_R_6.png","6_Ratio_1000_L_19_R_19.png","8_Ratio_1000_L_14_R_14.png","9_Ratio_1000_L_25_R_25.png"],["1_Ratio_1000_L_1_R_1.png","14_Ratio_1000_L_17_R_17.png","3_Ratio_1000_L_17_R_17.png","7_Ratio_1000_L_6_R_6.png"]]}},{"start_time":1549310088448,"click_time":1549310089996,"finger_time":1549310089556,"fix_duration":989.4341477650698,"trial":1,"RT":1108,"MT":440,"sideResp":1,"stimulus":"img/250/equaldotsize/L/3_Ratio_250_L_8_R_2.png","xmouse":[380,380,380,380,380,380,380,380,380,380,380,380,380,380,380,380,380,380,380,380,380,380,380,380,380,380,380,380,380,380,380,380,380,379.3330078125,379.3330078125,379.3330078125,379.3330078125,379.3330078125,379.3330078125,379.3330078125,379.3330078125,379.3330078125,379.3330078125,379.3330078125,379.3330078125,373,373.3330078125,372.6669921875,372,370.6669921875,366.6669921875,365.3330078125,360,358.6669921875,352.6669921875,340.6669921875,334,316.6669921875,299.3330078125,291.3330078125,262.6669921875,240,227.33299255371094,205.33299255371094,194.66700744628906,168.66700744628906,148,138,117.33300018310547,107.33300018310547,92,78,74,66.66699981689453,60,56,50],"ymouse":[838,838,838,838,838,838,838,838,838,838,838,838,838,838,838,838,838,838,838,838,838,838,838,838,838,838,838,838,838,838,838,838,838,829.3330078125,829.3330078125,828.6669921875,828.6669921875,828.6669921875,828.6669921875,828.6669921875,828.6669921875,828.6669921875,828.6669921875,828.6669921875,828.6669921875,810,809.3330078125,806.6669921875,805,801.3330078125,792.6669921875,788.6669921875,780,774.6669921875,763.3330078125,738.6669921875,727,698.6669921875,668.6669921875,652.6669921875,601.3330078125,560,537.3330078125,490.6669921875,465.3330078125,398.6669921875,358,337,295.3330078125,274.6669921875,233,184,170,148.66700744628906,136,118,98],"timestamp_mouse":[12,55,68,88,108,128,147,168,188,209,227,248,268,288,307,328,348,368,388,408,428,448,468,488,507,527,548,567,588,608,628,648,668,688,708,729,748,768,788,808,829,849,867,888,908,930,947,967,987,1007,1029,1048,1068,1088,1108,1129,1148,1169,1188,1209,1232,1248,1269,1288,1307,1331,1348,1368,1388,1408,1427,1450,1468,1488,1508,1528,1547],"xSR":350,"ySR":768,"xT1":30,"yT1":0,"xT2":670,"yT2":0,"toosoon":0,"cond_shown":"equaldotsize","ratio_trial":250,"smaller_num":"2","larger_num":"8","correct_side":1,"subjID":"9","gender":"No_gender","age":"No_age","school":"No_school"},{"start_time":1549310092756,"click_time":1549310094057,"finger_time":1549310093716,"fix_duration":831.1871896331264,"trial":2,"RT":960,"MT":341,"sideResp":1,"stimulus":"img/900/equaldotanddens/R/9_Ratio_900_L_18_R_20.png","xmouse":[404,404,404,404,404,404,404,406,406,406,406,406,406,406,406,406,406,406,406,406,406,406,406,406,406,406,406,406.6669921875,406.6669921875,406.6669921875,406.6669921875,406.6669921875,406.6669921875,406.6669921875,406.6669921875,406.6669921875,406.6669921875,406.6669921875,406.6669921875,406.6669921875,406.6669921875,406.6669921875,406.6669921875,406.6669921875,406.6669921875,404,403.3330078125,398,372.6669921875,356.6669921875,348,331.3330078125,320.6669921875,282.6669921875,255,243.33299255371094,217,204,174.66700744628906,156,148,128.66700744628906,120.66699981689453,99,96,93.33300018310547],"ymouse":[810,810,810,810,810,810,810,811,811,811,811,811,811,811,811,811,811,811,811,811,811,811,811,811,811,811,811,809.3330078125,809.3330078125,809.3330078125,809.3330078125,809.3330078125,809.3330078125,809.3330078125,809.3330078125,809.3330078125,809.3330078125,809.3330078125,809.3330078125,809.3330078125,809.3330078125,809.3330078125,809.3330078125,809.3330078125,809.3330078125,806,805.3330078125,795,743.3330078125,706.6669921875,687,644.6669921875,621.3330078125,543.3330078125,486,460.6669921875,402,372,291.3330078125,245,224,186.66700744628906,169.33299255371094,112,102,91.33300018310547],"timestamp_mouse":[5,28,47,59,80,99,119,140,159,180,200,220,240,260,280,299,319,341,360,380,400,420,440,459,480,500,520,540,560,580,600,620,640,660,680,699,720,739,760,780,799,820,840,860,880,900,920,940,960,980,1000,1019,1039,1060,1080,1099,1119,1140,1161,1179,1200,1220,1239,1265,1280,1301],"xSR":350,"ySR":768,"xT1":30,"yT1":0,"xT2":670,"yT2":0,"toosoon":0,"cond_shown":"equaldotanddens","ratio_trial":900,"smaller_num":"18","larger_num":"20","correct_side":2,"subjID":"9","gender":"No_gender","age":"No_age","school":"No_school"},{"start_time":1549310096005,"click_time":1549310099016,"finger_time":1549310096919,"fix_duration":622.9492124816958,"trial":3,"RT":914,"MT":2097,"sideResp":2,"stimulus":"img/500/randomdotsizeEA/R/14_Ratio_500_L_5_R_10.png","xmouse":[398,398,398,397.3330078125,397.3330078125,396.6669921875,396,396,396,396,396,396,396,396,396,396,396,396,396,396,398.6669921875,398.6669921875,398.6669921875,398.6669921875,398.6669921875,398.6669921875,398.6669921875,398.6669921875,398.6669921875,398.6669921875,398,398,398,398,398,398,398,398,398,398,397,397,397,400,403.3330078125,426,445.3330078125,454.6669921875,476,488,526,550.6669921875,572.6669921875,583.3330078125,601.3330078125,628.6669921875,636,650,654,659.3330078125,660,662,662,663,664.6669921875,665.3330078125,668.6669921875,669.3330078125,670,671.3330078125,672,673,674,674,674,674,674,675.3330078125,675.3330078125,675.3330078125,675.3330078125,675.3330078125,675.3330078125,675.3330078125,675.3330078125,675.3330078125,675.3330078125,675.3330078125,675.3330078125,675.3330078125,675.3330078125,675.3330078125,675.3330078125,675.3330078125,675.3330078125,675.3330078125,675.3330078125,675.3330078125,675.3330078125,675.3330078125,675.3330078125,675.3330078125,675.3330078125,675.3330078125,675.3330078125,675.3330078125,675.3330078125,675.3330078125,675.3330078125,675.3330078125,675.3330078125,675.3330078125,675.3330078125,675.3330078125,675.3330078125,675.3330078125,675.3330078125,675.3330078125,675.3330078125,675.3330078125,675.3330078125,675.3330078125,675.3330078125,418,418,418,418,418,418,418,418,418,418,415.3330078125,415.3330078125,423,447,470,482.6669921875,512,528.6669921875,578,608,620,650,664,697.3330078125,713,725,728,734],"ymouse":[800,800,798,798.6669921875,798.6669921875,798.6669921875,798,798,798,798,799,799,799,799,799,799,799,799,799,799,803.3330078125,803.3330078125,803.3330078125,803.3330078125,803.3330078125,803.3330078125,803.3330078125,803.3330078125,803.3330078125,803.3330078125,801,801,801,801,801,801,801,801,801,801,800,800,800,794,791.3330078125,754,718.6669921875,701.3330078125,663,644,589,550.6669921875,509.3330078125,486.6669921875,445.3330078125,383.3330078125,364,336,324,307.3330078125,302,288,284,280,272.6669921875,270.6669921875,265.3330078125,264.6669921875,264,263.3330078125,263,264,264,264,264,264,264,274.6669921875,274.6669921875,274.6669921875,274.6669921875,274.6669921875,274.6669921875,274.6669921875,274.6669921875,274.6669921875,274.6669921875,274.6669921875,274.6669921875,274.6669921875,274.6669921875,274.6669921875,274.6669921875,274.6669921875,274.6669921875,274.6669921875,274.6669921875,274.6669921875,274.6669921875,274.6669921875,274.6669921875,274.6669921875,274.6669921875,274.6669921875,274.6669921875,274.6669921875,274.6669921875,274.6669921875,274.6669921875,274.6669921875,274.6669921875,274.6669921875,274.6669921875,274.6669921875,274.6669921875,274.6669921875,274.6669921875,274.6669921875,274.6669921875,274.6669921875,274.6669921875,274.6669921875,274.6669921875,804,804,804,804,804,804,804,804,804,804,797.3330078125,797.3330078125,776,718,674,651.3330078125,600,570.6669921875,474,402,372,304,273,196.66700744628906,156,120,104,84],"timestamp_mouse":[19,31,50,71,91,111,133,151,171,191,213,235,251,271,291,310,331,351,371,391,412,431,451,470,491,511,532,551,570,591,611,631,651,671,690,711,730,750,771,791,812,831,851,870,890,914,931,951,971,991,1015,1033,1050,1071,1091,1113,1131,1151,1170,1190,1211,1232,1250,1270,1290,1310,1335,1351,1371,1391,1411,1436,1455,1470,1491,1511,1537,1551,1571,1591,1612,1630,1651,1671,1691,1711,1731,1751,1771,1791,1811,1830,1851,1871,1890,1911,1931,1951,1971,1990,2011,2031,2050,2071,2091,2111,2131,2152,2171,2191,2210,2231,2251,2270,2291,2311,2331,2351,2370,2391,2411,2430,2451,2471,2490,2511,2531,2551,2571,2591,2611,2630,2650,2671,2691,2728,2734,2753,2773,2790,2810,2832,2851,2870,2891,2911,2933,2951,2970,2991,3011],"xSR":350,"ySR":768,"xT1":30,"yT1":0,"xT2":670,"yT2":0,"toosoon":0,"cond_shown":"randomdotsizeEA","ratio_trial":500,"smaller_num":"5","larger_num":"10","correct_side":2,"subjID":"9","gender":"No_gender","age":"No_age","school":"No_school"},{"start_time":1549310101055,"click_time":1549310102356,"finger_time":1549310102076,"fix_duration":437.0590399491058,"trial":4,"RT":1021,"MT":280,"sideResp":1,"stimulus":"img/250/equaldotanddens/L/2_Ratio_250_L_16_R_4.png","xmouse":[404,404,404,404,404,404,404,404,404,396,396,396,396,396,396,395.3330078125,395.3330078125,395.3330078125,395.3330078125,395.3330078125,395.3330078125,395.3330078125,395.3330078125,395.3330078125,395.3330078125,394.6669921875,394.6669921875,394.6669921875,394.6669921875,394.6669921875,394.6669921875,394.6669921875,394.6669921875,394.6669921875,394.6669921875,394,394,394,394,394,394,394,394,394,394,392,392,392,392,392,346.6669921875,328.6669921875,316.6669921875,290,246.66700744628906,229.33299255371094,195.33299255371094,178,144,129.33299255371094,94.66699981689453,79.33300018310547,73.33300018310547,65.33300018310547,62.66699981689453],"ymouse":[820,820,820,820,820,820,820,820,820,823,823,823,823,823,823,823.3330078125,823.3330078125,823.3330078125,823.3330078125,823.3330078125,823.3330078125,823.3330078125,823.3330078125,823.3330078125,823.3330078125,823.3330078125,823.3330078125,823.3330078125,823.3330078125,823.3330078125,823.3330078125,823.3330078125,823.3330078125,823.3330078125,823.3330078125,823,823,823,823,823,823,823,823,823,823,818,818,818,818,818,680.6669921875,626.6669921875,597.3330078125,538,453.3330078125,423.3330078125,369.3330078125,344,288,261.3330078125,187.33299255371094,146.66700744628906,130.66700744628906,101.33300018310547,80.66699981689453],"timestamp_mouse":[2,21,40,61,81,101,121,141,161,181,226,241,261,281,301,322,341,361,381,401,421,441,462,480,502,523,541,561,581,601,621,641,660,680,701,721,741,761,781,801,821,841,861,881,902,921,941,960,981,1001,1021,1041,1061,1080,1102,1121,1140,1161,1180,1201,1220,1241,1261,1281,1301],"xSR":350,"ySR":768,"xT1":30,"yT1":0,"xT2":670,"yT2":0,"toosoon":0,"cond_shown":"equaldotanddens","ratio_trial":250,"smaller_num":"4","larger_num":"16","correct_side":1,"subjID":"9","gender":"No_gender","age":"No_age","school":"No_school"},{"start_time":1549310104867,"click_time":1549310109176,"finger_time":1549310108436,"fix_duration":1428.1164344394156,"trial":5,"RT":3569,"MT":740,"sideResp":2,"stimulus":"img/900/equaldotanddens/R/15_Ratio_900_L_9_R_10.png","xmouse":[386.6669921875,386.6669921875,386.6669921875,386.6669921875,386.6669921875,386.6669921875,386.6669921875,386.6669921875,386.6669921875,386,386,386,386,386,386,386,386,386,386,387.3330078125,387.3330078125,387.3330078125,387.3330078125,387.3330078125,387.3330078125,387.3330078125,387.3330078125,387.3330078125,387.3330078125,389.3330078125,389.3330078125,389.3330078125,389.3330078125,389.3330078125,389.3330078125,389.3330078125,389.3330078125,389.3330078125,389.3330078125,390,390,390,390,390,390,390,390,390,390,389.3330078125,389.3330078125,389.3330078125,389.3330078125,389.3330078125,389.3330078125,389.3330078125,389.3330078125,389.3330078125,389.3330078125,390,390,390,390,390,390,390,390,390,390,390,390,390,390,390,390,390,390,390,390,390,390,390,390,390,390,390,390,390,390,390,390,390,390,390,390,390,390,390,390,390,390,390,390,390,390,390,390,390,390,390,390,390,390,390,390,390,390,390,390,390,390,390,411,411,411,411,411,411,411,411,411,411,411,411,411,411,411,411,411,411,411,411,411,411,411,411,411,411,411,411,411,411,411,411,411,411,411,411,411,411,411,411,411,411,411,411,411,411,410,409.3330078125,409.3330078125,409.3330078125,409.3330078125,409.3330078125,406,404,403.3330078125,396,373.3330078125,362,349,339.3330078125,327,323.3330078125,316,312,304,299.3330078125,297.3330078125,292.6669921875,290.6669921875,288,287,287.3330078125,288,288,289,290,290,289.3330078125,289,290,292,297,305,341.3330078125,365.3330078125,443,495.3330078125,518,565,588,666,679,703.3330078125,714.6669921875],"ymouse":[817.3330078125,817.3330078125,817.3330078125,817.3330078125,817.3330078125,817.3330078125,817.3330078125,817.3330078125,817.3330078125,816,816,816,816,816,816,816,816,816,816,815.3330078125,815.3330078125,815.3330078125,815.3330078125,815.3330078125,815.3330078125,815.3330078125,815.3330078125,815.3330078125,815.3330078125,814.6669921875,814.6669921875,814.6669921875,814.6669921875,814.6669921875,814.6669921875,814.6669921875,814.6669921875,814.6669921875,814.6669921875,812,812,812,812,812,812,812,812,812,812,814.6669921875,814.6669921875,814.6669921875,814.6669921875,814.6669921875,814.6669921875,814.6669921875,814.6669921875,814.6669921875,814.6669921875,818,818,818,818,818,818,818,818,818,818,818,818,818,818,818,818,818,814,814,814,814,814,814,814,814,814,814,814,814,814,814,814,814,814,814,814,814,814,814,814,814,814,814,814,814,814,814,814,814,814,814,814,814,814,814,814,814,814,814,814,814,814,814,837,837,837,837,837,837,837,837,837,837,837,837,837,837,837,837,837,837,837,837,837,837,837,837,837,837,837,837,837,837,837,837,837,837,837,837,837,837,837,837,837,837,837,837,837,837,829,829.3330078125,829.3330078125,829.3330078125,829.3330078125,829.3330078125,826,824,822.6669921875,806,756.6669921875,730,690,646.6669921875,566,535.3330078125,470,438,356,312.6669921875,297.3330078125,272.6669921875,267.3330078125,259,252,249.3330078125,245,243,240,236,235,232.66700744628906,230,228,224,222,220,211.33299255371094,205.33299255371094,188,177.33299255371094,172,162,155,126,118,102.66699981689453,93.33300018310547],"timestamp_mouse":[8,29,49,69,88,109,128,149,169,189,209,228,249,268,289,309,329,349,370,389,409,428,448,469,489,509,529,549,568,589,612,631,649,668,689,709,729,749,768,789,809,829,849,868,889,909,929,949,969,989,1009,1031,1048,1070,1089,1109,1129,1149,1168,1189,1210,1229,1249,1270,1289,1309,1329,1349,1369,1389,1409,1429,1449,1468,1488,1509,1532,1548,1569,1589,1609,1628,1648,1669,1689,1708,1728,1748,1769,1789,1808,1828,1848,1869,1889,1909,1928,1949,1969,1989,2008,2029,2049,2068,2089,2109,2128,2149,2169,2189,2209,2229,2248,2269,2289,2309,2329,2349,2369,2389,2409,2429,2453,2468,2489,2509,2529,2549,2568,2589,2609,2629,2649,2669,2689,2709,2728,2749,2768,2789,2809,2829,2849,2869,2889,2909,2930,2949,2969,2989,3009,3029,3049,3069,3089,3109,3129,3149,3169,3188,3209,3229,3249,3269,3289,3309,3329,3348,3369,3389,3417,3428,3449,3469,3488,3509,3528,3548,3569,3588,3609,3628,3649,3668,3689,3709,3730,3749,3768,3789,3809,3828,3848,3869,3888,3909,3930,3951,3968,3988,4009,4029,4051,4069,4090,4109,4129,4149,4168,4189,4209,4229,4251,4269,4288,4308],"xSR":350,"ySR":768,"xT1":30,"yT1":0,"xT2":670,"yT2":0,"toosoon":0,"cond_shown":"equaldotanddens","ratio_trial":900,"smaller_num":"9","larger_num":"10","correct_side":2,"subjID":"9","gender":"No_gender","age":"No_age","school":"No_school"},{"start_time":1549310110907,"click_time":1549310114337,"finger_time":1549310114058,"fix_duration":389.38765564818203,"trial":6,"RT":3151,"MT":279,"sideResp":2,"stimulus":"img/250/randomdotsize/R/6_Ratio_250_L_6_R_24.png","xmouse":[403.3330078125,402,402,402,402,402,402,402,402,402,402,400.6669921875,400.6669921875,400.6669921875,400.6669921875,400.6669921875,400.6669921875,400.6669921875,400.6669921875,400.6669921875,400.6669921875,400,400,400,400,400,400,400,400,400,400,400.6669921875,400.6669921875,400.6669921875,400.6669921875,400.6669921875,400.6669921875,400.6669921875,400.6669921875,400.6669921875,400.6669921875,400,400,400,400,400,400,400,400,400,400,400,400,400,400,400,400,400,400,400,400,400,400,400,400,400,400,400,400,400,400,399.3330078125,399.3330078125,399.3330078125,399.3330078125,399.3330078125,399.3330078125,399.3330078125,399.3330078125,399.3330078125,399.3330078125,399.3330078125,399.3330078125,399.3330078125,399.3330078125,399.3330078125,399.3330078125,399.3330078125,399.3330078125,399.3330078125,399.3330078125,399.3330078125,399.3330078125,399.3330078125,399.3330078125,399.3330078125,399.3330078125,399.3330078125,399.3330078125,400,400,400,400,400,400,400,400,400,400,390,390,390,390,390,390,390,390,390,390,390,390,388.6669921875,388.6669921875,388.6669921875,388.6669921875,388.6669921875,388.6669921875,388.6669921875,388.6669921875,388.6669921875,388.6669921875,388,388,388,388,388,388,388,388,388,388,388,388,388,388,388,388,388,388,388,388,388,388,388,389.3330078125,390,393,434.6669921875,449.3330078125,478,492,540,574,590.6669921875,617,630.6669921875,649,669.3330078125,676,689,695,706],"ymouse":[798.6669921875,802,802,802,802,802,802,802,802,802,802,805.3330078125,805.3330078125,805.3330078125,805.3330078125,805.3330078125,805.3330078125,805.3330078125,805.3330078125,805.3330078125,805.3330078125,803,803,803,803,803,803,803,803,803,803,806.6669921875,806.6669921875,806.6669921875,806.6669921875,806.6669921875,806.6669921875,806.6669921875,806.6669921875,806.6669921875,806.6669921875,808,808,808,808,808,808,808,808,808,808,807,807,807,807,807,807,807,807,807,807,807,807,807,807,807,807,807,807,807,807,807.3330078125,807.3330078125,807.3330078125,807.3330078125,807.3330078125,807.3330078125,807.3330078125,807.3330078125,807.3330078125,807.3330078125,806.6669921875,806.6669921875,806.6669921875,806.6669921875,806.6669921875,806.6669921875,806.6669921875,806.6669921875,806.6669921875,806.6669921875,807.3330078125,807.3330078125,807.3330078125,807.3330078125,807.3330078125,807.3330078125,807.3330078125,807.3330078125,799,799,799,799,799,799,799,799,799,799,804,804,805,805,805,805,805,805,805,805,805,805,808.6669921875,808.6669921875,808.6669921875,808.6669921875,808.6669921875,808.6669921875,808.6669921875,808.6669921875,808.6669921875,808.6669921875,810,810,810,810,810,810,810,810,810,810,809,809,809,809,809,809,809,809,809,809,805,805,805,800.6669921875,798,794,730.6669921875,708.6669921875,663,638,552,486,454.6669921875,396,365.3330078125,308,226.66700744628906,200,154,132,92],"timestamp_mouse":[9,35,49,69,89,109,128,149,169,189,209,230,249,269,289,308,329,348,369,388,409,429,448,468,489,508,528,548,568,589,610,633,649,669,689,709,729,748,769,789,809,832,849,869,889,909,929,948,969,989,1009,1029,1049,1068,1089,1109,1129,1149,1169,1189,1209,1229,1249,1268,1288,1308,1329,1349,1369,1389,1409,1431,1449,1469,1489,1509,1529,1549,1568,1590,1609,1630,1648,1669,1688,1709,1729,1748,1769,1788,1809,1831,1849,1869,1889,1908,1929,1950,1969,1989,2009,2028,2049,2069,2088,2109,2129,2148,2169,2208,2208,2229,2249,2268,2289,2309,2329,2349,2368,2388,2409,2431,2449,2469,2488,2509,2528,2549,2569,2589,2609,2629,2649,2669,2689,2708,2729,2749,2769,2789,2809,2829,2849,2869,2889,2909,2929,2949,2969,2989,3009,3029,3049,3069,3089,3109,3128,3150,3169,3189,3209,3233,3250,3269,3289,3309,3329,3352,3369,3388,3409,3429],"xSR":350,"ySR":768,"xT1":30,"yT1":0,"xT2":670,"yT2":0,"toosoon":0,"cond_shown":"randomdotsize","ratio_trial":250,"smaller_num":"6","larger_num":"24","correct_side":2,"subjID":"9","gender":"No_gender","age":"No_age","school":"No_school"},{"start_time":1549310116177,"click_time":1549310119976,"finger_time":1549310119556,"fix_duration":772.9259789754747,"trial":7,"RT":3379,"MT":420,"sideResp":1,"stimulus":"img/250/randomdotsizeEA/L/14_Ratio_250_L_12_R_3.png","xmouse":[385,385.3330078125,385.3330078125,384,384,384.6669921875,384.6669921875,384.6669921875,384,384.6669921875,384.6669921875,384.6669921875,384.6669921875,384,384,384,384,384,384,384,383,383,383,383,383,383,383,384,384,384,384,384,384,384,384,384,384,384,384,383.3330078125,383.3330078125,383.3330078125,383.3330078125,383.3330078125,383.3330078125,383.3330078125,383.3330078125,383.3330078125,383.3330078125,383.3330078125,382.6669921875,382.6669921875,382.6669921875,382.6669921875,382.6669921875,382.6669921875,382.6669921875,382.6669921875,382,382,382,382,382,382,382,381,381,381,381,381,381,381,381,381,381,380,380,380.6669921875,380.6669921875,380,380,380,380,380,380,380,380,380,380,380,379,379,379,379.3330078125,379.3330078125,379.3330078125,379.3330078125,379.3330078125,379.3330078125,379.3330078125,378.6669921875,378.6669921875,378.6669921875,378,378,378,378,378,378,378,378,378,378,378,378,378,378,378,437.3330078125,437,437,437,437,437,437,437,437,437,437,434.6669921875,434.6669921875,434.6669921875,434.6669921875,434.6669921875,434.6669921875,434.6669921875,434.6669921875,434.6669921875,434.6669921875,433.3330078125,433.3330078125,433.3330078125,433.3330078125,433.3330078125,433.3330078125,433.3330078125,433.3330078125,433.3330078125,433.3330078125,433.3330078125,433.3330078125,433.3330078125,433.3330078125,433.3330078125,433.3330078125,433.3330078125,433.3330078125,433.3330078125,433.3330078125,432.6669921875,432.6669921875,432.6669921875,432.6669921875,432.6669921875,429,428.6669921875,428,426.6669921875,424,409.3330078125,374.6669921875,355.3330078125,345.3330078125,324,312.6669921875,280,260,250,228.66700744628906,218,195,164,154.66700744628906,140.66700744628906,136,125,116,113,108,104.66699981689453,99],"ymouse":[812,813.3330078125,813.3330078125,814,816,817.3330078125,818.6669921875,819.3330078125,820,820.6669921875,820.6669921875,821.3330078125,821.3330078125,821,821,821,821,821,821,822,822,822,822,822,822,822,822,822,822,822,822,822,822,822,822,822,822,822,822,823.3330078125,823.3330078125,823.3330078125,823.3330078125,823.3330078125,823.3330078125,823.3330078125,823.3330078125,823.3330078125,823.3330078125,823.3330078125,822.6669921875,822.6669921875,822.6669921875,822.6669921875,822.6669921875,822.6669921875,822.6669921875,822.6669921875,822,822,822,822,822,822,822,822,822,822,822,822,822,822,822,822,822,822,822,821.3330078125,821.3330078125,821,821,821,821,820,820,820,820,820,820,820,820,820,820,819.3330078125,819.3330078125,819.3330078125,819.3330078125,819.3330078125,819.3330078125,819.3330078125,819.3330078125,819.3330078125,819.3330078125,820,820,820,820,820,820,820,818,818,818,818,818,818,818,818,814.6669921875,816,816,816,816,816,816,816,816,816,816,819.3330078125,819.3330078125,819.3330078125,819.3330078125,819.3330078125,819.3330078125,819.3330078125,819.3330078125,819.3330078125,819.3330078125,819.3330078125,819.3330078125,819.3330078125,819.3330078125,819.3330078125,819.3330078125,819.3330078125,819.3330078125,819.3330078125,819.3330078125,818.6669921875,818.6669921875,818.6669921875,818.6669921875,818.6669921875,818.6669921875,818.6669921875,818.6669921875,818.6669921875,818.6669921875,817.3330078125,817.3330078125,817.3330078125,817.3330078125,817.3330078125,810,804.6669921875,802,797.3330078125,792,764.6669921875,709.3330078125,672.6669921875,652.6669921875,607,584.6669921875,508,462,436,387.3330078125,363,318,258,240.6669921875,209.33299255371094,194,168,138,132,120,113.3330078125,98],"timestamp_mouse":[15,37,39,58,82,99,118,139,159,181,199,219,238,259,280,298,319,339,358,379,399,419,439,458,479,498,519,539,559,583,599,619,639,659,679,699,719,739,759,783,799,819,838,858,879,898,919,939,959,979,999,1019,1039,1059,1079,1099,1119,1139,1158,1179,1199,1218,1239,1259,1278,1299,1319,1339,1359,1378,1399,1419,1439,1459,1479,1499,1519,1538,1559,1579,1598,1619,1641,1659,1679,1698,1719,1739,1758,1778,1801,1819,1839,1858,1878,1899,1919,1939,1958,1979,1999,2019,2039,2059,2079,2099,2119,2138,2159,2179,2198,2218,2239,2259,2279,2299,2319,2339,2359,2396,2399,2419,2439,2459,2479,2499,2518,2539,2559,2579,2599,2619,2639,2659,2679,2699,2718,2739,2759,2779,2799,2819,2839,2859,2879,2899,2919,2938,2958,2979,2999,3019,3039,3059,3079,3099,3118,3139,3158,3179,3199,3219,3239,3259,3279,3301,3319,3339,3359,3379,3401,3422,3439,3459,3479,3502,3520,3538,3559,3579,3598,3619,3639,3659,3678,3698,3722,3739,3759,3779,3799],"xSR":350,"ySR":768,"xT1":30,"yT1":0,"xT2":670,"yT2":0,"toosoon":0,"cond_shown":"randomdotsizeEA","ratio_trial":250,"smaller_num":"3","larger_num":"12","correct_side":1,"subjID":"9","gender":"No_gender","age":"No_age","school":"No_school"},{"start_time":1549310122087,"click_time":1549310124917,"finger_time":1549310124616,"fix_duration":509.5950338839691,"trial":8,"RT":2529,"MT":301,"sideResp":2,"stimulus":"img/900/equaldotsize/R/3_Ratio_900_L_9_R_10.png","xmouse":[401.3330078125,401.3330078125,401.3330078125,401.3330078125,401.3330078125,401.3330078125,401.3330078125,401.3330078125,401.3330078125,401.3330078125,401.3330078125,401.3330078125,401.3330078125,401.3330078125,401.3330078125,401.3330078125,401.3330078125,401.3330078125,401.3330078125,401.3330078125,401.3330078125,390,390,390,390,390,390,390,390,390,390,390,390,390,390,390,390,390,390,390,390,390,390,390,390,390,390,390,390,390,390,390,390,390,390,390,390,390,390,390,390,390,390,390,390,390,390,390,390,390,390,390,390,390,390,390,404,404,407.3330078125,407.3330078125,407.3330078125,407,407,407,407,407,407,407,407,407,407,408,408,408,408,408,408,408,408,408,408,405.3330078125,405.3330078125,405.3330078125,405.3330078125,405.3330078125,405.3330078125,405.3330078125,405.3330078125,405.3330078125,405.3330078125,402.6669921875,402.6669921875,402.6669921875,402.6669921875,402.6669921875,402.6669921875,402.6669921875,402.6669921875,402.6669921875,402.6669921875,401.3330078125,400.6669921875,401.3330078125,402.6669921875,413.3330078125,420.6669921875,448,469.3330078125,481,506,544.6669921875,557,582.6669921875,594,621.3330078125,660,680,688,704.6669921875,712,723.3330078125],"ymouse":[825.3330078125,825.3330078125,825.3330078125,825.3330078125,825.3330078125,825.3330078125,825.3330078125,825.3330078125,825.3330078125,825.3330078125,825.3330078125,825.3330078125,825.3330078125,825.3330078125,825.3330078125,825.3330078125,825.3330078125,825.3330078125,825.3330078125,825.3330078125,825.3330078125,814,814,814,814,814,814,814,814,814,814,814,814,814,814,814,814,814,814,814,814,814,814,814,814,814,814,814,814,814,814,814,814,814,814,814,814,814,814,814,814,814,814,814,814,814,814,814,814,814,814,814,814,814,814,814,829,829,837.3330078125,837.3330078125,837.3330078125,838,838,838,838,838,838,838,838,838,838,838,838,838,838,838,838,838,838,838,838,834.6669921875,834.6669921875,834.6669921875,834.6669921875,834.6669921875,834.6669921875,834.6669921875,834.6669921875,834.6669921875,834.6669921875,831.3330078125,831.3330078125,831.3330078125,831.3330078125,831.3330078125,831.3330078125,831.3330078125,831.3330078125,831.3330078125,831.3330078125,822.6669921875,818.6669921875,815.3330078125,805.3330078125,779.3330078125,762.6669921875,701,652.6669921875,626,566,466.6669921875,434,372.6669921875,344,284.6669921875,207,166,149,120.6669921875,107,88.66699981689453],"timestamp_mouse":[9,28,48,68,89,109,128,148,169,189,208,229,248,269,289,309,329,349,369,389,409,429,448,468,488,508,528,549,569,589,608,629,649,668,688,709,728,749,769,789,808,829,848,869,889,909,929,948,969,989,1009,1029,1048,1068,1089,1110,1129,1149,1169,1189,1209,1230,1249,1269,1289,1309,1329,1349,1369,1389,1409,1429,1449,1468,1489,1509,1535,1548,1572,1607,1610,1629,1648,1668,1689,1709,1731,1748,1768,1789,1809,1829,1849,1868,1889,1908,1929,1948,1968,1989,2008,2028,2049,2069,2089,2109,2130,2148,2169,2189,2209,2231,2256,2269,2288,2308,2329,2349,2369,2389,2409,2432,2449,2469,2489,2508,2529,2549,2569,2589,2609,2631,2650,2669,2689,2709,2734,2752,2770,2790,2808,2829],"xSR":350,"ySR":768,"xT1":30,"yT1":0,"xT2":670,"yT2":0,"toosoon":0,"cond_shown":"equaldotsize","ratio_trial":900,"smaller_num":"9","larger_num":"10","correct_side":2,"subjID":"9","gender":"No_gender","age":"No_age","school":"No_school"},{"start_time":1549310127540,"click_time":1549310129416,"finger_time":1549310129096,"fix_duration":1440.8528055588404,"trial":9,"RT":1556,"MT":320,"sideResp":2,"stimulus":"img/500/randomdotsizeEA/L/4_Ratio_500_L_18_R_9.png","xmouse":[377,377,377,377,377,377,377,377,377,376.6669921875,376.6669921875,376.6669921875,376.6669921875,376.6669921875,376.6669921875,376.6669921875,376.6669921875,376.6669921875,376.6669921875,378,378,378,378,378,378,378,378,378,378,378,378,378,378,378,378,378,378,378,378,378,378,355.3330078125,355.3330078125,356,356,356,356,356,356,356,356,356,356,361.3330078125,361.3330078125,361.3330078125,361.3330078125,361.3330078125,361.3330078125,361.3330078125,361.3330078125,361.3330078125,361.3330078125,367,367,367,367,367,367,367,368,368,368,367,370.6669921875,375,379.3330078125,392,399.3330078125,428.6669921875,457,473,508,526,588,599.3330078125,620.6669921875,631,650,658.6669921875,681.3330078125,695.3330078125,702.6669921875],"ymouse":[808,808,808,808,808,808,808,808,808,809.3330078125,809.3330078125,809.3330078125,809.3330078125,809.3330078125,809.3330078125,809.3330078125,809.3330078125,809.3330078125,809.3330078125,813,813,813,813,813,813,813,806,806,806,806,806,806,806,806,806,806,806,806,806,806,806,816.6669921875,816.6669921875,818,818,818,818,818,818,818,818,818,818,818.6669921875,818.6669921875,818.6669921875,818.6669921875,818.6669921875,818.6669921875,818.6669921875,818.6669921875,818.6669921875,818.6669921875,818,818,818,818,818,818,818,808,806,802,800,783.3330078125,768,755.3330078125,720,700.6669921875,631.3330078125,578,550,491,460,342,317.3330078125,265.3330078125,240,194,174.66700744628906,129.33299255371094,105.33300018310547,94.66699981689453],"timestamp_mouse":[16,36,56,76,99,116,137,156,176,196,216,236,255,275,297,317,336,356,375,396,416,436,456,475,496,516,536,556,576,596,616,636,656,676,695,717,735,756,776,796,816,837,879,896,915,936,955,976,996,1016,1036,1056,1075,1096,1116,1135,1156,1176,1196,1216,1236,1255,1276,1296,1315,1336,1358,1376,1396,1416,1436,1455,1476,1495,1517,1536,1556,1575,1597,1621,1636,1656,1675,1695,1717,1736,1757,1776,1795,1816,1836,1856,1876],"xSR":350,"ySR":768,"xT1":30,"yT1":0,"xT2":670,"yT2":0,"toosoon":0,"cond_shown":"randomdotsizeEA","ratio_trial":500,"smaller_num":"9","larger_num":"18","correct_side":1,"subjID":"9","gender":"No_gender","age":"No_age","school":"No_school"},{"start_time":1549310131579,"click_time":1549310132677,"finger_time":1549310132436,"fix_duration":399.30594163097953,"trial":10,"RT":857,"MT":241,"sideResp":2,"stimulus":"img/500/randomdotsize/R/12_Ratio_500_L_1_R_2.png","xmouse":[406,406,406,406,406,406,406,406,406,406,406,406,406,406,406,406,406,406,406,406,406,406,406,406,406,406,406,406,406,406,406,406,406,406,406,405.3330078125,405,405,405,405,405,433,449.3330078125,456.6669921875,480.6669921875,502,514,541,586,613.3330078125,627.3330078125,652,666.6669921875,708],"ymouse":[808,808,808,808,808,808,808,808,808,808,808,808,808,808,808,808,808,808,808,808,808,808,808,808,808,808,808,808,808,808,808,808,808,808,808,800.6669921875,800,800,800,800,800,740,698.6669921875,676.6669921875,601.3330078125,544,514,454,362,299.3330078125,266.6669921875,204,173.33299255371094,98],"timestamp_mouse":[17,56,76,97,117,137,156,176,197,217,238,256,277,297,317,337,357,377,397,416,437,457,478,497,517,537,556,577,597,616,636,657,676,697,717,737,757,777,796,818,838,857,877,897,918,936,957,977,999,1018,1036,1058,1077,1098],"xSR":350,"ySR":768,"xT1":30,"yT1":0,"xT2":670,"yT2":0,"toosoon":0,"cond_shown":"randomdotsize","ratio_trial":500,"smaller_num":"1","larger_num":"2","correct_side":2,"subjID":"9","gender":"No_gender","age":"No_age","school":"No_school"},{"start_time":1549310136766,"click_time":1549310137837,"finger_time":1549310137376,"fix_duration":887.5138700056535,"trial":11,"RT":610,"MT":461,"sideResp":1,"stimulus":"img/500/equaldotanddens/L/13_Ratio_500_L_12_R_6.png","xmouse":[418,418,418,418,418,418,418,418,418,418,418,418,418,418,418,418,418,418,418,418,418,418,418,414.6669921875,414.6669921875,409,409,409,409,420,424,432,433.3330078125,432,429.3330078125,427,419,410.6669921875,404,388,369.3330078125,335,323.3330078125,298,286.6669921875,262.6669921875,225.33299255371094,212,186.66700744628906,174,152,130,125],"ymouse":[804,804,804,804,804,804,804,804,804,804,804,804,804,804,804,804,804,804,804,804,804,804,804,796.6669921875,796.6669921875,794,794,794,794,749,738,704,679.3330078125,666,642.6669921875,632,596,569.3330078125,552,512,472.6669921875,412,390.6669921875,346,323.3330078125,274.6669921875,211.33299255371094,192,159.33299255371094,144,116,90,86],"timestamp_mouse":[48,50,70,90,110,129,150,170,190,210,230,249,270,290,310,330,350,370,390,410,430,450,469,490,510,532,550,571,590,610,630,651,670,689,710,729,751,771,789,810,830,852,871,890,910,930,953,970,991,1009,1030,1052,1071],"xSR":350,"ySR":768,"xT1":30,"yT1":0,"xT2":670,"yT2":0,"toosoon":0,"cond_shown":"equaldotanddens","ratio_trial":500,"smaller_num":"6","larger_num":"12","correct_side":1,"subjID":"9","gender":"No_gender","age":"No_age","school":"No_school"},{"start_time":1549310144313,"click_time":1549310146016,"finger_time":1549310145635,"fix_duration":971.0266003292546,"trial":12,"RT":1322,"MT":381,"sideResp":2,"stimulus":"img/250/randomdotsizeEA/R/8_Ratio_250_L_1_R_4.png","xmouse":[399.3330078125,399.3330078125,398,398,398,398,398,398,398,398,398,398,397.3330078125,397.3330078125,397.3330078125,397.3330078125,397.3330078125,397.3330078125,397.3330078125,397.3330078125,397.3330078125,397.3330078125,397.3330078125,394.6669921875,394.6669921875,394.6669921875,394.6669921875,394.6669921875,394.6669921875,393,393.3330078125,393.3330078125,393.3330078125,394,394,394,394,394,394,394,394,394,394,399,399,399,399,399,399,399,397.3330078125,397.3330078125,396,395.3330078125,394.6669921875,394,394,393,393.3330078125,393.3330078125,394,394,394,396.6669921875,400,402,412,428,464.6669921875,479.3330078125,510,525.3330078125,556,599,610,636,648,668,695.3330078125,704,719.3330078125,732.6669921875,739.3330078125,746.6669921875,754,756.6669921875],"ymouse":[823.3330078125,823.3330078125,823,823,823,823,823,823,823,823,823,823,824.6669921875,824.6669921875,824.6669921875,824.6669921875,824.6669921875,824.6669921875,824.6669921875,824.6669921875,824.6669921875,824.6669921875,824.6669921875,820.6669921875,820.6669921875,820.6669921875,820.6669921875,820.6669921875,820.6669921875,818,818.6669921875,818.6669921875,818.6669921875,819,819,819,819,819,819,819,819,819,819,824,824,824,824,824,824,824,813.3330078125,812.6669921875,810,809.3330078125,808.6669921875,808,808,808,806.6669921875,806.6669921875,805,804,804,798.6669921875,788,781,760,726,664.6669921875,640.6669921875,592,566.6669921875,512,434,412,363,338,297,238.66700744628906,220,188.66700744628906,161.33299255371094,148.66700744628906,126.6669921875,100,94.66699981689453],"timestamp_mouse":[3,22,45,64,83,104,123,142,162,183,203,222,245,263,283,302,322,343,363,383,402,423,443,463,483,503,523,543,562,583,602,622,643,663,683,702,722,743,763,782,803,823,843,863,883,903,922,943,967,983,1003,1023,1042,1063,1083,1103,1123,1143,1163,1183,1203,1222,1243,1265,1283,1303,1322,1343,1364,1383,1402,1423,1443,1465,1483,1503,1523,1543,1564,1583,1603,1623,1643,1666,1689,1702],"xSR":350,"ySR":768,"xT1":30,"yT1":0,"xT2":670,"yT2":0,"toosoon":0,"cond_shown":"randomdotsizeEA","ratio_trial":250,"smaller_num":"1","larger_num":"4","correct_side":2,"subjID":"9","gender":"No_gender","age":"No_age","school":"No_school"},{"start_time":1549310148504,"click_time":1549310149918,"finger_time":1549310149398,"fix_duration":1046.2996333503438,"trial":13,"RT":894,"MT":520,"sideResp":2,"stimulus":"img/500/equaldotanddens/L/8_Ratio_500_L_8_R_4.png","xmouse":[415.3330078125,415.3330078125,415.3330078125,415.3330078125,415.3330078125,415.3330078125,416,416,416,416,416,416,416,416,416,416,415,415,415,415,415,415,415,415,415,415,415.3330078125,415.3330078125,415.3330078125,415.3330078125,415.3330078125,415.3330078125,415.3330078125,415.3330078125,415.3330078125,415.3330078125,413.3330078125,413.3330078125,413.3330078125,413.3330078125,412.6669921875,412,412.6669921875,412.6669921875,416.6669921875,420,427.3330078125,434,455,489.3330078125,500.6669921875,524,535.3330078125,558,590,599.3330078125,618,636,645,670.6669921875,686.6669921875,694.6669921875,710,715.3330078125,726,737.3330078125,740,742,743,744,744],"ymouse":[792.6669921875,792.6669921875,792.6669921875,792.6669921875,792.6669921875,792.6669921875,792,792,792,792,792,792,792,792,792,792,794,794,794,794,794,794,794,794,794,794,795.3330078125,795.3330078125,795.3330078125,795.3330078125,795.3330078125,795.3330078125,795.3330078125,795.3330078125,795.3330078125,795.3330078125,787.3330078125,787.3330078125,787.3330078125,787.3330078125,779.3330078125,778,776.6669921875,772.6669921875,760.6669921875,753,736.6669921875,724,690,636.6669921875,617.3330078125,579,559.3330078125,518,456,439.3330078125,398,360,340,287.3330078125,252.6669921875,236.66700744628906,206,193.33299255371094,169,140.66700744628906,132,120,116,105,94],"timestamp_mouse":[13,32,52,72,92,112,131,152,171,192,211,232,252,272,292,312,332,352,372,391,411,432,452,472,492,512,532,551,572,594,612,632,651,672,692,713,734,752,772,792,813,832,852,872,894,912,934,952,972,992,1011,1031,1051,1071,1093,1112,1131,1152,1172,1194,1211,1231,1252,1271,1292,1312,1332,1352,1372,1392,1414],"xSR":350,"ySR":768,"xT1":30,"yT1":0,"xT2":670,"yT2":0,"toosoon":0,"cond_shown":"equaldotanddens","ratio_trial":500,"smaller_num":"4","larger_num":"8","correct_side":1,"subjID":"9","gender":"No_gender","age":"No_age","school":"No_school"},{"start_time":1549310161046,"click_time":1549310161876,"finger_time":1549310161677,"fix_duration":1148.1812119960748,"trial":14,"RT":631,"MT":199,"sideResp":1,"stimulus":"img/500/equaldotsize/R/15_Ratio_500_L_1_R_2.png","xmouse":[376,376,376,386.6669921875,386.6669921875,386.6669921875,386.6669921875,386,386.6669921875,386,387,387.3330078125,387.3330078125,387.3330078125,387.3330078125,387.3330078125,387.3330078125,387.3330078125,387.3330078125,387.3330078125,387.3330078125,387.3330078125,387.3330078125,388,388,388,388,387,387,387,387,338,326,294,276.6669921875,244,200,184.66700744628906,158.66700744628906,146.66700744628906,127.3330078125,119],"ymouse":[794,794,794,797.3330078125,797.3330078125,797.3330078125,797.3330078125,802,803.3330078125,804,804,803.3330078125,803.3330078125,802.6669921875,802.6669921875,802.6669921875,802.6669921875,802.6669921875,802.6669921875,802.6669921875,802.6669921875,802.6669921875,802.6669921875,792,792,792,792,778,778,778,778,600,570,494,455.3330078125,382,284,249.3330078125,191.33299255371094,164.66700744628906,115.3330078125,96],"timestamp_mouse":[10,30,50,70,89,110,130,150,170,190,210,230,249,270,290,310,332,353,370,390,409,430,452,472,489,510,530,549,570,590,610,631,649,670,690,710,733,752,771,790,810,829],"xSR":350,"ySR":768,"xT1":30,"yT1":0,"xT2":670,"yT2":0,"toosoon":0,"cond_shown":"equaldotsize","ratio_trial":500,"smaller_num":"1","larger_num":"2","correct_side":2,"subjID":"9","gender":"No_gender","age":"No_age","school":"No_school"},{"start_time":1549310164101,"click_time":1549310165957,"finger_time":1549310165595,"fix_duration":1244.9701676231289,"trial":15,"RT":1494,"MT":362,"sideResp":2,"stimulus":"img/500/equaldotsize/R/2_Ratio_500_L_3_R_6.png","xmouse":[406.6669921875,406.6669921875,407.3330078125,407.3330078125,407.3330078125,407.3330078125,407.3330078125,407.3330078125,407.3330078125,407.3330078125,407.3330078125,407.3330078125,407,407,407,407,407,407,407,407,407,407,404.6669921875,404.6669921875,404.6669921875,404.6669921875,404.6669921875,404.6669921875,366.6669921875,366,366,366,366,366,366,366,366,366,366,370,370,370,370,370,370,370,370,370,370,371.3330078125,371.3330078125,371.3330078125,371.3330078125,371.3330078125,371.3330078125,371.3330078125,371.3330078125,371.3330078125,371.3330078125,372.6669921875,372.6669921875,372.6669921875,372.6669921875,372.6669921875,372.6669921875,372.6669921875,372.6669921875,372.6669921875,372.6669921875,374.6669921875,374.6669921875,374.6669921875,374.6669921875,392.6669921875,402,402,462,469.3330078125,482.6669921875,489,504.6669921875,536.6669921875,559.3330078125,570.6669921875,590,618,628,647.3330078125,656.6669921875,674.6669921875,695.3330078125,701.3330078125,708],"ymouse":[838.6669921875,838.6669921875,836.6669921875,836.6669921875,836.6669921875,836.6669921875,836.6669921875,836.6669921875,836.6669921875,836.6669921875,836.6669921875,836.6669921875,836,836,836,836,836,836,836,836,836,836,830.6669921875,830.6669921875,830.6669921875,830.6669921875,830.6669921875,830.6669921875,792.6669921875,794,794,794,794,794,794,794,794,794,794,801,801,801,801,801,801,801,801,801,801,805.3330078125,805.3330078125,805.3330078125,805.3330078125,805.3330078125,805.3330078125,805.3330078125,805.3330078125,805.3330078125,805.3330078125,805.3330078125,805.3330078125,805.3330078125,805.3330078125,805.3330078125,805.3330078125,805.3330078125,805.3330078125,805.3330078125,805.3330078125,800.6669921875,800.6669921875,800.6669921875,800.6669921875,775.3330078125,766,766,677,655.3330078125,611.3330078125,590,547.3330078125,483.3330078125,438.6669921875,416.6669921875,364,282,256,212.66700744628906,191.33299255371094,154.66700744628906,112.6669921875,102.66699981689453,89],"timestamp_mouse":[16,35,55,75,95,115,134,154,175,195,215,234,255,275,295,314,335,354,375,395,418,435,454,474,495,515,535,555,576,595,622,634,654,674,695,715,735,754,774,795,815,834,855,875,895,915,936,955,975,994,1014,1035,1055,1075,1095,1115,1135,1156,1175,1194,1215,1235,1255,1275,1294,1315,1335,1355,1375,1395,1414,1434,1455,1475,1494,1516,1535,1555,1575,1595,1614,1634,1654,1675,1695,1715,1736,1755,1775,1795,1819,1836,1855],"xSR":350,"ySR":768,"xT1":30,"yT1":0,"xT2":670,"yT2":0,"toosoon":0,"cond_shown":"equaldotsize","ratio_trial":500,"smaller_num":"3","larger_num":"6","correct_side":2,"subjID":"9","gender":"No_gender","age":"No_age","school":"No_school"},{"start_time":1549310167622,"click_time":1549310171077,"finger_time":1549310170675,"fix_duration":724.5983091971738,"trial":16,"RT":3053,"MT":402,"sideResp":2,"stimulus":"img/500/equaldotsize/R/15_Ratio_500_L_1_R_2.png","xmouse":[400,400.6669921875,400.6669921875,400.6669921875,400.6669921875,400.6669921875,400.6669921875,400.6669921875,400.6669921875,400.6669921875,398,398,398,398,398,398,398,398,398,398,398,398,398,398,398,398,398,398,398,398,398,398,398,398,398,398,398,398,398,398,398,398,398,398,398,405,405,405,405,405,405,405,405,405,405,405,405,405,405,405,405,405,405,405,405,405,405,405,405,405,405,405,405,405,405,405,405,405,405,405,405,405,405,405,405,405,405,405,405,405,405,405,405,405,405,405,405,405,405,405,405,405,405,405,405,405,405,405,405,405,393,393,393,393,393,393,393,393,393,393,393,393,393,393,393,393,393,393,393,393,393,393,393,393,393,393,393,393,393,393,393,393,393,393,393,400.6669921875,403.3330078125,403.3330078125,416,423,423,460,472.6669921875,480,494,516,526.6669921875,548,559,579.3330078125,608,617.3330078125,630,635.3330078125,644,651.3330078125,654.6669921875,656,659.3330078125,661.3330078125,668,674],"ymouse":[853,853.3330078125,853.3330078125,853.3330078125,853.3330078125,853.3330078125,853.3330078125,853.3330078125,853.3330078125,853.3330078125,852,852,852,852,852,852,852,852,852,852,852,852,852,852,852,852,852,852,852,852,852,852,852,852,852,852,852,852,852,852,852,852,852,852,852,845,845,845,845,845,845,845,845,845,845,845,845,845,845,845,845,845,845,845,845,845,845,845,845,845,845,845,845,845,845,845,845,845,845,845,845,845,845,845,845,845,845,845,845,845,845,845,845,845,845,845,845,845,845,845,845,845,845,845,845,845,845,845,845,845,822,822,822,822,822,822,822,822,822,822,822,822,822,822,822,822,822,822,822,822,822,822,822,822,822,822,822,822,822,822,822,822,822,822,822,816.6669921875,811.3330078125,811.3330078125,784,768,768,670,630.6669921875,609,559,473,440.6669921875,381,352,297.3330078125,228,209.33299255371094,177,165.33299255371094,146,126.6669921875,117.3330078125,112,104.66699981689453,100.66699981689453,90,83],"timestamp_mouse":[14,36,54,74,93,114,133,154,174,194,214,234,254,274,293,314,333,354,374,394,414,434,453,474,494,513,534,553,574,593,614,634,653,674,694,714,734,754,774,794,813,834,854,874,893,913,934,954,974,993,1014,1033,1054,1074,1093,1113,1134,1153,1174,1194,1214,1234,1254,1274,1294,1314,1334,1354,1374,1394,1414,1433,1454,1474,1494,1514,1534,1554,1574,1594,1614,1634,1654,1674,1693,1714,1734,1753,1774,1794,1814,1834,1854,1874,1894,1914,1934,1954,1973,1994,2014,2034,2054,2074,2094,2114,2134,2153,2174,2194,2246,2254,2273,2294,2314,2334,2354,2374,2394,2414,2434,2454,2474,2494,2514,2534,2554,2573,2593,2614,2634,2653,2674,2694,2714,2734,2753,2773,2794,2814,2834,2854,2874,2893,2913,2934,2956,2973,2993,3014,3033,3053,3075,3093,3115,3135,3154,3174,3196,3213,3234,3254,3274,3294,3314,3337,3354,3375,3393,3414,3437,3454],"xSR":350,"ySR":768,"xT1":30,"yT1":0,"xT2":670,"yT2":0,"toosoon":0,"cond_shown":"equaldotsize","ratio_trial":500,"smaller_num":"1","larger_num":"2","correct_side":2,"subjID":"9","gender":"No_gender","age":"No_age","school":"No_school"},{"start_time":1549310172734,"click_time":1549310178236,"finger_time":1549310177798,"fix_duration":656.0358221533111,"trial":17,"RT":5064,"MT":438,"sideResp":1,"stimulus":"img/250/equaldotsize/L/14_Ratio_250_L_12_R_3.png","xmouse":[366.6669921875,365.3330078125,364.6669921875,364,363.3330078125,363.3330078125,363.3330078125,363.3330078125,363.3330078125,363.3330078125,363.3330078125,364,364,364,364,364,364,364,364,364,364,364,364,364,364,364,364,364,364,364,364,364,364,364,364,364,364,364,364,364,364,364,364,364,364,364,364,364,364,364,364,364,364,364,364,364,364,364,364,364,364,364,364,364,364,364,364,364,364,364,364,364,364,364,364,364,364,364,364,364,364,364,364,364,364,364,364,364,364,364,364,364,364,364,364,364,364,364,364,364,364,364,364,364,364,364,364,364,364,364,364,364,364,364,364,364,364,364,364,364,364,364,364,364,364,364,364,364,364,364,364,364,364,364,364,364,364,364,364,364,364,364,364,364,364,364,364,364,364,364,364,364,364,364,364,364,364,364,364,364,364,364,364,364,364,364,364,364,364,364,364,364,364,364,364,364,364,364,364,364,364,364,364,364,364,364,364,364,364,364,364,364,364,364,364,364,364,364,364,364,364,364,364,364,364,364,364,364,364,364,364,364,364,364,364,364,364,364,364,364,364,364,364,364,364,364,364,364,364,364,364,364,364,364,364,364,364,364,364,364,364,364,364,364,364,386,384.6669921875,384.6669921875,382,381.3330078125,378.6669921875,376,366.6669921875,342,327,320,308,301,278,257.3330078125,248.6669921875,226,215.33299255371094,186,170.66700744628906,162,148.66700744628906,134,127.3330078125,109.33300018310547,99.33300018310547,95,90,88,81.33300018310547,77.33300018310547],"ymouse":[849.3330078125,848.6669921875,848.6669921875,848,849.3330078125,849.3330078125,848.6669921875,848.6669921875,848.6669921875,848.6669921875,848.6669921875,848,848,848,848,848,848,848,848,850,850,850,850,850,850,850,850,850,850,850,850,850,850,850,850,850,850,850,850,850,850,850,850,850,850,850,850,850,850,850,850,850,850,850,850,850,850,850,850,850,850,850,850,850,850,850,850,850,850,850,850,850,850,850,850,850,850,850,850,850,850,850,850,850,850,850,850,850,850,850,850,850,850,850,850,850,850,850,850,850,850,850,850,850,850,850,850,850,850,850,850,850,850,850,850,850,850,850,850,850,850,850,850,850,850,850,850,850,850,850,850,850,850,850,850,850,850,850,850,850,850,850,850,850,850,850,850,850,850,850,850,850,850,850,850,850,850,850,850,850,850,850,850,850,850,850,850,850,850,850,850,850,850,850,850,850,850,850,850,850,850,850,850,850,850,850,850,850,850,850,850,850,850,850,850,850,850,850,850,850,850,850,850,850,850,850,850,850,850,850,850,850,850,850,850,850,850,850,850,850,850,850,850,850,850,850,850,850,850,850,850,850,850,850,850,850,850,850,850,850,850,850,850,850,850,839,838.6669921875,838.6669921875,836,835.3330078125,831.3330078125,827,808.6669921875,752,708,686,637,612,536,485.3330078125,462.6669921875,416,392.6669921875,334,296.6669921875,278,243.3330078125,212,197.33299255371094,159.33299255371094,141.33299255371094,132,122,118,101.33300018310547,91.33300018310547],"timestamp_mouse":[2,27,42,61,82,101,124,142,162,181,202,222,241,262,282,301,321,341,362,382,402,422,442,462,482,501,522,542,562,582,602,622,642,662,682,702,722,742,762,782,802,822,842,862,882,902,922,941,962,982,1001,1021,1042,1062,1082,1101,1122,1142,1161,1182,1201,1221,1241,1262,1282,1302,1322,1342,1363,1384,1402,1421,1442,1461,1481,1502,1522,1542,1562,1582,1602,1621,1641,1662,1681,1701,1722,1742,1761,1782,1802,1822,1841,1862,1882,1902,1922,1941,1962,1981,2008,2022,2041,2061,2081,2101,2121,2142,2162,2182,2202,2222,2241,2261,2281,2302,2322,2342,2362,2382,2402,2435,2441,2462,2482,2501,2522,2542,2562,2582,2602,2622,2642,2662,2682,2702,2721,2742,2762,2782,2802,2821,2842,2861,2882,2902,2921,2941,2962,2981,3002,3022,3041,3062,3082,3102,3122,3142,3162,3182,3201,3221,3242,3261,3281,3302,3322,3342,3361,3382,3401,3422,3442,3462,3482,3502,3522,3542,3562,3581,3601,3622,3642,3662,3681,3702,3722,3742,3761,3781,3801,3822,3841,3862,3882,3902,3921,3941,3962,3982,4002,4022,4041,4061,4082,4102,4121,4141,4161,4182,4201,4222,4242,4262,4281,4301,4321,4342,4362,4381,4402,4422,4442,4462,4482,4501,4522,4542,4561,4581,4601,4621,4642,4662,4682,4702,4721,4741,4761,4782,4801,4821,4842,4862,4882,4902,4922,4942,4963,4981,5002,5021,5041,5064,5083,5102,5122,5142,5163,5182,5201,5222,5242,5264,5282,5302,5322,5342,5362,5384,5401,5422,5442,5462,5483,5501],"xSR":350,"ySR":768,"xT1":30,"yT1":0,"xT2":670,"yT2":0,"toosoon":0,"cond_shown":"equaldotsize","ratio_trial":250,"smaller_num":"3","larger_num":"12","correct_side":1,"subjID":"9","gender":"No_gender","age":"No_age","school":"No_school"},{"start_time":1549310180829,"click_time":1549310188678,"finger_time":1549310187077,"fix_duration":909.9354033101359,"trial":18,"RT":6248,"MT":1601,"sideResp":2,"stimulus":"img/750/randomdotsizeEA/L/1_Ratio_750_L_20_R_15.png","xmouse":[402,402,402,402,402,402,402,402,402,402,402,402,402,401.3330078125,401.3330078125,401.3330078125,401.3330078125,401.3330078125,401.3330078125,401.3330078125,401.3330078125,401.3330078125,401.3330078125,400.6669921875,400.6669921875,400.6669921875,400.6669921875,400.6669921875,400.6669921875,400.6669921875,400.6669921875,400.6669921875,400.6669921875,400,400,400,400,400,400,400,400,400,400,400,400,400,400,400,400,400,400,400,400,400,400,400,400,400,400,400,400,400,400,399,399,399,399,399,399,399,399,399,399,398,398,398,398,398,398,398,398,398,398,398,398,398,398,398,398,398,398,398,398,398,398,398,398,398,398,398,398,398,398,398,398,398,398,398,398,398,398,398,398,398,398,398,398,398,398,398,398,377,377,377,377,377,377,377,377,377,377,377,377,377,377,377,377,377,377,377,377,377,377,377,377,377,377,377,377,377,377,377,377,377,377,377,377,377,377,377,377,377,377,377,377,377,377,377,377,377,377,377,377,377,377,377,377,377,377,377,377,377,377,377,377,377,377,377,377,377,377,377,377,377,377,377,377,377,377,377,377,377,377,377,377,377,377,377,377,377,377,377,377,377,377,377,377,377,377,377,377,377,377,377,377,377,377,377,377,377,377,377,377,377,377,377,377,377,377,377,377,377,377,377,377,377,377,377,377,377,377,377,377,377,377,377,386.6669921875,387.3330078125,388,388,389,389,390,390,390,391.3330078125,392,392.6669921875,393.3330078125,394,394,394,393.3330078125,393.3330078125,393.3330078125,393.3330078125,393.3330078125,393.3330078125,393.3330078125,393.3330078125,393.3330078125,393.3330078125,388,388,388,388,388,388,384,383.3330078125,381.3330078125,380,379.3330078125,379.3330078125,379,379,380,380,380,380,380,380,393.3330078125,394.6669921875,397,401.3330078125,402.6669921875,405,406.6669921875,409.3330078125,414.6669921875,417.3330078125,418.6669921875,421,422,425.3330078125,429.3330078125,430.6669921875,433.3330078125,437,440,447.3330078125,450,456,458.6669921875,464,472.6669921875,477.3330078125,480,484,486,492,496.6669921875,498,504,506.6669921875,520,525,528.6669921875,530,534,540,543.3330078125,549,553.3330078125,562,572,574,578,581.3330078125,586.6669921875,592,594,596.6669921875,598,598,602,604,605.3330078125,608.6669921875,610,614.6669921875,617.3330078125,619.3330078125,622.6669921875,626,629.3330078125,634,638,640.6669921875,646,653.3330078125,655.3330078125,658.6669921875,660.6669921875,663.3330078125,668,669,673,676,680,685.3330078125,688,690.6669921875,695,697.3330078125,704.6669921875,708.6669921875,710,712,714,716],"ymouse":[800,800,800,800,800,800,800,800,800,800,800,800,800,800.6669921875,800.6669921875,800.6669921875,800.6669921875,800.6669921875,800.6669921875,800.6669921875,800.6669921875,800.6669921875,800.6669921875,800.6669921875,800.6669921875,800.6669921875,800.6669921875,800.6669921875,800.6669921875,800.6669921875,800.6669921875,800.6669921875,800.6669921875,800,800,800,800,800,800,800,800,800,800,798,798,798,798,798,798,798,798,798,798,797,797,797,797,797,797,797,797,797,797,796,796,796,796,796,796,796,796,796,796,794,794,794,794,794,794,794,794,792,792,792,792,792,792,792,792,792,792,792,792,792,792,792,792,792,792,792,792,792,792,792,792,792,792,792,792,792,792,792,792,792,792,792,792,792,792,792,792,828,828,828,828,828,828,828,828,828,828,828,828,828,828,828,828,828,828,828,828,828,828,828,828,828,828,828,828,828,828,828,828,828,828,828,828,828,828,828,828,828,828,828,828,828,828,828,828,828,828,828,828,828,828,828,828,828,828,828,828,828,828,828,828,828,828,828,828,828,828,828,828,828,828,828,828,828,828,828,828,828,828,828,828,828,828,828,828,828,828,828,828,828,828,828,828,828,828,828,828,828,828,828,828,828,828,828,828,828,828,828,828,828,828,828,828,828,828,828,828,828,828,828,828,828,828,828,828,828,828,828,828,828,828,828,828.6669921875,828.6669921875,828,828,828,828,828,828,828,827.3330078125,827,827.3330078125,827.3330078125,828,828,828,829.3330078125,829.3330078125,829.3330078125,829.3330078125,829.3330078125,829.3330078125,829.3330078125,829.3330078125,829.3330078125,829.3330078125,835,835,835,835,835,835,831,831.3330078125,831.3330078125,831,830.6669921875,830.6669921875,830,830,828,828,828,828,828,828,805.3330078125,802.6669921875,798,791.3330078125,788.6669921875,784,781.3330078125,776.6669921875,770.6669921875,767.3330078125,765.3330078125,762,760,756.6669921875,751.3330078125,748.6669921875,744.6669921875,740,737,728.6669921875,724,718,714.6669921875,708,698.6669921875,693.3330078125,691,686,683,675,669.3330078125,666,659,654.6669921875,626,612,601.3330078125,596,584,566,560.6669921875,548,541.3330078125,525,504,498,486,479.3330078125,467.3330078125,450,445,436.6669921875,428,422,404,393,387.3330078125,375.3330078125,370,356.6669921875,348.6669921875,344.6669921875,336.6669921875,328,321.3330078125,312,304,299.3330078125,289,272.6669921875,267.3330078125,256.6669921875,251.3330078125,241.3330078125,226,222,212,206,196,180.66700744628906,170,164.66700744628906,154,148.66700744628906,133.33299255371094,123.3330078125,118,110,106,95],"timestamp_mouse":[9,27,47,66,87,106,127,146,167,187,207,227,247,267,287,307,327,347,367,387,407,427,447,466,487,507,526,546,567,586,606,627,647,667,687,707,727,746,767,787,807,827,847,866,887,907,926,947,966,988,1006,1027,1047,1067,1087,1107,1127,1147,1167,1187,1207,1227,1246,1267,1288,1307,1326,1347,1367,1387,1407,1427,1447,1466,1487,1507,1527,1547,1566,1586,1607,1627,1647,1666,1687,1707,1727,1747,1766,1787,1806,1827,1847,1867,1887,1907,1927,1946,1966,1986,2006,2026,2047,2067,2087,2107,2127,2147,2167,2187,2207,2227,2247,2267,2287,2307,2327,2347,2367,2386,2407,2427,2446,2467,2487,2507,2527,2547,2567,2587,2607,2627,2647,2666,2686,2706,2726,2747,2767,2787,2807,2827,2847,2866,2887,2907,2927,2947,2967,2987,3007,3026,3047,3067,3087,3107,3126,3147,3166,3187,3207,3226,3247,3267,3286,3306,3327,3347,3366,3386,3407,3427,3447,3466,3487,3507,3527,3547,3566,3587,3607,3630,3670,3686,3707,3727,3747,3767,3787,3807,3827,3846,3867,3887,3907,3927,3947,3967,3987,4006,4027,4046,4067,4087,4107,4127,4147,4167,4187,4207,4227,4247,4267,4287,4307,4326,4347,4367,4387,4407,4428,4447,4467,4487,4507,4527,4547,4567,4587,4607,4626,4647,4666,4687,4707,4727,4746,4767,4787,4807,4827,4847,4867,4887,4907,4927,4947,4967,4987,5007,5027,5047,5067,5087,5107,5127,5149,5166,5187,5207,5227,5246,5268,5290,5307,5331,5346,5367,5387,5406,5427,5447,5468,5487,5507,5527,5546,5567,5587,5607,5629,5647,5666,5687,5706,5727,5746,5767,5787,5807,5829,5847,5866,5887,5907,5926,5946,5966,5986,6007,6027,6047,6067,6086,6106,6131,6147,6166,6187,6207,6229,6248,6268,6286,6306,6326,6346,6367,6387,6407,6427,6448,6467,6487,6507,6527,6549,6567,6587,6606,6627,6650,6668,6687,6707,6727,6747,6767,6787,6807,6827,6847,6867,6887,6907,6927,6947,6966,6987,7007,7027,7047,7067,7087,7106,7127,7147,7167,7187,7207,7227,7248,7268,7287,7306,7327,7348,7367,7386,7407,7428,7448,7467,7487,7507,7527,7547,7568,7587,7607,7627,7647,7666,7688,7707,7727,7747,7767,7787,7807,7827,7848],"xSR":350,"ySR":768,"xT1":30,"yT1":0,"xT2":670,"yT2":0,"toosoon":0,"cond_shown":"randomdotsizeEA","ratio_trial":750,"smaller_num":"15","larger_num":"20","correct_side":1,"subjID":"9","gender":"No_gender","age":"No_age","school":"No_school"},{"start_time":1549310191242,"click_time":1549310194716,"finger_time":1549310194176,"fix_duration":1244.273255024357,"trial":19,"RT":2934,"MT":540,"sideResp":1,"stimulus":"img/250/randomdotsizeEA/L/15_Ratio_250_L_12_R_3.png","xmouse":[408.6669921875,408.6669921875,408.6669921875,416.6669921875,416.6669921875,418,418,419,420,420,420,420,420,420,420,420,420,420,420,420,420,420,420,419.3330078125,419.3330078125,419.3330078125,419.3330078125,419.3330078125,419.3330078125,419.3330078125,419.3330078125,419.3330078125,419.3330078125,419.3330078125,419.3330078125,416,416,416,416,416,416,416,416,416,416,412,412,412,412,412,411.3330078125,410.6669921875,410.6669921875,410.6669921875,410.6669921875,412,412,412,412,412,412,412,412,412,412,412.6669921875,412.6669921875,412.6669921875,412.6669921875,412.6669921875,412.6669921875,412.6669921875,412.6669921875,412.6669921875,412.6669921875,412,412,412,412,412,412,412,412,412,412,412,412,412,412,412,413.3330078125,413.3330078125,413.3330078125,413.3330078125,413.3330078125,413.3330078125,396,396,395,395,395,395,396,396,396,396.6669921875,396,397.3330078125,397,398,398,398,398,398.6669921875,398.6669921875,398.6669921875,398.6669921875,398,398,398,398,398.6669921875,398.6669921875,398.6669921875,398.6669921875,398,398,398,397,397,397,397.3330078125,397.3330078125,397.3330078125,397.3330078125,397.3330078125,397.3330078125,397.3330078125,397.3330078125,397.3330078125,397.3330078125,386.6669921875,386.6669921875,386.6669921875,386.6669921875,370.6669921875,368,363,347,338,322.6669921875,317.3330078125,310.6669921875,294,276,268.6669921875,255.3330078125,245,211,195,188,171.33299255371094,161.33299255371094,136,127.3330078125,120.66699981689453,105.33300018310547,98,85,74,70.66699981689453,63.33300018310547,59.33300018310547,54.66699981689453],"ymouse":[835.3330078125,835.3330078125,835.3330078125,832.6669921875,832.6669921875,832,832,832,831,831,831,832,832,833,834,834,834,833,833,833,833,833,833,833.3330078125,833.3330078125,833.3330078125,833.3330078125,833.3330078125,833.3330078125,833.3330078125,833.3330078125,833.3330078125,833.3330078125,833.3330078125,833.3330078125,833,833,833,833,833,833,833,833,833,833,834,834,834,834,834,831.3330078125,831.3330078125,831.3330078125,831.3330078125,831.3330078125,840,840,840,840,840,840,840,840,840,840,842.6669921875,842.6669921875,842.6669921875,842.6669921875,842.6669921875,842.6669921875,842.6669921875,842.6669921875,842.6669921875,842.6669921875,840,840,840,840,840,840,840,840,840,840,840,840,840,840,840,835.3330078125,835.3330078125,835.3330078125,835.3330078125,835.3330078125,835.3330078125,786,786,792,792,792,792,796,798,798,799.3330078125,800,800.6669921875,802,802,802,802,802,802.6669921875,802.6669921875,802.6669921875,802.6669921875,802,802,802,802,802.6669921875,802.6669921875,802.6669921875,802.6669921875,802,802,802,802,802,802,801.3330078125,801.3330078125,801.3330078125,801.3330078125,801.3330078125,801.3330078125,801.3330078125,801.3330078125,801.3330078125,801.3330078125,793.3330078125,793.3330078125,793.3330078125,793.3330078125,771.3330078125,767,758,726,710,678.6669921875,667.3330078125,652.6669921875,615,580,563.3330078125,529.3330078125,510,446,412,394,355.3330078125,334.6669921875,278,251.3330078125,237.33299255371094,205.33299255371094,191,166,140,132.66700744628906,115.3330078125,107.33300018310547,97.33300018310547],"timestamp_mouse":[14,34,57,73,94,113,134,154,174,193,214,234,253,273,295,314,334,353,373,393,414,433,454,474,493,513,534,553,574,594,613,634,654,674,694,713,734,755,773,794,814,834,854,873,893,914,934,954,973,994,1014,1034,1057,1074,1094,1114,1133,1154,1174,1193,1214,1234,1254,1273,1294,1314,1334,1354,1374,1394,1414,1434,1454,1476,1494,1514,1534,1554,1573,1593,1614,1634,1655,1674,1694,1714,1733,1754,1777,1793,1814,1834,1853,1874,1894,1914,1934,1953,1986,1994,2014,2033,2057,2073,2094,2114,2134,2154,2174,2193,2214,2233,2254,2273,2293,2314,2333,2354,2373,2393,2414,2433,2454,2474,2494,2513,2533,2554,2575,2594,2613,2634,2654,2674,2694,2714,2734,2754,2773,2793,2814,2834,2854,2874,2903,2914,2934,2954,2974,2994,3013,3034,3054,3074,3094,3113,3134,3153,3174,3194,3214,3234,3254,3276,3293,3314,3333,3354,3374,3393,3414,3434,3454,3474],"xSR":350,"ySR":768,"xT1":30,"yT1":0,"xT2":670,"yT2":0,"toosoon":0,"cond_shown":"randomdotsizeEA","ratio_trial":250,"smaller_num":"3","larger_num":"12","correct_side":1,"subjID":"9","gender":"No_gender","age":"No_age","school":"No_school"},{"start_time":1549310196328,"click_time":1549310200478,"finger_time":1549310200176,"fix_duration":250,"trial":20,"RT":3848,"MT":302,"sideResp":2,"stimulus":"img/250/randomdotsize/R/6_Ratio_250_L_6_R_24.png","xmouse":[399.3330078125,399.3330078125,399.3330078125,399.3330078125,399.3330078125,399.3330078125,399.3330078125,399.3330078125,400.6669921875,400.6669921875,400.6669921875,400.6669921875,400.6669921875,400.6669921875,400.6669921875,400.6669921875,400.6669921875,400.6669921875,400.6669921875,400.6669921875,400.6669921875,400.6669921875,400.6669921875,400.6669921875,400.6669921875,400.6669921875,400.6669921875,400.6669921875,396.6669921875,396.6669921875,396.6669921875,396.6669921875,396.6669921875,396.6669921875,396.6669921875,396.6669921875,396.6669921875,396.6669921875,396.6669921875,396.6669921875,396.6669921875,396.6669921875,396.6669921875,396.6669921875,396.6669921875,396.6669921875,396.6669921875,396.6669921875,396.6669921875,396.6669921875,396.6669921875,396.6669921875,396.6669921875,396.6669921875,396.6669921875,396.6669921875,396.6669921875,396.6669921875,396.6669921875,396.6669921875,396.6669921875,396.6669921875,396.6669921875,396.6669921875,396.6669921875,396.6669921875,396.6669921875,396.6669921875,396.6669921875,396.6669921875,396.6669921875,396.6669921875,396.6669921875,396.6669921875,396.6669921875,396.6669921875,396.6669921875,396.6669921875,389,389,389,389,389,389,389,389,389,389,389,389,389,389,389,389,389,389,389,389,389,389,389,389,389,389,389,389,389,389,389,389,389,389,389,389,389,389,389,389,389,389,389,389,389,389,389,389,389,389,389,389,389,389,389,389,389,389,389,389,389,389,389,389,389,389,389,389,389,389,389,388,388.6669921875,388.6669921875,388.6669921875,388.6669921875,391.3330078125,391.3330078125,391.3330078125,391.3330078125,391.3330078125,391.3330078125,391.3330078125,391.3330078125,391.3330078125,391.3330078125,391.3330078125,391.3330078125,391.3330078125,391.3330078125,391.3330078125,391.3330078125,391.3330078125,391.3330078125,391.3330078125,391.3330078125,391.3330078125,391.3330078125,391.3330078125,391.3330078125,391.3330078125,391.3330078125,391.3330078125,391.3330078125,391.3330078125,391.3330078125,391.3330078125,391.3330078125,387.3330078125,387.3330078125,387.3330078125,389.3330078125,405.3330078125,413.3330078125,429,440,464,507,536.6669921875,551.3330078125,578,589.3330078125,628,652.6669921875,662.6669921875,682,695,702.6669921875,717.3330078125],"ymouse":[833.3330078125,833.3330078125,833.3330078125,833.3330078125,833.3330078125,833.3330078125,833.3330078125,833.3330078125,834.6669921875,834.6669921875,834.6669921875,834.6669921875,834.6669921875,834.6669921875,834.6669921875,834.6669921875,834.6669921875,834.6669921875,832.6669921875,832.6669921875,832.6669921875,832.6669921875,832.6669921875,832.6669921875,832.6669921875,832.6669921875,832.6669921875,832.6669921875,829.3330078125,829.3330078125,829.3330078125,829.3330078125,829.3330078125,829.3330078125,829.3330078125,829.3330078125,829.3330078125,829.3330078125,828.6669921875,828.6669921875,828.6669921875,828.6669921875,828.6669921875,826.6669921875,826.6669921875,826.6669921875,826.6669921875,826.6669921875,826.6669921875,826.6669921875,826.6669921875,826.6669921875,826.6669921875,826.6669921875,826.6669921875,826.6669921875,826.6669921875,826.6669921875,826.6669921875,826.6669921875,826.6669921875,826.6669921875,826.6669921875,826.6669921875,826.6669921875,826.6669921875,826.6669921875,826.6669921875,826.6669921875,826.6669921875,826.6669921875,826.6669921875,826.6669921875,826.6669921875,826.6669921875,826.6669921875,826.6669921875,826.6669921875,826,826,826,826,826,826,826,826,826,826,826,826,826,826,826,826,826,826,826,826,826,826,826,826,826,826,826,826,826,826,826,826,826,826,826,826,826,826,826,826,826,826,826,826,826,826,826,826,826,826,826,826,826,826,826,826,826,826,826,826,826,826,826,826,826,826,826,826,826,826,826,834,835.3330078125,835.3330078125,835.3330078125,835.3330078125,835.3330078125,835.3330078125,835.3330078125,835.3330078125,835.3330078125,835.3330078125,835.3330078125,835.3330078125,835.3330078125,835.3330078125,835.3330078125,835.3330078125,835.3330078125,835.3330078125,835.3330078125,835.3330078125,835.3330078125,835.3330078125,835.3330078125,835.3330078125,835.3330078125,835.3330078125,835.3330078125,835.3330078125,835.3330078125,835.3330078125,835.3330078125,835.3330078125,835.3330078125,835.3330078125,835.3330078125,835.3330078125,841.3330078125,834.6669921875,834.6669921875,819.3330078125,769.3330078125,745.3330078125,698,672,614,518,455.3330078125,424.6669921875,368,343.3330078125,270,225.33299255371094,203.33299255371094,164,132,116.6669921875,79.33300018310547],"timestamp_mouse":[11,28,48,67,87,108,128,148,167,187,208,228,248,268,288,307,328,348,368,388,409,428,448,467,488,510,528,548,568,588,607,627,648,667,688,709,728,748,768,788,808,828,848,867,888,907,928,948,967,988,1008,1028,1048,1068,1087,1107,1128,1148,1167,1187,1209,1228,1247,1268,1288,1307,1328,1348,1367,1388,1407,1428,1448,1468,1487,1507,1527,1548,1575,1588,1608,1628,1648,1668,1688,1707,1728,1748,1768,1787,1808,1827,1848,1868,1888,1908,1928,1948,1968,1988,2007,2028,2048,2068,2088,2108,2128,2148,2167,2188,2208,2228,2248,2268,2288,2308,2328,2348,2368,2388,2408,2428,2447,2468,2488,2508,2528,2548,2568,2588,2608,2628,2648,2668,2688,2708,2728,2748,2768,2788,2808,2828,2848,2888,2909,2928,2947,2968,2988,3007,3033,3048,3068,3088,3108,3128,3148,3167,3187,3207,3228,3248,3267,3287,3308,3328,3347,3368,3387,3408,3428,3448,3468,3488,3507,3527,3548,3568,3588,3607,3628,3648,3668,3688,3708,3727,3750,3768,3788,3808,3829,3848,3869,3888,3907,3928,3948,3967,3987,4007,4029,4048,4068,4087,4108,4127,4149],"xSR":350,"ySR":768,"xT1":30,"yT1":0,"xT2":670,"yT2":0,"toosoon":0,"cond_shown":"randomdotsize","ratio_trial":250,"smaller_num":"6","larger_num":"24","correct_side":2,"subjID":"9","gender":"No_gender","age":"No_age","school":"No_school"},{"start_time":1549310203458,"click_time":1549310205499,"finger_time":1549310205196,"fix_duration":316.8908373365185,"trial":21,"RT":1738,"MT":303,"sideResp":1,"stimulus":"img/500/randomdotsizeEA/L/7_Ratio_500_L_10_R_5.png","xmouse":[420,420,420,420.6669921875,420,420,420,420,420,420,420,420,420,420,420,420,420,420,420,420,421.3330078125,421.3330078125,421.3330078125,421.3330078125,421.3330078125,421.3330078125,421.3330078125,421.3330078125,421.3330078125,421.3330078125,422,422,422,422,422,422,422,424,424,424,424,424,424,424,424,424,424,424,424,424,424,424,424,424,399,399,399.3330078125,399.3330078125,399.3330078125,399.3330078125,399.3330078125,399.3330078125,399.3330078125,399.3330078125,399.3330078125,399.3330078125,399,399,399,399,399,399,399,399,399,399,399,400,400,400,400,400,400,400,398,394.6669921875,375.3330078125,365.3330078125,345.3330078125,326.6669921875,318,293,274,265,240.66700744628906,226.66700744628906,181,152,139.33299255371094,122.66699981689453,114,97.33300018310547],"ymouse":[826,826,826,826.6669921875,826,826,826,826,826,826,826,826,826,826,826,826,826,826,826,826,825.3330078125,825.3330078125,825.3330078125,825.3330078125,825.3330078125,825.3330078125,825.3330078125,825.3330078125,825.3330078125,825.3330078125,822,822,822,822,822,822,822,818,818,818,818,818,818,818,818,818,818,818,818,818,818,818,818,818,818,818,818.6669921875,818.6669921875,818.6669921875,818.6669921875,818.6669921875,818.6669921875,818.6669921875,818.6669921875,818.6669921875,818.6669921875,820,820,820,820,820,820,820,820,820,820,820,817,817,817,817,817,817,817,800,781.3330078125,727.3330078125,706.6669921875,656.6669921875,595.3330078125,564,468,400,372,311.3330078125,282.6669921875,212,171,152.66700744628906,120.6669921875,108,77.33300018310547],"timestamp_mouse":[22,38,58,78,97,118,138,158,178,198,218,238,258,278,297,318,338,358,378,398,417,437,457,478,498,518,538,558,577,598,618,637,658,678,698,718,738,758,778,797,818,838,858,878,897,918,938,958,978,998,1017,1038,1058,1077,1098,1128,1138,1157,1178,1197,1218,1237,1258,1278,1298,1318,1339,1357,1377,1398,1418,1438,1458,1478,1497,1518,1538,1558,1578,1598,1618,1638,1658,1678,1698,1718,1738,1759,1778,1798,1818,1838,1858,1878,1898,1917,1940,1957,1978,1998,2018,2041],"xSR":350,"ySR":768,"xT1":30,"yT1":0,"xT2":670,"yT2":0,"toosoon":0,"cond_shown":"randomdotsizeEA","ratio_trial":500,"smaller_num":"5","larger_num":"10","correct_side":1,"subjID":"9","gender":"No_gender","age":"No_age","school":"No_school"},{"start_time":1549310206688,"click_time":1549310210138,"finger_time":1549310209719,"fix_duration":250,"trial":22,"RT":3031,"MT":419,"sideResp":2,"stimulus":"img/750/randomdotsize/R/4_Ratio_750_L_15_R_20.png","xmouse":[376,376,377,378,378.6669921875,379.3330078125,380,381,381.3330078125,380.6669921875,380.6669921875,380.6669921875,380.6669921875,380.6669921875,380.6669921875,380.6669921875,380.6669921875,380.6669921875,380.6669921875,380.6669921875,380,380,380,380,380,380,378,378,378,378,378,378,378,378,378,378,378,378,378,378,378,378,378,378,378,378,378,378,378,378,378,378,378,378,378,378,378,378,378,378,378,384,384,384,384,384,384,384,384,384,384,384,384,384,384,384,384,384,384,384,384,384,384,384,384,384,384,384,384,384,384,384,384,384,384,384,384,384,384,384,384,384,384,384,384,384,384,384,384,384,384,384,384,384,390.6669921875,390.6669921875,390.6669921875,390.6669921875,390.6669921875,390.6669921875,390.6669921875,390.6669921875,390.6669921875,390.6669921875,390.6669921875,390.6669921875,390.6669921875,390.6669921875,390.6669921875,390.6669921875,390.6669921875,390.6669921875,390.6669921875,390.6669921875,390.6669921875,390.6669921875,388,388,388,388,388,388,388,388,388,388,396,396,396,430,462,474.6669921875,501.3330078125,515.3330078125,544.6669921875,583,601,608,624.6669921875,632,658,672,678,685.3330078125,688.6669921875,693.3330078125,703.3330078125,708,710.6669921875,712,711.3330078125,711.3330078125],"ymouse":[829,830,830,830,831.3330078125,831.3330078125,832,832,831.3330078125,831.3330078125,831.3330078125,831.3330078125,831.3330078125,831.3330078125,831.3330078125,831.3330078125,831.3330078125,831.3330078125,831.3330078125,831.3330078125,832,832,832,832,832,832,830,830,830,830,830,830,830,830,830,830,830,830,830,830,830,830,830,830,830,830,830,830,830,830,830,830,830,830,830,830,830,830,830,830,830,833,833,833,833,833,833,833,833,833,833,833,833,833,833,833,833,833,833,833,833,833,833,833,833,833,833,833,833,833,833,833,833,833,833,833,833,833,833,833,833,833,833,833,833,833,833,833,833,833,833,833,833,833,839.3330078125,839.3330078125,838.6669921875,838.6669921875,838.6669921875,838.6669921875,838.6669921875,838.6669921875,838.6669921875,838.6669921875,838.6669921875,838.6669921875,838.6669921875,838.6669921875,838.6669921875,838.6669921875,838.6669921875,838.6669921875,838.6669921875,838.6669921875,838.6669921875,838.6669921875,839,839,839,839,839,839,839,839,839,839,830,830,830,776,718,696.6669921875,645.3330078125,617.3330078125,561.3330078125,478,428,404,354.6669921875,332,267,232,216,193.33299255371094,180.66700744628906,163.33299255371094,135.33299255371094,118,112.6669921875,107,105.33300018310547,99.33300018310547],"timestamp_mouse":[11,28,48,68,87,108,128,148,167,187,208,227,248,268,287,307,327,347,368,387,410,428,448,468,488,507,528,548,568,587,608,627,647,668,687,708,728,748,768,788,808,828,848,868,888,910,928,948,967,989,1008,1028,1048,1068,1087,1108,1127,1148,1168,1187,1208,1231,1248,1268,1288,1308,1328,1347,1368,1388,1407,1428,1448,1468,1488,1507,1527,1548,1568,1588,1608,1628,1648,1668,1688,1707,1728,1748,1768,1788,1808,1828,1848,1868,1888,1908,1929,1948,1967,1988,2008,2028,2048,2068,2088,2109,2128,2147,2168,2187,2208,2228,2247,2268,2296,2333,2350,2368,2388,2408,2428,2448,2468,2488,2508,2527,2551,2568,2587,2608,2630,2647,2668,2688,2708,2729,2747,2768,2788,2807,2828,2848,2868,2888,2908,2927,2954,2969,2988,3008,3031,3050,3069,3087,3107,3129,3148,3167,3187,3208,3230,3248,3269,3289,3308,3329,3351,3367,3388,3407,3427,3450],"xSR":350,"ySR":768,"xT1":30,"yT1":0,"xT2":670,"yT2":0,"toosoon":0,"cond_shown":"randomdotsize","ratio_trial":750,"smaller_num":"15","larger_num":"20","correct_side":2,"subjID":"9","gender":"No_gender","age":"No_age","school":"No_school"},{"start_time":1549310214064,"click_time":1549310216536,"finger_time":1549310216196,"fix_duration":925.1904201315941,"trial":23,"RT":2132,"MT":340,"sideResp":2,"stimulus":"img/900/randomdotsizeEA/R/3_Ratio_900_L_9_R_10.png","xmouse":[399,399,399,399,392.6669921875,392,390.6669921875,390,389.3330078125,388,387,387,386,386.6669921875,385.3330078125,384.6669921875,384,383,382,381,381,381,381,381,381,381,381,381,381,382.6669921875,382.6669921875,382.6669921875,382.6669921875,382.6669921875,386,386,385.3330078125,384,383,381,380,380,380,380,380,380,380,380,380,380,386.6669921875,386.6669921875,386.6669921875,386.6669921875,386.6669921875,386.6669921875,386.6669921875,386.6669921875,386.6669921875,386.6669921875,386.6669921875,386.6669921875,386.6669921875,386.6669921875,386.6669921875,386.6669921875,386.6669921875,386.6669921875,386.6669921875,386.6669921875,386.6669921875,392.6669921875,393.3330078125,393.3330078125,393.3330078125,393.3330078125,393.3330078125,393.3330078125,393.3330078125,393.3330078125,393.3330078125,393.3330078125,402,402,402,402,402,402,402,402,402,402,402,402,402,402,402,402,402,402,402,402,402.6669921875,403.3330078125,404.6669921875,424,442.6669921875,452,472,482,517.3330078125,544,556.6669921875,582,594.6669921875,623,638,652.6669921875,659.3330078125,668,680.6669921875,684,688,689.3330078125],"ymouse":[848,848,848,848,832.6669921875,832,831.3330078125,830,830.6669921875,830,830,830,830,829.3330078125,829.3330078125,828.6669921875,828,828,828,828,828,828,828,828,828,828,828,828,828,830.6669921875,830.6669921875,830.6669921875,830.6669921875,830.6669921875,824,823,821.3330078125,820,820,820,820,820,820,820,820,820,820,820,820,820,821.3330078125,821.3330078125,818.6669921875,818.6669921875,818.6669921875,818.6669921875,818.6669921875,818.6669921875,818.6669921875,818.6669921875,818.6669921875,818.6669921875,818.6669921875,818.6669921875,818.6669921875,818.6669921875,818.6669921875,818.6669921875,818.6669921875,818.6669921875,818.6669921875,831.3330078125,831.3330078125,831.3330078125,831.3330078125,831.3330078125,831.3330078125,831.3330078125,831.3330078125,831.3330078125,831.3330078125,831.3330078125,832,832,832,832,832,832,832,832,832,832,832,832,832,832,832,832,832,832,832,832,829.3330078125,826.6669921875,821.3330078125,770,723.3330078125,699,646,618,528.6669921875,468,441.3330078125,382,352.6669921875,276,228,187.33299255371094,171.33299255371094,146,118.6669921875,111,100,97.33300018310547],"timestamp_mouse":[18,32,52,71,95,112,131,151,172,205,211,231,252,272,294,312,332,352,372,397,414,432,451,471,492,511,531,552,571,594,612,632,652,672,695,712,731,751,772,793,813,832,852,872,892,911,931,953,972,992,1015,1031,1052,1072,1091,1111,1133,1152,1172,1193,1212,1232,1252,1272,1291,1312,1332,1352,1372,1392,1412,1435,1452,1474,1492,1512,1532,1551,1571,1591,1612,1632,1652,1671,1692,1712,1732,1752,1771,1791,1811,1832,1852,1871,1892,1912,1932,1951,1972,1992,2012,2032,2051,2072,2091,2112,2132,2151,2172,2193,2213,2231,2252,2272,2291,2313,2332,2352,2371,2392,2415,2431,2452,2472],"xSR":350,"ySR":768,"xT1":30,"yT1":0,"xT2":670,"yT2":0,"toosoon":0,"cond_shown":"randomdotsizeEA","ratio_trial":900,"smaller_num":"9","larger_num":"10","correct_side":2,"subjID":"9","gender":"No_gender","age":"No_age","school":"No_school"},{"start_time":1549310227596,"click_time":1549310228416,"finger_time":1549310228196,"fix_duration":1278.6079407840616,"trial":24,"RT":600,"MT":220,"sideResp":1,"stimulus":"img/250/equaldotsize/R/8_Ratio_250_L_1_R_4.png","xmouse":[374.6669921875,374.6669921875,374.6669921875,376.6669921875,376.6669921875,376.6669921875,376.6669921875,376.6669921875,376.6669921875,376.6669921875,376.6669921875,376.6669921875,376.6669921875,378,378,378,378,378,378,378,378,378,378,378,378,378,378,378,378,378,348,338,316.6669921875,274,258,226,210.66700744628906,182,140,115.33300018310547,106,90.66699981689453],"ymouse":[817.3330078125,817.3330078125,817.3330078125,817.3330078125,817.3330078125,817.3330078125,817.3330078125,817.3330078125,817.3330078125,817.3330078125,817.3330078125,817.3330078125,817.3330078125,818,818,818,818,818,818,818,818,818,818,814,814,814,814,814,814,814,674,638,563.3330078125,440,399,324,290.6669921875,234,160,119.3330078125,102,70.66699981689453],"timestamp_mouse":[2,19,39,61,80,100,120,139,159,180,200,220,240,261,279,300,320,340,359,380,400,420,440,464,479,500,520,540,559,580,600,620,640,662,681,699,720,740,760,780,800,820],"xSR":350,"ySR":768,"xT1":30,"yT1":0,"xT2":670,"yT2":0,"toosoon":0,"cond_shown":"equaldotsize","ratio_trial":250,"smaller_num":"1","larger_num":"4","correct_side":2,"subjID":"9","gender":"No_gender","age":"No_age","school":"No_school"},{"start_time":1549310234973,"click_time":1549310235817,"finger_time":1549310235596,"fix_duration":250,"trial":25,"RT":623,"MT":221,"sideResp":1,"stimulus":"img/500/equaldotsize/L/11_Ratio_500_L_12_R_6.png","xmouse":[361.3330078125,361.3330078125,361.3330078125,361.3330078125,361.3330078125,361.3330078125,361.3330078125,360,360,360,360,361,361,361,361,361.3330078125,361.3330078125,361.3330078125,361.3330078125,361.3330078125,362,362,362,362,362,362,362,362,362,362,362,347.3330078125,308,293,262,245.33299255371094,208,154.66700744628906,140,112,90,80.66699981689453,65],"ymouse":[832.6669921875,832.6669921875,832.6669921875,832.6669921875,832.6669921875,832.6669921875,832.6669921875,834,834,834,834,834,834,834,834,834.6669921875,834.6669921875,834.6669921875,834.6669921875,834.6669921875,834,834,834,834,834,834,834,834,834,834,834,754.6669921875,652,618,540,501.3330078125,419,299.3330078125,268,205,155,133.33299255371094,86],"timestamp_mouse":[3,23,43,63,82,103,124,142,162,182,202,223,243,262,282,303,323,343,362,383,402,423,443,463,483,503,523,542,563,583,603,623,643,662,683,702,723,742,764,782,803,823,843],"xSR":350,"ySR":768,"xT1":30,"yT1":0,"xT2":670,"yT2":0,"toosoon":0,"cond_shown":"equaldotsize","ratio_trial":500,"smaller_num":"6","larger_num":"12","correct_side":1,"subjID":"9","gender":"No_gender","age":"No_age","school":"No_school"},{"start_time":1549310239627,"click_time":1549310240396,"finger_time":1549310240115,"fix_duration":1329.6967160773972,"trial":26,"RT":488,"MT":281,"sideResp":2,"stimulus":"img/900/randomdotsize/L/1_Ratio_900_L_10_R_9.png","xmouse":[426,426,426,426,426,426,425,424.6669921875,424,423.3330078125,423.3330078125,422.6669921875,422.6669921875,422.6669921875,422,422,422,422,422,422,422,422,422,422,467.3330078125,499.3330078125,509.3330078125,529,540,565.3330078125,603.3330078125,629.3330078125,640.6669921875,666,677.3330078125,706.6669921875,706.6669921875,728.6669921875,737],"ymouse":[828,828,828,828,828,828,828,828.6669921875,828,828.6669921875,828.6669921875,829.3330078125,829.3330078125,829.3330078125,829,829,828,828,828,828,828,828,828,828,711.3330078125,624.6669921875,590.6669921875,514,476,412.6669921875,340.6669921875,294.6669921875,273.3330078125,234,216.66700744628906,162.66700744628906,162.66700744628906,113.3330078125,94],"timestamp_mouse":[15,29,51,69,89,123,128,149,169,188,209,229,249,268,289,309,329,349,368,389,408,431,449,469,488,511,531